build	computer.platform	date	time	timestamp	time_elapsed_ms	subject	group	session	blockcode	blocknum	trialcode	trialnum	stimulus_left	stimulus_right	stim_index	target_present	response	correct	latency
6.6.1	win	2022-12-23	12:15:22	12:18:29	183577	5b182365316c630001abff4f	241774363	1	practice_slash	5	practice_slash	1	stimuli_distractor_trianglediamonds.svg	stimuli_distractor_trianglediamonds.svg	15	no	53	0	617
6.6.1	win	2022-12-23	12:15:22	12:18:29	183577	5b182365316c630001abff4f	241774363	1	practice_slash	5	advance_on_keypress_SLASH	2	stimuli_distractor_trianglediamonds.svg	stimuli_distractor_trianglediamonds.svg	15	no	57	0	697
6.6.1	win	2022-12-23	12:15:22	12:18:32	187134	5b182365316c630001abff4f	241774363	1	practice_slash	5	practice_slash	3	stimuli_distractor_trianglediamonds.svg	stimuli_distractor_diamondtriangles.svg	16	no	53	0	1208
6.6.1	win	2022-12-23	12:15:22	12:18:32	187134	5b182365316c630001abff4f	241774363	1	practice_slash	5	advance_on_keypress_SLASH	4	stimuli_distractor_trianglediamonds.svg	stimuli_distractor_diamondtriangles.svg	16	no	57	0	631
6.6.1	win	2022-12-23	12:15:22	12:18:36	190639	5b182365316c630001abff4f	241774363	1	practice_slash	5	practice_slash	5	stimuli_target_circlediamonds.svg	stimuli_distractor_trianglediamonds.svg	4	yes	53	1	1229
6.6.1	win	2022-12-23	12:15:22	12:18:36	190639	5b182365316c630001abff4f	241774363	1	practice_slash	5	advance_on_keypress_SLASH	6	stimuli_target_circlediamonds.svg	stimuli_distractor_trianglediamonds.svg	4	yes	57	0	1428
6.6.1	win	2022-12-23	12:15:22	12:18:40	194974	5b182365316c630001abff4f	241774363	1	practice_slash	5	practice_slash	7	stimuli_distractor_diamondtriangles.svg	stimuli_target_circletriangles.svg	7	yes	53	1	1248
6.6.1	win	2022-12-23	12:15:22	12:18:40	194974	5b182365316c630001abff4f	241774363	1	practice_slash	5	advance_on_keypress_SLASH	8	stimuli_distractor_diamondtriangles.svg	stimuli_target_circletriangles.svg	7	yes	57	0	631
6.6.1	win	2022-12-23	12:15:22	12:18:43	198477	5b182365316c630001abff4f	241774363	1	practice_slash	5	practice_slash	9	stimuli_target_squarediamonds.svg	stimuli_distractor_diamondtriangles.svg	2	yes	53	1	1217
6.6.1	win	2022-12-23	12:15:22	12:18:43	198477	5b182365316c630001abff4f	241774363	1	practice_slash	5	advance_on_keypress_SLASH	10	stimuli_target_squarediamonds.svg	stimuli_distractor_diamondtriangles.svg	2	yes	57	0	496
6.6.1	win	2022-12-23	12:15:22	12:18:48	202627	5b182365316c630001abff4f	241774363	1	practice_slash	5	practice_slash	11	stimuli_distractor_trianglediamonds.svg	stimuli_target_diamondcircles.svg	12	yes	0	0	2000
6.6.1	win	2022-12-23	12:15:22	12:18:48	202627	5b182365316c630001abff4f	241774363	1	practice_slash	5	advance_on_keypress_SLASH	12	stimuli_distractor_trianglediamonds.svg	stimuli_target_diamondcircles.svg	12	yes	57	0	549
6.6.1	win	2022-12-23	12:15:22	12:18:51	205893	5b182365316c630001abff4f	241774363	1	practice_slash	5	practice_slash	13	stimuli_distractor_diamondtriangles.svg	stimuli_distractor_trianglediamonds.svg	14	no	53	0	1066
6.6.1	win	2022-12-23	12:15:22	12:18:51	205893	5b182365316c630001abff4f	241774363	1	practice_slash	5	advance_on_keypress_SLASH	14	stimuli_distractor_diamondtriangles.svg	stimuli_distractor_trianglediamonds.svg	14	no	57	0	71
6.6.1	win	2022-12-23	12:15:22	12:18:54	209227	5b182365316c630001abff4f	241774363	1	practice_slash	5	practice_slash	15	stimuli_distractor_diamondtriangles.svg	stimuli_target_diamondcircles.svg	8	yes	53	1	1616
6.6.1	win	2022-12-23	12:15:22	12:18:54	209227	5b182365316c630001abff4f	241774363	1	practice_slash	5	advance_on_keypress_SLASH	16	stimuli_distractor_diamondtriangles.svg	stimuli_target_diamondcircles.svg	8	yes	57	0	664
6.6.1	win	2022-12-23	12:15:22	12:18:59	213544	5b182365316c630001abff4f	241774363	1	practice_slash	5	practice_slash	17	stimuli_distractor_diamondtriangles.svg	stimuli_target_trianglecircles.svg	9	yes	0	0	2000
6.6.1	win	2022-12-23	12:15:22	12:18:59	213544	5b182365316c630001abff4f	241774363	1	practice_slash	5	advance_on_keypress_SLASH	18	stimuli_distractor_diamondtriangles.svg	stimuli_target_trianglecircles.svg	9	yes	57	0	144
6.6.1	win	2022-12-23	12:15:22	12:19:02	217214	5b182365316c630001abff4f	241774363	1	practice_slash	5	practice_slash	19	stimuli_target_circlediamonds.svg	stimuli_distractor_diamondtriangles.svg	1	yes	53	1	1869
6.6.1	win	2022-12-23	12:15:22	12:19:02	217214	5b182365316c630001abff4f	241774363	1	practice_slash	5	advance_on_keypress_SLASH	20	stimuli_target_circlediamonds.svg	stimuli_distractor_diamondtriangles.svg	1	yes	57	0	758
6.6.1	win	2022-12-23	12:15:22	12:19:06	220764	5b182365316c630001abff4f	241774363	1	practice_slash	5	practice_slash	21	stimuli_target_squarediamonds.svg	stimuli_distractor_trianglediamonds.svg	5	yes	53	1	1153
6.6.1	win	2022-12-23	12:15:22	12:19:06	220764	5b182365316c630001abff4f	241774363	1	practice_slash	5	advance_on_keypress_SLASH	22	stimuli_target_squarediamonds.svg	stimuli_distractor_trianglediamonds.svg	5	yes	57	0	518
6.6.1	win	2022-12-23	12:15:22	12:19:10	224929	5b182365316c630001abff4f	241774363	1	practice_slash	5	practice_slash	23	stimuli_distractor_diamondtriangles.svg	stimuli_distractor_diamondtriangles.svg	13	no	0	1	2000
6.6.1	win	2022-12-23	12:15:22	12:19:10	224929	5b182365316c630001abff4f	241774363	1	practice_slash	5	advance_on_keypress_SLASH	24	stimuli_distractor_diamondtriangles.svg	stimuli_distractor_diamondtriangles.svg	13	no	57	0	735
6.6.1	win	2022-12-23	12:15:22	12:19:14	228946	5b182365316c630001abff4f	241774363	1	practice_slash	5	practice_slash	25	stimuli_distractor_trianglediamonds.svg	stimuli_target_circlediamonds.svg	10	yes	53	1	1634
6.6.1	win	2022-12-23	12:15:22	12:19:14	228946	5b182365316c630001abff4f	241774363	1	practice_slash	5	advance_on_keypress_SLASH	26	stimuli_distractor_trianglediamonds.svg	stimuli_target_circlediamonds.svg	10	yes	57	0	502
6.6.1	win	2022-12-23	12:15:22	12:19:17	232120	5b182365316c630001abff4f	241774363	1	practice_slash	5	practice_slash	27	stimuli_distractor_trianglediamonds.svg	stimuli_target_squarediamonds.svg	11	yes	53	1	1025
6.6.1	win	2022-12-23	12:15:22	12:19:17	232120	5b182365316c630001abff4f	241774363	1	practice_slash	5	advance_on_keypress_SLASH	28	stimuli_distractor_trianglediamonds.svg	stimuli_target_squarediamonds.svg	11	yes	57	0	651
6.6.1	win	2022-12-23	12:15:22	12:19:21	236413	5b182365316c630001abff4f	241774363	1	practice_slash	5	practice_slash	29	stimuli_target_diamondsquares.svg	stimuli_distractor_trianglediamonds.svg	6	yes	0	0	2000
6.6.1	win	2022-12-23	12:15:22	12:19:21	236413	5b182365316c630001abff4f	241774363	1	practice_slash	5	advance_on_keypress_SLASH	30	stimuli_target_diamondsquares.svg	stimuli_distractor_trianglediamonds.svg	6	yes	57	0	156
6.6.1	win	2022-12-23	12:15:22	12:19:25	240213	5b182365316c630001abff4f	241774363	1	practice_slash	5	practice_slash	31	stimuli_target_diamondsquares.svg	stimuli_distractor_diamondtriangles.svg	3	yes	0	0	2000
6.6.1	win	2022-12-23	12:15:22	12:19:25	240213	5b182365316c630001abff4f	241774363	1	practice_slash	5	advance_on_keypress_SLASH	32	stimuli_target_diamondsquares.svg	stimuli_distractor_diamondtriangles.svg	3	yes	57	0	621
6.6.1	win	2022-12-23	12:15:22	12:19:38	252558	5b182365316c630001abff4f	241774363	1	main_slash	7	main_slash	1	stimuli_distractor_trianglediamonds.svg	stimuli_target_circletriangles.svg	9	yes	53	1	879
6.6.1	win	2022-12-23	12:15:22	12:19:38	252558	5b182365316c630001abff4f	241774363	1	main_slash	7	advance_on_keypress_SLASH	2	stimuli_distractor_trianglediamonds.svg	stimuli_target_circletriangles.svg	9	yes	57	0	1426
6.6.1	win	2022-12-23	12:15:22	12:19:42	256629	5b182365316c630001abff4f	241774363	1	main_slash	7	main_slash	3	stimuli_distractor_trianglediamonds.svg	stimuli_target_diamondsquares.svg	28	yes	0	0	2000
6.6.1	win	2022-12-23	12:15:22	12:19:42	256629	5b182365316c630001abff4f	241774363	1	main_slash	7	advance_on_keypress_SLASH	4	stimuli_distractor_trianglediamonds.svg	stimuli_target_diamondsquares.svg	28	yes	57	0	656
6.6.1	win	2022-12-23	12:15:22	12:19:44	259372	5b182365316c630001abff4f	241774363	1	main_slash	7	main_slash	5	stimuli_distractor_trianglediamonds.svg	stimuli_target_trianglesquares.svg	26	yes	53	1	1443
6.6.1	win	2022-12-23	12:15:22	12:19:44	259372	5b182365316c630001abff4f	241774363	1	main_slash	7	advance_on_keypress_SLASH	6	stimuli_distractor_trianglediamonds.svg	stimuli_target_trianglesquares.svg	26	yes	57	0	1409
6.6.1	win	2022-12-23	12:15:22	12:19:47	262515	5b182365316c630001abff4f	241774363	1	main_slash	7	main_slash	7	stimuli_distractor_diamondtriangles.svg	stimuli_target_trianglesquares.svg	30	yes	53	1	1103
6.6.1	win	2022-12-23	12:15:22	12:19:47	262515	5b182365316c630001abff4f	241774363	1	main_slash	7	advance_on_keypress_SLASH	8	stimuli_distractor_diamondtriangles.svg	stimuli_target_trianglesquares.svg	30	yes	57	0	1175
6.6.1	win	2022-12-23	12:15:22	12:19:51	266329	5b182365316c630001abff4f	241774363	1	main_slash	7	main_slash	9	stimuli_distractor_trianglediamonds.svg	stimuli_distractor_trianglediamonds.svg	34	no	0	1	2000
6.6.1	win	2022-12-23	12:15:22	12:19:51	266329	5b182365316c630001abff4f	241774363	1	main_slash	7	advance_on_keypress_SLASH	10	stimuli_distractor_trianglediamonds.svg	stimuli_distractor_trianglediamonds.svg	34	no	57	0	830
6.6.1	win	2022-12-23	12:15:22	12:19:54	268836	5b182365316c630001abff4f	241774363	1	main_slash	7	main_slash	11	stimuli_target_trianglesquares.svg	stimuli_distractor_diamondtriangles.svg	22	yes	53	1	1023
6.6.1	win	2022-12-23	12:15:22	12:19:54	268836	5b182365316c630001abff4f	241774363	1	main_slash	7	advance_on_keypress_SLASH	12	stimuli_target_trianglesquares.svg	stimuli_distractor_diamondtriangles.svg	22	yes	57	0	1277
6.6.1	win	2022-12-23	12:15:22	12:19:57	271764	5b182365316c630001abff4f	241774363	1	main_slash	7	main_slash	13	stimuli_distractor_diamondtriangles.svg	stimuli_target_diamondsquares.svg	32	yes	53	1	1018
6.6.1	win	2022-12-23	12:15:22	12:19:57	271764	5b182365316c630001abff4f	241774363	1	main_slash	7	advance_on_keypress_SLASH	14	stimuli_distractor_diamondtriangles.svg	stimuli_target_diamondsquares.svg	32	yes	57	0	1098
6.6.1	win	2022-12-23	12:15:22	12:20:00	274670	5b182365316c630001abff4f	241774363	1	main_slash	7	main_slash	15	stimuli_target_diamondsquares.svg	stimuli_distractor_trianglediamonds.svg	20	yes	53	1	1158
6.6.1	win	2022-12-23	12:15:22	12:20:00	274670	5b182365316c630001abff4f	241774363	1	main_slash	7	advance_on_keypress_SLASH	16	stimuli_target_diamondsquares.svg	stimuli_distractor_trianglediamonds.svg	20	yes	57	0	805
6.6.1	win	2022-12-23	12:15:22	12:20:02	277244	5b182365316c630001abff4f	241774363	1	main_slash	7	main_slash	17	stimuli_target_trianglesquares.svg	stimuli_distractor_trianglediamonds.svg	18	yes	53	1	1130
6.6.1	win	2022-12-23	12:15:22	12:20:02	277244	5b182365316c630001abff4f	241774363	1	main_slash	7	advance_on_keypress_SLASH	18	stimuli_target_trianglesquares.svg	stimuli_distractor_trianglediamonds.svg	18	yes	57	0	720
6.6.1	win	2022-12-23	12:15:22	12:20:06	280614	5b182365316c630001abff4f	241774363	1	main_slash	7	main_slash	19	stimuli_distractor_diamondtriangles.svg	stimuli_distractor_diamondtriangles.svg	40	no	0	1	2000
6.6.1	win	2022-12-23	12:15:22	12:20:06	280614	5b182365316c630001abff4f	241774363	1	main_slash	7	advance_on_keypress_SLASH	20	stimuli_distractor_diamondtriangles.svg	stimuli_distractor_diamondtriangles.svg	40	no	57	0	1779
6.6.1	win	2022-12-23	12:15:22	12:20:08	283302	5b182365316c630001abff4f	241774363	1	main_slash	7	main_slash	21	stimuli_distractor_diamondtriangles.svg	stimuli_target_squarediamonds.svg	16	yes	53	1	255
6.6.1	win	2022-12-23	12:15:22	12:20:08	283302	5b182365316c630001abff4f	241774363	1	main_slash	7	advance_on_keypress_SLASH	22	stimuli_distractor_diamondtriangles.svg	stimuli_target_squarediamonds.svg	16	yes	57	0	812
6.6.1	win	2022-12-23	12:15:22	12:20:10	285303	5b182365316c630001abff4f	241774363	1	main_slash	7	main_slash	23	stimuli_distractor_diamondtriangles.svg	stimuli_target_squaretriangles.svg	15	yes	53	1	539
6.6.1	win	2022-12-23	12:15:22	12:20:10	285303	5b182365316c630001abff4f	241774363	1	main_slash	7	advance_on_keypress_SLASH	24	stimuli_distractor_diamondtriangles.svg	stimuli_target_squaretriangles.svg	15	yes	57	0	705
6.6.1	win	2022-12-23	12:15:22	12:20:14	288648	5b182365316c630001abff4f	241774363	1	main_slash	7	main_slash	25	stimuli_distractor_diamondtriangles.svg	stimuli_distractor_diamondtriangles.svg	39	no	0	1	2000
6.6.1	win	2022-12-23	12:15:22	12:20:14	288648	5b182365316c630001abff4f	241774363	1	main_slash	7	advance_on_keypress_SLASH	26	stimuli_distractor_diamondtriangles.svg	stimuli_distractor_diamondtriangles.svg	39	no	57	0	785
6.6.1	win	2022-12-23	12:15:22	12:20:15	290497	5b182365316c630001abff4f	241774363	1	main_slash	7	main_slash	27	stimuli_distractor_trianglediamonds.svg	stimuli_distractor_trianglediamonds.svg	33	no	53	0	415
6.6.1	win	2022-12-23	12:15:22	12:20:15	290497	5b182365316c630001abff4f	241774363	1	main_slash	7	advance_on_keypress_SLASH	28	stimuli_distractor_trianglediamonds.svg	stimuli_distractor_trianglediamonds.svg	33	no	57	0	863
6.6.1	win	2022-12-23	12:15:22	12:20:19	293644	5b182365316c630001abff4f	241774363	1	main_slash	7	main_slash	29	stimuli_target_squarediamonds.svg	stimuli_distractor_trianglediamonds.svg	4	yes	53	1	1630
6.6.1	win	2022-12-23	12:15:22	12:20:19	293644	5b182365316c630001abff4f	241774363	1	main_slash	7	advance_on_keypress_SLASH	30	stimuli_target_squarediamonds.svg	stimuli_distractor_trianglediamonds.svg	4	yes	57	0	586
6.6.1	win	2022-12-23	12:15:22	12:20:21	296173	5b182365316c630001abff4f	241774363	1	main_slash	7	main_slash	31	stimuli_target_squarediamonds.svg	stimuli_distractor_diamondtriangles.svg	8	yes	53	1	1291
6.6.1	win	2022-12-23	12:15:22	12:20:21	296173	5b182365316c630001abff4f	241774363	1	main_slash	7	advance_on_keypress_SLASH	32	stimuli_target_squarediamonds.svg	stimuli_distractor_diamondtriangles.svg	8	yes	57	0	556
6.6.1	win	2022-12-23	12:15:22	12:20:23	298043	5b182365316c630001abff4f	241774363	1	main_slash	7	main_slash	33	stimuli_target_squaretriangles.svg	stimuli_distractor_trianglediamonds.svg	3	yes	53	1	678
6.6.1	win	2022-12-23	12:15:22	12:20:23	298043	5b182365316c630001abff4f	241774363	1	main_slash	7	advance_on_keypress_SLASH	34	stimuli_target_squaretriangles.svg	stimuli_distractor_trianglediamonds.svg	3	yes	57	0	626
6.6.1	win	2022-12-23	12:15:22	12:20:26	301315	5b182365316c630001abff4f	241774363	1	main_slash	7	main_slash	35	stimuli_distractor_diamondtriangles.svg	stimuli_distractor_trianglediamonds.svg	38	no	0	1	2000
6.6.1	win	2022-12-23	12:15:22	12:20:26	301315	5b182365316c630001abff4f	241774363	1	main_slash	7	advance_on_keypress_SLASH	36	stimuli_distractor_diamondtriangles.svg	stimuli_distractor_trianglediamonds.svg	38	no	57	0	787
6.6.1	win	2022-12-23	12:15:22	12:20:28	303323	5b182365316c630001abff4f	241774363	1	main_slash	7	main_slash	37	stimuli_target_circletriangles.svg	stimuli_distractor_trianglediamonds.svg	1	yes	53	1	575
6.6.1	win	2022-12-23	12:15:22	12:20:28	303323	5b182365316c630001abff4f	241774363	1	main_slash	7	advance_on_keypress_SLASH	38	stimuli_target_circletriangles.svg	stimuli_distractor_trianglediamonds.svg	1	yes	57	0	524
6.6.1	win	2022-12-23	12:15:22	12:20:30	305069	5b182365316c630001abff4f	241774363	1	main_slash	7	main_slash	39	stimuli_target_circlediamonds.svg	stimuli_distractor_diamondtriangles.svg	6	yes	53	1	587
6.6.1	win	2022-12-23	12:15:22	12:20:30	305069	5b182365316c630001abff4f	241774363	1	main_slash	7	advance_on_keypress_SLASH	40	stimuli_target_circlediamonds.svg	stimuli_distractor_diamondtriangles.svg	6	yes	57	0	454
6.6.1	win	2022-12-23	12:15:22	12:20:32	306635	5b182365316c630001abff4f	241774363	1	main_slash	7	main_slash	41	stimuli_distractor_trianglediamonds.svg	stimuli_target_squaretriangles.svg	11	yes	53	1	469
6.6.1	win	2022-12-23	12:15:22	12:20:32	306635	5b182365316c630001abff4f	241774363	1	main_slash	7	advance_on_keypress_SLASH	42	stimuli_distractor_trianglediamonds.svg	stimuli_target_squaretriangles.svg	11	yes	57	0	431
6.6.1	win	2022-12-23	12:15:22	12:20:35	309715	5b182365316c630001abff4f	241774363	1	main_slash	7	main_slash	43	stimuli_target_trianglecircles.svg	stimuli_distractor_diamondtriangles.svg	21	yes	0	0	2000
6.6.1	win	2022-12-23	12:15:22	12:20:35	309715	5b182365316c630001abff4f	241774363	1	main_slash	7	advance_on_keypress_SLASH	44	stimuli_target_trianglecircles.svg	stimuli_distractor_diamondtriangles.svg	21	yes	57	0	555
6.6.1	win	2022-12-23	12:15:22	12:20:38	312916	5b182365316c630001abff4f	241774363	1	main_slash	7	main_slash	45	stimuli_distractor_diamondtriangles.svg	stimuli_distractor_trianglediamonds.svg	37	no	0	1	2000
6.6.1	win	2022-12-23	12:15:22	12:20:38	312916	5b182365316c630001abff4f	241774363	1	main_slash	7	advance_on_keypress_SLASH	46	stimuli_distractor_diamondtriangles.svg	stimuli_distractor_trianglediamonds.svg	37	no	57	0	436
6.6.1	win	2022-12-23	12:15:22	12:20:40	314644	5b182365316c630001abff4f	241774363	1	main_slash	7	main_slash	47	stimuli_distractor_trianglediamonds.svg	stimuli_target_circlediamonds.svg	10	yes	53	1	644
6.6.1	win	2022-12-23	12:15:22	12:20:40	314644	5b182365316c630001abff4f	241774363	1	main_slash	7	advance_on_keypress_SLASH	48	stimuli_distractor_trianglediamonds.svg	stimuli_target_circlediamonds.svg	10	yes	57	0	425
6.6.1	win	2022-12-23	12:15:22	12:20:42	316997	5b182365316c630001abff4f	241774363	1	main_slash	7	main_slash	49	stimuli_distractor_trianglediamonds.svg	stimuli_distractor_diamondtriangles.svg	36	no	53	0	1281
6.6.1	win	2022-12-23	12:15:22	12:20:42	316997	5b182365316c630001abff4f	241774363	1	main_slash	7	advance_on_keypress_SLASH	50	stimuli_distractor_trianglediamonds.svg	stimuli_distractor_diamondtriangles.svg	36	no	57	0	360
6.6.1	win	2022-12-23	12:15:22	12:20:45	319999	5b182365316c630001abff4f	241774363	1	main_slash	7	main_slash	51	stimuli_distractor_diamondtriangles.svg	stimuli_target_diamondcircles.svg	31	yes	0	0	2000
6.6.1	win	2022-12-23	12:15:22	12:20:45	319999	5b182365316c630001abff4f	241774363	1	main_slash	7	advance_on_keypress_SLASH	52	stimuli_distractor_diamondtriangles.svg	stimuli_target_diamondcircles.svg	31	yes	57	0	494
6.6.1	win	2022-12-23	12:15:22	12:20:47	322035	5b182365316c630001abff4f	241774363	1	main_slash	7	main_slash	53	stimuli_distractor_trianglediamonds.svg	stimuli_target_trianglecircles.svg	25	yes	53	1	885
6.6.1	win	2022-12-23	12:15:22	12:20:47	322035	5b182365316c630001abff4f	241774363	1	main_slash	7	advance_on_keypress_SLASH	54	stimuli_distractor_trianglediamonds.svg	stimuli_target_trianglecircles.svg	25	yes	57	0	856
6.6.1	win	2022-12-23	12:15:22	12:20:51	325533	5b182365316c630001abff4f	241774363	1	main_slash	7	main_slash	55	stimuli_target_diamondcircles.svg	stimuli_distractor_diamondtriangles.svg	23	yes	0	0	2000
6.6.1	win	2022-12-23	12:15:22	12:20:51	325533	5b182365316c630001abff4f	241774363	1	main_slash	7	advance_on_keypress_SLASH	56	stimuli_target_diamondcircles.svg	stimuli_distractor_diamondtriangles.svg	23	yes	57	0	257
6.6.1	win	2022-12-23	12:15:22	12:20:53	327645	5b182365316c630001abff4f	241774363	1	main_slash	7	main_slash	57	stimuli_target_diamondcircles.svg	stimuli_distractor_trianglediamonds.svg	19	yes	53	1	1212
6.6.1	win	2022-12-23	12:15:22	12:20:53	327645	5b182365316c630001abff4f	241774363	1	main_slash	7	advance_on_keypress_SLASH	58	stimuli_target_diamondcircles.svg	stimuli_distractor_trianglediamonds.svg	19	yes	57	0	416
6.6.1	win	2022-12-23	12:15:22	12:20:55	329622	5b182365316c630001abff4f	241774363	1	main_slash	7	main_slash	59	stimuli_distractor_trianglediamonds.svg	stimuli_target_diamondcircles.svg	27	yes	53	1	905
6.6.1	win	2022-12-23	12:15:22	12:20:55	329622	5b182365316c630001abff4f	241774363	1	main_slash	7	advance_on_keypress_SLASH	60	stimuli_distractor_trianglediamonds.svg	stimuli_target_diamondcircles.svg	27	yes	57	0	405
6.6.1	win	2022-12-23	12:15:22	12:20:56	331206	5b182365316c630001abff4f	241774363	1	main_slash	7	main_slash	61	stimuli_target_circletriangles.svg	stimuli_distractor_diamondtriangles.svg	5	yes	53	1	539
6.6.1	win	2022-12-23	12:15:22	12:20:56	331206	5b182365316c630001abff4f	241774363	1	main_slash	7	advance_on_keypress_SLASH	62	stimuli_target_circletriangles.svg	stimuli_distractor_diamondtriangles.svg	5	yes	57	0	410
6.6.1	win	2022-12-23	12:15:22	12:20:58	332686	5b182365316c630001abff4f	241774363	1	main_slash	7	main_slash	63	stimuli_distractor_diamondtriangles.svg	stimuli_target_circlediamonds.svg	14	yes	53	1	436
6.6.1	win	2022-12-23	12:15:22	12:20:58	332686	5b182365316c630001abff4f	241774363	1	main_slash	7	advance_on_keypress_SLASH	64	stimuli_distractor_diamondtriangles.svg	stimuli_target_circlediamonds.svg	14	yes	57	0	397
6.6.1	win	2022-12-23	12:15:22	12:20:59	334085	5b182365316c630001abff4f	241774363	1	main_slash	7	main_slash	65	stimuli_distractor_diamondtriangles.svg	stimuli_target_circletriangles.svg	13	yes	53	1	351
6.6.1	win	2022-12-23	12:15:22	12:20:59	334085	5b182365316c630001abff4f	241774363	1	main_slash	7	advance_on_keypress_SLASH	66	stimuli_distractor_diamondtriangles.svg	stimuli_target_circletriangles.svg	13	yes	57	0	401
6.6.1	win	2022-12-23	12:15:22	12:21:01	336232	5b182365316c630001abff4f	241774363	1	main_slash	7	main_slash	67	stimuli_target_trianglecircles.svg	stimuli_distractor_trianglediamonds.svg	17	yes	53	1	1098
6.6.1	win	2022-12-23	12:15:22	12:21:01	336232	5b182365316c630001abff4f	241774363	1	main_slash	7	advance_on_keypress_SLASH	68	stimuli_target_trianglecircles.svg	stimuli_distractor_trianglediamonds.svg	17	yes	57	0	332
6.6.1	win	2022-12-23	12:15:22	12:21:04	339218	5b182365316c630001abff4f	241774363	1	main_slash	7	main_slash	69	stimuli_target_diamondsquares.svg	stimuli_distractor_diamondtriangles.svg	24	yes	0	0	2000
6.6.1	win	2022-12-23	12:15:22	12:21:04	339218	5b182365316c630001abff4f	241774363	1	main_slash	7	advance_on_keypress_SLASH	70	stimuli_target_diamondsquares.svg	stimuli_distractor_diamondtriangles.svg	24	yes	57	0	372
6.6.1	win	2022-12-23	12:15:22	12:21:07	342234	5b182365316c630001abff4f	241774363	1	main_slash	7	main_slash	71	stimuli_distractor_trianglediamonds.svg	stimuli_distractor_diamondtriangles.svg	35	no	0	1	2000
6.6.1	win	2022-12-23	12:15:22	12:21:07	342234	5b182365316c630001abff4f	241774363	1	main_slash	7	advance_on_keypress_SLASH	72	stimuli_distractor_trianglediamonds.svg	stimuli_distractor_diamondtriangles.svg	35	no	57	0	525
6.6.1	win	2022-12-23	12:15:22	12:21:09	344006	5b182365316c630001abff4f	241774363	1	main_slash	7	main_slash	73	stimuli_distractor_trianglediamonds.svg	stimuli_target_squarediamonds.svg	12	yes	53	1	605
6.6.1	win	2022-12-23	12:15:22	12:21:09	344006	5b182365316c630001abff4f	241774363	1	main_slash	7	advance_on_keypress_SLASH	74	stimuli_distractor_trianglediamonds.svg	stimuli_target_squarediamonds.svg	12	yes	57	0	451
6.6.1	win	2022-12-23	12:15:22	12:21:11	345547	5b182365316c630001abff4f	241774363	1	main_slash	7	main_slash	75	stimuli_target_squaretriangles.svg	stimuli_distractor_diamondtriangles.svg	7	yes	53	1	444
6.6.1	win	2022-12-23	12:15:22	12:21:11	345547	5b182365316c630001abff4f	241774363	1	main_slash	7	advance_on_keypress_SLASH	76	stimuli_target_squaretriangles.svg	stimuli_distractor_diamondtriangles.svg	7	yes	57	0	344
6.6.1	win	2022-12-23	12:15:22	12:21:12	346918	5b182365316c630001abff4f	241774363	1	main_slash	7	main_slash	77	stimuli_target_circlediamonds.svg	stimuli_distractor_trianglediamonds.svg	2	yes	53	1	383
6.6.1	win	2022-12-23	12:15:22	12:21:12	346918	5b182365316c630001abff4f	241774363	1	main_slash	7	advance_on_keypress_SLASH	78	stimuli_target_circlediamonds.svg	stimuli_distractor_trianglediamonds.svg	2	yes	57	0	351
6.6.1	win	2022-12-23	12:15:22	12:21:14	348890	5b182365316c630001abff4f	241774363	1	main_slash	7	main_slash	79	stimuli_distractor_diamondtriangles.svg	stimuli_target_trianglecircles.svg	29	yes	53	1	972
6.6.1	win	2022-12-23	12:15:22	12:21:14	348890	5b182365316c630001abff4f	241774363	1	main_slash	7	advance_on_keypress_SLASH	80	stimuli_distractor_diamondtriangles.svg	stimuli_target_trianglecircles.svg	29	yes	57	0	345
6.6.1	win	2022-12-23	12:15:22	12:21:15	350359	5b182365316c630001abff4f	241774363	1	main_slash	7	main_slash	81	stimuli_target_trianglecircles.svg	stimuli_distractor_diamondtriangles.svg	21	yes	53	1	474
6.6.1	win	2022-12-23	12:15:22	12:21:15	350359	5b182365316c630001abff4f	241774363	1	main_slash	7	advance_on_keypress_SLASH	82	stimuli_target_trianglecircles.svg	stimuli_distractor_diamondtriangles.svg	21	yes	57	0	393
6.6.1	win	2022-12-23	12:15:22	12:21:17	352264	5b182365316c630001abff4f	241774363	1	main_slash	7	main_slash	83	stimuli_distractor_trianglediamonds.svg	stimuli_target_trianglesquares.svg	26	yes	53	1	879
6.6.1	win	2022-12-23	12:15:22	12:21:17	352264	5b182365316c630001abff4f	241774363	1	main_slash	7	advance_on_keypress_SLASH	84	stimuli_distractor_trianglediamonds.svg	stimuli_target_trianglesquares.svg	26	yes	57	0	369
6.6.1	win	2022-12-23	12:15:22	12:21:19	353859	5b182365316c630001abff4f	241774363	1	main_slash	7	main_slash	85	stimuli_distractor_trianglediamonds.svg	stimuli_target_circlediamonds.svg	10	yes	53	1	573
6.6.1	win	2022-12-23	12:15:22	12:21:19	353859	5b182365316c630001abff4f	241774363	1	main_slash	7	advance_on_keypress_SLASH	86	stimuli_distractor_trianglediamonds.svg	stimuli_target_circlediamonds.svg	10	yes	57	0	392
6.6.1	win	2022-12-23	12:15:22	12:21:20	355418	5b182365316c630001abff4f	241774363	1	main_slash	7	main_slash	87	stimuli_distractor_diamondtriangles.svg	stimuli_target_squarediamonds.svg	16	yes	53	1	532
6.6.1	win	2022-12-23	12:15:22	12:21:20	355418	5b182365316c630001abff4f	241774363	1	main_slash	7	advance_on_keypress_SLASH	88	stimuli_distractor_diamondtriangles.svg	stimuli_target_squarediamonds.svg	16	yes	57	0	384
6.6.1	win	2022-12-23	12:15:22	12:21:22	357327	5b182365316c630001abff4f	241774363	1	main_slash	7	main_slash	89	stimuli_distractor_trianglediamonds.svg	stimuli_distractor_diamondtriangles.svg	35	no	53	0	875
6.6.1	win	2022-12-23	12:15:22	12:21:22	357327	5b182365316c630001abff4f	241774363	1	main_slash	7	advance_on_keypress_SLASH	90	stimuli_distractor_trianglediamonds.svg	stimuli_distractor_diamondtriangles.svg	35	no	57	0	361
6.6.1	win	2022-12-23	12:15:22	12:21:24	358775	5b182365316c630001abff4f	241774363	1	main_slash	7	main_slash	91	stimuli_target_squaretriangles.svg	stimuli_distractor_diamondtriangles.svg	7	yes	53	1	456
6.6.1	win	2022-12-23	12:15:22	12:21:24	358775	5b182365316c630001abff4f	241774363	1	main_slash	7	advance_on_keypress_SLASH	92	stimuli_target_squaretriangles.svg	stimuli_distractor_diamondtriangles.svg	7	yes	57	0	379
6.6.1	win	2022-12-23	12:15:22	12:21:27	361802	5b182365316c630001abff4f	241774363	1	main_slash	7	main_slash	93	stimuli_distractor_trianglediamonds.svg	stimuli_distractor_trianglediamonds.svg	34	no	0	1	2000
6.6.1	win	2022-12-23	12:15:22	12:21:27	361802	5b182365316c630001abff4f	241774363	1	main_slash	7	advance_on_keypress_SLASH	94	stimuli_distractor_trianglediamonds.svg	stimuli_distractor_trianglediamonds.svg	34	no	57	0	319
6.6.1	win	2022-12-23	12:15:22	12:21:28	363340	5b182365316c630001abff4f	241774363	1	main_slash	7	main_slash	95	stimuli_target_diamondcircles.svg	stimuli_distractor_trianglediamonds.svg	19	yes	53	1	571
6.6.1	win	2022-12-23	12:15:22	12:21:28	363340	5b182365316c630001abff4f	241774363	1	main_slash	7	advance_on_keypress_SLASH	96	stimuli_target_diamondcircles.svg	stimuli_distractor_trianglediamonds.svg	19	yes	57	0	440
6.6.1	win	2022-12-23	12:15:22	12:21:31	365952	5b182365316c630001abff4f	241774363	1	main_slash	7	main_slash	97	stimuli_target_diamondsquares.svg	stimuli_distractor_trianglediamonds.svg	20	yes	53	1	1533
6.6.1	win	2022-12-23	12:15:22	12:21:31	365952	5b182365316c630001abff4f	241774363	1	main_slash	7	advance_on_keypress_SLASH	98	stimuli_target_diamondsquares.svg	stimuli_distractor_trianglediamonds.svg	20	yes	57	0	312
6.6.1	win	2022-12-23	12:15:22	12:21:34	368920	5b182365316c630001abff4f	241774363	1	main_slash	7	main_slash	99	stimuli_distractor_diamondtriangles.svg	stimuli_distractor_diamondtriangles.svg	40	no	0	1	2000
6.6.1	win	2022-12-23	12:15:22	12:21:34	368920	5b182365316c630001abff4f	241774363	1	main_slash	7	advance_on_keypress_SLASH	100	stimuli_distractor_diamondtriangles.svg	stimuli_distractor_diamondtriangles.svg	40	no	57	0	386
6.6.1	win	2022-12-23	12:15:22	12:21:36	370634	5b182365316c630001abff4f	241774363	1	main_slash	7	main_slash	101	stimuli_distractor_diamondtriangles.svg	stimuli_target_diamondsquares.svg	32	yes	53	1	680
6.6.1	win	2022-12-23	12:15:22	12:21:36	370634	5b182365316c630001abff4f	241774363	1	main_slash	7	advance_on_keypress_SLASH	102	stimuli_distractor_diamondtriangles.svg	stimuli_target_diamondsquares.svg	32	yes	57	0	356
6.6.1	win	2022-12-23	12:15:22	12:21:39	373636	5b182365316c630001abff4f	241774363	1	main_slash	7	main_slash	103	stimuli_distractor_trianglediamonds.svg	stimuli_distractor_diamondtriangles.svg	36	no	0	1	2000
6.6.1	win	2022-12-23	12:15:22	12:21:39	373636	5b182365316c630001abff4f	241774363	1	main_slash	7	advance_on_keypress_SLASH	104	stimuli_distractor_trianglediamonds.svg	stimuli_distractor_diamondtriangles.svg	36	no	57	0	507
6.6.1	win	2022-12-23	12:15:22	12:21:40	375172	5b182365316c630001abff4f	241774363	1	main_slash	7	main_slash	105	stimuli_distractor_trianglediamonds.svg	stimuli_target_squarediamonds.svg	12	yes	53	1	384
6.6.1	win	2022-12-23	12:15:22	12:21:40	375172	5b182365316c630001abff4f	241774363	1	main_slash	7	advance_on_keypress_SLASH	106	stimuli_distractor_trianglediamonds.svg	stimuli_target_squarediamonds.svg	12	yes	57	0	362
6.6.1	win	2022-12-23	12:15:22	12:21:43	378186	5b182365316c630001abff4f	241774363	1	main_slash	7	main_slash	107	stimuli_distractor_diamondtriangles.svg	stimuli_distractor_trianglediamonds.svg	38	no	0	1	2000
6.6.1	win	2022-12-23	12:15:22	12:21:43	378186	5b182365316c630001abff4f	241774363	1	main_slash	7	advance_on_keypress_SLASH	108	stimuli_distractor_diamondtriangles.svg	stimuli_distractor_trianglediamonds.svg	38	no	57	0	449
6.6.1	win	2022-12-23	12:15:22	12:21:45	379688	5b182365316c630001abff4f	241774363	1	main_slash	7	main_slash	109	stimuli_distractor_diamondtriangles.svg	stimuli_target_circletriangles.svg	13	yes	53	1	400
6.6.1	win	2022-12-23	12:15:22	12:21:45	379688	5b182365316c630001abff4f	241774363	1	main_slash	7	advance_on_keypress_SLASH	110	stimuli_distractor_diamondtriangles.svg	stimuli_target_circletriangles.svg	13	yes	57	0	336
6.6.1	win	2022-12-23	12:15:22	12:21:48	382670	5b182365316c630001abff4f	241774363	1	main_slash	7	main_slash	111	stimuli_distractor_trianglediamonds.svg	stimuli_distractor_trianglediamonds.svg	33	no	0	1	2000
6.6.1	win	2022-12-23	12:15:22	12:21:48	382670	5b182365316c630001abff4f	241774363	1	main_slash	7	advance_on_keypress_SLASH	112	stimuli_distractor_trianglediamonds.svg	stimuli_distractor_trianglediamonds.svg	33	no	57	0	287
6.6.1	win	2022-12-23	12:15:22	12:21:51	385604	5b182365316c630001abff4f	241774363	1	main_slash	7	main_slash	113	stimuli_distractor_diamondtriangles.svg	stimuli_distractor_trianglediamonds.svg	37	no	0	1	2000
6.6.1	win	2022-12-23	12:15:22	12:21:51	385604	5b182365316c630001abff4f	241774363	1	main_slash	7	advance_on_keypress_SLASH	114	stimuli_distractor_diamondtriangles.svg	stimuli_distractor_trianglediamonds.svg	37	no	57	0	368
6.6.1	win	2022-12-23	12:15:22	12:21:54	388621	5b182365316c630001abff4f	241774363	1	main_slash	7	main_slash	115	stimuli_distractor_diamondtriangles.svg	stimuli_target_trianglesquares.svg	30	yes	0	0	2000
6.6.1	win	2022-12-23	12:15:22	12:21:54	388621	5b182365316c630001abff4f	241774363	1	main_slash	7	advance_on_keypress_SLASH	116	stimuli_distractor_diamondtriangles.svg	stimuli_target_trianglesquares.svg	30	yes	57	0	449
6.6.1	win	2022-12-23	12:15:22	12:21:55	390253	5b182365316c630001abff4f	241774363	1	main_slash	7	main_slash	117	stimuli_distractor_trianglediamonds.svg	stimuli_target_trianglecircles.svg	25	yes	53	1	531
6.6.1	win	2022-12-23	12:15:22	12:21:55	390253	5b182365316c630001abff4f	241774363	1	main_slash	7	advance_on_keypress_SLASH	118	stimuli_distractor_trianglediamonds.svg	stimuli_target_trianglecircles.svg	25	yes	57	0	341
6.6.1	win	2022-12-23	12:15:22	12:21:57	391646	5b182365316c630001abff4f	241774363	1	main_slash	7	main_slash	119	stimuli_distractor_diamondtriangles.svg	stimuli_target_trianglecircles.svg	29	yes	53	1	408
6.6.1	win	2022-12-23	12:15:22	12:21:57	391646	5b182365316c630001abff4f	241774363	1	main_slash	7	advance_on_keypress_SLASH	120	stimuli_distractor_diamondtriangles.svg	stimuli_target_trianglecircles.svg	29	yes	57	0	339
6.6.1	win	2022-12-23	12:15:22	12:21:58	393074	5b182365316c630001abff4f	241774363	1	main_slash	7	main_slash	121	stimuli_distractor_diamondtriangles.svg	stimuli_target_diamondcircles.svg	31	yes	53	1	453
6.6.1	win	2022-12-23	12:15:22	12:21:58	393074	5b182365316c630001abff4f	241774363	1	main_slash	7	advance_on_keypress_SLASH	122	stimuli_distractor_diamondtriangles.svg	stimuli_target_diamondcircles.svg	31	yes	57	0	367
6.6.1	win	2022-12-23	12:15:22	12:22:00	394827	5b182365316c630001abff4f	241774363	1	main_slash	7	main_slash	123	stimuli_target_trianglesquares.svg	stimuli_distractor_trianglediamonds.svg	18	yes	53	1	738
6.6.1	win	2022-12-23	12:15:22	12:22:00	394827	5b182365316c630001abff4f	241774363	1	main_slash	7	advance_on_keypress_SLASH	124	stimuli_target_trianglesquares.svg	stimuli_distractor_trianglediamonds.svg	18	yes	57	0	369
6.6.1	win	2022-12-23	12:15:22	12:22:01	396246	5b182365316c630001abff4f	241774363	1	main_slash	7	main_slash	125	stimuli_target_circlediamonds.svg	stimuli_distractor_diamondtriangles.svg	6	yes	53	1	407
6.6.1	win	2022-12-23	12:15:22	12:22:01	396246	5b182365316c630001abff4f	241774363	1	main_slash	7	advance_on_keypress_SLASH	126	stimuli_target_circlediamonds.svg	stimuli_distractor_diamondtriangles.svg	6	yes	57	0	339
6.6.1	win	2022-12-23	12:15:22	12:22:03	397945	5b182365316c630001abff4f	241774363	1	main_slash	7	main_slash	127	stimuli_target_trianglesquares.svg	stimuli_distractor_diamondtriangles.svg	22	yes	53	1	724
6.6.1	win	2022-12-23	12:15:22	12:22:03	397945	5b182365316c630001abff4f	241774363	1	main_slash	7	advance_on_keypress_SLASH	128	stimuli_target_trianglesquares.svg	stimuli_distractor_diamondtriangles.svg	22	yes	57	0	287
6.6.1	win	2022-12-23	12:15:22	12:22:04	399294	5b182365316c630001abff4f	241774363	1	main_slash	7	main_slash	129	stimuli_target_squarediamonds.svg	stimuli_distractor_diamondtriangles.svg	8	yes	53	1	423
6.6.1	win	2022-12-23	12:15:22	12:22:04	399294	5b182365316c630001abff4f	241774363	1	main_slash	7	advance_on_keypress_SLASH	130	stimuli_target_squarediamonds.svg	stimuli_distractor_diamondtriangles.svg	8	yes	57	0	404
6.6.1	win	2022-12-23	12:15:22	12:22:07	402338	5b182365316c630001abff4f	241774363	1	main_slash	7	main_slash	131	stimuli_target_diamondsquares.svg	stimuli_distractor_diamondtriangles.svg	24	yes	0	0	2000
6.6.1	win	2022-12-23	12:15:22	12:22:07	402338	5b182365316c630001abff4f	241774363	1	main_slash	7	advance_on_keypress_SLASH	132	stimuli_target_diamondsquares.svg	stimuli_distractor_diamondtriangles.svg	24	yes	57	0	314
6.6.1	win	2022-12-23	12:15:22	12:22:09	403690	5b182365316c630001abff4f	241774363	1	main_slash	7	main_slash	133	stimuli_target_circletriangles.svg	stimuli_distractor_trianglediamonds.svg	1	yes	53	1	384
6.6.1	win	2022-12-23	12:15:22	12:22:09	403690	5b182365316c630001abff4f	241774363	1	main_slash	7	advance_on_keypress_SLASH	134	stimuli_target_circletriangles.svg	stimuli_distractor_trianglediamonds.svg	1	yes	57	0	366
6.6.1	win	2022-12-23	12:15:22	12:22:10	405162	5b182365316c630001abff4f	241774363	1	main_slash	7	main_slash	135	stimuli_distractor_diamondtriangles.svg	stimuli_target_circlediamonds.svg	14	yes	53	1	457
6.6.1	win	2022-12-23	12:15:22	12:22:10	405162	5b182365316c630001abff4f	241774363	1	main_slash	7	advance_on_keypress_SLASH	136	stimuli_distractor_diamondtriangles.svg	stimuli_target_circlediamonds.svg	14	yes	57	0	306
6.6.1	win	2022-12-23	12:15:22	12:22:11	406461	5b182365316c630001abff4f	241774363	1	main_slash	7	main_slash	137	stimuli_target_circlediamonds.svg	stimuli_distractor_trianglediamonds.svg	2	yes	53	1	356
6.6.1	win	2022-12-23	12:15:22	12:22:11	406461	5b182365316c630001abff4f	241774363	1	main_slash	7	advance_on_keypress_SLASH	138	stimuli_target_circlediamonds.svg	stimuli_distractor_trianglediamonds.svg	2	yes	57	0	323
6.6.1	win	2022-12-23	12:15:22	12:22:13	408319	5b182365316c630001abff4f	241774363	1	main_slash	7	main_slash	139	stimuli_target_squaretriangles.svg	stimuli_distractor_trianglediamonds.svg	3	yes	53	1	897
6.6.1	win	2022-12-23	12:15:22	12:22:13	408319	5b182365316c630001abff4f	241774363	1	main_slash	7	advance_on_keypress_SLASH	140	stimuli_target_squaretriangles.svg	stimuli_distractor_trianglediamonds.svg	3	yes	57	0	285
6.6.1	win	2022-12-23	12:15:22	12:22:15	409785	5b182365316c630001abff4f	241774363	1	main_slash	7	main_slash	141	stimuli_distractor_trianglediamonds.svg	stimuli_target_diamondcircles.svg	27	yes	53	1	530
6.6.1	win	2022-12-23	12:15:22	12:22:15	409785	5b182365316c630001abff4f	241774363	1	main_slash	7	advance_on_keypress_SLASH	142	stimuli_distractor_trianglediamonds.svg	stimuli_target_diamondcircles.svg	27	yes	57	0	365
6.6.1	win	2022-12-23	12:15:22	12:22:16	411285	5b182365316c630001abff4f	241774363	1	main_slash	7	main_slash	143	stimuli_distractor_trianglediamonds.svg	stimuli_target_diamondsquares.svg	28	yes	53	1	480
6.6.1	win	2022-12-23	12:15:22	12:22:16	411285	5b182365316c630001abff4f	241774363	1	main_slash	7	advance_on_keypress_SLASH	144	stimuli_distractor_trianglediamonds.svg	stimuli_target_diamondsquares.svg	28	yes	57	0	307
6.6.1	win	2022-12-23	12:15:22	12:22:18	412704	5b182365316c630001abff4f	241774363	1	main_slash	7	main_slash	145	stimuli_target_squarediamonds.svg	stimuli_distractor_trianglediamonds.svg	4	yes	53	1	464
6.6.1	win	2022-12-23	12:15:22	12:22:18	412704	5b182365316c630001abff4f	241774363	1	main_slash	7	advance_on_keypress_SLASH	146	stimuli_target_squarediamonds.svg	stimuli_distractor_trianglediamonds.svg	4	yes	57	0	329
6.6.1	win	2022-12-23	12:15:22	12:22:19	414128	5b182365316c630001abff4f	241774363	1	main_slash	7	main_slash	147	stimuli_target_circletriangles.svg	stimuli_distractor_diamondtriangles.svg	5	yes	53	1	439
6.6.1	win	2022-12-23	12:15:22	12:22:19	414128	5b182365316c630001abff4f	241774363	1	main_slash	7	advance_on_keypress_SLASH	148	stimuli_target_circletriangles.svg	stimuli_distractor_diamondtriangles.svg	5	yes	57	0	364
6.6.1	win	2022-12-23	12:15:22	12:22:22	417139	5b182365316c630001abff4f	241774363	1	main_slash	7	main_slash	149	stimuli_target_diamondcircles.svg	stimuli_distractor_diamondtriangles.svg	23	yes	0	0	2000
6.6.1	win	2022-12-23	12:15:22	12:22:22	417139	5b182365316c630001abff4f	241774363	1	main_slash	7	advance_on_keypress_SLASH	150	stimuli_target_diamondcircles.svg	stimuli_distractor_diamondtriangles.svg	23	yes	57	0	641
6.6.1	win	2022-12-23	12:15:22	12:22:25	420423	5b182365316c630001abff4f	241774363	1	main_slash	7	main_slash	151	stimuli_distractor_diamondtriangles.svg	stimuli_distractor_diamondtriangles.svg	39	no	0	1	2000
6.6.1	win	2022-12-23	12:15:22	12:22:25	420423	5b182365316c630001abff4f	241774363	1	main_slash	7	advance_on_keypress_SLASH	152	stimuli_distractor_diamondtriangles.svg	stimuli_distractor_diamondtriangles.svg	39	no	57	0	364
6.6.1	win	2022-12-23	12:15:22	12:22:27	421916	5b182365316c630001abff4f	241774363	1	main_slash	7	main_slash	153	stimuli_distractor_trianglediamonds.svg	stimuli_target_circletriangles.svg	9	yes	53	1	475
6.6.1	win	2022-12-23	12:15:22	12:22:27	421916	5b182365316c630001abff4f	241774363	1	main_slash	7	advance_on_keypress_SLASH	154	stimuli_distractor_trianglediamonds.svg	stimuli_target_circletriangles.svg	9	yes	57	0	356
6.6.1	win	2022-12-23	12:15:22	12:22:28	423462	5b182365316c630001abff4f	241774363	1	main_slash	7	main_slash	155	stimuli_distractor_trianglediamonds.svg	stimuli_target_squaretriangles.svg	11	yes	53	1	556
6.6.1	win	2022-12-23	12:15:22	12:22:28	423462	5b182365316c630001abff4f	241774363	1	main_slash	7	advance_on_keypress_SLASH	156	stimuli_distractor_trianglediamonds.svg	stimuli_target_squaretriangles.svg	11	yes	57	0	324
6.6.1	win	2022-12-23	12:15:22	12:22:30	424981	5b182365316c630001abff4f	241774363	1	main_slash	7	main_slash	157	stimuli_target_trianglecircles.svg	stimuli_distractor_trianglediamonds.svg	17	yes	53	1	558
6.6.1	win	2022-12-23	12:15:22	12:22:30	424981	5b182365316c630001abff4f	241774363	1	main_slash	7	advance_on_keypress_SLASH	158	stimuli_target_trianglecircles.svg	stimuli_distractor_trianglediamonds.svg	17	yes	57	0	290
6.6.1	win	2022-12-23	12:15:22	12:22:31	426423	5b182365316c630001abff4f	241774363	1	main_slash	7	main_slash	159	stimuli_distractor_diamondtriangles.svg	stimuli_target_squaretriangles.svg	15	yes	53	1	506
6.6.1	win	2022-12-23	12:15:22	12:22:31	426423	5b182365316c630001abff4f	241774363	1	main_slash	7	advance_on_keypress_SLASH	160	stimuli_distractor_diamondtriangles.svg	stimuli_target_squaretriangles.svg	15	yes	57	0	398
6.6.1	win	2022-12-23	12:15:22	12:22:56	450894	5b182365316c630001abff4f	241774363	1	practice_z	9	practice_z	1	stimuli_target_circlediamonds.svg	stimuli_distractor_trianglediamonds.svg	4	yes	44	1	466
6.6.1	win	2022-12-23	12:15:22	12:22:56	450894	5b182365316c630001abff4f	241774363	1	practice_z	9	advance_on_keypress_ZEE	2	stimuli_target_circlediamonds.svg	stimuli_distractor_trianglediamonds.svg	4	yes	57	0	683
6.6.1	win	2022-12-23	12:15:22	12:23:00	455227	5b182365316c630001abff4f	241774363	1	practice_z	9	practice_z	3	stimuli_distractor_diamondtriangles.svg	stimuli_distractor_diamondtriangles.svg	13	no	0	1	2000
6.6.1	win	2022-12-23	12:15:22	12:23:00	455227	5b182365316c630001abff4f	241774363	1	practice_z	9	advance_on_keypress_ZEE	4	stimuli_distractor_diamondtriangles.svg	stimuli_distractor_diamondtriangles.svg	13	no	57	0	603
6.6.1	win	2022-12-23	12:15:22	12:23:03	457884	5b182365316c630001abff4f	241774363	1	practice_z	9	practice_z	5	stimuli_distractor_diamondtriangles.svg	stimuli_target_trianglecircles.svg	9	yes	44	1	407
6.6.1	win	2022-12-23	12:15:22	12:23:03	457884	5b182365316c630001abff4f	241774363	1	practice_z	9	advance_on_keypress_ZEE	6	stimuli_distractor_diamondtriangles.svg	stimuli_target_trianglecircles.svg	9	yes	57	0	487
6.6.1	win	2022-12-23	12:15:22	12:23:07	462011	5b182365316c630001abff4f	241774363	1	practice_z	9	practice_z	7	stimuli_distractor_trianglediamonds.svg	stimuli_distractor_diamondtriangles.svg	16	no	0	1	2000
6.6.1	win	2022-12-23	12:15:22	12:23:07	462011	5b182365316c630001abff4f	241774363	1	practice_z	9	advance_on_keypress_ZEE	8	stimuli_distractor_trianglediamonds.svg	stimuli_distractor_diamondtriangles.svg	16	no	57	0	573
6.6.1	win	2022-12-23	12:15:22	12:23:10	464888	5b182365316c630001abff4f	241774363	1	practice_z	9	practice_z	9	stimuli_distractor_diamondtriangles.svg	stimuli_distractor_trianglediamonds.svg	14	no	44	0	659
6.6.1	win	2022-12-23	12:15:22	12:23:10	464888	5b182365316c630001abff4f	241774363	1	practice_z	9	advance_on_keypress_ZEE	10	stimuli_distractor_diamondtriangles.svg	stimuli_distractor_trianglediamonds.svg	14	no	57	0	508
6.6.1	win	2022-12-23	12:15:22	12:23:13	467544	5b182365316c630001abff4f	241774363	1	practice_z	9	practice_z	11	stimuli_distractor_trianglediamonds.svg	stimuli_target_squarediamonds.svg	11	yes	44	1	499
6.6.1	win	2022-12-23	12:15:22	12:23:13	467544	5b182365316c630001abff4f	241774363	1	practice_z	9	advance_on_keypress_ZEE	12	stimuli_distractor_trianglediamonds.svg	stimuli_target_squarediamonds.svg	11	yes	57	0	775
6.6.1	win	2022-12-23	12:15:22	12:23:17	471961	5b182365316c630001abff4f	241774363	1	practice_z	9	practice_z	13	stimuli_target_diamondsquares.svg	stimuli_distractor_trianglediamonds.svg	6	yes	0	0	2000
6.6.1	win	2022-12-23	12:15:22	12:23:17	471961	5b182365316c630001abff4f	241774363	1	practice_z	9	advance_on_keypress_ZEE	14	stimuli_target_diamondsquares.svg	stimuli_distractor_trianglediamonds.svg	6	yes	57	0	320
6.6.1	win	2022-12-23	12:15:22	12:23:19	474283	5b182365316c630001abff4f	241774363	1	practice_z	9	practice_z	15	stimuli_distractor_diamondtriangles.svg	stimuli_target_circletriangles.svg	7	yes	44	1	355
6.6.1	win	2022-12-23	12:15:22	12:23:19	474283	5b182365316c630001abff4f	241774363	1	practice_z	9	advance_on_keypress_ZEE	16	stimuli_distractor_diamondtriangles.svg	stimuli_target_circletriangles.svg	7	yes	57	0	404
6.6.1	win	2022-12-23	12:15:22	12:23:22	476917	5b182365316c630001abff4f	241774363	1	practice_z	9	practice_z	17	stimuli_distractor_diamondtriangles.svg	stimuli_target_diamondcircles.svg	8	yes	44	1	590
6.6.1	win	2022-12-23	12:15:22	12:23:22	476917	5b182365316c630001abff4f	241774363	1	practice_z	9	advance_on_keypress_ZEE	18	stimuli_distractor_diamondtriangles.svg	stimuli_target_diamondcircles.svg	8	yes	57	0	288
6.6.1	win	2022-12-23	12:15:22	12:23:24	479277	5b182365316c630001abff4f	241774363	1	practice_z	9	practice_z	19	stimuli_distractor_trianglediamonds.svg	stimuli_target_diamondcircles.svg	12	yes	44	1	431
6.6.1	win	2022-12-23	12:15:22	12:23:24	479277	5b182365316c630001abff4f	241774363	1	practice_z	9	advance_on_keypress_ZEE	20	stimuli_distractor_trianglediamonds.svg	stimuli_target_diamondcircles.svg	12	yes	57	0	265
6.6.1	win	2022-12-23	12:15:22	12:23:28	483195	5b182365316c630001abff4f	241774363	1	practice_z	9	practice_z	21	stimuli_distractor_trianglediamonds.svg	stimuli_distractor_trianglediamonds.svg	15	no	0	1	2000
6.6.1	win	2022-12-23	12:15:22	12:23:28	483195	5b182365316c630001abff4f	241774363	1	practice_z	9	advance_on_keypress_ZEE	22	stimuli_distractor_trianglediamonds.svg	stimuli_distractor_trianglediamonds.svg	15	no	57	0	270
6.6.1	win	2022-12-23	12:15:22	12:23:31	485546	5b182365316c630001abff4f	241774363	1	practice_z	9	practice_z	23	stimuli_target_circlediamonds.svg	stimuli_distractor_diamondtriangles.svg	1	yes	44	1	433
6.6.1	win	2022-12-23	12:15:22	12:23:31	485546	5b182365316c630001abff4f	241774363	1	practice_z	9	advance_on_keypress_ZEE	24	stimuli_target_circlediamonds.svg	stimuli_distractor_diamondtriangles.svg	1	yes	57	0	218
6.6.1	win	2022-12-23	12:15:22	12:23:33	487806	5b182365316c630001abff4f	241774363	1	practice_z	9	practice_z	25	stimuli_distractor_trianglediamonds.svg	stimuli_target_circlediamonds.svg	10	yes	44	1	394
6.6.1	win	2022-12-23	12:15:22	12:23:33	487806	5b182365316c630001abff4f	241774363	1	practice_z	9	advance_on_keypress_ZEE	26	stimuli_distractor_trianglediamonds.svg	stimuli_target_circlediamonds.svg	10	yes	57	0	235
6.6.1	win	2022-12-23	12:15:22	12:23:37	491697	5b182365316c630001abff4f	241774363	1	practice_z	9	practice_z	27	stimuli_target_squarediamonds.svg	stimuli_distractor_trianglediamonds.svg	5	yes	0	0	2000
6.6.1	win	2022-12-23	12:15:22	12:23:37	491697	5b182365316c630001abff4f	241774363	1	practice_z	9	advance_on_keypress_ZEE	28	stimuli_target_squarediamonds.svg	stimuli_distractor_trianglediamonds.svg	5	yes	57	0	385
6.6.1	win	2022-12-23	12:15:22	12:23:39	494495	5b182365316c630001abff4f	241774363	1	practice_z	9	practice_z	29	stimuli_target_squarediamonds.svg	stimuli_distractor_diamondtriangles.svg	2	yes	44	1	764
6.6.1	win	2022-12-23	12:15:22	12:23:39	494495	5b182365316c630001abff4f	241774363	1	practice_z	9	advance_on_keypress_ZEE	30	stimuli_target_squarediamonds.svg	stimuli_distractor_diamondtriangles.svg	2	yes	57	0	382
6.6.1	win	2022-12-23	12:15:22	12:23:44	498530	5b182365316c630001abff4f	241774363	1	practice_z	9	practice_z	31	stimuli_target_diamondsquares.svg	stimuli_distractor_diamondtriangles.svg	3	yes	0	0	2000
6.6.1	win	2022-12-23	12:15:22	12:23:44	498530	5b182365316c630001abff4f	241774363	1	practice_z	9	advance_on_keypress_ZEE	32	stimuli_target_diamondsquares.svg	stimuli_distractor_diamondtriangles.svg	3	yes	57	0	473
6.6.1	win	2022-12-23	12:15:22	12:23:50	505231	5b182365316c630001abff4f	241774363	1	main_z	11	main_z	1	stimuli_target_circletriangles.svg	stimuli_distractor_diamondtriangles.svg	5	yes	44	1	517
6.6.1	win	2022-12-23	12:15:22	12:23:50	505231	5b182365316c630001abff4f	241774363	1	main_z	11	advance_on_keypress_ZEE	2	stimuli_target_circletriangles.svg	stimuli_distractor_diamondtriangles.svg	5	yes	57	0	1123
6.6.1	win	2022-12-23	12:15:22	12:23:54	508995	5b182365316c630001abff4f	241774363	1	main_z	11	main_z	3	stimuli_distractor_diamondtriangles.svg	stimuli_distractor_trianglediamonds.svg	38	no	0	1	2000
6.6.1	win	2022-12-23	12:15:22	12:23:54	508995	5b182365316c630001abff4f	241774363	1	main_z	11	advance_on_keypress_ZEE	4	stimuli_distractor_diamondtriangles.svg	stimuli_distractor_trianglediamonds.svg	38	no	57	0	233
6.6.1	win	2022-12-23	12:15:22	12:23:57	511879	5b182365316c630001abff4f	241774363	1	main_z	11	main_z	5	stimuli_distractor_diamondtriangles.svg	stimuli_distractor_diamondtriangles.svg	40	no	0	1	2000
6.6.1	win	2022-12-23	12:15:22	12:23:57	511879	5b182365316c630001abff4f	241774363	1	main_z	11	advance_on_keypress_ZEE	6	stimuli_distractor_diamondtriangles.svg	stimuli_distractor_diamondtriangles.svg	40	no	57	0	277
6.6.1	win	2022-12-23	12:15:22	12:24:00	514796	5b182365316c630001abff4f	241774363	1	main_z	11	main_z	7	stimuli_distractor_trianglediamonds.svg	stimuli_distractor_diamondtriangles.svg	36	no	0	1	2000
6.6.1	win	2022-12-23	12:15:22	12:24:00	514796	5b182365316c630001abff4f	241774363	1	main_z	11	advance_on_keypress_ZEE	8	stimuli_distractor_trianglediamonds.svg	stimuli_distractor_diamondtriangles.svg	36	no	57	0	271
6.6.1	win	2022-12-23	12:15:22	12:24:01	516109	5b182365316c630001abff4f	241774363	1	main_z	11	main_z	9	stimuli_distractor_diamondtriangles.svg	stimuli_target_trianglecircles.svg	29	yes	44	1	397
6.6.1	win	2022-12-23	12:15:22	12:24:01	516109	5b182365316c630001abff4f	241774363	1	main_z	11	advance_on_keypress_ZEE	10	stimuli_distractor_diamondtriangles.svg	stimuli_target_trianglecircles.svg	29	yes	57	0	645
6.6.1	win	2022-12-23	12:15:22	12:24:03	518317	5b182365316c630001abff4f	241774363	1	main_z	11	main_z	11	stimuli_distractor_trianglediamonds.svg	stimuli_target_squarediamonds.svg	12	yes	44	1	904
6.6.1	win	2022-12-23	12:15:22	12:24:03	518317	5b182365316c630001abff4f	241774363	1	main_z	11	advance_on_keypress_ZEE	12	stimuli_distractor_trianglediamonds.svg	stimuli_target_squarediamonds.svg	12	yes	57	0	419
6.6.1	win	2022-12-23	12:15:22	12:24:06	520858	5b182365316c630001abff4f	241774363	1	main_z	11	main_z	13	stimuli_distractor_diamondtriangles.svg	stimuli_target_diamondsquares.svg	32	yes	44	1	1479
6.6.1	win	2022-12-23	12:15:22	12:24:06	520858	5b182365316c630001abff4f	241774363	1	main_z	11	advance_on_keypress_ZEE	14	stimuli_distractor_diamondtriangles.svg	stimuli_target_diamondsquares.svg	32	yes	57	0	516
6.6.1	win	2022-12-23	12:15:22	12:24:08	523204	5b182365316c630001abff4f	241774363	1	main_z	11	main_z	15	stimuli_target_diamondcircles.svg	stimuli_distractor_trianglediamonds.svg	19	yes	44	1	1191
6.6.1	win	2022-12-23	12:15:22	12:24:08	523204	5b182365316c630001abff4f	241774363	1	main_z	11	advance_on_keypress_ZEE	16	stimuli_target_diamondcircles.svg	stimuli_distractor_trianglediamonds.svg	19	yes	57	0	341
6.6.1	win	2022-12-23	12:15:22	12:24:10	524804	5b182365316c630001abff4f	241774363	1	main_z	11	main_z	17	stimuli_distractor_diamondtriangles.svg	stimuli_target_diamondcircles.svg	31	yes	44	1	624
6.6.1	win	2022-12-23	12:15:22	12:24:10	524804	5b182365316c630001abff4f	241774363	1	main_z	11	advance_on_keypress_ZEE	18	stimuli_distractor_diamondtriangles.svg	stimuli_target_diamondcircles.svg	31	yes	57	0	363
6.6.1	win	2022-12-23	12:15:22	12:24:11	526228	5b182365316c630001abff4f	241774363	1	main_z	11	main_z	19	stimuli_target_squaretriangles.svg	stimuli_distractor_trianglediamonds.svg	3	yes	44	1	414
6.6.1	win	2022-12-23	12:15:22	12:24:11	526228	5b182365316c630001abff4f	241774363	1	main_z	11	advance_on_keypress_ZEE	20	stimuli_target_squaretriangles.svg	stimuli_distractor_trianglediamonds.svg	3	yes	57	0	350
6.6.1	win	2022-12-23	12:15:22	12:24:14	529230	5b182365316c630001abff4f	241774363	1	main_z	11	main_z	21	stimuli_distractor_trianglediamonds.svg	stimuli_target_diamondsquares.svg	28	yes	0	0	2000
6.6.1	win	2022-12-23	12:15:22	12:24:14	529230	5b182365316c630001abff4f	241774363	1	main_z	11	advance_on_keypress_ZEE	22	stimuli_distractor_trianglediamonds.svg	stimuli_target_diamondsquares.svg	28	yes	57	0	443
6.6.1	win	2022-12-23	12:15:22	12:24:16	530864	5b182365316c630001abff4f	241774363	1	main_z	11	main_z	23	stimuli_target_squarediamonds.svg	stimuli_distractor_trianglediamonds.svg	4	yes	44	1	550
6.6.1	win	2022-12-23	12:15:22	12:24:16	530864	5b182365316c630001abff4f	241774363	1	main_z	11	advance_on_keypress_ZEE	24	stimuli_target_squarediamonds.svg	stimuli_distractor_trianglediamonds.svg	4	yes	57	0	283
6.6.1	win	2022-12-23	12:15:22	12:24:18	532644	5b182365316c630001abff4f	241774363	1	main_z	11	main_z	25	stimuli_distractor_trianglediamonds.svg	stimuli_target_trianglesquares.svg	26	yes	44	1	847
6.6.1	win	2022-12-23	12:15:22	12:24:18	532644	5b182365316c630001abff4f	241774363	1	main_z	11	advance_on_keypress_ZEE	26	stimuli_distractor_trianglediamonds.svg	stimuli_target_trianglesquares.svg	26	yes	57	0	314
6.6.1	win	2022-12-23	12:15:22	12:24:19	534087	5b182365316c630001abff4f	241774363	1	main_z	11	main_z	27	stimuli_target_diamondsquares.svg	stimuli_distractor_diamondtriangles.svg	24	yes	44	1	472
6.6.1	win	2022-12-23	12:15:22	12:24:19	534087	5b182365316c630001abff4f	241774363	1	main_z	11	advance_on_keypress_ZEE	28	stimuli_target_diamondsquares.svg	stimuli_distractor_diamondtriangles.svg	24	yes	57	0	366
6.6.1	win	2022-12-23	12:15:22	12:24:21	535539	5b182365316c630001abff4f	241774363	1	main_z	11	main_z	29	stimuli_distractor_diamondtriangles.svg	stimuli_distractor_trianglediamonds.svg	37	no	44	0	442
6.6.1	win	2022-12-23	12:15:22	12:24:21	535539	5b182365316c630001abff4f	241774363	1	main_z	11	advance_on_keypress_ZEE	30	stimuli_distractor_diamondtriangles.svg	stimuli_distractor_trianglediamonds.svg	37	no	57	0	446
6.6.1	win	2022-12-23	12:15:22	12:24:22	537091	5b182365316c630001abff4f	241774363	1	main_z	11	main_z	31	stimuli_distractor_trianglediamonds.svg	stimuli_target_circlediamonds.svg	10	yes	44	1	460
6.6.1	win	2022-12-23	12:15:22	12:24:22	537091	5b182365316c630001abff4f	241774363	1	main_z	11	advance_on_keypress_ZEE	32	stimuli_distractor_trianglediamonds.svg	stimuli_target_circlediamonds.svg	10	yes	57	0	330
6.6.1	win	2022-12-23	12:15:22	12:24:24	538582	5b182365316c630001abff4f	241774363	1	main_z	11	main_z	33	stimuli_distractor_trianglediamonds.svg	stimuli_target_trianglecircles.svg	25	yes	44	1	516
6.6.1	win	2022-12-23	12:15:22	12:24:24	538582	5b182365316c630001abff4f	241774363	1	main_z	11	advance_on_keypress_ZEE	34	stimuli_distractor_trianglediamonds.svg	stimuli_target_trianglecircles.svg	25	yes	57	0	320
6.6.1	win	2022-12-23	12:15:22	12:24:25	540149	5b182365316c630001abff4f	241774363	1	main_z	11	main_z	35	stimuli_target_squarediamonds.svg	stimuli_distractor_diamondtriangles.svg	8	yes	44	1	600
6.6.1	win	2022-12-23	12:15:22	12:24:25	540149	5b182365316c630001abff4f	241774363	1	main_z	11	advance_on_keypress_ZEE	36	stimuli_target_squarediamonds.svg	stimuli_distractor_diamondtriangles.svg	8	yes	57	0	352
6.6.1	win	2022-12-23	12:15:22	12:24:27	541592	5b182365316c630001abff4f	241774363	1	main_z	11	main_z	37	stimuli_target_circlediamonds.svg	stimuli_distractor_trianglediamonds.svg	2	yes	44	1	444
6.6.1	win	2022-12-23	12:15:22	12:24:27	541592	5b182365316c630001abff4f	241774363	1	main_z	11	advance_on_keypress_ZEE	38	stimuli_target_circlediamonds.svg	stimuli_distractor_trianglediamonds.svg	2	yes	57	0	329
6.6.1	win	2022-12-23	12:15:22	12:24:28	542918	5b182365316c630001abff4f	241774363	1	main_z	11	main_z	39	stimuli_target_squaretriangles.svg	stimuli_distractor_diamondtriangles.svg	7	yes	44	1	336
6.6.1	win	2022-12-23	12:15:22	12:24:28	542918	5b182365316c630001abff4f	241774363	1	main_z	11	advance_on_keypress_ZEE	40	stimuli_target_squaretriangles.svg	stimuli_distractor_diamondtriangles.svg	7	yes	57	0	333
6.6.1	win	2022-12-23	12:15:22	12:24:31	545898	5b182365316c630001abff4f	241774363	1	main_z	11	main_z	41	stimuli_distractor_diamondtriangles.svg	stimuli_distractor_diamondtriangles.svg	39	no	0	1	2000
6.6.1	win	2022-12-23	12:15:22	12:24:31	545898	5b182365316c630001abff4f	241774363	1	main_z	11	advance_on_keypress_ZEE	42	stimuli_distractor_diamondtriangles.svg	stimuli_distractor_diamondtriangles.svg	39	no	57	0	695
6.6.1	win	2022-12-23	12:15:22	12:24:33	547731	5b182365316c630001abff4f	241774363	1	main_z	11	main_z	43	stimuli_target_trianglecircles.svg	stimuli_distractor_diamondtriangles.svg	21	yes	44	1	483
6.6.1	win	2022-12-23	12:15:22	12:24:33	547731	5b182365316c630001abff4f	241774363	1	main_z	11	advance_on_keypress_ZEE	44	stimuli_target_trianglecircles.svg	stimuli_distractor_diamondtriangles.svg	21	yes	57	0	284
6.6.1	win	2022-12-23	12:15:22	12:24:34	549021	5b182365316c630001abff4f	241774363	1	main_z	11	main_z	45	stimuli_target_circletriangles.svg	stimuli_distractor_trianglediamonds.svg	1	yes	44	1	356
6.6.1	win	2022-12-23	12:15:22	12:24:34	549021	5b182365316c630001abff4f	241774363	1	main_z	11	advance_on_keypress_ZEE	46	stimuli_target_circletriangles.svg	stimuli_distractor_trianglediamonds.svg	1	yes	57	0	268
6.6.1	win	2022-12-23	12:15:22	12:24:35	550507	5b182365316c630001abff4f	241774363	1	main_z	11	main_z	47	stimuli_distractor_trianglediamonds.svg	stimuli_target_diamondcircles.svg	27	yes	44	1	576
6.6.1	win	2022-12-23	12:15:22	12:24:35	550507	5b182365316c630001abff4f	241774363	1	main_z	11	advance_on_keypress_ZEE	48	stimuli_distractor_trianglediamonds.svg	stimuli_target_diamondcircles.svg	27	yes	57	0	419
6.6.1	win	2022-12-23	12:15:22	12:24:37	552019	5b182365316c630001abff4f	241774363	1	main_z	11	main_z	49	stimuli_distractor_diamondtriangles.svg	stimuli_target_circlediamonds.svg	14	yes	44	1	454
6.6.1	win	2022-12-23	12:15:22	12:24:37	552019	5b182365316c630001abff4f	241774363	1	main_z	11	advance_on_keypress_ZEE	50	stimuli_distractor_diamondtriangles.svg	stimuli_target_circlediamonds.svg	14	yes	57	0	329
6.6.1	win	2022-12-23	12:15:22	12:24:38	553410	5b182365316c630001abff4f	241774363	1	main_z	11	main_z	51	stimuli_target_circlediamonds.svg	stimuli_distractor_diamondtriangles.svg	6	yes	44	1	412
6.6.1	win	2022-12-23	12:15:22	12:24:38	553410	5b182365316c630001abff4f	241774363	1	main_z	11	advance_on_keypress_ZEE	52	stimuli_target_circlediamonds.svg	stimuli_distractor_diamondtriangles.svg	6	yes	57	0	322
6.6.1	win	2022-12-23	12:15:22	12:24:41	556382	5b182365316c630001abff4f	241774363	1	main_z	11	main_z	53	stimuli_target_diamondsquares.svg	stimuli_distractor_trianglediamonds.svg	20	yes	0	0	2000
6.6.1	win	2022-12-23	12:15:22	12:24:41	556382	5b182365316c630001abff4f	241774363	1	main_z	11	advance_on_keypress_ZEE	54	stimuli_target_diamondsquares.svg	stimuli_distractor_trianglediamonds.svg	20	yes	57	0	740
6.6.1	win	2022-12-23	12:15:22	12:24:43	558349	5b182365316c630001abff4f	241774363	1	main_z	11	main_z	55	stimuli_distractor_diamondtriangles.svg	stimuli_target_circletriangles.svg	13	yes	44	1	584
6.6.1	win	2022-12-23	12:15:22	12:24:43	558349	5b182365316c630001abff4f	241774363	1	main_z	11	advance_on_keypress_ZEE	56	stimuli_distractor_diamondtriangles.svg	stimuli_target_circletriangles.svg	13	yes	57	0	238
6.6.1	win	2022-12-23	12:15:22	12:24:45	559645	5b182365316c630001abff4f	241774363	1	main_z	11	main_z	57	stimuli_distractor_diamondtriangles.svg	stimuli_target_squaretriangles.svg	15	yes	44	1	413
6.6.1	win	2022-12-23	12:15:22	12:24:45	559645	5b182365316c630001abff4f	241774363	1	main_z	11	advance_on_keypress_ZEE	58	stimuli_distractor_diamondtriangles.svg	stimuli_target_squaretriangles.svg	15	yes	57	0	295
6.6.1	win	2022-12-23	12:15:22	12:24:46	561019	5b182365316c630001abff4f	241774363	1	main_z	11	main_z	59	stimuli_distractor_trianglediamonds.svg	stimuli_target_circletriangles.svg	9	yes	44	1	419
6.6.1	win	2022-12-23	12:15:22	12:24:46	561019	5b182365316c630001abff4f	241774363	1	main_z	11	advance_on_keypress_ZEE	60	stimuli_distractor_trianglediamonds.svg	stimuli_target_circletriangles.svg	9	yes	57	0	289
6.6.1	win	2022-12-23	12:15:22	12:24:48	562946	5b182365316c630001abff4f	241774363	1	main_z	11	main_z	61	stimuli_target_diamondcircles.svg	stimuli_distractor_diamondtriangles.svg	23	yes	44	1	997
6.6.1	win	2022-12-23	12:15:22	12:24:48	562946	5b182365316c630001abff4f	241774363	1	main_z	11	advance_on_keypress_ZEE	62	stimuli_target_diamondcircles.svg	stimuli_distractor_diamondtriangles.svg	23	yes	57	0	256
6.6.1	win	2022-12-23	12:15:22	12:24:49	564312	5b182365316c630001abff4f	241774363	1	main_z	11	main_z	63	stimuli_target_trianglesquares.svg	stimuli_distractor_trianglediamonds.svg	18	yes	44	1	463
6.6.1	win	2022-12-23	12:15:22	12:24:49	564312	5b182365316c630001abff4f	241774363	1	main_z	11	advance_on_keypress_ZEE	64	stimuli_target_trianglesquares.svg	stimuli_distractor_trianglediamonds.svg	18	yes	57	0	298
6.6.1	win	2022-12-23	12:15:22	12:24:51	565912	5b182365316c630001abff4f	241774363	1	main_z	11	main_z	65	stimuli_target_trianglesquares.svg	stimuli_distractor_diamondtriangles.svg	22	yes	44	1	646
6.6.1	win	2022-12-23	12:15:22	12:24:51	565912	5b182365316c630001abff4f	241774363	1	main_z	11	advance_on_keypress_ZEE	66	stimuli_target_trianglesquares.svg	stimuli_distractor_diamondtriangles.svg	22	yes	57	0	303
6.6.1	win	2022-12-23	12:15:22	12:24:52	567381	5b182365316c630001abff4f	241774363	1	main_z	11	main_z	67	stimuli_distractor_diamondtriangles.svg	stimuli_target_trianglesquares.svg	30	yes	44	1	510
6.6.1	win	2022-12-23	12:15:22	12:24:52	567381	5b182365316c630001abff4f	241774363	1	main_z	11	advance_on_keypress_ZEE	68	stimuli_distractor_diamondtriangles.svg	stimuli_target_trianglesquares.svg	30	yes	57	0	315
6.6.1	win	2022-12-23	12:15:22	12:24:55	570349	5b182365316c630001abff4f	241774363	1	main_z	11	main_z	69	stimuli_distractor_trianglediamonds.svg	stimuli_distractor_trianglediamonds.svg	33	no	0	1	2000
6.6.1	win	2022-12-23	12:15:22	12:24:55	570349	5b182365316c630001abff4f	241774363	1	main_z	11	advance_on_keypress_ZEE	70	stimuli_distractor_trianglediamonds.svg	stimuli_distractor_trianglediamonds.svg	33	no	57	0	733
6.6.1	win	2022-12-23	12:15:22	12:24:57	572305	5b182365316c630001abff4f	241774363	1	main_z	11	main_z	71	stimuli_distractor_trianglediamonds.svg	stimuli_target_squaretriangles.svg	11	yes	44	1	572
6.6.1	win	2022-12-23	12:15:22	12:24:57	572305	5b182365316c630001abff4f	241774363	1	main_z	11	advance_on_keypress_ZEE	72	stimuli_distractor_trianglediamonds.svg	stimuli_target_squaretriangles.svg	11	yes	57	0	305
6.6.1	win	2022-12-23	12:15:22	12:24:59	573877	5b182365316c630001abff4f	241774363	1	main_z	11	main_z	73	stimuli_target_trianglecircles.svg	stimuli_distractor_trianglediamonds.svg	17	yes	44	1	627
6.6.1	win	2022-12-23	12:15:22	12:24:59	573877	5b182365316c630001abff4f	241774363	1	main_z	11	advance_on_keypress_ZEE	74	stimuli_target_trianglecircles.svg	stimuli_distractor_trianglediamonds.svg	17	yes	57	0	338
6.6.1	win	2022-12-23	12:15:22	12:25:02	576850	5b182365316c630001abff4f	241774363	1	main_z	11	main_z	75	stimuli_distractor_trianglediamonds.svg	stimuli_distractor_trianglediamonds.svg	34	no	0	1	2000
6.6.1	win	2022-12-23	12:15:22	12:25:02	576850	5b182365316c630001abff4f	241774363	1	main_z	11	advance_on_keypress_ZEE	76	stimuli_distractor_trianglediamonds.svg	stimuli_distractor_trianglediamonds.svg	34	no	57	0	526
6.6.1	win	2022-12-23	12:15:22	12:25:05	580016	5b182365316c630001abff4f	241774363	1	main_z	11	main_z	77	stimuli_distractor_trianglediamonds.svg	stimuli_distractor_diamondtriangles.svg	35	no	0	1	2000
6.6.1	win	2022-12-23	12:15:22	12:25:05	580016	5b182365316c630001abff4f	241774363	1	main_z	11	advance_on_keypress_ZEE	78	stimuli_distractor_trianglediamonds.svg	stimuli_distractor_diamondtriangles.svg	35	no	57	0	416
6.6.1	win	2022-12-23	12:15:22	12:25:07	581602	5b182365316c630001abff4f	241774363	1	main_z	11	main_z	79	stimuli_distractor_diamondtriangles.svg	stimuli_target_squarediamonds.svg	16	yes	44	1	517
6.6.1	win	2022-12-23	12:15:22	12:25:07	581602	5b182365316c630001abff4f	241774363	1	main_z	11	advance_on_keypress_ZEE	80	stimuli_distractor_diamondtriangles.svg	stimuli_target_squarediamonds.svg	16	yes	57	0	230
6.6.1	win	2022-12-23	12:15:22	12:25:08	582878	5b182365316c630001abff4f	241774363	1	main_z	11	main_z	81	stimuli_distractor_diamondtriangles.svg	stimuli_target_circletriangles.svg	13	yes	44	1	394
6.6.1	win	2022-12-23	12:15:22	12:25:08	582878	5b182365316c630001abff4f	241774363	1	main_z	11	advance_on_keypress_ZEE	82	stimuli_distractor_diamondtriangles.svg	stimuli_target_circletriangles.svg	13	yes	57	0	266
6.6.1	win	2022-12-23	12:15:22	12:25:11	585584	5b182365316c630001abff4f	241774363	1	main_z	11	main_z	83	stimuli_target_squarediamonds.svg	stimuli_distractor_trianglediamonds.svg	4	yes	44	1	1784
6.6.1	win	2022-12-23	12:15:22	12:25:11	585584	5b182365316c630001abff4f	241774363	1	main_z	11	advance_on_keypress_ZEE	84	stimuli_target_squarediamonds.svg	stimuli_distractor_trianglediamonds.svg	4	yes	57	0	250
6.6.1	win	2022-12-23	12:15:22	12:25:13	588484	5b182365316c630001abff4f	241774363	1	main_z	11	main_z	85	stimuli_distractor_trianglediamonds.svg	stimuli_distractor_trianglediamonds.svg	34	no	0	1	2000
6.6.1	win	2022-12-23	12:15:22	12:25:13	588484	5b182365316c630001abff4f	241774363	1	main_z	11	advance_on_keypress_ZEE	86	stimuli_distractor_trianglediamonds.svg	stimuli_distractor_trianglediamonds.svg	34	no	57	0	1429
6.6.1	win	2022-12-23	12:15:22	12:25:16	591096	5b182365316c630001abff4f	241774363	1	main_z	11	main_z	87	stimuli_distractor_trianglediamonds.svg	stimuli_target_circletriangles.svg	9	yes	44	1	529
6.6.1	win	2022-12-23	12:15:22	12:25:16	591096	5b182365316c630001abff4f	241774363	1	main_z	11	advance_on_keypress_ZEE	88	stimuli_distractor_trianglediamonds.svg	stimuli_target_circletriangles.svg	9	yes	57	0	244
6.6.1	win	2022-12-23	12:15:22	12:25:17	592440	5b182365316c630001abff4f	241774363	1	main_z	11	main_z	89	stimuli_distractor_trianglediamonds.svg	stimuli_target_circlediamonds.svg	10	yes	44	1	456
6.6.1	win	2022-12-23	12:15:22	12:25:17	592440	5b182365316c630001abff4f	241774363	1	main_z	11	advance_on_keypress_ZEE	90	stimuli_distractor_trianglediamonds.svg	stimuli_target_circlediamonds.svg	10	yes	57	0	278
6.6.1	win	2022-12-23	12:15:22	12:25:19	593806	5b182365316c630001abff4f	241774363	1	main_z	11	main_z	91	stimuli_target_circletriangles.svg	stimuli_distractor_trianglediamonds.svg	1	yes	44	1	438
6.6.1	win	2022-12-23	12:15:22	12:25:19	593806	5b182365316c630001abff4f	241774363	1	main_z	11	advance_on_keypress_ZEE	92	stimuli_target_circletriangles.svg	stimuli_distractor_trianglediamonds.svg	1	yes	57	0	297
6.6.1	win	2022-12-23	12:15:22	12:25:20	595310	5b182365316c630001abff4f	241774363	1	main_z	11	main_z	93	stimuli_distractor_diamondtriangles.svg	stimuli_target_trianglecircles.svg	29	yes	44	1	558
6.6.1	win	2022-12-23	12:15:22	12:25:20	595310	5b182365316c630001abff4f	241774363	1	main_z	11	advance_on_keypress_ZEE	94	stimuli_distractor_diamondtriangles.svg	stimuli_target_trianglecircles.svg	29	yes	57	0	318
6.6.1	win	2022-12-23	12:15:22	12:25:22	596687	5b182365316c630001abff4f	241774363	1	main_z	11	main_z	95	stimuli_distractor_trianglediamonds.svg	stimuli_target_diamondsquares.svg	28	yes	44	1	419
6.6.1	win	2022-12-23	12:15:22	12:25:22	596687	5b182365316c630001abff4f	241774363	1	main_z	11	advance_on_keypress_ZEE	96	stimuli_distractor_trianglediamonds.svg	stimuli_target_diamondsquares.svg	28	yes	57	0	354
6.6.1	win	2022-12-23	12:15:22	12:25:23	597998	5b182365316c630001abff4f	241774363	1	main_z	11	main_z	97	stimuli_distractor_diamondtriangles.svg	stimuli_distractor_diamondtriangles.svg	39	no	44	0	314
6.6.1	win	2022-12-23	12:15:22	12:25:23	597998	5b182365316c630001abff4f	241774363	1	main_z	11	advance_on_keypress_ZEE	98	stimuli_distractor_diamondtriangles.svg	stimuli_distractor_diamondtriangles.svg	39	no	57	0	1095
6.6.1	win	2022-12-23	12:15:22	12:25:25	600304	5b182365316c630001abff4f	241774363	1	main_z	11	main_z	99	stimuli_target_trianglesquares.svg	stimuli_distractor_diamondtriangles.svg	22	yes	44	1	552
6.6.1	win	2022-12-23	12:15:22	12:25:25	600304	5b182365316c630001abff4f	241774363	1	main_z	11	advance_on_keypress_ZEE	100	stimuli_target_trianglesquares.svg	stimuli_distractor_diamondtriangles.svg	22	yes	57	0	327
6.6.1	win	2022-12-23	12:15:22	12:25:27	601762	5b182365316c630001abff4f	241774363	1	main_z	11	main_z	101	stimuli_distractor_trianglediamonds.svg	stimuli_target_trianglecircles.svg	25	yes	44	1	494
6.6.1	win	2022-12-23	12:15:22	12:25:27	601762	5b182365316c630001abff4f	241774363	1	main_z	11	advance_on_keypress_ZEE	102	stimuli_distractor_trianglediamonds.svg	stimuli_target_trianglecircles.svg	25	yes	57	0	344
6.6.1	win	2022-12-23	12:15:22	12:25:28	603168	5b182365316c630001abff4f	241774363	1	main_z	11	main_z	103	stimuli_distractor_trianglediamonds.svg	stimuli_target_squarediamonds.svg	12	yes	44	1	433
6.6.1	win	2022-12-23	12:15:22	12:25:28	603168	5b182365316c630001abff4f	241774363	1	main_z	11	advance_on_keypress_ZEE	104	stimuli_distractor_trianglediamonds.svg	stimuli_target_squarediamonds.svg	12	yes	57	0	324
6.6.1	win	2022-12-23	12:15:22	12:25:30	605065	5b182365316c630001abff4f	241774363	1	main_z	11	main_z	105	stimuli_distractor_trianglediamonds.svg	stimuli_target_trianglesquares.svg	26	yes	44	1	930
6.6.1	win	2022-12-23	12:15:22	12:25:30	605065	5b182365316c630001abff4f	241774363	1	main_z	11	advance_on_keypress_ZEE	106	stimuli_distractor_trianglediamonds.svg	stimuli_target_trianglesquares.svg	26	yes	57	0	307
6.6.1	win	2022-12-23	12:15:22	12:25:32	606540	5b182365316c630001abff4f	241774363	1	main_z	11	main_z	107	stimuli_distractor_diamondtriangles.svg	stimuli_target_squaretriangles.svg	15	yes	44	1	522
6.6.1	win	2022-12-23	12:15:22	12:25:32	606540	5b182365316c630001abff4f	241774363	1	main_z	11	advance_on_keypress_ZEE	108	stimuli_distractor_diamondtriangles.svg	stimuli_target_squaretriangles.svg	15	yes	57	0	605
6.6.1	win	2022-12-23	12:15:22	12:25:35	609785	5b182365316c630001abff4f	241774363	1	main_z	11	main_z	109	stimuli_target_diamondsquares.svg	stimuli_distractor_diamondtriangles.svg	24	yes	0	0	2000
6.6.1	win	2022-12-23	12:15:22	12:25:35	609785	5b182365316c630001abff4f	241774363	1	main_z	11	advance_on_keypress_ZEE	110	stimuli_target_diamondsquares.svg	stimuli_distractor_diamondtriangles.svg	24	yes	57	0	355
6.6.1	win	2022-12-23	12:15:22	12:25:36	611207	5b182365316c630001abff4f	241774363	1	main_z	11	main_z	111	stimuli_distractor_diamondtriangles.svg	stimuli_target_trianglesquares.svg	30	yes	44	1	422
6.6.1	win	2022-12-23	12:15:22	12:25:36	611207	5b182365316c630001abff4f	241774363	1	main_z	11	advance_on_keypress_ZEE	112	stimuli_distractor_diamondtriangles.svg	stimuli_target_trianglesquares.svg	30	yes	57	0	297
6.6.1	win	2022-12-23	12:15:22	12:25:37	612512	5b182365316c630001abff4f	241774363	1	main_z	11	main_z	113	stimuli_target_squaretriangles.svg	stimuli_distractor_trianglediamonds.svg	3	yes	44	1	360
6.6.1	win	2022-12-23	12:15:22	12:25:37	612512	5b182365316c630001abff4f	241774363	1	main_z	11	advance_on_keypress_ZEE	114	stimuli_target_squaretriangles.svg	stimuli_distractor_trianglediamonds.svg	3	yes	57	0	264
6.6.1	win	2022-12-23	12:15:22	12:25:39	613727	5b182365316c630001abff4f	241774363	1	main_z	11	main_z	115	stimuli_distractor_diamondtriangles.svg	stimuli_target_circlediamonds.svg	14	yes	44	1	308
6.6.1	win	2022-12-23	12:15:22	12:25:39	613727	5b182365316c630001abff4f	241774363	1	main_z	11	advance_on_keypress_ZEE	116	stimuli_distractor_diamondtriangles.svg	stimuli_target_circlediamonds.svg	14	yes	57	0	246
6.6.1	win	2022-12-23	12:15:22	12:25:41	615641	5b182365316c630001abff4f	241774363	1	main_z	11	main_z	117	stimuli_distractor_diamondtriangles.svg	stimuli_target_diamondsquares.svg	32	yes	44	1	1022
6.6.1	win	2022-12-23	12:15:22	12:25:41	615641	5b182365316c630001abff4f	241774363	1	main_z	11	advance_on_keypress_ZEE	118	stimuli_distractor_diamondtriangles.svg	stimuli_target_diamondsquares.svg	32	yes	57	0	258
6.6.1	win	2022-12-23	12:15:22	12:25:44	618536	5b182365316c630001abff4f	241774363	1	main_z	11	main_z	119	stimuli_distractor_trianglediamonds.svg	stimuli_distractor_diamondtriangles.svg	36	no	0	1	2000
6.6.1	win	2022-12-23	12:15:22	12:25:44	618536	5b182365316c630001abff4f	241774363	1	main_z	11	advance_on_keypress_ZEE	120	stimuli_distractor_trianglediamonds.svg	stimuli_distractor_diamondtriangles.svg	36	no	57	0	264
6.6.1	win	2022-12-23	12:15:22	12:25:45	619859	5b182365316c630001abff4f	241774363	1	main_z	11	main_z	121	stimuli_target_circletriangles.svg	stimuli_distractor_diamondtriangles.svg	5	yes	44	1	405
6.6.1	win	2022-12-23	12:15:22	12:25:45	619859	5b182365316c630001abff4f	241774363	1	main_z	11	advance_on_keypress_ZEE	122	stimuli_target_circletriangles.svg	stimuli_distractor_diamondtriangles.svg	5	yes	57	0	265
6.6.1	win	2022-12-23	12:15:22	12:25:46	621263	5b182365316c630001abff4f	241774363	1	main_z	11	main_z	123	stimuli_target_squarediamonds.svg	stimuli_distractor_diamondtriangles.svg	8	yes	44	1	494
6.6.1	win	2022-12-23	12:15:22	12:25:46	621263	5b182365316c630001abff4f	241774363	1	main_z	11	advance_on_keypress_ZEE	124	stimuli_target_squarediamonds.svg	stimuli_distractor_diamondtriangles.svg	8	yes	57	0	282
6.6.1	win	2022-12-23	12:15:22	12:25:49	624186	5b182365316c630001abff4f	241774363	1	main_z	11	main_z	125	stimuli_target_diamondsquares.svg	stimuli_distractor_trianglediamonds.svg	20	yes	0	0	2000
6.6.1	win	2022-12-23	12:15:22	12:25:49	624186	5b182365316c630001abff4f	241774363	1	main_z	11	advance_on_keypress_ZEE	126	stimuli_target_diamondsquares.svg	stimuli_distractor_trianglediamonds.svg	20	yes	57	0	670
6.6.1	win	2022-12-23	12:15:22	12:25:51	626019	5b182365316c630001abff4f	241774363	1	main_z	11	main_z	127	stimuli_target_diamondcircles.svg	stimuli_distractor_diamondtriangles.svg	23	yes	44	1	506
6.6.1	win	2022-12-23	12:15:22	12:25:51	626019	5b182365316c630001abff4f	241774363	1	main_z	11	advance_on_keypress_ZEE	128	stimuli_target_diamondcircles.svg	stimuli_distractor_diamondtriangles.svg	23	yes	57	0	225
6.6.1	win	2022-12-23	12:15:22	12:25:52	627420	5b182365316c630001abff4f	241774363	1	main_z	11	main_z	129	stimuli_distractor_trianglediamonds.svg	stimuli_target_diamondcircles.svg	27	yes	44	1	533
6.6.1	win	2022-12-23	12:15:22	12:25:52	627420	5b182365316c630001abff4f	241774363	1	main_z	11	advance_on_keypress_ZEE	130	stimuli_distractor_trianglediamonds.svg	stimuli_target_diamondcircles.svg	27	yes	57	0	466
6.6.1	win	2022-12-23	12:15:22	12:25:56	630537	5b182365316c630001abff4f	241774363	1	main_z	11	main_z	131	stimuli_distractor_trianglediamonds.svg	stimuli_distractor_trianglediamonds.svg	33	no	0	1	2000
6.6.1	win	2022-12-23	12:15:22	12:25:56	630537	5b182365316c630001abff4f	241774363	1	main_z	11	advance_on_keypress_ZEE	132	stimuli_distractor_trianglediamonds.svg	stimuli_distractor_trianglediamonds.svg	33	no	57	0	503
6.6.1	win	2022-12-23	12:15:22	12:25:57	632202	5b182365316c630001abff4f	241774363	1	main_z	11	main_z	133	stimuli_target_trianglesquares.svg	stimuli_distractor_trianglediamonds.svg	18	yes	44	1	507
6.6.1	win	2022-12-23	12:15:22	12:25:57	632202	5b182365316c630001abff4f	241774363	1	main_z	11	advance_on_keypress_ZEE	134	stimuli_target_trianglesquares.svg	stimuli_distractor_trianglediamonds.svg	18	yes	57	0	284
6.6.1	win	2022-12-23	12:15:22	12:26:00	635137	5b182365316c630001abff4f	241774363	1	main_z	11	main_z	135	stimuli_target_squaretriangles.svg	stimuli_distractor_diamondtriangles.svg	7	yes	0	0	2000
6.6.1	win	2022-12-23	12:15:22	12:26:00	635137	5b182365316c630001abff4f	241774363	1	main_z	11	advance_on_keypress_ZEE	136	stimuli_target_squaretriangles.svg	stimuli_distractor_diamondtriangles.svg	7	yes	57	0	718
6.6.1	win	2022-12-23	12:15:22	12:26:02	637002	5b182365316c630001abff4f	241774363	1	main_z	11	main_z	137	stimuli_target_trianglecircles.svg	stimuli_distractor_diamondtriangles.svg	21	yes	44	1	498
6.6.1	win	2022-12-23	12:15:22	12:26:02	637002	5b182365316c630001abff4f	241774363	1	main_z	11	advance_on_keypress_ZEE	138	stimuli_target_trianglecircles.svg	stimuli_distractor_diamondtriangles.svg	21	yes	57	0	229
6.6.1	win	2022-12-23	12:15:22	12:26:03	638368	5b182365316c630001abff4f	241774363	1	main_z	11	main_z	139	stimuli_target_trianglecircles.svg	stimuli_distractor_trianglediamonds.svg	17	yes	44	1	481
6.6.1	win	2022-12-23	12:15:22	12:26:03	638368	5b182365316c630001abff4f	241774363	1	main_z	11	advance_on_keypress_ZEE	140	stimuli_target_trianglecircles.svg	stimuli_distractor_trianglediamonds.svg	17	yes	57	0	233
6.6.1	win	2022-12-23	12:15:22	12:26:06	641254	5b182365316c630001abff4f	241774363	1	main_z	11	main_z	141	stimuli_distractor_trianglediamonds.svg	stimuli_target_squaretriangles.svg	11	yes	0	0	2000
6.6.1	win	2022-12-23	12:15:22	12:26:06	641254	5b182365316c630001abff4f	241774363	1	main_z	11	advance_on_keypress_ZEE	142	stimuli_distractor_trianglediamonds.svg	stimuli_target_squaretriangles.svg	11	yes	57	0	459
6.6.1	win	2022-12-23	12:15:22	12:26:08	642872	5b182365316c630001abff4f	241774363	1	main_z	11	main_z	143	stimuli_distractor_diamondtriangles.svg	stimuli_target_diamondcircles.svg	31	yes	44	1	518
6.6.1	win	2022-12-23	12:15:22	12:26:08	642872	5b182365316c630001abff4f	241774363	1	main_z	11	advance_on_keypress_ZEE	144	stimuli_distractor_diamondtriangles.svg	stimuli_target_diamondcircles.svg	31	yes	57	0	233
6.6.1	win	2022-12-23	12:15:22	12:26:11	645754	5b182365316c630001abff4f	241774363	1	main_z	11	main_z	145	stimuli_distractor_diamondtriangles.svg	stimuli_target_squarediamonds.svg	16	yes	0	0	2000
6.6.1	win	2022-12-23	12:15:22	12:26:11	645754	5b182365316c630001abff4f	241774363	1	main_z	11	advance_on_keypress_ZEE	146	stimuli_distractor_diamondtriangles.svg	stimuli_target_squarediamonds.svg	16	yes	57	0	713
6.6.1	win	2022-12-23	12:15:22	12:26:13	647644	5b182365316c630001abff4f	241774363	1	main_z	11	main_z	147	stimuli_target_diamondcircles.svg	stimuli_distractor_trianglediamonds.svg	19	yes	44	1	523
6.6.1	win	2022-12-23	12:15:22	12:26:13	647644	5b182365316c630001abff4f	241774363	1	main_z	11	advance_on_keypress_ZEE	148	stimuli_target_diamondcircles.svg	stimuli_distractor_trianglediamonds.svg	19	yes	57	0	227
6.6.1	win	2022-12-23	12:15:22	12:26:15	650505	5b182365316c630001abff4f	241774363	1	main_z	11	main_z	149	stimuli_distractor_diamondtriangles.svg	stimuli_distractor_trianglediamonds.svg	37	no	0	1	2000
6.6.1	win	2022-12-23	12:15:22	12:26:15	650505	5b182365316c630001abff4f	241774363	1	main_z	11	advance_on_keypress_ZEE	150	stimuli_distractor_diamondtriangles.svg	stimuli_distractor_trianglediamonds.svg	37	no	57	0	912
6.6.1	win	2022-12-23	12:15:22	12:26:19	654055	5b182365316c630001abff4f	241774363	1	main_z	11	main_z	151	stimuli_distractor_diamondtriangles.svg	stimuli_distractor_diamondtriangles.svg	40	no	0	1	2000
6.6.1	win	2022-12-23	12:15:22	12:26:19	654055	5b182365316c630001abff4f	241774363	1	main_z	11	advance_on_keypress_ZEE	152	stimuli_distractor_diamondtriangles.svg	stimuli_distractor_diamondtriangles.svg	40	no	57	0	382
6.6.1	win	2022-12-23	12:15:22	12:26:21	655677	5b182365316c630001abff4f	241774363	1	main_z	11	main_z	153	stimuli_target_circlediamonds.svg	stimuli_distractor_diamondtriangles.svg	6	yes	44	1	589
6.6.1	win	2022-12-23	12:15:22	12:26:21	655677	5b182365316c630001abff4f	241774363	1	main_z	11	advance_on_keypress_ZEE	154	stimuli_target_circlediamonds.svg	stimuli_distractor_diamondtriangles.svg	6	yes	57	0	242
6.6.1	win	2022-12-23	12:15:22	12:26:24	658555	5b182365316c630001abff4f	241774363	1	main_z	11	main_z	155	stimuli_distractor_trianglediamonds.svg	stimuli_distractor_diamondtriangles.svg	35	no	0	1	2000
6.6.1	win	2022-12-23	12:15:22	12:26:24	658555	5b182365316c630001abff4f	241774363	1	main_z	11	advance_on_keypress_ZEE	156	stimuli_distractor_trianglediamonds.svg	stimuli_distractor_diamondtriangles.svg	35	no	57	0	555
6.6.1	win	2022-12-23	12:15:22	12:26:27	661755	5b182365316c630001abff4f	241774363	1	main_z	11	main_z	157	stimuli_distractor_diamondtriangles.svg	stimuli_distractor_trianglediamonds.svg	38	no	0	1	2000
6.6.1	win	2022-12-23	12:15:22	12:26:27	661755	5b182365316c630001abff4f	241774363	1	main_z	11	advance_on_keypress_ZEE	158	stimuli_distractor_diamondtriangles.svg	stimuli_distractor_trianglediamonds.svg	38	no	57	0	280
6.6.1	win	2022-12-23	12:15:22	12:26:28	663361	5b182365316c630001abff4f	241774363	1	main_z	11	main_z	159	stimuli_target_circlediamonds.svg	stimuli_distractor_trianglediamonds.svg	2	yes	44	1	672
6.6.1	win	2022-12-23	12:15:22	12:26:28	663361	5b182365316c630001abff4f	241774363	1	main_z	11	advance_on_keypress_ZEE	160	stimuli_target_circlediamonds.svg	stimuli_distractor_trianglediamonds.svg	2	yes	57	0	201