build	computer.platform	date	time	timestamp	time_elapsed_ms	subject	group	session	blockcode	blocknum	trialcode	trialnum	stimulus_left	stimulus_right	stim_index	target_present	response	correct	latency
6.6.1	win	2022-12-30	08:41:56	08:44:48	170651	6131801c70f5f49c3bdf7010	669028162	1	practice_z	5	practice_z	1	stimuli_target_diamondsquares.svg	stimuli_distractor_trianglediamonds.svg	6	yes	44	1	1796
6.6.1	win	2022-12-30	08:41:56	08:44:48	170651	6131801c70f5f49c3bdf7010	669028162	1	practice_z	5	advance_on_keypress_ZEE	2	stimuli_target_diamondsquares.svg	stimuli_distractor_trianglediamonds.svg	6	yes	57	0	3394
6.6.1	win	2022-12-30	08:41:56	08:44:54	176233	6131801c70f5f49c3bdf7010	669028162	1	practice_z	5	practice_z	3	stimuli_distractor_trianglediamonds.svg	stimuli_target_squarediamonds.svg	11	yes	44	1	517
6.6.1	win	2022-12-30	08:41:56	08:44:54	176233	6131801c70f5f49c3bdf7010	669028162	1	practice_z	5	advance_on_keypress_ZEE	4	stimuli_distractor_trianglediamonds.svg	stimuli_target_squarediamonds.svg	11	yes	57	0	552
6.6.1	win	2022-12-30	08:41:56	08:44:57	178996	6131801c70f5f49c3bdf7010	669028162	1	practice_z	5	practice_z	5	stimuli_target_circlediamonds.svg	stimuli_distractor_diamondtriangles.svg	1	yes	44	1	549
6.6.1	win	2022-12-30	08:41:56	08:44:57	178996	6131801c70f5f49c3bdf7010	669028162	1	practice_z	5	advance_on_keypress_ZEE	6	stimuli_target_circlediamonds.svg	stimuli_distractor_diamondtriangles.svg	1	yes	57	0	601
6.6.1	win	2022-12-30	08:41:56	08:44:59	181705	6131801c70f5f49c3bdf7010	669028162	1	practice_z	5	practice_z	7	stimuli_distractor_trianglediamonds.svg	stimuli_target_circlediamonds.svg	10	yes	44	1	458
6.6.1	win	2022-12-30	08:41:56	08:44:59	181705	6131801c70f5f49c3bdf7010	669028162	1	practice_z	5	advance_on_keypress_ZEE	8	stimuli_distractor_trianglediamonds.svg	stimuli_target_circlediamonds.svg	10	yes	57	0	695
6.6.1	win	2022-12-30	08:41:56	08:45:03	184964	6131801c70f5f49c3bdf7010	669028162	1	practice_z	5	practice_z	9	stimuli_target_squarediamonds.svg	stimuli_distractor_trianglediamonds.svg	5	yes	44	1	905
6.6.1	win	2022-12-30	08:41:56	08:45:03	184964	6131801c70f5f49c3bdf7010	669028162	1	practice_z	5	advance_on_keypress_ZEE	10	stimuli_target_squarediamonds.svg	stimuli_distractor_trianglediamonds.svg	5	yes	57	0	389
6.6.1	win	2022-12-30	08:41:56	08:45:07	189024	6131801c70f5f49c3bdf7010	669028162	1	practice_z	5	practice_z	11	stimuli_distractor_trianglediamonds.svg	stimuli_distractor_diamondtriangles.svg	16	no	0	1	2000
6.6.1	win	2022-12-30	08:41:56	08:45:07	189024	6131801c70f5f49c3bdf7010	669028162	1	practice_z	5	advance_on_keypress_ZEE	12	stimuli_distractor_trianglediamonds.svg	stimuli_distractor_diamondtriangles.svg	16	no	57	0	770
6.6.1	win	2022-12-30	08:41:56	08:45:11	193453	6131801c70f5f49c3bdf7010	669028162	1	practice_z	5	practice_z	13	stimuli_distractor_trianglediamonds.svg	stimuli_target_diamondcircles.svg	12	yes	0	0	2000
6.6.1	win	2022-12-30	08:41:56	08:45:11	193453	6131801c70f5f49c3bdf7010	669028162	1	practice_z	5	advance_on_keypress_ZEE	14	stimuli_distractor_trianglediamonds.svg	stimuli_target_diamondcircles.svg	12	yes	57	0	538
6.6.1	win	2022-12-30	08:41:56	08:45:15	197171	6131801c70f5f49c3bdf7010	669028162	1	practice_z	5	practice_z	15	stimuli_target_diamondsquares.svg	stimuli_distractor_diamondtriangles.svg	3	yes	44	1	1521
6.6.1	win	2022-12-30	08:41:56	08:45:15	197171	6131801c70f5f49c3bdf7010	669028162	1	practice_z	5	advance_on_keypress_ZEE	16	stimuli_target_diamondsquares.svg	stimuli_distractor_diamondtriangles.svg	3	yes	57	0	429
6.6.1	win	2022-12-30	08:41:56	08:45:19	201264	6131801c70f5f49c3bdf7010	669028162	1	practice_z	5	practice_z	17	stimuli_distractor_diamondtriangles.svg	stimuli_distractor_diamondtriangles.svg	13	no	0	1	2000
6.6.1	win	2022-12-30	08:41:56	08:45:19	201264	6131801c70f5f49c3bdf7010	669028162	1	practice_z	5	advance_on_keypress_ZEE	18	stimuli_distractor_diamondtriangles.svg	stimuli_distractor_diamondtriangles.svg	13	no	57	0	466
6.6.1	win	2022-12-30	08:41:56	08:45:23	205378	6131801c70f5f49c3bdf7010	669028162	1	practice_z	5	practice_z	19	stimuli_distractor_diamondtriangles.svg	stimuli_target_diamondcircles.svg	8	yes	0	0	2000
6.6.1	win	2022-12-30	08:41:56	08:45:23	205378	6131801c70f5f49c3bdf7010	669028162	1	practice_z	5	advance_on_keypress_ZEE	20	stimuli_distractor_diamondtriangles.svg	stimuli_target_diamondcircles.svg	8	yes	57	0	464
6.6.1	win	2022-12-30	08:41:56	08:45:26	208254	6131801c70f5f49c3bdf7010	669028162	1	practice_z	5	practice_z	21	stimuli_target_squarediamonds.svg	stimuli_distractor_diamondtriangles.svg	2	yes	44	1	746
6.6.1	win	2022-12-30	08:41:56	08:45:26	208254	6131801c70f5f49c3bdf7010	669028162	1	practice_z	5	advance_on_keypress_ZEE	22	stimuli_target_squarediamonds.svg	stimuli_distractor_diamondtriangles.svg	2	yes	57	0	2095
6.6.1	win	2022-12-30	08:41:56	08:45:30	212302	6131801c70f5f49c3bdf7010	669028162	1	practice_z	5	practice_z	23	stimuli_target_circlediamonds.svg	stimuli_distractor_trianglediamonds.svg	4	yes	44	1	298
6.6.1	win	2022-12-30	08:41:56	08:45:30	212302	6131801c70f5f49c3bdf7010	669028162	1	practice_z	5	advance_on_keypress_ZEE	24	stimuli_target_circlediamonds.svg	stimuli_distractor_trianglediamonds.svg	4	yes	57	0	479
6.6.1	win	2022-12-30	08:41:56	08:45:34	216435	6131801c70f5f49c3bdf7010	669028162	1	practice_z	5	practice_z	25	stimuli_distractor_trianglediamonds.svg	stimuli_distractor_trianglediamonds.svg	15	no	0	1	2000
6.6.1	win	2022-12-30	08:41:56	08:45:34	216435	6131801c70f5f49c3bdf7010	669028162	1	practice_z	5	advance_on_keypress_ZEE	26	stimuli_distractor_trianglediamonds.svg	stimuli_distractor_trianglediamonds.svg	15	no	57	0	733
6.6.1	win	2022-12-30	08:41:56	08:45:38	219905	6131801c70f5f49c3bdf7010	669028162	1	practice_z	5	practice_z	27	stimuli_distractor_diamondtriangles.svg	stimuli_target_trianglecircles.svg	9	yes	44	1	1073
6.6.1	win	2022-12-30	08:41:56	08:45:38	219905	6131801c70f5f49c3bdf7010	669028162	1	practice_z	5	advance_on_keypress_ZEE	28	stimuli_distractor_diamondtriangles.svg	stimuli_target_trianglecircles.svg	9	yes	57	0	452
6.6.1	win	2022-12-30	08:41:56	08:45:42	224011	6131801c70f5f49c3bdf7010	669028162	1	practice_z	5	practice_z	29	stimuli_distractor_diamondtriangles.svg	stimuli_distractor_trianglediamonds.svg	14	no	0	1	2000
6.6.1	win	2022-12-30	08:41:56	08:45:42	224011	6131801c70f5f49c3bdf7010	669028162	1	practice_z	5	advance_on_keypress_ZEE	30	stimuli_distractor_diamondtriangles.svg	stimuli_distractor_trianglediamonds.svg	14	no	57	0	453
6.6.1	win	2022-12-30	08:41:56	08:45:44	226705	6131801c70f5f49c3bdf7010	669028162	1	practice_z	5	practice_z	31	stimuli_distractor_diamondtriangles.svg	stimuli_target_circletriangles.svg	7	yes	44	1	579
6.6.1	win	2022-12-30	08:41:56	08:45:44	226705	6131801c70f5f49c3bdf7010	669028162	1	practice_z	5	advance_on_keypress_ZEE	32	stimuli_distractor_diamondtriangles.svg	stimuli_target_circletriangles.svg	7	yes	57	0	403
6.6.1	win	2022-12-30	08:41:56	08:45:56	238210	6131801c70f5f49c3bdf7010	669028162	1	main_z	7	main_z	1	stimuli_target_trianglesquares.svg	stimuli_distractor_diamondtriangles.svg	22	yes	44	1	465
6.6.1	win	2022-12-30	08:41:56	08:45:56	238210	6131801c70f5f49c3bdf7010	669028162	1	main_z	7	advance_on_keypress_ZEE	2	stimuli_target_trianglesquares.svg	stimuli_distractor_diamondtriangles.svg	22	yes	57	0	3530
6.6.1	win	2022-12-30	08:41:56	08:46:00	242843	6131801c70f5f49c3bdf7010	669028162	1	main_z	7	main_z	3	stimuli_target_circlediamonds.svg	stimuli_distractor_trianglediamonds.svg	2	yes	44	1	451
6.6.1	win	2022-12-30	08:41:56	08:46:00	242843	6131801c70f5f49c3bdf7010	669028162	1	main_z	7	advance_on_keypress_ZEE	4	stimuli_target_circlediamonds.svg	stimuli_distractor_trianglediamonds.svg	2	yes	57	0	1121
6.6.1	win	2022-12-30	08:41:56	08:46:04	246606	6131801c70f5f49c3bdf7010	669028162	1	main_z	7	main_z	5	stimuli_distractor_diamondtriangles.svg	stimuli_distractor_trianglediamonds.svg	38	no	0	1	2000
6.6.1	win	2022-12-30	08:41:56	08:46:04	246606	6131801c70f5f49c3bdf7010	669028162	1	main_z	7	advance_on_keypress_ZEE	6	stimuli_distractor_diamondtriangles.svg	stimuli_distractor_trianglediamonds.svg	38	no	57	0	456
6.6.1	win	2022-12-30	08:41:56	08:46:06	248794	6131801c70f5f49c3bdf7010	669028162	1	main_z	7	main_z	7	stimuli_distractor_diamondtriangles.svg	stimuli_target_diamondsquares.svg	32	yes	44	1	1091
6.6.1	win	2022-12-30	08:41:56	08:46:06	248794	6131801c70f5f49c3bdf7010	669028162	1	main_z	7	advance_on_keypress_ZEE	8	stimuli_distractor_diamondtriangles.svg	stimuli_target_diamondsquares.svg	32	yes	57	0	931
6.6.1	win	2022-12-30	08:41:56	08:46:09	251783	6131801c70f5f49c3bdf7010	669028162	1	main_z	7	main_z	9	stimuli_target_trianglesquares.svg	stimuli_distractor_trianglediamonds.svg	18	yes	44	1	1416
6.6.1	win	2022-12-30	08:41:56	08:46:09	251783	6131801c70f5f49c3bdf7010	669028162	1	main_z	7	advance_on_keypress_ZEE	10	stimuli_target_trianglesquares.svg	stimuli_distractor_trianglediamonds.svg	18	yes	57	0	1806
6.6.1	win	2022-12-30	08:41:56	08:46:14	256231	6131801c70f5f49c3bdf7010	669028162	1	main_z	7	main_z	11	stimuli_target_diamondsquares.svg	stimuli_distractor_trianglediamonds.svg	20	yes	0	0	2000
6.6.1	win	2022-12-30	08:41:56	08:46:14	256231	6131801c70f5f49c3bdf7010	669028162	1	main_z	7	advance_on_keypress_ZEE	12	stimuli_target_diamondsquares.svg	stimuli_distractor_trianglediamonds.svg	20	yes	57	0	767
6.6.1	win	2022-12-30	08:41:56	08:46:17	259645	6131801c70f5f49c3bdf7010	669028162	1	main_z	7	main_z	13	stimuli_distractor_diamondtriangles.svg	stimuli_distractor_diamondtriangles.svg	40	no	0	1	2000
6.6.1	win	2022-12-30	08:41:56	08:46:17	259645	6131801c70f5f49c3bdf7010	669028162	1	main_z	7	advance_on_keypress_ZEE	14	stimuli_distractor_diamondtriangles.svg	stimuli_distractor_diamondtriangles.svg	40	no	57	0	945
6.6.1	win	2022-12-30	08:41:56	08:46:21	263242	6131801c70f5f49c3bdf7010	669028162	1	main_z	7	main_z	15	stimuli_target_squarediamonds.svg	stimuli_distractor_trianglediamonds.svg	4	yes	0	0	2000
6.6.1	win	2022-12-30	08:41:56	08:46:21	263242	6131801c70f5f49c3bdf7010	669028162	1	main_z	7	advance_on_keypress_ZEE	16	stimuli_target_squarediamonds.svg	stimuli_distractor_trianglediamonds.svg	4	yes	57	0	1298
6.6.1	win	2022-12-30	08:41:56	08:46:23	265678	6131801c70f5f49c3bdf7010	669028162	1	main_z	7	main_z	17	stimuli_distractor_trianglediamonds.svg	stimuli_target_squaretriangles.svg	11	yes	44	1	488
6.6.1	win	2022-12-30	08:41:56	08:46:23	265678	6131801c70f5f49c3bdf7010	669028162	1	main_z	7	advance_on_keypress_ZEE	18	stimuli_distractor_trianglediamonds.svg	stimuli_target_squaretriangles.svg	11	yes	57	0	975
6.6.1	win	2022-12-30	08:41:56	08:46:25	267881	6131801c70f5f49c3bdf7010	669028162	1	main_z	7	main_z	19	stimuli_target_squarediamonds.svg	stimuli_distractor_diamondtriangles.svg	8	yes	44	1	560
6.6.1	win	2022-12-30	08:41:56	08:46:25	267881	6131801c70f5f49c3bdf7010	669028162	1	main_z	7	advance_on_keypress_ZEE	20	stimuli_target_squarediamonds.svg	stimuli_distractor_diamondtriangles.svg	8	yes	57	0	1062
6.6.1	win	2022-12-30	08:41:56	08:46:28	270056	6131801c70f5f49c3bdf7010	669028162	1	main_z	7	main_z	21	stimuli_distractor_diamondtriangles.svg	stimuli_target_squarediamonds.svg	16	yes	44	1	454
6.6.1	win	2022-12-30	08:41:56	08:46:28	270056	6131801c70f5f49c3bdf7010	669028162	1	main_z	7	advance_on_keypress_ZEE	22	stimuli_distractor_diamondtriangles.svg	stimuli_target_squarediamonds.svg	16	yes	57	0	809
6.6.1	win	2022-12-30	08:41:56	08:46:30	272699	6131801c70f5f49c3bdf7010	669028162	1	main_z	7	main_z	23	stimuli_distractor_trianglediamonds.svg	stimuli_target_diamondcircles.svg	27	yes	44	1	1199
6.6.1	win	2022-12-30	08:41:56	08:46:30	272699	6131801c70f5f49c3bdf7010	669028162	1	main_z	7	advance_on_keypress_ZEE	24	stimuli_distractor_trianglediamonds.svg	stimuli_target_diamondcircles.svg	27	yes	57	0	602
6.6.1	win	2022-12-30	08:41:56	08:46:32	274679	6131801c70f5f49c3bdf7010	669028162	1	main_z	7	main_z	25	stimuli_distractor_trianglediamonds.svg	stimuli_distractor_trianglediamonds.svg	33	no	44	0	730
6.6.1	win	2022-12-30	08:41:56	08:46:32	274679	6131801c70f5f49c3bdf7010	669028162	1	main_z	7	advance_on_keypress_ZEE	26	stimuli_distractor_trianglediamonds.svg	stimuli_distractor_trianglediamonds.svg	33	no	57	0	659
6.6.1	win	2022-12-30	08:41:56	08:46:36	277997	6131801c70f5f49c3bdf7010	669028162	1	main_z	7	main_z	27	stimuli_distractor_diamondtriangles.svg	stimuli_distractor_trianglediamonds.svg	37	no	0	1	2000
6.6.1	win	2022-12-30	08:41:56	08:46:36	277997	6131801c70f5f49c3bdf7010	669028162	1	main_z	7	advance_on_keypress_ZEE	28	stimuli_distractor_diamondtriangles.svg	stimuli_distractor_trianglediamonds.svg	37	no	57	0	656
6.6.1	win	2022-12-30	08:41:56	08:46:37	279809	6131801c70f5f49c3bdf7010	669028162	1	main_z	7	main_z	29	stimuli_target_diamondcircles.svg	stimuli_distractor_diamondtriangles.svg	23	yes	44	1	514
6.6.1	win	2022-12-30	08:41:56	08:46:37	279809	6131801c70f5f49c3bdf7010	669028162	1	main_z	7	advance_on_keypress_ZEE	30	stimuli_target_diamondcircles.svg	stimuli_distractor_diamondtriangles.svg	23	yes	57	0	1047
6.6.1	win	2022-12-30	08:41:56	08:46:40	282040	6131801c70f5f49c3bdf7010	669028162	1	main_z	7	main_z	31	stimuli_target_squaretriangles.svg	stimuli_distractor_trianglediamonds.svg	3	yes	44	1	531
6.6.1	win	2022-12-30	08:41:56	08:46:40	282040	6131801c70f5f49c3bdf7010	669028162	1	main_z	7	advance_on_keypress_ZEE	32	stimuli_target_squaretriangles.svg	stimuli_distractor_trianglediamonds.svg	3	yes	57	0	981
6.6.1	win	2022-12-30	08:41:56	08:46:42	284120	6131801c70f5f49c3bdf7010	669028162	1	main_z	7	main_z	33	stimuli_target_circlediamonds.svg	stimuli_distractor_diamondtriangles.svg	6	yes	44	1	446
6.6.1	win	2022-12-30	08:41:56	08:46:42	284120	6131801c70f5f49c3bdf7010	669028162	1	main_z	7	advance_on_keypress_ZEE	34	stimuli_target_circlediamonds.svg	stimuli_distractor_diamondtriangles.svg	6	yes	57	0	990
6.6.1	win	2022-12-30	08:41:56	08:46:44	286481	6131801c70f5f49c3bdf7010	669028162	1	main_z	7	main_z	35	stimuli_target_trianglecircles.svg	stimuli_distractor_diamondtriangles.svg	21	yes	44	1	725
6.6.1	win	2022-12-30	08:41:56	08:46:44	286481	6131801c70f5f49c3bdf7010	669028162	1	main_z	7	advance_on_keypress_ZEE	36	stimuli_target_trianglecircles.svg	stimuli_distractor_diamondtriangles.svg	21	yes	57	0	740
6.6.1	win	2022-12-30	08:41:56	08:46:46	288459	6131801c70f5f49c3bdf7010	669028162	1	main_z	7	main_z	37	stimuli_distractor_diamondtriangles.svg	stimuli_target_trianglesquares.svg	30	yes	44	1	605
6.6.1	win	2022-12-30	08:41:56	08:46:46	288459	6131801c70f5f49c3bdf7010	669028162	1	main_z	7	advance_on_keypress_ZEE	38	stimuli_distractor_diamondtriangles.svg	stimuli_target_trianglesquares.svg	30	yes	57	0	883
6.6.1	win	2022-12-30	08:41:56	08:46:48	290434	6131801c70f5f49c3bdf7010	669028162	1	main_z	7	main_z	39	stimuli_target_diamondsquares.svg	stimuli_distractor_diamondtriangles.svg	24	yes	44	1	447
6.6.1	win	2022-12-30	08:41:56	08:46:48	290434	6131801c70f5f49c3bdf7010	669028162	1	main_z	7	advance_on_keypress_ZEE	40	stimuli_target_diamondsquares.svg	stimuli_distractor_diamondtriangles.svg	24	yes	57	0	595
6.6.1	win	2022-12-30	08:41:56	08:46:50	292298	6131801c70f5f49c3bdf7010	669028162	1	main_z	7	main_z	41	stimuli_distractor_trianglediamonds.svg	stimuli_target_trianglesquares.svg	26	yes	44	1	613
6.6.1	win	2022-12-30	08:41:56	08:46:50	292298	6131801c70f5f49c3bdf7010	669028162	1	main_z	7	advance_on_keypress_ZEE	42	stimuli_distractor_trianglediamonds.svg	stimuli_target_trianglesquares.svg	26	yes	57	0	480
6.6.1	win	2022-12-30	08:41:56	08:46:51	293861	6131801c70f5f49c3bdf7010	669028162	1	main_z	7	main_z	43	stimuli_distractor_trianglediamonds.svg	stimuli_target_trianglecircles.svg	25	yes	44	1	429
6.6.1	win	2022-12-30	08:41:56	08:46:51	293861	6131801c70f5f49c3bdf7010	669028162	1	main_z	7	advance_on_keypress_ZEE	44	stimuli_distractor_trianglediamonds.svg	stimuli_target_trianglecircles.svg	25	yes	57	0	659
6.6.1	win	2022-12-30	08:41:56	08:46:53	295537	6131801c70f5f49c3bdf7010	669028162	1	main_z	7	main_z	45	stimuli_distractor_diamondtriangles.svg	stimuli_target_circletriangles.svg	13	yes	44	1	356
6.6.1	win	2022-12-30	08:41:56	08:46:53	295537	6131801c70f5f49c3bdf7010	669028162	1	main_z	7	advance_on_keypress_ZEE	46	stimuli_distractor_diamondtriangles.svg	stimuli_target_circletriangles.svg	13	yes	57	0	744
6.6.1	win	2022-12-30	08:41:56	08:46:55	297451	6131801c70f5f49c3bdf7010	669028162	1	main_z	7	main_z	47	stimuli_distractor_trianglediamonds.svg	stimuli_target_squarediamonds.svg	12	yes	44	1	523
6.6.1	win	2022-12-30	08:41:56	08:46:55	297451	6131801c70f5f49c3bdf7010	669028162	1	main_z	7	advance_on_keypress_ZEE	48	stimuli_distractor_trianglediamonds.svg	stimuli_target_squarediamonds.svg	12	yes	57	0	463
6.6.1	win	2022-12-30	08:41:56	08:46:57	298941	6131801c70f5f49c3bdf7010	669028162	1	main_z	7	main_z	49	stimuli_distractor_diamondtriangles.svg	stimuli_target_circlediamonds.svg	14	yes	44	1	372
6.6.1	win	2022-12-30	08:41:56	08:46:57	298941	6131801c70f5f49c3bdf7010	669028162	1	main_z	7	advance_on_keypress_ZEE	50	stimuli_distractor_diamondtriangles.svg	stimuli_target_circlediamonds.svg	14	yes	57	0	483
6.6.1	win	2022-12-30	08:41:56	08:46:58	300549	6131801c70f5f49c3bdf7010	669028162	1	main_z	7	main_z	51	stimuli_target_circletriangles.svg	stimuli_distractor_trianglediamonds.svg	1	yes	44	1	472
6.6.1	win	2022-12-30	08:41:56	08:46:58	300549	6131801c70f5f49c3bdf7010	669028162	1	main_z	7	advance_on_keypress_ZEE	52	stimuli_target_circletriangles.svg	stimuli_distractor_trianglediamonds.svg	1	yes	57	0	413
6.6.1	win	2022-12-30	08:41:56	08:47:00	301994	6131801c70f5f49c3bdf7010	669028162	1	main_z	7	main_z	53	stimuli_target_trianglecircles.svg	stimuli_distractor_trianglediamonds.svg	17	yes	44	1	383
6.6.1	win	2022-12-30	08:41:56	08:47:00	301994	6131801c70f5f49c3bdf7010	669028162	1	main_z	7	advance_on_keypress_ZEE	54	stimuli_target_trianglecircles.svg	stimuli_distractor_trianglediamonds.svg	17	yes	57	0	426
6.6.1	win	2022-12-30	08:41:56	08:47:01	303775	6131801c70f5f49c3bdf7010	669028162	1	main_z	7	main_z	55	stimuli_distractor_trianglediamonds.svg	stimuli_distractor_trianglediamonds.svg	34	no	44	0	701
6.6.1	win	2022-12-30	08:41:56	08:47:01	303775	6131801c70f5f49c3bdf7010	669028162	1	main_z	7	advance_on_keypress_ZEE	56	stimuli_distractor_trianglediamonds.svg	stimuli_distractor_trianglediamonds.svg	34	no	57	0	825
6.6.1	win	2022-12-30	08:41:56	08:47:04	306187	6131801c70f5f49c3bdf7010	669028162	1	main_z	7	main_z	57	stimuli_target_diamondcircles.svg	stimuli_distractor_trianglediamonds.svg	19	yes	44	1	930
6.6.1	win	2022-12-30	08:41:56	08:47:04	306187	6131801c70f5f49c3bdf7010	669028162	1	main_z	7	advance_on_keypress_ZEE	58	stimuli_target_diamondcircles.svg	stimuli_distractor_trianglediamonds.svg	19	yes	57	0	390
6.6.1	win	2022-12-30	08:41:56	08:47:05	307715	6131801c70f5f49c3bdf7010	669028162	1	main_z	7	main_z	59	stimuli_distractor_diamondtriangles.svg	stimuli_target_trianglecircles.svg	29	yes	44	1	494
6.6.1	win	2022-12-30	08:41:56	08:47:05	307715	6131801c70f5f49c3bdf7010	669028162	1	main_z	7	advance_on_keypress_ZEE	60	stimuli_distractor_diamondtriangles.svg	stimuli_target_trianglecircles.svg	29	yes	57	0	407
6.6.1	win	2022-12-30	08:41:56	08:47:07	309204	6131801c70f5f49c3bdf7010	669028162	1	main_z	7	main_z	61	stimuli_distractor_trianglediamonds.svg	stimuli_target_circletriangles.svg	9	yes	44	1	417
6.6.1	win	2022-12-30	08:41:56	08:47:07	309204	6131801c70f5f49c3bdf7010	669028162	1	main_z	7	advance_on_keypress_ZEE	62	stimuli_distractor_trianglediamonds.svg	stimuli_target_circletriangles.svg	9	yes	57	0	1216
6.6.1	win	2022-12-30	08:41:56	08:47:10	311982	6131801c70f5f49c3bdf7010	669028162	1	main_z	7	main_z	63	stimuli_distractor_trianglediamonds.svg	stimuli_distractor_diamondtriangles.svg	36	no	44	0	914
6.6.1	win	2022-12-30	08:41:56	08:47:10	311982	6131801c70f5f49c3bdf7010	669028162	1	main_z	7	advance_on_keypress_ZEE	64	stimuli_distractor_trianglediamonds.svg	stimuli_distractor_diamondtriangles.svg	36	no	57	0	4757
6.6.1	win	2022-12-30	08:41:56	08:47:15	317708	6131801c70f5f49c3bdf7010	669028162	1	main_z	7	main_z	65	stimuli_target_circletriangles.svg	stimuli_distractor_diamondtriangles.svg	5	yes	44	1	313
6.6.1	win	2022-12-30	08:41:56	08:47:15	317708	6131801c70f5f49c3bdf7010	669028162	1	main_z	7	advance_on_keypress_ZEE	66	stimuli_target_circletriangles.svg	stimuli_distractor_diamondtriangles.svg	5	yes	57	0	766
6.6.1	win	2022-12-30	08:41:56	08:47:17	319641	6131801c70f5f49c3bdf7010	669028162	1	main_z	7	main_z	67	stimuli_distractor_diamondtriangles.svg	stimuli_target_squaretriangles.svg	15	yes	44	1	513
6.6.1	win	2022-12-30	08:41:56	08:47:17	319641	6131801c70f5f49c3bdf7010	669028162	1	main_z	7	advance_on_keypress_ZEE	68	stimuli_distractor_diamondtriangles.svg	stimuli_target_squaretriangles.svg	15	yes	57	0	426
6.6.1	win	2022-12-30	08:41:56	08:47:19	321147	6131801c70f5f49c3bdf7010	669028162	1	main_z	7	main_z	69	stimuli_distractor_diamondtriangles.svg	stimuli_target_diamondcircles.svg	31	yes	44	1	437
6.6.1	win	2022-12-30	08:41:56	08:47:19	321147	6131801c70f5f49c3bdf7010	669028162	1	main_z	7	advance_on_keypress_ZEE	70	stimuli_distractor_diamondtriangles.svg	stimuli_target_diamondcircles.svg	31	yes	57	0	625
6.6.1	win	2022-12-30	08:41:56	08:47:21	322902	6131801c70f5f49c3bdf7010	669028162	1	main_z	7	main_z	71	stimuli_distractor_trianglediamonds.svg	stimuli_distractor_diamondtriangles.svg	35	no	44	0	492
6.6.1	win	2022-12-30	08:41:56	08:47:21	322902	6131801c70f5f49c3bdf7010	669028162	1	main_z	7	advance_on_keypress_ZEE	72	stimuli_distractor_trianglediamonds.svg	stimuli_distractor_diamondtriangles.svg	35	no	57	0	701
6.6.1	win	2022-12-30	08:41:56	08:47:22	324801	6131801c70f5f49c3bdf7010	669028162	1	main_z	7	main_z	73	stimuli_distractor_trianglediamonds.svg	stimuli_target_circlediamonds.svg	10	yes	44	1	544
6.6.1	win	2022-12-30	08:41:56	08:47:22	324801	6131801c70f5f49c3bdf7010	669028162	1	main_z	7	advance_on_keypress_ZEE	74	stimuli_distractor_trianglediamonds.svg	stimuli_target_circlediamonds.svg	10	yes	57	0	426
6.6.1	win	2022-12-30	08:41:56	08:47:25	327873	6131801c70f5f49c3bdf7010	669028162	1	main_z	7	main_z	75	stimuli_distractor_diamondtriangles.svg	stimuli_distractor_diamondtriangles.svg	39	no	0	1	2000
6.6.1	win	2022-12-30	08:41:56	08:47:25	327873	6131801c70f5f49c3bdf7010	669028162	1	main_z	7	advance_on_keypress_ZEE	76	stimuli_distractor_diamondtriangles.svg	stimuli_distractor_diamondtriangles.svg	39	no	57	0	386
6.6.1	win	2022-12-30	08:41:56	08:47:28	330515	6131801c70f5f49c3bdf7010	669028162	1	main_z	7	main_z	77	stimuli_distractor_trianglediamonds.svg	stimuli_target_diamondsquares.svg	28	yes	44	1	1611
6.6.1	win	2022-12-30	08:41:56	08:47:28	330515	6131801c70f5f49c3bdf7010	669028162	1	main_z	7	advance_on_keypress_ZEE	78	stimuli_distractor_trianglediamonds.svg	stimuli_target_diamondsquares.svg	28	yes	57	0	376
6.6.1	win	2022-12-30	08:41:56	08:47:30	332565	6131801c70f5f49c3bdf7010	669028162	1	main_z	7	main_z	79	stimuli_target_squaretriangles.svg	stimuli_distractor_diamondtriangles.svg	7	yes	44	1	1013
6.6.1	win	2022-12-30	08:41:56	08:47:30	332565	6131801c70f5f49c3bdf7010	669028162	1	main_z	7	advance_on_keypress_ZEE	80	stimuli_target_squaretriangles.svg	stimuli_distractor_diamondtriangles.svg	7	yes	57	0	398
6.6.1	win	2022-12-30	08:41:56	08:47:33	335616	6131801c70f5f49c3bdf7010	669028162	1	main_z	7	main_z	81	stimuli_target_trianglesquares.svg	stimuli_distractor_trianglediamonds.svg	18	yes	0	0	2000
6.6.1	win	2022-12-30	08:41:56	08:47:33	335616	6131801c70f5f49c3bdf7010	669028162	1	main_z	7	advance_on_keypress_ZEE	82	stimuli_target_trianglesquares.svg	stimuli_distractor_trianglediamonds.svg	18	yes	57	0	690
6.6.1	win	2022-12-30	08:41:56	08:47:36	338677	6131801c70f5f49c3bdf7010	669028162	1	main_z	7	main_z	83	stimuli_distractor_diamondtriangles.svg	stimuli_target_squarediamonds.svg	16	yes	44	1	1731
6.6.1	win	2022-12-30	08:41:56	08:47:36	338677	6131801c70f5f49c3bdf7010	669028162	1	main_z	7	advance_on_keypress_ZEE	84	stimuli_distractor_diamondtriangles.svg	stimuli_target_squarediamonds.svg	16	yes	57	0	505
6.6.1	win	2022-12-30	08:41:56	08:47:38	340305	6131801c70f5f49c3bdf7010	669028162	1	main_z	7	main_z	85	stimuli_target_squarediamonds.svg	stimuli_distractor_diamondtriangles.svg	8	yes	44	1	478
6.6.1	win	2022-12-30	08:41:56	08:47:38	340305	6131801c70f5f49c3bdf7010	669028162	1	main_z	7	advance_on_keypress_ZEE	86	stimuli_target_squarediamonds.svg	stimuli_distractor_diamondtriangles.svg	8	yes	57	0	548
6.6.1	win	2022-12-30	08:41:56	08:47:40	342281	6131801c70f5f49c3bdf7010	669028162	1	main_z	7	main_z	87	stimuli_distractor_diamondtriangles.svg	stimuli_target_trianglecircles.svg	29	yes	44	1	772
6.6.1	win	2022-12-30	08:41:56	08:47:40	342281	6131801c70f5f49c3bdf7010	669028162	1	main_z	7	advance_on_keypress_ZEE	88	stimuli_distractor_diamondtriangles.svg	stimuli_target_trianglecircles.svg	29	yes	57	0	556
6.6.1	win	2022-12-30	08:41:56	08:47:42	344105	6131801c70f5f49c3bdf7010	669028162	1	main_z	7	main_z	89	stimuli_distractor_trianglediamonds.svg	stimuli_target_trianglesquares.svg	26	yes	44	1	630
6.6.1	win	2022-12-30	08:41:56	08:47:42	344105	6131801c70f5f49c3bdf7010	669028162	1	main_z	7	advance_on_keypress_ZEE	90	stimuli_distractor_trianglediamonds.svg	stimuli_target_trianglesquares.svg	26	yes	57	0	429
6.6.1	win	2022-12-30	08:41:56	08:47:44	346073	6131801c70f5f49c3bdf7010	669028162	1	main_z	7	main_z	91	stimuli_distractor_trianglediamonds.svg	stimuli_target_diamondcircles.svg	27	yes	44	1	884
6.6.1	win	2022-12-30	08:41:56	08:47:44	346073	6131801c70f5f49c3bdf7010	669028162	1	main_z	7	advance_on_keypress_ZEE	92	stimuli_distractor_trianglediamonds.svg	stimuli_target_diamondcircles.svg	27	yes	57	0	545
6.6.1	win	2022-12-30	08:41:56	08:47:47	349271	6131801c70f5f49c3bdf7010	669028162	1	main_z	7	main_z	93	stimuli_target_circletriangles.svg	stimuli_distractor_diamondtriangles.svg	5	yes	0	0	2000
6.6.1	win	2022-12-30	08:41:56	08:47:47	349271	6131801c70f5f49c3bdf7010	669028162	1	main_z	7	advance_on_keypress_ZEE	94	stimuli_target_circletriangles.svg	stimuli_distractor_diamondtriangles.svg	5	yes	57	0	852
6.6.1	win	2022-12-30	08:41:56	08:47:49	351118	6131801c70f5f49c3bdf7010	669028162	1	main_z	7	main_z	95	stimuli_target_circlediamonds.svg	stimuli_distractor_diamondtriangles.svg	6	yes	44	1	350
6.6.1	win	2022-12-30	08:41:56	08:47:49	351118	6131801c70f5f49c3bdf7010	669028162	1	main_z	7	advance_on_keypress_ZEE	96	stimuli_target_circlediamonds.svg	stimuli_distractor_diamondtriangles.svg	6	yes	57	0	759
6.6.1	win	2022-12-30	08:41:56	08:47:51	352965	6131801c70f5f49c3bdf7010	669028162	1	main_z	7	main_z	97	stimuli_distractor_trianglediamonds.svg	stimuli_target_trianglecircles.svg	25	yes	44	1	448
6.6.1	win	2022-12-30	08:41:56	08:47:51	352965	6131801c70f5f49c3bdf7010	669028162	1	main_z	7	advance_on_keypress_ZEE	98	stimuli_distractor_trianglediamonds.svg	stimuli_target_trianglecircles.svg	25	yes	57	0	594
6.6.1	win	2022-12-30	08:41:56	08:47:53	355522	6131801c70f5f49c3bdf7010	669028162	1	main_z	7	main_z	99	stimuli_distractor_diamondtriangles.svg	stimuli_target_circlediamonds.svg	14	yes	44	1	1305
6.6.1	win	2022-12-30	08:41:56	08:47:53	355522	6131801c70f5f49c3bdf7010	669028162	1	main_z	7	advance_on_keypress_ZEE	100	stimuli_distractor_diamondtriangles.svg	stimuli_target_circlediamonds.svg	14	yes	57	0	443
6.6.1	win	2022-12-30	08:41:56	08:47:55	357039	6131801c70f5f49c3bdf7010	669028162	1	main_z	7	main_z	101	stimuli_target_circlediamonds.svg	stimuli_distractor_trianglediamonds.svg	2	yes	44	1	425
6.6.1	win	2022-12-30	08:41:56	08:47:55	357039	6131801c70f5f49c3bdf7010	669028162	1	main_z	7	advance_on_keypress_ZEE	102	stimuli_target_circlediamonds.svg	stimuli_distractor_trianglediamonds.svg	2	yes	57	0	778
6.6.1	win	2022-12-30	08:41:56	08:47:58	360462	6131801c70f5f49c3bdf7010	669028162	1	main_z	7	main_z	103	stimuli_distractor_diamondtriangles.svg	stimuli_distractor_trianglediamonds.svg	38	no	0	1	2000
6.6.1	win	2022-12-30	08:41:56	08:47:58	360462	6131801c70f5f49c3bdf7010	669028162	1	main_z	7	advance_on_keypress_ZEE	104	stimuli_distractor_diamondtriangles.svg	stimuli_distractor_trianglediamonds.svg	38	no	57	0	491
6.6.1	win	2022-12-30	08:41:56	08:48:00	362235	6131801c70f5f49c3bdf7010	669028162	1	main_z	7	main_z	105	stimuli_target_squaretriangles.svg	stimuli_distractor_trianglediamonds.svg	3	yes	44	1	642
6.6.1	win	2022-12-30	08:41:56	08:48:00	362235	6131801c70f5f49c3bdf7010	669028162	1	main_z	7	advance_on_keypress_ZEE	106	stimuli_target_squaretriangles.svg	stimuli_distractor_trianglediamonds.svg	3	yes	57	0	495
6.6.1	win	2022-12-30	08:41:56	08:48:01	363858	6131801c70f5f49c3bdf7010	669028162	1	main_z	7	main_z	107	stimuli_distractor_trianglediamonds.svg	stimuli_target_circletriangles.svg	9	yes	44	1	483
6.6.1	win	2022-12-30	08:41:56	08:48:01	363858	6131801c70f5f49c3bdf7010	669028162	1	main_z	7	advance_on_keypress_ZEE	108	stimuli_distractor_trianglediamonds.svg	stimuli_target_circletriangles.svg	9	yes	57	0	432
6.6.1	win	2022-12-30	08:41:56	08:48:03	365342	6131801c70f5f49c3bdf7010	669028162	1	main_z	7	main_z	109	stimuli_target_trianglecircles.svg	stimuli_distractor_trianglediamonds.svg	17	yes	44	1	402
6.6.1	win	2022-12-30	08:41:56	08:48:03	365342	6131801c70f5f49c3bdf7010	669028162	1	main_z	7	advance_on_keypress_ZEE	110	stimuli_target_trianglecircles.svg	stimuli_distractor_trianglediamonds.svg	17	yes	57	0	458
6.6.1	win	2022-12-30	08:41:56	08:48:04	366864	6131801c70f5f49c3bdf7010	669028162	1	main_z	7	main_z	111	stimuli_target_trianglecircles.svg	stimuli_distractor_diamondtriangles.svg	21	yes	44	1	425
6.6.1	win	2022-12-30	08:41:56	08:48:04	366864	6131801c70f5f49c3bdf7010	669028162	1	main_z	7	advance_on_keypress_ZEE	112	stimuli_target_trianglecircles.svg	stimuli_distractor_diamondtriangles.svg	21	yes	57	0	425
6.6.1	win	2022-12-30	08:41:56	08:48:06	368394	6131801c70f5f49c3bdf7010	669028162	1	main_z	7	main_z	113	stimuli_distractor_diamondtriangles.svg	stimuli_target_squaretriangles.svg	15	yes	44	1	473
6.6.1	win	2022-12-30	08:41:56	08:48:06	368394	6131801c70f5f49c3bdf7010	669028162	1	main_z	7	advance_on_keypress_ZEE	114	stimuli_distractor_diamondtriangles.svg	stimuli_target_squaretriangles.svg	15	yes	57	0	1578
6.6.1	win	2022-12-30	08:41:56	08:48:09	371360	6131801c70f5f49c3bdf7010	669028162	1	main_z	7	main_z	115	stimuli_target_circletriangles.svg	stimuli_distractor_trianglediamonds.svg	1	yes	44	1	741
6.6.1	win	2022-12-30	08:41:56	08:48:09	371360	6131801c70f5f49c3bdf7010	669028162	1	main_z	7	advance_on_keypress_ZEE	116	stimuli_target_circletriangles.svg	stimuli_distractor_trianglediamonds.svg	1	yes	57	0	403
6.6.1	win	2022-12-30	08:41:56	08:48:11	373570	6131801c70f5f49c3bdf7010	669028162	1	main_z	7	main_z	117	stimuli_distractor_diamondtriangles.svg	stimuli_target_circletriangles.svg	13	yes	44	1	1169
6.6.1	win	2022-12-30	08:41:56	08:48:11	373570	6131801c70f5f49c3bdf7010	669028162	1	main_z	7	advance_on_keypress_ZEE	118	stimuli_distractor_diamondtriangles.svg	stimuli_target_circletriangles.svg	13	yes	57	0	390
6.6.1	win	2022-12-30	08:41:56	08:48:13	375600	6131801c70f5f49c3bdf7010	669028162	1	main_z	7	main_z	119	stimuli_distractor_diamondtriangles.svg	stimuli_target_trianglesquares.svg	30	yes	44	1	1001
6.6.1	win	2022-12-30	08:41:56	08:48:13	375600	6131801c70f5f49c3bdf7010	669028162	1	main_z	7	advance_on_keypress_ZEE	120	stimuli_distractor_diamondtriangles.svg	stimuli_target_trianglesquares.svg	30	yes	57	0	449
6.6.1	win	2022-12-30	08:41:56	08:48:16	378697	6131801c70f5f49c3bdf7010	669028162	1	main_z	7	main_z	121	stimuli_distractor_diamondtriangles.svg	stimuli_distractor_diamondtriangles.svg	40	no	0	1	2000
6.6.1	win	2022-12-30	08:41:56	08:48:16	378697	6131801c70f5f49c3bdf7010	669028162	1	main_z	7	advance_on_keypress_ZEE	122	stimuli_distractor_diamondtriangles.svg	stimuli_distractor_diamondtriangles.svg	40	no	57	0	1030
6.6.1	win	2022-12-30	08:41:56	08:48:18	380862	6131801c70f5f49c3bdf7010	669028162	1	main_z	7	main_z	123	stimuli_target_squaretriangles.svg	stimuli_distractor_diamondtriangles.svg	7	yes	44	1	485
6.6.1	win	2022-12-30	08:41:56	08:48:18	380862	6131801c70f5f49c3bdf7010	669028162	1	main_z	7	advance_on_keypress_ZEE	124	stimuli_target_squaretriangles.svg	stimuli_distractor_diamondtriangles.svg	7	yes	57	0	713
6.6.1	win	2022-12-30	08:41:56	08:48:22	384226	6131801c70f5f49c3bdf7010	669028162	1	main_z	7	main_z	125	stimuli_distractor_trianglediamonds.svg	stimuli_distractor_trianglediamonds.svg	33	no	0	1	2000
6.6.1	win	2022-12-30	08:41:56	08:48:22	384226	6131801c70f5f49c3bdf7010	669028162	1	main_z	7	advance_on_keypress_ZEE	126	stimuli_distractor_trianglediamonds.svg	stimuli_distractor_trianglediamonds.svg	33	no	57	0	607
6.6.1	win	2022-12-30	08:41:56	08:48:24	386731	6131801c70f5f49c3bdf7010	669028162	1	main_z	7	main_z	127	stimuli_distractor_trianglediamonds.svg	stimuli_distractor_trianglediamonds.svg	34	no	44	0	1258
6.6.1	win	2022-12-30	08:41:56	08:48:24	386731	6131801c70f5f49c3bdf7010	669028162	1	main_z	7	advance_on_keypress_ZEE	128	stimuli_distractor_trianglediamonds.svg	stimuli_distractor_trianglediamonds.svg	34	no	57	0	455
6.6.1	win	2022-12-30	08:41:56	08:48:26	388279	6131801c70f5f49c3bdf7010	669028162	1	main_z	7	main_z	129	stimuli_distractor_diamondtriangles.svg	stimuli_target_diamondcircles.svg	31	yes	44	1	458
6.6.1	win	2022-12-30	08:41:56	08:48:26	388279	6131801c70f5f49c3bdf7010	669028162	1	main_z	7	advance_on_keypress_ZEE	130	stimuli_distractor_diamondtriangles.svg	stimuli_target_diamondcircles.svg	31	yes	57	0	475
6.6.1	win	2022-12-30	08:41:56	08:48:28	389948	6131801c70f5f49c3bdf7010	669028162	1	main_z	7	main_z	131	stimuli_target_diamondcircles.svg	stimuli_distractor_diamondtriangles.svg	23	yes	44	1	561
6.6.1	win	2022-12-30	08:41:56	08:48:28	389948	6131801c70f5f49c3bdf7010	669028162	1	main_z	7	advance_on_keypress_ZEE	132	stimuli_target_diamondcircles.svg	stimuli_distractor_diamondtriangles.svg	23	yes	57	0	402
6.6.1	win	2022-12-30	08:41:56	08:48:29	391638	6131801c70f5f49c3bdf7010	669028162	1	main_z	7	main_z	133	stimuli_distractor_trianglediamonds.svg	stimuli_target_circlediamonds.svg	10	yes	44	1	635
6.6.1	win	2022-12-30	08:41:56	08:48:29	391638	6131801c70f5f49c3bdf7010	669028162	1	main_z	7	advance_on_keypress_ZEE	134	stimuli_distractor_trianglediamonds.svg	stimuli_target_circlediamonds.svg	10	yes	57	0	459
6.6.1	win	2022-12-30	08:41:56	08:48:32	394734	6131801c70f5f49c3bdf7010	669028162	1	main_z	7	main_z	135	stimuli_distractor_diamondtriangles.svg	stimuli_distractor_diamondtriangles.svg	39	no	0	1	2000
6.6.1	win	2022-12-30	08:41:56	08:48:32	394734	6131801c70f5f49c3bdf7010	669028162	1	main_z	7	advance_on_keypress_ZEE	136	stimuli_distractor_diamondtriangles.svg	stimuli_distractor_diamondtriangles.svg	39	no	57	0	532
6.6.1	win	2022-12-30	08:41:56	08:48:36	397914	6131801c70f5f49c3bdf7010	669028162	1	main_z	7	main_z	137	stimuli_target_diamondsquares.svg	stimuli_distractor_diamondtriangles.svg	24	yes	0	0	2000
6.6.1	win	2022-12-30	08:41:56	08:48:36	397914	6131801c70f5f49c3bdf7010	669028162	1	main_z	7	advance_on_keypress_ZEE	138	stimuli_target_diamondsquares.svg	stimuli_distractor_diamondtriangles.svg	24	yes	57	0	467
6.6.1	win	2022-12-30	08:41:56	08:48:37	399724	6131801c70f5f49c3bdf7010	669028162	1	main_z	7	main_z	139	stimuli_target_squarediamonds.svg	stimuli_distractor_trianglediamonds.svg	4	yes	44	1	695
6.6.1	win	2022-12-30	08:41:56	08:48:37	399724	6131801c70f5f49c3bdf7010	669028162	1	main_z	7	advance_on_keypress_ZEE	140	stimuli_target_squarediamonds.svg	stimuli_distractor_trianglediamonds.svg	4	yes	57	0	668
6.6.1	win	2022-12-30	08:41:56	08:48:41	403044	6131801c70f5f49c3bdf7010	669028162	1	main_z	7	main_z	141	stimuli_distractor_diamondtriangles.svg	stimuli_distractor_trianglediamonds.svg	37	no	0	1	2000
6.6.1	win	2022-12-30	08:41:56	08:48:41	403044	6131801c70f5f49c3bdf7010	669028162	1	main_z	7	advance_on_keypress_ZEE	142	stimuli_distractor_diamondtriangles.svg	stimuli_distractor_trianglediamonds.svg	37	no	57	0	922
6.6.1	win	2022-12-30	08:41:56	08:48:44	406608	6131801c70f5f49c3bdf7010	669028162	1	main_z	7	main_z	143	stimuli_distractor_trianglediamonds.svg	stimuli_distractor_diamondtriangles.svg	36	no	0	1	2000
6.6.1	win	2022-12-30	08:41:56	08:48:44	406608	6131801c70f5f49c3bdf7010	669028162	1	main_z	7	advance_on_keypress_ZEE	144	stimuli_distractor_trianglediamonds.svg	stimuli_distractor_diamondtriangles.svg	36	no	57	0	443
6.6.1	win	2022-12-30	08:41:56	08:48:46	408272	6131801c70f5f49c3bdf7010	669028162	1	main_z	7	main_z	145	stimuli_distractor_trianglediamonds.svg	stimuli_target_squarediamonds.svg	12	yes	44	1	583
6.6.1	win	2022-12-30	08:41:56	08:48:46	408272	6131801c70f5f49c3bdf7010	669028162	1	main_z	7	advance_on_keypress_ZEE	146	stimuli_distractor_trianglediamonds.svg	stimuli_target_squarediamonds.svg	12	yes	57	0	769
6.6.1	win	2022-12-30	08:41:56	08:48:48	410378	6131801c70f5f49c3bdf7010	669028162	1	main_z	7	main_z	147	stimuli_target_diamondcircles.svg	stimuli_distractor_trianglediamonds.svg	19	yes	44	1	691
6.6.1	win	2022-12-30	08:41:56	08:48:48	410378	6131801c70f5f49c3bdf7010	669028162	1	main_z	7	advance_on_keypress_ZEE	148	stimuli_target_diamondcircles.svg	stimuli_distractor_trianglediamonds.svg	19	yes	57	0	584
6.6.1	win	2022-12-30	08:41:56	08:48:50	412303	6131801c70f5f49c3bdf7010	669028162	1	main_z	7	main_z	149	stimuli_distractor_trianglediamonds.svg	stimuli_target_squaretriangles.svg	11	yes	44	1	685
6.6.1	win	2022-12-30	08:41:56	08:48:50	412303	6131801c70f5f49c3bdf7010	669028162	1	main_z	7	advance_on_keypress_ZEE	150	stimuli_distractor_trianglediamonds.svg	stimuli_target_squaretriangles.svg	11	yes	57	0	418
6.6.1	win	2022-12-30	08:41:56	08:48:53	415367	6131801c70f5f49c3bdf7010	669028162	1	main_z	7	main_z	151	stimuli_distractor_diamondtriangles.svg	stimuli_target_diamondsquares.svg	32	yes	0	0	2000
6.6.1	win	2022-12-30	08:41:56	08:48:53	415367	6131801c70f5f49c3bdf7010	669028162	1	main_z	7	advance_on_keypress_ZEE	152	stimuli_distractor_diamondtriangles.svg	stimuli_target_diamondsquares.svg	32	yes	57	0	1521
6.6.1	win	2022-12-30	08:41:56	08:48:57	419530	6131801c70f5f49c3bdf7010	669028162	1	main_z	7	main_z	153	stimuli_distractor_trianglediamonds.svg	stimuli_target_diamondsquares.svg	28	yes	0	0	2000
6.6.1	win	2022-12-30	08:41:56	08:48:57	419530	6131801c70f5f49c3bdf7010	669028162	1	main_z	7	advance_on_keypress_ZEE	154	stimuli_distractor_trianglediamonds.svg	stimuli_target_diamondsquares.svg	28	yes	57	0	1211
6.6.1	win	2022-12-30	08:41:56	08:49:00	422326	6131801c70f5f49c3bdf7010	669028162	1	main_z	7	main_z	155	stimuli_distractor_trianglediamonds.svg	stimuli_distractor_diamondtriangles.svg	35	no	44	0	932
6.6.1	win	2022-12-30	08:41:56	08:49:00	422326	6131801c70f5f49c3bdf7010	669028162	1	main_z	7	advance_on_keypress_ZEE	156	stimuli_distractor_trianglediamonds.svg	stimuli_distractor_diamondtriangles.svg	35	no	57	0	521
6.6.1	win	2022-12-30	08:41:56	08:49:03	425492	6131801c70f5f49c3bdf7010	669028162	1	main_z	7	main_z	157	stimuli_target_trianglesquares.svg	stimuli_distractor_diamondtriangles.svg	22	yes	0	0	2000
6.6.1	win	2022-12-30	08:41:56	08:49:03	425492	6131801c70f5f49c3bdf7010	669028162	1	main_z	7	advance_on_keypress_ZEE	158	stimuli_target_trianglesquares.svg	stimuli_distractor_diamondtriangles.svg	22	yes	57	0	545
6.6.1	win	2022-12-30	08:41:56	08:49:06	428689	6131801c70f5f49c3bdf7010	669028162	1	main_z	7	main_z	159	stimuli_target_diamondsquares.svg	stimuli_distractor_trianglediamonds.svg	20	yes	0	0	2000
6.6.1	win	2022-12-30	08:41:56	08:49:06	428689	6131801c70f5f49c3bdf7010	669028162	1	main_z	7	advance_on_keypress_ZEE	160	stimuli_target_diamondsquares.svg	stimuli_distractor_trianglediamonds.svg	20	yes	57	0	508
6.6.1	win	2022-12-30	08:41:56	08:49:31	453134	6131801c70f5f49c3bdf7010	669028162	1	practice_slash	9	practice_slash	1	stimuli_distractor_diamondtriangles.svg	stimuli_target_trianglecircles.svg	9	yes	53	1	912
6.6.1	win	2022-12-30	08:41:56	08:49:31	453134	6131801c70f5f49c3bdf7010	669028162	1	practice_slash	9	advance_on_keypress_SLASH	2	stimuli_distractor_diamondtriangles.svg	stimuli_target_trianglecircles.svg	9	yes	57	0	879
6.6.1	win	2022-12-30	08:41:56	08:49:34	456661	6131801c70f5f49c3bdf7010	669028162	1	practice_slash	9	practice_slash	3	stimuli_distractor_trianglediamonds.svg	stimuli_distractor_trianglediamonds.svg	15	no	53	0	991
6.6.1	win	2022-12-30	08:41:56	08:49:34	456661	6131801c70f5f49c3bdf7010	669028162	1	practice_slash	9	advance_on_keypress_SLASH	4	stimuli_distractor_trianglediamonds.svg	stimuli_distractor_trianglediamonds.svg	15	no	57	0	666
6.6.1	win	2022-12-30	08:41:56	08:49:37	459411	6131801c70f5f49c3bdf7010	669028162	1	practice_slash	9	practice_slash	5	stimuli_distractor_trianglediamonds.svg	stimuli_target_circlediamonds.svg	10	yes	53	1	428
6.6.1	win	2022-12-30	08:41:56	08:49:37	459411	6131801c70f5f49c3bdf7010	669028162	1	practice_slash	9	advance_on_keypress_SLASH	6	stimuli_distractor_trianglediamonds.svg	stimuli_target_circlediamonds.svg	10	yes	57	0	601
6.6.1	win	2022-12-30	08:41:56	08:49:41	463665	6131801c70f5f49c3bdf7010	669028162	1	practice_slash	9	practice_slash	7	stimuli_target_diamondsquares.svg	stimuli_distractor_diamondtriangles.svg	3	yes	0	0	2000
6.6.1	win	2022-12-30	08:41:56	08:49:41	463665	6131801c70f5f49c3bdf7010	669028162	1	practice_slash	9	advance_on_keypress_SLASH	8	stimuli_target_diamondsquares.svg	stimuli_distractor_diamondtriangles.svg	3	yes	57	0	636
6.6.1	win	2022-12-30	08:41:56	08:49:46	467945	6131801c70f5f49c3bdf7010	669028162	1	practice_slash	9	practice_slash	9	stimuli_target_diamondsquares.svg	stimuli_distractor_trianglediamonds.svg	6	yes	0	0	2000
6.6.1	win	2022-12-30	08:41:56	08:49:46	467945	6131801c70f5f49c3bdf7010	669028162	1	practice_slash	9	advance_on_keypress_SLASH	10	stimuli_target_diamondsquares.svg	stimuli_distractor_trianglediamonds.svg	6	yes	57	0	671
6.6.1	win	2022-12-30	08:41:56	08:49:49	471332	6131801c70f5f49c3bdf7010	669028162	1	practice_slash	9	practice_slash	11	stimuli_distractor_trianglediamonds.svg	stimuli_target_squarediamonds.svg	11	yes	53	1	1058
6.6.1	win	2022-12-30	08:41:56	08:49:49	471332	6131801c70f5f49c3bdf7010	669028162	1	practice_slash	9	advance_on_keypress_SLASH	12	stimuli_distractor_trianglediamonds.svg	stimuli_target_squarediamonds.svg	11	yes	57	0	559
6.6.1	win	2022-12-30	08:41:56	08:49:53	475555	6131801c70f5f49c3bdf7010	669028162	1	practice_slash	9	practice_slash	13	stimuli_distractor_trianglediamonds.svg	stimuli_distractor_diamondtriangles.svg	16	no	0	1	2000
6.6.1	win	2022-12-30	08:41:56	08:49:53	475555	6131801c70f5f49c3bdf7010	669028162	1	practice_slash	9	advance_on_keypress_SLASH	14	stimuli_distractor_trianglediamonds.svg	stimuli_distractor_diamondtriangles.svg	16	no	57	0	570
6.6.1	win	2022-12-30	08:41:56	08:49:56	478416	6131801c70f5f49c3bdf7010	669028162	1	practice_slash	9	practice_slash	15	stimuli_target_circlediamonds.svg	stimuli_distractor_trianglediamonds.svg	4	yes	53	1	631
6.6.1	win	2022-12-30	08:41:56	08:49:56	478416	6131801c70f5f49c3bdf7010	669028162	1	practice_slash	9	advance_on_keypress_SLASH	16	stimuli_target_circlediamonds.svg	stimuli_distractor_trianglediamonds.svg	4	yes	57	0	948
6.6.1	win	2022-12-30	08:41:56	08:49:59	481883	6131801c70f5f49c3bdf7010	669028162	1	practice_slash	9	practice_slash	17	stimuli_distractor_trianglediamonds.svg	stimuli_target_diamondcircles.svg	12	yes	53	1	868
6.6.1	win	2022-12-30	08:41:56	08:49:59	481883	6131801c70f5f49c3bdf7010	669028162	1	practice_slash	9	advance_on_keypress_SLASH	18	stimuli_distractor_trianglediamonds.svg	stimuli_target_diamondcircles.svg	12	yes	57	0	630
6.6.1	win	2022-12-30	08:41:56	08:50:02	484653	6131801c70f5f49c3bdf7010	669028162	1	practice_slash	9	practice_slash	19	stimuli_target_circlediamonds.svg	stimuli_distractor_diamondtriangles.svg	1	yes	53	1	489
6.6.1	win	2022-12-30	08:41:56	08:50:02	484653	6131801c70f5f49c3bdf7010	669028162	1	practice_slash	9	advance_on_keypress_SLASH	20	stimuli_target_circlediamonds.svg	stimuli_distractor_diamondtriangles.svg	1	yes	57	0	562
6.6.1	win	2022-12-30	08:41:56	08:50:06	488877	6131801c70f5f49c3bdf7010	669028162	1	practice_slash	9	practice_slash	21	stimuli_distractor_diamondtriangles.svg	stimuli_distractor_diamondtriangles.svg	13	no	0	1	2000
6.6.1	win	2022-12-30	08:41:56	08:50:06	488877	6131801c70f5f49c3bdf7010	669028162	1	practice_slash	9	advance_on_keypress_SLASH	22	stimuli_distractor_diamondtriangles.svg	stimuli_distractor_diamondtriangles.svg	13	no	57	0	685
6.6.1	win	2022-12-30	08:41:56	08:50:11	493207	6131801c70f5f49c3bdf7010	669028162	1	practice_slash	9	practice_slash	23	stimuli_distractor_diamondtriangles.svg	stimuli_distractor_trianglediamonds.svg	14	no	0	1	2000
6.6.1	win	2022-12-30	08:41:56	08:50:11	493207	6131801c70f5f49c3bdf7010	669028162	1	practice_slash	9	advance_on_keypress_SLASH	24	stimuli_distractor_diamondtriangles.svg	stimuli_distractor_trianglediamonds.svg	14	no	57	0	1254
6.6.1	win	2022-12-30	08:41:56	08:50:14	496807	6131801c70f5f49c3bdf7010	669028162	1	practice_slash	9	practice_slash	25	stimuli_distractor_diamondtriangles.svg	stimuli_target_circletriangles.svg	7	yes	53	1	687
6.6.1	win	2022-12-30	08:41:56	08:50:14	496807	6131801c70f5f49c3bdf7010	669028162	1	practice_slash	9	advance_on_keypress_SLASH	26	stimuli_distractor_diamondtriangles.svg	stimuli_target_circletriangles.svg	7	yes	57	0	1884
6.6.1	win	2022-12-30	08:41:56	08:50:18	500864	6131801c70f5f49c3bdf7010	669028162	1	practice_slash	9	practice_slash	27	stimuli_target_squarediamonds.svg	stimuli_distractor_diamondtriangles.svg	2	yes	53	1	530
6.6.1	win	2022-12-30	08:41:56	08:50:18	500864	6131801c70f5f49c3bdf7010	669028162	1	practice_slash	9	advance_on_keypress_SLASH	28	stimuli_target_squarediamonds.svg	stimuli_distractor_diamondtriangles.svg	2	yes	57	0	745
6.6.1	win	2022-12-30	08:41:56	08:50:22	504703	6131801c70f5f49c3bdf7010	669028162	1	practice_slash	9	practice_slash	29	stimuli_distractor_diamondtriangles.svg	stimuli_target_diamondcircles.svg	8	yes	53	1	1439
6.6.1	win	2022-12-30	08:41:56	08:50:22	504703	6131801c70f5f49c3bdf7010	669028162	1	practice_slash	9	advance_on_keypress_SLASH	30	stimuli_distractor_diamondtriangles.svg	stimuli_target_diamondcircles.svg	8	yes	57	0	562
6.6.1	win	2022-12-30	08:41:56	08:50:25	507576	6131801c70f5f49c3bdf7010	669028162	1	practice_slash	9	practice_slash	31	stimuli_target_squarediamonds.svg	stimuli_distractor_trianglediamonds.svg	5	yes	53	1	650
6.6.1	win	2022-12-30	08:41:56	08:50:25	507576	6131801c70f5f49c3bdf7010	669028162	1	practice_slash	9	advance_on_keypress_SLASH	32	stimuli_target_squarediamonds.svg	stimuli_distractor_trianglediamonds.svg	5	yes	57	0	708
6.6.1	win	2022-12-30	08:41:56	08:50:29	511222	6131801c70f5f49c3bdf7010	669028162	1	main_slash	11	main_slash	1	stimuli_distractor_diamondtriangles.svg	stimuli_target_circlediamonds.svg	14	yes	53	1	452
6.6.1	win	2022-12-30	08:41:56	08:50:29	511222	6131801c70f5f49c3bdf7010	669028162	1	main_slash	11	advance_on_keypress_SLASH	2	stimuli_distractor_diamondtriangles.svg	stimuli_target_circlediamonds.svg	14	yes	57	0	1168
6.6.1	win	2022-12-30	08:41:56	08:50:33	515035	6131801c70f5f49c3bdf7010	669028162	1	main_slash	11	main_slash	3	stimuli_target_trianglecircles.svg	stimuli_distractor_trianglediamonds.svg	17	yes	0	0	2000
6.6.1	win	2022-12-30	08:41:56	08:50:33	515035	6131801c70f5f49c3bdf7010	669028162	1	main_slash	11	advance_on_keypress_SLASH	4	stimuli_target_trianglecircles.svg	stimuli_distractor_trianglediamonds.svg	17	yes	57	0	2921
6.6.1	win	2022-12-30	08:41:56	08:50:38	520597	6131801c70f5f49c3bdf7010	669028162	1	main_slash	11	main_slash	5	stimuli_distractor_diamondtriangles.svg	stimuli_distractor_trianglediamonds.svg	37	no	0	1	2000
6.6.1	win	2022-12-30	08:41:56	08:50:38	520597	6131801c70f5f49c3bdf7010	669028162	1	main_slash	11	advance_on_keypress_SLASH	6	stimuli_distractor_diamondtriangles.svg	stimuli_distractor_trianglediamonds.svg	37	no	57	0	604
6.6.1	win	2022-12-30	08:41:56	08:50:40	522523	6131801c70f5f49c3bdf7010	669028162	1	main_slash	11	main_slash	7	stimuli_distractor_trianglediamonds.svg	stimuli_target_diamondcircles.svg	27	yes	53	1	679
6.6.1	win	2022-12-30	08:41:56	08:50:40	522523	6131801c70f5f49c3bdf7010	669028162	1	main_slash	11	advance_on_keypress_SLASH	8	stimuli_distractor_trianglediamonds.svg	stimuli_target_diamondcircles.svg	27	yes	57	0	609
6.6.1	win	2022-12-30	08:41:56	08:50:42	524408	6131801c70f5f49c3bdf7010	669028162	1	main_slash	11	main_slash	9	stimuli_distractor_diamondtriangles.svg	stimuli_target_trianglesquares.svg	30	yes	53	1	614
6.6.1	win	2022-12-30	08:41:56	08:50:42	524408	6131801c70f5f49c3bdf7010	669028162	1	main_slash	11	advance_on_keypress_SLASH	10	stimuli_distractor_diamondtriangles.svg	stimuli_target_trianglesquares.svg	30	yes	57	0	606
6.6.1	win	2022-12-30	08:41:56	08:50:44	526117	6131801c70f5f49c3bdf7010	669028162	1	main_slash	11	main_slash	11	stimuli_target_trianglecircles.svg	stimuli_distractor_diamondtriangles.svg	21	yes	53	1	459
6.6.1	win	2022-12-30	08:41:56	08:50:44	526117	6131801c70f5f49c3bdf7010	669028162	1	main_slash	11	advance_on_keypress_SLASH	12	stimuli_target_trianglecircles.svg	stimuli_distractor_diamondtriangles.svg	21	yes	57	0	571
6.6.1	win	2022-12-30	08:41:56	08:50:46	527907	6131801c70f5f49c3bdf7010	669028162	1	main_slash	11	main_slash	13	stimuli_distractor_trianglediamonds.svg	stimuli_target_circletriangles.svg	9	yes	53	1	584
6.6.1	win	2022-12-30	08:41:56	08:50:46	527907	6131801c70f5f49c3bdf7010	669028162	1	main_slash	11	advance_on_keypress_SLASH	14	stimuli_distractor_trianglediamonds.svg	stimuli_target_circletriangles.svg	9	yes	57	0	1140
6.6.1	win	2022-12-30	08:41:56	08:50:49	531255	6131801c70f5f49c3bdf7010	669028162	1	main_slash	11	main_slash	15	stimuli_distractor_trianglediamonds.svg	stimuli_target_diamondsquares.svg	28	yes	53	1	1566
6.6.1	win	2022-12-30	08:41:56	08:50:49	531255	6131801c70f5f49c3bdf7010	669028162	1	main_slash	11	advance_on_keypress_SLASH	16	stimuli_distractor_trianglediamonds.svg	stimuli_target_diamondsquares.svg	28	yes	57	0	412
6.6.1	win	2022-12-30	08:41:56	08:50:50	532854	6131801c70f5f49c3bdf7010	669028162	1	main_slash	11	main_slash	17	stimuli_target_circletriangles.svg	stimuli_distractor_diamondtriangles.svg	5	yes	53	1	535
6.6.1	win	2022-12-30	08:41:56	08:50:50	532854	6131801c70f5f49c3bdf7010	669028162	1	main_slash	11	advance_on_keypress_SLASH	18	stimuli_target_circletriangles.svg	stimuli_distractor_diamondtriangles.svg	5	yes	57	0	650
6.6.1	win	2022-12-30	08:41:56	08:50:54	536151	6131801c70f5f49c3bdf7010	669028162	1	main_slash	11	main_slash	19	stimuli_distractor_diamondtriangles.svg	stimuli_distractor_diamondtriangles.svg	40	no	0	1	2000
6.6.1	win	2022-12-30	08:41:56	08:50:54	536151	6131801c70f5f49c3bdf7010	669028162	1	main_slash	11	advance_on_keypress_SLASH	20	stimuli_distractor_diamondtriangles.svg	stimuli_distractor_diamondtriangles.svg	40	no	57	0	728
6.6.1	win	2022-12-30	08:41:56	08:50:56	538026	6131801c70f5f49c3bdf7010	669028162	1	main_slash	11	main_slash	21	stimuli_target_squarediamonds.svg	stimuli_distractor_diamondtriangles.svg	8	yes	53	1	494
6.6.1	win	2022-12-30	08:41:56	08:50:56	538026	6131801c70f5f49c3bdf7010	669028162	1	main_slash	11	advance_on_keypress_SLASH	22	stimuli_target_squarediamonds.svg	stimuli_distractor_diamondtriangles.svg	8	yes	57	0	566
6.6.1	win	2022-12-30	08:41:56	08:50:58	539985	6131801c70f5f49c3bdf7010	669028162	1	main_slash	11	main_slash	23	stimuli_distractor_diamondtriangles.svg	stimuli_target_diamondsquares.svg	32	yes	53	1	738
6.6.1	win	2022-12-30	08:41:56	08:50:58	539985	6131801c70f5f49c3bdf7010	669028162	1	main_slash	11	advance_on_keypress_SLASH	24	stimuli_distractor_diamondtriangles.svg	stimuli_target_diamondsquares.svg	32	yes	57	0	481
6.6.1	win	2022-12-30	08:41:56	08:51:01	543112	6131801c70f5f49c3bdf7010	669028162	1	main_slash	11	main_slash	25	stimuli_target_circlediamonds.svg	stimuli_distractor_diamondtriangles.svg	6	yes	0	0	2000
6.6.1	win	2022-12-30	08:41:56	08:51:01	543112	6131801c70f5f49c3bdf7010	669028162	1	main_slash	11	advance_on_keypress_SLASH	26	stimuli_target_circlediamonds.svg	stimuli_distractor_diamondtriangles.svg	6	yes	57	0	1351
6.6.1	win	2022-12-30	08:41:56	08:51:05	547109	6131801c70f5f49c3bdf7010	669028162	1	main_slash	11	main_slash	27	stimuli_target_diamondsquares.svg	stimuli_distractor_diamondtriangles.svg	24	yes	0	0	2000
6.6.1	win	2022-12-30	08:41:56	08:51:05	547109	6131801c70f5f49c3bdf7010	669028162	1	main_slash	11	advance_on_keypress_SLASH	28	stimuli_target_diamondsquares.svg	stimuli_distractor_diamondtriangles.svg	24	yes	57	0	529
6.6.1	win	2022-12-30	08:41:56	08:51:08	550289	6131801c70f5f49c3bdf7010	669028162	1	main_slash	11	main_slash	29	stimuli_distractor_diamondtriangles.svg	stimuli_target_circletriangles.svg	13	yes	0	0	2000
6.6.1	win	2022-12-30	08:41:56	08:51:08	550289	6131801c70f5f49c3bdf7010	669028162	1	main_slash	11	advance_on_keypress_SLASH	30	stimuli_distractor_diamondtriangles.svg	stimuli_target_circletriangles.svg	13	yes	57	0	1127
6.6.1	win	2022-12-30	08:41:56	08:51:12	554070	6131801c70f5f49c3bdf7010	669028162	1	main_slash	11	main_slash	31	stimuli_target_diamondsquares.svg	stimuli_distractor_trianglediamonds.svg	20	yes	0	0	2000
6.6.1	win	2022-12-30	08:41:56	08:51:12	554070	6131801c70f5f49c3bdf7010	669028162	1	main_slash	11	advance_on_keypress_SLASH	32	stimuli_target_diamondsquares.svg	stimuli_distractor_trianglediamonds.svg	20	yes	57	0	803
6.6.1	win	2022-12-30	08:41:56	08:51:14	556048	6131801c70f5f49c3bdf7010	669028162	1	main_slash	11	main_slash	33	stimuli_target_circletriangles.svg	stimuli_distractor_trianglediamonds.svg	1	yes	53	1	531
6.6.1	win	2022-12-30	08:41:56	08:51:14	556048	6131801c70f5f49c3bdf7010	669028162	1	main_slash	11	advance_on_keypress_SLASH	34	stimuli_target_circletriangles.svg	stimuli_distractor_trianglediamonds.svg	1	yes	57	0	1132
6.6.1	win	2022-12-30	08:41:56	08:51:16	558296	6131801c70f5f49c3bdf7010	669028162	1	main_slash	11	main_slash	35	stimuli_distractor_trianglediamonds.svg	stimuli_target_squarediamonds.svg	12	yes	53	1	464
6.6.1	win	2022-12-30	08:41:56	08:51:16	558296	6131801c70f5f49c3bdf7010	669028162	1	main_slash	11	advance_on_keypress_SLASH	36	stimuli_distractor_trianglediamonds.svg	stimuli_target_squarediamonds.svg	12	yes	57	0	539
6.6.1	win	2022-12-30	08:41:56	08:51:18	559914	6131801c70f5f49c3bdf7010	669028162	1	main_slash	11	main_slash	37	stimuli_distractor_diamondtriangles.svg	stimuli_target_squaretriangles.svg	15	yes	53	1	434
6.6.1	win	2022-12-30	08:41:56	08:51:18	559914	6131801c70f5f49c3bdf7010	669028162	1	main_slash	11	advance_on_keypress_SLASH	38	stimuli_distractor_diamondtriangles.svg	stimuli_target_squaretriangles.svg	15	yes	57	0	501
6.6.1	win	2022-12-30	08:41:56	08:51:19	561630	6131801c70f5f49c3bdf7010	669028162	1	main_slash	11	main_slash	39	stimuli_target_diamondcircles.svg	stimuli_distractor_trianglediamonds.svg	19	yes	53	1	568
6.6.1	win	2022-12-30	08:41:56	08:51:19	561630	6131801c70f5f49c3bdf7010	669028162	1	main_slash	11	advance_on_keypress_SLASH	40	stimuli_target_diamondcircles.svg	stimuli_distractor_trianglediamonds.svg	19	yes	57	0	448
6.6.1	win	2022-12-30	08:41:56	08:51:22	564728	6131801c70f5f49c3bdf7010	669028162	1	main_slash	11	main_slash	41	stimuli_distractor_trianglediamonds.svg	stimuli_distractor_trianglediamonds.svg	34	no	0	1	2000
6.6.1	win	2022-12-30	08:41:56	08:51:22	564728	6131801c70f5f49c3bdf7010	669028162	1	main_slash	11	advance_on_keypress_SLASH	42	stimuli_distractor_trianglediamonds.svg	stimuli_distractor_trianglediamonds.svg	34	no	57	0	467
6.6.1	win	2022-12-30	08:41:56	08:51:24	566135	6131801c70f5f49c3bdf7010	669028162	1	main_slash	11	main_slash	43	stimuli_distractor_trianglediamonds.svg	stimuli_distractor_trianglediamonds.svg	33	no	53	0	293
6.6.1	win	2022-12-30	08:41:56	08:51:24	566135	6131801c70f5f49c3bdf7010	669028162	1	main_slash	11	advance_on_keypress_SLASH	44	stimuli_distractor_trianglediamonds.svg	stimuli_distractor_trianglediamonds.svg	33	no	57	0	651
6.6.1	win	2022-12-30	08:41:56	08:51:27	569440	6131801c70f5f49c3bdf7010	669028162	1	main_slash	11	main_slash	45	stimuli_distractor_trianglediamonds.svg	stimuli_distractor_diamondtriangles.svg	36	no	0	1	2000
6.6.1	win	2022-12-30	08:41:56	08:51:27	569440	6131801c70f5f49c3bdf7010	669028162	1	main_slash	11	advance_on_keypress_SLASH	46	stimuli_distractor_trianglediamonds.svg	stimuli_distractor_diamondtriangles.svg	36	no	57	0	427
6.6.1	win	2022-12-30	08:41:56	08:51:29	571244	6131801c70f5f49c3bdf7010	669028162	1	main_slash	11	main_slash	47	stimuli_distractor_trianglediamonds.svg	stimuli_target_trianglecircles.svg	25	yes	53	1	723
6.6.1	win	2022-12-30	08:41:56	08:51:29	571244	6131801c70f5f49c3bdf7010	669028162	1	main_slash	11	advance_on_keypress_SLASH	48	stimuli_distractor_trianglediamonds.svg	stimuli_target_trianglecircles.svg	25	yes	57	0	623
6.6.1	win	2022-12-30	08:41:56	08:51:31	573074	6131801c70f5f49c3bdf7010	669028162	1	main_slash	11	main_slash	49	stimuli_target_squaretriangles.svg	stimuli_distractor_trianglediamonds.svg	3	yes	53	1	571
6.6.1	win	2022-12-30	08:41:56	08:51:31	573074	6131801c70f5f49c3bdf7010	669028162	1	main_slash	11	advance_on_keypress_SLASH	50	stimuli_target_squaretriangles.svg	stimuli_distractor_trianglediamonds.svg	3	yes	57	0	496
6.6.1	win	2022-12-30	08:41:56	08:51:32	574868	6131801c70f5f49c3bdf7010	669028162	1	main_slash	11	main_slash	51	stimuli_distractor_diamondtriangles.svg	stimuli_target_diamondcircles.svg	31	yes	53	1	650
6.6.1	win	2022-12-30	08:41:56	08:51:32	574868	6131801c70f5f49c3bdf7010	669028162	1	main_slash	11	advance_on_keypress_SLASH	52	stimuli_distractor_diamondtriangles.svg	stimuli_target_diamondcircles.svg	31	yes	57	0	1005
6.6.1	win	2022-12-30	08:41:56	08:51:35	577286	6131801c70f5f49c3bdf7010	669028162	1	main_slash	11	main_slash	53	stimuli_distractor_trianglediamonds.svg	stimuli_target_squaretriangles.svg	11	yes	53	1	770
6.6.1	win	2022-12-30	08:41:56	08:51:35	577286	6131801c70f5f49c3bdf7010	669028162	1	main_slash	11	advance_on_keypress_SLASH	54	stimuli_distractor_trianglediamonds.svg	stimuli_target_squaretriangles.svg	11	yes	57	0	445
6.6.1	win	2022-12-30	08:41:56	08:51:37	579206	6131801c70f5f49c3bdf7010	669028162	1	main_slash	11	main_slash	55	stimuli_target_trianglesquares.svg	stimuli_distractor_trianglediamonds.svg	18	yes	53	1	825
6.6.1	win	2022-12-30	08:41:56	08:51:37	579206	6131801c70f5f49c3bdf7010	669028162	1	main_slash	11	advance_on_keypress_SLASH	56	stimuli_target_trianglesquares.svg	stimuli_distractor_trianglediamonds.svg	18	yes	57	0	505
6.6.1	win	2022-12-30	08:41:56	08:51:40	582346	6131801c70f5f49c3bdf7010	669028162	1	main_slash	11	main_slash	57	stimuli_distractor_trianglediamonds.svg	stimuli_distractor_diamondtriangles.svg	35	no	0	1	2000
6.6.1	win	2022-12-30	08:41:56	08:51:40	582346	6131801c70f5f49c3bdf7010	669028162	1	main_slash	11	advance_on_keypress_SLASH	58	stimuli_distractor_trianglediamonds.svg	stimuli_distractor_diamondtriangles.svg	35	no	57	0	464
6.6.1	win	2022-12-30	08:41:56	08:51:43	585461	6131801c70f5f49c3bdf7010	669028162	1	main_slash	11	main_slash	59	stimuli_distractor_diamondtriangles.svg	stimuli_distractor_trianglediamonds.svg	38	no	0	1	2000
6.6.1	win	2022-12-30	08:41:56	08:51:43	585461	6131801c70f5f49c3bdf7010	669028162	1	main_slash	11	advance_on_keypress_SLASH	60	stimuli_distractor_diamondtriangles.svg	stimuli_distractor_trianglediamonds.svg	38	no	57	0	615
6.6.1	win	2022-12-30	08:41:56	08:51:45	587120	6131801c70f5f49c3bdf7010	669028162	1	main_slash	11	main_slash	61	stimuli_target_circlediamonds.svg	stimuli_distractor_trianglediamonds.svg	2	yes	53	1	395
6.6.1	win	2022-12-30	08:41:56	08:51:45	587120	6131801c70f5f49c3bdf7010	669028162	1	main_slash	11	advance_on_keypress_SLASH	62	stimuli_target_circlediamonds.svg	stimuli_distractor_trianglediamonds.svg	2	yes	57	0	473
6.6.1	win	2022-12-30	08:41:56	08:51:46	588592	6131801c70f5f49c3bdf7010	669028162	1	main_slash	11	main_slash	63	stimuli_distractor_trianglediamonds.svg	stimuli_target_circlediamonds.svg	10	yes	53	1	352
6.6.1	win	2022-12-30	08:41:56	08:51:46	588592	6131801c70f5f49c3bdf7010	669028162	1	main_slash	11	advance_on_keypress_SLASH	64	stimuli_distractor_trianglediamonds.svg	stimuli_target_circlediamonds.svg	10	yes	57	0	475
6.6.1	win	2022-12-30	08:41:56	08:51:48	590044	6131801c70f5f49c3bdf7010	669028162	1	main_slash	11	main_slash	65	stimuli_target_squarediamonds.svg	stimuli_distractor_trianglediamonds.svg	4	yes	53	1	338
6.6.1	win	2022-12-30	08:41:56	08:51:48	590044	6131801c70f5f49c3bdf7010	669028162	1	main_slash	11	advance_on_keypress_SLASH	66	stimuli_target_squarediamonds.svg	stimuli_distractor_trianglediamonds.svg	4	yes	57	0	367
6.6.1	win	2022-12-30	08:41:56	08:51:49	591397	6131801c70f5f49c3bdf7010	669028162	1	main_slash	11	main_slash	67	stimuli_distractor_trianglediamonds.svg	stimuli_target_trianglesquares.svg	26	yes	53	1	343
6.6.1	win	2022-12-30	08:41:56	08:51:49	591397	6131801c70f5f49c3bdf7010	669028162	1	main_slash	11	advance_on_keypress_SLASH	68	stimuli_distractor_trianglediamonds.svg	stimuli_target_trianglesquares.svg	26	yes	57	0	888
6.6.1	win	2022-12-30	08:41:56	08:51:51	593486	6131801c70f5f49c3bdf7010	669028162	1	main_slash	11	main_slash	69	stimuli_target_diamondcircles.svg	stimuli_distractor_diamondtriangles.svg	23	yes	53	1	533
6.6.1	win	2022-12-30	08:41:56	08:51:51	593486	6131801c70f5f49c3bdf7010	669028162	1	main_slash	11	advance_on_keypress_SLASH	70	stimuli_target_diamondcircles.svg	stimuli_distractor_diamondtriangles.svg	23	yes	57	0	396
6.6.1	win	2022-12-30	08:41:56	08:51:53	595090	6131801c70f5f49c3bdf7010	669028162	1	main_slash	11	main_slash	71	stimuli_distractor_diamondtriangles.svg	stimuli_target_squarediamonds.svg	16	yes	53	1	555
6.6.1	win	2022-12-30	08:41:56	08:51:53	595090	6131801c70f5f49c3bdf7010	669028162	1	main_slash	11	advance_on_keypress_SLASH	72	stimuli_distractor_diamondtriangles.svg	stimuli_target_squarediamonds.svg	16	yes	57	0	367
6.6.1	win	2022-12-30	08:41:56	08:51:56	598100	6131801c70f5f49c3bdf7010	669028162	1	main_slash	11	main_slash	73	stimuli_distractor_diamondtriangles.svg	stimuli_target_trianglecircles.svg	29	yes	0	0	2000
6.6.1	win	2022-12-30	08:41:56	08:51:56	598100	6131801c70f5f49c3bdf7010	669028162	1	main_slash	11	advance_on_keypress_SLASH	74	stimuli_distractor_diamondtriangles.svg	stimuli_target_trianglecircles.svg	29	yes	57	0	427
6.6.1	win	2022-12-30	08:41:56	08:51:59	601181	6131801c70f5f49c3bdf7010	669028162	1	main_slash	11	main_slash	75	stimuli_distractor_diamondtriangles.svg	stimuli_distractor_diamondtriangles.svg	39	no	0	1	2000
6.6.1	win	2022-12-30	08:41:56	08:51:59	601181	6131801c70f5f49c3bdf7010	669028162	1	main_slash	11	advance_on_keypress_SLASH	76	stimuli_distractor_diamondtriangles.svg	stimuli_distractor_diamondtriangles.svg	39	no	57	0	327
6.6.1	win	2022-12-30	08:41:56	08:52:00	602583	6131801c70f5f49c3bdf7010	669028162	1	main_slash	11	main_slash	77	stimuli_target_trianglesquares.svg	stimuli_distractor_diamondtriangles.svg	22	yes	53	1	438
6.6.1	win	2022-12-30	08:41:56	08:52:00	602583	6131801c70f5f49c3bdf7010	669028162	1	main_slash	11	advance_on_keypress_SLASH	78	stimuli_target_trianglesquares.svg	stimuli_distractor_diamondtriangles.svg	22	yes	57	0	644
6.6.1	win	2022-12-30	08:41:56	08:52:03	605861	6131801c70f5f49c3bdf7010	669028162	1	main_slash	11	main_slash	79	stimuli_target_squaretriangles.svg	stimuli_distractor_diamondtriangles.svg	7	yes	0	0	2000
6.6.1	win	2022-12-30	08:41:56	08:52:03	605861	6131801c70f5f49c3bdf7010	669028162	1	main_slash	11	advance_on_keypress_SLASH	80	stimuli_target_squaretriangles.svg	stimuli_distractor_diamondtriangles.svg	7	yes	57	0	708
6.6.1	win	2022-12-30	08:41:56	08:52:05	607659	6131801c70f5f49c3bdf7010	669028162	1	main_slash	11	main_slash	81	stimuli_distractor_trianglediamonds.svg	stimuli_target_circlediamonds.svg	10	yes	53	1	435
6.6.1	win	2022-12-30	08:41:56	08:52:05	607659	6131801c70f5f49c3bdf7010	669028162	1	main_slash	11	advance_on_keypress_SLASH	82	stimuli_distractor_trianglediamonds.svg	stimuli_target_circlediamonds.svg	10	yes	57	0	428
6.6.1	win	2022-12-30	08:41:56	08:52:07	609212	6131801c70f5f49c3bdf7010	669028162	1	main_slash	11	main_slash	83	stimuli_target_circlediamonds.svg	stimuli_distractor_trianglediamonds.svg	2	yes	53	1	472
6.6.1	win	2022-12-30	08:41:56	08:52:07	609212	6131801c70f5f49c3bdf7010	669028162	1	main_slash	11	advance_on_keypress_SLASH	84	stimuli_target_circlediamonds.svg	stimuli_distractor_trianglediamonds.svg	2	yes	57	0	433
6.6.1	win	2022-12-30	08:41:56	08:52:08	610608	6131801c70f5f49c3bdf7010	669028162	1	main_slash	11	main_slash	85	stimuli_distractor_diamondtriangles.svg	stimuli_distractor_trianglediamonds.svg	37	no	53	0	320
6.6.1	win	2022-12-30	08:41:56	08:52:08	610608	6131801c70f5f49c3bdf7010	669028162	1	main_slash	11	advance_on_keypress_SLASH	86	stimuli_distractor_diamondtriangles.svg	stimuli_distractor_trianglediamonds.svg	37	no	57	0	1369
6.6.1	win	2022-12-30	08:41:56	08:52:11	613262	6131801c70f5f49c3bdf7010	669028162	1	main_slash	11	main_slash	87	stimuli_distractor_diamondtriangles.svg	stimuli_distractor_trianglediamonds.svg	38	no	53	0	642
6.6.1	win	2022-12-30	08:41:56	08:52:11	613262	6131801c70f5f49c3bdf7010	669028162	1	main_slash	11	advance_on_keypress_SLASH	88	stimuli_distractor_diamondtriangles.svg	stimuli_distractor_trianglediamonds.svg	38	no	57	0	615
6.6.1	win	2022-12-30	08:41:56	08:52:13	615158	6131801c70f5f49c3bdf7010	669028162	1	main_slash	11	main_slash	89	stimuli_distractor_diamondtriangles.svg	stimuli_target_trianglecircles.svg	29	yes	53	1	623
6.6.1	win	2022-12-30	08:41:56	08:52:13	615158	6131801c70f5f49c3bdf7010	669028162	1	main_slash	11	advance_on_keypress_SLASH	90	stimuli_distractor_diamondtriangles.svg	stimuli_target_trianglecircles.svg	29	yes	57	0	437
6.6.1	win	2022-12-30	08:41:56	08:52:14	616707	6131801c70f5f49c3bdf7010	669028162	1	main_slash	11	main_slash	91	stimuli_target_circletriangles.svg	stimuli_distractor_trianglediamonds.svg	1	yes	53	1	457
6.6.1	win	2022-12-30	08:41:56	08:52:14	616707	6131801c70f5f49c3bdf7010	669028162	1	main_slash	11	advance_on_keypress_SLASH	92	stimuli_target_circletriangles.svg	stimuli_distractor_trianglediamonds.svg	1	yes	57	0	392
6.6.1	win	2022-12-30	08:41:56	08:52:16	618107	6131801c70f5f49c3bdf7010	669028162	1	main_slash	11	main_slash	93	stimuli_distractor_trianglediamonds.svg	stimuli_target_diamondcircles.svg	27	yes	53	1	340
6.6.1	win	2022-12-30	08:41:56	08:52:16	618107	6131801c70f5f49c3bdf7010	669028162	1	main_slash	11	advance_on_keypress_SLASH	94	stimuli_distractor_trianglediamonds.svg	stimuli_target_diamondcircles.svg	27	yes	57	0	436
6.6.1	win	2022-12-30	08:41:56	08:52:17	619600	6131801c70f5f49c3bdf7010	669028162	1	main_slash	11	main_slash	95	stimuli_target_circletriangles.svg	stimuli_distractor_diamondtriangles.svg	5	yes	53	1	402
6.6.1	win	2022-12-30	08:41:56	08:52:17	619600	6131801c70f5f49c3bdf7010	669028162	1	main_slash	11	advance_on_keypress_SLASH	96	stimuli_target_circletriangles.svg	stimuli_distractor_diamondtriangles.svg	5	yes	57	0	409
6.6.1	win	2022-12-30	08:41:56	08:52:19	620963	6131801c70f5f49c3bdf7010	669028162	1	main_slash	11	main_slash	97	stimuli_distractor_diamondtriangles.svg	stimuli_target_squaretriangles.svg	15	yes	53	1	300
6.6.1	win	2022-12-30	08:41:56	08:52:19	620963	6131801c70f5f49c3bdf7010	669028162	1	main_slash	11	advance_on_keypress_SLASH	98	stimuli_distractor_diamondtriangles.svg	stimuli_target_squaretriangles.svg	15	yes	57	0	401
6.6.1	win	2022-12-30	08:41:56	08:52:20	622270	6131801c70f5f49c3bdf7010	669028162	1	main_slash	11	main_slash	99	stimuli_target_diamondcircles.svg	stimuli_distractor_trianglediamonds.svg	19	yes	53	1	258
6.6.1	win	2022-12-30	08:41:56	08:52:20	622270	6131801c70f5f49c3bdf7010	669028162	1	main_slash	11	advance_on_keypress_SLASH	100	stimuli_target_diamondcircles.svg	stimuli_distractor_trianglediamonds.svg	19	yes	57	0	711
6.6.1	win	2022-12-30	08:41:56	08:52:22	624036	6131801c70f5f49c3bdf7010	669028162	1	main_slash	11	main_slash	101	stimuli_distractor_trianglediamonds.svg	stimuli_target_trianglecircles.svg	25	yes	53	1	392
6.6.1	win	2022-12-30	08:41:56	08:52:22	624036	6131801c70f5f49c3bdf7010	669028162	1	main_slash	11	advance_on_keypress_SLASH	102	stimuli_distractor_trianglediamonds.svg	stimuli_target_trianglecircles.svg	25	yes	57	0	384
6.6.1	win	2022-12-30	08:41:56	08:52:23	625540	6131801c70f5f49c3bdf7010	669028162	1	main_slash	11	main_slash	103	stimuli_distractor_diamondtriangles.svg	stimuli_target_squarediamonds.svg	16	yes	53	1	464
6.6.1	win	2022-12-30	08:41:56	08:52:23	625540	6131801c70f5f49c3bdf7010	669028162	1	main_slash	11	advance_on_keypress_SLASH	104	stimuli_distractor_diamondtriangles.svg	stimuli_target_squarediamonds.svg	16	yes	57	0	663
6.6.1	win	2022-12-30	08:41:56	08:52:25	627203	6131801c70f5f49c3bdf7010	669028162	1	main_slash	11	main_slash	105	stimuli_distractor_diamondtriangles.svg	stimuli_target_circletriangles.svg	13	yes	53	1	345
6.6.1	win	2022-12-30	08:41:56	08:52:25	627203	6131801c70f5f49c3bdf7010	669028162	1	main_slash	11	advance_on_keypress_SLASH	106	stimuli_distractor_diamondtriangles.svg	stimuli_target_circletriangles.svg	13	yes	57	0	367
6.6.1	win	2022-12-30	08:41:56	08:52:26	628496	6131801c70f5f49c3bdf7010	669028162	1	main_slash	11	main_slash	107	stimuli_distractor_trianglediamonds.svg	stimuli_distractor_trianglediamonds.svg	34	no	53	0	272
6.6.1	win	2022-12-30	08:41:56	08:52:26	628496	6131801c70f5f49c3bdf7010	669028162	1	main_slash	11	advance_on_keypress_SLASH	108	stimuli_distractor_trianglediamonds.svg	stimuli_distractor_trianglediamonds.svg	34	no	57	0	1074
6.6.1	win	2022-12-30	08:41:56	08:52:29	631663	6131801c70f5f49c3bdf7010	669028162	1	main_slash	11	main_slash	109	stimuli_target_trianglesquares.svg	stimuli_distractor_trianglediamonds.svg	18	yes	53	1	1424
6.6.1	win	2022-12-30	08:41:56	08:52:29	631663	6131801c70f5f49c3bdf7010	669028162	1	main_slash	11	advance_on_keypress_SLASH	110	stimuli_target_trianglesquares.svg	stimuli_distractor_trianglediamonds.svg	18	yes	57	0	589
6.6.1	win	2022-12-30	08:41:56	08:52:31	633246	6131801c70f5f49c3bdf7010	669028162	1	main_slash	11	main_slash	111	stimuli_target_diamondsquares.svg	stimuli_distractor_trianglediamonds.svg	20	yes	53	1	343
6.6.1	win	2022-12-30	08:41:56	08:52:31	633246	6131801c70f5f49c3bdf7010	669028162	1	main_slash	11	advance_on_keypress_SLASH	112	stimuli_target_diamondsquares.svg	stimuli_distractor_trianglediamonds.svg	20	yes	57	0	474
6.6.1	win	2022-12-30	08:41:56	08:52:32	634724	6131801c70f5f49c3bdf7010	669028162	1	main_slash	11	main_slash	113	stimuli_distractor_trianglediamonds.svg	stimuli_target_diamondsquares.svg	28	yes	53	1	339
6.6.1	win	2022-12-30	08:41:56	08:52:32	634724	6131801c70f5f49c3bdf7010	669028162	1	main_slash	11	advance_on_keypress_SLASH	114	stimuli_distractor_trianglediamonds.svg	stimuli_target_diamondsquares.svg	28	yes	57	0	479
6.6.1	win	2022-12-30	08:41:56	08:52:34	636291	6131801c70f5f49c3bdf7010	669028162	1	main_slash	11	main_slash	115	stimuli_distractor_diamondtriangles.svg	stimuli_target_circlediamonds.svg	14	yes	53	1	423
6.6.1	win	2022-12-30	08:41:56	08:52:34	636291	6131801c70f5f49c3bdf7010	669028162	1	main_slash	11	advance_on_keypress_SLASH	116	stimuli_distractor_diamondtriangles.svg	stimuli_target_circlediamonds.svg	14	yes	57	0	926
6.6.1	win	2022-12-30	08:41:56	08:52:36	638196	6131801c70f5f49c3bdf7010	669028162	1	main_slash	11	main_slash	117	stimuli_target_circlediamonds.svg	stimuli_distractor_diamondtriangles.svg	6	yes	53	1	331
6.6.1	win	2022-12-30	08:41:56	08:52:36	638196	6131801c70f5f49c3bdf7010	669028162	1	main_slash	11	advance_on_keypress_SLASH	118	stimuli_target_circlediamonds.svg	stimuli_distractor_diamondtriangles.svg	6	yes	57	0	389
6.6.1	win	2022-12-30	08:41:56	08:52:37	639489	6131801c70f5f49c3bdf7010	669028162	1	main_slash	11	main_slash	119	stimuli_target_diamondsquares.svg	stimuli_distractor_diamondtriangles.svg	24	yes	53	1	257
6.6.1	win	2022-12-30	08:41:56	08:52:37	639489	6131801c70f5f49c3bdf7010	669028162	1	main_slash	11	advance_on_keypress_SLASH	120	stimuli_target_diamondsquares.svg	stimuli_distractor_diamondtriangles.svg	24	yes	57	0	458
6.6.1	win	2022-12-30	08:41:56	08:52:39	640967	6131801c70f5f49c3bdf7010	669028162	1	main_slash	11	main_slash	121	stimuli_distractor_diamondtriangles.svg	stimuli_target_diamondcircles.svg	31	yes	53	1	353
6.6.1	win	2022-12-30	08:41:56	08:52:39	640967	6131801c70f5f49c3bdf7010	669028162	1	main_slash	11	advance_on_keypress_SLASH	122	stimuli_distractor_diamondtriangles.svg	stimuli_target_diamondcircles.svg	31	yes	57	0	346
6.6.1	win	2022-12-30	08:41:56	08:52:40	642315	6131801c70f5f49c3bdf7010	669028162	1	main_slash	11	main_slash	123	stimuli_distractor_trianglediamonds.svg	stimuli_target_squarediamonds.svg	12	yes	53	1	352
6.6.1	win	2022-12-30	08:41:56	08:52:40	642315	6131801c70f5f49c3bdf7010	669028162	1	main_slash	11	advance_on_keypress_SLASH	124	stimuli_distractor_trianglediamonds.svg	stimuli_target_squarediamonds.svg	12	yes	57	0	359
6.6.1	win	2022-12-30	08:41:56	08:52:41	643573	6131801c70f5f49c3bdf7010	669028162	1	main_slash	11	main_slash	125	stimuli_target_squaretriangles.svg	stimuli_distractor_trianglediamonds.svg	3	yes	53	1	245
6.6.1	win	2022-12-30	08:41:56	08:52:41	643573	6131801c70f5f49c3bdf7010	669028162	1	main_slash	11	advance_on_keypress_SLASH	126	stimuli_target_squaretriangles.svg	stimuli_distractor_trianglediamonds.svg	3	yes	57	0	390
6.6.1	win	2022-12-30	08:41:56	08:52:42	644874	6131801c70f5f49c3bdf7010	669028162	1	main_slash	11	main_slash	127	stimuli_target_trianglecircles.svg	stimuli_distractor_trianglediamonds.svg	17	yes	53	1	248
6.6.1	win	2022-12-30	08:41:56	08:52:42	644874	6131801c70f5f49c3bdf7010	669028162	1	main_slash	11	advance_on_keypress_SLASH	128	stimuli_target_trianglecircles.svg	stimuli_distractor_trianglediamonds.svg	17	yes	57	0	383
6.6.1	win	2022-12-30	08:41:56	08:52:44	646097	6131801c70f5f49c3bdf7010	669028162	1	main_slash	11	main_slash	129	stimuli_distractor_diamondtriangles.svg	stimuli_target_diamondsquares.svg	32	yes	53	1	187
6.6.1	win	2022-12-30	08:41:56	08:52:44	646097	6131801c70f5f49c3bdf7010	669028162	1	main_slash	11	advance_on_keypress_SLASH	130	stimuli_distractor_diamondtriangles.svg	stimuli_target_diamondsquares.svg	32	yes	57	0	551
6.6.1	win	2022-12-30	08:41:56	08:52:45	647541	6131801c70f5f49c3bdf7010	669028162	1	main_slash	11	main_slash	131	stimuli_distractor_trianglediamonds.svg	stimuli_target_squaretriangles.svg	11	yes	53	1	250
6.6.1	win	2022-12-30	08:41:56	08:52:45	647541	6131801c70f5f49c3bdf7010	669028162	1	main_slash	11	advance_on_keypress_SLASH	132	stimuli_distractor_trianglediamonds.svg	stimuli_target_squaretriangles.svg	11	yes	57	0	351
6.6.1	win	2022-12-30	08:41:56	08:52:46	648809	6131801c70f5f49c3bdf7010	669028162	1	main_slash	11	main_slash	133	stimuli_distractor_diamondtriangles.svg	stimuli_target_trianglesquares.svg	30	yes	53	1	269
6.6.1	win	2022-12-30	08:41:56	08:52:46	648809	6131801c70f5f49c3bdf7010	669028162	1	main_slash	11	advance_on_keypress_SLASH	134	stimuli_distractor_diamondtriangles.svg	stimuli_target_trianglesquares.svg	30	yes	57	0	352
6.6.1	win	2022-12-30	08:41:56	08:52:48	650000	6131801c70f5f49c3bdf7010	669028162	1	main_slash	11	main_slash	135	stimuli_distractor_trianglediamonds.svg	stimuli_target_trianglesquares.svg	26	yes	53	1	194
6.6.1	win	2022-12-30	08:41:56	08:52:48	650000	6131801c70f5f49c3bdf7010	669028162	1	main_slash	11	advance_on_keypress_SLASH	136	stimuli_distractor_trianglediamonds.svg	stimuli_target_trianglesquares.svg	26	yes	57	0	350
6.6.1	win	2022-12-30	08:41:56	08:52:49	651272	6131801c70f5f49c3bdf7010	669028162	1	main_slash	11	main_slash	137	stimuli_distractor_trianglediamonds.svg	stimuli_distractor_trianglediamonds.svg	33	no	53	0	267
6.6.1	win	2022-12-30	08:41:56	08:52:49	651272	6131801c70f5f49c3bdf7010	669028162	1	main_slash	11	advance_on_keypress_SLASH	138	stimuli_distractor_trianglediamonds.svg	stimuli_distractor_trianglediamonds.svg	33	no	57	0	3179
6.6.1	win	2022-12-30	08:41:56	08:52:53	655598	6131801c70f5f49c3bdf7010	669028162	1	main_slash	11	main_slash	139	stimuli_distractor_trianglediamonds.svg	stimuli_target_circletriangles.svg	9	yes	53	1	496
6.6.1	win	2022-12-30	08:41:56	08:52:53	655598	6131801c70f5f49c3bdf7010	669028162	1	main_slash	11	advance_on_keypress_SLASH	140	stimuli_distractor_trianglediamonds.svg	stimuli_target_circletriangles.svg	9	yes	57	0	494
6.6.1	win	2022-12-30	08:41:56	08:52:54	656881	6131801c70f5f49c3bdf7010	669028162	1	main_slash	11	main_slash	141	stimuli_distractor_trianglediamonds.svg	stimuli_distractor_diamondtriangles.svg	36	no	53	0	130
6.6.1	win	2022-12-30	08:41:56	08:52:54	656881	6131801c70f5f49c3bdf7010	669028162	1	main_slash	11	advance_on_keypress_SLASH	142	stimuli_distractor_trianglediamonds.svg	stimuli_distractor_diamondtriangles.svg	36	no	57	0	845
6.6.1	win	2022-12-30	08:41:56	08:52:58	660383	6131801c70f5f49c3bdf7010	669028162	1	main_slash	11	main_slash	143	stimuli_distractor_trianglediamonds.svg	stimuli_distractor_diamondtriangles.svg	35	no	0	1	2000
6.6.1	win	2022-12-30	08:41:56	08:52:58	660383	6131801c70f5f49c3bdf7010	669028162	1	main_slash	11	advance_on_keypress_SLASH	144	stimuli_distractor_trianglediamonds.svg	stimuli_distractor_diamondtriangles.svg	35	no	57	0	403
6.6.1	win	2022-12-30	08:41:56	08:52:59	661673	6131801c70f5f49c3bdf7010	669028162	1	main_slash	11	main_slash	145	stimuli_target_diamondcircles.svg	stimuli_distractor_diamondtriangles.svg	23	yes	53	1	226
6.6.1	win	2022-12-30	08:41:56	08:52:59	661673	6131801c70f5f49c3bdf7010	669028162	1	main_slash	11	advance_on_keypress_SLASH	146	stimuli_target_diamondcircles.svg	stimuli_distractor_diamondtriangles.svg	23	yes	57	0	370
6.6.1	win	2022-12-30	08:41:56	08:53:01	662980	6131801c70f5f49c3bdf7010	669028162	1	main_slash	11	main_slash	147	stimuli_target_trianglecircles.svg	stimuli_distractor_diamondtriangles.svg	21	yes	53	1	284
6.6.1	win	2022-12-30	08:41:56	08:53:01	662980	6131801c70f5f49c3bdf7010	669028162	1	main_slash	11	advance_on_keypress_SLASH	148	stimuli_target_trianglecircles.svg	stimuli_distractor_diamondtriangles.svg	21	yes	57	0	353
6.6.1	win	2022-12-30	08:41:56	08:53:02	664287	6131801c70f5f49c3bdf7010	669028162	1	main_slash	11	main_slash	149	stimuli_target_squarediamonds.svg	stimuli_distractor_diamondtriangles.svg	8	yes	53	1	309
6.6.1	win	2022-12-30	08:41:56	08:53:02	664287	6131801c70f5f49c3bdf7010	669028162	1	main_slash	11	advance_on_keypress_SLASH	150	stimuli_target_squarediamonds.svg	stimuli_distractor_diamondtriangles.svg	8	yes	57	0	832
6.6.1	win	2022-12-30	08:41:56	08:53:05	667777	6131801c70f5f49c3bdf7010	669028162	1	main_slash	11	main_slash	151	stimuli_distractor_diamondtriangles.svg	stimuli_distractor_diamondtriangles.svg	40	no	0	1	2000
6.6.1	win	2022-12-30	08:41:56	08:53:05	667777	6131801c70f5f49c3bdf7010	669028162	1	main_slash	11	advance_on_keypress_SLASH	152	stimuli_distractor_diamondtriangles.svg	stimuli_distractor_diamondtriangles.svg	40	no	57	0	356
6.6.1	win	2022-12-30	08:41:56	08:53:07	669016	6131801c70f5f49c3bdf7010	669028162	1	main_slash	11	main_slash	153	stimuli_target_trianglesquares.svg	stimuli_distractor_diamondtriangles.svg	22	yes	53	1	242
6.6.1	win	2022-12-30	08:41:56	08:53:07	669016	6131801c70f5f49c3bdf7010	669028162	1	main_slash	11	advance_on_keypress_SLASH	154	stimuli_target_trianglesquares.svg	stimuli_distractor_diamondtriangles.svg	22	yes	57	0	545
6.6.1	win	2022-12-30	08:41:56	08:53:08	670511	6131801c70f5f49c3bdf7010	669028162	1	main_slash	11	main_slash	155	stimuli_target_squaretriangles.svg	stimuli_distractor_diamondtriangles.svg	7	yes	53	1	287
6.6.1	win	2022-12-30	08:41:56	08:53:08	670511	6131801c70f5f49c3bdf7010	669028162	1	main_slash	11	advance_on_keypress_SLASH	156	stimuli_target_squaretriangles.svg	stimuli_distractor_diamondtriangles.svg	7	yes	57	0	358
6.6.1	win	2022-12-30	08:41:56	08:53:09	671791	6131801c70f5f49c3bdf7010	669028162	1	main_slash	11	main_slash	157	stimuli_distractor_diamondtriangles.svg	stimuli_distractor_diamondtriangles.svg	39	no	53	0	253
6.6.1	win	2022-12-30	08:41:56	08:53:09	671791	6131801c70f5f49c3bdf7010	669028162	1	main_slash	11	advance_on_keypress_SLASH	158	stimuli_distractor_diamondtriangles.svg	stimuli_distractor_diamondtriangles.svg	39	no	57	0	1555
6.6.1	win	2022-12-30	08:41:56	08:53:12	674621	6131801c70f5f49c3bdf7010	669028162	1	main_slash	11	main_slash	159	stimuli_target_squarediamonds.svg	stimuli_distractor_trianglediamonds.svg	4	yes	53	1	618
6.6.1	win	2022-12-30	08:41:56	08:53:12	674621	6131801c70f5f49c3bdf7010	669028162	1	main_slash	11	advance_on_keypress_SLASH	160	stimuli_target_squarediamonds.svg	stimuli_distractor_trianglediamonds.svg	4	yes	57	0	404