build	computer.platform	date	time	timestamp	time_elapsed_ms	subject	group	session	blockcode	blocknum	trialcode	trialnum	stimulus_left	stimulus_right	stim_index	target_present	response	correct	latency
6.6.1	mac	2022-12-14	13:04:30	13:06:25	113292	5f6d0c1efaad4d16c44fdd6d	192811825	1	practice_slash	5	practice_slash	1	stimuli_distractor_diamondtriangles.svg	stimuli_target_trianglecircles.svg	9	yes	0	0	2000
6.6.1	mac	2022-12-14	13:04:30	13:06:25	113292	5f6d0c1efaad4d16c44fdd6d	192811825	1	practice_slash	5	advance_on_keypress_SLASH	2	stimuli_distractor_diamondtriangles.svg	stimuli_target_trianglecircles.svg	9	yes	57	0	1247
6.6.1	mac	2022-12-14	13:04:30	13:06:30	118174	5f6d0c1efaad4d16c44fdd6d	192811825	1	practice_slash	5	practice_slash	3	stimuli_distractor_trianglediamonds.svg	stimuli_distractor_trianglediamonds.svg	15	no	0	1	2000
6.6.1	mac	2022-12-14	13:04:30	13:06:30	118174	5f6d0c1efaad4d16c44fdd6d	192811825	1	practice_slash	5	advance_on_keypress_SLASH	4	stimuli_distractor_trianglediamonds.svg	stimuli_distractor_trianglediamonds.svg	15	no	57	0	1116
6.6.1	mac	2022-12-14	13:04:30	13:06:33	121558	5f6d0c1efaad4d16c44fdd6d	192811825	1	practice_slash	5	practice_slash	5	stimuli_distractor_trianglediamonds.svg	stimuli_target_diamondcircles.svg	12	yes	53	1	633
6.6.1	mac	2022-12-14	13:04:30	13:06:33	121558	5f6d0c1efaad4d16c44fdd6d	192811825	1	practice_slash	5	advance_on_keypress_SLASH	6	stimuli_distractor_trianglediamonds.svg	stimuli_target_diamondcircles.svg	12	yes	57	0	1304
6.6.1	mac	2022-12-14	13:04:30	13:06:37	125092	5f6d0c1efaad4d16c44fdd6d	192811825	1	practice_slash	5	practice_slash	7	stimuli_distractor_diamondtriangles.svg	stimuli_target_diamondcircles.svg	8	yes	53	1	600
6.6.1	mac	2022-12-14	13:04:30	13:06:37	125092	5f6d0c1efaad4d16c44fdd6d	192811825	1	practice_slash	5	advance_on_keypress_SLASH	8	stimuli_distractor_diamondtriangles.svg	stimuli_target_diamondcircles.svg	8	yes	57	0	1083
6.6.1	mac	2022-12-14	13:04:30	13:06:40	128406	5f6d0c1efaad4d16c44fdd6d	192811825	1	practice_slash	5	practice_slash	9	stimuli_distractor_trianglediamonds.svg	stimuli_target_squarediamonds.svg	11	yes	53	1	597
6.6.1	mac	2022-12-14	13:04:30	13:06:40	128406	5f6d0c1efaad4d16c44fdd6d	192811825	1	practice_slash	5	advance_on_keypress_SLASH	10	stimuli_distractor_trianglediamonds.svg	stimuli_target_squarediamonds.svg	11	yes	57	0	811
6.6.1	mac	2022-12-14	13:04:30	13:06:43	131420	5f6d0c1efaad4d16c44fdd6d	192811825	1	practice_slash	5	practice_slash	11	stimuli_distractor_diamondtriangles.svg	stimuli_distractor_trianglediamonds.svg	14	no	53	0	561
6.6.1	mac	2022-12-14	13:04:30	13:06:43	131420	5f6d0c1efaad4d16c44fdd6d	192811825	1	practice_slash	5	advance_on_keypress_SLASH	12	stimuli_distractor_diamondtriangles.svg	stimuli_distractor_trianglediamonds.svg	14	no	57	0	671
6.6.1	mac	2022-12-14	13:04:30	13:06:46	134344	5f6d0c1efaad4d16c44fdd6d	192811825	1	practice_slash	5	practice_slash	13	stimuli_target_diamondsquares.svg	stimuli_distractor_diamondtriangles.svg	3	yes	53	1	619
6.6.1	mac	2022-12-14	13:04:30	13:06:46	134344	5f6d0c1efaad4d16c44fdd6d	192811825	1	practice_slash	5	advance_on_keypress_SLASH	14	stimuli_target_diamondsquares.svg	stimuli_distractor_diamondtriangles.svg	3	yes	57	0	403
6.6.1	mac	2022-12-14	13:04:30	13:06:49	136779	5f6d0c1efaad4d16c44fdd6d	192811825	1	practice_slash	5	practice_slash	15	stimuli_target_circlediamonds.svg	stimuli_distractor_trianglediamonds.svg	4	yes	53	1	401
6.6.1	mac	2022-12-14	13:04:30	13:06:49	136779	5f6d0c1efaad4d16c44fdd6d	192811825	1	practice_slash	5	advance_on_keypress_SLASH	16	stimuli_target_circlediamonds.svg	stimuli_distractor_trianglediamonds.svg	4	yes	57	0	305
6.6.1	mac	2022-12-14	13:04:30	13:06:51	139148	5f6d0c1efaad4d16c44fdd6d	192811825	1	practice_slash	5	practice_slash	17	stimuli_distractor_trianglediamonds.svg	stimuli_target_circlediamonds.svg	10	yes	53	1	438
6.6.1	mac	2022-12-14	13:04:30	13:06:51	139148	5f6d0c1efaad4d16c44fdd6d	192811825	1	practice_slash	5	advance_on_keypress_SLASH	18	stimuli_distractor_trianglediamonds.svg	stimuli_target_circlediamonds.svg	10	yes	57	0	425
6.6.1	mac	2022-12-14	13:04:30	13:06:55	143210	5f6d0c1efaad4d16c44fdd6d	192811825	1	practice_slash	5	practice_slash	19	stimuli_distractor_trianglediamonds.svg	stimuli_distractor_diamondtriangles.svg	16	no	0	1	2000
6.6.1	mac	2022-12-14	13:04:30	13:06:55	143210	5f6d0c1efaad4d16c44fdd6d	192811825	1	practice_slash	5	advance_on_keypress_SLASH	20	stimuli_distractor_trianglediamonds.svg	stimuli_distractor_diamondtriangles.svg	16	no	57	0	512
6.6.1	mac	2022-12-14	13:04:30	13:06:57	145747	5f6d0c1efaad4d16c44fdd6d	192811825	1	practice_slash	5	practice_slash	21	stimuli_target_squarediamonds.svg	stimuli_distractor_trianglediamonds.svg	5	yes	53	1	386
6.6.1	mac	2022-12-14	13:04:30	13:06:57	145747	5f6d0c1efaad4d16c44fdd6d	192811825	1	practice_slash	5	advance_on_keypress_SLASH	22	stimuli_target_squarediamonds.svg	stimuli_distractor_trianglediamonds.svg	5	yes	57	0	499
6.6.1	mac	2022-12-14	13:04:30	13:07:00	148485	5f6d0c1efaad4d16c44fdd6d	192811825	1	practice_slash	5	practice_slash	23	stimuli_distractor_diamondtriangles.svg	stimuli_target_circletriangles.svg	7	yes	53	1	590
6.6.1	mac	2022-12-14	13:04:30	13:07:00	148485	5f6d0c1efaad4d16c44fdd6d	192811825	1	practice_slash	5	advance_on_keypress_SLASH	24	stimuli_distractor_diamondtriangles.svg	stimuli_target_circletriangles.svg	7	yes	57	0	601
6.6.1	mac	2022-12-14	13:04:30	13:07:03	151081	5f6d0c1efaad4d16c44fdd6d	192811825	1	practice_slash	5	practice_slash	25	stimuli_target_squarediamonds.svg	stimuli_distractor_diamondtriangles.svg	2	yes	53	1	368
6.6.1	mac	2022-12-14	13:04:30	13:07:03	151081	5f6d0c1efaad4d16c44fdd6d	192811825	1	practice_slash	5	advance_on_keypress_SLASH	26	stimuli_target_squarediamonds.svg	stimuli_distractor_diamondtriangles.svg	2	yes	57	0	493
6.6.1	mac	2022-12-14	13:04:30	13:07:07	155211	5f6d0c1efaad4d16c44fdd6d	192811825	1	practice_slash	5	practice_slash	27	stimuli_distractor_diamondtriangles.svg	stimuli_distractor_diamondtriangles.svg	13	no	0	1	2000
6.6.1	mac	2022-12-14	13:04:30	13:07:07	155211	5f6d0c1efaad4d16c44fdd6d	192811825	1	practice_slash	5	advance_on_keypress_SLASH	28	stimuli_distractor_diamondtriangles.svg	stimuli_distractor_diamondtriangles.svg	13	no	57	0	592
6.6.1	mac	2022-12-14	13:04:30	13:07:10	157881	5f6d0c1efaad4d16c44fdd6d	192811825	1	practice_slash	5	practice_slash	29	stimuli_target_circlediamonds.svg	stimuli_distractor_diamondtriangles.svg	1	yes	53	1	436
6.6.1	mac	2022-12-14	13:04:30	13:07:10	157881	5f6d0c1efaad4d16c44fdd6d	192811825	1	practice_slash	5	advance_on_keypress_SLASH	30	stimuli_target_circlediamonds.svg	stimuli_distractor_diamondtriangles.svg	1	yes	57	0	411
6.6.1	mac	2022-12-14	13:04:30	13:07:14	161927	5f6d0c1efaad4d16c44fdd6d	192811825	1	practice_slash	5	practice_slash	31	stimuli_target_diamondsquares.svg	stimuli_distractor_trianglediamonds.svg	6	yes	0	0	2000
6.6.1	mac	2022-12-14	13:04:30	13:07:14	161927	5f6d0c1efaad4d16c44fdd6d	192811825	1	practice_slash	5	advance_on_keypress_SLASH	32	stimuli_target_diamondsquares.svg	stimuli_distractor_trianglediamonds.svg	6	yes	57	0	450
6.6.1	mac	2022-12-14	13:04:30	13:07:21	169468	5f6d0c1efaad4d16c44fdd6d	192811825	1	main_slash	7	main_slash	1	stimuli_distractor_trianglediamonds.svg	stimuli_target_circletriangles.svg	9	yes	53	1	640
6.6.1	mac	2022-12-14	13:04:30	13:07:21	169468	5f6d0c1efaad4d16c44fdd6d	192811825	1	main_slash	7	advance_on_keypress_SLASH	2	stimuli_distractor_trianglediamonds.svg	stimuli_target_circletriangles.svg	9	yes	57	0	1553
6.6.1	mac	2022-12-14	13:04:30	13:07:24	171962	5f6d0c1efaad4d16c44fdd6d	192811825	1	main_slash	7	main_slash	3	stimuli_distractor_trianglediamonds.svg	stimuli_target_squaretriangles.svg	11	yes	53	1	317
6.6.1	mac	2022-12-14	13:04:30	13:07:24	171962	5f6d0c1efaad4d16c44fdd6d	192811825	1	main_slash	7	advance_on_keypress_SLASH	4	stimuli_distractor_trianglediamonds.svg	stimuli_target_squaretriangles.svg	11	yes	57	0	1540
6.6.1	mac	2022-12-14	13:04:30	13:07:26	174471	5f6d0c1efaad4d16c44fdd6d	192811825	1	main_slash	7	main_slash	5	stimuli_distractor_trianglediamonds.svg	stimuli_target_trianglecircles.svg	25	yes	53	1	342
6.6.1	mac	2022-12-14	13:04:30	13:07:26	174471	5f6d0c1efaad4d16c44fdd6d	192811825	1	main_slash	7	advance_on_keypress_SLASH	6	stimuli_distractor_trianglediamonds.svg	stimuli_target_trianglecircles.svg	25	yes	57	0	808
6.6.1	mac	2022-12-14	13:04:30	13:07:30	177895	5f6d0c1efaad4d16c44fdd6d	192811825	1	main_slash	7	main_slash	7	stimuli_distractor_diamondtriangles.svg	stimuli_distractor_diamondtriangles.svg	40	no	0	1	2000
6.6.1	mac	2022-12-14	13:04:30	13:07:30	177895	5f6d0c1efaad4d16c44fdd6d	192811825	1	main_slash	7	advance_on_keypress_SLASH	8	stimuli_distractor_diamondtriangles.svg	stimuli_distractor_diamondtriangles.svg	40	no	57	0	581
6.6.1	mac	2022-12-14	13:04:30	13:07:31	179383	5f6d0c1efaad4d16c44fdd6d	192811825	1	main_slash	7	main_slash	9	stimuli_target_circletriangles.svg	stimuli_distractor_diamondtriangles.svg	5	yes	53	1	270
6.6.1	mac	2022-12-14	13:04:30	13:07:31	179383	5f6d0c1efaad4d16c44fdd6d	192811825	1	main_slash	7	advance_on_keypress_SLASH	10	stimuli_target_circletriangles.svg	stimuli_distractor_diamondtriangles.svg	5	yes	57	0	2718
6.6.1	mac	2022-12-14	13:04:30	13:07:35	183116	5f6d0c1efaad4d16c44fdd6d	192811825	1	main_slash	7	main_slash	11	stimuli_target_trianglesquares.svg	stimuli_distractor_diamondtriangles.svg	22	yes	53	1	389
6.6.1	mac	2022-12-14	13:04:30	13:07:35	183116	5f6d0c1efaad4d16c44fdd6d	192811825	1	main_slash	7	advance_on_keypress_SLASH	12	stimuli_target_trianglesquares.svg	stimuli_distractor_diamondtriangles.svg	22	yes	57	0	1504
6.6.1	mac	2022-12-14	13:04:30	13:07:37	185619	5f6d0c1efaad4d16c44fdd6d	192811825	1	main_slash	7	main_slash	13	stimuli_distractor_trianglediamonds.svg	stimuli_distractor_trianglediamonds.svg	33	no	53	0	357
6.6.1	mac	2022-12-14	13:04:30	13:07:37	185619	5f6d0c1efaad4d16c44fdd6d	192811825	1	main_slash	7	advance_on_keypress_SLASH	14	stimuli_distractor_trianglediamonds.svg	stimuli_distractor_trianglediamonds.svg	33	no	57	0	1133
6.6.1	mac	2022-12-14	13:04:30	13:07:41	189379	5f6d0c1efaad4d16c44fdd6d	192811825	1	main_slash	7	main_slash	15	stimuli_distractor_trianglediamonds.svg	stimuli_distractor_diamondtriangles.svg	36	no	0	1	2000
6.6.1	mac	2022-12-14	13:04:30	13:07:41	189379	5f6d0c1efaad4d16c44fdd6d	192811825	1	main_slash	7	advance_on_keypress_SLASH	16	stimuli_distractor_trianglediamonds.svg	stimuli_distractor_diamondtriangles.svg	36	no	57	0	437
6.6.1	mac	2022-12-14	13:04:30	13:07:43	191141	5f6d0c1efaad4d16c44fdd6d	192811825	1	main_slash	7	main_slash	17	stimuli_target_trianglecircles.svg	stimuli_distractor_diamondtriangles.svg	21	yes	53	1	693
6.6.1	mac	2022-12-14	13:04:30	13:07:43	191141	5f6d0c1efaad4d16c44fdd6d	192811825	1	main_slash	7	advance_on_keypress_SLASH	18	stimuli_target_trianglecircles.svg	stimuli_distractor_diamondtriangles.svg	21	yes	57	0	1620
6.6.1	mac	2022-12-14	13:04:30	13:07:47	195396	5f6d0c1efaad4d16c44fdd6d	192811825	1	main_slash	7	main_slash	19	stimuli_distractor_trianglediamonds.svg	stimuli_distractor_diamondtriangles.svg	35	no	0	1	2000
6.6.1	mac	2022-12-14	13:04:30	13:07:47	195396	5f6d0c1efaad4d16c44fdd6d	192811825	1	main_slash	7	advance_on_keypress_SLASH	20	stimuli_distractor_trianglediamonds.svg	stimuli_distractor_diamondtriangles.svg	35	no	57	0	589
6.6.1	mac	2022-12-14	13:04:30	13:07:49	196960	5f6d0c1efaad4d16c44fdd6d	192811825	1	main_slash	7	main_slash	21	stimuli_distractor_trianglediamonds.svg	stimuli_target_circlediamonds.svg	10	yes	53	1	347
6.6.1	mac	2022-12-14	13:04:30	13:07:49	196960	5f6d0c1efaad4d16c44fdd6d	192811825	1	main_slash	7	advance_on_keypress_SLASH	22	stimuli_distractor_trianglediamonds.svg	stimuli_target_circlediamonds.svg	10	yes	57	0	1807
6.6.1	mac	2022-12-14	13:04:30	13:07:52	200231	5f6d0c1efaad4d16c44fdd6d	192811825	1	main_slash	7	main_slash	23	stimuli_target_diamondcircles.svg	stimuli_distractor_diamondtriangles.svg	23	yes	53	1	835
6.6.1	mac	2022-12-14	13:04:30	13:07:52	200231	5f6d0c1efaad4d16c44fdd6d	192811825	1	main_slash	7	advance_on_keypress_SLASH	24	stimuli_target_diamondcircles.svg	stimuli_distractor_diamondtriangles.svg	23	yes	57	0	1732
6.6.1	mac	2022-12-14	13:04:30	13:07:55	203471	5f6d0c1efaad4d16c44fdd6d	192811825	1	main_slash	7	main_slash	25	stimuli_distractor_trianglediamonds.svg	stimuli_target_trianglesquares.svg	26	yes	53	1	873
6.6.1	mac	2022-12-14	13:04:30	13:07:55	203471	5f6d0c1efaad4d16c44fdd6d	192811825	1	main_slash	7	advance_on_keypress_SLASH	26	stimuli_distractor_trianglediamonds.svg	stimuli_target_trianglesquares.svg	26	yes	57	0	760
6.6.1	mac	2022-12-14	13:04:30	13:07:57	205207	5f6d0c1efaad4d16c44fdd6d	192811825	1	main_slash	7	main_slash	27	stimuli_target_diamondcircles.svg	stimuli_distractor_trianglediamonds.svg	19	yes	53	1	359
6.6.1	mac	2022-12-14	13:04:30	13:07:57	205207	5f6d0c1efaad4d16c44fdd6d	192811825	1	main_slash	7	advance_on_keypress_SLASH	28	stimuli_target_diamondcircles.svg	stimuli_distractor_trianglediamonds.svg	19	yes	57	0	1035
6.6.1	mac	2022-12-14	13:04:30	13:07:59	207253	5f6d0c1efaad4d16c44fdd6d	192811825	1	main_slash	7	main_slash	29	stimuli_target_circlediamonds.svg	stimuli_distractor_diamondtriangles.svg	6	yes	53	1	371
6.6.1	mac	2022-12-14	13:04:30	13:07:59	207253	5f6d0c1efaad4d16c44fdd6d	192811825	1	main_slash	7	advance_on_keypress_SLASH	30	stimuli_target_circlediamonds.svg	stimuli_distractor_diamondtriangles.svg	6	yes	57	0	788
6.6.1	mac	2022-12-14	13:04:30	13:08:01	209103	5f6d0c1efaad4d16c44fdd6d	192811825	1	main_slash	7	main_slash	31	stimuli_distractor_diamondtriangles.svg	stimuli_target_diamondcircles.svg	31	yes	53	1	438
6.6.1	mac	2022-12-14	13:04:30	13:08:01	209103	5f6d0c1efaad4d16c44fdd6d	192811825	1	main_slash	7	advance_on_keypress_SLASH	32	stimuli_distractor_diamondtriangles.svg	stimuli_target_diamondcircles.svg	31	yes	57	0	681
6.6.1	mac	2022-12-14	13:04:30	13:08:03	210802	5f6d0c1efaad4d16c44fdd6d	192811825	1	main_slash	7	main_slash	33	stimuli_target_trianglecircles.svg	stimuli_distractor_trianglediamonds.svg	17	yes	53	1	388
6.6.1	mac	2022-12-14	13:04:30	13:08:03	210802	5f6d0c1efaad4d16c44fdd6d	192811825	1	main_slash	7	advance_on_keypress_SLASH	34	stimuli_target_trianglecircles.svg	stimuli_distractor_trianglediamonds.svg	17	yes	57	0	546
6.6.1	mac	2022-12-14	13:04:30	13:08:06	213981	5f6d0c1efaad4d16c44fdd6d	192811825	1	main_slash	7	main_slash	35	stimuli_distractor_diamondtriangles.svg	stimuli_target_squarediamonds.svg	16	yes	0	0	2000
6.6.1	mac	2022-12-14	13:04:30	13:08:06	213981	5f6d0c1efaad4d16c44fdd6d	192811825	1	main_slash	7	advance_on_keypress_SLASH	36	stimuli_distractor_diamondtriangles.svg	stimuli_target_squarediamonds.svg	16	yes	57	0	573
6.6.1	mac	2022-12-14	13:04:30	13:08:07	215487	5f6d0c1efaad4d16c44fdd6d	192811825	1	main_slash	7	main_slash	37	stimuli_distractor_trianglediamonds.svg	stimuli_target_squarediamonds.svg	12	yes	53	1	305
6.6.1	mac	2022-12-14	13:04:30	13:08:07	215487	5f6d0c1efaad4d16c44fdd6d	192811825	1	main_slash	7	advance_on_keypress_SLASH	38	stimuli_distractor_trianglediamonds.svg	stimuli_target_squarediamonds.svg	12	yes	57	0	854
6.6.1	mac	2022-12-14	13:04:30	13:08:09	217346	5f6d0c1efaad4d16c44fdd6d	192811825	1	main_slash	7	main_slash	39	stimuli_target_squaretriangles.svg	stimuli_distractor_trianglediamonds.svg	3	yes	53	1	380
6.6.1	mac	2022-12-14	13:04:30	13:08:09	217346	5f6d0c1efaad4d16c44fdd6d	192811825	1	main_slash	7	advance_on_keypress_SLASH	40	stimuli_target_squaretriangles.svg	stimuli_distractor_trianglediamonds.svg	3	yes	57	0	635
6.6.1	mac	2022-12-14	13:04:30	13:08:12	220615	5f6d0c1efaad4d16c44fdd6d	192811825	1	main_slash	7	main_slash	41	stimuli_distractor_trianglediamonds.svg	stimuli_distractor_trianglediamonds.svg	34	no	0	1	2000
6.6.1	mac	2022-12-14	13:04:30	13:08:12	220615	5f6d0c1efaad4d16c44fdd6d	192811825	1	main_slash	7	advance_on_keypress_SLASH	42	stimuli_distractor_trianglediamonds.svg	stimuli_distractor_trianglediamonds.svg	34	no	57	0	857
6.6.1	mac	2022-12-14	13:04:30	13:08:14	222686	5f6d0c1efaad4d16c44fdd6d	192811825	1	main_slash	7	main_slash	43	stimuli_target_diamondsquares.svg	stimuli_distractor_diamondtriangles.svg	24	yes	53	1	587
6.6.1	mac	2022-12-14	13:04:30	13:08:14	222686	5f6d0c1efaad4d16c44fdd6d	192811825	1	main_slash	7	advance_on_keypress_SLASH	44	stimuli_target_diamondsquares.svg	stimuli_distractor_diamondtriangles.svg	24	yes	57	0	738
6.6.1	mac	2022-12-14	13:04:30	13:08:16	224507	5f6d0c1efaad4d16c44fdd6d	192811825	1	main_slash	7	main_slash	45	stimuli_distractor_diamondtriangles.svg	stimuli_target_diamondsquares.svg	32	yes	53	1	459
6.6.1	mac	2022-12-14	13:04:30	13:08:16	224507	5f6d0c1efaad4d16c44fdd6d	192811825	1	main_slash	7	advance_on_keypress_SLASH	46	stimuli_distractor_diamondtriangles.svg	stimuli_target_diamondsquares.svg	32	yes	57	0	1007
6.6.1	mac	2022-12-14	13:04:30	13:08:18	226524	5f6d0c1efaad4d16c44fdd6d	192811825	1	main_slash	7	main_slash	47	stimuli_target_trianglesquares.svg	stimuli_distractor_trianglediamonds.svg	18	yes	53	1	390
6.6.1	mac	2022-12-14	13:04:30	13:08:18	226524	5f6d0c1efaad4d16c44fdd6d	192811825	1	main_slash	7	advance_on_keypress_SLASH	48	stimuli_target_trianglesquares.svg	stimuli_distractor_trianglediamonds.svg	18	yes	57	0	1071
6.6.1	mac	2022-12-14	13:04:30	13:08:20	228626	5f6d0c1efaad4d16c44fdd6d	192811825	1	main_slash	7	main_slash	49	stimuli_distractor_trianglediamonds.svg	stimuli_target_diamondcircles.svg	27	yes	53	1	395
6.6.1	mac	2022-12-14	13:04:30	13:08:20	228626	5f6d0c1efaad4d16c44fdd6d	192811825	1	main_slash	7	advance_on_keypress_SLASH	50	stimuli_distractor_trianglediamonds.svg	stimuli_target_diamondcircles.svg	27	yes	57	0	515
6.6.1	mac	2022-12-14	13:04:30	13:08:22	230101	5f6d0c1efaad4d16c44fdd6d	192811825	1	main_slash	7	main_slash	51	stimuli_distractor_diamondtriangles.svg	stimuli_distractor_diamondtriangles.svg	39	no	53	0	319
6.6.1	mac	2022-12-14	13:04:30	13:08:22	230101	5f6d0c1efaad4d16c44fdd6d	192811825	1	main_slash	7	advance_on_keypress_SLASH	52	stimuli_distractor_diamondtriangles.svg	stimuli_distractor_diamondtriangles.svg	39	no	57	0	747
6.6.1	mac	2022-12-14	13:04:30	13:08:25	233482	5f6d0c1efaad4d16c44fdd6d	192811825	1	main_slash	7	main_slash	53	stimuli_distractor_diamondtriangles.svg	stimuli_distractor_trianglediamonds.svg	37	no	0	1	2000
6.6.1	mac	2022-12-14	13:04:30	13:08:25	233482	5f6d0c1efaad4d16c44fdd6d	192811825	1	main_slash	7	advance_on_keypress_SLASH	54	stimuli_distractor_diamondtriangles.svg	stimuli_distractor_trianglediamonds.svg	37	no	57	0	974
6.6.1	mac	2022-12-14	13:04:30	13:08:27	235534	5f6d0c1efaad4d16c44fdd6d	192811825	1	main_slash	7	main_slash	55	stimuli_target_circlediamonds.svg	stimuli_distractor_trianglediamonds.svg	2	yes	53	1	451
6.6.1	mac	2022-12-14	13:04:30	13:08:27	235534	5f6d0c1efaad4d16c44fdd6d	192811825	1	main_slash	7	advance_on_keypress_SLASH	56	stimuli_target_circlediamonds.svg	stimuli_distractor_trianglediamonds.svg	2	yes	57	0	585
6.6.1	mac	2022-12-14	13:04:30	13:08:29	237274	5f6d0c1efaad4d16c44fdd6d	192811825	1	main_slash	7	main_slash	57	stimuli_target_diamondsquares.svg	stimuli_distractor_trianglediamonds.svg	20	yes	53	1	523
6.6.1	mac	2022-12-14	13:04:30	13:08:29	237274	5f6d0c1efaad4d16c44fdd6d	192811825	1	main_slash	7	advance_on_keypress_SLASH	58	stimuli_target_diamondsquares.svg	stimuli_distractor_trianglediamonds.svg	20	yes	57	0	474
6.6.1	mac	2022-12-14	13:04:30	13:08:31	239007	5f6d0c1efaad4d16c44fdd6d	192811825	1	main_slash	7	main_slash	59	stimuli_distractor_diamondtriangles.svg	stimuli_distractor_trianglediamonds.svg	38	no	53	0	623
6.6.1	mac	2022-12-14	13:04:30	13:08:31	239007	5f6d0c1efaad4d16c44fdd6d	192811825	1	main_slash	7	advance_on_keypress_SLASH	60	stimuli_distractor_diamondtriangles.svg	stimuli_distractor_trianglediamonds.svg	38	no	57	0	591
6.6.1	mac	2022-12-14	13:04:30	13:08:32	240661	5f6d0c1efaad4d16c44fdd6d	192811825	1	main_slash	7	main_slash	61	stimuli_distractor_diamondtriangles.svg	stimuli_target_circletriangles.svg	13	yes	53	1	444
6.6.1	mac	2022-12-14	13:04:30	13:08:32	240661	5f6d0c1efaad4d16c44fdd6d	192811825	1	main_slash	7	advance_on_keypress_SLASH	62	stimuli_distractor_diamondtriangles.svg	stimuli_target_circletriangles.svg	13	yes	57	0	615
6.6.1	mac	2022-12-14	13:04:30	13:08:34	242548	5f6d0c1efaad4d16c44fdd6d	192811825	1	main_slash	7	main_slash	63	stimuli_distractor_diamondtriangles.svg	stimuli_target_trianglecircles.svg	29	yes	53	1	631
6.6.1	mac	2022-12-14	13:04:30	13:08:34	242548	5f6d0c1efaad4d16c44fdd6d	192811825	1	main_slash	7	advance_on_keypress_SLASH	64	stimuli_distractor_diamondtriangles.svg	stimuli_target_trianglecircles.svg	29	yes	57	0	848
6.6.1	mac	2022-12-14	13:04:30	13:08:36	244426	5f6d0c1efaad4d16c44fdd6d	192811825	1	main_slash	7	main_slash	65	stimuli_distractor_trianglediamonds.svg	stimuli_target_diamondsquares.svg	28	yes	53	1	395
6.6.1	mac	2022-12-14	13:04:30	13:08:36	244426	5f6d0c1efaad4d16c44fdd6d	192811825	1	main_slash	7	advance_on_keypress_SLASH	66	stimuli_distractor_trianglediamonds.svg	stimuli_target_diamondsquares.svg	28	yes	57	0	857
6.6.1	mac	2022-12-14	13:04:30	13:08:38	246325	5f6d0c1efaad4d16c44fdd6d	192811825	1	main_slash	7	main_slash	67	stimuli_target_squarediamonds.svg	stimuli_distractor_trianglediamonds.svg	4	yes	53	1	409
6.6.1	mac	2022-12-14	13:04:30	13:08:38	246325	5f6d0c1efaad4d16c44fdd6d	192811825	1	main_slash	7	advance_on_keypress_SLASH	68	stimuli_target_squarediamonds.svg	stimuli_distractor_trianglediamonds.svg	4	yes	57	0	806
6.6.1	mac	2022-12-14	13:04:30	13:08:40	248262	5f6d0c1efaad4d16c44fdd6d	192811825	1	main_slash	7	main_slash	69	stimuli_distractor_diamondtriangles.svg	stimuli_target_circlediamonds.svg	14	yes	53	1	494
6.6.1	mac	2022-12-14	13:04:30	13:08:40	248262	5f6d0c1efaad4d16c44fdd6d	192811825	1	main_slash	7	advance_on_keypress_SLASH	70	stimuli_distractor_diamondtriangles.svg	stimuli_target_circlediamonds.svg	14	yes	57	0	1044
6.6.1	mac	2022-12-14	13:04:30	13:08:42	250402	5f6d0c1efaad4d16c44fdd6d	192811825	1	main_slash	7	main_slash	71	stimuli_target_circletriangles.svg	stimuli_distractor_trianglediamonds.svg	1	yes	53	1	450
6.6.1	mac	2022-12-14	13:04:30	13:08:42	250402	5f6d0c1efaad4d16c44fdd6d	192811825	1	main_slash	7	advance_on_keypress_SLASH	72	stimuli_target_circletriangles.svg	stimuli_distractor_trianglediamonds.svg	1	yes	57	0	873
6.6.1	mac	2022-12-14	13:04:30	13:08:44	252377	5f6d0c1efaad4d16c44fdd6d	192811825	1	main_slash	7	main_slash	73	stimuli_target_squaretriangles.svg	stimuli_distractor_diamondtriangles.svg	7	yes	53	1	477
6.6.1	mac	2022-12-14	13:04:30	13:08:44	252377	5f6d0c1efaad4d16c44fdd6d	192811825	1	main_slash	7	advance_on_keypress_SLASH	74	stimuli_target_squaretriangles.svg	stimuli_distractor_diamondtriangles.svg	7	yes	57	0	1015
6.6.1	mac	2022-12-14	13:04:30	13:08:46	254274	5f6d0c1efaad4d16c44fdd6d	192811825	1	main_slash	7	main_slash	75	stimuli_distractor_diamondtriangles.svg	stimuli_target_squaretriangles.svg	15	yes	53	1	257
6.6.1	mac	2022-12-14	13:04:30	13:08:46	254274	5f6d0c1efaad4d16c44fdd6d	192811825	1	main_slash	7	advance_on_keypress_SLASH	76	stimuli_distractor_diamondtriangles.svg	stimuli_target_squaretriangles.svg	15	yes	57	0	1792
6.6.1	mac	2022-12-14	13:04:30	13:08:49	256993	5f6d0c1efaad4d16c44fdd6d	192811825	1	main_slash	7	main_slash	77	stimuli_distractor_diamondtriangles.svg	stimuli_target_trianglesquares.svg	30	yes	53	1	309
6.6.1	mac	2022-12-14	13:04:30	13:08:49	256993	5f6d0c1efaad4d16c44fdd6d	192811825	1	main_slash	7	advance_on_keypress_SLASH	78	stimuli_distractor_diamondtriangles.svg	stimuli_target_trianglesquares.svg	30	yes	57	0	1036
6.6.1	mac	2022-12-14	13:04:30	13:08:51	259043	5f6d0c1efaad4d16c44fdd6d	192811825	1	main_slash	7	main_slash	79	stimuli_target_squarediamonds.svg	stimuli_distractor_diamondtriangles.svg	8	yes	53	1	391
6.6.1	mac	2022-12-14	13:04:30	13:08:51	259043	5f6d0c1efaad4d16c44fdd6d	192811825	1	main_slash	7	advance_on_keypress_SLASH	80	stimuli_target_squarediamonds.svg	stimuli_distractor_diamondtriangles.svg	8	yes	57	0	1049
6.6.1	mac	2022-12-14	13:04:30	13:08:54	261834	5f6d0c1efaad4d16c44fdd6d	192811825	1	main_slash	7	main_slash	81	stimuli_target_diamondcircles.svg	stimuli_distractor_trianglediamonds.svg	19	yes	53	1	1117
6.6.1	mac	2022-12-14	13:04:30	13:08:54	261834	5f6d0c1efaad4d16c44fdd6d	192811825	1	main_slash	7	advance_on_keypress_SLASH	82	stimuli_target_diamondcircles.svg	stimuli_distractor_trianglediamonds.svg	19	yes	57	0	1098
6.6.1	mac	2022-12-14	13:04:30	13:08:56	263974	5f6d0c1efaad4d16c44fdd6d	192811825	1	main_slash	7	main_slash	83	stimuli_target_squaretriangles.svg	stimuli_distractor_diamondtriangles.svg	7	yes	53	1	406
6.6.1	mac	2022-12-14	13:04:30	13:08:56	263974	5f6d0c1efaad4d16c44fdd6d	192811825	1	main_slash	7	advance_on_keypress_SLASH	84	stimuli_target_squaretriangles.svg	stimuli_distractor_diamondtriangles.svg	7	yes	57	0	1312
6.6.1	mac	2022-12-14	13:04:30	13:08:58	266284	5f6d0c1efaad4d16c44fdd6d	192811825	1	main_slash	7	main_slash	85	stimuli_distractor_trianglediamonds.svg	stimuli_distractor_diamondtriangles.svg	36	no	53	0	365
6.6.1	mac	2022-12-14	13:04:30	13:08:58	266284	5f6d0c1efaad4d16c44fdd6d	192811825	1	main_slash	7	advance_on_keypress_SLASH	86	stimuli_distractor_trianglediamonds.svg	stimuli_distractor_diamondtriangles.svg	36	no	57	0	923
6.6.1	mac	2022-12-14	13:04:30	13:09:02	269835	5f6d0c1efaad4d16c44fdd6d	192811825	1	main_slash	7	main_slash	87	stimuli_distractor_trianglediamonds.svg	stimuli_distractor_trianglediamonds.svg	33	no	0	1	2000
6.6.1	mac	2022-12-14	13:04:30	13:09:02	269835	5f6d0c1efaad4d16c44fdd6d	192811825	1	main_slash	7	advance_on_keypress_SLASH	88	stimuli_distractor_trianglediamonds.svg	stimuli_distractor_trianglediamonds.svg	33	no	57	0	1509
6.6.1	mac	2022-12-14	13:04:30	13:09:04	272431	5f6d0c1efaad4d16c44fdd6d	192811825	1	main_slash	7	main_slash	89	stimuli_target_trianglecircles.svg	stimuli_distractor_diamondtriangles.svg	21	yes	53	1	445
6.6.1	mac	2022-12-14	13:04:30	13:09:04	272431	5f6d0c1efaad4d16c44fdd6d	192811825	1	main_slash	7	advance_on_keypress_SLASH	90	stimuli_target_trianglecircles.svg	stimuli_distractor_diamondtriangles.svg	21	yes	57	0	718
6.6.1	mac	2022-12-14	13:04:30	13:09:08	275785	5f6d0c1efaad4d16c44fdd6d	192811825	1	main_slash	7	main_slash	91	stimuli_distractor_diamondtriangles.svg	stimuli_distractor_trianglediamonds.svg	37	no	0	1	2000
6.6.1	mac	2022-12-14	13:04:30	13:09:08	275785	5f6d0c1efaad4d16c44fdd6d	192811825	1	main_slash	7	advance_on_keypress_SLASH	92	stimuli_distractor_diamondtriangles.svg	stimuli_distractor_trianglediamonds.svg	37	no	57	0	369
6.6.1	mac	2022-12-14	13:04:30	13:09:09	277266	5f6d0c1efaad4d16c44fdd6d	192811825	1	main_slash	7	main_slash	93	stimuli_distractor_trianglediamonds.svg	stimuli_target_circletriangles.svg	9	yes	53	1	481
6.6.1	mac	2022-12-14	13:04:30	13:09:09	277266	5f6d0c1efaad4d16c44fdd6d	192811825	1	main_slash	7	advance_on_keypress_SLASH	94	stimuli_distractor_trianglediamonds.svg	stimuli_target_circletriangles.svg	9	yes	57	0	1131
6.6.1	mac	2022-12-14	13:04:30	13:09:11	279371	5f6d0c1efaad4d16c44fdd6d	192811825	1	main_slash	7	main_slash	95	stimuli_target_squarediamonds.svg	stimuli_distractor_trianglediamonds.svg	4	yes	53	1	336
6.6.1	mac	2022-12-14	13:04:30	13:09:11	279371	5f6d0c1efaad4d16c44fdd6d	192811825	1	main_slash	7	advance_on_keypress_SLASH	96	stimuli_target_squarediamonds.svg	stimuli_distractor_trianglediamonds.svg	4	yes	57	0	972
6.6.1	mac	2022-12-14	13:04:30	13:09:13	281331	5f6d0c1efaad4d16c44fdd6d	192811825	1	main_slash	7	main_slash	97	stimuli_distractor_diamondtriangles.svg	stimuli_target_diamondsquares.svg	32	yes	53	1	362
6.6.1	mac	2022-12-14	13:04:30	13:09:13	281331	5f6d0c1efaad4d16c44fdd6d	192811825	1	main_slash	7	advance_on_keypress_SLASH	98	stimuli_distractor_diamondtriangles.svg	stimuli_target_diamondsquares.svg	32	yes	57	0	863
6.6.1	mac	2022-12-14	13:04:30	13:09:15	283204	5f6d0c1efaad4d16c44fdd6d	192811825	1	main_slash	7	main_slash	99	stimuli_distractor_trianglediamonds.svg	stimuli_target_squarediamonds.svg	12	yes	53	1	368
6.6.1	mac	2022-12-14	13:04:30	13:09:15	283204	5f6d0c1efaad4d16c44fdd6d	192811825	1	main_slash	7	advance_on_keypress_SLASH	100	stimuli_distractor_trianglediamonds.svg	stimuli_target_squarediamonds.svg	12	yes	57	0	792
6.6.1	mac	2022-12-14	13:04:30	13:09:17	284951	5f6d0c1efaad4d16c44fdd6d	192811825	1	main_slash	7	main_slash	101	stimuli_distractor_diamondtriangles.svg	stimuli_target_squarediamonds.svg	16	yes	53	1	332
6.6.1	mac	2022-12-14	13:04:30	13:09:17	284951	5f6d0c1efaad4d16c44fdd6d	192811825	1	main_slash	7	advance_on_keypress_SLASH	102	stimuli_distractor_diamondtriangles.svg	stimuli_target_squarediamonds.svg	16	yes	57	0	628
6.6.1	mac	2022-12-14	13:04:30	13:09:18	286660	5f6d0c1efaad4d16c44fdd6d	192811825	1	main_slash	7	main_slash	103	stimuli_target_diamondsquares.svg	stimuli_distractor_diamondtriangles.svg	24	yes	53	1	440
6.6.1	mac	2022-12-14	13:04:30	13:09:18	286660	5f6d0c1efaad4d16c44fdd6d	192811825	1	main_slash	7	advance_on_keypress_SLASH	104	stimuli_target_diamondsquares.svg	stimuli_distractor_diamondtriangles.svg	24	yes	57	0	1086
6.6.1	mac	2022-12-14	13:04:30	13:09:20	288718	5f6d0c1efaad4d16c44fdd6d	192811825	1	main_slash	7	main_slash	105	stimuli_target_circlediamonds.svg	stimuli_distractor_diamondtriangles.svg	6	yes	53	1	331
6.6.1	mac	2022-12-14	13:04:30	13:09:20	288718	5f6d0c1efaad4d16c44fdd6d	192811825	1	main_slash	7	advance_on_keypress_SLASH	106	stimuli_target_circlediamonds.svg	stimuli_distractor_diamondtriangles.svg	6	yes	57	0	988
6.6.1	mac	2022-12-14	13:04:30	13:09:22	290660	5f6d0c1efaad4d16c44fdd6d	192811825	1	main_slash	7	main_slash	107	stimuli_target_diamondsquares.svg	stimuli_distractor_trianglediamonds.svg	20	yes	53	1	323
6.6.1	mac	2022-12-14	13:04:30	13:09:22	290660	5f6d0c1efaad4d16c44fdd6d	192811825	1	main_slash	7	advance_on_keypress_SLASH	108	stimuli_target_diamondsquares.svg	stimuli_distractor_trianglediamonds.svg	20	yes	57	0	1149
6.6.1	mac	2022-12-14	13:04:30	13:09:25	292799	5f6d0c1efaad4d16c44fdd6d	192811825	1	main_slash	7	main_slash	109	stimuli_target_trianglecircles.svg	stimuli_distractor_trianglediamonds.svg	17	yes	53	1	363
6.6.1	mac	2022-12-14	13:04:30	13:09:25	292799	5f6d0c1efaad4d16c44fdd6d	192811825	1	main_slash	7	advance_on_keypress_SLASH	110	stimuli_target_trianglecircles.svg	stimuli_distractor_trianglediamonds.svg	17	yes	57	0	779
6.6.1	mac	2022-12-14	13:04:30	13:09:26	294582	5f6d0c1efaad4d16c44fdd6d	192811825	1	main_slash	7	main_slash	111	stimuli_distractor_trianglediamonds.svg	stimuli_distractor_trianglediamonds.svg	34	no	53	0	362
6.6.1	mac	2022-12-14	13:04:30	13:09:26	294582	5f6d0c1efaad4d16c44fdd6d	192811825	1	main_slash	7	advance_on_keypress_SLASH	112	stimuli_distractor_trianglediamonds.svg	stimuli_distractor_trianglediamonds.svg	34	no	57	0	949
6.6.1	mac	2022-12-14	13:04:30	13:09:28	296553	5f6d0c1efaad4d16c44fdd6d	192811825	1	main_slash	7	main_slash	113	stimuli_distractor_trianglediamonds.svg	stimuli_target_circlediamonds.svg	10	yes	53	1	384
6.6.1	mac	2022-12-14	13:04:30	13:09:28	296553	5f6d0c1efaad4d16c44fdd6d	192811825	1	main_slash	7	advance_on_keypress_SLASH	114	stimuli_distractor_trianglediamonds.svg	stimuli_target_circlediamonds.svg	10	yes	57	0	819
6.6.1	mac	2022-12-14	13:04:30	13:09:30	298539	5f6d0c1efaad4d16c44fdd6d	192811825	1	main_slash	7	main_slash	115	stimuli_distractor_diamondtriangles.svg	stimuli_target_trianglesquares.svg	30	yes	53	1	535
6.6.1	mac	2022-12-14	13:04:30	13:09:30	298539	5f6d0c1efaad4d16c44fdd6d	192811825	1	main_slash	7	advance_on_keypress_SLASH	116	stimuli_distractor_diamondtriangles.svg	stimuli_target_trianglesquares.svg	30	yes	57	0	647
6.6.1	mac	2022-12-14	13:04:30	13:09:32	300217	5f6d0c1efaad4d16c44fdd6d	192811825	1	main_slash	7	main_slash	117	stimuli_distractor_trianglediamonds.svg	stimuli_target_diamondsquares.svg	28	yes	53	1	397
6.6.1	mac	2022-12-14	13:04:30	13:09:32	300217	5f6d0c1efaad4d16c44fdd6d	192811825	1	main_slash	7	advance_on_keypress_SLASH	118	stimuli_distractor_trianglediamonds.svg	stimuli_target_diamondsquares.svg	28	yes	57	0	488
6.6.1	mac	2022-12-14	13:04:30	13:09:34	301932	5f6d0c1efaad4d16c44fdd6d	192811825	1	main_slash	7	main_slash	119	stimuli_target_circlediamonds.svg	stimuli_distractor_trianglediamonds.svg	2	yes	53	1	594
6.6.1	mac	2022-12-14	13:04:30	13:09:34	301932	5f6d0c1efaad4d16c44fdd6d	192811825	1	main_slash	7	advance_on_keypress_SLASH	120	stimuli_target_circlediamonds.svg	stimuli_distractor_trianglediamonds.svg	2	yes	57	0	488
6.6.1	mac	2022-12-14	13:04:30	13:09:35	303441	5f6d0c1efaad4d16c44fdd6d	192811825	1	main_slash	7	main_slash	121	stimuli_target_diamondcircles.svg	stimuli_distractor_diamondtriangles.svg	23	yes	53	1	387
6.6.1	mac	2022-12-14	13:04:30	13:09:35	303441	5f6d0c1efaad4d16c44fdd6d	192811825	1	main_slash	7	advance_on_keypress_SLASH	122	stimuli_target_diamondcircles.svg	stimuli_distractor_diamondtriangles.svg	23	yes	57	0	434
6.6.1	mac	2022-12-14	13:04:30	13:09:37	304878	5f6d0c1efaad4d16c44fdd6d	192811825	1	main_slash	7	main_slash	123	stimuli_distractor_diamondtriangles.svg	stimuli_target_circlediamonds.svg	14	yes	53	1	373
6.6.1	mac	2022-12-14	13:04:30	13:09:37	304878	5f6d0c1efaad4d16c44fdd6d	192811825	1	main_slash	7	advance_on_keypress_SLASH	124	stimuli_distractor_diamondtriangles.svg	stimuli_target_circlediamonds.svg	14	yes	57	0	387
6.6.1	mac	2022-12-14	13:04:30	13:09:38	306270	5f6d0c1efaad4d16c44fdd6d	192811825	1	main_slash	7	main_slash	125	stimuli_distractor_diamondtriangles.svg	stimuli_target_trianglecircles.svg	29	yes	53	1	383
6.6.1	mac	2022-12-14	13:04:30	13:09:38	306270	5f6d0c1efaad4d16c44fdd6d	192811825	1	main_slash	7	advance_on_keypress_SLASH	126	stimuli_distractor_diamondtriangles.svg	stimuli_target_trianglecircles.svg	29	yes	57	0	440
6.6.1	mac	2022-12-14	13:04:30	13:09:40	307788	5f6d0c1efaad4d16c44fdd6d	192811825	1	main_slash	7	main_slash	127	stimuli_target_trianglesquares.svg	stimuli_distractor_trianglediamonds.svg	18	yes	53	1	450
6.6.1	mac	2022-12-14	13:04:30	13:09:40	307788	5f6d0c1efaad4d16c44fdd6d	192811825	1	main_slash	7	advance_on_keypress_SLASH	128	stimuli_target_trianglesquares.svg	stimuli_distractor_trianglediamonds.svg	18	yes	57	0	606
6.6.1	mac	2022-12-14	13:04:30	13:09:41	309331	5f6d0c1efaad4d16c44fdd6d	192811825	1	main_slash	7	main_slash	129	stimuli_distractor_diamondtriangles.svg	stimuli_target_circletriangles.svg	13	yes	53	1	311
6.6.1	mac	2022-12-14	13:04:30	13:09:41	309331	5f6d0c1efaad4d16c44fdd6d	192811825	1	main_slash	7	advance_on_keypress_SLASH	130	stimuli_distractor_diamondtriangles.svg	stimuli_target_circletriangles.svg	13	yes	57	0	759
6.6.1	mac	2022-12-14	13:04:30	13:09:44	312704	5f6d0c1efaad4d16c44fdd6d	192811825	1	main_slash	7	main_slash	131	stimuli_distractor_trianglediamonds.svg	stimuli_distractor_diamondtriangles.svg	35	no	0	1	2000
6.6.1	mac	2022-12-14	13:04:30	13:09:44	312704	5f6d0c1efaad4d16c44fdd6d	192811825	1	main_slash	7	advance_on_keypress_SLASH	132	stimuli_distractor_trianglediamonds.svg	stimuli_distractor_diamondtriangles.svg	35	no	57	0	951
6.6.1	mac	2022-12-14	13:04:30	13:09:46	314655	5f6d0c1efaad4d16c44fdd6d	192811825	1	main_slash	7	main_slash	133	stimuli_distractor_trianglediamonds.svg	stimuli_target_squaretriangles.svg	11	yes	53	1	366
6.6.1	mac	2022-12-14	13:04:30	13:09:46	314655	5f6d0c1efaad4d16c44fdd6d	192811825	1	main_slash	7	advance_on_keypress_SLASH	134	stimuli_distractor_trianglediamonds.svg	stimuli_target_squaretriangles.svg	11	yes	57	0	523
6.6.1	mac	2022-12-14	13:04:30	13:09:48	316111	5f6d0c1efaad4d16c44fdd6d	192811825	1	main_slash	7	main_slash	135	stimuli_distractor_trianglediamonds.svg	stimuli_target_trianglecircles.svg	25	yes	53	1	305
6.6.1	mac	2022-12-14	13:04:30	13:09:48	316111	5f6d0c1efaad4d16c44fdd6d	192811825	1	main_slash	7	advance_on_keypress_SLASH	136	stimuli_distractor_trianglediamonds.svg	stimuli_target_trianglecircles.svg	25	yes	57	0	500
6.6.1	mac	2022-12-14	13:04:30	13:09:49	317527	5f6d0c1efaad4d16c44fdd6d	192811825	1	main_slash	7	main_slash	137	stimuli_distractor_diamondtriangles.svg	stimuli_distractor_diamondtriangles.svg	39	no	53	0	289
6.6.1	mac	2022-12-14	13:04:30	13:09:49	317527	5f6d0c1efaad4d16c44fdd6d	192811825	1	main_slash	7	advance_on_keypress_SLASH	138	stimuli_distractor_diamondtriangles.svg	stimuli_distractor_diamondtriangles.svg	39	no	57	0	813
6.6.1	mac	2022-12-14	13:04:30	13:09:51	319511	5f6d0c1efaad4d16c44fdd6d	192811825	1	main_slash	7	main_slash	139	stimuli_target_squarediamonds.svg	stimuli_distractor_diamondtriangles.svg	8	yes	53	1	539
6.6.1	mac	2022-12-14	13:04:30	13:09:51	319511	5f6d0c1efaad4d16c44fdd6d	192811825	1	main_slash	7	advance_on_keypress_SLASH	140	stimuli_target_squarediamonds.svg	stimuli_distractor_diamondtriangles.svg	8	yes	57	0	450
6.6.1	mac	2022-12-14	13:04:30	13:09:53	320938	5f6d0c1efaad4d16c44fdd6d	192811825	1	main_slash	7	main_slash	141	stimuli_distractor_trianglediamonds.svg	stimuli_target_trianglesquares.svg	26	yes	53	1	333
6.6.1	mac	2022-12-14	13:04:30	13:09:53	320938	5f6d0c1efaad4d16c44fdd6d	192811825	1	main_slash	7	advance_on_keypress_SLASH	142	stimuli_distractor_trianglediamonds.svg	stimuli_target_trianglesquares.svg	26	yes	57	0	571
6.6.1	mac	2022-12-14	13:04:30	13:09:54	322591	5f6d0c1efaad4d16c44fdd6d	192811825	1	main_slash	7	main_slash	143	stimuli_distractor_diamondtriangles.svg	stimuli_target_diamondcircles.svg	31	yes	53	1	452
6.6.1	mac	2022-12-14	13:04:30	13:09:54	322591	5f6d0c1efaad4d16c44fdd6d	192811825	1	main_slash	7	advance_on_keypress_SLASH	144	stimuli_distractor_diamondtriangles.svg	stimuli_target_diamondcircles.svg	31	yes	57	0	443
6.6.1	mac	2022-12-14	13:04:30	13:09:57	325672	5f6d0c1efaad4d16c44fdd6d	192811825	1	main_slash	7	main_slash	145	stimuli_distractor_diamondtriangles.svg	stimuli_distractor_diamondtriangles.svg	40	no	0	1	2000
6.6.1	mac	2022-12-14	13:04:30	13:09:57	325672	5f6d0c1efaad4d16c44fdd6d	192811825	1	main_slash	7	advance_on_keypress_SLASH	146	stimuli_distractor_diamondtriangles.svg	stimuli_distractor_diamondtriangles.svg	40	no	57	0	423
6.6.1	mac	2022-12-14	13:04:30	13:09:59	327156	5f6d0c1efaad4d16c44fdd6d	192811825	1	main_slash	7	main_slash	147	stimuli_target_squaretriangles.svg	stimuli_distractor_trianglediamonds.svg	3	yes	53	1	432
6.6.1	mac	2022-12-14	13:04:30	13:09:59	327156	5f6d0c1efaad4d16c44fdd6d	192811825	1	main_slash	7	advance_on_keypress_SLASH	148	stimuli_target_squaretriangles.svg	stimuli_distractor_trianglediamonds.svg	3	yes	57	0	433
6.6.1	mac	2022-12-14	13:04:30	13:10:00	328514	5f6d0c1efaad4d16c44fdd6d	192811825	1	main_slash	7	main_slash	149	stimuli_target_circletriangles.svg	stimuli_distractor_trianglediamonds.svg	1	yes	53	1	291
6.6.1	mac	2022-12-14	13:04:30	13:10:00	328514	5f6d0c1efaad4d16c44fdd6d	192811825	1	main_slash	7	advance_on_keypress_SLASH	150	stimuli_target_circletriangles.svg	stimuli_distractor_trianglediamonds.svg	1	yes	57	0	367
6.6.1	mac	2022-12-14	13:04:30	13:10:02	330437	5f6d0c1efaad4d16c44fdd6d	192811825	1	main_slash	7	main_slash	151	stimuli_distractor_diamondtriangles.svg	stimuli_target_squaretriangles.svg	15	yes	53	1	931
6.6.1	mac	2022-12-14	13:04:30	13:10:02	330437	5f6d0c1efaad4d16c44fdd6d	192811825	1	main_slash	7	advance_on_keypress_SLASH	152	stimuli_distractor_diamondtriangles.svg	stimuli_target_squaretriangles.svg	15	yes	57	0	408
6.6.1	mac	2022-12-14	13:04:30	13:10:04	332123	5f6d0c1efaad4d16c44fdd6d	192811825	1	main_slash	7	main_slash	153	stimuli_distractor_diamondtriangles.svg	stimuli_distractor_trianglediamonds.svg	38	no	53	0	650
6.6.1	mac	2022-12-14	13:04:30	13:10:04	332123	5f6d0c1efaad4d16c44fdd6d	192811825	1	main_slash	7	advance_on_keypress_SLASH	154	stimuli_distractor_diamondtriangles.svg	stimuli_distractor_trianglediamonds.svg	38	no	57	0	1597
6.6.1	mac	2022-12-14	13:04:30	13:10:06	334724	5f6d0c1efaad4d16c44fdd6d	192811825	1	main_slash	7	main_slash	155	stimuli_target_circletriangles.svg	stimuli_distractor_diamondtriangles.svg	5	yes	53	1	368
6.6.1	mac	2022-12-14	13:04:30	13:10:06	334724	5f6d0c1efaad4d16c44fdd6d	192811825	1	main_slash	7	advance_on_keypress_SLASH	156	stimuli_target_circletriangles.svg	stimuli_distractor_diamondtriangles.svg	5	yes	57	0	547
6.6.1	mac	2022-12-14	13:04:30	13:10:08	336383	5f6d0c1efaad4d16c44fdd6d	192811825	1	main_slash	7	main_slash	157	stimuli_distractor_trianglediamonds.svg	stimuli_target_diamondcircles.svg	27	yes	53	1	476
6.6.1	mac	2022-12-14	13:04:30	13:10:08	336383	5f6d0c1efaad4d16c44fdd6d	192811825	1	main_slash	7	advance_on_keypress_SLASH	158	stimuli_distractor_trianglediamonds.svg	stimuli_target_diamondcircles.svg	27	yes	57	0	361
6.6.1	mac	2022-12-14	13:04:30	13:10:10	337932	5f6d0c1efaad4d16c44fdd6d	192811825	1	main_slash	7	main_slash	159	stimuli_target_trianglesquares.svg	stimuli_distractor_diamondtriangles.svg	22	yes	53	1	576
6.6.1	mac	2022-12-14	13:04:30	13:10:10	337932	5f6d0c1efaad4d16c44fdd6d	192811825	1	main_slash	7	advance_on_keypress_SLASH	160	stimuli_target_trianglesquares.svg	stimuli_distractor_diamondtriangles.svg	22	yes	57	0	785
6.6.1	mac	2022-12-14	13:04:30	13:10:28	355823	5f6d0c1efaad4d16c44fdd6d	192811825	1	practice_z	9	practice_z	1	stimuli_distractor_trianglediamonds.svg	stimuli_target_circlediamonds.svg	10	yes	44	1	496
6.6.1	mac	2022-12-14	13:04:30	13:10:28	355823	5f6d0c1efaad4d16c44fdd6d	192811825	1	practice_z	9	advance_on_keypress_ZEE	2	stimuli_distractor_trianglediamonds.svg	stimuli_target_circlediamonds.svg	10	yes	57	0	473
6.6.1	mac	2022-12-14	13:04:30	13:10:30	358273	5f6d0c1efaad4d16c44fdd6d	192811825	1	practice_z	9	practice_z	3	stimuli_target_diamondsquares.svg	stimuli_distractor_diamondtriangles.svg	3	yes	44	1	297
6.6.1	mac	2022-12-14	13:04:30	13:10:30	358273	5f6d0c1efaad4d16c44fdd6d	192811825	1	practice_z	9	advance_on_keypress_ZEE	4	stimuli_target_diamondsquares.svg	stimuli_distractor_diamondtriangles.svg	3	yes	57	0	460
6.6.1	mac	2022-12-14	13:04:30	13:10:32	360695	5f6d0c1efaad4d16c44fdd6d	192811825	1	practice_z	9	practice_z	5	stimuli_distractor_diamondtriangles.svg	stimuli_target_trianglecircles.svg	9	yes	44	1	321
6.6.1	mac	2022-12-14	13:04:30	13:10:32	360695	5f6d0c1efaad4d16c44fdd6d	192811825	1	practice_z	9	advance_on_keypress_ZEE	6	stimuli_distractor_diamondtriangles.svg	stimuli_target_trianglecircles.svg	9	yes	57	0	330
6.6.1	mac	2022-12-14	13:04:30	13:10:35	363051	5f6d0c1efaad4d16c44fdd6d	192811825	1	practice_z	9	practice_z	7	stimuli_target_circlediamonds.svg	stimuli_distractor_diamondtriangles.svg	1	yes	44	1	394
6.6.1	mac	2022-12-14	13:04:30	13:10:35	363051	5f6d0c1efaad4d16c44fdd6d	192811825	1	practice_z	9	advance_on_keypress_ZEE	8	stimuli_target_circlediamonds.svg	stimuli_distractor_diamondtriangles.svg	1	yes	57	0	303
6.6.1	mac	2022-12-14	13:04:30	13:10:39	366975	5f6d0c1efaad4d16c44fdd6d	192811825	1	practice_z	9	practice_z	9	stimuli_distractor_diamondtriangles.svg	stimuli_distractor_trianglediamonds.svg	14	no	0	1	2000
6.6.1	mac	2022-12-14	13:04:30	13:10:39	366975	5f6d0c1efaad4d16c44fdd6d	192811825	1	practice_z	9	advance_on_keypress_ZEE	10	stimuli_distractor_diamondtriangles.svg	stimuli_distractor_trianglediamonds.svg	14	no	57	0	457
6.6.1	mac	2022-12-14	13:04:30	13:10:41	369680	5f6d0c1efaad4d16c44fdd6d	192811825	1	practice_z	9	practice_z	11	stimuli_distractor_trianglediamonds.svg	stimuli_target_diamondcircles.svg	12	yes	44	1	621
6.6.1	mac	2022-12-14	13:04:30	13:10:41	369680	5f6d0c1efaad4d16c44fdd6d	192811825	1	practice_z	9	advance_on_keypress_ZEE	12	stimuli_distractor_trianglediamonds.svg	stimuli_target_diamondcircles.svg	12	yes	57	0	286
6.6.1	mac	2022-12-14	13:04:30	13:10:44	371966	5f6d0c1efaad4d16c44fdd6d	192811825	1	practice_z	9	practice_z	13	stimuli_distractor_diamondtriangles.svg	stimuli_target_diamondcircles.svg	8	yes	44	1	371
6.6.1	mac	2022-12-14	13:04:30	13:10:44	371966	5f6d0c1efaad4d16c44fdd6d	192811825	1	practice_z	9	advance_on_keypress_ZEE	14	stimuli_distractor_diamondtriangles.svg	stimuli_target_diamondcircles.svg	8	yes	57	0	509
6.6.1	mac	2022-12-14	13:04:30	13:10:46	374536	5f6d0c1efaad4d16c44fdd6d	192811825	1	practice_z	9	practice_z	15	stimuli_distractor_trianglediamonds.svg	stimuli_distractor_diamondtriangles.svg	16	no	44	0	426
6.6.1	mac	2022-12-14	13:04:30	13:10:46	374536	5f6d0c1efaad4d16c44fdd6d	192811825	1	practice_z	9	advance_on_keypress_ZEE	16	stimuli_distractor_trianglediamonds.svg	stimuli_distractor_diamondtriangles.svg	16	no	57	0	474
6.6.1	mac	2022-12-14	13:04:30	13:10:50	378642	5f6d0c1efaad4d16c44fdd6d	192811825	1	practice_z	9	practice_z	17	stimuli_distractor_trianglediamonds.svg	stimuli_distractor_trianglediamonds.svg	15	no	0	1	2000
6.6.1	mac	2022-12-14	13:04:30	13:10:50	378642	5f6d0c1efaad4d16c44fdd6d	192811825	1	practice_z	9	advance_on_keypress_ZEE	18	stimuli_distractor_trianglediamonds.svg	stimuli_distractor_trianglediamonds.svg	15	no	57	0	294
6.6.1	mac	2022-12-14	13:04:30	13:10:53	380972	5f6d0c1efaad4d16c44fdd6d	192811825	1	practice_z	9	practice_z	19	stimuli_distractor_diamondtriangles.svg	stimuli_target_circletriangles.svg	7	yes	44	1	396
6.6.1	mac	2022-12-14	13:04:30	13:10:53	380972	5f6d0c1efaad4d16c44fdd6d	192811825	1	practice_z	9	advance_on_keypress_ZEE	20	stimuli_distractor_diamondtriangles.svg	stimuli_target_circletriangles.svg	7	yes	57	0	317
6.6.1	mac	2022-12-14	13:04:30	13:10:55	383364	5f6d0c1efaad4d16c44fdd6d	192811825	1	practice_z	9	practice_z	21	stimuli_target_circlediamonds.svg	stimuli_distractor_trianglediamonds.svg	4	yes	44	1	438
6.6.1	mac	2022-12-14	13:04:30	13:10:55	383364	5f6d0c1efaad4d16c44fdd6d	192811825	1	practice_z	9	advance_on_keypress_ZEE	22	stimuli_target_circlediamonds.svg	stimuli_distractor_trianglediamonds.svg	4	yes	57	0	274
6.6.1	mac	2022-12-14	13:04:30	13:10:58	385797	5f6d0c1efaad4d16c44fdd6d	192811825	1	practice_z	9	practice_z	23	stimuli_distractor_trianglediamonds.svg	stimuli_target_squarediamonds.svg	11	yes	44	1	522
6.6.1	mac	2022-12-14	13:04:30	13:10:58	385797	5f6d0c1efaad4d16c44fdd6d	192811825	1	practice_z	9	advance_on_keypress_ZEE	24	stimuli_distractor_trianglediamonds.svg	stimuli_target_squarediamonds.svg	11	yes	57	0	249
6.6.1	mac	2022-12-14	13:04:30	13:11:00	388018	5f6d0c1efaad4d16c44fdd6d	192811825	1	practice_z	9	practice_z	25	stimuli_target_squarediamonds.svg	stimuli_distractor_trianglediamonds.svg	5	yes	44	1	341
6.6.1	mac	2022-12-14	13:04:30	13:11:00	388018	5f6d0c1efaad4d16c44fdd6d	192811825	1	practice_z	9	advance_on_keypress_ZEE	26	stimuli_target_squarediamonds.svg	stimuli_distractor_trianglediamonds.svg	5	yes	57	0	311
6.6.1	mac	2022-12-14	13:04:30	13:11:02	390266	5f6d0c1efaad4d16c44fdd6d	192811825	1	practice_z	9	practice_z	27	stimuli_target_squarediamonds.svg	stimuli_distractor_diamondtriangles.svg	2	yes	44	1	305
6.6.1	mac	2022-12-14	13:04:30	13:11:02	390266	5f6d0c1efaad4d16c44fdd6d	192811825	1	practice_z	9	advance_on_keypress_ZEE	28	stimuli_target_squarediamonds.svg	stimuli_distractor_diamondtriangles.svg	2	yes	57	0	315
6.6.1	mac	2022-12-14	13:04:30	13:11:05	392871	5f6d0c1efaad4d16c44fdd6d	192811825	1	practice_z	9	practice_z	29	stimuli_target_diamondsquares.svg	stimuli_distractor_trianglediamonds.svg	6	yes	44	1	659
6.6.1	mac	2022-12-14	13:04:30	13:11:05	392871	5f6d0c1efaad4d16c44fdd6d	192811825	1	practice_z	9	advance_on_keypress_ZEE	30	stimuli_target_diamondsquares.svg	stimuli_distractor_trianglediamonds.svg	6	yes	57	0	262
6.6.1	mac	2022-12-14	13:04:30	13:11:08	396778	5f6d0c1efaad4d16c44fdd6d	192811825	1	practice_z	9	practice_z	31	stimuli_distractor_diamondtriangles.svg	stimuli_distractor_diamondtriangles.svg	13	no	0	1	2000
6.6.1	mac	2022-12-14	13:04:30	13:11:08	396778	5f6d0c1efaad4d16c44fdd6d	192811825	1	practice_z	9	advance_on_keypress_ZEE	32	stimuli_distractor_diamondtriangles.svg	stimuli_distractor_diamondtriangles.svg	13	no	57	0	370
6.6.1	mac	2022-12-14	13:04:30	13:11:53	441470	5f6d0c1efaad4d16c44fdd6d	192811825	1	main_z	11	main_z	1	stimuli_target_trianglecircles.svg	stimuli_distractor_trianglediamonds.svg	17	yes	44	1	473
6.6.1	mac	2022-12-14	13:04:30	13:11:53	441470	5f6d0c1efaad4d16c44fdd6d	192811825	1	main_z	11	advance_on_keypress_ZEE	2	stimuli_target_trianglecircles.svg	stimuli_distractor_trianglediamonds.svg	17	yes	57	0	2494
6.6.1	mac	2022-12-14	13:04:30	13:11:57	444860	5f6d0c1efaad4d16c44fdd6d	192811825	1	main_z	11	main_z	3	stimuli_distractor_diamondtriangles.svg	stimuli_target_squaretriangles.svg	15	yes	44	1	263
6.6.1	mac	2022-12-14	13:04:30	13:11:57	444860	5f6d0c1efaad4d16c44fdd6d	192811825	1	main_z	11	advance_on_keypress_ZEE	4	stimuli_distractor_diamondtriangles.svg	stimuli_target_squaretriangles.svg	15	yes	57	0	482
6.6.1	mac	2022-12-14	13:04:30	13:11:58	446420	5f6d0c1efaad4d16c44fdd6d	192811825	1	main_z	11	main_z	5	stimuli_target_diamondsquares.svg	stimuli_distractor_trianglediamonds.svg	20	yes	44	1	438
6.6.1	mac	2022-12-14	13:04:30	13:11:58	446420	5f6d0c1efaad4d16c44fdd6d	192811825	1	main_z	11	advance_on_keypress_ZEE	6	stimuli_target_diamondsquares.svg	stimuli_distractor_trianglediamonds.svg	20	yes	57	0	951
6.6.1	mac	2022-12-14	13:04:30	13:12:00	448357	5f6d0c1efaad4d16c44fdd6d	192811825	1	main_z	11	main_z	7	stimuli_distractor_trianglediamonds.svg	stimuli_target_circlediamonds.svg	10	yes	44	1	343
6.6.1	mac	2022-12-14	13:04:30	13:12:00	448357	5f6d0c1efaad4d16c44fdd6d	192811825	1	main_z	11	advance_on_keypress_ZEE	8	stimuli_distractor_trianglediamonds.svg	stimuli_target_circlediamonds.svg	10	yes	57	0	482
6.6.1	mac	2022-12-14	13:04:30	13:12:03	451464	5f6d0c1efaad4d16c44fdd6d	192811825	1	main_z	11	main_z	9	stimuli_distractor_trianglediamonds.svg	stimuli_distractor_diamondtriangles.svg	35	no	0	1	2000
6.6.1	mac	2022-12-14	13:04:30	13:12:03	451464	5f6d0c1efaad4d16c44fdd6d	192811825	1	main_z	11	advance_on_keypress_ZEE	10	stimuli_distractor_trianglediamonds.svg	stimuli_distractor_diamondtriangles.svg	35	no	57	0	621
6.6.1	mac	2022-12-14	13:04:30	13:12:05	453098	5f6d0c1efaad4d16c44fdd6d	192811825	1	main_z	11	main_z	11	stimuli_distractor_trianglediamonds.svg	stimuli_target_squaretriangles.svg	11	yes	44	1	382
6.6.1	mac	2022-12-14	13:04:30	13:12:05	453098	5f6d0c1efaad4d16c44fdd6d	192811825	1	main_z	11	advance_on_keypress_ZEE	12	stimuli_distractor_trianglediamonds.svg	stimuli_target_squaretriangles.svg	11	yes	57	0	711
6.6.1	mac	2022-12-14	13:04:30	13:12:08	456446	5f6d0c1efaad4d16c44fdd6d	192811825	1	main_z	11	main_z	13	stimuli_distractor_diamondtriangles.svg	stimuli_distractor_trianglediamonds.svg	37	no	0	1	2000
6.6.1	mac	2022-12-14	13:04:30	13:12:08	456446	5f6d0c1efaad4d16c44fdd6d	192811825	1	main_z	11	advance_on_keypress_ZEE	14	stimuli_distractor_diamondtriangles.svg	stimuli_distractor_trianglediamonds.svg	37	no	57	0	535
6.6.1	mac	2022-12-14	13:04:30	13:12:10	457927	5f6d0c1efaad4d16c44fdd6d	192811825	1	main_z	11	main_z	15	stimuli_target_squarediamonds.svg	stimuli_distractor_diamondtriangles.svg	8	yes	44	1	313
6.6.1	mac	2022-12-14	13:04:30	13:12:10	457927	5f6d0c1efaad4d16c44fdd6d	192811825	1	main_z	11	advance_on_keypress_ZEE	16	stimuli_target_squarediamonds.svg	stimuli_distractor_diamondtriangles.svg	8	yes	57	0	486
6.6.1	mac	2022-12-14	13:04:30	13:12:11	459567	5f6d0c1efaad4d16c44fdd6d	192811825	1	main_z	11	main_z	17	stimuli_distractor_diamondtriangles.svg	stimuli_target_trianglesquares.svg	30	yes	44	1	520
6.6.1	mac	2022-12-14	13:04:30	13:12:11	459567	5f6d0c1efaad4d16c44fdd6d	192811825	1	main_z	11	advance_on_keypress_ZEE	18	stimuli_distractor_diamondtriangles.svg	stimuli_target_trianglesquares.svg	30	yes	57	0	664
6.6.1	mac	2022-12-14	13:04:30	13:12:13	461291	5f6d0c1efaad4d16c44fdd6d	192811825	1	main_z	11	main_z	19	stimuli_target_circletriangles.svg	stimuli_distractor_trianglediamonds.svg	1	yes	44	1	425
6.6.1	mac	2022-12-14	13:04:30	13:12:13	461291	5f6d0c1efaad4d16c44fdd6d	192811825	1	main_z	11	advance_on_keypress_ZEE	20	stimuli_target_circletriangles.svg	stimuli_distractor_trianglediamonds.svg	1	yes	57	0	537
6.6.1	mac	2022-12-14	13:04:30	13:12:15	462871	5f6d0c1efaad4d16c44fdd6d	192811825	1	main_z	11	main_z	21	stimuli_distractor_diamondtriangles.svg	stimuli_distractor_trianglediamonds.svg	38	no	44	0	404
6.6.1	mac	2022-12-14	13:04:30	13:12:15	462871	5f6d0c1efaad4d16c44fdd6d	192811825	1	main_z	11	advance_on_keypress_ZEE	22	stimuli_distractor_diamondtriangles.svg	stimuli_distractor_trianglediamonds.svg	38	no	57	0	1228
6.6.1	mac	2022-12-14	13:04:30	13:12:17	465219	5f6d0c1efaad4d16c44fdd6d	192811825	1	main_z	11	main_z	23	stimuli_target_diamondcircles.svg	stimuli_distractor_trianglediamonds.svg	19	yes	44	1	487
6.6.1	mac	2022-12-14	13:04:30	13:12:17	465219	5f6d0c1efaad4d16c44fdd6d	192811825	1	main_z	11	advance_on_keypress_ZEE	24	stimuli_target_diamondcircles.svg	stimuli_distractor_trianglediamonds.svg	19	yes	57	0	615
6.6.1	mac	2022-12-14	13:04:30	13:12:19	466854	5f6d0c1efaad4d16c44fdd6d	192811825	1	main_z	11	main_z	25	stimuli_distractor_diamondtriangles.svg	stimuli_target_diamondcircles.svg	31	yes	44	1	389
6.6.1	mac	2022-12-14	13:04:30	13:12:19	466854	5f6d0c1efaad4d16c44fdd6d	192811825	1	main_z	11	advance_on_keypress_ZEE	26	stimuli_distractor_diamondtriangles.svg	stimuli_target_diamondcircles.svg	31	yes	57	0	558
6.6.1	mac	2022-12-14	13:04:30	13:12:20	468507	5f6d0c1efaad4d16c44fdd6d	192811825	1	main_z	11	main_z	27	stimuli_distractor_diamondtriangles.svg	stimuli_target_diamondsquares.svg	32	yes	44	1	458
6.6.1	mac	2022-12-14	13:04:30	13:12:20	468507	5f6d0c1efaad4d16c44fdd6d	192811825	1	main_z	11	advance_on_keypress_ZEE	28	stimuli_distractor_diamondtriangles.svg	stimuli_target_diamondsquares.svg	32	yes	57	0	718
6.6.1	mac	2022-12-14	13:04:30	13:12:22	470337	5f6d0c1efaad4d16c44fdd6d	192811825	1	main_z	11	main_z	29	stimuli_target_trianglesquares.svg	stimuli_distractor_trianglediamonds.svg	18	yes	44	1	488
6.6.1	mac	2022-12-14	13:04:30	13:12:22	470337	5f6d0c1efaad4d16c44fdd6d	192811825	1	main_z	11	advance_on_keypress_ZEE	30	stimuli_target_trianglesquares.svg	stimuli_distractor_trianglediamonds.svg	18	yes	57	0	657
6.6.1	mac	2022-12-14	13:04:30	13:12:24	472584	5f6d0c1efaad4d16c44fdd6d	192811825	1	main_z	11	main_z	31	stimuli_distractor_trianglediamonds.svg	stimuli_target_squarediamonds.svg	12	yes	44	1	969
6.6.1	mac	2022-12-14	13:04:30	13:12:24	472584	5f6d0c1efaad4d16c44fdd6d	192811825	1	main_z	11	advance_on_keypress_ZEE	32	stimuli_distractor_trianglediamonds.svg	stimuli_target_squarediamonds.svg	12	yes	57	0	505
6.6.1	mac	2022-12-14	13:04:30	13:12:26	474231	5f6d0c1efaad4d16c44fdd6d	192811825	1	main_z	11	main_z	33	stimuli_distractor_trianglediamonds.svg	stimuli_target_trianglecircles.svg	25	yes	44	1	516
6.6.1	mac	2022-12-14	13:04:30	13:12:26	474231	5f6d0c1efaad4d16c44fdd6d	192811825	1	main_z	11	advance_on_keypress_ZEE	34	stimuli_distractor_trianglediamonds.svg	stimuli_target_trianglecircles.svg	25	yes	57	0	507
6.6.1	mac	2022-12-14	13:04:30	13:12:29	477382	5f6d0c1efaad4d16c44fdd6d	192811825	1	main_z	11	main_z	35	stimuli_distractor_diamondtriangles.svg	stimuli_distractor_diamondtriangles.svg	40	no	0	1	2000
6.6.1	mac	2022-12-14	13:04:30	13:12:29	477382	5f6d0c1efaad4d16c44fdd6d	192811825	1	main_z	11	advance_on_keypress_ZEE	36	stimuli_distractor_diamondtriangles.svg	stimuli_distractor_diamondtriangles.svg	40	no	57	0	317
6.6.1	mac	2022-12-14	13:04:30	13:12:30	478699	5f6d0c1efaad4d16c44fdd6d	192811825	1	main_z	11	main_z	37	stimuli_target_circlediamonds.svg	stimuli_distractor_trianglediamonds.svg	2	yes	44	1	365
6.6.1	mac	2022-12-14	13:04:30	13:12:30	478699	5f6d0c1efaad4d16c44fdd6d	192811825	1	main_z	11	advance_on_keypress_ZEE	38	stimuli_target_circlediamonds.svg	stimuli_distractor_trianglediamonds.svg	2	yes	57	0	502
6.6.1	mac	2022-12-14	13:04:30	13:12:32	480371	5f6d0c1efaad4d16c44fdd6d	192811825	1	main_z	11	main_z	39	stimuli_target_squarediamonds.svg	stimuli_distractor_trianglediamonds.svg	4	yes	44	1	538
6.6.1	mac	2022-12-14	13:04:30	13:12:32	480371	5f6d0c1efaad4d16c44fdd6d	192811825	1	main_z	11	advance_on_keypress_ZEE	40	stimuli_target_squarediamonds.svg	stimuli_distractor_trianglediamonds.svg	4	yes	57	0	360
6.6.1	mac	2022-12-14	13:04:30	13:12:34	481826	5f6d0c1efaad4d16c44fdd6d	192811825	1	main_z	11	main_z	41	stimuli_target_diamondcircles.svg	stimuli_distractor_diamondtriangles.svg	23	yes	44	1	459
6.6.1	mac	2022-12-14	13:04:30	13:12:34	481826	5f6d0c1efaad4d16c44fdd6d	192811825	1	main_z	11	advance_on_keypress_ZEE	42	stimuli_target_diamondcircles.svg	stimuli_distractor_diamondtriangles.svg	23	yes	57	0	401
6.6.1	mac	2022-12-14	13:04:30	13:12:35	483259	5f6d0c1efaad4d16c44fdd6d	192811825	1	main_z	11	main_z	43	stimuli_target_trianglesquares.svg	stimuli_distractor_diamondtriangles.svg	22	yes	44	1	409
6.6.1	mac	2022-12-14	13:04:30	13:12:35	483259	5f6d0c1efaad4d16c44fdd6d	192811825	1	main_z	11	advance_on_keypress_ZEE	44	stimuli_target_trianglesquares.svg	stimuli_distractor_diamondtriangles.svg	22	yes	57	0	372
6.6.1	mac	2022-12-14	13:04:30	13:12:36	484677	5f6d0c1efaad4d16c44fdd6d	192811825	1	main_z	11	main_z	45	stimuli_target_squaretriangles.svg	stimuli_distractor_diamondtriangles.svg	7	yes	44	1	410
6.6.1	mac	2022-12-14	13:04:30	13:12:36	484677	5f6d0c1efaad4d16c44fdd6d	192811825	1	main_z	11	advance_on_keypress_ZEE	46	stimuli_target_squaretriangles.svg	stimuli_distractor_diamondtriangles.svg	7	yes	57	0	361
6.6.1	mac	2022-12-14	13:04:30	13:12:38	486040	5f6d0c1efaad4d16c44fdd6d	192811825	1	main_z	11	main_z	47	stimuli_target_trianglecircles.svg	stimuli_distractor_diamondtriangles.svg	21	yes	44	1	372
6.6.1	mac	2022-12-14	13:04:30	13:12:38	486040	5f6d0c1efaad4d16c44fdd6d	192811825	1	main_z	11	advance_on_keypress_ZEE	48	stimuli_target_trianglecircles.svg	stimuli_distractor_diamondtriangles.svg	21	yes	57	0	345
6.6.1	mac	2022-12-14	13:04:30	13:12:39	487526	5f6d0c1efaad4d16c44fdd6d	192811825	1	main_z	11	main_z	49	stimuli_distractor_trianglediamonds.svg	stimuli_target_circletriangles.svg	9	yes	44	1	509
6.6.1	mac	2022-12-14	13:04:30	13:12:39	487526	5f6d0c1efaad4d16c44fdd6d	192811825	1	main_z	11	advance_on_keypress_ZEE	50	stimuli_distractor_trianglediamonds.svg	stimuli_target_circletriangles.svg	9	yes	57	0	308
6.6.1	mac	2022-12-14	13:04:30	13:12:41	488842	5f6d0c1efaad4d16c44fdd6d	192811825	1	main_z	11	main_z	51	stimuli_distractor_diamondtriangles.svg	stimuli_target_trianglecircles.svg	29	yes	44	1	391
6.6.1	mac	2022-12-14	13:04:30	13:12:41	488842	5f6d0c1efaad4d16c44fdd6d	192811825	1	main_z	11	advance_on_keypress_ZEE	52	stimuli_distractor_diamondtriangles.svg	stimuli_target_trianglecircles.svg	29	yes	57	0	321
6.6.1	mac	2022-12-14	13:04:30	13:12:42	490193	5f6d0c1efaad4d16c44fdd6d	192811825	1	main_z	11	main_z	53	stimuli_distractor_trianglediamonds.svg	stimuli_target_trianglesquares.svg	26	yes	44	1	391
6.6.1	mac	2022-12-14	13:04:30	13:12:42	490193	5f6d0c1efaad4d16c44fdd6d	192811825	1	main_z	11	advance_on_keypress_ZEE	54	stimuli_distractor_trianglediamonds.svg	stimuli_target_trianglesquares.svg	26	yes	57	0	376
6.6.1	mac	2022-12-14	13:04:30	13:12:45	493200	5f6d0c1efaad4d16c44fdd6d	192811825	1	main_z	11	main_z	55	stimuli_distractor_trianglediamonds.svg	stimuli_distractor_trianglediamonds.svg	33	no	0	1	2000
6.6.1	mac	2022-12-14	13:04:30	13:12:45	493200	5f6d0c1efaad4d16c44fdd6d	192811825	1	main_z	11	advance_on_keypress_ZEE	56	stimuli_distractor_trianglediamonds.svg	stimuli_distractor_trianglediamonds.svg	33	no	57	0	281
6.6.1	mac	2022-12-14	13:04:30	13:12:46	494468	5f6d0c1efaad4d16c44fdd6d	192811825	1	main_z	11	main_z	57	stimuli_target_squaretriangles.svg	stimuli_distractor_trianglediamonds.svg	3	yes	44	1	350
6.6.1	mac	2022-12-14	13:04:30	13:12:46	494468	5f6d0c1efaad4d16c44fdd6d	192811825	1	main_z	11	advance_on_keypress_ZEE	58	stimuli_target_squaretriangles.svg	stimuli_distractor_trianglediamonds.svg	3	yes	57	0	400
6.6.1	mac	2022-12-14	13:04:30	13:12:48	495994	5f6d0c1efaad4d16c44fdd6d	192811825	1	main_z	11	main_z	59	stimuli_target_diamondsquares.svg	stimuli_distractor_diamondtriangles.svg	24	yes	44	1	493
6.6.1	mac	2022-12-14	13:04:30	13:12:48	495994	5f6d0c1efaad4d16c44fdd6d	192811825	1	main_z	11	advance_on_keypress_ZEE	60	stimuli_target_diamondsquares.svg	stimuli_distractor_diamondtriangles.svg	24	yes	57	0	330
6.6.1	mac	2022-12-14	13:04:30	13:12:49	497335	5f6d0c1efaad4d16c44fdd6d	192811825	1	main_z	11	main_z	61	stimuli_distractor_diamondtriangles.svg	stimuli_target_circletriangles.svg	13	yes	44	1	383
6.6.1	mac	2022-12-14	13:04:30	13:12:49	497335	5f6d0c1efaad4d16c44fdd6d	192811825	1	main_z	11	advance_on_keypress_ZEE	62	stimuli_distractor_diamondtriangles.svg	stimuli_target_circletriangles.svg	13	yes	57	0	1008
6.6.1	mac	2022-12-14	13:04:30	13:12:51	499454	5f6d0c1efaad4d16c44fdd6d	192811825	1	main_z	11	main_z	63	stimuli_distractor_trianglediamonds.svg	stimuli_target_diamondcircles.svg	27	yes	44	1	487
6.6.1	mac	2022-12-14	13:04:30	13:12:51	499454	5f6d0c1efaad4d16c44fdd6d	192811825	1	main_z	11	advance_on_keypress_ZEE	64	stimuli_distractor_trianglediamonds.svg	stimuli_target_diamondcircles.svg	27	yes	57	0	360
6.6.1	mac	2022-12-14	13:04:30	13:12:53	500859	5f6d0c1efaad4d16c44fdd6d	192811825	1	main_z	11	main_z	65	stimuli_distractor_diamondtriangles.svg	stimuli_target_squarediamonds.svg	16	yes	44	1	425
6.6.1	mac	2022-12-14	13:04:30	13:12:53	500859	5f6d0c1efaad4d16c44fdd6d	192811825	1	main_z	11	advance_on_keypress_ZEE	66	stimuli_distractor_diamondtriangles.svg	stimuli_target_squarediamonds.svg	16	yes	57	0	337
6.6.1	mac	2022-12-14	13:04:30	13:12:56	503833	5f6d0c1efaad4d16c44fdd6d	192811825	1	main_z	11	main_z	67	stimuli_distractor_trianglediamonds.svg	stimuli_distractor_diamondtriangles.svg	36	no	0	1	2000
6.6.1	mac	2022-12-14	13:04:30	13:12:56	503833	5f6d0c1efaad4d16c44fdd6d	192811825	1	main_z	11	advance_on_keypress_ZEE	68	stimuli_distractor_trianglediamonds.svg	stimuli_distractor_diamondtriangles.svg	36	no	57	0	602
6.6.1	mac	2022-12-14	13:04:30	13:12:59	507068	5f6d0c1efaad4d16c44fdd6d	192811825	1	main_z	11	main_z	69	stimuli_distractor_trianglediamonds.svg	stimuli_distractor_trianglediamonds.svg	34	no	0	1	2000
6.6.1	mac	2022-12-14	13:04:30	13:12:59	507068	5f6d0c1efaad4d16c44fdd6d	192811825	1	main_z	11	advance_on_keypress_ZEE	70	stimuli_distractor_trianglediamonds.svg	stimuli_distractor_trianglediamonds.svg	34	no	57	0	320
6.6.1	mac	2022-12-14	13:04:30	13:13:00	508450	5f6d0c1efaad4d16c44fdd6d	192811825	1	main_z	11	main_z	71	stimuli_target_circletriangles.svg	stimuli_distractor_diamondtriangles.svg	5	yes	44	1	431
6.6.1	mac	2022-12-14	13:04:30	13:13:00	508450	5f6d0c1efaad4d16c44fdd6d	192811825	1	main_z	11	advance_on_keypress_ZEE	72	stimuli_target_circletriangles.svg	stimuli_distractor_diamondtriangles.svg	5	yes	57	0	398
6.6.1	mac	2022-12-14	13:04:30	13:13:02	509861	5f6d0c1efaad4d16c44fdd6d	192811825	1	main_z	11	main_z	73	stimuli_distractor_trianglediamonds.svg	stimuli_target_diamondsquares.svg	28	yes	44	1	374
6.6.1	mac	2022-12-14	13:04:30	13:13:02	509861	5f6d0c1efaad4d16c44fdd6d	192811825	1	main_z	11	advance_on_keypress_ZEE	74	stimuli_distractor_trianglediamonds.svg	stimuli_target_diamondsquares.svg	28	yes	57	0	352
6.6.1	mac	2022-12-14	13:04:30	13:13:03	511237	5f6d0c1efaad4d16c44fdd6d	192811825	1	main_z	11	main_z	75	stimuli_distractor_diamondtriangles.svg	stimuli_target_circlediamonds.svg	14	yes	44	1	401
6.6.1	mac	2022-12-14	13:04:30	13:13:03	511237	5f6d0c1efaad4d16c44fdd6d	192811825	1	main_z	11	advance_on_keypress_ZEE	76	stimuli_distractor_diamondtriangles.svg	stimuli_target_circlediamonds.svg	14	yes	57	0	361
6.6.1	mac	2022-12-14	13:04:30	13:13:04	512638	5f6d0c1efaad4d16c44fdd6d	192811825	1	main_z	11	main_z	77	stimuli_target_circlediamonds.svg	stimuli_distractor_diamondtriangles.svg	6	yes	44	1	402
6.6.1	mac	2022-12-14	13:04:30	13:13:04	512638	5f6d0c1efaad4d16c44fdd6d	192811825	1	main_z	11	advance_on_keypress_ZEE	78	stimuli_target_circlediamonds.svg	stimuli_distractor_diamondtriangles.svg	6	yes	57	0	523
6.6.1	mac	2022-12-14	13:04:30	13:13:07	515785	5f6d0c1efaad4d16c44fdd6d	192811825	1	main_z	11	main_z	79	stimuli_distractor_diamondtriangles.svg	stimuli_distractor_diamondtriangles.svg	39	no	0	1	2000
6.6.1	mac	2022-12-14	13:04:30	13:13:07	515785	5f6d0c1efaad4d16c44fdd6d	192811825	1	main_z	11	advance_on_keypress_ZEE	80	stimuli_distractor_diamondtriangles.svg	stimuli_distractor_diamondtriangles.svg	39	no	57	0	296
6.6.1	mac	2022-12-14	13:04:30	13:13:09	517535	5f6d0c1efaad4d16c44fdd6d	192811825	1	main_z	11	main_z	81	stimuli_target_diamondsquares.svg	stimuli_distractor_trianglediamonds.svg	20	yes	44	1	815
6.6.1	mac	2022-12-14	13:04:30	13:13:09	517535	5f6d0c1efaad4d16c44fdd6d	192811825	1	main_z	11	advance_on_keypress_ZEE	82	stimuli_target_diamondsquares.svg	stimuli_distractor_trianglediamonds.svg	20	yes	57	0	382
6.6.1	mac	2022-12-14	13:04:30	13:13:11	518937	5f6d0c1efaad4d16c44fdd6d	192811825	1	main_z	11	main_z	83	stimuli_target_squarediamonds.svg	stimuli_distractor_trianglediamonds.svg	4	yes	44	1	386
6.6.1	mac	2022-12-14	13:04:30	13:13:11	518937	5f6d0c1efaad4d16c44fdd6d	192811825	1	main_z	11	advance_on_keypress_ZEE	84	stimuli_target_squarediamonds.svg	stimuli_distractor_trianglediamonds.svg	4	yes	57	0	324
6.6.1	mac	2022-12-14	13:04:30	13:13:12	520256	5f6d0c1efaad4d16c44fdd6d	192811825	1	main_z	11	main_z	85	stimuli_target_trianglecircles.svg	stimuli_distractor_diamondtriangles.svg	21	yes	44	1	370
6.6.1	mac	2022-12-14	13:04:30	13:13:12	520256	5f6d0c1efaad4d16c44fdd6d	192811825	1	main_z	11	advance_on_keypress_ZEE	86	stimuli_target_trianglecircles.svg	stimuli_distractor_diamondtriangles.svg	21	yes	57	0	399
6.6.1	mac	2022-12-14	13:04:30	13:13:13	521728	5f6d0c1efaad4d16c44fdd6d	192811825	1	main_z	11	main_z	87	stimuli_target_trianglesquares.svg	stimuli_distractor_diamondtriangles.svg	22	yes	44	1	442
6.6.1	mac	2022-12-14	13:04:30	13:13:13	521728	5f6d0c1efaad4d16c44fdd6d	192811825	1	main_z	11	advance_on_keypress_ZEE	88	stimuli_target_trianglesquares.svg	stimuli_distractor_diamondtriangles.svg	22	yes	57	0	349
6.6.1	mac	2022-12-14	13:04:30	13:13:15	523086	5f6d0c1efaad4d16c44fdd6d	192811825	1	main_z	11	main_z	89	stimuli_distractor_diamondtriangles.svg	stimuli_target_circlediamonds.svg	14	yes	44	1	385
6.6.1	mac	2022-12-14	13:04:30	13:13:15	523086	5f6d0c1efaad4d16c44fdd6d	192811825	1	main_z	11	advance_on_keypress_ZEE	90	stimuli_distractor_diamondtriangles.svg	stimuli_target_circlediamonds.svg	14	yes	57	0	334
6.6.1	mac	2022-12-14	13:04:30	13:13:16	524473	5f6d0c1efaad4d16c44fdd6d	192811825	1	main_z	11	main_z	91	stimuli_distractor_diamondtriangles.svg	stimuli_target_trianglecircles.svg	29	yes	44	1	420
6.6.1	mac	2022-12-14	13:04:30	13:13:16	524473	5f6d0c1efaad4d16c44fdd6d	192811825	1	main_z	11	advance_on_keypress_ZEE	92	stimuli_distractor_diamondtriangles.svg	stimuli_target_trianglecircles.svg	29	yes	57	0	294
6.6.1	mac	2022-12-14	13:04:30	13:13:18	525817	5f6d0c1efaad4d16c44fdd6d	192811825	1	main_z	11	main_z	93	stimuli_distractor_trianglediamonds.svg	stimuli_distractor_diamondtriangles.svg	36	no	44	0	414
6.6.1	mac	2022-12-14	13:04:30	13:13:18	525817	5f6d0c1efaad4d16c44fdd6d	192811825	1	main_z	11	advance_on_keypress_ZEE	94	stimuli_distractor_trianglediamonds.svg	stimuli_distractor_diamondtriangles.svg	36	no	57	0	2114
6.6.1	mac	2022-12-14	13:04:30	13:13:21	529185	5f6d0c1efaad4d16c44fdd6d	192811825	1	main_z	11	main_z	95	stimuli_distractor_trianglediamonds.svg	stimuli_target_diamondsquares.svg	28	yes	44	1	615
6.6.1	mac	2022-12-14	13:04:30	13:13:21	529185	5f6d0c1efaad4d16c44fdd6d	192811825	1	main_z	11	advance_on_keypress_ZEE	96	stimuli_distractor_trianglediamonds.svg	stimuli_target_diamondsquares.svg	28	yes	57	0	341
6.6.1	mac	2022-12-14	13:04:30	13:13:22	530602	5f6d0c1efaad4d16c44fdd6d	192811825	1	main_z	11	main_z	97	stimuli_target_trianglecircles.svg	stimuli_distractor_trianglediamonds.svg	17	yes	44	1	449
6.6.1	mac	2022-12-14	13:04:30	13:13:22	530602	5f6d0c1efaad4d16c44fdd6d	192811825	1	main_z	11	advance_on_keypress_ZEE	98	stimuli_target_trianglecircles.svg	stimuli_distractor_trianglediamonds.svg	17	yes	57	0	422
6.6.1	mac	2022-12-14	13:04:30	13:13:24	532084	5f6d0c1efaad4d16c44fdd6d	192811825	1	main_z	11	main_z	99	stimuli_target_squaretriangles.svg	stimuli_distractor_trianglediamonds.svg	3	yes	44	1	430
6.6.1	mac	2022-12-14	13:04:30	13:13:24	532084	5f6d0c1efaad4d16c44fdd6d	192811825	1	main_z	11	advance_on_keypress_ZEE	100	stimuli_target_squaretriangles.svg	stimuli_distractor_trianglediamonds.svg	3	yes	57	0	310
6.6.1	mac	2022-12-14	13:04:30	13:13:25	533412	5f6d0c1efaad4d16c44fdd6d	192811825	1	main_z	11	main_z	101	stimuli_target_circletriangles.svg	stimuli_distractor_trianglediamonds.svg	1	yes	44	1	374
6.6.1	mac	2022-12-14	13:04:30	13:13:25	533412	5f6d0c1efaad4d16c44fdd6d	192811825	1	main_z	11	advance_on_keypress_ZEE	102	stimuli_target_circletriangles.svg	stimuli_distractor_trianglediamonds.svg	1	yes	57	0	457
6.6.1	mac	2022-12-14	13:04:30	13:13:27	535212	5f6d0c1efaad4d16c44fdd6d	192811825	1	main_z	11	main_z	103	stimuli_distractor_diamondtriangles.svg	stimuli_target_trianglesquares.svg	30	yes	44	1	709
6.6.1	mac	2022-12-14	13:04:30	13:13:27	535212	5f6d0c1efaad4d16c44fdd6d	192811825	1	main_z	11	advance_on_keypress_ZEE	104	stimuli_distractor_diamondtriangles.svg	stimuli_target_trianglesquares.svg	30	yes	57	0	278
6.6.1	mac	2022-12-14	13:04:30	13:13:28	536571	5f6d0c1efaad4d16c44fdd6d	192811825	1	main_z	11	main_z	105	stimuli_distractor_trianglediamonds.svg	stimuli_target_diamondcircles.svg	27	yes	44	1	434
6.6.1	mac	2022-12-14	13:04:30	13:13:28	536571	5f6d0c1efaad4d16c44fdd6d	192811825	1	main_z	11	advance_on_keypress_ZEE	106	stimuli_distractor_trianglediamonds.svg	stimuli_target_diamondcircles.svg	27	yes	57	0	359
6.6.1	mac	2022-12-14	13:04:30	13:13:31	539570	5f6d0c1efaad4d16c44fdd6d	192811825	1	main_z	11	main_z	107	stimuli_distractor_diamondtriangles.svg	stimuli_distractor_trianglediamonds.svg	38	no	0	1	2000
6.6.1	mac	2022-12-14	13:04:30	13:13:31	539570	5f6d0c1efaad4d16c44fdd6d	192811825	1	main_z	11	advance_on_keypress_ZEE	108	stimuli_distractor_diamondtriangles.svg	stimuli_distractor_trianglediamonds.svg	38	no	57	0	340
6.6.1	mac	2022-12-14	13:04:30	13:13:33	540924	5f6d0c1efaad4d16c44fdd6d	192811825	1	main_z	11	main_z	109	stimuli_distractor_diamondtriangles.svg	stimuli_target_diamondcircles.svg	31	yes	44	1	387
6.6.1	mac	2022-12-14	13:04:30	13:13:33	540924	5f6d0c1efaad4d16c44fdd6d	192811825	1	main_z	11	advance_on_keypress_ZEE	110	stimuli_distractor_diamondtriangles.svg	stimuli_target_diamondcircles.svg	31	yes	57	0	369
6.6.1	mac	2022-12-14	13:04:30	13:13:34	542343	5f6d0c1efaad4d16c44fdd6d	192811825	1	main_z	11	main_z	111	stimuli_distractor_trianglediamonds.svg	stimuli_target_trianglesquares.svg	26	yes	44	1	405
6.6.1	mac	2022-12-14	13:04:30	13:13:34	542343	5f6d0c1efaad4d16c44fdd6d	192811825	1	main_z	11	advance_on_keypress_ZEE	112	stimuli_distractor_trianglediamonds.svg	stimuli_target_trianglesquares.svg	26	yes	57	0	371
6.6.1	mac	2022-12-14	13:04:30	13:13:35	543738	5f6d0c1efaad4d16c44fdd6d	192811825	1	main_z	11	main_z	113	stimuli_target_diamondcircles.svg	stimuli_distractor_trianglediamonds.svg	19	yes	44	1	383
6.6.1	mac	2022-12-14	13:04:30	13:13:35	543738	5f6d0c1efaad4d16c44fdd6d	192811825	1	main_z	11	advance_on_keypress_ZEE	114	stimuli_target_diamondcircles.svg	stimuli_distractor_trianglediamonds.svg	19	yes	57	0	361
6.6.1	mac	2022-12-14	13:04:30	13:13:37	545149	5f6d0c1efaad4d16c44fdd6d	192811825	1	main_z	11	main_z	115	stimuli_distractor_diamondtriangles.svg	stimuli_target_diamondsquares.svg	32	yes	44	1	412
6.6.1	mac	2022-12-14	13:04:30	13:13:37	545149	5f6d0c1efaad4d16c44fdd6d	192811825	1	main_z	11	advance_on_keypress_ZEE	116	stimuli_distractor_diamondtriangles.svg	stimuli_target_diamondsquares.svg	32	yes	57	0	366
6.6.1	mac	2022-12-14	13:04:30	13:13:38	546540	5f6d0c1efaad4d16c44fdd6d	192811825	1	main_z	11	main_z	117	stimuli_target_circlediamonds.svg	stimuli_distractor_diamondtriangles.svg	6	yes	44	1	386
6.6.1	mac	2022-12-14	13:04:30	13:13:38	546540	5f6d0c1efaad4d16c44fdd6d	192811825	1	main_z	11	advance_on_keypress_ZEE	118	stimuli_target_circlediamonds.svg	stimuli_distractor_diamondtriangles.svg	6	yes	57	0	420
6.6.1	mac	2022-12-14	13:04:30	13:13:40	547988	5f6d0c1efaad4d16c44fdd6d	192811825	1	main_z	11	main_z	119	stimuli_distractor_diamondtriangles.svg	stimuli_distractor_trianglediamonds.svg	37	no	44	0	401
6.6.1	mac	2022-12-14	13:04:30	13:13:40	547988	5f6d0c1efaad4d16c44fdd6d	192811825	1	main_z	11	advance_on_keypress_ZEE	120	stimuli_distractor_diamondtriangles.svg	stimuli_distractor_trianglediamonds.svg	37	no	57	0	1375
6.6.1	mac	2022-12-14	13:04:30	13:13:42	550415	5f6d0c1efaad4d16c44fdd6d	192811825	1	main_z	11	main_z	121	stimuli_distractor_trianglediamonds.svg	stimuli_target_squaretriangles.svg	11	yes	44	1	410
6.6.1	mac	2022-12-14	13:04:30	13:13:42	550415	5f6d0c1efaad4d16c44fdd6d	192811825	1	main_z	11	advance_on_keypress_ZEE	122	stimuli_distractor_trianglediamonds.svg	stimuli_target_squaretriangles.svg	11	yes	57	0	462
6.6.1	mac	2022-12-14	13:04:30	13:13:44	551940	5f6d0c1efaad4d16c44fdd6d	192811825	1	main_z	11	main_z	123	stimuli_distractor_trianglediamonds.svg	stimuli_target_trianglecircles.svg	25	yes	44	1	436
6.6.1	mac	2022-12-14	13:04:30	13:13:44	551940	5f6d0c1efaad4d16c44fdd6d	192811825	1	main_z	11	advance_on_keypress_ZEE	124	stimuli_distractor_trianglediamonds.svg	stimuli_target_trianglecircles.svg	25	yes	57	0	344
6.6.1	mac	2022-12-14	13:04:30	13:13:45	553378	5f6d0c1efaad4d16c44fdd6d	192811825	1	main_z	11	main_z	125	stimuli_target_circlediamonds.svg	stimuli_distractor_trianglediamonds.svg	2	yes	44	1	474
6.6.1	mac	2022-12-14	13:04:30	13:13:45	553378	5f6d0c1efaad4d16c44fdd6d	192811825	1	main_z	11	advance_on_keypress_ZEE	126	stimuli_target_circlediamonds.svg	stimuli_distractor_trianglediamonds.svg	2	yes	57	0	404
6.6.1	mac	2022-12-14	13:04:30	13:13:47	554798	5f6d0c1efaad4d16c44fdd6d	192811825	1	main_z	11	main_z	127	stimuli_distractor_diamondtriangles.svg	stimuli_target_squaretriangles.svg	15	yes	44	1	395
6.6.1	mac	2022-12-14	13:04:30	13:13:47	554798	5f6d0c1efaad4d16c44fdd6d	192811825	1	main_z	11	advance_on_keypress_ZEE	128	stimuli_distractor_diamondtriangles.svg	stimuli_target_squaretriangles.svg	15	yes	57	0	348
6.6.1	mac	2022-12-14	13:04:30	13:13:48	556205	5f6d0c1efaad4d16c44fdd6d	192811825	1	main_z	11	main_z	129	stimuli_target_squarediamonds.svg	stimuli_distractor_diamondtriangles.svg	8	yes	44	1	417
6.6.1	mac	2022-12-14	13:04:30	13:13:48	556205	5f6d0c1efaad4d16c44fdd6d	192811825	1	main_z	11	advance_on_keypress_ZEE	130	stimuli_target_squarediamonds.svg	stimuli_distractor_diamondtriangles.svg	8	yes	57	0	356
6.6.1	mac	2022-12-14	13:04:30	13:13:49	557562	5f6d0c1efaad4d16c44fdd6d	192811825	1	main_z	11	main_z	131	stimuli_distractor_trianglediamonds.svg	stimuli_target_squarediamonds.svg	12	yes	44	1	372
6.6.1	mac	2022-12-14	13:04:30	13:13:49	557562	5f6d0c1efaad4d16c44fdd6d	192811825	1	main_z	11	advance_on_keypress_ZEE	132	stimuli_distractor_trianglediamonds.svg	stimuli_target_squarediamonds.svg	12	yes	57	0	316
6.6.1	mac	2022-12-14	13:04:30	13:13:52	560505	5f6d0c1efaad4d16c44fdd6d	192811825	1	main_z	11	main_z	133	stimuli_distractor_diamondtriangles.svg	stimuli_distractor_diamondtriangles.svg	40	no	0	1	2000
6.6.1	mac	2022-12-14	13:04:30	13:13:52	560505	5f6d0c1efaad4d16c44fdd6d	192811825	1	main_z	11	advance_on_keypress_ZEE	134	stimuli_distractor_diamondtriangles.svg	stimuli_distractor_diamondtriangles.svg	40	no	57	0	328
6.6.1	mac	2022-12-14	13:04:30	13:13:54	561999	5f6d0c1efaad4d16c44fdd6d	192811825	1	main_z	11	main_z	135	stimuli_target_diamondsquares.svg	stimuli_distractor_diamondtriangles.svg	24	yes	44	1	527
6.6.1	mac	2022-12-14	13:04:30	13:13:54	561999	5f6d0c1efaad4d16c44fdd6d	192811825	1	main_z	11	advance_on_keypress_ZEE	136	stimuli_target_diamondsquares.svg	stimuli_distractor_diamondtriangles.svg	24	yes	57	0	951
6.6.1	mac	2022-12-14	13:04:30	13:13:57	565589	5f6d0c1efaad4d16c44fdd6d	192811825	1	main_z	11	main_z	137	stimuli_distractor_diamondtriangles.svg	stimuli_distractor_diamondtriangles.svg	39	no	0	1	2000
6.6.1	mac	2022-12-14	13:04:30	13:13:57	565589	5f6d0c1efaad4d16c44fdd6d	192811825	1	main_z	11	advance_on_keypress_ZEE	138	stimuli_distractor_diamondtriangles.svg	stimuli_distractor_diamondtriangles.svg	39	no	57	0	299
6.6.1	mac	2022-12-14	13:04:30	13:13:59	566876	5f6d0c1efaad4d16c44fdd6d	192811825	1	main_z	11	main_z	139	stimuli_target_diamondcircles.svg	stimuli_distractor_diamondtriangles.svg	23	yes	44	1	354
6.6.1	mac	2022-12-14	13:04:30	13:13:59	566876	5f6d0c1efaad4d16c44fdd6d	192811825	1	main_z	11	advance_on_keypress_ZEE	140	stimuli_target_diamondcircles.svg	stimuli_distractor_diamondtriangles.svg	23	yes	57	0	394
6.6.1	mac	2022-12-14	13:04:30	13:14:00	568269	5f6d0c1efaad4d16c44fdd6d	192811825	1	main_z	11	main_z	141	stimuli_distractor_trianglediamonds.svg	stimuli_distractor_trianglediamonds.svg	33	no	44	0	364
6.6.1	mac	2022-12-14	13:04:30	13:14:00	568269	5f6d0c1efaad4d16c44fdd6d	192811825	1	main_z	11	advance_on_keypress_ZEE	142	stimuli_distractor_trianglediamonds.svg	stimuli_distractor_trianglediamonds.svg	33	no	57	0	633
6.6.1	mac	2022-12-14	13:04:30	13:14:02	570000	5f6d0c1efaad4d16c44fdd6d	192811825	1	main_z	11	main_z	143	stimuli_distractor_diamondtriangles.svg	stimuli_target_circletriangles.svg	13	yes	44	1	461
6.6.1	mac	2022-12-14	13:04:30	13:14:02	570000	5f6d0c1efaad4d16c44fdd6d	192811825	1	main_z	11	advance_on_keypress_ZEE	144	stimuli_distractor_diamondtriangles.svg	stimuli_target_circletriangles.svg	13	yes	57	0	357
6.6.1	mac	2022-12-14	13:04:30	13:14:03	571340	5f6d0c1efaad4d16c44fdd6d	192811825	1	main_z	11	main_z	145	stimuli_distractor_trianglediamonds.svg	stimuli_target_circletriangles.svg	9	yes	44	1	351
6.6.1	mac	2022-12-14	13:04:30	13:14:03	571340	5f6d0c1efaad4d16c44fdd6d	192811825	1	main_z	11	advance_on_keypress_ZEE	146	stimuli_distractor_trianglediamonds.svg	stimuli_target_circletriangles.svg	9	yes	57	0	406
6.6.1	mac	2022-12-14	13:04:30	13:14:04	572731	5f6d0c1efaad4d16c44fdd6d	192811825	1	main_z	11	main_z	147	stimuli_distractor_trianglediamonds.svg	stimuli_target_circlediamonds.svg	10	yes	44	1	358
6.6.1	mac	2022-12-14	13:04:30	13:14:04	572731	5f6d0c1efaad4d16c44fdd6d	192811825	1	main_z	11	advance_on_keypress_ZEE	148	stimuli_distractor_trianglediamonds.svg	stimuli_target_circlediamonds.svg	10	yes	57	0	391
6.6.1	mac	2022-12-14	13:04:30	13:14:06	574233	5f6d0c1efaad4d16c44fdd6d	192811825	1	main_z	11	main_z	149	stimuli_target_trianglesquares.svg	stimuli_distractor_trianglediamonds.svg	18	yes	44	1	493
6.6.1	mac	2022-12-14	13:04:30	13:14:06	574233	5f6d0c1efaad4d16c44fdd6d	192811825	1	main_z	11	advance_on_keypress_ZEE	150	stimuli_target_trianglesquares.svg	stimuli_distractor_trianglediamonds.svg	18	yes	57	0	336
6.6.1	mac	2022-12-14	13:04:30	13:14:07	575584	5f6d0c1efaad4d16c44fdd6d	192811825	1	main_z	11	main_z	151	stimuli_target_squaretriangles.svg	stimuli_distractor_diamondtriangles.svg	7	yes	44	1	396
6.6.1	mac	2022-12-14	13:04:30	13:14:07	575584	5f6d0c1efaad4d16c44fdd6d	192811825	1	main_z	11	advance_on_keypress_ZEE	152	stimuli_target_squaretriangles.svg	stimuli_distractor_diamondtriangles.svg	7	yes	57	0	320
6.6.1	mac	2022-12-14	13:04:30	13:14:09	576965	5f6d0c1efaad4d16c44fdd6d	192811825	1	main_z	11	main_z	153	stimuli_distractor_diamondtriangles.svg	stimuli_target_squarediamonds.svg	16	yes	44	1	425
6.6.1	mac	2022-12-14	13:04:30	13:14:09	576965	5f6d0c1efaad4d16c44fdd6d	192811825	1	main_z	11	advance_on_keypress_ZEE	154	stimuli_distractor_diamondtriangles.svg	stimuli_target_squarediamonds.svg	16	yes	57	0	353
6.6.1	mac	2022-12-14	13:04:30	13:14:10	578348	5f6d0c1efaad4d16c44fdd6d	192811825	1	main_z	11	main_z	155	stimuli_target_circletriangles.svg	stimuli_distractor_diamondtriangles.svg	5	yes	44	1	390
6.6.1	mac	2022-12-14	13:04:30	13:14:10	578348	5f6d0c1efaad4d16c44fdd6d	192811825	1	main_z	11	advance_on_keypress_ZEE	156	stimuli_target_circletriangles.svg	stimuli_distractor_diamondtriangles.svg	5	yes	57	0	401
6.6.1	mac	2022-12-14	13:04:30	13:14:13	581388	5f6d0c1efaad4d16c44fdd6d	192811825	1	main_z	11	main_z	157	stimuli_distractor_trianglediamonds.svg	stimuli_distractor_diamondtriangles.svg	35	no	0	1	2000
6.6.1	mac	2022-12-14	13:04:30	13:14:13	581388	5f6d0c1efaad4d16c44fdd6d	192811825	1	main_z	11	advance_on_keypress_ZEE	158	stimuli_distractor_trianglediamonds.svg	stimuli_distractor_diamondtriangles.svg	35	no	57	0	291
6.6.1	mac	2022-12-14	13:04:30	13:14:16	584305	5f6d0c1efaad4d16c44fdd6d	192811825	1	main_z	11	main_z	159	stimuli_distractor_trianglediamonds.svg	stimuli_distractor_trianglediamonds.svg	34	no	0	1	2000
6.6.1	mac	2022-12-14	13:04:30	13:14:16	584305	5f6d0c1efaad4d16c44fdd6d	192811825	1	main_z	11	advance_on_keypress_ZEE	160	stimuli_distractor_trianglediamonds.svg	stimuli_distractor_trianglediamonds.svg	34	no	57	0	255