build	computer.platform	date	time	timestamp	time_elapsed_ms	subject	group	session	blockcode	blocknum	trialcode	trialnum	stimulus_left	stimulus_right	stim_index	target_present	response	correct	latency
6.6.1	mac	2022-12-14	14:18:34	14:21:34	175569	5ac6ca185cd105000162499d	536236223	1	practice_slash	5	practice_slash	1	stimuli_distractor_trianglediamonds.svg	stimuli_target_circlediamonds.svg	10	yes	53	1	1738
6.6.1	mac	2022-12-14	14:18:34	14:21:34	175569	5ac6ca185cd105000162499d	536236223	1	practice_slash	5	advance_on_keypress_SLASH	2	stimuli_distractor_trianglediamonds.svg	stimuli_target_circlediamonds.svg	10	yes	57	0	1879
6.6.1	mac	2022-12-14	14:18:34	14:21:40	181111	5ac6ca185cd105000162499d	536236223	1	practice_slash	5	practice_slash	3	stimuli_distractor_trianglediamonds.svg	stimuli_target_squarediamonds.svg	11	yes	0	0	2000
6.6.1	mac	2022-12-14	14:18:34	14:21:40	181111	5ac6ca185cd105000162499d	536236223	1	practice_slash	5	advance_on_keypress_SLASH	4	stimuli_distractor_trianglediamonds.svg	stimuli_target_squarediamonds.svg	11	yes	57	0	1422
6.6.1	mac	2022-12-14	14:18:34	14:21:45	186201	5ac6ca185cd105000162499d	536236223	1	practice_slash	5	practice_slash	5	stimuli_target_diamondsquares.svg	stimuli_distractor_trianglediamonds.svg	6	yes	0	0	2000
6.6.1	mac	2022-12-14	14:18:34	14:21:45	186201	5ac6ca185cd105000162499d	536236223	1	practice_slash	5	advance_on_keypress_SLASH	6	stimuli_target_diamondsquares.svg	stimuli_distractor_trianglediamonds.svg	6	yes	57	0	812
6.6.1	mac	2022-12-14	14:18:34	14:21:49	190650	5ac6ca185cd105000162499d	536236223	1	practice_slash	5	practice_slash	7	stimuli_distractor_trianglediamonds.svg	stimuli_distractor_diamondtriangles.svg	16	no	0	1	2000
6.6.1	mac	2022-12-14	14:18:34	14:21:49	190650	5ac6ca185cd105000162499d	536236223	1	practice_slash	5	advance_on_keypress_SLASH	8	stimuli_distractor_trianglediamonds.svg	stimuli_distractor_diamondtriangles.svg	16	no	57	0	441
6.6.1	mac	2022-12-14	14:18:34	14:21:53	194755	5ac6ca185cd105000162499d	536236223	1	practice_slash	5	practice_slash	9	stimuli_distractor_diamondtriangles.svg	stimuli_distractor_trianglediamonds.svg	14	no	0	1	2000
6.6.1	mac	2022-12-14	14:18:34	14:21:53	194755	5ac6ca185cd105000162499d	536236223	1	practice_slash	5	advance_on_keypress_SLASH	10	stimuli_distractor_diamondtriangles.svg	stimuli_distractor_trianglediamonds.svg	14	no	57	0	314
6.6.1	mac	2022-12-14	14:18:34	14:21:57	198700	5ac6ca185cd105000162499d	536236223	1	practice_slash	5	practice_slash	11	stimuli_distractor_trianglediamonds.svg	stimuli_distractor_trianglediamonds.svg	15	no	0	1	2000
6.6.1	mac	2022-12-14	14:18:34	14:21:57	198700	5ac6ca185cd105000162499d	536236223	1	practice_slash	5	advance_on_keypress_SLASH	12	stimuli_distractor_trianglediamonds.svg	stimuli_distractor_trianglediamonds.svg	15	no	57	0	507
6.6.1	mac	2022-12-14	14:18:34	14:22:00	201856	5ac6ca185cd105000162499d	536236223	1	practice_slash	5	practice_slash	13	stimuli_distractor_trianglediamonds.svg	stimuli_target_diamondcircles.svg	12	yes	53	1	887
6.6.1	mac	2022-12-14	14:18:34	14:22:00	201856	5ac6ca185cd105000162499d	536236223	1	practice_slash	5	advance_on_keypress_SLASH	14	stimuli_distractor_trianglediamonds.svg	stimuli_target_diamondcircles.svg	12	yes	57	0	483
6.6.1	mac	2022-12-14	14:18:34	14:22:04	204977	5ac6ca185cd105000162499d	536236223	1	practice_slash	5	practice_slash	15	stimuli_target_circlediamonds.svg	stimuli_distractor_trianglediamonds.svg	4	yes	53	1	1001
6.6.1	mac	2022-12-14	14:18:34	14:22:04	204977	5ac6ca185cd105000162499d	536236223	1	practice_slash	5	advance_on_keypress_SLASH	16	stimuli_target_circlediamonds.svg	stimuli_distractor_trianglediamonds.svg	4	yes	57	0	568
6.6.1	mac	2022-12-14	14:18:34	14:22:07	208251	5ac6ca185cd105000162499d	536236223	1	practice_slash	5	practice_slash	17	stimuli_target_squarediamonds.svg	stimuli_distractor_trianglediamonds.svg	5	yes	53	1	1062
6.6.1	mac	2022-12-14	14:18:34	14:22:07	208251	5ac6ca185cd105000162499d	536236223	1	practice_slash	5	advance_on_keypress_SLASH	18	stimuli_target_squarediamonds.svg	stimuli_distractor_trianglediamonds.svg	5	yes	57	0	960
6.6.1	mac	2022-12-14	14:18:34	14:22:11	211957	5ac6ca185cd105000162499d	536236223	1	practice_slash	5	practice_slash	19	stimuli_target_diamondsquares.svg	stimuli_distractor_diamondtriangles.svg	3	yes	53	1	1109
6.6.1	mac	2022-12-14	14:18:34	14:22:11	211957	5ac6ca185cd105000162499d	536236223	1	practice_slash	5	advance_on_keypress_SLASH	20	stimuli_target_diamondsquares.svg	stimuli_distractor_diamondtriangles.svg	3	yes	57	0	563
6.6.1	mac	2022-12-14	14:18:34	14:22:14	215348	5ac6ca185cd105000162499d	536236223	1	practice_slash	5	practice_slash	21	stimuli_target_squarediamonds.svg	stimuli_distractor_diamondtriangles.svg	2	yes	53	1	1190
6.6.1	mac	2022-12-14	14:18:34	14:22:14	215348	5ac6ca185cd105000162499d	536236223	1	practice_slash	5	advance_on_keypress_SLASH	22	stimuli_target_squarediamonds.svg	stimuli_distractor_diamondtriangles.svg	2	yes	57	0	584
6.6.1	mac	2022-12-14	14:18:34	14:22:17	218841	5ac6ca185cd105000162499d	536236223	1	practice_slash	5	practice_slash	23	stimuli_distractor_diamondtriangles.svg	stimuli_distractor_diamondtriangles.svg	13	no	53	0	1220
6.6.1	mac	2022-12-14	14:18:34	14:22:17	218841	5ac6ca185cd105000162499d	536236223	1	practice_slash	5	advance_on_keypress_SLASH	24	stimuli_distractor_diamondtriangles.svg	stimuli_distractor_diamondtriangles.svg	13	no	57	0	466
6.6.1	mac	2022-12-14	14:18:34	14:22:20	221893	5ac6ca185cd105000162499d	536236223	1	practice_slash	5	practice_slash	25	stimuli_target_circlediamonds.svg	stimuli_distractor_diamondtriangles.svg	1	yes	53	1	767
6.6.1	mac	2022-12-14	14:18:34	14:22:20	221893	5ac6ca185cd105000162499d	536236223	1	practice_slash	5	advance_on_keypress_SLASH	26	stimuli_target_circlediamonds.svg	stimuli_distractor_diamondtriangles.svg	1	yes	57	0	896
6.6.1	mac	2022-12-14	14:18:34	14:22:24	225447	5ac6ca185cd105000162499d	536236223	1	practice_slash	5	practice_slash	27	stimuli_distractor_diamondtriangles.svg	stimuli_target_circletriangles.svg	7	yes	53	1	1028
6.6.1	mac	2022-12-14	14:18:34	14:22:24	225447	5ac6ca185cd105000162499d	536236223	1	practice_slash	5	advance_on_keypress_SLASH	28	stimuli_distractor_diamondtriangles.svg	stimuli_target_circletriangles.svg	7	yes	57	0	952
6.6.1	mac	2022-12-14	14:18:34	14:22:28	228924	5ac6ca185cd105000162499d	536236223	1	practice_slash	5	practice_slash	29	stimuli_distractor_diamondtriangles.svg	stimuli_target_trianglecircles.svg	9	yes	53	1	878
6.6.1	mac	2022-12-14	14:18:34	14:22:28	228924	5ac6ca185cd105000162499d	536236223	1	practice_slash	5	advance_on_keypress_SLASH	30	stimuli_distractor_diamondtriangles.svg	stimuli_target_trianglecircles.svg	9	yes	57	0	687
6.6.1	mac	2022-12-14	14:18:34	14:22:31	231951	5ac6ca185cd105000162499d	536236223	1	practice_slash	5	practice_slash	31	stimuli_distractor_diamondtriangles.svg	stimuli_target_diamondcircles.svg	8	yes	53	1	684
6.6.1	mac	2022-12-14	14:18:34	14:22:31	231951	5ac6ca185cd105000162499d	536236223	1	practice_slash	5	advance_on_keypress_SLASH	32	stimuli_distractor_diamondtriangles.svg	stimuli_target_diamondcircles.svg	8	yes	57	0	662
6.6.1	mac	2022-12-14	14:18:34	14:22:41	242792	5ac6ca185cd105000162499d	536236223	1	main_slash	7	main_slash	1	stimuli_target_diamondsquares.svg	stimuli_distractor_diamondtriangles.svg	24	yes	53	1	1273
6.6.1	mac	2022-12-14	14:18:34	14:22:41	242792	5ac6ca185cd105000162499d	536236223	1	main_slash	7	advance_on_keypress_SLASH	2	stimuli_target_diamondsquares.svg	stimuli_distractor_diamondtriangles.svg	24	yes	57	0	586
6.6.1	mac	2022-12-14	14:18:34	14:22:43	244766	5ac6ca185cd105000162499d	536236223	1	main_slash	7	main_slash	3	stimuli_target_diamondcircles.svg	stimuli_distractor_trianglediamonds.svg	19	yes	53	1	733
6.6.1	mac	2022-12-14	14:18:34	14:22:43	244766	5ac6ca185cd105000162499d	536236223	1	main_slash	7	advance_on_keypress_SLASH	4	stimuli_target_diamondcircles.svg	stimuli_distractor_trianglediamonds.svg	19	yes	57	0	1226
6.6.1	mac	2022-12-14	14:18:34	14:22:46	247550	5ac6ca185cd105000162499d	536236223	1	main_slash	7	main_slash	5	stimuli_target_trianglecircles.svg	stimuli_distractor_diamondtriangles.svg	21	yes	53	1	898
6.6.1	mac	2022-12-14	14:18:34	14:22:46	247550	5ac6ca185cd105000162499d	536236223	1	main_slash	7	advance_on_keypress_SLASH	6	stimuli_target_trianglecircles.svg	stimuli_distractor_diamondtriangles.svg	21	yes	57	0	1366
6.6.1	mac	2022-12-14	14:18:34	14:22:49	250541	5ac6ca185cd105000162499d	536236223	1	main_slash	7	main_slash	7	stimuli_target_trianglesquares.svg	stimuli_distractor_trianglediamonds.svg	18	yes	53	1	984
6.6.1	mac	2022-12-14	14:18:34	14:22:49	250541	5ac6ca185cd105000162499d	536236223	1	main_slash	7	advance_on_keypress_SLASH	8	stimuli_target_trianglesquares.svg	stimuli_distractor_trianglediamonds.svg	18	yes	57	0	2616
6.6.1	mac	2022-12-14	14:18:34	14:22:53	254527	5ac6ca185cd105000162499d	536236223	1	main_slash	7	main_slash	9	stimuli_target_circlediamonds.svg	stimuli_distractor_trianglediamonds.svg	2	yes	53	1	698
6.6.1	mac	2022-12-14	14:18:34	14:22:53	254527	5ac6ca185cd105000162499d	536236223	1	main_slash	7	advance_on_keypress_SLASH	10	stimuli_target_circlediamonds.svg	stimuli_distractor_trianglediamonds.svg	2	yes	57	0	837
6.6.1	mac	2022-12-14	14:18:34	14:22:56	257360	5ac6ca185cd105000162499d	536236223	1	main_slash	7	main_slash	11	stimuli_distractor_diamondtriangles.svg	stimuli_distractor_trianglediamonds.svg	38	no	53	0	1364
6.6.1	mac	2022-12-14	14:18:34	14:22:56	257360	5ac6ca185cd105000162499d	536236223	1	main_slash	7	advance_on_keypress_SLASH	12	stimuli_distractor_diamondtriangles.svg	stimuli_distractor_trianglediamonds.svg	38	no	57	0	550
6.6.1	mac	2022-12-14	14:18:34	14:22:59	260541	5ac6ca185cd105000162499d	536236223	1	main_slash	7	main_slash	13	stimuli_distractor_trianglediamonds.svg	stimuli_distractor_diamondtriangles.svg	35	no	0	1	2000
6.6.1	mac	2022-12-14	14:18:34	14:22:59	260541	5ac6ca185cd105000162499d	536236223	1	main_slash	7	advance_on_keypress_SLASH	14	stimuli_distractor_trianglediamonds.svg	stimuli_distractor_diamondtriangles.svg	35	no	57	0	525
6.6.1	mac	2022-12-14	14:18:34	14:23:01	262652	5ac6ca185cd105000162499d	536236223	1	main_slash	7	main_slash	15	stimuli_distractor_trianglediamonds.svg	stimuli_target_trianglesquares.svg	26	yes	53	1	968
6.6.1	mac	2022-12-14	14:18:34	14:23:01	262652	5ac6ca185cd105000162499d	536236223	1	main_slash	7	advance_on_keypress_SLASH	16	stimuli_distractor_trianglediamonds.svg	stimuli_target_trianglesquares.svg	26	yes	57	0	889
6.6.1	mac	2022-12-14	14:18:34	14:23:04	265126	5ac6ca185cd105000162499d	536236223	1	main_slash	7	main_slash	17	stimuli_distractor_trianglediamonds.svg	stimuli_target_squaretriangles.svg	11	yes	53	1	955
6.6.1	mac	2022-12-14	14:18:34	14:23:04	265126	5ac6ca185cd105000162499d	536236223	1	main_slash	7	advance_on_keypress_SLASH	18	stimuli_distractor_trianglediamonds.svg	stimuli_target_squaretriangles.svg	11	yes	57	0	885
6.6.1	mac	2022-12-14	14:18:34	14:23:06	267523	5ac6ca185cd105000162499d	536236223	1	main_slash	7	main_slash	19	stimuli_target_circlediamonds.svg	stimuli_distractor_diamondtriangles.svg	6	yes	53	1	881
6.6.1	mac	2022-12-14	14:18:34	14:23:06	267523	5ac6ca185cd105000162499d	536236223	1	main_slash	7	advance_on_keypress_SLASH	20	stimuli_target_circlediamonds.svg	stimuli_distractor_diamondtriangles.svg	6	yes	57	0	802
6.6.1	mac	2022-12-14	14:18:34	14:23:09	269949	5ac6ca185cd105000162499d	536236223	1	main_slash	7	main_slash	21	stimuli_distractor_diamondtriangles.svg	stimuli_target_diamondcircles.svg	31	yes	53	1	984
6.6.1	mac	2022-12-14	14:18:34	14:23:09	269949	5ac6ca185cd105000162499d	536236223	1	main_slash	7	advance_on_keypress_SLASH	22	stimuli_distractor_diamondtriangles.svg	stimuli_target_diamondcircles.svg	31	yes	57	0	737
6.6.1	mac	2022-12-14	14:18:34	14:23:11	272240	5ac6ca185cd105000162499d	536236223	1	main_slash	7	main_slash	23	stimuli_target_squarediamonds.svg	stimuli_distractor_trianglediamonds.svg	4	yes	53	1	918
6.6.1	mac	2022-12-14	14:18:34	14:23:11	272240	5ac6ca185cd105000162499d	536236223	1	main_slash	7	advance_on_keypress_SLASH	24	stimuli_target_squarediamonds.svg	stimuli_distractor_trianglediamonds.svg	4	yes	57	0	738
6.6.1	mac	2022-12-14	14:18:34	14:23:13	274760	5ac6ca185cd105000162499d	536236223	1	main_slash	7	main_slash	25	stimuli_distractor_trianglediamonds.svg	stimuli_distractor_diamondtriangles.svg	36	no	53	0	1132
6.6.1	mac	2022-12-14	14:18:34	14:23:13	274760	5ac6ca185cd105000162499d	536236223	1	main_slash	7	advance_on_keypress_SLASH	26	stimuli_distractor_trianglediamonds.svg	stimuli_distractor_diamondtriangles.svg	36	no	57	0	1330
6.6.1	mac	2022-12-14	14:18:34	14:23:17	278725	5ac6ca185cd105000162499d	536236223	1	main_slash	7	main_slash	27	stimuli_distractor_diamondtriangles.svg	stimuli_distractor_trianglediamonds.svg	37	no	0	1	2000
6.6.1	mac	2022-12-14	14:18:34	14:23:17	278725	5ac6ca185cd105000162499d	536236223	1	main_slash	7	advance_on_keypress_SLASH	28	stimuli_distractor_diamondtriangles.svg	stimuli_distractor_trianglediamonds.svg	37	no	57	0	439
6.6.1	mac	2022-12-14	14:18:34	14:23:19	280213	5ac6ca185cd105000162499d	536236223	1	main_slash	7	main_slash	29	stimuli_distractor_trianglediamonds.svg	stimuli_target_trianglecircles.svg	25	yes	53	1	421
6.6.1	mac	2022-12-14	14:18:34	14:23:19	280213	5ac6ca185cd105000162499d	536236223	1	main_slash	7	advance_on_keypress_SLASH	30	stimuli_distractor_trianglediamonds.svg	stimuli_target_trianglecircles.svg	25	yes	57	0	955
6.6.1	mac	2022-12-14	14:18:34	14:23:22	283804	5ac6ca185cd105000162499d	536236223	1	main_slash	7	main_slash	31	stimuli_distractor_trianglediamonds.svg	stimuli_distractor_trianglediamonds.svg	34	no	0	1	2000
6.6.1	mac	2022-12-14	14:18:34	14:23:22	283804	5ac6ca185cd105000162499d	536236223	1	main_slash	7	advance_on_keypress_SLASH	32	stimuli_distractor_trianglediamonds.svg	stimuli_distractor_trianglediamonds.svg	34	no	57	0	533
6.6.1	mac	2022-12-14	14:18:34	14:23:24	285667	5ac6ca185cd105000162499d	536236223	1	main_slash	7	main_slash	33	stimuli_target_circletriangles.svg	stimuli_distractor_trianglediamonds.svg	1	yes	53	1	712
6.6.1	mac	2022-12-14	14:18:34	14:23:24	285667	5ac6ca185cd105000162499d	536236223	1	main_slash	7	advance_on_keypress_SLASH	34	stimuli_target_circletriangles.svg	stimuli_distractor_trianglediamonds.svg	1	yes	57	0	1363
6.6.1	mac	2022-12-14	14:18:34	14:23:27	288643	5ac6ca185cd105000162499d	536236223	1	main_slash	7	main_slash	35	stimuli_target_squaretriangles.svg	stimuli_distractor_diamondtriangles.svg	7	yes	53	1	978
6.6.1	mac	2022-12-14	14:18:34	14:23:27	288643	5ac6ca185cd105000162499d	536236223	1	main_slash	7	advance_on_keypress_SLASH	36	stimuli_target_squaretriangles.svg	stimuli_distractor_diamondtriangles.svg	7	yes	57	0	829
6.6.1	mac	2022-12-14	14:18:34	14:23:29	290791	5ac6ca185cd105000162499d	536236223	1	main_slash	7	main_slash	37	stimuli_distractor_diamondtriangles.svg	stimuli_target_circlediamonds.svg	14	yes	53	1	688
6.6.1	mac	2022-12-14	14:18:34	14:23:29	290791	5ac6ca185cd105000162499d	536236223	1	main_slash	7	advance_on_keypress_SLASH	38	stimuli_distractor_diamondtriangles.svg	stimuli_target_circlediamonds.svg	14	yes	57	0	1032
6.6.1	mac	2022-12-14	14:18:34	14:23:32	293796	5ac6ca185cd105000162499d	536236223	1	main_slash	7	main_slash	39	stimuli_distractor_diamondtriangles.svg	stimuli_target_squarediamonds.svg	16	yes	53	1	1336
6.6.1	mac	2022-12-14	14:18:34	14:23:32	293796	5ac6ca185cd105000162499d	536236223	1	main_slash	7	advance_on_keypress_SLASH	40	stimuli_distractor_diamondtriangles.svg	stimuli_target_squarediamonds.svg	16	yes	57	0	648
6.6.1	mac	2022-12-14	14:18:34	14:23:36	297081	5ac6ca185cd105000162499d	536236223	1	main_slash	7	main_slash	41	stimuli_distractor_diamondtriangles.svg	stimuli_target_squaretriangles.svg	15	yes	0	0	2000
6.6.1	mac	2022-12-14	14:18:34	14:23:36	297081	5ac6ca185cd105000162499d	536236223	1	main_slash	7	advance_on_keypress_SLASH	42	stimuli_distractor_diamondtriangles.svg	stimuli_target_squaretriangles.svg	15	yes	57	0	464
6.6.1	mac	2022-12-14	14:18:34	14:23:37	298850	5ac6ca185cd105000162499d	536236223	1	main_slash	7	main_slash	43	stimuli_distractor_diamondtriangles.svg	stimuli_target_circletriangles.svg	13	yes	53	1	682
6.6.1	mac	2022-12-14	14:18:34	14:23:37	298850	5ac6ca185cd105000162499d	536236223	1	main_slash	7	advance_on_keypress_SLASH	44	stimuli_distractor_diamondtriangles.svg	stimuli_target_circletriangles.svg	13	yes	57	0	884
6.6.1	mac	2022-12-14	14:18:34	14:23:40	301213	5ac6ca185cd105000162499d	536236223	1	main_slash	7	main_slash	45	stimuli_distractor_diamondtriangles.svg	stimuli_target_trianglecircles.svg	29	yes	53	1	845
6.6.1	mac	2022-12-14	14:18:34	14:23:40	301213	5ac6ca185cd105000162499d	536236223	1	main_slash	7	advance_on_keypress_SLASH	46	stimuli_distractor_diamondtriangles.svg	stimuli_target_trianglecircles.svg	29	yes	57	0	722
6.6.1	mac	2022-12-14	14:18:34	14:23:42	303605	5ac6ca185cd105000162499d	536236223	1	main_slash	7	main_slash	47	stimuli_distractor_diamondtriangles.svg	stimuli_target_trianglesquares.svg	30	yes	53	1	1031
6.6.1	mac	2022-12-14	14:18:34	14:23:42	303605	5ac6ca185cd105000162499d	536236223	1	main_slash	7	advance_on_keypress_SLASH	48	stimuli_distractor_diamondtriangles.svg	stimuli_target_trianglesquares.svg	30	yes	57	0	987
6.6.1	mac	2022-12-14	14:18:34	14:23:45	306003	5ac6ca185cd105000162499d	536236223	1	main_slash	7	main_slash	49	stimuli_distractor_trianglediamonds.svg	stimuli_target_diamondcircles.svg	27	yes	53	1	757
6.6.1	mac	2022-12-14	14:18:34	14:23:45	306003	5ac6ca185cd105000162499d	536236223	1	main_slash	7	advance_on_keypress_SLASH	50	stimuli_distractor_trianglediamonds.svg	stimuli_target_diamondcircles.svg	27	yes	57	0	817
6.6.1	mac	2022-12-14	14:18:34	14:23:47	308672	5ac6ca185cd105000162499d	536236223	1	main_slash	7	main_slash	51	stimuli_distractor_trianglediamonds.svg	stimuli_target_squarediamonds.svg	12	yes	53	1	1000
6.6.1	mac	2022-12-14	14:18:34	14:23:47	308672	5ac6ca185cd105000162499d	536236223	1	main_slash	7	advance_on_keypress_SLASH	52	stimuli_distractor_trianglediamonds.svg	stimuli_target_squarediamonds.svg	12	yes	57	0	729
6.6.1	mac	2022-12-14	14:18:34	14:23:49	310788	5ac6ca185cd105000162499d	536236223	1	main_slash	7	main_slash	53	stimuli_distractor_trianglediamonds.svg	stimuli_target_circletriangles.svg	9	yes	53	1	738
6.6.1	mac	2022-12-14	14:18:34	14:23:49	310788	5ac6ca185cd105000162499d	536236223	1	main_slash	7	advance_on_keypress_SLASH	54	stimuli_distractor_trianglediamonds.svg	stimuli_target_circletriangles.svg	9	yes	57	0	721
6.6.1	mac	2022-12-14	14:18:34	14:23:52	313117	5ac6ca185cd105000162499d	536236223	1	main_slash	7	main_slash	55	stimuli_distractor_diamondtriangles.svg	stimuli_target_diamondsquares.svg	32	yes	53	1	978
6.6.1	mac	2022-12-14	14:18:34	14:23:52	313117	5ac6ca185cd105000162499d	536236223	1	main_slash	7	advance_on_keypress_SLASH	56	stimuli_distractor_diamondtriangles.svg	stimuli_target_diamondsquares.svg	32	yes	57	0	962
6.6.1	mac	2022-12-14	14:18:34	14:23:55	316724	5ac6ca185cd105000162499d	536236223	1	main_slash	7	main_slash	57	stimuli_distractor_diamondtriangles.svg	stimuli_distractor_diamondtriangles.svg	39	no	0	1	2000
6.6.1	mac	2022-12-14	14:18:34	14:23:55	316724	5ac6ca185cd105000162499d	536236223	1	main_slash	7	advance_on_keypress_SLASH	58	stimuli_distractor_diamondtriangles.svg	stimuli_distractor_diamondtriangles.svg	39	no	57	0	652
6.6.1	mac	2022-12-14	14:18:34	14:23:58	319058	5ac6ca185cd105000162499d	536236223	1	main_slash	7	main_slash	59	stimuli_distractor_trianglediamonds.svg	stimuli_target_diamondsquares.svg	28	yes	53	1	1047
6.6.1	mac	2022-12-14	14:18:34	14:23:58	319058	5ac6ca185cd105000162499d	536236223	1	main_slash	7	advance_on_keypress_SLASH	60	stimuli_distractor_trianglediamonds.svg	stimuli_target_diamondsquares.svg	28	yes	57	0	695
6.6.1	mac	2022-12-14	14:18:34	14:24:00	321362	5ac6ca185cd105000162499d	536236223	1	main_slash	7	main_slash	61	stimuli_target_circletriangles.svg	stimuli_distractor_diamondtriangles.svg	5	yes	53	1	977
6.6.1	mac	2022-12-14	14:18:34	14:24:00	321362	5ac6ca185cd105000162499d	536236223	1	main_slash	7	advance_on_keypress_SLASH	62	stimuli_target_circletriangles.svg	stimuli_distractor_diamondtriangles.svg	5	yes	57	0	789
6.6.1	mac	2022-12-14	14:18:34	14:24:03	324160	5ac6ca185cd105000162499d	536236223	1	main_slash	7	main_slash	63	stimuli_target_trianglecircles.svg	stimuli_distractor_trianglediamonds.svg	17	yes	53	1	1369
6.6.1	mac	2022-12-14	14:18:34	14:24:03	324160	5ac6ca185cd105000162499d	536236223	1	main_slash	7	advance_on_keypress_SLASH	64	stimuli_target_trianglecircles.svg	stimuli_distractor_trianglediamonds.svg	17	yes	57	0	730
6.6.1	mac	2022-12-14	14:18:34	14:24:06	327532	5ac6ca185cd105000162499d	536236223	1	main_slash	7	main_slash	65	stimuli_distractor_trianglediamonds.svg	stimuli_distractor_trianglediamonds.svg	33	no	0	1	2000
6.6.1	mac	2022-12-14	14:18:34	14:24:06	327532	5ac6ca185cd105000162499d	536236223	1	main_slash	7	advance_on_keypress_SLASH	66	stimuli_distractor_trianglediamonds.svg	stimuli_distractor_trianglediamonds.svg	33	no	57	0	443
6.6.1	mac	2022-12-14	14:18:34	14:24:08	329553	5ac6ca185cd105000162499d	536236223	1	main_slash	7	main_slash	67	stimuli_target_diamondsquares.svg	stimuli_distractor_trianglediamonds.svg	20	yes	53	1	942
6.6.1	mac	2022-12-14	14:18:34	14:24:08	329553	5ac6ca185cd105000162499d	536236223	1	main_slash	7	advance_on_keypress_SLASH	68	stimuli_target_diamondsquares.svg	stimuli_distractor_trianglediamonds.svg	20	yes	57	0	739
6.6.1	mac	2022-12-14	14:18:34	14:24:11	332441	5ac6ca185cd105000162499d	536236223	1	main_slash	7	main_slash	69	stimuli_target_squarediamonds.svg	stimuli_distractor_diamondtriangles.svg	8	yes	53	1	1517
6.6.1	mac	2022-12-14	14:18:34	14:24:11	332441	5ac6ca185cd105000162499d	536236223	1	main_slash	7	advance_on_keypress_SLASH	70	stimuli_target_squarediamonds.svg	stimuli_distractor_diamondtriangles.svg	8	yes	57	0	579
6.6.1	mac	2022-12-14	14:18:34	14:24:13	334468	5ac6ca185cd105000162499d	536236223	1	main_slash	7	main_slash	71	stimuli_distractor_trianglediamonds.svg	stimuli_target_circlediamonds.svg	10	yes	53	1	803
6.6.1	mac	2022-12-14	14:18:34	14:24:13	334468	5ac6ca185cd105000162499d	536236223	1	main_slash	7	advance_on_keypress_SLASH	72	stimuli_distractor_trianglediamonds.svg	stimuli_target_circlediamonds.svg	10	yes	57	0	729
6.6.1	mac	2022-12-14	14:18:34	14:24:15	336875	5ac6ca185cd105000162499d	536236223	1	main_slash	7	main_slash	73	stimuli_target_trianglesquares.svg	stimuli_distractor_diamondtriangles.svg	22	yes	53	1	1019
6.6.1	mac	2022-12-14	14:18:34	14:24:15	336875	5ac6ca185cd105000162499d	536236223	1	main_slash	7	advance_on_keypress_SLASH	74	stimuli_target_trianglesquares.svg	stimuli_distractor_diamondtriangles.svg	22	yes	57	0	622
6.6.1	mac	2022-12-14	14:18:34	14:24:18	339157	5ac6ca185cd105000162499d	536236223	1	main_slash	7	main_slash	75	stimuli_target_squaretriangles.svg	stimuli_distractor_trianglediamonds.svg	3	yes	53	1	994
6.6.1	mac	2022-12-14	14:18:34	14:24:18	339157	5ac6ca185cd105000162499d	536236223	1	main_slash	7	advance_on_keypress_SLASH	76	stimuli_target_squaretriangles.svg	stimuli_distractor_trianglediamonds.svg	3	yes	57	0	545
6.6.1	mac	2022-12-14	14:18:34	14:24:21	342375	5ac6ca185cd105000162499d	536236223	1	main_slash	7	main_slash	77	stimuli_distractor_diamondtriangles.svg	stimuli_distractor_diamondtriangles.svg	40	no	0	1	2000
6.6.1	mac	2022-12-14	14:18:34	14:24:21	342375	5ac6ca185cd105000162499d	536236223	1	main_slash	7	advance_on_keypress_SLASH	78	stimuli_distractor_diamondtriangles.svg	stimuli_distractor_diamondtriangles.svg	40	no	57	0	489
6.6.1	mac	2022-12-14	14:18:34	14:24:23	344174	5ac6ca185cd105000162499d	536236223	1	main_slash	7	main_slash	79	stimuli_target_diamondcircles.svg	stimuli_distractor_diamondtriangles.svg	23	yes	53	1	640
6.6.1	mac	2022-12-14	14:18:34	14:24:23	344174	5ac6ca185cd105000162499d	536236223	1	main_slash	7	advance_on_keypress_SLASH	80	stimuli_target_diamondcircles.svg	stimuli_distractor_diamondtriangles.svg	23	yes	57	0	622
6.6.1	mac	2022-12-14	14:18:34	14:24:25	346017	5ac6ca185cd105000162499d	536236223	1	main_slash	7	main_slash	81	stimuli_target_circlediamonds.svg	stimuli_distractor_trianglediamonds.svg	2	yes	53	1	580
6.6.1	mac	2022-12-14	14:18:34	14:24:25	346017	5ac6ca185cd105000162499d	536236223	1	main_slash	7	advance_on_keypress_SLASH	82	stimuli_target_circlediamonds.svg	stimuli_distractor_trianglediamonds.svg	2	yes	57	0	613
6.6.1	mac	2022-12-14	14:18:34	14:24:27	347996	5ac6ca185cd105000162499d	536236223	1	main_slash	7	main_slash	83	stimuli_distractor_diamondtriangles.svg	stimuli_target_circletriangles.svg	13	yes	53	1	686
6.6.1	mac	2022-12-14	14:18:34	14:24:27	347996	5ac6ca185cd105000162499d	536236223	1	main_slash	7	advance_on_keypress_SLASH	84	stimuli_distractor_diamondtriangles.svg	stimuli_target_circletriangles.svg	13	yes	57	0	598
6.6.1	mac	2022-12-14	14:18:34	14:24:28	349883	5ac6ca185cd105000162499d	536236223	1	main_slash	7	main_slash	85	stimuli_target_diamondcircles.svg	stimuli_distractor_trianglediamonds.svg	19	yes	53	1	657
6.6.1	mac	2022-12-14	14:18:34	14:24:28	349883	5ac6ca185cd105000162499d	536236223	1	main_slash	7	advance_on_keypress_SLASH	86	stimuli_target_diamondcircles.svg	stimuli_distractor_trianglediamonds.svg	19	yes	57	0	514
6.6.1	mac	2022-12-14	14:18:34	14:24:30	351660	5ac6ca185cd105000162499d	536236223	1	main_slash	7	main_slash	87	stimuli_target_diamondcircles.svg	stimuli_distractor_diamondtriangles.svg	23	yes	53	1	632
6.6.1	mac	2022-12-14	14:18:34	14:24:30	351660	5ac6ca185cd105000162499d	536236223	1	main_slash	7	advance_on_keypress_SLASH	88	stimuli_target_diamondcircles.svg	stimuli_distractor_diamondtriangles.svg	23	yes	57	0	736
6.6.1	mac	2022-12-14	14:18:34	14:24:33	353949	5ac6ca185cd105000162499d	536236223	1	main_slash	7	main_slash	89	stimuli_target_diamondsquares.svg	stimuli_distractor_diamondtriangles.svg	24	yes	53	1	931
6.6.1	mac	2022-12-14	14:18:34	14:24:33	353949	5ac6ca185cd105000162499d	536236223	1	main_slash	7	advance_on_keypress_SLASH	90	stimuli_target_diamondsquares.svg	stimuli_distractor_diamondtriangles.svg	24	yes	57	0	513
6.6.1	mac	2022-12-14	14:18:34	14:24:35	356048	5ac6ca185cd105000162499d	536236223	1	main_slash	7	main_slash	91	stimuli_target_trianglecircles.svg	stimuli_distractor_diamondtriangles.svg	21	yes	53	1	956
6.6.1	mac	2022-12-14	14:18:34	14:24:35	356048	5ac6ca185cd105000162499d	536236223	1	main_slash	7	advance_on_keypress_SLASH	92	stimuli_target_trianglecircles.svg	stimuli_distractor_diamondtriangles.svg	21	yes	57	0	597
6.6.1	mac	2022-12-14	14:18:34	14:24:38	359280	5ac6ca185cd105000162499d	536236223	1	main_slash	7	main_slash	93	stimuli_distractor_diamondtriangles.svg	stimuli_distractor_diamondtriangles.svg	40	no	0	1	2000
6.6.1	mac	2022-12-14	14:18:34	14:24:38	359280	5ac6ca185cd105000162499d	536236223	1	main_slash	7	advance_on_keypress_SLASH	94	stimuli_distractor_diamondtriangles.svg	stimuli_distractor_diamondtriangles.svg	40	no	57	0	525
6.6.1	mac	2022-12-14	14:18:34	14:24:40	361247	5ac6ca185cd105000162499d	536236223	1	main_slash	7	main_slash	95	stimuli_target_squaretriangles.svg	stimuli_distractor_diamondtriangles.svg	7	yes	53	1	814
6.6.1	mac	2022-12-14	14:18:34	14:24:40	361247	5ac6ca185cd105000162499d	536236223	1	main_slash	7	advance_on_keypress_SLASH	96	stimuli_target_squaretriangles.svg	stimuli_distractor_diamondtriangles.svg	7	yes	57	0	616
6.6.1	mac	2022-12-14	14:18:34	14:24:43	364493	5ac6ca185cd105000162499d	536236223	1	main_slash	7	main_slash	97	stimuli_distractor_trianglediamonds.svg	stimuli_distractor_diamondtriangles.svg	35	no	0	1	2000
6.6.1	mac	2022-12-14	14:18:34	14:24:43	364493	5ac6ca185cd105000162499d	536236223	1	main_slash	7	advance_on_keypress_SLASH	98	stimuli_distractor_trianglediamonds.svg	stimuli_distractor_diamondtriangles.svg	35	no	57	0	418
6.6.1	mac	2022-12-14	14:18:34	14:24:45	366168	5ac6ca185cd105000162499d	536236223	1	main_slash	7	main_slash	99	stimuli_target_circletriangles.svg	stimuli_distractor_diamondtriangles.svg	5	yes	53	1	595
6.6.1	mac	2022-12-14	14:18:34	14:24:45	366168	5ac6ca185cd105000162499d	536236223	1	main_slash	7	advance_on_keypress_SLASH	100	stimuli_target_circletriangles.svg	stimuli_distractor_diamondtriangles.svg	5	yes	57	0	838
6.6.1	mac	2022-12-14	14:18:34	14:24:47	368237	5ac6ca185cd105000162499d	536236223	1	main_slash	7	main_slash	101	stimuli_target_trianglesquares.svg	stimuli_distractor_diamondtriangles.svg	22	yes	53	1	601
6.6.1	mac	2022-12-14	14:18:34	14:24:47	368237	5ac6ca185cd105000162499d	536236223	1	main_slash	7	advance_on_keypress_SLASH	102	stimuli_target_trianglesquares.svg	stimuli_distractor_diamondtriangles.svg	22	yes	57	0	576
6.6.1	mac	2022-12-14	14:18:34	14:24:49	370348	5ac6ca185cd105000162499d	536236223	1	main_slash	7	main_slash	103	stimuli_target_circlediamonds.svg	stimuli_distractor_diamondtriangles.svg	6	yes	53	1	825
6.6.1	mac	2022-12-14	14:18:34	14:24:49	370348	5ac6ca185cd105000162499d	536236223	1	main_slash	7	advance_on_keypress_SLASH	104	stimuli_target_circlediamonds.svg	stimuli_distractor_diamondtriangles.svg	6	yes	57	0	578
6.6.1	mac	2022-12-14	14:18:34	14:24:51	372270	5ac6ca185cd105000162499d	536236223	1	main_slash	7	main_slash	105	stimuli_target_squarediamonds.svg	stimuli_distractor_trianglediamonds.svg	4	yes	53	1	684
6.6.1	mac	2022-12-14	14:18:34	14:24:51	372270	5ac6ca185cd105000162499d	536236223	1	main_slash	7	advance_on_keypress_SLASH	106	stimuli_target_squarediamonds.svg	stimuli_distractor_trianglediamonds.svg	4	yes	57	0	612
6.6.1	mac	2022-12-14	14:18:34	14:24:53	374523	5ac6ca185cd105000162499d	536236223	1	main_slash	7	main_slash	107	stimuli_distractor_trianglediamonds.svg	stimuli_target_diamondsquares.svg	28	yes	53	1	1009
6.6.1	mac	2022-12-14	14:18:34	14:24:53	374523	5ac6ca185cd105000162499d	536236223	1	main_slash	7	advance_on_keypress_SLASH	108	stimuli_distractor_trianglediamonds.svg	stimuli_target_diamondsquares.svg	28	yes	57	0	790
6.6.1	mac	2022-12-14	14:18:34	14:24:55	376841	5ac6ca185cd105000162499d	536236223	1	main_slash	7	main_slash	109	stimuli_distractor_diamondtriangles.svg	stimuli_target_circlediamonds.svg	14	yes	53	1	863
6.6.1	mac	2022-12-14	14:18:34	14:24:55	376841	5ac6ca185cd105000162499d	536236223	1	main_slash	7	advance_on_keypress_SLASH	110	stimuli_distractor_diamondtriangles.svg	stimuli_target_circlediamonds.svg	14	yes	57	0	515
6.6.1	mac	2022-12-14	14:18:34	14:24:59	380093	5ac6ca185cd105000162499d	536236223	1	main_slash	7	main_slash	111	stimuli_distractor_diamondtriangles.svg	stimuli_distractor_trianglediamonds.svg	37	no	0	1	2000
6.6.1	mac	2022-12-14	14:18:34	14:24:59	380093	5ac6ca185cd105000162499d	536236223	1	main_slash	7	advance_on_keypress_SLASH	112	stimuli_distractor_diamondtriangles.svg	stimuli_distractor_trianglediamonds.svg	37	no	57	0	474
6.6.1	mac	2022-12-14	14:18:34	14:25:01	382111	5ac6ca185cd105000162499d	536236223	1	main_slash	7	main_slash	113	stimuli_target_squaretriangles.svg	stimuli_distractor_trianglediamonds.svg	3	yes	53	1	923
6.6.1	mac	2022-12-14	14:18:34	14:25:01	382111	5ac6ca185cd105000162499d	536236223	1	main_slash	7	advance_on_keypress_SLASH	114	stimuli_target_squaretriangles.svg	stimuli_distractor_trianglediamonds.svg	3	yes	57	0	529
6.6.1	mac	2022-12-14	14:18:34	14:25:03	383969	5ac6ca185cd105000162499d	536236223	1	main_slash	7	main_slash	115	stimuli_target_squarediamonds.svg	stimuli_distractor_diamondtriangles.svg	8	yes	53	1	701
6.6.1	mac	2022-12-14	14:18:34	14:25:03	383969	5ac6ca185cd105000162499d	536236223	1	main_slash	7	advance_on_keypress_SLASH	116	stimuli_target_squarediamonds.svg	stimuli_distractor_diamondtriangles.svg	8	yes	57	0	552
6.6.1	mac	2022-12-14	14:18:34	14:25:05	385907	5ac6ca185cd105000162499d	536236223	1	main_slash	7	main_slash	117	stimuli_distractor_diamondtriangles.svg	stimuli_target_trianglecircles.svg	29	yes	53	1	752
6.6.1	mac	2022-12-14	14:18:34	14:25:05	385907	5ac6ca185cd105000162499d	536236223	1	main_slash	7	advance_on_keypress_SLASH	118	stimuli_distractor_diamondtriangles.svg	stimuli_target_trianglecircles.svg	29	yes	57	0	729
6.6.1	mac	2022-12-14	14:18:34	14:25:07	388113	5ac6ca185cd105000162499d	536236223	1	main_slash	7	main_slash	119	stimuli_target_circletriangles.svg	stimuli_distractor_trianglediamonds.svg	1	yes	53	1	831
6.6.1	mac	2022-12-14	14:18:34	14:25:07	388113	5ac6ca185cd105000162499d	536236223	1	main_slash	7	advance_on_keypress_SLASH	120	stimuli_target_circletriangles.svg	stimuli_distractor_trianglediamonds.svg	1	yes	57	0	561
6.6.1	mac	2022-12-14	14:18:34	14:25:09	390000	5ac6ca185cd105000162499d	536236223	1	main_slash	7	main_slash	121	stimuli_target_trianglecircles.svg	stimuli_distractor_trianglediamonds.svg	17	yes	53	1	688
6.6.1	mac	2022-12-14	14:18:34	14:25:09	390000	5ac6ca185cd105000162499d	536236223	1	main_slash	7	advance_on_keypress_SLASH	122	stimuli_target_trianglecircles.svg	stimuli_distractor_trianglediamonds.svg	17	yes	57	0	1700
6.6.1	mac	2022-12-14	14:18:34	14:25:12	393437	5ac6ca185cd105000162499d	536236223	1	main_slash	7	main_slash	123	stimuli_distractor_trianglediamonds.svg	stimuli_target_trianglesquares.svg	26	yes	53	1	1091
6.6.1	mac	2022-12-14	14:18:34	14:25:12	393437	5ac6ca185cd105000162499d	536236223	1	main_slash	7	advance_on_keypress_SLASH	124	stimuli_distractor_trianglediamonds.svg	stimuli_target_trianglesquares.svg	26	yes	57	0	663
6.6.1	mac	2022-12-14	14:18:34	14:25:15	396749	5ac6ca185cd105000162499d	536236223	1	main_slash	7	main_slash	125	stimuli_distractor_trianglediamonds.svg	stimuli_distractor_trianglediamonds.svg	34	no	0	1	2000
6.6.1	mac	2022-12-14	14:18:34	14:25:15	396749	5ac6ca185cd105000162499d	536236223	1	main_slash	7	advance_on_keypress_SLASH	126	stimuli_distractor_trianglediamonds.svg	stimuli_distractor_trianglediamonds.svg	34	no	57	0	307
6.6.1	mac	2022-12-14	14:18:34	14:25:17	398285	5ac6ca185cd105000162499d	536236223	1	main_slash	7	main_slash	127	stimuli_distractor_trianglediamonds.svg	stimuli_target_squarediamonds.svg	12	yes	53	1	598
6.6.1	mac	2022-12-14	14:18:34	14:25:17	398285	5ac6ca185cd105000162499d	536236223	1	main_slash	7	advance_on_keypress_SLASH	128	stimuli_distractor_trianglediamonds.svg	stimuli_target_squarediamonds.svg	12	yes	57	0	552
6.6.1	mac	2022-12-14	14:18:34	14:25:19	400474	5ac6ca185cd105000162499d	536236223	1	main_slash	7	main_slash	129	stimuli_distractor_diamondtriangles.svg	stimuli_target_trianglesquares.svg	30	yes	53	1	994
6.6.1	mac	2022-12-14	14:18:34	14:25:19	400474	5ac6ca185cd105000162499d	536236223	1	main_slash	7	advance_on_keypress_SLASH	130	stimuli_distractor_diamondtriangles.svg	stimuli_target_trianglesquares.svg	30	yes	57	0	628
6.6.1	mac	2022-12-14	14:18:34	14:25:22	403764	5ac6ca185cd105000162499d	536236223	1	main_slash	7	main_slash	131	stimuli_distractor_diamondtriangles.svg	stimuli_distractor_diamondtriangles.svg	39	no	0	1	2000
6.6.1	mac	2022-12-14	14:18:34	14:25:22	403764	5ac6ca185cd105000162499d	536236223	1	main_slash	7	advance_on_keypress_SLASH	132	stimuli_distractor_diamondtriangles.svg	stimuli_distractor_diamondtriangles.svg	39	no	57	0	382
6.6.1	mac	2022-12-14	14:18:34	14:25:24	405647	5ac6ca185cd105000162499d	536236223	1	main_slash	7	main_slash	133	stimuli_distractor_trianglediamonds.svg	stimuli_target_squaretriangles.svg	11	yes	53	1	885
6.6.1	mac	2022-12-14	14:18:34	14:25:24	405647	5ac6ca185cd105000162499d	536236223	1	main_slash	7	advance_on_keypress_SLASH	134	stimuli_distractor_trianglediamonds.svg	stimuli_target_squaretriangles.svg	11	yes	57	0	645
6.6.1	mac	2022-12-14	14:18:34	14:25:28	408927	5ac6ca185cd105000162499d	536236223	1	main_slash	7	main_slash	135	stimuli_distractor_trianglediamonds.svg	stimuli_distractor_diamondtriangles.svg	36	no	0	1	2000
6.6.1	mac	2022-12-14	14:18:34	14:25:28	408927	5ac6ca185cd105000162499d	536236223	1	main_slash	7	advance_on_keypress_SLASH	136	stimuli_distractor_trianglediamonds.svg	stimuli_distractor_diamondtriangles.svg	36	no	57	0	483
6.6.1	mac	2022-12-14	14:18:34	14:25:29	410723	5ac6ca185cd105000162499d	536236223	1	main_slash	7	main_slash	137	stimuli_distractor_trianglediamonds.svg	stimuli_target_circlediamonds.svg	10	yes	53	1	685
6.6.1	mac	2022-12-14	14:18:34	14:25:29	410723	5ac6ca185cd105000162499d	536236223	1	main_slash	7	advance_on_keypress_SLASH	138	stimuli_distractor_trianglediamonds.svg	stimuli_target_circlediamonds.svg	10	yes	57	0	714
6.6.1	mac	2022-12-14	14:18:34	14:25:31	412817	5ac6ca185cd105000162499d	536236223	1	main_slash	7	main_slash	139	stimuli_distractor_diamondtriangles.svg	stimuli_target_diamondcircles.svg	31	yes	53	1	725
6.6.1	mac	2022-12-14	14:18:34	14:25:31	412817	5ac6ca185cd105000162499d	536236223	1	main_slash	7	advance_on_keypress_SLASH	140	stimuli_distractor_diamondtriangles.svg	stimuli_target_diamondcircles.svg	31	yes	57	0	1006
6.6.1	mac	2022-12-14	14:18:34	14:25:34	415120	5ac6ca185cd105000162499d	536236223	1	main_slash	7	main_slash	141	stimuli_distractor_trianglediamonds.svg	stimuli_target_trianglecircles.svg	25	yes	53	1	655
6.6.1	mac	2022-12-14	14:18:34	14:25:34	415120	5ac6ca185cd105000162499d	536236223	1	main_slash	7	advance_on_keypress_SLASH	142	stimuli_distractor_trianglediamonds.svg	stimuli_target_trianglecircles.svg	25	yes	57	0	697
6.6.1	mac	2022-12-14	14:18:34	14:25:36	417039	5ac6ca185cd105000162499d	536236223	1	main_slash	7	main_slash	143	stimuli_target_trianglesquares.svg	stimuli_distractor_trianglediamonds.svg	18	yes	53	1	585
6.6.1	mac	2022-12-14	14:18:34	14:25:36	417039	5ac6ca185cd105000162499d	536236223	1	main_slash	7	advance_on_keypress_SLASH	144	stimuli_target_trianglesquares.svg	stimuli_distractor_trianglediamonds.svg	18	yes	57	0	707
6.6.1	mac	2022-12-14	14:18:34	14:25:38	419179	5ac6ca185cd105000162499d	536236223	1	main_slash	7	main_slash	145	stimuli_target_diamondsquares.svg	stimuli_distractor_trianglediamonds.svg	20	yes	53	1	800
6.6.1	mac	2022-12-14	14:18:34	14:25:38	419179	5ac6ca185cd105000162499d	536236223	1	main_slash	7	advance_on_keypress_SLASH	146	stimuli_target_diamondsquares.svg	stimuli_distractor_trianglediamonds.svg	20	yes	57	0	521
6.6.1	mac	2022-12-14	14:18:34	14:25:41	422330	5ac6ca185cd105000162499d	536236223	1	main_slash	7	main_slash	147	stimuli_distractor_diamondtriangles.svg	stimuli_distractor_trianglediamonds.svg	38	no	0	1	2000
6.6.1	mac	2022-12-14	14:18:34	14:25:41	422330	5ac6ca185cd105000162499d	536236223	1	main_slash	7	advance_on_keypress_SLASH	148	stimuli_distractor_diamondtriangles.svg	stimuli_distractor_trianglediamonds.svg	38	no	57	0	917
6.6.1	mac	2022-12-14	14:18:34	14:25:43	424421	5ac6ca185cd105000162499d	536236223	1	main_slash	7	main_slash	149	stimuli_distractor_trianglediamonds.svg	stimuli_target_circletriangles.svg	9	yes	53	1	548
6.6.1	mac	2022-12-14	14:18:34	14:25:43	424421	5ac6ca185cd105000162499d	536236223	1	main_slash	7	advance_on_keypress_SLASH	150	stimuli_distractor_trianglediamonds.svg	stimuli_target_circletriangles.svg	9	yes	57	0	582
6.6.1	mac	2022-12-14	14:18:34	14:25:45	426305	5ac6ca185cd105000162499d	536236223	1	main_slash	7	main_slash	151	stimuli_distractor_diamondtriangles.svg	stimuli_target_diamondsquares.svg	32	yes	53	1	670
6.6.1	mac	2022-12-14	14:18:34	14:25:45	426305	5ac6ca185cd105000162499d	536236223	1	main_slash	7	advance_on_keypress_SLASH	152	stimuli_distractor_diamondtriangles.svg	stimuli_target_diamondsquares.svg	32	yes	57	0	586
6.6.1	mac	2022-12-14	14:18:34	14:25:47	428062	5ac6ca185cd105000162499d	536236223	1	main_slash	7	main_slash	153	stimuli_distractor_trianglediamonds.svg	stimuli_target_diamondcircles.svg	27	yes	53	1	540
6.6.1	mac	2022-12-14	14:18:34	14:25:47	428062	5ac6ca185cd105000162499d	536236223	1	main_slash	7	advance_on_keypress_SLASH	154	stimuli_distractor_trianglediamonds.svg	stimuli_target_diamondcircles.svg	27	yes	57	0	476
6.6.1	mac	2022-12-14	14:18:34	14:25:49	430014	5ac6ca185cd105000162499d	536236223	1	main_slash	7	main_slash	155	stimuli_distractor_diamondtriangles.svg	stimuli_target_squarediamonds.svg	16	yes	53	1	841
6.6.1	mac	2022-12-14	14:18:34	14:25:49	430014	5ac6ca185cd105000162499d	536236223	1	main_slash	7	advance_on_keypress_SLASH	156	stimuli_distractor_diamondtriangles.svg	stimuli_target_squarediamonds.svg	16	yes	57	0	856
6.6.1	mac	2022-12-14	14:18:34	14:25:51	432128	5ac6ca185cd105000162499d	536236223	1	main_slash	7	main_slash	157	stimuli_distractor_diamondtriangles.svg	stimuli_target_squaretriangles.svg	15	yes	53	1	626
6.6.1	mac	2022-12-14	14:18:34	14:25:51	432128	5ac6ca185cd105000162499d	536236223	1	main_slash	7	advance_on_keypress_SLASH	158	stimuli_distractor_diamondtriangles.svg	stimuli_target_squaretriangles.svg	15	yes	57	0	645
6.6.1	mac	2022-12-14	14:18:34	14:25:54	435401	5ac6ca185cd105000162499d	536236223	1	main_slash	7	main_slash	159	stimuli_distractor_trianglediamonds.svg	stimuli_distractor_trianglediamonds.svg	33	no	0	1	2000
6.6.1	mac	2022-12-14	14:18:34	14:25:54	435401	5ac6ca185cd105000162499d	536236223	1	main_slash	7	advance_on_keypress_SLASH	160	stimuli_distractor_trianglediamonds.svg	stimuli_distractor_trianglediamonds.svg	33	no	57	0	492
6.6.1	mac	2022-12-14	14:18:34	14:26:15	456089	5ac6ca185cd105000162499d	536236223	1	practice_z	9	practice_z	1	stimuli_distractor_diamondtriangles.svg	stimuli_target_circletriangles.svg	7	yes	44	1	724
6.6.1	mac	2022-12-14	14:18:34	14:26:15	456089	5ac6ca185cd105000162499d	536236223	1	practice_z	9	advance_on_keypress_ZEE	2	stimuli_distractor_diamondtriangles.svg	stimuli_target_circletriangles.svg	7	yes	57	0	609
6.6.1	mac	2022-12-14	14:18:34	14:26:19	460340	5ac6ca185cd105000162499d	536236223	1	practice_z	9	practice_z	3	stimuli_distractor_trianglediamonds.svg	stimuli_distractor_trianglediamonds.svg	15	no	0	1	2000
6.6.1	mac	2022-12-14	14:18:34	14:26:19	460340	5ac6ca185cd105000162499d	536236223	1	practice_z	9	advance_on_keypress_ZEE	4	stimuli_distractor_trianglediamonds.svg	stimuli_distractor_trianglediamonds.svg	15	no	57	0	380
6.6.1	mac	2022-12-14	14:18:34	14:26:23	464360	5ac6ca185cd105000162499d	536236223	1	practice_z	9	practice_z	5	stimuli_distractor_diamondtriangles.svg	stimuli_distractor_diamondtriangles.svg	13	no	0	1	2000
6.6.1	mac	2022-12-14	14:18:34	14:26:23	464360	5ac6ca185cd105000162499d	536236223	1	practice_z	9	advance_on_keypress_ZEE	6	stimuli_distractor_diamondtriangles.svg	stimuli_distractor_diamondtriangles.svg	13	no	57	0	497
6.6.1	mac	2022-12-14	14:18:34	14:26:26	467126	5ac6ca185cd105000162499d	536236223	1	practice_z	9	practice_z	7	stimuli_distractor_trianglediamonds.svg	stimuli_target_circlediamonds.svg	10	yes	44	1	602
6.6.1	mac	2022-12-14	14:18:34	14:26:26	467126	5ac6ca185cd105000162499d	536236223	1	practice_z	9	advance_on_keypress_ZEE	8	stimuli_distractor_trianglediamonds.svg	stimuli_target_circlediamonds.svg	10	yes	57	0	1340
6.6.1	mac	2022-12-14	14:18:34	14:26:29	470743	5ac6ca185cd105000162499d	536236223	1	practice_z	9	practice_z	9	stimuli_target_squarediamonds.svg	stimuli_distractor_diamondtriangles.svg	2	yes	44	1	632
6.6.1	mac	2022-12-14	14:18:34	14:26:29	470743	5ac6ca185cd105000162499d	536236223	1	practice_z	9	advance_on_keypress_ZEE	10	stimuli_target_squarediamonds.svg	stimuli_distractor_diamondtriangles.svg	2	yes	57	0	580
6.6.1	mac	2022-12-14	14:18:34	14:26:34	474951	5ac6ca185cd105000162499d	536236223	1	practice_z	9	practice_z	11	stimuli_distractor_diamondtriangles.svg	stimuli_distractor_trianglediamonds.svg	14	no	0	1	2000
6.6.1	mac	2022-12-14	14:18:34	14:26:34	474951	5ac6ca185cd105000162499d	536236223	1	practice_z	9	advance_on_keypress_ZEE	12	stimuli_distractor_diamondtriangles.svg	stimuli_distractor_trianglediamonds.svg	14	no	57	0	2139
6.6.1	mac	2022-12-14	14:18:34	14:26:38	479418	5ac6ca185cd105000162499d	536236223	1	practice_z	9	practice_z	13	stimuli_distractor_diamondtriangles.svg	stimuli_target_trianglecircles.svg	9	yes	44	1	691
6.6.1	mac	2022-12-14	14:18:34	14:26:38	479418	5ac6ca185cd105000162499d	536236223	1	practice_z	9	advance_on_keypress_ZEE	14	stimuli_distractor_diamondtriangles.svg	stimuli_target_trianglecircles.svg	9	yes	57	0	546
6.6.1	mac	2022-12-14	14:18:34	14:26:41	482547	5ac6ca185cd105000162499d	536236223	1	practice_z	9	practice_z	15	stimuli_distractor_trianglediamonds.svg	stimuli_target_squarediamonds.svg	11	yes	44	1	956
6.6.1	mac	2022-12-14	14:18:34	14:26:41	482547	5ac6ca185cd105000162499d	536236223	1	practice_z	9	advance_on_keypress_ZEE	16	stimuli_distractor_trianglediamonds.svg	stimuli_target_squarediamonds.svg	11	yes	57	0	2050
6.6.1	mac	2022-12-14	14:18:34	14:26:47	488221	5ac6ca185cd105000162499d	536236223	1	practice_z	9	practice_z	17	stimuli_target_diamondsquares.svg	stimuli_distractor_trianglediamonds.svg	6	yes	0	0	2000
6.6.1	mac	2022-12-14	14:18:34	14:26:47	488221	5ac6ca185cd105000162499d	536236223	1	practice_z	9	advance_on_keypress_ZEE	18	stimuli_target_diamondsquares.svg	stimuli_distractor_trianglediamonds.svg	6	yes	57	0	318
6.6.1	mac	2022-12-14	14:18:34	14:26:50	490994	5ac6ca185cd105000162499d	536236223	1	practice_z	9	practice_z	19	stimuli_target_squarediamonds.svg	stimuli_distractor_trianglediamonds.svg	5	yes	44	1	824
6.6.1	mac	2022-12-14	14:18:34	14:26:50	490994	5ac6ca185cd105000162499d	536236223	1	practice_z	9	advance_on_keypress_ZEE	20	stimuli_target_squarediamonds.svg	stimuli_distractor_trianglediamonds.svg	5	yes	57	0	532
6.6.1	mac	2022-12-14	14:18:34	14:26:52	493852	5ac6ca185cd105000162499d	536236223	1	practice_z	9	practice_z	21	stimuli_distractor_trianglediamonds.svg	stimuli_target_diamondcircles.svg	12	yes	44	1	676
6.6.1	mac	2022-12-14	14:18:34	14:26:52	493852	5ac6ca185cd105000162499d	536236223	1	practice_z	9	advance_on_keypress_ZEE	22	stimuli_distractor_trianglediamonds.svg	stimuli_target_diamondcircles.svg	12	yes	57	0	649
6.6.1	mac	2022-12-14	14:18:34	14:26:55	496841	5ac6ca185cd105000162499d	536236223	1	practice_z	9	practice_z	23	stimuli_target_circlediamonds.svg	stimuli_distractor_diamondtriangles.svg	1	yes	44	1	607
6.6.1	mac	2022-12-14	14:18:34	14:26:55	496841	5ac6ca185cd105000162499d	536236223	1	practice_z	9	advance_on_keypress_ZEE	24	stimuli_target_circlediamonds.svg	stimuli_distractor_diamondtriangles.svg	1	yes	57	0	422
6.6.1	mac	2022-12-14	14:18:34	14:26:58	499692	5ac6ca185cd105000162499d	536236223	1	practice_z	9	practice_z	25	stimuli_distractor_trianglediamonds.svg	stimuli_distractor_diamondtriangles.svg	16	no	44	0	791
6.6.1	mac	2022-12-14	14:18:34	14:26:58	499692	5ac6ca185cd105000162499d	536236223	1	practice_z	9	advance_on_keypress_ZEE	26	stimuli_distractor_trianglediamonds.svg	stimuli_distractor_diamondtriangles.svg	16	no	57	0	401
6.6.1	mac	2022-12-14	14:18:34	14:27:01	502277	5ac6ca185cd105000162499d	536236223	1	practice_z	9	practice_z	27	stimuli_distractor_diamondtriangles.svg	stimuli_target_diamondcircles.svg	8	yes	44	1	499
6.6.1	mac	2022-12-14	14:18:34	14:27:01	502277	5ac6ca185cd105000162499d	536236223	1	practice_z	9	advance_on_keypress_ZEE	28	stimuli_distractor_diamondtriangles.svg	stimuli_target_diamondcircles.svg	8	yes	57	0	493
6.6.1	mac	2022-12-14	14:18:34	14:27:04	505195	5ac6ca185cd105000162499d	536236223	1	practice_z	9	practice_z	29	stimuli_target_diamondsquares.svg	stimuli_distractor_diamondtriangles.svg	3	yes	44	1	748
6.6.1	mac	2022-12-14	14:18:34	14:27:04	505195	5ac6ca185cd105000162499d	536236223	1	practice_z	9	advance_on_keypress_ZEE	30	stimuli_target_diamondsquares.svg	stimuli_distractor_diamondtriangles.svg	3	yes	57	0	1756
6.6.1	mac	2022-12-14	14:18:34	14:27:08	509296	5ac6ca185cd105000162499d	536236223	1	practice_z	9	practice_z	31	stimuli_target_circlediamonds.svg	stimuli_distractor_trianglediamonds.svg	4	yes	44	1	692
6.6.1	mac	2022-12-14	14:18:34	14:27:08	509296	5ac6ca185cd105000162499d	536236223	1	practice_z	9	advance_on_keypress_ZEE	32	stimuli_target_circlediamonds.svg	stimuli_distractor_trianglediamonds.svg	4	yes	57	0	469
6.6.1	mac	2022-12-14	14:18:34	14:27:12	513111	5ac6ca185cd105000162499d	536236223	1	main_z	11	main_z	1	stimuli_distractor_trianglediamonds.svg	stimuli_target_circletriangles.svg	9	yes	44	1	442
6.6.1	mac	2022-12-14	14:18:34	14:27:12	513111	5ac6ca185cd105000162499d	536236223	1	main_z	11	advance_on_keypress_ZEE	2	stimuli_distractor_trianglediamonds.svg	stimuli_target_circletriangles.svg	9	yes	57	0	573
6.6.1	mac	2022-12-14	14:18:34	14:27:14	515159	5ac6ca185cd105000162499d	536236223	1	main_z	11	main_z	3	stimuli_target_squaretriangles.svg	stimuli_distractor_diamondtriangles.svg	7	yes	44	1	828
6.6.1	mac	2022-12-14	14:18:34	14:27:14	515159	5ac6ca185cd105000162499d	536236223	1	main_z	11	advance_on_keypress_ZEE	4	stimuli_target_squaretriangles.svg	stimuli_distractor_diamondtriangles.svg	7	yes	57	0	613
6.6.1	mac	2022-12-14	14:18:34	14:27:16	517155	5ac6ca185cd105000162499d	536236223	1	main_z	11	main_z	5	stimuli_distractor_trianglediamonds.svg	stimuli_target_diamondsquares.svg	28	yes	44	1	750
6.6.1	mac	2022-12-14	14:18:34	14:27:16	517155	5ac6ca185cd105000162499d	536236223	1	main_z	11	advance_on_keypress_ZEE	6	stimuli_distractor_trianglediamonds.svg	stimuli_target_diamondsquares.svg	28	yes	57	0	474
6.6.1	mac	2022-12-14	14:18:34	14:27:19	520258	5ac6ca185cd105000162499d	536236223	1	main_z	11	main_z	7	stimuli_distractor_diamondtriangles.svg	stimuli_distractor_trianglediamonds.svg	37	no	0	1	2000
6.6.1	mac	2022-12-14	14:18:34	14:27:19	520258	5ac6ca185cd105000162499d	536236223	1	main_z	11	advance_on_keypress_ZEE	8	stimuli_distractor_diamondtriangles.svg	stimuli_distractor_trianglediamonds.svg	37	no	57	0	383
6.6.1	mac	2022-12-14	14:18:34	14:27:20	521819	5ac6ca185cd105000162499d	536236223	1	main_z	11	main_z	9	stimuli_distractor_diamondtriangles.svg	stimuli_target_diamondsquares.svg	32	yes	44	1	550
6.6.1	mac	2022-12-14	14:18:34	14:27:20	521819	5ac6ca185cd105000162499d	536236223	1	main_z	11	advance_on_keypress_ZEE	10	stimuli_distractor_diamondtriangles.svg	stimuli_target_diamondsquares.svg	32	yes	57	0	484
6.6.1	mac	2022-12-14	14:18:34	14:27:22	523481	5ac6ca185cd105000162499d	536236223	1	main_z	11	main_z	11	stimuli_target_trianglecircles.svg	stimuli_distractor_trianglediamonds.svg	17	yes	44	1	530
6.6.1	mac	2022-12-14	14:18:34	14:27:22	523481	5ac6ca185cd105000162499d	536236223	1	main_z	11	advance_on_keypress_ZEE	12	stimuli_target_trianglecircles.svg	stimuli_distractor_trianglediamonds.svg	17	yes	57	0	598
6.6.1	mac	2022-12-14	14:18:34	14:27:24	525365	5ac6ca185cd105000162499d	536236223	1	main_z	11	main_z	13	stimuli_distractor_diamondtriangles.svg	stimuli_target_circletriangles.svg	13	yes	44	1	647
6.6.1	mac	2022-12-14	14:18:34	14:27:24	525365	5ac6ca185cd105000162499d	536236223	1	main_z	11	advance_on_keypress_ZEE	14	stimuli_distractor_diamondtriangles.svg	stimuli_target_circletriangles.svg	13	yes	57	0	421
6.6.1	mac	2022-12-14	14:18:34	14:27:26	527301	5ac6ca185cd105000162499d	536236223	1	main_z	11	main_z	15	stimuli_target_circletriangles.svg	stimuli_distractor_diamondtriangles.svg	5	yes	44	1	846
6.6.1	mac	2022-12-14	14:18:34	14:27:26	527301	5ac6ca185cd105000162499d	536236223	1	main_z	11	advance_on_keypress_ZEE	16	stimuli_target_circletriangles.svg	stimuli_distractor_diamondtriangles.svg	5	yes	57	0	506
6.6.1	mac	2022-12-14	14:18:34	14:27:28	529388	5ac6ca185cd105000162499d	536236223	1	main_z	11	main_z	17	stimuli_distractor_diamondtriangles.svg	stimuli_target_diamondcircles.svg	31	yes	44	1	923
6.6.1	mac	2022-12-14	14:18:34	14:27:28	529388	5ac6ca185cd105000162499d	536236223	1	main_z	11	advance_on_keypress_ZEE	18	stimuli_distractor_diamondtriangles.svg	stimuli_target_diamondcircles.svg	31	yes	57	0	558
6.6.1	mac	2022-12-14	14:18:34	14:27:30	531160	5ac6ca185cd105000162499d	536236223	1	main_z	11	main_z	19	stimuli_distractor_trianglediamonds.svg	stimuli_target_circlediamonds.svg	10	yes	44	1	525
6.6.1	mac	2022-12-14	14:18:34	14:27:30	531160	5ac6ca185cd105000162499d	536236223	1	main_z	11	advance_on_keypress_ZEE	20	stimuli_distractor_trianglediamonds.svg	stimuli_target_circlediamonds.svg	10	yes	57	0	480
6.6.1	mac	2022-12-14	14:18:34	14:27:32	533256	5ac6ca185cd105000162499d	536236223	1	main_z	11	main_z	21	stimuli_distractor_diamondtriangles.svg	stimuli_target_squarediamonds.svg	16	yes	44	1	926
6.6.1	mac	2022-12-14	14:18:34	14:27:32	533256	5ac6ca185cd105000162499d	536236223	1	main_z	11	advance_on_keypress_ZEE	22	stimuli_distractor_diamondtriangles.svg	stimuli_target_squarediamonds.svg	16	yes	57	0	754
6.6.1	mac	2022-12-14	14:18:34	14:27:34	535261	5ac6ca185cd105000162499d	536236223	1	main_z	11	main_z	23	stimuli_distractor_trianglediamonds.svg	stimuli_target_trianglecircles.svg	25	yes	44	1	605
6.6.1	mac	2022-12-14	14:18:34	14:27:34	535261	5ac6ca185cd105000162499d	536236223	1	main_z	11	advance_on_keypress_ZEE	24	stimuli_distractor_trianglediamonds.svg	stimuli_target_trianglecircles.svg	25	yes	57	0	454
6.6.1	mac	2022-12-14	14:18:34	14:27:36	536997	5ac6ca185cd105000162499d	536236223	1	main_z	11	main_z	25	stimuli_target_trianglecircles.svg	stimuli_distractor_diamondtriangles.svg	21	yes	44	1	643
6.6.1	mac	2022-12-14	14:18:34	14:27:36	536997	5ac6ca185cd105000162499d	536236223	1	main_z	11	advance_on_keypress_ZEE	26	stimuli_target_trianglecircles.svg	stimuli_distractor_diamondtriangles.svg	21	yes	57	0	431
6.6.1	mac	2022-12-14	14:18:34	14:27:37	538745	5ac6ca185cd105000162499d	536236223	1	main_z	11	main_z	27	stimuli_distractor_diamondtriangles.svg	stimuli_target_squaretriangles.svg	15	yes	44	1	673
6.6.1	mac	2022-12-14	14:18:34	14:27:37	538745	5ac6ca185cd105000162499d	536236223	1	main_z	11	advance_on_keypress_ZEE	28	stimuli_distractor_diamondtriangles.svg	stimuli_target_squaretriangles.svg	15	yes	57	0	495
6.6.1	mac	2022-12-14	14:18:34	14:27:39	540437	5ac6ca185cd105000162499d	536236223	1	main_z	11	main_z	29	stimuli_target_circlediamonds.svg	stimuli_distractor_trianglediamonds.svg	2	yes	44	1	563
6.6.1	mac	2022-12-14	14:18:34	14:27:39	540437	5ac6ca185cd105000162499d	536236223	1	main_z	11	advance_on_keypress_ZEE	30	stimuli_target_circlediamonds.svg	stimuli_distractor_trianglediamonds.svg	2	yes	57	0	744
6.6.1	mac	2022-12-14	14:18:34	14:27:41	542348	5ac6ca185cd105000162499d	536236223	1	main_z	11	main_z	31	stimuli_distractor_diamondtriangles.svg	stimuli_target_trianglesquares.svg	30	yes	44	1	537
6.6.1	mac	2022-12-14	14:18:34	14:27:41	542348	5ac6ca185cd105000162499d	536236223	1	main_z	11	advance_on_keypress_ZEE	32	stimuli_distractor_diamondtriangles.svg	stimuli_target_trianglesquares.svg	30	yes	57	0	580
6.6.1	mac	2022-12-14	14:18:34	14:27:43	544027	5ac6ca185cd105000162499d	536236223	1	main_z	11	main_z	33	stimuli_target_circletriangles.svg	stimuli_distractor_trianglediamonds.svg	1	yes	44	1	465
6.6.1	mac	2022-12-14	14:18:34	14:27:43	544027	5ac6ca185cd105000162499d	536236223	1	main_z	11	advance_on_keypress_ZEE	34	stimuli_target_circletriangles.svg	stimuli_distractor_trianglediamonds.svg	1	yes	57	0	507
6.6.1	mac	2022-12-14	14:18:34	14:27:46	547160	5ac6ca185cd105000162499d	536236223	1	main_z	11	main_z	35	stimuli_distractor_diamondtriangles.svg	stimuli_distractor_diamondtriangles.svg	39	no	0	1	2000
6.6.1	mac	2022-12-14	14:18:34	14:27:46	547160	5ac6ca185cd105000162499d	536236223	1	main_z	11	advance_on_keypress_ZEE	36	stimuli_distractor_diamondtriangles.svg	stimuli_distractor_diamondtriangles.svg	39	no	57	0	509
6.6.1	mac	2022-12-14	14:18:34	14:27:47	548758	5ac6ca185cd105000162499d	536236223	1	main_z	11	main_z	37	stimuli_distractor_diamondtriangles.svg	stimuli_target_trianglecircles.svg	29	yes	44	1	459
6.6.1	mac	2022-12-14	14:18:34	14:27:47	548758	5ac6ca185cd105000162499d	536236223	1	main_z	11	advance_on_keypress_ZEE	38	stimuli_distractor_diamondtriangles.svg	stimuli_target_trianglecircles.svg	29	yes	57	0	438
6.6.1	mac	2022-12-14	14:18:34	14:27:50	551048	5ac6ca185cd105000162499d	536236223	1	main_z	11	main_z	39	stimuli_target_trianglesquares.svg	stimuli_distractor_trianglediamonds.svg	18	yes	44	1	1210
6.6.1	mac	2022-12-14	14:18:34	14:27:50	551048	5ac6ca185cd105000162499d	536236223	1	main_z	11	advance_on_keypress_ZEE	40	stimuli_target_trianglesquares.svg	stimuli_distractor_trianglediamonds.svg	18	yes	57	0	596
6.6.1	mac	2022-12-14	14:18:34	14:27:52	553535	5ac6ca185cd105000162499d	536236223	1	main_z	11	main_z	41	stimuli_distractor_trianglediamonds.svg	stimuli_target_squaretriangles.svg	11	yes	44	1	1154
6.6.1	mac	2022-12-14	14:18:34	14:27:52	553535	5ac6ca185cd105000162499d	536236223	1	main_z	11	advance_on_keypress_ZEE	42	stimuli_distractor_trianglediamonds.svg	stimuli_target_squaretriangles.svg	11	yes	57	0	588
6.6.1	mac	2022-12-14	14:18:34	14:27:54	555616	5ac6ca185cd105000162499d	536236223	1	main_z	11	main_z	43	stimuli_target_squarediamonds.svg	stimuli_distractor_diamondtriangles.svg	8	yes	44	1	524
6.6.1	mac	2022-12-14	14:18:34	14:27:54	555616	5ac6ca185cd105000162499d	536236223	1	main_z	11	advance_on_keypress_ZEE	44	stimuli_target_squarediamonds.svg	stimuli_distractor_diamondtriangles.svg	8	yes	57	0	434
6.6.1	mac	2022-12-14	14:18:34	14:27:56	557696	5ac6ca185cd105000162499d	536236223	1	main_z	11	main_z	45	stimuli_distractor_trianglediamonds.svg	stimuli_target_trianglesquares.svg	26	yes	44	1	870
6.6.1	mac	2022-12-14	14:18:34	14:27:56	557696	5ac6ca185cd105000162499d	536236223	1	main_z	11	advance_on_keypress_ZEE	46	stimuli_distractor_trianglediamonds.svg	stimuli_target_trianglesquares.svg	26	yes	57	0	621
6.6.1	mac	2022-12-14	14:18:34	14:27:59	560009	5ac6ca185cd105000162499d	536236223	1	main_z	11	main_z	47	stimuli_target_squaretriangles.svg	stimuli_distractor_trianglediamonds.svg	3	yes	44	1	1051
6.6.1	mac	2022-12-14	14:18:34	14:27:59	560009	5ac6ca185cd105000162499d	536236223	1	main_z	11	advance_on_keypress_ZEE	48	stimuli_target_squaretriangles.svg	stimuli_distractor_trianglediamonds.svg	3	yes	57	0	524
6.6.1	mac	2022-12-14	14:18:34	14:28:01	561987	5ac6ca185cd105000162499d	536236223	1	main_z	11	main_z	49	stimuli_target_squarediamonds.svg	stimuli_distractor_trianglediamonds.svg	4	yes	44	1	819
6.6.1	mac	2022-12-14	14:18:34	14:28:01	561987	5ac6ca185cd105000162499d	536236223	1	main_z	11	advance_on_keypress_ZEE	50	stimuli_target_squarediamonds.svg	stimuli_distractor_trianglediamonds.svg	4	yes	57	0	597
6.6.1	mac	2022-12-14	14:18:34	14:28:04	565227	5ac6ca185cd105000162499d	536236223	1	main_z	11	main_z	51	stimuli_target_diamondsquares.svg	stimuli_distractor_trianglediamonds.svg	20	yes	0	0	2000
6.6.1	mac	2022-12-14	14:18:34	14:28:04	565227	5ac6ca185cd105000162499d	536236223	1	main_z	11	advance_on_keypress_ZEE	52	stimuli_target_diamondsquares.svg	stimuli_distractor_trianglediamonds.svg	20	yes	57	0	515
6.6.1	mac	2022-12-14	14:18:34	14:28:06	567086	5ac6ca185cd105000162499d	536236223	1	main_z	11	main_z	53	stimuli_target_circlediamonds.svg	stimuli_distractor_diamondtriangles.svg	6	yes	44	1	586
6.6.1	mac	2022-12-14	14:18:34	14:28:06	567086	5ac6ca185cd105000162499d	536236223	1	main_z	11	advance_on_keypress_ZEE	54	stimuli_target_circlediamonds.svg	stimuli_distractor_diamondtriangles.svg	6	yes	57	0	350
6.6.1	mac	2022-12-14	14:18:34	14:28:09	570116	5ac6ca185cd105000162499d	536236223	1	main_z	11	main_z	55	stimuli_distractor_diamondtriangles.svg	stimuli_distractor_trianglediamonds.svg	38	no	0	1	2000
6.6.1	mac	2022-12-14	14:18:34	14:28:09	570116	5ac6ca185cd105000162499d	536236223	1	main_z	11	advance_on_keypress_ZEE	56	stimuli_distractor_diamondtriangles.svg	stimuli_distractor_trianglediamonds.svg	38	no	57	0	481
6.6.1	mac	2022-12-14	14:18:34	14:28:11	571914	5ac6ca185cd105000162499d	536236223	1	main_z	11	main_z	57	stimuli_distractor_trianglediamonds.svg	stimuli_target_diamondcircles.svg	27	yes	44	1	689
6.6.1	mac	2022-12-14	14:18:34	14:28:11	571914	5ac6ca185cd105000162499d	536236223	1	main_z	11	advance_on_keypress_ZEE	58	stimuli_distractor_trianglediamonds.svg	stimuli_target_diamondcircles.svg	27	yes	57	0	481
6.6.1	mac	2022-12-14	14:18:34	14:28:14	575029	5ac6ca185cd105000162499d	536236223	1	main_z	11	main_z	59	stimuli_distractor_diamondtriangles.svg	stimuli_distractor_diamondtriangles.svg	40	no	0	1	2000
6.6.1	mac	2022-12-14	14:18:34	14:28:14	575029	5ac6ca185cd105000162499d	536236223	1	main_z	11	advance_on_keypress_ZEE	60	stimuli_distractor_diamondtriangles.svg	stimuli_distractor_diamondtriangles.svg	40	no	57	0	387
6.6.1	mac	2022-12-14	14:18:34	14:28:17	578052	5ac6ca185cd105000162499d	536236223	1	main_z	11	main_z	61	stimuli_distractor_trianglediamonds.svg	stimuli_distractor_diamondtriangles.svg	36	no	0	1	2000
6.6.1	mac	2022-12-14	14:18:34	14:28:17	578052	5ac6ca185cd105000162499d	536236223	1	main_z	11	advance_on_keypress_ZEE	62	stimuli_distractor_trianglediamonds.svg	stimuli_distractor_diamondtriangles.svg	36	no	57	0	400
6.6.1	mac	2022-12-14	14:18:34	14:28:18	579763	5ac6ca185cd105000162499d	536236223	1	main_z	11	main_z	63	stimuli_target_diamondcircles.svg	stimuli_distractor_diamondtriangles.svg	23	yes	44	1	672
6.6.1	mac	2022-12-14	14:18:34	14:28:18	579763	5ac6ca185cd105000162499d	536236223	1	main_z	11	advance_on_keypress_ZEE	64	stimuli_target_diamondcircles.svg	stimuli_distractor_diamondtriangles.svg	23	yes	57	0	500
6.6.1	mac	2022-12-14	14:18:34	14:28:22	582883	5ac6ca185cd105000162499d	536236223	1	main_z	11	main_z	65	stimuli_distractor_trianglediamonds.svg	stimuli_distractor_diamondtriangles.svg	35	no	0	1	2000
6.6.1	mac	2022-12-14	14:18:34	14:28:22	582883	5ac6ca185cd105000162499d	536236223	1	main_z	11	advance_on_keypress_ZEE	66	stimuli_distractor_trianglediamonds.svg	stimuli_distractor_diamondtriangles.svg	35	no	57	0	1328
6.6.1	mac	2022-12-14	14:18:34	14:28:24	585446	5ac6ca185cd105000162499d	536236223	1	main_z	11	main_z	67	stimuli_distractor_trianglediamonds.svg	stimuli_target_squarediamonds.svg	12	yes	44	1	590
6.6.1	mac	2022-12-14	14:18:34	14:28:24	585446	5ac6ca185cd105000162499d	536236223	1	main_z	11	advance_on_keypress_ZEE	68	stimuli_distractor_trianglediamonds.svg	stimuli_target_squarediamonds.svg	12	yes	57	0	3540
6.6.1	mac	2022-12-14	14:18:34	14:28:29	590298	5ac6ca185cd105000162499d	536236223	1	main_z	11	main_z	69	stimuli_target_diamondcircles.svg	stimuli_distractor_trianglediamonds.svg	19	yes	44	1	668
6.6.1	mac	2022-12-14	14:18:34	14:28:29	590298	5ac6ca185cd105000162499d	536236223	1	main_z	11	advance_on_keypress_ZEE	70	stimuli_target_diamondcircles.svg	stimuli_distractor_trianglediamonds.svg	19	yes	57	0	1109
6.6.1	mac	2022-12-14	14:18:34	14:28:31	592799	5ac6ca185cd105000162499d	536236223	1	main_z	11	main_z	71	stimuli_target_diamondsquares.svg	stimuli_distractor_diamondtriangles.svg	24	yes	44	1	753
6.6.1	mac	2022-12-14	14:18:34	14:28:31	592799	5ac6ca185cd105000162499d	536236223	1	main_z	11	advance_on_keypress_ZEE	72	stimuli_target_diamondsquares.svg	stimuli_distractor_diamondtriangles.svg	24	yes	57	0	798
6.6.1	mac	2022-12-14	14:18:34	14:28:35	596295	5ac6ca185cd105000162499d	536236223	1	main_z	11	main_z	73	stimuli_distractor_trianglediamonds.svg	stimuli_distractor_trianglediamonds.svg	33	no	0	1	2000
6.6.1	mac	2022-12-14	14:18:34	14:28:35	596295	5ac6ca185cd105000162499d	536236223	1	main_z	11	advance_on_keypress_ZEE	74	stimuli_distractor_trianglediamonds.svg	stimuli_distractor_trianglediamonds.svg	33	no	57	0	502
6.6.1	mac	2022-12-14	14:18:34	14:28:37	597956	5ac6ca185cd105000162499d	536236223	1	main_z	11	main_z	75	stimuli_distractor_diamondtriangles.svg	stimuli_target_circlediamonds.svg	14	yes	44	1	510
6.6.1	mac	2022-12-14	14:18:34	14:28:37	597956	5ac6ca185cd105000162499d	536236223	1	main_z	11	advance_on_keypress_ZEE	76	stimuli_distractor_diamondtriangles.svg	stimuli_target_circlediamonds.svg	14	yes	57	0	569
6.6.1	mac	2022-12-14	14:18:34	14:28:40	601170	5ac6ca185cd105000162499d	536236223	1	main_z	11	main_z	77	stimuli_distractor_trianglediamonds.svg	stimuli_distractor_trianglediamonds.svg	34	no	0	1	2000
6.6.1	mac	2022-12-14	14:18:34	14:28:40	601170	5ac6ca185cd105000162499d	536236223	1	main_z	11	advance_on_keypress_ZEE	78	stimuli_distractor_trianglediamonds.svg	stimuli_distractor_trianglediamonds.svg	34	no	57	0	394
6.6.1	mac	2022-12-14	14:18:34	14:28:41	602685	5ac6ca185cd105000162499d	536236223	1	main_z	11	main_z	79	stimuli_target_trianglesquares.svg	stimuli_distractor_diamondtriangles.svg	22	yes	44	1	496
6.6.1	mac	2022-12-14	14:18:34	14:28:41	602685	5ac6ca185cd105000162499d	536236223	1	main_z	11	advance_on_keypress_ZEE	80	stimuli_target_trianglesquares.svg	stimuli_distractor_diamondtriangles.svg	22	yes	57	0	470
6.6.1	mac	2022-12-14	14:18:34	14:28:44	605416	5ac6ca185cd105000162499d	536236223	1	main_z	11	main_z	81	stimuli_distractor_diamondtriangles.svg	stimuli_distractor_diamondtriangles.svg	39	no	44	0	1623
6.6.1	mac	2022-12-14	14:18:34	14:28:44	605416	5ac6ca185cd105000162499d	536236223	1	main_z	11	advance_on_keypress_ZEE	82	stimuli_distractor_diamondtriangles.svg	stimuli_distractor_diamondtriangles.svg	39	no	57	0	481
6.6.1	mac	2022-12-14	14:18:34	14:28:46	607556	5ac6ca185cd105000162499d	536236223	1	main_z	11	main_z	83	stimuli_distractor_trianglediamonds.svg	stimuli_distractor_diamondtriangles.svg	35	no	44	0	1010
6.6.1	mac	2022-12-14	14:18:34	14:28:46	607556	5ac6ca185cd105000162499d	536236223	1	main_z	11	advance_on_keypress_ZEE	84	stimuli_distractor_trianglediamonds.svg	stimuli_distractor_diamondtriangles.svg	35	no	57	0	362
6.6.1	mac	2022-12-14	14:18:34	14:28:48	609364	5ac6ca185cd105000162499d	536236223	1	main_z	11	main_z	85	stimuli_distractor_diamondtriangles.svg	stimuli_target_circlediamonds.svg	14	yes	44	1	795
6.6.1	mac	2022-12-14	14:18:34	14:28:48	609364	5ac6ca185cd105000162499d	536236223	1	main_z	11	advance_on_keypress_ZEE	86	stimuli_distractor_diamondtriangles.svg	stimuli_target_circlediamonds.svg	14	yes	57	0	583
6.6.1	mac	2022-12-14	14:18:34	14:28:50	611364	5ac6ca185cd105000162499d	536236223	1	main_z	11	main_z	87	stimuli_distractor_trianglediamonds.svg	stimuli_target_diamondsquares.svg	28	yes	44	1	790
6.6.1	mac	2022-12-14	14:18:34	14:28:50	611364	5ac6ca185cd105000162499d	536236223	1	main_z	11	advance_on_keypress_ZEE	88	stimuli_distractor_trianglediamonds.svg	stimuli_target_diamondsquares.svg	28	yes	57	0	851
6.6.1	mac	2022-12-14	14:18:34	14:28:52	613312	5ac6ca185cd105000162499d	536236223	1	main_z	11	main_z	89	stimuli_target_circlediamonds.svg	stimuli_distractor_trianglediamonds.svg	2	yes	44	1	461
6.6.1	mac	2022-12-14	14:18:34	14:28:52	613312	5ac6ca185cd105000162499d	536236223	1	main_z	11	advance_on_keypress_ZEE	90	stimuli_target_circlediamonds.svg	stimuli_distractor_trianglediamonds.svg	2	yes	57	0	418
6.6.1	mac	2022-12-14	14:18:34	14:28:54	614867	5ac6ca185cd105000162499d	536236223	1	main_z	11	main_z	91	stimuli_distractor_diamondtriangles.svg	stimuli_target_diamondcircles.svg	31	yes	44	1	506
6.6.1	mac	2022-12-14	14:18:34	14:28:54	614867	5ac6ca185cd105000162499d	536236223	1	main_z	11	advance_on_keypress_ZEE	92	stimuli_distractor_diamondtriangles.svg	stimuli_target_diamondcircles.svg	31	yes	57	0	429
6.6.1	mac	2022-12-14	14:18:34	14:28:55	616384	5ac6ca185cd105000162499d	536236223	1	main_z	11	main_z	93	stimuli_target_diamondsquares.svg	stimuli_distractor_trianglediamonds.svg	20	yes	44	1	437
6.6.1	mac	2022-12-14	14:18:34	14:28:55	616384	5ac6ca185cd105000162499d	536236223	1	main_z	11	advance_on_keypress_ZEE	94	stimuli_target_diamondsquares.svg	stimuli_distractor_trianglediamonds.svg	20	yes	57	0	398
6.6.1	mac	2022-12-14	14:18:34	14:28:57	618085	5ac6ca185cd105000162499d	536236223	1	main_z	11	main_z	95	stimuli_distractor_trianglediamonds.svg	stimuli_target_diamondcircles.svg	27	yes	44	1	590
6.6.1	mac	2022-12-14	14:18:34	14:28:57	618085	5ac6ca185cd105000162499d	536236223	1	main_z	11	advance_on_keypress_ZEE	96	stimuli_distractor_trianglediamonds.svg	stimuli_target_diamondcircles.svg	27	yes	57	0	341
6.6.1	mac	2022-12-14	14:18:34	14:28:58	619815	5ac6ca185cd105000162499d	536236223	1	main_z	11	main_z	97	stimuli_target_squarediamonds.svg	stimuli_distractor_diamondtriangles.svg	8	yes	44	1	745
6.6.1	mac	2022-12-14	14:18:34	14:28:58	619815	5ac6ca185cd105000162499d	536236223	1	main_z	11	advance_on_keypress_ZEE	98	stimuli_target_squarediamonds.svg	stimuli_distractor_diamondtriangles.svg	8	yes	57	0	261
6.6.1	mac	2022-12-14	14:18:34	14:29:00	621213	5ac6ca185cd105000162499d	536236223	1	main_z	11	main_z	99	stimuli_distractor_diamondtriangles.svg	stimuli_target_diamondsquares.svg	32	yes	44	1	492
6.6.1	mac	2022-12-14	14:18:34	14:29:00	621213	5ac6ca185cd105000162499d	536236223	1	main_z	11	advance_on_keypress_ZEE	100	stimuli_distractor_diamondtriangles.svg	stimuli_target_diamondsquares.svg	32	yes	57	0	275
6.6.1	mac	2022-12-14	14:18:34	14:29:01	622692	5ac6ca185cd105000162499d	536236223	1	main_z	11	main_z	101	stimuli_distractor_diamondtriangles.svg	stimuli_target_circletriangles.svg	13	yes	44	1	568
6.6.1	mac	2022-12-14	14:18:34	14:29:01	622692	5ac6ca185cd105000162499d	536236223	1	main_z	11	advance_on_keypress_ZEE	102	stimuli_distractor_diamondtriangles.svg	stimuli_target_circletriangles.svg	13	yes	57	0	376
6.6.1	mac	2022-12-14	14:18:34	14:29:03	624199	5ac6ca185cd105000162499d	536236223	1	main_z	11	main_z	103	stimuli_target_diamondcircles.svg	stimuli_distractor_trianglediamonds.svg	19	yes	44	1	422
6.6.1	mac	2022-12-14	14:18:34	14:29:03	624199	5ac6ca185cd105000162499d	536236223	1	main_z	11	advance_on_keypress_ZEE	104	stimuli_target_diamondcircles.svg	stimuli_distractor_trianglediamonds.svg	19	yes	57	0	256
6.6.1	mac	2022-12-14	14:18:34	14:29:06	627109	5ac6ca185cd105000162499d	536236223	1	main_z	11	main_z	105	stimuli_distractor_diamondtriangles.svg	stimuli_distractor_trianglediamonds.svg	38	no	0	1	2000
6.6.1	mac	2022-12-14	14:18:34	14:29:06	627109	5ac6ca185cd105000162499d	536236223	1	main_z	11	advance_on_keypress_ZEE	106	stimuli_distractor_diamondtriangles.svg	stimuli_distractor_trianglediamonds.svg	38	no	57	0	290
6.6.1	mac	2022-12-14	14:18:34	14:29:07	628612	5ac6ca185cd105000162499d	536236223	1	main_z	11	main_z	107	stimuli_target_trianglecircles.svg	stimuli_distractor_trianglediamonds.svg	17	yes	44	1	580
6.6.1	mac	2022-12-14	14:18:34	14:29:07	628612	5ac6ca185cd105000162499d	536236223	1	main_z	11	advance_on_keypress_ZEE	108	stimuli_target_trianglecircles.svg	stimuli_distractor_trianglediamonds.svg	17	yes	57	0	453
6.6.1	mac	2022-12-14	14:18:34	14:29:09	630444	5ac6ca185cd105000162499d	536236223	1	main_z	11	main_z	109	stimuli_distractor_trianglediamonds.svg	stimuli_target_squaretriangles.svg	11	yes	44	1	734
6.6.1	mac	2022-12-14	14:18:34	14:29:09	630444	5ac6ca185cd105000162499d	536236223	1	main_z	11	advance_on_keypress_ZEE	110	stimuli_distractor_trianglediamonds.svg	stimuli_target_squaretriangles.svg	11	yes	57	0	667
6.6.1	mac	2022-12-14	14:18:34	14:29:11	632219	5ac6ca185cd105000162499d	536236223	1	main_z	11	main_z	111	stimuli_target_squarediamonds.svg	stimuli_distractor_trianglediamonds.svg	4	yes	44	1	472
6.6.1	mac	2022-12-14	14:18:34	14:29:11	632219	5ac6ca185cd105000162499d	536236223	1	main_z	11	advance_on_keypress_ZEE	112	stimuli_target_squarediamonds.svg	stimuli_distractor_trianglediamonds.svg	4	yes	57	0	637
6.6.1	mac	2022-12-14	14:18:34	14:29:13	634037	5ac6ca185cd105000162499d	536236223	1	main_z	11	main_z	113	stimuli_distractor_trianglediamonds.svg	stimuli_target_circletriangles.svg	9	yes	44	1	539
6.6.1	mac	2022-12-14	14:18:34	14:29:13	634037	5ac6ca185cd105000162499d	536236223	1	main_z	11	advance_on_keypress_ZEE	114	stimuli_distractor_trianglediamonds.svg	stimuli_target_circletriangles.svg	9	yes	57	0	443
6.6.1	mac	2022-12-14	14:18:34	14:29:14	635780	5ac6ca185cd105000162499d	536236223	1	main_z	11	main_z	115	stimuli_target_circlediamonds.svg	stimuli_distractor_diamondtriangles.svg	6	yes	44	1	656
6.6.1	mac	2022-12-14	14:18:34	14:29:14	635780	5ac6ca185cd105000162499d	536236223	1	main_z	11	advance_on_keypress_ZEE	116	stimuli_target_circlediamonds.svg	stimuli_distractor_diamondtriangles.svg	6	yes	57	0	333
6.6.1	mac	2022-12-14	14:18:34	14:29:17	638744	5ac6ca185cd105000162499d	536236223	1	main_z	11	main_z	117	stimuli_distractor_trianglediamonds.svg	stimuli_distractor_trianglediamonds.svg	33	no	0	1	2000
6.6.1	mac	2022-12-14	14:18:34	14:29:17	638744	5ac6ca185cd105000162499d	536236223	1	main_z	11	advance_on_keypress_ZEE	118	stimuli_distractor_trianglediamonds.svg	stimuli_distractor_trianglediamonds.svg	33	no	57	0	336
6.6.1	mac	2022-12-14	14:18:34	14:29:20	641717	5ac6ca185cd105000162499d	536236223	1	main_z	11	main_z	119	stimuli_distractor_trianglediamonds.svg	stimuli_distractor_trianglediamonds.svg	34	no	0	1	2000
6.6.1	mac	2022-12-14	14:18:34	14:29:20	641717	5ac6ca185cd105000162499d	536236223	1	main_z	11	advance_on_keypress_ZEE	120	stimuli_distractor_trianglediamonds.svg	stimuli_distractor_trianglediamonds.svg	34	no	57	0	324
6.6.1	mac	2022-12-14	14:18:34	14:29:22	643572	5ac6ca185cd105000162499d	536236223	1	main_z	11	main_z	121	stimuli_distractor_trianglediamonds.svg	stimuli_target_squarediamonds.svg	12	yes	44	1	896
6.6.1	mac	2022-12-14	14:18:34	14:29:22	643572	5ac6ca185cd105000162499d	536236223	1	main_z	11	advance_on_keypress_ZEE	122	stimuli_distractor_trianglediamonds.svg	stimuli_target_squarediamonds.svg	12	yes	57	0	428
6.6.1	mac	2022-12-14	14:18:34	14:29:24	645787	5ac6ca185cd105000162499d	536236223	1	main_z	11	main_z	123	stimuli_distractor_trianglediamonds.svg	stimuli_target_trianglesquares.svg	26	yes	44	1	1148
6.6.1	mac	2022-12-14	14:18:34	14:29:24	645787	5ac6ca185cd105000162499d	536236223	1	main_z	11	advance_on_keypress_ZEE	124	stimuli_distractor_trianglediamonds.svg	stimuli_target_trianglesquares.svg	26	yes	57	0	564
6.6.1	mac	2022-12-14	14:18:34	14:29:26	647720	5ac6ca185cd105000162499d	536236223	1	main_z	11	main_z	125	stimuli_target_trianglesquares.svg	stimuli_distractor_diamondtriangles.svg	22	yes	44	1	734
6.6.1	mac	2022-12-14	14:18:34	14:29:26	647720	5ac6ca185cd105000162499d	536236223	1	main_z	11	advance_on_keypress_ZEE	126	stimuli_target_trianglesquares.svg	stimuli_distractor_diamondtriangles.svg	22	yes	57	0	319
6.6.1	mac	2022-12-14	14:18:34	14:29:28	649364	5ac6ca185cd105000162499d	536236223	1	main_z	11	main_z	127	stimuli_distractor_trianglediamonds.svg	stimuli_distractor_diamondtriangles.svg	36	no	44	0	686
6.6.1	mac	2022-12-14	14:18:34	14:29:28	649364	5ac6ca185cd105000162499d	536236223	1	main_z	11	advance_on_keypress_ZEE	128	stimuli_distractor_trianglediamonds.svg	stimuli_distractor_diamondtriangles.svg	36	no	57	0	1038
6.6.1	mac	2022-12-14	14:18:34	14:29:30	651723	5ac6ca185cd105000162499d	536236223	1	main_z	11	main_z	129	stimuli_target_circletriangles.svg	stimuli_distractor_diamondtriangles.svg	5	yes	44	1	679
6.6.1	mac	2022-12-14	14:18:34	14:29:30	651723	5ac6ca185cd105000162499d	536236223	1	main_z	11	advance_on_keypress_ZEE	130	stimuli_target_circletriangles.svg	stimuli_distractor_diamondtriangles.svg	5	yes	57	0	746
6.6.1	mac	2022-12-14	14:18:34	14:29:32	653589	5ac6ca185cd105000162499d	536236223	1	main_z	11	main_z	131	stimuli_target_circletriangles.svg	stimuli_distractor_trianglediamonds.svg	1	yes	44	1	477
6.6.1	mac	2022-12-14	14:18:34	14:29:32	653589	5ac6ca185cd105000162499d	536236223	1	main_z	11	advance_on_keypress_ZEE	132	stimuli_target_circletriangles.svg	stimuli_distractor_trianglediamonds.svg	1	yes	57	0	271
6.6.1	mac	2022-12-14	14:18:34	14:29:34	655143	5ac6ca185cd105000162499d	536236223	1	main_z	11	main_z	133	stimuli_target_squaretriangles.svg	stimuli_distractor_trianglediamonds.svg	3	yes	44	1	615
6.6.1	mac	2022-12-14	14:18:34	14:29:34	655143	5ac6ca185cd105000162499d	536236223	1	main_z	11	advance_on_keypress_ZEE	134	stimuli_target_squaretriangles.svg	stimuli_distractor_trianglediamonds.svg	3	yes	57	0	348
6.6.1	mac	2022-12-14	14:18:34	14:29:36	657007	5ac6ca185cd105000162499d	536236223	1	main_z	11	main_z	135	stimuli_distractor_diamondtriangles.svg	stimuli_target_trianglecircles.svg	29	yes	44	1	876
6.6.1	mac	2022-12-14	14:18:34	14:29:36	657007	5ac6ca185cd105000162499d	536236223	1	main_z	11	advance_on_keypress_ZEE	136	stimuli_distractor_diamondtriangles.svg	stimuli_target_trianglecircles.svg	29	yes	57	0	435
6.6.1	mac	2022-12-14	14:18:34	14:29:37	658776	5ac6ca185cd105000162499d	536236223	1	main_z	11	main_z	137	stimuli_distractor_diamondtriangles.svg	stimuli_target_squaretriangles.svg	15	yes	44	1	685
6.6.1	mac	2022-12-14	14:18:34	14:29:37	658776	5ac6ca185cd105000162499d	536236223	1	main_z	11	advance_on_keypress_ZEE	138	stimuli_distractor_diamondtriangles.svg	stimuli_target_squaretriangles.svg	15	yes	57	0	114
6.6.1	mac	2022-12-14	14:18:34	14:29:39	660581	5ac6ca185cd105000162499d	536236223	1	main_z	11	main_z	139	stimuli_target_trianglesquares.svg	stimuli_distractor_trianglediamonds.svg	18	yes	44	1	1054
6.6.1	mac	2022-12-14	14:18:34	14:29:39	660581	5ac6ca185cd105000162499d	536236223	1	main_z	11	advance_on_keypress_ZEE	140	stimuli_target_trianglesquares.svg	stimuli_distractor_trianglediamonds.svg	18	yes	57	0	366
6.6.1	mac	2022-12-14	14:18:34	14:29:41	662325	5ac6ca185cd105000162499d	536236223	1	main_z	11	main_z	141	stimuli_distractor_trianglediamonds.svg	stimuli_target_circlediamonds.svg	10	yes	44	1	752
6.6.1	mac	2022-12-14	14:18:34	14:29:41	662325	5ac6ca185cd105000162499d	536236223	1	main_z	11	advance_on_keypress_ZEE	142	stimuli_distractor_trianglediamonds.svg	stimuli_target_circlediamonds.svg	10	yes	57	0	637
6.6.1	mac	2022-12-14	14:18:34	14:29:44	665617	5ac6ca185cd105000162499d	536236223	1	main_z	11	main_z	143	stimuli_distractor_diamondtriangles.svg	stimuli_distractor_diamondtriangles.svg	40	no	0	1	2000
6.6.1	mac	2022-12-14	14:18:34	14:29:44	665617	5ac6ca185cd105000162499d	536236223	1	main_z	11	advance_on_keypress_ZEE	144	stimuli_distractor_diamondtriangles.svg	stimuli_distractor_diamondtriangles.svg	40	no	57	0	289
6.6.1	mac	2022-12-14	14:18:34	14:29:47	668540	5ac6ca185cd105000162499d	536236223	1	main_z	11	main_z	145	stimuli_target_diamondsquares.svg	stimuli_distractor_diamondtriangles.svg	24	yes	0	0	2000
6.6.1	mac	2022-12-14	14:18:34	14:29:47	668540	5ac6ca185cd105000162499d	536236223	1	main_z	11	advance_on_keypress_ZEE	146	stimuli_target_diamondsquares.svg	stimuli_distractor_diamondtriangles.svg	24	yes	57	0	469
6.6.1	mac	2022-12-14	14:18:34	14:29:49	670214	5ac6ca185cd105000162499d	536236223	1	main_z	11	main_z	147	stimuli_distractor_trianglediamonds.svg	stimuli_target_trianglecircles.svg	25	yes	44	1	565
6.6.1	mac	2022-12-14	14:18:34	14:29:49	670214	5ac6ca185cd105000162499d	536236223	1	main_z	11	advance_on_keypress_ZEE	148	stimuli_distractor_trianglediamonds.svg	stimuli_target_trianglecircles.svg	25	yes	57	0	611
6.6.1	mac	2022-12-14	14:18:34	14:29:51	672111	5ac6ca185cd105000162499d	536236223	1	main_z	11	main_z	149	stimuli_target_trianglecircles.svg	stimuli_distractor_diamondtriangles.svg	21	yes	44	1	657
6.6.1	mac	2022-12-14	14:18:34	14:29:51	672111	5ac6ca185cd105000162499d	536236223	1	main_z	11	advance_on_keypress_ZEE	150	stimuli_target_trianglecircles.svg	stimuli_distractor_diamondtriangles.svg	21	yes	57	0	1154
6.6.1	mac	2022-12-14	14:18:34	14:29:53	674588	5ac6ca185cd105000162499d	536236223	1	main_z	11	main_z	151	stimuli_distractor_diamondtriangles.svg	stimuli_target_trianglesquares.svg	30	yes	44	1	646
6.6.1	mac	2022-12-14	14:18:34	14:29:53	674588	5ac6ca185cd105000162499d	536236223	1	main_z	11	advance_on_keypress_ZEE	152	stimuli_distractor_diamondtriangles.svg	stimuli_target_trianglesquares.svg	30	yes	57	0	315
6.6.1	mac	2022-12-14	14:18:34	14:29:55	676360	5ac6ca185cd105000162499d	536236223	1	main_z	11	main_z	153	stimuli_target_squaretriangles.svg	stimuli_distractor_diamondtriangles.svg	7	yes	44	1	777
6.6.1	mac	2022-12-14	14:18:34	14:29:55	676360	5ac6ca185cd105000162499d	536236223	1	main_z	11	advance_on_keypress_ZEE	154	stimuli_target_squaretriangles.svg	stimuli_distractor_diamondtriangles.svg	7	yes	57	0	738
6.6.1	mac	2022-12-14	14:18:34	14:29:58	679814	5ac6ca185cd105000162499d	536236223	1	main_z	11	main_z	155	stimuli_distractor_diamondtriangles.svg	stimuli_distractor_trianglediamonds.svg	37	no	0	1	2000
6.6.1	mac	2022-12-14	14:18:34	14:29:58	679814	5ac6ca185cd105000162499d	536236223	1	main_z	11	advance_on_keypress_ZEE	156	stimuli_distractor_diamondtriangles.svg	stimuli_distractor_trianglediamonds.svg	37	no	57	0	577
6.6.1	mac	2022-12-14	14:18:34	14:30:00	681633	5ac6ca185cd105000162499d	536236223	1	main_z	11	main_z	157	stimuli_target_diamondcircles.svg	stimuli_distractor_diamondtriangles.svg	23	yes	44	1	598
6.6.1	mac	2022-12-14	14:18:34	14:30:00	681633	5ac6ca185cd105000162499d	536236223	1	main_z	11	advance_on_keypress_ZEE	158	stimuli_target_diamondcircles.svg	stimuli_distractor_diamondtriangles.svg	23	yes	57	0	386
6.6.1	mac	2022-12-14	14:18:34	14:30:02	683743	5ac6ca185cd105000162499d	536236223	1	main_z	11	main_z	159	stimuli_distractor_diamondtriangles.svg	stimuli_target_squarediamonds.svg	16	yes	44	1	1091
6.6.1	mac	2022-12-14	14:18:34	14:30:02	683743	5ac6ca185cd105000162499d	536236223	1	main_z	11	advance_on_keypress_ZEE	160	stimuli_distractor_diamondtriangles.svg	stimuli_target_squarediamonds.svg	16	yes	57	0	575