build	computer.platform	date	time	timestamp	time_elapsed_ms	subject	group	session	blockcode	blocknum	trialcode	trialnum	stimulus_left	stimulus_right	stim_index	target_present	response	correct	latency
6.6.1	win	2022-12-14	18:26:28	18:29:20	169377	5effca0389eb590c6eed8d4d	312474190	1	practice_z	5	practice_z	1	stimuli_distractor_diamondtriangles.svg	stimuli_distractor_diamondtriangles.svg	13	no	0	1	2000
6.6.1	win	2022-12-14	18:26:28	18:29:20	169377	5effca0389eb590c6eed8d4d	312474190	1	practice_z	5	advance_on_keypress_ZEE	2	stimuli_distractor_diamondtriangles.svg	stimuli_distractor_diamondtriangles.svg	13	no	57	0	582
6.6.1	win	2022-12-14	18:26:28	18:29:24	173611	5effca0389eb590c6eed8d4d	312474190	1	practice_z	5	practice_z	3	stimuli_distractor_diamondtriangles.svg	stimuli_distractor_trianglediamonds.svg	14	no	0	1	2000
6.6.1	win	2022-12-14	18:26:28	18:29:24	173611	5effca0389eb590c6eed8d4d	312474190	1	practice_z	5	advance_on_keypress_ZEE	4	stimuli_distractor_diamondtriangles.svg	stimuli_distractor_trianglediamonds.svg	14	no	57	0	743
6.6.1	win	2022-12-14	18:26:28	18:29:28	177993	5effca0389eb590c6eed8d4d	312474190	1	practice_z	5	practice_z	5	stimuli_distractor_trianglediamonds.svg	stimuli_distractor_diamondtriangles.svg	16	no	0	1	2000
6.6.1	win	2022-12-14	18:26:28	18:29:28	177993	5effca0389eb590c6eed8d4d	312474190	1	practice_z	5	advance_on_keypress_ZEE	6	stimuli_distractor_trianglediamonds.svg	stimuli_distractor_diamondtriangles.svg	16	no	57	0	641
6.6.1	win	2022-12-14	18:26:28	18:29:32	181413	5effca0389eb590c6eed8d4d	312474190	1	practice_z	5	practice_z	7	stimuli_target_squarediamonds.svg	stimuli_distractor_diamondtriangles.svg	2	yes	44	1	1133
6.6.1	win	2022-12-14	18:26:28	18:29:32	181413	5effca0389eb590c6eed8d4d	312474190	1	practice_z	5	advance_on_keypress_ZEE	8	stimuli_target_squarediamonds.svg	stimuli_distractor_diamondtriangles.svg	2	yes	57	0	529
6.6.1	win	2022-12-14	18:26:28	18:29:35	184478	5effca0389eb590c6eed8d4d	312474190	1	practice_z	5	practice_z	9	stimuli_target_diamondsquares.svg	stimuli_distractor_trianglediamonds.svg	6	yes	44	1	884
6.6.1	win	2022-12-14	18:26:28	18:29:35	184478	5effca0389eb590c6eed8d4d	312474190	1	practice_z	5	advance_on_keypress_ZEE	10	stimuli_target_diamondsquares.svg	stimuli_distractor_trianglediamonds.svg	6	yes	57	0	532
6.6.1	win	2022-12-14	18:26:28	18:29:38	187861	5effca0389eb590c6eed8d4d	312474190	1	practice_z	5	practice_z	11	stimuli_distractor_diamondtriangles.svg	stimuli_target_circletriangles.svg	7	yes	44	1	1200
6.6.1	win	2022-12-14	18:26:28	18:29:38	187861	5effca0389eb590c6eed8d4d	312474190	1	practice_z	5	advance_on_keypress_ZEE	12	stimuli_distractor_diamondtriangles.svg	stimuli_target_circletriangles.svg	7	yes	57	0	576
6.6.1	win	2022-12-14	18:26:28	18:29:42	192102	5effca0389eb590c6eed8d4d	312474190	1	practice_z	5	practice_z	13	stimuli_distractor_trianglediamonds.svg	stimuli_distractor_trianglediamonds.svg	15	no	0	1	2000
6.6.1	win	2022-12-14	18:26:28	18:29:42	192102	5effca0389eb590c6eed8d4d	312474190	1	practice_z	5	advance_on_keypress_ZEE	14	stimuli_distractor_trianglediamonds.svg	stimuli_distractor_trianglediamonds.svg	15	no	57	0	515
6.6.1	win	2022-12-14	18:26:28	18:29:46	196128	5effca0389eb590c6eed8d4d	312474190	1	practice_z	5	practice_z	15	stimuli_target_circlediamonds.svg	stimuli_distractor_trianglediamonds.svg	4	yes	44	1	1866
6.6.1	win	2022-12-14	18:26:28	18:29:46	196128	5effca0389eb590c6eed8d4d	312474190	1	practice_z	5	advance_on_keypress_ZEE	16	stimuli_target_circlediamonds.svg	stimuli_distractor_trianglediamonds.svg	4	yes	57	0	453
6.6.1	win	2022-12-14	18:26:28	18:29:50	199382	5effca0389eb590c6eed8d4d	312474190	1	practice_z	5	practice_z	17	stimuli_target_circlediamonds.svg	stimuli_distractor_diamondtriangles.svg	1	yes	44	1	1154
6.6.1	win	2022-12-14	18:26:28	18:29:50	199382	5effca0389eb590c6eed8d4d	312474190	1	practice_z	5	advance_on_keypress_ZEE	18	stimuli_target_circlediamonds.svg	stimuli_distractor_diamondtriangles.svg	1	yes	57	0	518
6.6.1	win	2022-12-14	18:26:28	18:29:53	202747	5effca0389eb590c6eed8d4d	312474190	1	practice_z	5	practice_z	19	stimuli_target_diamondsquares.svg	stimuli_distractor_diamondtriangles.svg	3	yes	44	1	1205
6.6.1	win	2022-12-14	18:26:28	18:29:53	202747	5effca0389eb590c6eed8d4d	312474190	1	practice_z	5	advance_on_keypress_ZEE	20	stimuli_target_diamondsquares.svg	stimuli_distractor_diamondtriangles.svg	3	yes	57	0	409
6.6.1	win	2022-12-14	18:26:28	18:29:56	205853	5effca0389eb590c6eed8d4d	312474190	1	practice_z	5	practice_z	21	stimuli_distractor_trianglediamonds.svg	stimuli_target_diamondcircles.svg	12	yes	44	1	1061
6.6.1	win	2022-12-14	18:26:28	18:29:56	205853	5effca0389eb590c6eed8d4d	312474190	1	practice_z	5	advance_on_keypress_ZEE	22	stimuli_distractor_trianglediamonds.svg	stimuli_target_diamondcircles.svg	12	yes	57	0	369
6.6.1	win	2022-12-14	18:26:28	18:29:59	209094	5effca0389eb590c6eed8d4d	312474190	1	practice_z	5	practice_z	23	stimuli_distractor_diamondtriangles.svg	stimuli_target_diamondcircles.svg	8	yes	44	1	1234
6.6.1	win	2022-12-14	18:26:28	18:29:59	209094	5effca0389eb590c6eed8d4d	312474190	1	practice_z	5	advance_on_keypress_ZEE	24	stimuli_distractor_diamondtriangles.svg	stimuli_target_diamondcircles.svg	8	yes	57	0	375
6.6.1	win	2022-12-14	18:26:28	18:30:03	212197	5effca0389eb590c6eed8d4d	312474190	1	practice_z	5	practice_z	25	stimuli_distractor_trianglediamonds.svg	stimuli_target_circlediamonds.svg	10	yes	44	1	1087
6.6.1	win	2022-12-14	18:26:28	18:30:03	212197	5effca0389eb590c6eed8d4d	312474190	1	practice_z	5	advance_on_keypress_ZEE	26	stimuli_distractor_trianglediamonds.svg	stimuli_target_circlediamonds.svg	10	yes	57	0	366
6.6.1	win	2022-12-14	18:26:28	18:30:05	215117	5effca0389eb590c6eed8d4d	312474190	1	practice_z	5	practice_z	27	stimuli_distractor_trianglediamonds.svg	stimuli_target_squarediamonds.svg	11	yes	44	1	853
6.6.1	win	2022-12-14	18:26:28	18:30:05	215117	5effca0389eb590c6eed8d4d	312474190	1	practice_z	5	advance_on_keypress_ZEE	28	stimuli_distractor_trianglediamonds.svg	stimuli_target_squarediamonds.svg	11	yes	57	0	409
6.6.1	win	2022-12-14	18:26:28	18:30:09	218631	5effca0389eb590c6eed8d4d	312474190	1	practice_z	5	practice_z	29	stimuli_target_squarediamonds.svg	stimuli_distractor_trianglediamonds.svg	5	yes	44	1	1472
6.6.1	win	2022-12-14	18:26:28	18:30:09	218631	5effca0389eb590c6eed8d4d	312474190	1	practice_z	5	advance_on_keypress_ZEE	30	stimuli_target_squarediamonds.svg	stimuli_distractor_trianglediamonds.svg	5	yes	57	0	465
6.6.1	win	2022-12-14	18:26:28	18:30:12	221665	5effca0389eb590c6eed8d4d	312474190	1	practice_z	5	practice_z	31	stimuli_distractor_diamondtriangles.svg	stimuli_target_trianglecircles.svg	9	yes	44	1	918
6.6.1	win	2022-12-14	18:26:28	18:30:12	221665	5effca0389eb590c6eed8d4d	312474190	1	practice_z	5	advance_on_keypress_ZEE	32	stimuli_distractor_diamondtriangles.svg	stimuli_target_trianglecircles.svg	9	yes	57	0	1859
6.6.1	win	2022-12-14	18:26:28	18:30:36	245856	5effca0389eb590c6eed8d4d	312474190	1	main_z	7	main_z	1	stimuli_distractor_trianglediamonds.svg	stimuli_distractor_trianglediamonds.svg	34	no	44	0	931
6.6.1	win	2022-12-14	18:26:28	18:30:36	245856	5effca0389eb590c6eed8d4d	312474190	1	main_z	7	advance_on_keypress_ZEE	2	stimuli_distractor_trianglediamonds.svg	stimuli_distractor_trianglediamonds.svg	34	no	57	0	1089
6.6.1	win	2022-12-14	18:26:28	18:30:39	248431	5effca0389eb590c6eed8d4d	312474190	1	main_z	7	main_z	3	stimuli_target_trianglesquares.svg	stimuli_distractor_trianglediamonds.svg	18	yes	44	1	840
6.6.1	win	2022-12-14	18:26:28	18:30:39	248431	5effca0389eb590c6eed8d4d	312474190	1	main_z	7	advance_on_keypress_ZEE	4	stimuli_target_trianglesquares.svg	stimuli_distractor_trianglediamonds.svg	18	yes	57	0	807
6.6.1	win	2022-12-14	18:26:28	18:30:42	251876	5effca0389eb590c6eed8d4d	312474190	1	main_z	7	main_z	5	stimuli_distractor_diamondtriangles.svg	stimuli_distractor_trianglediamonds.svg	37	no	0	1	2000
6.6.1	win	2022-12-14	18:26:28	18:30:42	251876	5effca0389eb590c6eed8d4d	312474190	1	main_z	7	advance_on_keypress_ZEE	6	stimuli_distractor_diamondtriangles.svg	stimuli_distractor_trianglediamonds.svg	37	no	57	0	468
6.6.1	win	2022-12-14	18:26:28	18:30:44	253748	5effca0389eb590c6eed8d4d	312474190	1	main_z	7	main_z	7	stimuli_target_squarediamonds.svg	stimuli_distractor_diamondtriangles.svg	8	yes	44	1	755
6.6.1	win	2022-12-14	18:26:28	18:30:44	253748	5effca0389eb590c6eed8d4d	312474190	1	main_z	7	advance_on_keypress_ZEE	8	stimuli_target_squarediamonds.svg	stimuli_distractor_diamondtriangles.svg	8	yes	57	0	854
6.6.1	win	2022-12-14	18:26:28	18:30:46	256156	5effca0389eb590c6eed8d4d	312474190	1	main_z	7	main_z	9	stimuli_distractor_diamondtriangles.svg	stimuli_target_squarediamonds.svg	16	yes	44	1	914
6.6.1	win	2022-12-14	18:26:28	18:30:46	256156	5effca0389eb590c6eed8d4d	312474190	1	main_z	7	advance_on_keypress_ZEE	10	stimuli_distractor_diamondtriangles.svg	stimuli_target_squarediamonds.svg	16	yes	57	0	506
6.6.1	win	2022-12-14	18:26:28	18:30:48	258097	5effca0389eb590c6eed8d4d	312474190	1	main_z	7	main_z	11	stimuli_distractor_diamondtriangles.svg	stimuli_target_diamondsquares.svg	32	yes	44	1	784
6.6.1	win	2022-12-14	18:26:28	18:30:48	258097	5effca0389eb590c6eed8d4d	312474190	1	main_z	7	advance_on_keypress_ZEE	12	stimuli_distractor_diamondtriangles.svg	stimuli_target_diamondsquares.svg	32	yes	57	0	522
6.6.1	win	2022-12-14	18:26:28	18:30:50	260048	5effca0389eb590c6eed8d4d	312474190	1	main_z	7	main_z	13	stimuli_distractor_diamondtriangles.svg	stimuli_target_trianglesquares.svg	30	yes	44	1	789
6.6.1	win	2022-12-14	18:26:28	18:30:50	260048	5effca0389eb590c6eed8d4d	312474190	1	main_z	7	advance_on_keypress_ZEE	14	stimuli_distractor_diamondtriangles.svg	stimuli_target_trianglesquares.svg	30	yes	57	0	473
6.6.1	win	2022-12-14	18:26:28	18:30:52	261994	5effca0389eb590c6eed8d4d	312474190	1	main_z	7	main_z	15	stimuli_distractor_diamondtriangles.svg	stimuli_target_diamondcircles.svg	31	yes	44	1	833
6.6.1	win	2022-12-14	18:26:28	18:30:52	261994	5effca0389eb590c6eed8d4d	312474190	1	main_z	7	advance_on_keypress_ZEE	16	stimuli_distractor_diamondtriangles.svg	stimuli_target_diamondcircles.svg	31	yes	57	0	369
6.6.1	win	2022-12-14	18:26:28	18:30:54	263911	5effca0389eb590c6eed8d4d	312474190	1	main_z	7	main_z	17	stimuli_target_circletriangles.svg	stimuli_distractor_trianglediamonds.svg	1	yes	44	1	901
6.6.1	win	2022-12-14	18:26:28	18:30:54	263911	5effca0389eb590c6eed8d4d	312474190	1	main_z	7	advance_on_keypress_ZEE	18	stimuli_target_circletriangles.svg	stimuli_distractor_trianglediamonds.svg	1	yes	57	0	354
6.6.1	win	2022-12-14	18:26:28	18:30:56	265763	5effca0389eb590c6eed8d4d	312474190	1	main_z	7	main_z	19	stimuli_target_circlediamonds.svg	stimuli_distractor_trianglediamonds.svg	2	yes	44	1	854
6.6.1	win	2022-12-14	18:26:28	18:30:56	265763	5effca0389eb590c6eed8d4d	312474190	1	main_z	7	advance_on_keypress_ZEE	20	stimuli_target_circlediamonds.svg	stimuli_distractor_trianglediamonds.svg	2	yes	57	0	410
6.6.1	win	2022-12-14	18:26:28	18:30:58	267489	5effca0389eb590c6eed8d4d	312474190	1	main_z	7	main_z	21	stimuli_distractor_diamondtriangles.svg	stimuli_target_circlediamonds.svg	14	yes	44	1	680
6.6.1	win	2022-12-14	18:26:28	18:30:58	267489	5effca0389eb590c6eed8d4d	312474190	1	main_z	7	advance_on_keypress_ZEE	22	stimuli_distractor_diamondtriangles.svg	stimuli_target_circlediamonds.svg	14	yes	57	0	365
6.6.1	win	2022-12-14	18:26:28	18:31:00	269681	5effca0389eb590c6eed8d4d	312474190	1	main_z	7	main_z	23	stimuli_target_trianglecircles.svg	stimuli_distractor_trianglediamonds.svg	17	yes	44	1	1189
6.6.1	win	2022-12-14	18:26:28	18:31:00	269681	5effca0389eb590c6eed8d4d	312474190	1	main_z	7	advance_on_keypress_ZEE	24	stimuli_target_trianglecircles.svg	stimuli_distractor_trianglediamonds.svg	17	yes	57	0	270
6.6.1	win	2022-12-14	18:26:28	18:31:03	272596	5effca0389eb590c6eed8d4d	312474190	1	main_z	7	main_z	25	stimuli_distractor_trianglediamonds.svg	stimuli_distractor_diamondtriangles.svg	36	no	0	1	2000
6.6.1	win	2022-12-14	18:26:28	18:31:03	272596	5effca0389eb590c6eed8d4d	312474190	1	main_z	7	advance_on_keypress_ZEE	26	stimuli_distractor_trianglediamonds.svg	stimuli_distractor_diamondtriangles.svg	36	no	57	0	506
6.6.1	win	2022-12-14	18:26:28	18:31:06	275744	5effca0389eb590c6eed8d4d	312474190	1	main_z	7	main_z	27	stimuli_distractor_diamondtriangles.svg	stimuli_distractor_diamondtriangles.svg	39	no	0	1	2000
6.6.1	win	2022-12-14	18:26:28	18:31:06	275744	5effca0389eb590c6eed8d4d	312474190	1	main_z	7	advance_on_keypress_ZEE	28	stimuli_distractor_diamondtriangles.svg	stimuli_distractor_diamondtriangles.svg	39	no	57	0	415
6.6.1	win	2022-12-14	18:26:28	18:31:08	277547	5effca0389eb590c6eed8d4d	312474190	1	main_z	7	main_z	29	stimuli_distractor_trianglediamonds.svg	stimuli_target_squarediamonds.svg	12	yes	44	1	738
6.6.1	win	2022-12-14	18:26:28	18:31:08	277547	5effca0389eb590c6eed8d4d	312474190	1	main_z	7	advance_on_keypress_ZEE	30	stimuli_distractor_trianglediamonds.svg	stimuli_target_squarediamonds.svg	12	yes	57	0	418
6.6.1	win	2022-12-14	18:26:28	18:31:10	279457	5effca0389eb590c6eed8d4d	312474190	1	main_z	7	main_z	31	stimuli_target_squarediamonds.svg	stimuli_distractor_trianglediamonds.svg	4	yes	44	1	848
6.6.1	win	2022-12-14	18:26:28	18:31:10	279457	5effca0389eb590c6eed8d4d	312474190	1	main_z	7	advance_on_keypress_ZEE	32	stimuli_target_squarediamonds.svg	stimuli_distractor_trianglediamonds.svg	4	yes	57	0	282
6.6.1	win	2022-12-14	18:26:28	18:31:13	282394	5effca0389eb590c6eed8d4d	312474190	1	main_z	7	main_z	33	stimuli_distractor_diamondtriangles.svg	stimuli_distractor_trianglediamonds.svg	38	no	0	1	2000
6.6.1	win	2022-12-14	18:26:28	18:31:13	282394	5effca0389eb590c6eed8d4d	312474190	1	main_z	7	advance_on_keypress_ZEE	34	stimuli_distractor_diamondtriangles.svg	stimuli_distractor_trianglediamonds.svg	38	no	57	0	974
6.6.1	win	2022-12-14	18:26:28	18:31:15	284701	5effca0389eb590c6eed8d4d	312474190	1	main_z	7	main_z	35	stimuli_distractor_trianglediamonds.svg	stimuli_target_circletriangles.svg	9	yes	44	1	692
6.6.1	win	2022-12-14	18:26:28	18:31:15	284701	5effca0389eb590c6eed8d4d	312474190	1	main_z	7	advance_on_keypress_ZEE	36	stimuli_distractor_trianglediamonds.svg	stimuli_target_circletriangles.svg	9	yes	57	0	284
6.6.1	win	2022-12-14	18:26:28	18:31:17	286423	5effca0389eb590c6eed8d4d	312474190	1	main_z	7	main_z	37	stimuli_target_diamondsquares.svg	stimuli_distractor_diamondtriangles.svg	24	yes	44	1	797
6.6.1	win	2022-12-14	18:26:28	18:31:17	286423	5effca0389eb590c6eed8d4d	312474190	1	main_z	7	advance_on_keypress_ZEE	38	stimuli_target_diamondsquares.svg	stimuli_distractor_diamondtriangles.svg	24	yes	57	0	296
6.6.1	win	2022-12-14	18:26:28	18:31:20	289346	5effca0389eb590c6eed8d4d	312474190	1	main_z	7	main_z	39	stimuli_distractor_trianglediamonds.svg	stimuli_distractor_diamondtriangles.svg	35	no	0	1	2000
6.6.1	win	2022-12-14	18:26:28	18:31:20	289346	5effca0389eb590c6eed8d4d	312474190	1	main_z	7	advance_on_keypress_ZEE	40	stimuli_distractor_trianglediamonds.svg	stimuli_distractor_diamondtriangles.svg	35	no	57	0	382
6.6.1	win	2022-12-14	18:26:28	18:31:22	291200	5effca0389eb590c6eed8d4d	312474190	1	main_z	7	main_z	41	stimuli_target_squaretriangles.svg	stimuli_distractor_diamondtriangles.svg	7	yes	44	1	824
6.6.1	win	2022-12-14	18:26:28	18:31:22	291200	5effca0389eb590c6eed8d4d	312474190	1	main_z	7	advance_on_keypress_ZEE	42	stimuli_target_squaretriangles.svg	stimuli_distractor_diamondtriangles.svg	7	yes	57	0	412
6.6.1	win	2022-12-14	18:26:28	18:31:23	293025	5effca0389eb590c6eed8d4d	312474190	1	main_z	7	main_z	43	stimuli_target_circletriangles.svg	stimuli_distractor_diamondtriangles.svg	5	yes	44	1	774
6.6.1	win	2022-12-14	18:26:28	18:31:23	293025	5effca0389eb590c6eed8d4d	312474190	1	main_z	7	advance_on_keypress_ZEE	44	stimuli_target_circletriangles.svg	stimuli_distractor_diamondtriangles.svg	5	yes	57	0	414
6.6.1	win	2022-12-14	18:26:28	18:31:25	294964	5effca0389eb590c6eed8d4d	312474190	1	main_z	7	main_z	45	stimuli_target_diamondcircles.svg	stimuli_distractor_trianglediamonds.svg	19	yes	44	1	870
6.6.1	win	2022-12-14	18:26:28	18:31:25	294964	5effca0389eb590c6eed8d4d	312474190	1	main_z	7	advance_on_keypress_ZEE	46	stimuli_target_diamondcircles.svg	stimuli_distractor_trianglediamonds.svg	19	yes	57	0	294
6.6.1	win	2022-12-14	18:26:28	18:31:27	296703	5effca0389eb590c6eed8d4d	312474190	1	main_z	7	main_z	47	stimuli_distractor_trianglediamonds.svg	stimuli_target_diamondcircles.svg	27	yes	44	1	810
6.6.1	win	2022-12-14	18:26:28	18:31:27	296703	5effca0389eb590c6eed8d4d	312474190	1	main_z	7	advance_on_keypress_ZEE	48	stimuli_distractor_trianglediamonds.svg	stimuli_target_diamondcircles.svg	27	yes	57	0	287
6.6.1	win	2022-12-14	18:26:28	18:31:30	299630	5effca0389eb590c6eed8d4d	312474190	1	main_z	7	main_z	49	stimuli_distractor_trianglediamonds.svg	stimuli_distractor_trianglediamonds.svg	33	no	0	1	2000
6.6.1	win	2022-12-14	18:26:28	18:31:30	299630	5effca0389eb590c6eed8d4d	312474190	1	main_z	7	advance_on_keypress_ZEE	50	stimuli_distractor_trianglediamonds.svg	stimuli_distractor_trianglediamonds.svg	33	no	57	0	421
6.6.1	win	2022-12-14	18:26:28	18:31:32	301780	5effca0389eb590c6eed8d4d	312474190	1	main_z	7	main_z	51	stimuli_target_squaretriangles.svg	stimuli_distractor_trianglediamonds.svg	3	yes	44	1	1085
6.6.1	win	2022-12-14	18:26:28	18:31:32	301780	5effca0389eb590c6eed8d4d	312474190	1	main_z	7	advance_on_keypress_ZEE	52	stimuli_target_squaretriangles.svg	stimuli_distractor_trianglediamonds.svg	3	yes	57	0	325
6.6.1	win	2022-12-14	18:26:28	18:31:34	303692	5effca0389eb590c6eed8d4d	312474190	1	main_z	7	main_z	53	stimuli_distractor_trianglediamonds.svg	stimuli_target_trianglesquares.svg	26	yes	44	1	949
6.6.1	win	2022-12-14	18:26:28	18:31:34	303692	5effca0389eb590c6eed8d4d	312474190	1	main_z	7	advance_on_keypress_ZEE	54	stimuli_distractor_trianglediamonds.svg	stimuli_target_trianglesquares.svg	26	yes	57	0	269
6.6.1	win	2022-12-14	18:26:28	18:31:36	305775	5effca0389eb590c6eed8d4d	312474190	1	main_z	7	main_z	55	stimuli_distractor_trianglediamonds.svg	stimuli_target_squaretriangles.svg	11	yes	44	1	1165
6.6.1	win	2022-12-14	18:26:28	18:31:36	305775	5effca0389eb590c6eed8d4d	312474190	1	main_z	7	advance_on_keypress_ZEE	56	stimuli_distractor_trianglediamonds.svg	stimuli_target_squaretriangles.svg	11	yes	57	0	243
6.6.1	win	2022-12-14	18:26:28	18:31:38	307581	5effca0389eb590c6eed8d4d	312474190	1	main_z	7	main_z	57	stimuli_target_trianglecircles.svg	stimuli_distractor_diamondtriangles.svg	21	yes	44	1	920
6.6.1	win	2022-12-14	18:26:28	18:31:38	307581	5effca0389eb590c6eed8d4d	312474190	1	main_z	7	advance_on_keypress_ZEE	58	stimuli_target_trianglecircles.svg	stimuli_distractor_diamondtriangles.svg	21	yes	57	0	307
6.6.1	win	2022-12-14	18:26:28	18:31:40	309378	5effca0389eb590c6eed8d4d	312474190	1	main_z	7	main_z	59	stimuli_target_diamondcircles.svg	stimuli_distractor_diamondtriangles.svg	23	yes	44	1	851
6.6.1	win	2022-12-14	18:26:28	18:31:40	309378	5effca0389eb590c6eed8d4d	312474190	1	main_z	7	advance_on_keypress_ZEE	60	stimuli_target_diamondcircles.svg	stimuli_distractor_diamondtriangles.svg	23	yes	57	0	258
6.6.1	win	2022-12-14	18:26:28	18:31:43	312278	5effca0389eb590c6eed8d4d	312474190	1	main_z	7	main_z	61	stimuli_distractor_diamondtriangles.svg	stimuli_distractor_diamondtriangles.svg	40	no	0	1	2000
6.6.1	win	2022-12-14	18:26:28	18:31:43	312278	5effca0389eb590c6eed8d4d	312474190	1	main_z	7	advance_on_keypress_ZEE	62	stimuli_distractor_diamondtriangles.svg	stimuli_distractor_diamondtriangles.svg	40	no	57	0	441
6.6.1	win	2022-12-14	18:26:28	18:31:44	314169	5effca0389eb590c6eed8d4d	312474190	1	main_z	7	main_z	63	stimuli_distractor_trianglediamonds.svg	stimuli_target_diamondsquares.svg	28	yes	44	1	809
6.6.1	win	2022-12-14	18:26:28	18:31:44	314169	5effca0389eb590c6eed8d4d	312474190	1	main_z	7	advance_on_keypress_ZEE	64	stimuli_distractor_trianglediamonds.svg	stimuli_target_diamondsquares.svg	28	yes	57	0	338
6.6.1	win	2022-12-14	18:26:28	18:31:47	316491	5effca0389eb590c6eed8d4d	312474190	1	main_z	7	main_z	65	stimuli_distractor_trianglediamonds.svg	stimuli_target_trianglecircles.svg	25	yes	44	1	1348
6.6.1	win	2022-12-14	18:26:28	18:31:47	316491	5effca0389eb590c6eed8d4d	312474190	1	main_z	7	advance_on_keypress_ZEE	66	stimuli_distractor_trianglediamonds.svg	stimuli_target_trianglecircles.svg	25	yes	57	0	253
6.6.1	win	2022-12-14	18:26:28	18:31:49	318464	5effca0389eb590c6eed8d4d	312474190	1	main_z	7	main_z	67	stimuli_target_trianglesquares.svg	stimuli_distractor_diamondtriangles.svg	22	yes	44	1	1071
6.6.1	win	2022-12-14	18:26:28	18:31:49	318464	5effca0389eb590c6eed8d4d	312474190	1	main_z	7	advance_on_keypress_ZEE	68	stimuli_target_trianglesquares.svg	stimuli_distractor_diamondtriangles.svg	22	yes	57	0	270
6.6.1	win	2022-12-14	18:26:28	18:31:52	321378	5effca0389eb590c6eed8d4d	312474190	1	main_z	7	main_z	69	stimuli_distractor_diamondtriangles.svg	stimuli_target_squaretriangles.svg	15	yes	0	0	2000
6.6.1	win	2022-12-14	18:26:28	18:31:52	321378	5effca0389eb590c6eed8d4d	312474190	1	main_z	7	advance_on_keypress_ZEE	70	stimuli_distractor_diamondtriangles.svg	stimuli_target_squaretriangles.svg	15	yes	57	0	431
6.6.1	win	2022-12-14	18:26:28	18:31:53	323084	5effca0389eb590c6eed8d4d	312474190	1	main_z	7	main_z	71	stimuli_target_circlediamonds.svg	stimuli_distractor_diamondtriangles.svg	6	yes	44	1	641
6.6.1	win	2022-12-14	18:26:28	18:31:53	323084	5effca0389eb590c6eed8d4d	312474190	1	main_z	7	advance_on_keypress_ZEE	72	stimuli_target_circlediamonds.svg	stimuli_distractor_diamondtriangles.svg	6	yes	57	0	270
6.6.1	win	2022-12-14	18:26:28	18:31:55	324751	5effca0389eb590c6eed8d4d	312474190	1	main_z	7	main_z	73	stimuli_distractor_trianglediamonds.svg	stimuli_target_circlediamonds.svg	10	yes	44	1	758
6.6.1	win	2022-12-14	18:26:28	18:31:55	324751	5effca0389eb590c6eed8d4d	312474190	1	main_z	7	advance_on_keypress_ZEE	74	stimuli_distractor_trianglediamonds.svg	stimuli_target_circlediamonds.svg	10	yes	57	0	279
6.6.1	win	2022-12-14	18:26:28	18:31:57	326452	5effca0389eb590c6eed8d4d	312474190	1	main_z	7	main_z	75	stimuli_target_diamondsquares.svg	stimuli_distractor_trianglediamonds.svg	20	yes	44	1	791
6.6.1	win	2022-12-14	18:26:28	18:31:57	326452	5effca0389eb590c6eed8d4d	312474190	1	main_z	7	advance_on_keypress_ZEE	76	stimuli_target_diamondsquares.svg	stimuli_distractor_trianglediamonds.svg	20	yes	57	0	228
6.6.1	win	2022-12-14	18:26:28	18:31:58	328041	5effca0389eb590c6eed8d4d	312474190	1	main_z	7	main_z	77	stimuli_distractor_diamondtriangles.svg	stimuli_target_trianglecircles.svg	29	yes	44	1	731
6.6.1	win	2022-12-14	18:26:28	18:31:58	328041	5effca0389eb590c6eed8d4d	312474190	1	main_z	7	advance_on_keypress_ZEE	78	stimuli_distractor_diamondtriangles.svg	stimuli_target_trianglecircles.svg	29	yes	57	0	263
6.6.1	win	2022-12-14	18:26:28	18:32:00	329870	5effca0389eb590c6eed8d4d	312474190	1	main_z	7	main_z	79	stimuli_distractor_diamondtriangles.svg	stimuli_target_circletriangles.svg	13	yes	44	1	927
6.6.1	win	2022-12-14	18:26:28	18:32:00	329870	5effca0389eb590c6eed8d4d	312474190	1	main_z	7	advance_on_keypress_ZEE	80	stimuli_distractor_diamondtriangles.svg	stimuli_target_circletriangles.svg	13	yes	57	0	239
6.6.1	win	2022-12-14	18:26:28	18:32:02	331554	5effca0389eb590c6eed8d4d	312474190	1	main_z	7	main_z	81	stimuli_distractor_diamondtriangles.svg	stimuli_target_diamondcircles.svg	31	yes	44	1	808
6.6.1	win	2022-12-14	18:26:28	18:32:02	331554	5effca0389eb590c6eed8d4d	312474190	1	main_z	7	advance_on_keypress_ZEE	82	stimuli_distractor_diamondtriangles.svg	stimuli_target_diamondcircles.svg	31	yes	57	0	327
6.6.1	win	2022-12-14	18:26:28	18:32:04	333326	5effca0389eb590c6eed8d4d	312474190	1	main_z	7	main_z	83	stimuli_distractor_trianglediamonds.svg	stimuli_target_diamondcircles.svg	27	yes	44	1	815
6.6.1	win	2022-12-14	18:26:28	18:32:04	333326	5effca0389eb590c6eed8d4d	312474190	1	main_z	7	advance_on_keypress_ZEE	84	stimuli_distractor_trianglediamonds.svg	stimuli_target_diamondcircles.svg	27	yes	57	0	204
6.6.1	win	2022-12-14	18:26:28	18:32:06	335488	5effca0389eb590c6eed8d4d	312474190	1	main_z	7	main_z	85	stimuli_distractor_trianglediamonds.svg	stimuli_target_squarediamonds.svg	12	yes	44	1	1311
6.6.1	win	2022-12-14	18:26:28	18:32:06	335488	5effca0389eb590c6eed8d4d	312474190	1	main_z	7	advance_on_keypress_ZEE	86	stimuli_distractor_trianglediamonds.svg	stimuli_target_squarediamonds.svg	12	yes	57	0	250
6.6.1	win	2022-12-14	18:26:28	18:32:09	338379	5effca0389eb590c6eed8d4d	312474190	1	main_z	7	main_z	87	stimuli_distractor_trianglediamonds.svg	stimuli_distractor_diamondtriangles.svg	36	no	0	1	2000
6.6.1	win	2022-12-14	18:26:28	18:32:09	338379	5effca0389eb590c6eed8d4d	312474190	1	main_z	7	advance_on_keypress_ZEE	88	stimuli_distractor_trianglediamonds.svg	stimuli_distractor_diamondtriangles.svg	36	no	57	0	434
6.6.1	win	2022-12-14	18:26:28	18:32:12	341463	5effca0389eb590c6eed8d4d	312474190	1	main_z	7	main_z	89	stimuli_distractor_diamondtriangles.svg	stimuli_distractor_diamondtriangles.svg	40	no	0	1	2000
6.6.1	win	2022-12-14	18:26:28	18:32:12	341463	5effca0389eb590c6eed8d4d	312474190	1	main_z	7	advance_on_keypress_ZEE	90	stimuli_distractor_diamondtriangles.svg	stimuli_distractor_diamondtriangles.svg	40	no	57	0	365
6.6.1	win	2022-12-14	18:26:28	18:32:14	343290	5effca0389eb590c6eed8d4d	312474190	1	main_z	7	main_z	91	stimuli_distractor_trianglediamonds.svg	stimuli_target_trianglesquares.svg	26	yes	44	1	813
6.6.1	win	2022-12-14	18:26:28	18:32:14	343290	5effca0389eb590c6eed8d4d	312474190	1	main_z	7	advance_on_keypress_ZEE	92	stimuli_distractor_trianglediamonds.svg	stimuli_target_trianglesquares.svg	26	yes	57	0	240
6.6.1	win	2022-12-14	18:26:28	18:32:16	346167	5effca0389eb590c6eed8d4d	312474190	1	main_z	7	main_z	93	stimuli_distractor_trianglediamonds.svg	stimuli_target_squaretriangles.svg	11	yes	0	0	2000
6.6.1	win	2022-12-14	18:26:28	18:32:16	346167	5effca0389eb590c6eed8d4d	312474190	1	main_z	7	advance_on_keypress_ZEE	94	stimuli_distractor_trianglediamonds.svg	stimuli_target_squaretriangles.svg	11	yes	57	0	386
6.6.1	win	2022-12-14	18:26:28	18:32:18	347955	5effca0389eb590c6eed8d4d	312474190	1	main_z	7	main_z	95	stimuli_target_trianglesquares.svg	stimuli_distractor_diamondtriangles.svg	22	yes	44	1	762
6.6.1	win	2022-12-14	18:26:28	18:32:18	347955	5effca0389eb590c6eed8d4d	312474190	1	main_z	7	advance_on_keypress_ZEE	96	stimuli_target_trianglesquares.svg	stimuli_distractor_diamondtriangles.svg	22	yes	57	0	246
6.6.1	win	2022-12-14	18:26:28	18:32:21	350832	5effca0389eb590c6eed8d4d	312474190	1	main_z	7	main_z	97	stimuli_target_diamondcircles.svg	stimuli_distractor_trianglediamonds.svg	19	yes	0	0	2000
6.6.1	win	2022-12-14	18:26:28	18:32:21	350832	5effca0389eb590c6eed8d4d	312474190	1	main_z	7	advance_on_keypress_ZEE	98	stimuli_target_diamondcircles.svg	stimuli_distractor_trianglediamonds.svg	19	yes	57	0	377
6.6.1	win	2022-12-14	18:26:28	18:32:23	352749	5effca0389eb590c6eed8d4d	312474190	1	main_z	7	main_z	99	stimuli_target_trianglecircles.svg	stimuli_distractor_diamondtriangles.svg	21	yes	44	1	901
6.6.1	win	2022-12-14	18:26:28	18:32:23	352749	5effca0389eb590c6eed8d4d	312474190	1	main_z	7	advance_on_keypress_ZEE	100	stimuli_target_trianglecircles.svg	stimuli_distractor_diamondtriangles.svg	21	yes	57	0	462
6.6.1	win	2022-12-14	18:26:28	18:32:26	355847	5effca0389eb590c6eed8d4d	312474190	1	main_z	7	main_z	101	stimuli_distractor_diamondtriangles.svg	stimuli_target_squarediamonds.svg	16	yes	0	0	2000
6.6.1	win	2022-12-14	18:26:28	18:32:26	355847	5effca0389eb590c6eed8d4d	312474190	1	main_z	7	advance_on_keypress_ZEE	102	stimuli_distractor_diamondtriangles.svg	stimuli_target_squarediamonds.svg	16	yes	57	0	427
6.6.1	win	2022-12-14	18:26:28	18:32:28	357462	5effca0389eb590c6eed8d4d	312474190	1	main_z	7	main_z	103	stimuli_target_trianglesquares.svg	stimuli_distractor_trianglediamonds.svg	18	yes	44	1	551
6.6.1	win	2022-12-14	18:26:28	18:32:28	357462	5effca0389eb590c6eed8d4d	312474190	1	main_z	7	advance_on_keypress_ZEE	104	stimuli_target_trianglesquares.svg	stimuli_distractor_trianglediamonds.svg	18	yes	57	0	246
6.6.1	win	2022-12-14	18:26:28	18:32:31	360347	5effca0389eb590c6eed8d4d	312474190	1	main_z	7	main_z	105	stimuli_distractor_trianglediamonds.svg	stimuli_distractor_diamondtriangles.svg	35	no	0	1	2000
6.6.1	win	2022-12-14	18:26:28	18:32:31	360347	5effca0389eb590c6eed8d4d	312474190	1	main_z	7	advance_on_keypress_ZEE	106	stimuli_distractor_trianglediamonds.svg	stimuli_distractor_diamondtriangles.svg	35	no	57	0	448
6.6.1	win	2022-12-14	18:26:28	18:32:33	362291	5effca0389eb590c6eed8d4d	312474190	1	main_z	7	main_z	107	stimuli_target_squarediamonds.svg	stimuli_distractor_diamondtriangles.svg	8	yes	44	1	847
6.6.1	win	2022-12-14	18:26:28	18:32:33	362291	5effca0389eb590c6eed8d4d	312474190	1	main_z	7	advance_on_keypress_ZEE	108	stimuli_target_squarediamonds.svg	stimuli_distractor_diamondtriangles.svg	8	yes	57	0	269
6.6.1	win	2022-12-14	18:26:28	18:32:36	365196	5effca0389eb590c6eed8d4d	312474190	1	main_z	7	main_z	109	stimuli_distractor_trianglediamonds.svg	stimuli_target_trianglecircles.svg	25	yes	0	0	2000
6.6.1	win	2022-12-14	18:26:28	18:32:36	365196	5effca0389eb590c6eed8d4d	312474190	1	main_z	7	advance_on_keypress_ZEE	110	stimuli_distractor_trianglediamonds.svg	stimuli_target_trianglecircles.svg	25	yes	57	0	436
6.6.1	win	2022-12-14	18:26:28	18:32:39	368279	5effca0389eb590c6eed8d4d	312474190	1	main_z	7	main_z	111	stimuli_distractor_diamondtriangles.svg	stimuli_distractor_trianglediamonds.svg	38	no	0	1	2000
6.6.1	win	2022-12-14	18:26:28	18:32:39	368279	5effca0389eb590c6eed8d4d	312474190	1	main_z	7	advance_on_keypress_ZEE	112	stimuli_distractor_diamondtriangles.svg	stimuli_distractor_trianglediamonds.svg	38	no	57	0	410
6.6.1	win	2022-12-14	18:26:28	18:32:40	370077	5effca0389eb590c6eed8d4d	312474190	1	main_z	7	main_z	113	stimuli_target_circlediamonds.svg	stimuli_distractor_trianglediamonds.svg	2	yes	44	1	726
6.6.1	win	2022-12-14	18:26:28	18:32:40	370077	5effca0389eb590c6eed8d4d	312474190	1	main_z	7	advance_on_keypress_ZEE	114	stimuli_target_circlediamonds.svg	stimuli_distractor_trianglediamonds.svg	2	yes	57	0	317
6.6.1	win	2022-12-14	18:26:28	18:32:43	373048	5effca0389eb590c6eed8d4d	312474190	1	main_z	7	main_z	115	stimuli_distractor_diamondtriangles.svg	stimuli_distractor_trianglediamonds.svg	37	no	0	1	2000
6.6.1	win	2022-12-14	18:26:28	18:32:43	373048	5effca0389eb590c6eed8d4d	312474190	1	main_z	7	advance_on_keypress_ZEE	116	stimuli_distractor_diamondtriangles.svg	stimuli_distractor_trianglediamonds.svg	37	no	57	0	510
6.6.1	win	2022-12-14	18:26:28	18:32:45	374880	5effca0389eb590c6eed8d4d	312474190	1	main_z	7	main_z	117	stimuli_target_trianglecircles.svg	stimuli_distractor_trianglediamonds.svg	17	yes	44	1	685
6.6.1	win	2022-12-14	18:26:28	18:32:45	374880	5effca0389eb590c6eed8d4d	312474190	1	main_z	7	advance_on_keypress_ZEE	118	stimuli_target_trianglecircles.svg	stimuli_distractor_trianglediamonds.svg	17	yes	57	0	269
6.6.1	win	2022-12-14	18:26:28	18:32:47	376581	5effca0389eb590c6eed8d4d	312474190	1	main_z	7	main_z	119	stimuli_distractor_trianglediamonds.svg	stimuli_target_circletriangles.svg	9	yes	44	1	787
6.6.1	win	2022-12-14	18:26:28	18:32:47	376581	5effca0389eb590c6eed8d4d	312474190	1	main_z	7	advance_on_keypress_ZEE	120	stimuli_distractor_trianglediamonds.svg	stimuli_target_circletriangles.svg	9	yes	57	0	210
6.6.1	win	2022-12-14	18:26:28	18:32:50	379431	5effca0389eb590c6eed8d4d	312474190	1	main_z	7	main_z	121	stimuli_distractor_trianglediamonds.svg	stimuli_distractor_trianglediamonds.svg	33	no	0	1	2000
6.6.1	win	2022-12-14	18:26:28	18:32:50	379431	5effca0389eb590c6eed8d4d	312474190	1	main_z	7	advance_on_keypress_ZEE	122	stimuli_distractor_trianglediamonds.svg	stimuli_distractor_trianglediamonds.svg	33	no	57	0	433
6.6.1	win	2022-12-14	18:26:28	18:32:52	381409	5effca0389eb590c6eed8d4d	312474190	1	main_z	7	main_z	123	stimuli_distractor_diamondtriangles.svg	stimuli_target_circletriangles.svg	13	yes	44	1	898
6.6.1	win	2022-12-14	18:26:28	18:32:52	381409	5effca0389eb590c6eed8d4d	312474190	1	main_z	7	advance_on_keypress_ZEE	124	stimuli_distractor_diamondtriangles.svg	stimuli_target_circletriangles.svg	13	yes	57	0	607
6.6.1	win	2022-12-14	18:26:28	18:32:55	384663	5effca0389eb590c6eed8d4d	312474190	1	main_z	7	main_z	125	stimuli_distractor_trianglediamonds.svg	stimuli_target_circlediamonds.svg	10	yes	0	0	2000
6.6.1	win	2022-12-14	18:26:28	18:32:55	384663	5effca0389eb590c6eed8d4d	312474190	1	main_z	7	advance_on_keypress_ZEE	126	stimuli_distractor_trianglediamonds.svg	stimuli_target_circlediamonds.svg	10	yes	57	0	646
6.6.1	win	2022-12-14	18:26:28	18:32:57	386905	5effca0389eb590c6eed8d4d	312474190	1	main_z	7	main_z	127	stimuli_target_squaretriangles.svg	stimuli_distractor_diamondtriangles.svg	7	yes	44	1	936
6.6.1	win	2022-12-14	18:26:28	18:32:57	386905	5effca0389eb590c6eed8d4d	312474190	1	main_z	7	advance_on_keypress_ZEE	128	stimuli_target_squaretriangles.svg	stimuli_distractor_diamondtriangles.svg	7	yes	57	0	415
6.6.1	win	2022-12-14	18:26:28	18:33:00	389964	5effca0389eb590c6eed8d4d	312474190	1	main_z	7	main_z	129	stimuli_target_squaretriangles.svg	stimuli_distractor_trianglediamonds.svg	3	yes	0	0	2000
6.6.1	win	2022-12-14	18:26:28	18:33:00	389964	5effca0389eb590c6eed8d4d	312474190	1	main_z	7	advance_on_keypress_ZEE	130	stimuli_target_squaretriangles.svg	stimuli_distractor_trianglediamonds.svg	3	yes	57	0	480
6.6.1	win	2022-12-14	18:26:28	18:33:02	391814	5effca0389eb590c6eed8d4d	312474190	1	main_z	7	main_z	131	stimuli_distractor_diamondtriangles.svg	stimuli_target_circlediamonds.svg	14	yes	44	1	735
6.6.1	win	2022-12-14	18:26:28	18:33:02	391814	5effca0389eb590c6eed8d4d	312474190	1	main_z	7	advance_on_keypress_ZEE	132	stimuli_distractor_diamondtriangles.svg	stimuli_target_circlediamonds.svg	14	yes	57	0	752
6.6.1	win	2022-12-14	18:26:28	18:33:06	395216	5effca0389eb590c6eed8d4d	312474190	1	main_z	7	main_z	133	stimuli_distractor_diamondtriangles.svg	stimuli_target_trianglecircles.svg	29	yes	0	0	2000
6.6.1	win	2022-12-14	18:26:28	18:33:06	395216	5effca0389eb590c6eed8d4d	312474190	1	main_z	7	advance_on_keypress_ZEE	134	stimuli_distractor_diamondtriangles.svg	stimuli_target_trianglecircles.svg	29	yes	57	0	422
6.6.1	win	2022-12-14	18:26:28	18:33:07	397031	5effca0389eb590c6eed8d4d	312474190	1	main_z	7	main_z	135	stimuli_target_diamondcircles.svg	stimuli_distractor_diamondtriangles.svg	23	yes	44	1	743
6.6.1	win	2022-12-14	18:26:28	18:33:07	397031	5effca0389eb590c6eed8d4d	312474190	1	main_z	7	advance_on_keypress_ZEE	136	stimuli_target_diamondcircles.svg	stimuli_distractor_diamondtriangles.svg	23	yes	57	0	289
6.6.1	win	2022-12-14	18:26:28	18:33:09	399005	5effca0389eb590c6eed8d4d	312474190	1	main_z	7	main_z	137	stimuli_distractor_trianglediamonds.svg	stimuli_target_diamondsquares.svg	28	yes	44	1	1044
6.6.1	win	2022-12-14	18:26:28	18:33:09	399005	5effca0389eb590c6eed8d4d	312474190	1	main_z	7	advance_on_keypress_ZEE	138	stimuli_distractor_trianglediamonds.svg	stimuli_target_diamondsquares.svg	28	yes	57	0	213
6.6.1	win	2022-12-14	18:26:28	18:33:11	401174	5effca0389eb590c6eed8d4d	312474190	1	main_z	7	main_z	139	stimuli_target_diamondsquares.svg	stimuli_distractor_diamondtriangles.svg	24	yes	44	1	1328
6.6.1	win	2022-12-14	18:26:28	18:33:11	401174	5effca0389eb590c6eed8d4d	312474190	1	main_z	7	advance_on_keypress_ZEE	140	stimuli_target_diamondsquares.svg	stimuli_distractor_diamondtriangles.svg	24	yes	57	0	249
6.6.1	win	2022-12-14	18:26:28	18:33:14	403421	5effca0389eb590c6eed8d4d	312474190	1	main_z	7	main_z	141	stimuli_distractor_diamondtriangles.svg	stimuli_target_diamondsquares.svg	32	yes	44	1	1359
6.6.1	win	2022-12-14	18:26:28	18:33:14	403421	5effca0389eb590c6eed8d4d	312474190	1	main_z	7	advance_on_keypress_ZEE	142	stimuli_distractor_diamondtriangles.svg	stimuli_target_diamondsquares.svg	32	yes	57	0	253
6.6.1	win	2022-12-14	18:26:28	18:33:17	406336	5effca0389eb590c6eed8d4d	312474190	1	main_z	7	main_z	143	stimuli_distractor_trianglediamonds.svg	stimuli_distractor_trianglediamonds.svg	34	no	0	1	2000
6.6.1	win	2022-12-14	18:26:28	18:33:17	406336	5effca0389eb590c6eed8d4d	312474190	1	main_z	7	advance_on_keypress_ZEE	144	stimuli_distractor_trianglediamonds.svg	stimuli_distractor_trianglediamonds.svg	34	no	57	0	448
6.6.1	win	2022-12-14	18:26:28	18:33:20	409432	5effca0389eb590c6eed8d4d	312474190	1	main_z	7	main_z	145	stimuli_distractor_diamondtriangles.svg	stimuli_distractor_diamondtriangles.svg	39	no	0	1	2000
6.6.1	win	2022-12-14	18:26:28	18:33:20	409432	5effca0389eb590c6eed8d4d	312474190	1	main_z	7	advance_on_keypress_ZEE	146	stimuli_distractor_diamondtriangles.svg	stimuli_distractor_diamondtriangles.svg	39	no	57	0	392
6.6.1	win	2022-12-14	18:26:28	18:33:22	411385	5effca0389eb590c6eed8d4d	312474190	1	main_z	7	main_z	147	stimuli_target_circletriangles.svg	stimuli_distractor_diamondtriangles.svg	5	yes	44	1	920
6.6.1	win	2022-12-14	18:26:28	18:33:22	411385	5effca0389eb590c6eed8d4d	312474190	1	main_z	7	advance_on_keypress_ZEE	148	stimuli_target_circletriangles.svg	stimuli_distractor_diamondtriangles.svg	5	yes	57	0	341
6.6.1	win	2022-12-14	18:26:28	18:33:25	414363	5effca0389eb590c6eed8d4d	312474190	1	main_z	7	main_z	149	stimuli_distractor_diamondtriangles.svg	stimuli_target_trianglesquares.svg	30	yes	0	0	2000
6.6.1	win	2022-12-14	18:26:28	18:33:25	414363	5effca0389eb590c6eed8d4d	312474190	1	main_z	7	advance_on_keypress_ZEE	150	stimuli_distractor_diamondtriangles.svg	stimuli_target_trianglesquares.svg	30	yes	57	0	140
6.6.1	win	2022-12-14	18:26:28	18:33:27	416186	5effca0389eb590c6eed8d4d	312474190	1	main_z	7	main_z	151	stimuli_distractor_diamondtriangles.svg	stimuli_target_squaretriangles.svg	15	yes	44	1	1041
6.6.1	win	2022-12-14	18:26:28	18:33:27	416186	5effca0389eb590c6eed8d4d	312474190	1	main_z	7	advance_on_keypress_ZEE	152	stimuli_distractor_diamondtriangles.svg	stimuli_target_squaretriangles.svg	15	yes	57	0	288
6.6.1	win	2022-12-14	18:26:28	18:33:29	419113	5effca0389eb590c6eed8d4d	312474190	1	main_z	7	main_z	153	stimuli_target_diamondsquares.svg	stimuli_distractor_trianglediamonds.svg	20	yes	0	0	2000
6.6.1	win	2022-12-14	18:26:28	18:33:29	419113	5effca0389eb590c6eed8d4d	312474190	1	main_z	7	advance_on_keypress_ZEE	154	stimuli_target_diamondsquares.svg	stimuli_distractor_trianglediamonds.svg	20	yes	57	0	1021
6.6.1	win	2022-12-14	18:26:28	18:33:32	421490	5effca0389eb590c6eed8d4d	312474190	1	main_z	7	main_z	155	stimuli_target_circletriangles.svg	stimuli_distractor_trianglediamonds.svg	1	yes	44	1	711
6.6.1	win	2022-12-14	18:26:28	18:33:32	421490	5effca0389eb590c6eed8d4d	312474190	1	main_z	7	advance_on_keypress_ZEE	156	stimuli_target_circletriangles.svg	stimuli_distractor_trianglediamonds.svg	1	yes	57	0	492
6.6.1	win	2022-12-14	18:26:28	18:33:34	423755	5effca0389eb590c6eed8d4d	312474190	1	main_z	7	main_z	157	stimuli_target_squarediamonds.svg	stimuli_distractor_trianglediamonds.svg	4	yes	44	1	1143
6.6.1	win	2022-12-14	18:26:28	18:33:34	423755	5effca0389eb590c6eed8d4d	312474190	1	main_z	7	advance_on_keypress_ZEE	158	stimuli_target_squarediamonds.svg	stimuli_distractor_trianglediamonds.svg	4	yes	57	0	452
6.6.1	win	2022-12-14	18:26:28	18:33:36	425701	5effca0389eb590c6eed8d4d	312474190	1	main_z	7	main_z	159	stimuli_target_circlediamonds.svg	stimuli_distractor_diamondtriangles.svg	6	yes	44	1	855
6.6.1	win	2022-12-14	18:26:28	18:33:36	425701	5effca0389eb590c6eed8d4d	312474190	1	main_z	7	advance_on_keypress_ZEE	160	stimuli_target_circlediamonds.svg	stimuli_distractor_diamondtriangles.svg	6	yes	57	0	231
6.6.1	win	2022-12-14	18:26:28	18:34:04	453431	5effca0389eb590c6eed8d4d	312474190	1	practice_slash	9	practice_slash	1	stimuli_distractor_trianglediamonds.svg	stimuli_distractor_diamondtriangles.svg	16	no	0	1	2000
6.6.1	win	2022-12-14	18:26:28	18:34:04	453431	5effca0389eb590c6eed8d4d	312474190	1	practice_slash	9	advance_on_keypress_SLASH	2	stimuli_distractor_trianglediamonds.svg	stimuli_distractor_diamondtriangles.svg	16	no	57	0	657
6.6.1	win	2022-12-14	18:26:28	18:34:07	456526	5effca0389eb590c6eed8d4d	312474190	1	practice_slash	9	practice_slash	3	stimuli_distractor_trianglediamonds.svg	stimuli_target_diamondcircles.svg	12	yes	53	1	797
6.6.1	win	2022-12-14	18:26:28	18:34:07	456526	5effca0389eb590c6eed8d4d	312474190	1	practice_slash	9	advance_on_keypress_SLASH	4	stimuli_distractor_trianglediamonds.svg	stimuli_target_diamondcircles.svg	12	yes	57	0	288
6.6.1	win	2022-12-14	18:26:28	18:34:09	459082	5effca0389eb590c6eed8d4d	312474190	1	practice_slash	9	practice_slash	5	stimuli_target_circlediamonds.svg	stimuli_distractor_trianglediamonds.svg	4	yes	53	1	635
6.6.1	win	2022-12-14	18:26:28	18:34:09	459082	5effca0389eb590c6eed8d4d	312474190	1	practice_slash	9	advance_on_keypress_SLASH	6	stimuli_target_circlediamonds.svg	stimuli_distractor_trianglediamonds.svg	4	yes	57	0	404
6.6.1	win	2022-12-14	18:26:28	18:34:13	463135	5effca0389eb590c6eed8d4d	312474190	1	practice_slash	9	practice_slash	7	stimuli_distractor_diamondtriangles.svg	stimuli_distractor_diamondtriangles.svg	13	no	0	1	2000
6.6.1	win	2022-12-14	18:26:28	18:34:13	463135	5effca0389eb590c6eed8d4d	312474190	1	practice_slash	9	advance_on_keypress_SLASH	8	stimuli_distractor_diamondtriangles.svg	stimuli_distractor_diamondtriangles.svg	13	no	57	0	452
6.6.1	win	2022-12-14	18:26:28	18:34:16	465933	5effca0389eb590c6eed8d4d	312474190	1	practice_slash	9	practice_slash	9	stimuli_distractor_trianglediamonds.svg	stimuli_target_circlediamonds.svg	10	yes	53	1	700
6.6.1	win	2022-12-14	18:26:28	18:34:16	465933	5effca0389eb590c6eed8d4d	312474190	1	practice_slash	9	advance_on_keypress_SLASH	10	stimuli_distractor_trianglediamonds.svg	stimuli_target_circlediamonds.svg	10	yes	57	0	1307
6.6.1	win	2022-12-14	18:26:28	18:34:20	469640	5effca0389eb590c6eed8d4d	312474190	1	practice_slash	9	practice_slash	11	stimuli_distractor_diamondtriangles.svg	stimuli_target_circletriangles.svg	7	yes	53	1	760
6.6.1	win	2022-12-14	18:26:28	18:34:20	469640	5effca0389eb590c6eed8d4d	312474190	1	practice_slash	9	advance_on_keypress_SLASH	12	stimuli_distractor_diamondtriangles.svg	stimuli_target_circletriangles.svg	7	yes	57	0	545
6.6.1	win	2022-12-14	18:26:28	18:34:23	472571	5effca0389eb590c6eed8d4d	312474190	1	practice_slash	9	practice_slash	13	stimuli_distractor_trianglediamonds.svg	stimuli_target_squarediamonds.svg	11	yes	53	1	757
6.6.1	win	2022-12-14	18:26:28	18:34:23	472571	5effca0389eb590c6eed8d4d	312474190	1	practice_slash	9	advance_on_keypress_SLASH	14	stimuli_distractor_trianglediamonds.svg	stimuli_target_squarediamonds.svg	11	yes	57	0	1294
6.6.1	win	2022-12-14	18:26:28	18:34:26	476122	5effca0389eb590c6eed8d4d	312474190	1	practice_slash	9	practice_slash	15	stimuli_target_circlediamonds.svg	stimuli_distractor_diamondtriangles.svg	1	yes	53	1	626
6.6.1	win	2022-12-14	18:26:28	18:34:26	476122	5effca0389eb590c6eed8d4d	312474190	1	practice_slash	9	advance_on_keypress_SLASH	16	stimuli_target_circlediamonds.svg	stimuli_distractor_diamondtriangles.svg	1	yes	57	0	792
6.6.1	win	2022-12-14	18:26:28	18:34:30	479466	5effca0389eb590c6eed8d4d	312474190	1	practice_slash	9	practice_slash	17	stimuli_target_squarediamonds.svg	stimuli_distractor_trianglediamonds.svg	5	yes	53	1	917
6.6.1	win	2022-12-14	18:26:28	18:34:30	479466	5effca0389eb590c6eed8d4d	312474190	1	practice_slash	9	advance_on_keypress_SLASH	18	stimuli_target_squarediamonds.svg	stimuli_distractor_trianglediamonds.svg	5	yes	57	0	410
6.6.1	win	2022-12-14	18:26:28	18:34:33	482199	5effca0389eb590c6eed8d4d	312474190	1	practice_slash	9	practice_slash	19	stimuli_distractor_diamondtriangles.svg	stimuli_target_trianglecircles.svg	9	yes	53	1	684
6.6.1	win	2022-12-14	18:26:28	18:34:33	482199	5effca0389eb590c6eed8d4d	312474190	1	practice_slash	9	advance_on_keypress_SLASH	20	stimuli_distractor_diamondtriangles.svg	stimuli_target_trianglecircles.svg	9	yes	57	0	1442
6.6.1	win	2022-12-14	18:26:28	18:34:37	486694	5effca0389eb590c6eed8d4d	312474190	1	practice_slash	9	practice_slash	21	stimuli_target_squarediamonds.svg	stimuli_distractor_diamondtriangles.svg	2	yes	53	1	1400
6.6.1	win	2022-12-14	18:26:28	18:34:37	486694	5effca0389eb590c6eed8d4d	312474190	1	practice_slash	9	advance_on_keypress_SLASH	22	stimuli_target_squarediamonds.svg	stimuli_distractor_diamondtriangles.svg	2	yes	57	0	896
6.6.1	win	2022-12-14	18:26:28	18:34:42	491238	5effca0389eb590c6eed8d4d	312474190	1	practice_slash	9	practice_slash	23	stimuli_distractor_diamondtriangles.svg	stimuli_target_diamondcircles.svg	8	yes	0	0	2000
6.6.1	win	2022-12-14	18:26:28	18:34:42	491238	5effca0389eb590c6eed8d4d	312474190	1	practice_slash	9	advance_on_keypress_SLASH	24	stimuli_distractor_diamondtriangles.svg	stimuli_target_diamondcircles.svg	8	yes	57	0	309
6.6.1	win	2022-12-14	18:26:28	18:34:44	493987	5effca0389eb590c6eed8d4d	312474190	1	practice_slash	9	practice_slash	25	stimuli_target_diamondsquares.svg	stimuli_distractor_trianglediamonds.svg	6	yes	53	1	802
6.6.1	win	2022-12-14	18:26:28	18:34:44	493987	5effca0389eb590c6eed8d4d	312474190	1	practice_slash	9	advance_on_keypress_SLASH	26	stimuli_target_diamondsquares.svg	stimuli_distractor_trianglediamonds.svg	6	yes	57	0	483
6.6.1	win	2022-12-14	18:26:28	18:34:48	498120	5effca0389eb590c6eed8d4d	312474190	1	practice_slash	9	practice_slash	27	stimuli_distractor_trianglediamonds.svg	stimuli_distractor_trianglediamonds.svg	15	no	0	1	2000
6.6.1	win	2022-12-14	18:26:28	18:34:48	498120	5effca0389eb590c6eed8d4d	312474190	1	practice_slash	9	advance_on_keypress_SLASH	28	stimuli_distractor_trianglediamonds.svg	stimuli_distractor_trianglediamonds.svg	15	no	57	0	505
6.6.1	win	2022-12-14	18:26:28	18:34:53	502268	5effca0389eb590c6eed8d4d	312474190	1	practice_slash	9	practice_slash	29	stimuli_distractor_diamondtriangles.svg	stimuli_distractor_trianglediamonds.svg	14	no	0	1	2000
6.6.1	win	2022-12-14	18:26:28	18:34:53	502268	5effca0389eb590c6eed8d4d	312474190	1	practice_slash	9	advance_on_keypress_SLASH	30	stimuli_distractor_diamondtriangles.svg	stimuli_distractor_trianglediamonds.svg	14	no	57	0	302
6.6.1	win	2022-12-14	18:26:28	18:34:55	505071	5effca0389eb590c6eed8d4d	312474190	1	practice_slash	9	practice_slash	31	stimuli_target_diamondsquares.svg	stimuli_distractor_diamondtriangles.svg	3	yes	53	1	857
6.6.1	win	2022-12-14	18:26:28	18:34:55	505071	5effca0389eb590c6eed8d4d	312474190	1	practice_slash	9	advance_on_keypress_SLASH	32	stimuli_target_diamondsquares.svg	stimuli_distractor_diamondtriangles.svg	3	yes	57	0	445
6.6.1	win	2022-12-14	18:26:28	18:35:00	510073	5effca0389eb590c6eed8d4d	312474190	1	main_slash	11	main_slash	1	stimuli_distractor_diamondtriangles.svg	stimuli_distractor_trianglediamonds.svg	38	no	0	1	2000
6.6.1	win	2022-12-14	18:26:28	18:35:00	510073	5effca0389eb590c6eed8d4d	312474190	1	main_slash	11	advance_on_keypress_SLASH	2	stimuli_distractor_diamondtriangles.svg	stimuli_distractor_trianglediamonds.svg	38	no	57	0	383
6.6.1	win	2022-12-14	18:26:28	18:35:02	511836	5effca0389eb590c6eed8d4d	312474190	1	main_slash	11	main_slash	3	stimuli_target_circletriangles.svg	stimuli_distractor_diamondtriangles.svg	5	yes	53	1	739
6.6.1	win	2022-12-14	18:26:28	18:35:02	511836	5effca0389eb590c6eed8d4d	312474190	1	main_slash	11	advance_on_keypress_SLASH	4	stimuli_target_circletriangles.svg	stimuli_distractor_diamondtriangles.svg	5	yes	57	0	768
6.6.1	win	2022-12-14	18:26:28	18:35:04	514138	5effca0389eb590c6eed8d4d	312474190	1	main_slash	11	main_slash	5	stimuli_target_squaretriangles.svg	stimuli_distractor_diamondtriangles.svg	7	yes	53	1	891
6.6.1	win	2022-12-14	18:26:28	18:35:04	514138	5effca0389eb590c6eed8d4d	312474190	1	main_slash	11	advance_on_keypress_SLASH	6	stimuli_target_squaretriangles.svg	stimuli_distractor_diamondtriangles.svg	7	yes	57	0	242
6.6.1	win	2022-12-14	18:26:28	18:35:06	515770	5effca0389eb590c6eed8d4d	312474190	1	main_slash	11	main_slash	7	stimuli_distractor_diamondtriangles.svg	stimuli_target_trianglesquares.svg	30	yes	53	1	755
6.6.1	win	2022-12-14	18:26:28	18:35:06	515770	5effca0389eb590c6eed8d4d	312474190	1	main_slash	11	advance_on_keypress_SLASH	8	stimuli_distractor_diamondtriangles.svg	stimuli_target_trianglesquares.svg	30	yes	57	0	242
6.6.1	win	2022-12-14	18:26:28	18:35:08	517444	5effca0389eb590c6eed8d4d	312474190	1	main_slash	11	main_slash	9	stimuli_target_trianglecircles.svg	stimuli_distractor_trianglediamonds.svg	17	yes	53	1	797
6.6.1	win	2022-12-14	18:26:28	18:35:08	517444	5effca0389eb590c6eed8d4d	312474190	1	main_slash	11	advance_on_keypress_SLASH	10	stimuli_target_trianglecircles.svg	stimuli_distractor_trianglediamonds.svg	17	yes	57	0	254
6.6.1	win	2022-12-14	18:26:28	18:35:09	518999	5effca0389eb590c6eed8d4d	312474190	1	main_slash	11	main_slash	11	stimuli_distractor_diamondtriangles.svg	stimuli_target_diamondcircles.svg	31	yes	53	1	655
6.6.1	win	2022-12-14	18:26:28	18:35:09	518999	5effca0389eb590c6eed8d4d	312474190	1	main_slash	11	advance_on_keypress_SLASH	12	stimuli_distractor_diamondtriangles.svg	stimuli_target_diamondcircles.svg	31	yes	57	0	270
6.6.1	win	2022-12-14	18:26:28	18:35:11	520638	5effca0389eb590c6eed8d4d	312474190	1	main_slash	11	main_slash	13	stimuli_distractor_diamondtriangles.svg	stimuli_target_circlediamonds.svg	14	yes	53	1	724
6.6.1	win	2022-12-14	18:26:28	18:35:11	520638	5effca0389eb590c6eed8d4d	312474190	1	main_slash	11	advance_on_keypress_SLASH	14	stimuli_distractor_diamondtriangles.svg	stimuli_target_circlediamonds.svg	14	yes	57	0	251
6.6.1	win	2022-12-14	18:26:28	18:35:14	523533	5effca0389eb590c6eed8d4d	312474190	1	main_slash	11	main_slash	15	stimuli_distractor_trianglediamonds.svg	stimuli_distractor_trianglediamonds.svg	33	no	0	1	2000
6.6.1	win	2022-12-14	18:26:28	18:35:14	523533	5effca0389eb590c6eed8d4d	312474190	1	main_slash	11	advance_on_keypress_SLASH	16	stimuli_distractor_trianglediamonds.svg	stimuli_distractor_trianglediamonds.svg	33	no	57	0	394
6.6.1	win	2022-12-14	18:26:28	18:35:16	525559	5effca0389eb590c6eed8d4d	312474190	1	main_slash	11	main_slash	17	stimuli_target_trianglesquares.svg	stimuli_distractor_diamondtriangles.svg	22	yes	53	1	996
6.6.1	win	2022-12-14	18:26:28	18:35:16	525559	5effca0389eb590c6eed8d4d	312474190	1	main_slash	11	advance_on_keypress_SLASH	18	stimuli_target_trianglesquares.svg	stimuli_distractor_diamondtriangles.svg	22	yes	57	0	251
6.6.1	win	2022-12-14	18:26:28	18:35:18	527267	5effca0389eb590c6eed8d4d	312474190	1	main_slash	11	main_slash	19	stimuli_target_trianglecircles.svg	stimuli_distractor_diamondtriangles.svg	21	yes	53	1	819
6.6.1	win	2022-12-14	18:26:28	18:35:18	527267	5effca0389eb590c6eed8d4d	312474190	1	main_slash	11	advance_on_keypress_SLASH	20	stimuli_target_trianglecircles.svg	stimuli_distractor_diamondtriangles.svg	21	yes	57	0	202
6.6.1	win	2022-12-14	18:26:28	18:35:19	528940	5effca0389eb590c6eed8d4d	312474190	1	main_slash	11	main_slash	21	stimuli_distractor_trianglediamonds.svg	stimuli_target_circlediamonds.svg	10	yes	53	1	826
6.6.1	win	2022-12-14	18:26:28	18:35:19	528940	5effca0389eb590c6eed8d4d	312474190	1	main_slash	11	advance_on_keypress_SLASH	22	stimuli_distractor_trianglediamonds.svg	stimuli_target_circlediamonds.svg	10	yes	57	0	217
6.6.1	win	2022-12-14	18:26:28	18:35:21	530468	5effca0389eb590c6eed8d4d	312474190	1	main_slash	11	main_slash	23	stimuli_target_diamondcircles.svg	stimuli_distractor_trianglediamonds.svg	19	yes	53	1	667
6.6.1	win	2022-12-14	18:26:28	18:35:21	530468	5effca0389eb590c6eed8d4d	312474190	1	main_slash	11	advance_on_keypress_SLASH	24	stimuli_target_diamondcircles.svg	stimuli_distractor_trianglediamonds.svg	19	yes	57	0	230
6.6.1	win	2022-12-14	18:26:28	18:35:22	532119	5effca0389eb590c6eed8d4d	312474190	1	main_slash	11	main_slash	25	stimuli_distractor_diamondtriangles.svg	stimuli_target_circletriangles.svg	13	yes	53	1	788
6.6.1	win	2022-12-14	18:26:28	18:35:22	532119	5effca0389eb590c6eed8d4d	312474190	1	main_slash	11	advance_on_keypress_SLASH	26	stimuli_distractor_diamondtriangles.svg	stimuli_target_circletriangles.svg	13	yes	57	0	157
6.6.1	win	2022-12-14	18:26:28	18:35:24	533699	5effca0389eb590c6eed8d4d	312474190	1	main_slash	11	main_slash	27	stimuli_distractor_trianglediamonds.svg	stimuli_target_diamondcircles.svg	27	yes	53	1	784
6.6.1	win	2022-12-14	18:26:28	18:35:24	533699	5effca0389eb590c6eed8d4d	312474190	1	main_slash	11	advance_on_keypress_SLASH	28	stimuli_distractor_trianglediamonds.svg	stimuli_target_diamondcircles.svg	27	yes	57	0	166
6.6.1	win	2022-12-14	18:26:28	18:35:26	535501	5effca0389eb590c6eed8d4d	312474190	1	main_slash	11	main_slash	29	stimuli_target_squarediamonds.svg	stimuli_distractor_trianglediamonds.svg	4	yes	53	1	984
6.6.1	win	2022-12-14	18:26:28	18:35:26	535501	5effca0389eb590c6eed8d4d	312474190	1	main_slash	11	advance_on_keypress_SLASH	30	stimuli_target_squarediamonds.svg	stimuli_distractor_trianglediamonds.svg	4	yes	57	0	166
6.6.1	win	2022-12-14	18:26:28	18:35:29	538318	5effca0389eb590c6eed8d4d	312474190	1	main_slash	11	main_slash	31	stimuli_distractor_diamondtriangles.svg	stimuli_distractor_trianglediamonds.svg	37	no	0	1	2000
6.6.1	win	2022-12-14	18:26:28	18:35:29	538318	5effca0389eb590c6eed8d4d	312474190	1	main_slash	11	advance_on_keypress_SLASH	32	stimuli_distractor_diamondtriangles.svg	stimuli_distractor_trianglediamonds.svg	37	no	57	0	379
6.6.1	win	2022-12-14	18:26:28	18:35:30	539955	5effca0389eb590c6eed8d4d	312474190	1	main_slash	11	main_slash	33	stimuli_distractor_diamondtriangles.svg	stimuli_target_squaretriangles.svg	15	yes	53	1	624
6.6.1	win	2022-12-14	18:26:28	18:35:30	539955	5effca0389eb590c6eed8d4d	312474190	1	main_slash	11	advance_on_keypress_SLASH	34	stimuli_distractor_diamondtriangles.svg	stimuli_target_squaretriangles.svg	15	yes	57	0	193
6.6.1	win	2022-12-14	18:26:28	18:35:33	542783	5effca0389eb590c6eed8d4d	312474190	1	main_slash	11	main_slash	35	stimuli_distractor_trianglediamonds.svg	stimuli_distractor_diamondtriangles.svg	36	no	0	1	2000
6.6.1	win	2022-12-14	18:26:28	18:35:33	542783	5effca0389eb590c6eed8d4d	312474190	1	main_slash	11	advance_on_keypress_SLASH	36	stimuli_distractor_trianglediamonds.svg	stimuli_distractor_diamondtriangles.svg	36	no	57	0	371
6.6.1	win	2022-12-14	18:26:28	18:35:35	544446	5effca0389eb590c6eed8d4d	312474190	1	main_slash	11	main_slash	37	stimuli_distractor_diamondtriangles.svg	stimuli_target_squarediamonds.svg	16	yes	53	1	648
6.6.1	win	2022-12-14	18:26:28	18:35:35	544446	5effca0389eb590c6eed8d4d	312474190	1	main_slash	11	advance_on_keypress_SLASH	38	stimuli_distractor_diamondtriangles.svg	stimuli_target_squarediamonds.svg	16	yes	57	0	254
6.6.1	win	2022-12-14	18:26:28	18:35:36	546140	5effca0389eb590c6eed8d4d	312474190	1	main_slash	11	main_slash	39	stimuli_distractor_diamondtriangles.svg	stimuli_target_trianglecircles.svg	29	yes	53	1	792
6.6.1	win	2022-12-14	18:26:28	18:35:36	546140	5effca0389eb590c6eed8d4d	312474190	1	main_slash	11	advance_on_keypress_SLASH	40	stimuli_distractor_diamondtriangles.svg	stimuli_target_trianglecircles.svg	29	yes	57	0	236
6.6.1	win	2022-12-14	18:26:28	18:35:38	547686	5effca0389eb590c6eed8d4d	312474190	1	main_slash	11	main_slash	41	stimuli_target_squarediamonds.svg	stimuli_distractor_diamondtriangles.svg	8	yes	53	1	670
6.6.1	win	2022-12-14	18:26:28	18:35:38	547686	5effca0389eb590c6eed8d4d	312474190	1	main_slash	11	advance_on_keypress_SLASH	42	stimuli_target_squarediamonds.svg	stimuli_distractor_diamondtriangles.svg	8	yes	57	0	206
6.6.1	win	2022-12-14	18:26:28	18:35:41	550533	5effca0389eb590c6eed8d4d	312474190	1	main_slash	11	main_slash	43	stimuli_distractor_trianglediamonds.svg	stimuli_distractor_diamondtriangles.svg	35	no	0	1	2000
6.6.1	win	2022-12-14	18:26:28	18:35:41	550533	5effca0389eb590c6eed8d4d	312474190	1	main_slash	11	advance_on_keypress_SLASH	44	stimuli_distractor_trianglediamonds.svg	stimuli_distractor_diamondtriangles.svg	35	no	57	0	681
6.6.1	win	2022-12-14	18:26:28	18:35:43	552477	5effca0389eb590c6eed8d4d	312474190	1	main_slash	11	main_slash	45	stimuli_target_circlediamonds.svg	stimuli_distractor_diamondtriangles.svg	6	yes	53	1	630
6.6.1	win	2022-12-14	18:26:28	18:35:43	552477	5effca0389eb590c6eed8d4d	312474190	1	main_slash	11	advance_on_keypress_SLASH	46	stimuli_target_circlediamonds.svg	stimuli_distractor_diamondtriangles.svg	6	yes	57	0	361
6.6.1	win	2022-12-14	18:26:28	18:35:45	554255	5effca0389eb590c6eed8d4d	312474190	1	main_slash	11	main_slash	47	stimuli_distractor_trianglediamonds.svg	stimuli_target_circletriangles.svg	9	yes	53	1	790
6.6.1	win	2022-12-14	18:26:28	18:35:45	554255	5effca0389eb590c6eed8d4d	312474190	1	main_slash	11	advance_on_keypress_SLASH	48	stimuli_distractor_trianglediamonds.svg	stimuli_target_circletriangles.svg	9	yes	57	0	187
6.6.1	win	2022-12-14	18:26:28	18:35:46	556171	5effca0389eb590c6eed8d4d	312474190	1	main_slash	11	main_slash	49	stimuli_distractor_trianglediamonds.svg	stimuli_target_trianglesquares.svg	26	yes	53	1	1089
6.6.1	win	2022-12-14	18:26:28	18:35:46	556171	5effca0389eb590c6eed8d4d	312474190	1	main_slash	11	advance_on_keypress_SLASH	50	stimuli_distractor_trianglediamonds.svg	stimuli_target_trianglesquares.svg	26	yes	57	0	240
6.6.1	win	2022-12-14	18:26:28	18:35:49	559050	5effca0389eb590c6eed8d4d	312474190	1	main_slash	11	main_slash	51	stimuli_distractor_trianglediamonds.svg	stimuli_distractor_trianglediamonds.svg	34	no	0	1	2000
6.6.1	win	2022-12-14	18:26:28	18:35:49	559050	5effca0389eb590c6eed8d4d	312474190	1	main_slash	11	advance_on_keypress_SLASH	52	stimuli_distractor_trianglediamonds.svg	stimuli_distractor_trianglediamonds.svg	34	no	57	0	402
6.6.1	win	2022-12-14	18:26:28	18:35:51	560908	5effca0389eb590c6eed8d4d	312474190	1	main_slash	11	main_slash	53	stimuli_distractor_trianglediamonds.svg	stimuli_target_diamondsquares.svg	28	yes	53	1	811
6.6.1	win	2022-12-14	18:26:28	18:35:51	560908	5effca0389eb590c6eed8d4d	312474190	1	main_slash	11	advance_on_keypress_SLASH	54	stimuli_distractor_trianglediamonds.svg	stimuli_target_diamondsquares.svg	28	yes	57	0	315
6.6.1	win	2022-12-14	18:26:28	18:35:53	562654	5effca0389eb590c6eed8d4d	312474190	1	main_slash	11	main_slash	55	stimuli_distractor_diamondtriangles.svg	stimuli_target_diamondsquares.svg	32	yes	53	1	789
6.6.1	win	2022-12-14	18:26:28	18:35:53	562654	5effca0389eb590c6eed8d4d	312474190	1	main_slash	11	advance_on_keypress_SLASH	56	stimuli_distractor_diamondtriangles.svg	stimuli_target_diamondsquares.svg	32	yes	57	0	237
6.6.1	win	2022-12-14	18:26:28	18:35:55	564297	5effca0389eb590c6eed8d4d	312474190	1	main_slash	11	main_slash	57	stimuli_distractor_trianglediamonds.svg	stimuli_target_squarediamonds.svg	12	yes	53	1	766
6.6.1	win	2022-12-14	18:26:28	18:35:55	564297	5effca0389eb590c6eed8d4d	312474190	1	main_slash	11	advance_on_keypress_SLASH	58	stimuli_distractor_trianglediamonds.svg	stimuli_target_squarediamonds.svg	12	yes	57	0	254
6.6.1	win	2022-12-14	18:26:28	18:35:56	566023	5effca0389eb590c6eed8d4d	312474190	1	main_slash	11	main_slash	59	stimuli_target_diamondsquares.svg	stimuli_distractor_diamondtriangles.svg	24	yes	53	1	826
6.6.1	win	2022-12-14	18:26:28	18:35:56	566023	5effca0389eb590c6eed8d4d	312474190	1	main_slash	11	advance_on_keypress_SLASH	60	stimuli_target_diamondsquares.svg	stimuli_distractor_diamondtriangles.svg	24	yes	57	0	323
6.6.1	win	2022-12-14	18:26:28	18:35:59	568985	5effca0389eb590c6eed8d4d	312474190	1	main_slash	11	main_slash	61	stimuli_distractor_diamondtriangles.svg	stimuli_distractor_diamondtriangles.svg	40	no	0	1	2000
6.6.1	win	2022-12-14	18:26:28	18:35:59	568985	5effca0389eb590c6eed8d4d	312474190	1	main_slash	11	advance_on_keypress_SLASH	62	stimuli_distractor_diamondtriangles.svg	stimuli_distractor_diamondtriangles.svg	40	no	57	0	337
6.6.1	win	2022-12-14	18:26:28	18:36:01	570542	5effca0389eb590c6eed8d4d	312474190	1	main_slash	11	main_slash	63	stimuli_distractor_trianglediamonds.svg	stimuli_target_trianglecircles.svg	25	yes	53	1	577
6.6.1	win	2022-12-14	18:26:28	18:36:01	570542	5effca0389eb590c6eed8d4d	312474190	1	main_slash	11	advance_on_keypress_SLASH	64	stimuli_distractor_trianglediamonds.svg	stimuli_target_trianglecircles.svg	25	yes	57	0	168
6.6.1	win	2022-12-14	18:26:28	18:36:02	572023	5effca0389eb590c6eed8d4d	312474190	1	main_slash	11	main_slash	65	stimuli_target_trianglesquares.svg	stimuli_distractor_trianglediamonds.svg	18	yes	53	1	675
6.6.1	win	2022-12-14	18:26:28	18:36:02	572023	5effca0389eb590c6eed8d4d	312474190	1	main_slash	11	advance_on_keypress_SLASH	66	stimuli_target_trianglesquares.svg	stimuli_distractor_trianglediamonds.svg	18	yes	57	0	151
6.6.1	win	2022-12-14	18:26:28	18:36:04	573576	5effca0389eb590c6eed8d4d	312474190	1	main_slash	11	main_slash	67	stimuli_target_diamondcircles.svg	stimuli_distractor_diamondtriangles.svg	23	yes	53	1	729
6.6.1	win	2022-12-14	18:26:28	18:36:04	573576	5effca0389eb590c6eed8d4d	312474190	1	main_slash	11	advance_on_keypress_SLASH	68	stimuli_target_diamondcircles.svg	stimuli_distractor_diamondtriangles.svg	23	yes	57	0	139
6.6.1	win	2022-12-14	18:26:28	18:36:05	575037	5effca0389eb590c6eed8d4d	312474190	1	main_slash	11	main_slash	69	stimuli_target_circlediamonds.svg	stimuli_distractor_trianglediamonds.svg	2	yes	53	1	689
6.6.1	win	2022-12-14	18:26:28	18:36:05	575037	5effca0389eb590c6eed8d4d	312474190	1	main_slash	11	advance_on_keypress_SLASH	70	stimuli_target_circlediamonds.svg	stimuli_distractor_trianglediamonds.svg	2	yes	57	0	166
6.6.1	win	2022-12-14	18:26:28	18:36:07	576722	5effca0389eb590c6eed8d4d	312474190	1	main_slash	11	main_slash	71	stimuli_target_circletriangles.svg	stimuli_distractor_trianglediamonds.svg	1	yes	53	1	873
6.6.1	win	2022-12-14	18:26:28	18:36:07	576722	5effca0389eb590c6eed8d4d	312474190	1	main_slash	11	advance_on_keypress_SLASH	72	stimuli_target_circletriangles.svg	stimuli_distractor_trianglediamonds.svg	1	yes	57	0	209
6.6.1	win	2022-12-14	18:26:28	18:36:09	578477	5effca0389eb590c6eed8d4d	312474190	1	main_slash	11	main_slash	73	stimuli_target_diamondsquares.svg	stimuli_distractor_trianglediamonds.svg	20	yes	53	1	912
6.6.1	win	2022-12-14	18:26:28	18:36:09	578477	5effca0389eb590c6eed8d4d	312474190	1	main_slash	11	advance_on_keypress_SLASH	74	stimuli_target_diamondsquares.svg	stimuli_distractor_trianglediamonds.svg	20	yes	57	0	307
6.6.1	win	2022-12-14	18:26:28	18:36:12	581418	5effca0389eb590c6eed8d4d	312474190	1	main_slash	11	main_slash	75	stimuli_target_squaretriangles.svg	stimuli_distractor_trianglediamonds.svg	3	yes	0	0	2000
6.6.1	win	2022-12-14	18:26:28	18:36:12	581418	5effca0389eb590c6eed8d4d	312474190	1	main_slash	11	advance_on_keypress_SLASH	76	stimuli_target_squaretriangles.svg	stimuli_distractor_trianglediamonds.svg	3	yes	57	0	415
6.6.1	win	2022-12-14	18:26:28	18:36:14	583240	5effca0389eb590c6eed8d4d	312474190	1	main_slash	11	main_slash	77	stimuli_distractor_trianglediamonds.svg	stimuli_target_squaretriangles.svg	11	yes	53	1	758
6.6.1	win	2022-12-14	18:26:28	18:36:14	583240	5effca0389eb590c6eed8d4d	312474190	1	main_slash	11	advance_on_keypress_SLASH	78	stimuli_distractor_trianglediamonds.svg	stimuli_target_squaretriangles.svg	11	yes	57	0	273
6.6.1	win	2022-12-14	18:26:28	18:36:16	586150	5effca0389eb590c6eed8d4d	312474190	1	main_slash	11	main_slash	79	stimuli_distractor_diamondtriangles.svg	stimuli_distractor_diamondtriangles.svg	39	no	0	1	2000
6.6.1	win	2022-12-14	18:26:28	18:36:16	586150	5effca0389eb590c6eed8d4d	312474190	1	main_slash	11	advance_on_keypress_SLASH	80	stimuli_distractor_diamondtriangles.svg	stimuli_distractor_diamondtriangles.svg	39	no	57	0	476
6.6.1	win	2022-12-14	18:26:28	18:36:18	588170	5effca0389eb590c6eed8d4d	312474190	1	main_slash	11	main_slash	81	stimuli_distractor_trianglediamonds.svg	stimuli_target_squaretriangles.svg	11	yes	53	1	903
6.6.1	win	2022-12-14	18:26:28	18:36:18	588170	5effca0389eb590c6eed8d4d	312474190	1	main_slash	11	advance_on_keypress_SLASH	82	stimuli_distractor_trianglediamonds.svg	stimuli_target_squaretriangles.svg	11	yes	57	0	188
6.6.1	win	2022-12-14	18:26:28	18:36:21	591002	5effca0389eb590c6eed8d4d	312474190	1	main_slash	11	main_slash	83	stimuli_distractor_trianglediamonds.svg	stimuli_target_trianglesquares.svg	26	yes	0	0	2000
6.6.1	win	2022-12-14	18:26:28	18:36:21	591002	5effca0389eb590c6eed8d4d	312474190	1	main_slash	11	advance_on_keypress_SLASH	84	stimuli_distractor_trianglediamonds.svg	stimuli_target_trianglesquares.svg	26	yes	57	0	305
6.6.1	win	2022-12-14	18:26:28	18:36:23	592792	5effca0389eb590c6eed8d4d	312474190	1	main_slash	11	main_slash	85	stimuli_target_diamondsquares.svg	stimuli_distractor_diamondtriangles.svg	24	yes	53	1	844
6.6.1	win	2022-12-14	18:26:28	18:36:23	592792	5effca0389eb590c6eed8d4d	312474190	1	main_slash	11	advance_on_keypress_SLASH	86	stimuli_target_diamondsquares.svg	stimuli_distractor_diamondtriangles.svg	24	yes	57	0	187
6.6.1	win	2022-12-14	18:26:28	18:36:25	594223	5effca0389eb590c6eed8d4d	312474190	1	main_slash	11	main_slash	87	stimuli_target_circlediamonds.svg	stimuli_distractor_trianglediamonds.svg	2	yes	53	1	608
6.6.1	win	2022-12-14	18:26:28	18:36:25	594223	5effca0389eb590c6eed8d4d	312474190	1	main_slash	11	advance_on_keypress_SLASH	88	stimuli_target_circlediamonds.svg	stimuli_distractor_trianglediamonds.svg	2	yes	57	0	129
6.6.1	win	2022-12-14	18:26:28	18:36:26	595756	5effca0389eb590c6eed8d4d	312474190	1	main_slash	11	main_slash	89	stimuli_distractor_diamondtriangles.svg	stimuli_target_diamondcircles.svg	31	yes	53	1	775
6.6.1	win	2022-12-14	18:26:28	18:36:26	595756	5effca0389eb590c6eed8d4d	312474190	1	main_slash	11	advance_on_keypress_SLASH	90	stimuli_distractor_diamondtriangles.svg	stimuli_target_diamondcircles.svg	31	yes	57	0	131
6.6.1	win	2022-12-14	18:26:28	18:36:28	597275	5effca0389eb590c6eed8d4d	312474190	1	main_slash	11	main_slash	91	stimuli_target_trianglesquares.svg	stimuli_distractor_diamondtriangles.svg	22	yes	53	1	743
6.6.1	win	2022-12-14	18:26:28	18:36:28	597275	5effca0389eb590c6eed8d4d	312474190	1	main_slash	11	advance_on_keypress_SLASH	92	stimuli_target_trianglesquares.svg	stimuli_distractor_diamondtriangles.svg	22	yes	57	0	147
6.6.1	win	2022-12-14	18:26:28	18:36:29	598765	5effca0389eb590c6eed8d4d	312474190	1	main_slash	11	main_slash	93	stimuli_target_diamondsquares.svg	stimuli_distractor_trianglediamonds.svg	20	yes	53	1	716
6.6.1	win	2022-12-14	18:26:28	18:36:29	598765	5effca0389eb590c6eed8d4d	312474190	1	main_slash	11	advance_on_keypress_SLASH	94	stimuli_target_diamondsquares.svg	stimuli_distractor_trianglediamonds.svg	20	yes	57	0	111
6.6.1	win	2022-12-14	18:26:28	18:36:31	600210	5effca0389eb590c6eed8d4d	312474190	1	main_slash	11	main_slash	95	stimuli_distractor_trianglediamonds.svg	stimuli_target_circlediamonds.svg	10	yes	53	1	694
6.6.1	win	2022-12-14	18:26:28	18:36:31	600210	5effca0389eb590c6eed8d4d	312474190	1	main_slash	11	advance_on_keypress_SLASH	96	stimuli_distractor_trianglediamonds.svg	stimuli_target_circlediamonds.svg	10	yes	57	0	160
6.6.1	win	2022-12-14	18:26:28	18:36:32	601688	5effca0389eb590c6eed8d4d	312474190	1	main_slash	11	main_slash	97	stimuli_target_trianglecircles.svg	stimuli_distractor_diamondtriangles.svg	21	yes	53	1	687
6.6.1	win	2022-12-14	18:26:28	18:36:32	601688	5effca0389eb590c6eed8d4d	312474190	1	main_slash	11	advance_on_keypress_SLASH	98	stimuli_target_trianglecircles.svg	stimuli_distractor_diamondtriangles.svg	21	yes	57	0	144
6.6.1	win	2022-12-14	18:26:28	18:36:35	604473	5effca0389eb590c6eed8d4d	312474190	1	main_slash	11	main_slash	99	stimuli_distractor_diamondtriangles.svg	stimuli_distractor_trianglediamonds.svg	38	no	0	1	2000
6.6.1	win	2022-12-14	18:26:28	18:36:35	604473	5effca0389eb590c6eed8d4d	312474190	1	main_slash	11	advance_on_keypress_SLASH	100	stimuli_distractor_diamondtriangles.svg	stimuli_distractor_trianglediamonds.svg	38	no	57	0	739
6.6.1	win	2022-12-14	18:26:28	18:36:37	606587	5effca0389eb590c6eed8d4d	312474190	1	main_slash	11	main_slash	101	stimuli_target_circletriangles.svg	stimuli_distractor_diamondtriangles.svg	5	yes	53	1	737
6.6.1	win	2022-12-14	18:26:28	18:36:37	606587	5effca0389eb590c6eed8d4d	312474190	1	main_slash	11	advance_on_keypress_SLASH	102	stimuli_target_circletriangles.svg	stimuli_distractor_diamondtriangles.svg	5	yes	57	0	107
6.6.1	win	2022-12-14	18:26:28	18:36:38	608105	5effca0389eb590c6eed8d4d	312474190	1	main_slash	11	main_slash	103	stimuli_target_trianglesquares.svg	stimuli_distractor_trianglediamonds.svg	18	yes	53	1	772
6.6.1	win	2022-12-14	18:26:28	18:36:38	608105	5effca0389eb590c6eed8d4d	312474190	1	main_slash	11	advance_on_keypress_SLASH	104	stimuli_target_trianglesquares.svg	stimuli_distractor_trianglediamonds.svg	18	yes	57	0	107
6.6.1	win	2022-12-14	18:26:28	18:36:41	610852	5effca0389eb590c6eed8d4d	312474190	1	main_slash	11	main_slash	105	stimuli_distractor_trianglediamonds.svg	stimuli_distractor_trianglediamonds.svg	34	no	0	1	2000
6.6.1	win	2022-12-14	18:26:28	18:36:41	610852	5effca0389eb590c6eed8d4d	312474190	1	main_slash	11	advance_on_keypress_SLASH	106	stimuli_distractor_trianglediamonds.svg	stimuli_distractor_trianglediamonds.svg	34	no	57	0	451
6.6.1	win	2022-12-14	18:26:28	18:36:44	613258	5effca0389eb590c6eed8d4d	312474190	1	main_slash	11	main_slash	107	stimuli_target_circlediamonds.svg	stimuli_distractor_diamondtriangles.svg	6	yes	53	1	1309
6.6.1	win	2022-12-14	18:26:28	18:36:44	613258	5effca0389eb590c6eed8d4d	312474190	1	main_slash	11	advance_on_keypress_SLASH	108	stimuli_target_circlediamonds.svg	stimuli_distractor_diamondtriangles.svg	6	yes	57	0	367
6.6.1	win	2022-12-14	18:26:28	18:36:45	615018	5effca0389eb590c6eed8d4d	312474190	1	main_slash	11	main_slash	109	stimuli_distractor_diamondtriangles.svg	stimuli_target_circlediamonds.svg	14	yes	53	1	750
6.6.1	win	2022-12-14	18:26:28	18:36:45	615018	5effca0389eb590c6eed8d4d	312474190	1	main_slash	11	advance_on_keypress_SLASH	110	stimuli_distractor_diamondtriangles.svg	stimuli_target_circlediamonds.svg	14	yes	57	0	187
6.6.1	win	2022-12-14	18:26:28	18:36:48	617853	5effca0389eb590c6eed8d4d	312474190	1	main_slash	11	main_slash	111	stimuli_distractor_diamondtriangles.svg	stimuli_target_trianglecircles.svg	29	yes	0	0	2000
6.6.1	win	2022-12-14	18:26:28	18:36:48	617853	5effca0389eb590c6eed8d4d	312474190	1	main_slash	11	advance_on_keypress_SLASH	112	stimuli_distractor_diamondtriangles.svg	stimuli_target_trianglecircles.svg	29	yes	57	0	566
6.6.1	win	2022-12-14	18:26:28	18:36:51	621070	5effca0389eb590c6eed8d4d	312474190	1	main_slash	11	main_slash	113	stimuli_distractor_trianglediamonds.svg	stimuli_target_diamondsquares.svg	28	yes	0	0	2000
6.6.1	win	2022-12-14	18:26:28	18:36:51	621070	5effca0389eb590c6eed8d4d	312474190	1	main_slash	11	advance_on_keypress_SLASH	114	stimuli_distractor_trianglediamonds.svg	stimuli_target_diamondsquares.svg	28	yes	57	0	501
6.6.1	win	2022-12-14	18:26:28	18:36:53	623003	5effca0389eb590c6eed8d4d	312474190	1	main_slash	11	main_slash	115	stimuli_distractor_diamondtriangles.svg	stimuli_target_squaretriangles.svg	15	yes	53	1	785
6.6.1	win	2022-12-14	18:26:28	18:36:53	623003	5effca0389eb590c6eed8d4d	312474190	1	main_slash	11	advance_on_keypress_SLASH	116	stimuli_distractor_diamondtriangles.svg	stimuli_target_squaretriangles.svg	15	yes	57	0	306
6.6.1	win	2022-12-14	18:26:28	18:36:55	624887	5effca0389eb590c6eed8d4d	312474190	1	main_slash	11	main_slash	117	stimuli_distractor_diamondtriangles.svg	stimuli_target_trianglesquares.svg	30	yes	53	1	936
6.6.1	win	2022-12-14	18:26:28	18:36:55	624887	5effca0389eb590c6eed8d4d	312474190	1	main_slash	11	advance_on_keypress_SLASH	118	stimuli_distractor_diamondtriangles.svg	stimuli_target_trianglesquares.svg	30	yes	57	0	261
6.6.1	win	2022-12-14	18:26:28	18:36:57	626622	5effca0389eb590c6eed8d4d	312474190	1	main_slash	11	main_slash	119	stimuli_distractor_trianglediamonds.svg	stimuli_target_diamondcircles.svg	27	yes	53	1	839
6.6.1	win	2022-12-14	18:26:28	18:36:57	626622	5effca0389eb590c6eed8d4d	312474190	1	main_slash	11	advance_on_keypress_SLASH	120	stimuli_distractor_trianglediamonds.svg	stimuli_target_diamondcircles.svg	27	yes	57	0	346
6.6.1	win	2022-12-14	18:26:28	18:37:00	629602	5effca0389eb590c6eed8d4d	312474190	1	main_slash	11	main_slash	121	stimuli_target_squarediamonds.svg	stimuli_distractor_diamondtriangles.svg	8	yes	0	0	2000
6.6.1	win	2022-12-14	18:26:28	18:37:00	629602	5effca0389eb590c6eed8d4d	312474190	1	main_slash	11	advance_on_keypress_SLASH	122	stimuli_target_squarediamonds.svg	stimuli_distractor_diamondtriangles.svg	8	yes	57	0	427
6.6.1	win	2022-12-14	18:26:28	18:37:02	631464	5effca0389eb590c6eed8d4d	312474190	1	main_slash	11	main_slash	123	stimuli_distractor_trianglediamonds.svg	stimuli_target_squarediamonds.svg	12	yes	53	1	799
6.6.1	win	2022-12-14	18:26:28	18:37:02	631464	5effca0389eb590c6eed8d4d	312474190	1	main_slash	11	advance_on_keypress_SLASH	124	stimuli_distractor_trianglediamonds.svg	stimuli_target_squarediamonds.svg	12	yes	57	0	260
6.6.1	win	2022-12-14	18:26:28	18:37:05	634369	5effca0389eb590c6eed8d4d	312474190	1	main_slash	11	main_slash	125	stimuli_distractor_trianglediamonds.svg	stimuli_target_trianglecircles.svg	25	yes	0	0	2000
6.6.1	win	2022-12-14	18:26:28	18:37:05	634369	5effca0389eb590c6eed8d4d	312474190	1	main_slash	11	advance_on_keypress_SLASH	126	stimuli_distractor_trianglediamonds.svg	stimuli_target_trianglecircles.svg	25	yes	57	0	440
6.6.1	win	2022-12-14	18:26:28	18:37:06	636112	5effca0389eb590c6eed8d4d	312474190	1	main_slash	11	main_slash	127	stimuli_distractor_diamondtriangles.svg	stimuli_target_circletriangles.svg	13	yes	53	1	663
6.6.1	win	2022-12-14	18:26:28	18:37:06	636112	5effca0389eb590c6eed8d4d	312474190	1	main_slash	11	advance_on_keypress_SLASH	128	stimuli_distractor_diamondtriangles.svg	stimuli_target_circletriangles.svg	13	yes	57	0	238
6.6.1	win	2022-12-14	18:26:28	18:37:08	637740	5effca0389eb590c6eed8d4d	312474190	1	main_slash	11	main_slash	129	stimuli_distractor_diamondtriangles.svg	stimuli_target_diamondsquares.svg	32	yes	53	1	758
6.6.1	win	2022-12-14	18:26:28	18:37:08	637740	5effca0389eb590c6eed8d4d	312474190	1	main_slash	11	advance_on_keypress_SLASH	130	stimuli_distractor_diamondtriangles.svg	stimuli_target_diamondsquares.svg	32	yes	57	0	313
6.6.1	win	2022-12-14	18:26:28	18:37:11	640689	5effca0389eb590c6eed8d4d	312474190	1	main_slash	11	main_slash	131	stimuli_distractor_trianglediamonds.svg	stimuli_distractor_diamondtriangles.svg	36	no	0	1	2000
6.6.1	win	2022-12-14	18:26:28	18:37:11	640689	5effca0389eb590c6eed8d4d	312474190	1	main_slash	11	advance_on_keypress_SLASH	132	stimuli_distractor_trianglediamonds.svg	stimuli_distractor_diamondtriangles.svg	36	no	57	0	430
6.6.1	win	2022-12-14	18:26:28	18:37:14	643755	5effca0389eb590c6eed8d4d	312474190	1	main_slash	11	main_slash	133	stimuli_distractor_trianglediamonds.svg	stimuli_distractor_diamondtriangles.svg	35	no	0	1	2000
6.6.1	win	2022-12-14	18:26:28	18:37:14	643755	5effca0389eb590c6eed8d4d	312474190	1	main_slash	11	advance_on_keypress_SLASH	134	stimuli_distractor_trianglediamonds.svg	stimuli_distractor_diamondtriangles.svg	35	no	57	0	443
6.6.1	win	2022-12-14	18:26:28	18:37:16	645544	5effca0389eb590c6eed8d4d	312474190	1	main_slash	11	main_slash	135	stimuli_target_diamondcircles.svg	stimuli_distractor_diamondtriangles.svg	23	yes	53	1	712
6.6.1	win	2022-12-14	18:26:28	18:37:16	645544	5effca0389eb590c6eed8d4d	312474190	1	main_slash	11	advance_on_keypress_SLASH	136	stimuli_target_diamondcircles.svg	stimuli_distractor_diamondtriangles.svg	23	yes	57	0	234
6.6.1	win	2022-12-14	18:26:28	18:37:18	647215	5effca0389eb590c6eed8d4d	312474190	1	main_slash	11	main_slash	137	stimuli_target_squarediamonds.svg	stimuli_distractor_trianglediamonds.svg	4	yes	53	1	798
6.6.1	win	2022-12-14	18:26:28	18:37:18	647215	5effca0389eb590c6eed8d4d	312474190	1	main_slash	11	advance_on_keypress_SLASH	138	stimuli_target_squarediamonds.svg	stimuli_distractor_trianglediamonds.svg	4	yes	57	0	171
6.6.1	win	2022-12-14	18:26:28	18:37:20	650061	5effca0389eb590c6eed8d4d	312474190	1	main_slash	11	main_slash	139	stimuli_distractor_diamondtriangles.svg	stimuli_distractor_trianglediamonds.svg	37	no	0	1	2000
6.6.1	win	2022-12-14	18:26:28	18:37:20	650061	5effca0389eb590c6eed8d4d	312474190	1	main_slash	11	advance_on_keypress_SLASH	140	stimuli_distractor_diamondtriangles.svg	stimuli_distractor_trianglediamonds.svg	37	no	57	0	409
6.6.1	win	2022-12-14	18:26:28	18:37:22	651560	5effca0389eb590c6eed8d4d	312474190	1	main_slash	11	main_slash	141	stimuli_target_squaretriangles.svg	stimuli_distractor_trianglediamonds.svg	3	yes	53	1	461
6.6.1	win	2022-12-14	18:26:28	18:37:22	651560	5effca0389eb590c6eed8d4d	312474190	1	main_slash	11	advance_on_keypress_SLASH	142	stimuli_target_squaretriangles.svg	stimuli_distractor_trianglediamonds.svg	3	yes	57	0	317
6.6.1	win	2022-12-14	18:26:28	18:37:23	652992	5effca0389eb590c6eed8d4d	312474190	1	main_slash	11	main_slash	143	stimuli_target_trianglecircles.svg	stimuli_distractor_trianglediamonds.svg	17	yes	53	1	475
6.6.1	win	2022-12-14	18:26:28	18:37:23	652992	5effca0389eb590c6eed8d4d	312474190	1	main_slash	11	advance_on_keypress_SLASH	144	stimuli_target_trianglecircles.svg	stimuli_distractor_trianglediamonds.svg	17	yes	57	0	118
6.6.1	win	2022-12-14	18:26:28	18:37:26	655754	5effca0389eb590c6eed8d4d	312474190	1	main_slash	11	main_slash	145	stimuli_distractor_diamondtriangles.svg	stimuli_distractor_diamondtriangles.svg	40	no	0	1	2000
6.6.1	win	2022-12-14	18:26:28	18:37:26	655754	5effca0389eb590c6eed8d4d	312474190	1	main_slash	11	advance_on_keypress_SLASH	146	stimuli_distractor_diamondtriangles.svg	stimuli_distractor_diamondtriangles.svg	40	no	57	0	359
6.6.1	win	2022-12-14	18:26:28	18:37:28	657505	5effca0389eb590c6eed8d4d	312474190	1	main_slash	11	main_slash	147	stimuli_distractor_trianglediamonds.svg	stimuli_target_circletriangles.svg	9	yes	53	1	755
6.6.1	win	2022-12-14	18:26:28	18:37:28	657505	5effca0389eb590c6eed8d4d	312474190	1	main_slash	11	advance_on_keypress_SLASH	148	stimuli_distractor_trianglediamonds.svg	stimuli_target_circletriangles.svg	9	yes	57	0	134
6.6.1	win	2022-12-14	18:26:28	18:37:29	659069	5effca0389eb590c6eed8d4d	312474190	1	main_slash	11	main_slash	149	stimuli_target_circletriangles.svg	stimuli_distractor_trianglediamonds.svg	1	yes	53	1	785
6.6.1	win	2022-12-14	18:26:28	18:37:29	659069	5effca0389eb590c6eed8d4d	312474190	1	main_slash	11	advance_on_keypress_SLASH	150	stimuli_target_circletriangles.svg	stimuli_distractor_trianglediamonds.svg	1	yes	57	0	77
6.6.1	win	2022-12-14	18:26:28	18:37:31	660574	5effca0389eb590c6eed8d4d	312474190	1	main_slash	11	main_slash	151	stimuli_distractor_diamondtriangles.svg	stimuli_target_squarediamonds.svg	16	yes	53	1	788
6.6.1	win	2022-12-14	18:26:28	18:37:31	660574	5effca0389eb590c6eed8d4d	312474190	1	main_slash	11	advance_on_keypress_SLASH	152	stimuli_distractor_diamondtriangles.svg	stimuli_target_squarediamonds.svg	16	yes	57	0	117
6.6.1	win	2022-12-14	18:26:28	18:37:32	662121	5effca0389eb590c6eed8d4d	312474190	1	main_slash	11	main_slash	153	stimuli_target_diamondcircles.svg	stimuli_distractor_trianglediamonds.svg	19	yes	53	1	788
6.6.1	win	2022-12-14	18:26:28	18:37:32	662121	5effca0389eb590c6eed8d4d	312474190	1	main_slash	11	advance_on_keypress_SLASH	154	stimuli_target_diamondcircles.svg	stimuli_distractor_trianglediamonds.svg	19	yes	57	0	97
6.6.1	win	2022-12-14	18:26:28	18:37:35	664857	5effca0389eb590c6eed8d4d	312474190	1	main_slash	11	main_slash	155	stimuli_distractor_diamondtriangles.svg	stimuli_distractor_diamondtriangles.svg	39	no	0	1	2000
6.6.1	win	2022-12-14	18:26:28	18:37:35	664857	5effca0389eb590c6eed8d4d	312474190	1	main_slash	11	advance_on_keypress_SLASH	156	stimuli_distractor_diamondtriangles.svg	stimuli_distractor_diamondtriangles.svg	39	no	57	0	493
6.6.1	win	2022-12-14	18:26:28	18:37:37	666838	5effca0389eb590c6eed8d4d	312474190	1	main_slash	11	main_slash	157	stimuli_target_squaretriangles.svg	stimuli_distractor_diamondtriangles.svg	7	yes	53	1	850
6.6.1	win	2022-12-14	18:26:28	18:37:37	666838	5effca0389eb590c6eed8d4d	312474190	1	main_slash	11	advance_on_keypress_SLASH	158	stimuli_target_squaretriangles.svg	stimuli_distractor_diamondtriangles.svg	7	yes	57	0	173
6.6.1	win	2022-12-14	18:26:28	18:37:40	669653	5effca0389eb590c6eed8d4d	312474190	1	main_slash	11	main_slash	159	stimuli_distractor_trianglediamonds.svg	stimuli_distractor_trianglediamonds.svg	33	no	0	1	2000
6.6.1	win	2022-12-14	18:26:28	18:37:40	669653	5effca0389eb590c6eed8d4d	312474190	1	main_slash	11	advance_on_keypress_SLASH	160	stimuli_distractor_trianglediamonds.svg	stimuli_distractor_trianglediamonds.svg	33	no	57	0	649