build	computer.platform	date	time	timestamp	time_elapsed_ms	subject	group	session	blockcode	blocknum	trialcode	trialnum	stimulus_left	stimulus_right	stim_index	target_present	response	correct	latency
6.6.1	win	2022-12-29	18:38:32	18:56:43	1089930	58dd769642b8e500017159d5	573684100	1	practice_z	5	practice_z	1	stimuli_distractor_diamondtriangles.svg	stimuli_distractor_trianglediamonds.svg	14	no	0	1	2000
6.6.1	win	2022-12-29	18:38:32	18:56:43	1089930	58dd769642b8e500017159d5	573684100	1	practice_z	5	advance_on_keypress_ZEE	2	stimuli_distractor_diamondtriangles.svg	stimuli_distractor_trianglediamonds.svg	14	no	57	0	4630
6.6.1	win	2022-12-29	18:38:32	18:56:50	1096709	58dd769642b8e500017159d5	573684100	1	practice_z	5	practice_z	3	stimuli_distractor_trianglediamonds.svg	stimuli_target_circlediamonds.svg	10	yes	44	1	497
6.6.1	win	2022-12-29	18:38:32	18:56:50	1096709	58dd769642b8e500017159d5	573684100	1	practice_z	5	advance_on_keypress_ZEE	4	stimuli_distractor_trianglediamonds.svg	stimuli_target_circlediamonds.svg	10	yes	57	0	884
6.6.1	win	2022-12-29	18:38:32	18:56:53	1099728	58dd769642b8e500017159d5	573684100	1	practice_z	5	practice_z	5	stimuli_target_diamondsquares.svg	stimuli_distractor_trianglediamonds.svg	6	yes	44	1	481
6.6.1	win	2022-12-29	18:38:32	18:56:53	1099728	58dd769642b8e500017159d5	573684100	1	practice_z	5	advance_on_keypress_ZEE	6	stimuli_target_diamondsquares.svg	stimuli_distractor_trianglediamonds.svg	6	yes	57	0	3099
6.6.1	win	2022-12-29	18:38:32	18:56:59	1106480	58dd769642b8e500017159d5	573684100	1	practice_z	5	practice_z	7	stimuli_distractor_diamondtriangles.svg	stimuli_distractor_diamondtriangles.svg	13	no	0	1	2000
6.6.1	win	2022-12-29	18:38:32	18:56:59	1106480	58dd769642b8e500017159d5	573684100	1	practice_z	5	advance_on_keypress_ZEE	8	stimuli_distractor_diamondtriangles.svg	stimuli_distractor_diamondtriangles.svg	13	no	57	0	561
6.6.1	win	2022-12-29	18:38:32	18:57:04	1110680	58dd769642b8e500017159d5	573684100	1	practice_z	5	practice_z	9	stimuli_distractor_trianglediamonds.svg	stimuli_distractor_diamondtriangles.svg	16	no	0	1	2000
6.6.1	win	2022-12-29	18:38:32	18:57:04	1110680	58dd769642b8e500017159d5	573684100	1	practice_z	5	advance_on_keypress_ZEE	10	stimuli_distractor_trianglediamonds.svg	stimuli_distractor_diamondtriangles.svg	16	no	57	0	583
6.6.1	win	2022-12-29	18:38:32	18:57:07	1113601	58dd769642b8e500017159d5	573684100	1	practice_z	5	practice_z	11	stimuli_target_circlediamonds.svg	stimuli_distractor_trianglediamonds.svg	4	yes	44	1	688
6.6.1	win	2022-12-29	18:38:32	18:57:07	1113601	58dd769642b8e500017159d5	573684100	1	practice_z	5	advance_on_keypress_ZEE	12	stimuli_target_circlediamonds.svg	stimuli_distractor_trianglediamonds.svg	4	yes	57	0	1834
6.6.1	win	2022-12-29	18:38:32	18:57:11	1117678	58dd769642b8e500017159d5	573684100	1	practice_z	5	practice_z	13	stimuli_target_circlediamonds.svg	stimuli_distractor_diamondtriangles.svg	1	yes	44	1	599
6.6.1	win	2022-12-29	18:38:32	18:57:11	1117678	58dd769642b8e500017159d5	573684100	1	practice_z	5	advance_on_keypress_ZEE	14	stimuli_target_circlediamonds.svg	stimuli_distractor_diamondtriangles.svg	1	yes	57	0	1706
6.6.1	win	2022-12-29	18:38:32	18:57:15	1121518	58dd769642b8e500017159d5	573684100	1	practice_z	5	practice_z	15	stimuli_distractor_diamondtriangles.svg	stimuli_target_trianglecircles.svg	9	yes	44	1	488
6.6.1	win	2022-12-29	18:38:32	18:57:15	1121518	58dd769642b8e500017159d5	573684100	1	practice_z	5	advance_on_keypress_ZEE	16	stimuli_distractor_diamondtriangles.svg	stimuli_target_trianglecircles.svg	9	yes	57	0	617
6.6.1	win	2022-12-29	18:38:32	18:57:17	1124163	58dd769642b8e500017159d5	573684100	1	practice_z	5	practice_z	17	stimuli_distractor_diamondtriangles.svg	stimuli_target_circletriangles.svg	7	yes	44	1	378
6.6.1	win	2022-12-29	18:38:32	18:57:17	1124163	58dd769642b8e500017159d5	573684100	1	practice_z	5	advance_on_keypress_ZEE	18	stimuli_distractor_diamondtriangles.svg	stimuli_target_circletriangles.svg	7	yes	57	0	431
6.6.1	win	2022-12-29	18:38:32	18:57:20	1126740	58dd769642b8e500017159d5	573684100	1	practice_z	5	practice_z	19	stimuli_distractor_trianglediamonds.svg	stimuli_target_diamondcircles.svg	12	yes	44	1	493
6.6.1	win	2022-12-29	18:38:32	18:57:20	1126740	58dd769642b8e500017159d5	573684100	1	practice_z	5	advance_on_keypress_ZEE	20	stimuli_distractor_trianglediamonds.svg	stimuli_target_diamondcircles.svg	12	yes	57	0	284
6.6.1	win	2022-12-29	18:38:32	18:57:22	1129322	58dd769642b8e500017159d5	573684100	1	practice_z	5	practice_z	21	stimuli_target_diamondsquares.svg	stimuli_distractor_diamondtriangles.svg	3	yes	44	1	659
6.6.1	win	2022-12-29	18:38:32	18:57:22	1129322	58dd769642b8e500017159d5	573684100	1	practice_z	5	advance_on_keypress_ZEE	22	stimuli_target_diamondsquares.svg	stimuli_distractor_diamondtriangles.svg	3	yes	57	0	356
6.6.1	win	2022-12-29	18:38:32	18:57:26	1133313	58dd769642b8e500017159d5	573684100	1	practice_z	5	practice_z	23	stimuli_target_squarediamonds.svg	stimuli_distractor_trianglediamonds.svg	5	yes	0	0	2000
6.6.1	win	2022-12-29	18:38:32	18:57:26	1133313	58dd769642b8e500017159d5	573684100	1	practice_z	5	advance_on_keypress_ZEE	24	stimuli_target_squarediamonds.svg	stimuli_distractor_trianglediamonds.svg	5	yes	57	0	505
6.6.1	win	2022-12-29	18:38:32	18:57:30	1136596	58dd769642b8e500017159d5	573684100	1	practice_z	5	practice_z	25	stimuli_distractor_diamondtriangles.svg	stimuli_target_diamondcircles.svg	8	yes	44	1	1134
6.6.1	win	2022-12-29	18:38:32	18:57:30	1136596	58dd769642b8e500017159d5	573684100	1	practice_z	5	advance_on_keypress_ZEE	26	stimuli_distractor_diamondtriangles.svg	stimuli_target_diamondcircles.svg	8	yes	57	0	977
6.6.1	win	2022-12-29	18:38:32	18:57:34	1141214	58dd769642b8e500017159d5	573684100	1	practice_z	5	practice_z	27	stimuli_target_squarediamonds.svg	stimuli_distractor_diamondtriangles.svg	2	yes	0	0	2000
6.6.1	win	2022-12-29	18:38:32	18:57:34	1141214	58dd769642b8e500017159d5	573684100	1	practice_z	5	advance_on_keypress_ZEE	28	stimuli_target_squarediamonds.svg	stimuli_distractor_diamondtriangles.svg	2	yes	57	0	524
6.6.1	win	2022-12-29	18:38:32	18:57:38	1145115	58dd769642b8e500017159d5	573684100	1	practice_z	5	practice_z	29	stimuli_distractor_trianglediamonds.svg	stimuli_target_squarediamonds.svg	11	yes	44	1	1736
6.6.1	win	2022-12-29	18:38:32	18:57:38	1145115	58dd769642b8e500017159d5	573684100	1	practice_z	5	advance_on_keypress_ZEE	30	stimuli_distractor_trianglediamonds.svg	stimuli_target_squarediamonds.svg	11	yes	57	0	482
6.6.1	win	2022-12-29	18:38:32	18:57:42	1149247	58dd769642b8e500017159d5	573684100	1	practice_z	5	practice_z	31	stimuli_distractor_trianglediamonds.svg	stimuli_distractor_trianglediamonds.svg	15	no	0	1	2000
6.6.1	win	2022-12-29	18:38:32	18:57:42	1149247	58dd769642b8e500017159d5	573684100	1	practice_z	5	advance_on_keypress_ZEE	32	stimuli_distractor_trianglediamonds.svg	stimuli_distractor_trianglediamonds.svg	15	no	57	0	512
6.6.1	win	2022-12-29	18:38:32	18:58:41	1207846	58dd769642b8e500017159d5	573684100	1	main_z	7	main_z	1	stimuli_distractor_trianglediamonds.svg	stimuli_distractor_diamondtriangles.svg	36	no	0	1	2000
6.6.1	win	2022-12-29	18:38:32	18:58:41	1207846	58dd769642b8e500017159d5	573684100	1	main_z	7	advance_on_keypress_ZEE	2	stimuli_distractor_trianglediamonds.svg	stimuli_distractor_diamondtriangles.svg	36	no	57	0	578
6.6.1	win	2022-12-29	18:38:32	18:58:43	1209718	58dd769642b8e500017159d5	573684100	1	main_z	7	main_z	3	stimuli_distractor_trianglediamonds.svg	stimuli_target_diamondcircles.svg	27	yes	44	1	655
6.6.1	win	2022-12-29	18:38:32	18:58:43	1209718	58dd769642b8e500017159d5	573684100	1	main_z	7	advance_on_keypress_ZEE	4	stimuli_distractor_trianglediamonds.svg	stimuli_target_diamondcircles.svg	27	yes	57	0	666
6.6.1	win	2022-12-29	18:38:32	18:58:46	1213029	58dd769642b8e500017159d5	573684100	1	main_z	7	main_z	5	stimuli_distractor_diamondtriangles.svg	stimuli_distractor_trianglediamonds.svg	37	no	0	1	2000
6.6.1	win	2022-12-29	18:38:32	18:58:46	1213029	58dd769642b8e500017159d5	573684100	1	main_z	7	advance_on_keypress_ZEE	6	stimuli_distractor_diamondtriangles.svg	stimuli_distractor_trianglediamonds.svg	37	no	57	0	413
6.6.1	win	2022-12-29	18:38:32	18:58:48	1214750	58dd769642b8e500017159d5	573684100	1	main_z	7	main_z	7	stimuli_distractor_trianglediamonds.svg	stimuli_target_trianglesquares.svg	26	yes	44	1	671
6.6.1	win	2022-12-29	18:38:32	18:58:48	1214750	58dd769642b8e500017159d5	573684100	1	main_z	7	advance_on_keypress_ZEE	8	stimuli_distractor_trianglediamonds.svg	stimuli_target_trianglesquares.svg	26	yes	57	0	660
6.6.1	win	2022-12-29	18:38:32	18:58:50	1216802	58dd769642b8e500017159d5	573684100	1	main_z	7	main_z	9	stimuli_target_squarediamonds.svg	stimuli_distractor_diamondtriangles.svg	8	yes	44	1	756
6.6.1	win	2022-12-29	18:38:32	18:58:50	1216802	58dd769642b8e500017159d5	573684100	1	main_z	7	advance_on_keypress_ZEE	10	stimuli_target_squarediamonds.svg	stimuli_distractor_diamondtriangles.svg	8	yes	57	0	490
6.6.1	win	2022-12-29	18:38:32	18:58:53	1219930	58dd769642b8e500017159d5	573684100	1	main_z	7	main_z	11	stimuli_distractor_trianglediamonds.svg	stimuli_distractor_trianglediamonds.svg	33	no	0	1	2000
6.6.1	win	2022-12-29	18:38:32	18:58:53	1219930	58dd769642b8e500017159d5	573684100	1	main_z	7	advance_on_keypress_ZEE	12	stimuli_distractor_trianglediamonds.svg	stimuli_distractor_trianglediamonds.svg	33	no	57	0	361
6.6.1	win	2022-12-29	18:38:32	18:58:56	1222930	58dd769642b8e500017159d5	573684100	1	main_z	7	main_z	13	stimuli_distractor_diamondtriangles.svg	stimuli_distractor_trianglediamonds.svg	38	no	0	1	2000
6.6.1	win	2022-12-29	18:38:32	18:58:56	1222930	58dd769642b8e500017159d5	573684100	1	main_z	7	advance_on_keypress_ZEE	14	stimuli_distractor_diamondtriangles.svg	stimuli_distractor_trianglediamonds.svg	38	no	57	0	592
6.6.1	win	2022-12-29	18:38:32	18:58:58	1224824	58dd769642b8e500017159d5	573684100	1	main_z	7	main_z	15	stimuli_target_squaretriangles.svg	stimuli_distractor_trianglediamonds.svg	3	yes	44	1	661
6.6.1	win	2022-12-29	18:38:32	18:58:58	1224824	58dd769642b8e500017159d5	573684100	1	main_z	7	advance_on_keypress_ZEE	16	stimuli_target_squaretriangles.svg	stimuli_distractor_trianglediamonds.svg	3	yes	57	0	673
6.6.1	win	2022-12-29	18:38:32	18:59:00	1226719	58dd769642b8e500017159d5	573684100	1	main_z	7	main_z	17	stimuli_target_circletriangles.svg	stimuli_distractor_diamondtriangles.svg	5	yes	44	1	590
6.6.1	win	2022-12-29	18:38:32	18:59:00	1226719	58dd769642b8e500017159d5	573684100	1	main_z	7	advance_on_keypress_ZEE	18	stimuli_target_circletriangles.svg	stimuli_distractor_diamondtriangles.svg	5	yes	57	0	530
6.6.1	win	2022-12-29	18:38:32	18:59:01	1228463	58dd769642b8e500017159d5	573684100	1	main_z	7	main_z	19	stimuli_target_squarediamonds.svg	stimuli_distractor_trianglediamonds.svg	4	yes	44	1	584
6.6.1	win	2022-12-29	18:38:32	18:59:01	1228463	58dd769642b8e500017159d5	573684100	1	main_z	7	advance_on_keypress_ZEE	20	stimuli_target_squarediamonds.svg	stimuli_distractor_trianglediamonds.svg	4	yes	57	0	351
6.6.1	win	2022-12-29	18:38:32	18:59:03	1230106	58dd769642b8e500017159d5	573684100	1	main_z	7	main_z	21	stimuli_target_diamondcircles.svg	stimuli_distractor_diamondtriangles.svg	23	yes	44	1	643
6.6.1	win	2022-12-29	18:38:32	18:59:03	1230106	58dd769642b8e500017159d5	573684100	1	main_z	7	advance_on_keypress_ZEE	22	stimuli_target_diamondcircles.svg	stimuli_distractor_diamondtriangles.svg	23	yes	57	0	420
6.6.1	win	2022-12-29	18:38:32	18:59:05	1231780	58dd769642b8e500017159d5	573684100	1	main_z	7	main_z	23	stimuli_target_trianglesquares.svg	stimuli_distractor_diamondtriangles.svg	22	yes	44	1	617
6.6.1	win	2022-12-29	18:38:32	18:59:05	1231780	58dd769642b8e500017159d5	573684100	1	main_z	7	advance_on_keypress_ZEE	24	stimuli_target_trianglesquares.svg	stimuli_distractor_diamondtriangles.svg	22	yes	57	0	392
6.6.1	win	2022-12-29	18:38:32	18:59:06	1233420	58dd769642b8e500017159d5	573684100	1	main_z	7	main_z	25	stimuli_target_squaretriangles.svg	stimuli_distractor_diamondtriangles.svg	7	yes	44	1	607
6.6.1	win	2022-12-29	18:38:32	18:59:06	1233420	58dd769642b8e500017159d5	573684100	1	main_z	7	advance_on_keypress_ZEE	26	stimuli_target_squaretriangles.svg	stimuli_distractor_diamondtriangles.svg	7	yes	57	0	315
6.6.1	win	2022-12-29	18:38:32	18:59:09	1236380	58dd769642b8e500017159d5	573684100	1	main_z	7	main_z	27	stimuli_distractor_diamondtriangles.svg	stimuli_distractor_diamondtriangles.svg	40	no	0	1	2000
6.6.1	win	2022-12-29	18:38:32	18:59:09	1236380	58dd769642b8e500017159d5	573684100	1	main_z	7	advance_on_keypress_ZEE	28	stimuli_distractor_diamondtriangles.svg	stimuli_distractor_diamondtriangles.svg	40	no	57	0	455
6.6.1	win	2022-12-29	18:38:32	18:59:11	1237950	58dd769642b8e500017159d5	573684100	1	main_z	7	main_z	29	stimuli_distractor_trianglediamonds.svg	stimuli_target_circlediamonds.svg	10	yes	44	1	471
6.6.1	win	2022-12-29	18:38:32	18:59:11	1237950	58dd769642b8e500017159d5	573684100	1	main_z	7	advance_on_keypress_ZEE	30	stimuli_distractor_trianglediamonds.svg	stimuli_target_circlediamonds.svg	10	yes	57	0	429
6.6.1	win	2022-12-29	18:38:32	18:59:13	1239552	58dd769642b8e500017159d5	573684100	1	main_z	7	main_z	31	stimuli_target_circlediamonds.svg	stimuli_distractor_trianglediamonds.svg	2	yes	44	1	539
6.6.1	win	2022-12-29	18:38:32	18:59:13	1239552	58dd769642b8e500017159d5	573684100	1	main_z	7	advance_on_keypress_ZEE	32	stimuli_target_circlediamonds.svg	stimuli_distractor_trianglediamonds.svg	2	yes	57	0	298
6.6.1	win	2022-12-29	18:38:32	18:59:14	1241354	58dd769642b8e500017159d5	573684100	1	main_z	7	main_z	33	stimuli_target_diamondsquares.svg	stimuli_distractor_trianglediamonds.svg	20	yes	44	1	858
6.6.1	win	2022-12-29	18:38:32	18:59:14	1241354	58dd769642b8e500017159d5	573684100	1	main_z	7	advance_on_keypress_ZEE	34	stimuli_target_diamondsquares.svg	stimuli_distractor_trianglediamonds.svg	20	yes	57	0	315
6.6.1	win	2022-12-29	18:38:32	18:59:16	1242939	58dd769642b8e500017159d5	573684100	1	main_z	7	main_z	35	stimuli_distractor_diamondtriangles.svg	stimuli_target_diamondsquares.svg	32	yes	44	1	626
6.6.1	win	2022-12-29	18:38:32	18:59:16	1242939	58dd769642b8e500017159d5	573684100	1	main_z	7	advance_on_keypress_ZEE	36	stimuli_distractor_diamondtriangles.svg	stimuli_target_diamondsquares.svg	32	yes	57	0	332
6.6.1	win	2022-12-29	18:38:32	18:59:18	1244874	58dd769642b8e500017159d5	573684100	1	main_z	7	main_z	37	stimuli_distractor_diamondtriangles.svg	stimuli_target_squarediamonds.svg	16	yes	44	1	961
6.6.1	win	2022-12-29	18:38:32	18:59:18	1244874	58dd769642b8e500017159d5	573684100	1	main_z	7	advance_on_keypress_ZEE	38	stimuli_distractor_diamondtriangles.svg	stimuli_target_squarediamonds.svg	16	yes	57	0	318
6.6.1	win	2022-12-29	18:38:32	18:59:19	1246445	58dd769642b8e500017159d5	573684100	1	main_z	7	main_z	39	stimuli_distractor_diamondtriangles.svg	stimuli_target_diamondcircles.svg	31	yes	44	1	617
6.6.1	win	2022-12-29	18:38:32	18:59:19	1246445	58dd769642b8e500017159d5	573684100	1	main_z	7	advance_on_keypress_ZEE	40	stimuli_distractor_diamondtriangles.svg	stimuli_target_diamondcircles.svg	31	yes	57	0	277
6.6.1	win	2022-12-29	18:38:32	18:59:21	1247824	58dd769642b8e500017159d5	573684100	1	main_z	7	main_z	41	stimuli_distractor_trianglediamonds.svg	stimuli_target_circletriangles.svg	9	yes	44	1	461
6.6.1	win	2022-12-29	18:38:32	18:59:21	1247824	58dd769642b8e500017159d5	573684100	1	main_z	7	advance_on_keypress_ZEE	42	stimuli_distractor_trianglediamonds.svg	stimuli_target_circletriangles.svg	9	yes	57	0	303
6.6.1	win	2022-12-29	18:38:32	18:59:22	1249219	58dd769642b8e500017159d5	573684100	1	main_z	7	main_z	43	stimuli_distractor_trianglediamonds.svg	stimuli_target_squaretriangles.svg	11	yes	44	1	456
6.6.1	win	2022-12-29	18:38:32	18:59:22	1249219	58dd769642b8e500017159d5	573684100	1	main_z	7	advance_on_keypress_ZEE	44	stimuli_distractor_trianglediamonds.svg	stimuli_target_squaretriangles.svg	11	yes	57	0	309
6.6.1	win	2022-12-29	18:38:32	18:59:24	1250638	58dd769642b8e500017159d5	573684100	1	main_z	7	main_z	45	stimuli_distractor_trianglediamonds.svg	stimuli_target_squarediamonds.svg	12	yes	44	1	475
6.6.1	win	2022-12-29	18:38:32	18:59:24	1250638	58dd769642b8e500017159d5	573684100	1	main_z	7	advance_on_keypress_ZEE	46	stimuli_distractor_trianglediamonds.svg	stimuli_target_squarediamonds.svg	12	yes	57	0	287
6.6.1	win	2022-12-29	18:38:32	18:59:25	1252076	58dd769642b8e500017159d5	573684100	1	main_z	7	main_z	47	stimuli_distractor_diamondtriangles.svg	stimuli_target_trianglecircles.svg	29	yes	44	1	513
6.6.1	win	2022-12-29	18:38:32	18:59:25	1252076	58dd769642b8e500017159d5	573684100	1	main_z	7	advance_on_keypress_ZEE	48	stimuli_distractor_diamondtriangles.svg	stimuli_target_trianglecircles.svg	29	yes	57	0	203
6.6.1	win	2022-12-29	18:38:32	18:59:26	1253442	58dd769642b8e500017159d5	573684100	1	main_z	7	main_z	49	stimuli_target_trianglecircles.svg	stimuli_distractor_diamondtriangles.svg	21	yes	44	1	528
6.6.1	win	2022-12-29	18:38:32	18:59:26	1253442	58dd769642b8e500017159d5	573684100	1	main_z	7	advance_on_keypress_ZEE	50	stimuli_target_trianglecircles.svg	stimuli_distractor_diamondtriangles.svg	21	yes	57	0	304
6.6.1	win	2022-12-29	18:38:32	18:59:28	1254953	58dd769642b8e500017159d5	573684100	1	main_z	7	main_z	51	stimuli_target_circletriangles.svg	stimuli_distractor_trianglediamonds.svg	1	yes	44	1	574
6.6.1	win	2022-12-29	18:38:32	18:59:28	1254953	58dd769642b8e500017159d5	573684100	1	main_z	7	advance_on_keypress_ZEE	52	stimuli_target_circletriangles.svg	stimuli_distractor_trianglediamonds.svg	1	yes	57	0	225
6.6.1	win	2022-12-29	18:38:32	18:59:30	1256712	58dd769642b8e500017159d5	573684100	1	main_z	7	main_z	53	stimuli_distractor_trianglediamonds.svg	stimuli_target_trianglecircles.svg	25	yes	44	1	899
6.6.1	win	2022-12-29	18:38:32	18:59:30	1256712	58dd769642b8e500017159d5	573684100	1	main_z	7	advance_on_keypress_ZEE	54	stimuli_distractor_trianglediamonds.svg	stimuli_target_trianglecircles.svg	25	yes	57	0	277
6.6.1	win	2022-12-29	18:38:32	18:59:31	1258297	58dd769642b8e500017159d5	573684100	1	main_z	7	main_z	55	stimuli_target_trianglecircles.svg	stimuli_distractor_trianglediamonds.svg	17	yes	44	1	668
6.6.1	win	2022-12-29	18:38:32	18:59:31	1258297	58dd769642b8e500017159d5	573684100	1	main_z	7	advance_on_keypress_ZEE	56	stimuli_target_trianglecircles.svg	stimuli_distractor_trianglediamonds.svg	17	yes	57	0	264
6.6.1	win	2022-12-29	18:38:32	18:59:33	1259838	58dd769642b8e500017159d5	573684100	1	main_z	7	main_z	57	stimuli_distractor_diamondtriangles.svg	stimuli_target_circlediamonds.svg	14	yes	44	1	642
6.6.1	win	2022-12-29	18:38:32	18:59:33	1259838	58dd769642b8e500017159d5	573684100	1	main_z	7	advance_on_keypress_ZEE	58	stimuli_distractor_diamondtriangles.svg	stimuli_target_circlediamonds.svg	14	yes	57	0	238
6.6.1	win	2022-12-29	18:38:32	18:59:34	1261345	58dd769642b8e500017159d5	573684100	1	main_z	7	main_z	59	stimuli_target_diamondcircles.svg	stimuli_distractor_trianglediamonds.svg	19	yes	44	1	632
6.6.1	win	2022-12-29	18:38:32	18:59:34	1261345	58dd769642b8e500017159d5	573684100	1	main_z	7	advance_on_keypress_ZEE	60	stimuli_target_diamondcircles.svg	stimuli_distractor_trianglediamonds.svg	19	yes	57	0	233
6.6.1	win	2022-12-29	18:38:32	18:59:36	1262931	58dd769642b8e500017159d5	573684100	1	main_z	7	main_z	61	stimuli_distractor_diamondtriangles.svg	stimuli_target_squaretriangles.svg	15	yes	44	1	702
6.6.1	win	2022-12-29	18:38:32	18:59:36	1262931	58dd769642b8e500017159d5	573684100	1	main_z	7	advance_on_keypress_ZEE	62	stimuli_distractor_diamondtriangles.svg	stimuli_target_squaretriangles.svg	15	yes	57	0	14
6.6.1	win	2022-12-29	18:38:32	18:59:38	1265454	58dd769642b8e500017159d5	573684100	1	main_z	7	main_z	63	stimuli_distractor_diamondtriangles.svg	stimuli_distractor_diamondtriangles.svg	39	no	44	0	1875
6.6.1	win	2022-12-29	18:38:32	18:59:38	1265454	58dd769642b8e500017159d5	573684100	1	main_z	7	advance_on_keypress_ZEE	64	stimuli_distractor_diamondtriangles.svg	stimuli_distractor_diamondtriangles.svg	39	no	57	0	489
6.6.1	win	2022-12-29	18:38:32	18:59:40	1267227	58dd769642b8e500017159d5	573684100	1	main_z	7	main_z	65	stimuli_target_trianglesquares.svg	stimuli_distractor_trianglediamonds.svg	18	yes	44	1	649
6.6.1	win	2022-12-29	18:38:32	18:59:40	1267227	58dd769642b8e500017159d5	573684100	1	main_z	7	advance_on_keypress_ZEE	66	stimuli_target_trianglesquares.svg	stimuli_distractor_trianglediamonds.svg	18	yes	57	0	276
6.6.1	win	2022-12-29	18:38:32	18:59:42	1268754	58dd769642b8e500017159d5	573684100	1	main_z	7	main_z	67	stimuli_target_diamondsquares.svg	stimuli_distractor_diamondtriangles.svg	24	yes	44	1	608
6.6.1	win	2022-12-29	18:38:32	18:59:42	1268754	58dd769642b8e500017159d5	573684100	1	main_z	7	advance_on_keypress_ZEE	68	stimuli_target_diamondsquares.svg	stimuli_distractor_diamondtriangles.svg	24	yes	57	0	212
6.6.1	win	2022-12-29	18:38:32	18:59:43	1270236	58dd769642b8e500017159d5	573684100	1	main_z	7	main_z	69	stimuli_distractor_diamondtriangles.svg	stimuli_target_circletriangles.svg	13	yes	44	1	640
6.6.1	win	2022-12-29	18:38:32	18:59:43	1270236	58dd769642b8e500017159d5	573684100	1	main_z	7	advance_on_keypress_ZEE	70	stimuli_distractor_diamondtriangles.svg	stimuli_target_circletriangles.svg	13	yes	57	0	196
6.6.1	win	2022-12-29	18:38:32	18:59:45	1271689	58dd769642b8e500017159d5	573684100	1	main_z	7	main_z	71	stimuli_distractor_trianglediamonds.svg	stimuli_target_diamondsquares.svg	28	yes	44	1	626
6.6.1	win	2022-12-29	18:38:32	18:59:45	1271689	58dd769642b8e500017159d5	573684100	1	main_z	7	advance_on_keypress_ZEE	72	stimuli_distractor_trianglediamonds.svg	stimuli_target_diamondsquares.svg	28	yes	57	0	253
6.6.1	win	2022-12-29	18:38:32	18:59:46	1273284	58dd769642b8e500017159d5	573684100	1	main_z	7	main_z	73	stimuli_distractor_diamondtriangles.svg	stimuli_target_trianglesquares.svg	30	yes	44	1	705
6.6.1	win	2022-12-29	18:38:32	18:59:46	1273284	58dd769642b8e500017159d5	573684100	1	main_z	7	advance_on_keypress_ZEE	74	stimuli_distractor_diamondtriangles.svg	stimuli_target_trianglesquares.svg	30	yes	57	0	268
6.6.1	win	2022-12-29	18:38:32	18:59:48	1274884	58dd769642b8e500017159d5	573684100	1	main_z	7	main_z	75	stimuli_target_circlediamonds.svg	stimuli_distractor_diamondtriangles.svg	6	yes	44	1	688
6.6.1	win	2022-12-29	18:38:32	18:59:48	1274884	58dd769642b8e500017159d5	573684100	1	main_z	7	advance_on_keypress_ZEE	76	stimuli_target_circlediamonds.svg	stimuli_distractor_diamondtriangles.svg	6	yes	57	0	223
6.6.1	win	2022-12-29	18:38:32	18:59:51	1277746	58dd769642b8e500017159d5	573684100	1	main_z	7	main_z	77	stimuli_distractor_trianglediamonds.svg	stimuli_distractor_trianglediamonds.svg	34	no	0	1	2000
6.6.1	win	2022-12-29	18:38:32	18:59:51	1277746	58dd769642b8e500017159d5	573684100	1	main_z	7	advance_on_keypress_ZEE	78	stimuli_distractor_trianglediamonds.svg	stimuli_distractor_trianglediamonds.svg	34	no	57	0	744
6.6.1	win	2022-12-29	18:38:32	18:59:53	1279941	58dd769642b8e500017159d5	573684100	1	main_z	7	main_z	79	stimuli_distractor_trianglediamonds.svg	stimuli_distractor_diamondtriangles.svg	35	no	44	0	812
6.6.1	win	2022-12-29	18:38:32	18:59:53	1279941	58dd769642b8e500017159d5	573684100	1	main_z	7	advance_on_keypress_ZEE	80	stimuli_distractor_trianglediamonds.svg	stimuli_distractor_diamondtriangles.svg	35	no	57	0	363
6.6.1	win	2022-12-29	18:38:32	18:59:55	1281938	58dd769642b8e500017159d5	573684100	1	main_z	7	main_z	81	stimuli_distractor_diamondtriangles.svg	stimuli_target_squaretriangles.svg	15	yes	44	1	1009
6.6.1	win	2022-12-29	18:38:32	18:59:55	1281938	58dd769642b8e500017159d5	573684100	1	main_z	7	advance_on_keypress_ZEE	82	stimuli_distractor_diamondtriangles.svg	stimuli_target_squaretriangles.svg	15	yes	57	0	243
6.6.1	win	2022-12-29	18:38:32	18:59:58	1284813	58dd769642b8e500017159d5	573684100	1	main_z	7	main_z	83	stimuli_distractor_diamondtriangles.svg	stimuli_distractor_diamondtriangles.svg	39	no	0	1	2000
6.6.1	win	2022-12-29	18:38:32	18:59:58	1284813	58dd769642b8e500017159d5	573684100	1	main_z	7	advance_on_keypress_ZEE	84	stimuli_distractor_diamondtriangles.svg	stimuli_distractor_diamondtriangles.svg	39	no	57	0	805
6.6.1	win	2022-12-29	18:38:32	19:00:00	1286821	58dd769642b8e500017159d5	573684100	1	main_z	7	main_z	85	stimuli_target_trianglesquares.svg	stimuli_distractor_trianglediamonds.svg	18	yes	44	1	558
6.6.1	win	2022-12-29	18:38:32	19:00:00	1286821	58dd769642b8e500017159d5	573684100	1	main_z	7	advance_on_keypress_ZEE	86	stimuli_target_trianglesquares.svg	stimuli_distractor_trianglediamonds.svg	18	yes	57	0	223
6.6.1	win	2022-12-29	18:38:32	19:00:03	1289680	58dd769642b8e500017159d5	573684100	1	main_z	7	main_z	87	stimuli_distractor_trianglediamonds.svg	stimuli_distractor_trianglediamonds.svg	34	no	0	1	2000
6.6.1	win	2022-12-29	18:38:32	19:00:03	1289680	58dd769642b8e500017159d5	573684100	1	main_z	7	advance_on_keypress_ZEE	88	stimuli_distractor_trianglediamonds.svg	stimuli_distractor_trianglediamonds.svg	34	no	57	0	380
6.6.1	win	2022-12-29	18:38:32	19:00:04	1291278	58dd769642b8e500017159d5	573684100	1	main_z	7	main_z	89	stimuli_distractor_diamondtriangles.svg	stimuli_target_trianglecircles.svg	29	yes	44	1	582
6.6.1	win	2022-12-29	18:38:32	19:00:04	1291278	58dd769642b8e500017159d5	573684100	1	main_z	7	advance_on_keypress_ZEE	90	stimuli_distractor_diamondtriangles.svg	stimuli_target_trianglecircles.svg	29	yes	57	0	232
6.6.1	win	2022-12-29	18:38:32	19:00:06	1292789	58dd769642b8e500017159d5	573684100	1	main_z	7	main_z	91	stimuli_target_circlediamonds.svg	stimuli_distractor_diamondtriangles.svg	6	yes	44	1	626
6.6.1	win	2022-12-29	18:38:32	19:00:06	1292789	58dd769642b8e500017159d5	573684100	1	main_z	7	advance_on_keypress_ZEE	92	stimuli_target_circlediamonds.svg	stimuli_distractor_diamondtriangles.svg	6	yes	57	0	181
6.6.1	win	2022-12-29	18:38:32	19:00:07	1294239	58dd769642b8e500017159d5	573684100	1	main_z	7	main_z	93	stimuli_distractor_diamondtriangles.svg	stimuli_target_circlediamonds.svg	14	yes	44	1	626
6.6.1	win	2022-12-29	18:38:32	19:00:07	1294239	58dd769642b8e500017159d5	573684100	1	main_z	7	advance_on_keypress_ZEE	94	stimuli_distractor_diamondtriangles.svg	stimuli_target_circlediamonds.svg	14	yes	57	0	184
6.6.1	win	2022-12-29	18:38:32	19:00:10	1297063	58dd769642b8e500017159d5	573684100	1	main_z	7	main_z	95	stimuli_distractor_trianglediamonds.svg	stimuli_distractor_trianglediamonds.svg	33	no	0	1	2000
6.6.1	win	2022-12-29	18:38:32	19:00:10	1297063	58dd769642b8e500017159d5	573684100	1	main_z	7	advance_on_keypress_ZEE	96	stimuli_distractor_trianglediamonds.svg	stimuli_distractor_trianglediamonds.svg	33	no	57	0	457
6.6.1	win	2022-12-29	18:38:32	19:00:12	1298754	58dd769642b8e500017159d5	573684100	1	main_z	7	main_z	97	stimuli_target_trianglesquares.svg	stimuli_distractor_diamondtriangles.svg	22	yes	44	1	591
6.6.1	win	2022-12-29	18:38:32	19:00:12	1298754	58dd769642b8e500017159d5	573684100	1	main_z	7	advance_on_keypress_ZEE	98	stimuli_target_trianglesquares.svg	stimuli_distractor_diamondtriangles.svg	22	yes	57	0	330
6.6.1	win	2022-12-29	18:38:32	19:00:13	1300384	58dd769642b8e500017159d5	573684100	1	main_z	7	main_z	99	stimuli_target_trianglecircles.svg	stimuli_distractor_trianglediamonds.svg	17	yes	44	1	671
6.6.1	win	2022-12-29	18:38:32	19:00:13	1300384	58dd769642b8e500017159d5	573684100	1	main_z	7	advance_on_keypress_ZEE	100	stimuli_target_trianglecircles.svg	stimuli_distractor_trianglediamonds.svg	17	yes	57	0	179
6.6.1	win	2022-12-29	18:38:32	19:00:15	1301924	58dd769642b8e500017159d5	573684100	1	main_z	7	main_z	101	stimuli_target_circlediamonds.svg	stimuli_distractor_trianglediamonds.svg	2	yes	44	1	729
6.6.1	win	2022-12-29	18:38:32	19:00:15	1301924	58dd769642b8e500017159d5	573684100	1	main_z	7	advance_on_keypress_ZEE	102	stimuli_target_circlediamonds.svg	stimuli_distractor_trianglediamonds.svg	2	yes	57	0	230
6.6.1	win	2022-12-29	18:38:32	19:00:17	1303859	58dd769642b8e500017159d5	573684100	1	main_z	7	main_z	103	stimuli_distractor_diamondtriangles.svg	stimuli_distractor_trianglediamonds.svg	37	no	44	0	1079
6.6.1	win	2022-12-29	18:38:32	19:00:17	1303859	58dd769642b8e500017159d5	573684100	1	main_z	7	advance_on_keypress_ZEE	104	stimuli_distractor_diamondtriangles.svg	stimuli_distractor_trianglediamonds.svg	37	no	57	0	320
6.6.1	win	2022-12-29	18:38:32	19:00:19	1305503	58dd769642b8e500017159d5	573684100	1	main_z	7	main_z	105	stimuli_distractor_trianglediamonds.svg	stimuli_target_squaretriangles.svg	11	yes	44	1	690
6.6.1	win	2022-12-29	18:38:32	19:00:19	1305503	58dd769642b8e500017159d5	573684100	1	main_z	7	advance_on_keypress_ZEE	106	stimuli_distractor_trianglediamonds.svg	stimuli_target_squaretriangles.svg	11	yes	57	0	167
6.6.1	win	2022-12-29	18:38:32	19:00:20	1306922	58dd769642b8e500017159d5	573684100	1	main_z	7	main_z	107	stimuli_distractor_trianglediamonds.svg	stimuli_target_diamondcircles.svg	27	yes	44	1	609
6.6.1	win	2022-12-29	18:38:32	19:00:20	1306922	58dd769642b8e500017159d5	573684100	1	main_z	7	advance_on_keypress_ZEE	108	stimuli_distractor_trianglediamonds.svg	stimuli_target_diamondcircles.svg	27	yes	57	0	375
6.6.1	win	2022-12-29	18:38:32	19:00:22	1308816	58dd769642b8e500017159d5	573684100	1	main_z	7	main_z	109	stimuli_distractor_trianglediamonds.svg	stimuli_target_diamondsquares.svg	28	yes	44	1	886
6.6.1	win	2022-12-29	18:38:32	19:00:22	1308816	58dd769642b8e500017159d5	573684100	1	main_z	7	advance_on_keypress_ZEE	110	stimuli_distractor_trianglediamonds.svg	stimuli_target_diamondsquares.svg	28	yes	57	0	207
6.6.1	win	2022-12-29	18:38:32	19:00:23	1310182	58dd769642b8e500017159d5	573684100	1	main_z	7	main_z	111	stimuli_target_circletriangles.svg	stimuli_distractor_diamondtriangles.svg	5	yes	44	1	518
6.6.1	win	2022-12-29	18:38:32	19:00:23	1310182	58dd769642b8e500017159d5	573684100	1	main_z	7	advance_on_keypress_ZEE	112	stimuli_target_circletriangles.svg	stimuli_distractor_diamondtriangles.svg	5	yes	57	0	260
6.6.1	win	2022-12-29	18:38:32	19:00:25	1311673	58dd769642b8e500017159d5	573684100	1	main_z	7	main_z	113	stimuli_distractor_trianglediamonds.svg	stimuli_target_trianglecircles.svg	25	yes	44	1	594
6.6.1	win	2022-12-29	18:38:32	19:00:25	1311673	58dd769642b8e500017159d5	573684100	1	main_z	7	advance_on_keypress_ZEE	114	stimuli_distractor_trianglediamonds.svg	stimuli_target_trianglecircles.svg	25	yes	57	0	156
6.6.1	win	2022-12-29	18:38:32	19:00:26	1313097	58dd769642b8e500017159d5	573684100	1	main_z	7	main_z	115	stimuli_distractor_diamondtriangles.svg	stimuli_target_diamondsquares.svg	32	yes	44	1	634
6.6.1	win	2022-12-29	18:38:32	19:00:26	1313097	58dd769642b8e500017159d5	573684100	1	main_z	7	advance_on_keypress_ZEE	116	stimuli_distractor_diamondtriangles.svg	stimuli_target_diamondsquares.svg	32	yes	57	0	161
6.6.1	win	2022-12-29	18:38:32	19:00:27	1314432	58dd769642b8e500017159d5	573684100	1	main_z	7	main_z	117	stimuli_distractor_trianglediamonds.svg	stimuli_target_trianglesquares.svg	26	yes	44	1	536
6.6.1	win	2022-12-29	18:38:32	19:00:27	1314432	58dd769642b8e500017159d5	573684100	1	main_z	7	advance_on_keypress_ZEE	118	stimuli_distractor_trianglediamonds.svg	stimuli_target_trianglesquares.svg	26	yes	57	0	192
6.6.1	win	2022-12-29	18:38:32	19:00:29	1315694	58dd769642b8e500017159d5	573684100	1	main_z	7	main_z	119	stimuli_distractor_diamondtriangles.svg	stimuli_target_diamondcircles.svg	31	yes	44	1	431
6.6.1	win	2022-12-29	18:38:32	19:00:29	1315694	58dd769642b8e500017159d5	573684100	1	main_z	7	advance_on_keypress_ZEE	120	stimuli_distractor_diamondtriangles.svg	stimuli_target_diamondcircles.svg	31	yes	57	0	216
6.6.1	win	2022-12-29	18:38:32	19:00:30	1316897	58dd769642b8e500017159d5	573684100	1	main_z	7	main_z	121	stimuli_distractor_trianglediamonds.svg	stimuli_distractor_diamondtriangles.svg	35	no	44	0	334
6.6.1	win	2022-12-29	18:38:32	19:00:30	1316897	58dd769642b8e500017159d5	573684100	1	main_z	7	advance_on_keypress_ZEE	122	stimuli_distractor_trianglediamonds.svg	stimuli_distractor_diamondtriangles.svg	35	no	57	0	190
6.6.1	win	2022-12-29	18:38:32	19:00:31	1318247	58dd769642b8e500017159d5	573684100	1	main_z	7	main_z	123	stimuli_target_trianglecircles.svg	stimuli_distractor_diamondtriangles.svg	21	yes	44	1	517
6.6.1	win	2022-12-29	18:38:32	19:00:31	1318247	58dd769642b8e500017159d5	573684100	1	main_z	7	advance_on_keypress_ZEE	124	stimuli_target_trianglecircles.svg	stimuli_distractor_diamondtriangles.svg	21	yes	57	0	160
6.6.1	win	2022-12-29	18:38:32	19:00:33	1319670	58dd769642b8e500017159d5	573684100	1	main_z	7	main_z	125	stimuli_target_diamondsquares.svg	stimuli_distractor_trianglediamonds.svg	20	yes	44	1	624
6.6.1	win	2022-12-29	18:38:32	19:00:33	1319670	58dd769642b8e500017159d5	573684100	1	main_z	7	advance_on_keypress_ZEE	126	stimuli_target_diamondsquares.svg	stimuli_distractor_trianglediamonds.svg	20	yes	57	0	148
6.6.1	win	2022-12-29	18:38:32	19:00:34	1321149	58dd769642b8e500017159d5	573684100	1	main_z	7	main_z	127	stimuli_target_circletriangles.svg	stimuli_distractor_trianglediamonds.svg	1	yes	44	1	686
6.6.1	win	2022-12-29	18:38:32	19:00:34	1321149	58dd769642b8e500017159d5	573684100	1	main_z	7	advance_on_keypress_ZEE	128	stimuli_target_circletriangles.svg	stimuli_distractor_trianglediamonds.svg	1	yes	57	0	192
6.6.1	win	2022-12-29	18:38:32	19:00:35	1322396	58dd769642b8e500017159d5	573684100	1	main_z	7	main_z	129	stimuli_distractor_trianglediamonds.svg	stimuli_target_circlediamonds.svg	10	yes	44	1	416
6.6.1	win	2022-12-29	18:38:32	19:00:35	1322396	58dd769642b8e500017159d5	573684100	1	main_z	7	advance_on_keypress_ZEE	130	stimuli_distractor_trianglediamonds.svg	stimuli_target_circlediamonds.svg	10	yes	57	0	189
6.6.1	win	2022-12-29	18:38:32	19:00:37	1324216	58dd769642b8e500017159d5	573684100	1	main_z	7	main_z	131	stimuli_target_diamondcircles.svg	stimuli_distractor_trianglediamonds.svg	19	yes	44	1	986
6.6.1	win	2022-12-29	18:38:32	19:00:37	1324216	58dd769642b8e500017159d5	573684100	1	main_z	7	advance_on_keypress_ZEE	132	stimuli_target_diamondcircles.svg	stimuli_distractor_trianglediamonds.svg	19	yes	57	0	148
6.6.1	win	2022-12-29	18:38:32	19:00:39	1325566	58dd769642b8e500017159d5	573684100	1	main_z	7	main_z	133	stimuli_target_squaretriangles.svg	stimuli_distractor_trianglediamonds.svg	3	yes	44	1	553
6.6.1	win	2022-12-29	18:38:32	19:00:39	1325566	58dd769642b8e500017159d5	573684100	1	main_z	7	advance_on_keypress_ZEE	134	stimuli_target_squaretriangles.svg	stimuli_distractor_trianglediamonds.svg	3	yes	57	0	173
6.6.1	win	2022-12-29	18:38:32	19:00:40	1326897	58dd769642b8e500017159d5	573684100	1	main_z	7	main_z	135	stimuli_distractor_diamondtriangles.svg	stimuli_target_circletriangles.svg	13	yes	44	1	517
6.6.1	win	2022-12-29	18:38:32	19:00:40	1326897	58dd769642b8e500017159d5	573684100	1	main_z	7	advance_on_keypress_ZEE	136	stimuli_distractor_diamondtriangles.svg	stimuli_target_circletriangles.svg	13	yes	57	0	175
6.6.1	win	2022-12-29	18:38:32	19:00:43	1329713	58dd769642b8e500017159d5	573684100	1	main_z	7	main_z	137	stimuli_distractor_diamondtriangles.svg	stimuli_distractor_trianglediamonds.svg	38	no	0	1	2000
6.6.1	win	2022-12-29	18:38:32	19:00:43	1329713	58dd769642b8e500017159d5	573684100	1	main_z	7	advance_on_keypress_ZEE	138	stimuli_distractor_diamondtriangles.svg	stimuli_distractor_trianglediamonds.svg	38	no	57	0	673
6.6.1	win	2022-12-29	18:38:32	19:00:45	1331521	58dd769642b8e500017159d5	573684100	1	main_z	7	main_z	139	stimuli_target_squarediamonds.svg	stimuli_distractor_diamondtriangles.svg	8	yes	44	1	491
6.6.1	win	2022-12-29	18:38:32	19:00:45	1331521	58dd769642b8e500017159d5	573684100	1	main_z	7	advance_on_keypress_ZEE	140	stimuli_target_squarediamonds.svg	stimuli_distractor_diamondtriangles.svg	8	yes	57	0	237
6.6.1	win	2022-12-29	18:38:32	19:00:46	1333014	58dd769642b8e500017159d5	573684100	1	main_z	7	main_z	141	stimuli_target_diamondsquares.svg	stimuli_distractor_diamondtriangles.svg	24	yes	44	1	618
6.6.1	win	2022-12-29	18:38:32	19:00:46	1333014	58dd769642b8e500017159d5	573684100	1	main_z	7	advance_on_keypress_ZEE	142	stimuli_target_diamondsquares.svg	stimuli_distractor_diamondtriangles.svg	24	yes	57	0	234
6.6.1	win	2022-12-29	18:38:32	19:00:48	1334512	58dd769642b8e500017159d5	573684100	1	main_z	7	main_z	143	stimuli_distractor_diamondtriangles.svg	stimuli_target_trianglesquares.svg	30	yes	44	1	615
6.6.1	win	2022-12-29	18:38:32	19:00:48	1334512	58dd769642b8e500017159d5	573684100	1	main_z	7	advance_on_keypress_ZEE	144	stimuli_distractor_diamondtriangles.svg	stimuli_target_trianglesquares.svg	30	yes	57	0	143
6.6.1	win	2022-12-29	18:38:32	19:00:49	1335758	58dd769642b8e500017159d5	573684100	1	main_z	7	main_z	145	stimuli_target_squarediamonds.svg	stimuli_distractor_trianglediamonds.svg	4	yes	44	1	462
6.6.1	win	2022-12-29	18:38:32	19:00:49	1335758	58dd769642b8e500017159d5	573684100	1	main_z	7	advance_on_keypress_ZEE	146	stimuli_target_squarediamonds.svg	stimuli_distractor_trianglediamonds.svg	4	yes	57	0	171
6.6.1	win	2022-12-29	18:38:32	19:00:52	1338563	58dd769642b8e500017159d5	573684100	1	main_z	7	main_z	147	stimuli_distractor_diamondtriangles.svg	stimuli_distractor_diamondtriangles.svg	40	no	0	1	2000
6.6.1	win	2022-12-29	18:38:32	19:00:52	1338563	58dd769642b8e500017159d5	573684100	1	main_z	7	advance_on_keypress_ZEE	148	stimuli_distractor_diamondtriangles.svg	stimuli_distractor_diamondtriangles.svg	40	no	57	0	712
6.6.1	win	2022-12-29	18:38:32	19:00:53	1340362	58dd769642b8e500017159d5	573684100	1	main_z	7	main_z	149	stimuli_target_diamondcircles.svg	stimuli_distractor_diamondtriangles.svg	23	yes	44	1	449
6.6.1	win	2022-12-29	18:38:32	19:00:53	1340362	58dd769642b8e500017159d5	573684100	1	main_z	7	advance_on_keypress_ZEE	150	stimuli_target_diamondcircles.svg	stimuli_distractor_diamondtriangles.svg	23	yes	57	0	174
6.6.1	win	2022-12-29	18:38:32	19:00:55	1341771	58dd769642b8e500017159d5	573684100	1	main_z	7	main_z	151	stimuli_distractor_trianglediamonds.svg	stimuli_target_squarediamonds.svg	12	yes	44	1	591
6.6.1	win	2022-12-29	18:38:32	19:00:55	1341771	58dd769642b8e500017159d5	573684100	1	main_z	7	advance_on_keypress_ZEE	152	stimuli_distractor_trianglediamonds.svg	stimuli_target_squarediamonds.svg	12	yes	57	0	153
6.6.1	win	2022-12-29	18:38:32	19:00:56	1343240	58dd769642b8e500017159d5	573684100	1	main_z	7	main_z	153	stimuli_distractor_trianglediamonds.svg	stimuli_distractor_diamondtriangles.svg	36	no	44	0	676
6.6.1	win	2022-12-29	18:38:32	19:00:56	1343240	58dd769642b8e500017159d5	573684100	1	main_z	7	advance_on_keypress_ZEE	154	stimuli_distractor_trianglediamonds.svg	stimuli_distractor_diamondtriangles.svg	36	no	57	0	180
6.6.1	win	2022-12-29	18:38:32	19:00:58	1344702	58dd769642b8e500017159d5	573684100	1	main_z	7	main_z	155	stimuli_distractor_trianglediamonds.svg	stimuli_target_circletriangles.svg	9	yes	44	1	656
6.6.1	win	2022-12-29	18:38:32	19:00:58	1344702	58dd769642b8e500017159d5	573684100	1	main_z	7	advance_on_keypress_ZEE	156	stimuli_distractor_trianglediamonds.svg	stimuli_target_circletriangles.svg	9	yes	57	0	137
6.6.1	win	2022-12-29	18:38:32	19:00:59	1346171	58dd769642b8e500017159d5	573684100	1	main_z	7	main_z	157	stimuli_distractor_diamondtriangles.svg	stimuli_target_squarediamonds.svg	16	yes	44	1	691
6.6.1	win	2022-12-29	18:38:32	19:00:59	1346171	58dd769642b8e500017159d5	573684100	1	main_z	7	advance_on_keypress_ZEE	158	stimuli_distractor_diamondtriangles.svg	stimuli_target_squarediamonds.svg	16	yes	57	0	1001
6.6.1	win	2022-12-29	18:38:32	19:01:02	1348915	58dd769642b8e500017159d5	573684100	1	main_z	7	main_z	159	stimuli_target_squaretriangles.svg	stimuli_distractor_diamondtriangles.svg	7	yes	44	1	1102
6.6.1	win	2022-12-29	18:38:32	19:01:02	1348915	58dd769642b8e500017159d5	573684100	1	main_z	7	advance_on_keypress_ZEE	160	stimuli_target_squaretriangles.svg	stimuli_distractor_diamondtriangles.svg	7	yes	57	0	231
6.6.1	win	2022-12-29	18:38:32	19:01:41	1387499	58dd769642b8e500017159d5	573684100	1	practice_slash	9	practice_slash	1	stimuli_target_squarediamonds.svg	stimuli_distractor_diamondtriangles.svg	2	yes	53	1	436
6.6.1	win	2022-12-29	18:38:32	19:01:41	1387499	58dd769642b8e500017159d5	573684100	1	practice_slash	9	advance_on_keypress_SLASH	2	stimuli_target_squarediamonds.svg	stimuli_distractor_diamondtriangles.svg	2	yes	57	0	508
6.6.1	win	2022-12-29	18:38:32	19:01:43	1390269	58dd769642b8e500017159d5	573684100	1	practice_slash	9	practice_slash	3	stimuli_target_diamondsquares.svg	stimuli_distractor_trianglediamonds.svg	6	yes	53	1	622
6.6.1	win	2022-12-29	18:38:32	19:01:43	1390269	58dd769642b8e500017159d5	573684100	1	practice_slash	9	advance_on_keypress_SLASH	4	stimuli_target_diamondsquares.svg	stimuli_distractor_trianglediamonds.svg	6	yes	57	0	736
6.6.1	win	2022-12-29	18:38:32	19:01:46	1393117	58dd769642b8e500017159d5	573684100	1	practice_slash	9	practice_slash	5	stimuli_distractor_diamondtriangles.svg	stimuli_target_trianglecircles.svg	9	yes	53	1	471
6.6.1	win	2022-12-29	18:38:32	19:01:46	1393117	58dd769642b8e500017159d5	573684100	1	practice_slash	9	advance_on_keypress_SLASH	6	stimuli_distractor_diamondtriangles.svg	stimuli_target_trianglecircles.svg	9	yes	57	0	307
6.6.1	win	2022-12-29	18:38:32	19:01:49	1396371	58dd769642b8e500017159d5	573684100	1	practice_slash	9	practice_slash	7	stimuli_distractor_trianglediamonds.svg	stimuli_distractor_diamondtriangles.svg	16	no	53	0	1308
6.6.1	win	2022-12-29	18:38:32	19:01:49	1396371	58dd769642b8e500017159d5	573684100	1	practice_slash	9	advance_on_keypress_SLASH	8	stimuli_distractor_trianglediamonds.svg	stimuli_distractor_diamondtriangles.svg	16	no	57	0	695
6.6.1	win	2022-12-29	18:38:32	19:01:52	1399278	58dd769642b8e500017159d5	573684100	1	practice_slash	9	practice_slash	9	stimuli_distractor_diamondtriangles.svg	stimuli_target_diamondcircles.svg	8	yes	53	1	581
6.6.1	win	2022-12-29	18:38:32	19:01:52	1399278	58dd769642b8e500017159d5	573684100	1	practice_slash	9	advance_on_keypress_SLASH	10	stimuli_distractor_diamondtriangles.svg	stimuli_target_diamondcircles.svg	8	yes	57	0	460
6.6.1	win	2022-12-29	18:38:32	19:01:55	1401989	58dd769642b8e500017159d5	573684100	1	practice_slash	9	practice_slash	11	stimuli_target_diamondsquares.svg	stimuli_distractor_diamondtriangles.svg	3	yes	53	1	609
6.6.1	win	2022-12-29	18:38:32	19:01:55	1401989	58dd769642b8e500017159d5	573684100	1	practice_slash	9	advance_on_keypress_SLASH	12	stimuli_target_diamondsquares.svg	stimuli_distractor_diamondtriangles.svg	3	yes	57	0	828
6.6.1	win	2022-12-29	18:38:32	19:01:59	1406447	58dd769642b8e500017159d5	573684100	1	practice_slash	9	practice_slash	13	stimuli_target_circlediamonds.svg	stimuli_distractor_diamondtriangles.svg	1	yes	0	0	2000
6.6.1	win	2022-12-29	18:38:32	19:01:59	1406447	58dd769642b8e500017159d5	573684100	1	practice_slash	9	advance_on_keypress_SLASH	14	stimuli_target_circlediamonds.svg	stimuli_distractor_diamondtriangles.svg	1	yes	57	0	539
6.6.1	win	2022-12-29	18:38:32	19:02:04	1410631	58dd769642b8e500017159d5	573684100	1	practice_slash	9	practice_slash	15	stimuli_distractor_trianglediamonds.svg	stimuli_distractor_trianglediamonds.svg	15	no	0	1	2000
6.6.1	win	2022-12-29	18:38:32	19:02:04	1410631	58dd769642b8e500017159d5	573684100	1	practice_slash	9	advance_on_keypress_SLASH	16	stimuli_distractor_trianglediamonds.svg	stimuli_distractor_trianglediamonds.svg	15	no	57	0	406
6.6.1	win	2022-12-29	18:38:32	19:02:06	1413184	58dd769642b8e500017159d5	573684100	1	practice_slash	9	practice_slash	17	stimuli_distractor_trianglediamonds.svg	stimuli_target_diamondcircles.svg	12	yes	53	1	502
6.6.1	win	2022-12-29	18:38:32	19:02:06	1413184	58dd769642b8e500017159d5	573684100	1	practice_slash	9	advance_on_keypress_SLASH	18	stimuli_distractor_trianglediamonds.svg	stimuli_target_diamondcircles.svg	12	yes	57	0	394
6.6.1	win	2022-12-29	18:38:32	19:02:09	1415793	58dd769642b8e500017159d5	573684100	1	practice_slash	9	practice_slash	19	stimuli_distractor_trianglediamonds.svg	stimuli_target_circlediamonds.svg	10	yes	53	1	580
6.6.1	win	2022-12-29	18:38:32	19:02:09	1415793	58dd769642b8e500017159d5	573684100	1	practice_slash	9	advance_on_keypress_SLASH	20	stimuli_distractor_trianglediamonds.svg	stimuli_target_circlediamonds.svg	10	yes	57	0	446
6.6.1	win	2022-12-29	18:38:32	19:02:12	1418548	58dd769642b8e500017159d5	573684100	1	practice_slash	9	practice_slash	21	stimuli_distractor_trianglediamonds.svg	stimuli_target_squarediamonds.svg	11	yes	53	1	667
6.6.1	win	2022-12-29	18:38:32	19:02:12	1418548	58dd769642b8e500017159d5	573684100	1	practice_slash	9	advance_on_keypress_SLASH	22	stimuli_distractor_trianglediamonds.svg	stimuli_target_squarediamonds.svg	11	yes	57	0	481
6.6.1	win	2022-12-29	18:38:32	19:02:15	1421689	58dd769642b8e500017159d5	573684100	1	practice_slash	9	practice_slash	23	stimuli_distractor_diamondtriangles.svg	stimuli_distractor_trianglediamonds.svg	14	no	53	0	1009
6.6.1	win	2022-12-29	18:38:32	19:02:15	1421689	58dd769642b8e500017159d5	573684100	1	practice_slash	9	advance_on_keypress_SLASH	24	stimuli_distractor_diamondtriangles.svg	stimuli_distractor_trianglediamonds.svg	14	no	57	0	853
6.6.1	win	2022-12-29	18:38:32	19:02:18	1424680	58dd769642b8e500017159d5	573684100	1	practice_slash	9	practice_slash	25	stimuli_distractor_diamondtriangles.svg	stimuli_target_circletriangles.svg	7	yes	53	1	499
6.6.1	win	2022-12-29	18:38:32	19:02:18	1424680	58dd769642b8e500017159d5	573684100	1	practice_slash	9	advance_on_keypress_SLASH	26	stimuli_distractor_diamondtriangles.svg	stimuli_target_circletriangles.svg	7	yes	57	0	538
6.6.1	win	2022-12-29	18:38:32	19:02:22	1428864	58dd769642b8e500017159d5	573684100	1	practice_slash	9	practice_slash	27	stimuli_distractor_diamondtriangles.svg	stimuli_distractor_diamondtriangles.svg	13	no	0	1	2000
6.6.1	win	2022-12-29	18:38:32	19:02:22	1428864	58dd769642b8e500017159d5	573684100	1	practice_slash	9	advance_on_keypress_SLASH	28	stimuli_distractor_diamondtriangles.svg	stimuli_distractor_diamondtriangles.svg	13	no	57	0	489
6.6.1	win	2022-12-29	18:38:32	19:02:25	1431572	58dd769642b8e500017159d5	573684100	1	practice_slash	9	practice_slash	29	stimuli_target_squarediamonds.svg	stimuli_distractor_trianglediamonds.svg	5	yes	53	1	574
6.6.1	win	2022-12-29	18:38:32	19:02:25	1431572	58dd769642b8e500017159d5	573684100	1	practice_slash	9	advance_on_keypress_SLASH	30	stimuli_target_squarediamonds.svg	stimuli_distractor_trianglediamonds.svg	5	yes	57	0	400
6.6.1	win	2022-12-29	18:38:32	19:02:28	1434595	58dd769642b8e500017159d5	573684100	1	practice_slash	9	practice_slash	31	stimuli_target_circlediamonds.svg	stimuli_distractor_trianglediamonds.svg	4	yes	53	1	982
6.6.1	win	2022-12-29	18:38:32	19:02:28	1434595	58dd769642b8e500017159d5	573684100	1	practice_slash	9	advance_on_keypress_SLASH	32	stimuli_target_circlediamonds.svg	stimuli_distractor_trianglediamonds.svg	4	yes	57	0	416
6.6.1	win	2022-12-29	18:38:32	19:04:25	1552339	58dd769642b8e500017159d5	573684100	1	main_slash	11	main_slash	1	stimuli_target_circlediamonds.svg	stimuli_distractor_trianglediamonds.svg	2	yes	53	1	1725
6.6.1	win	2022-12-29	18:38:32	19:04:25	1552339	58dd769642b8e500017159d5	573684100	1	main_slash	11	advance_on_keypress_SLASH	2	stimuli_target_circlediamonds.svg	stimuli_distractor_trianglediamonds.svg	2	yes	57	0	1078
6.6.1	win	2022-12-29	18:38:32	19:04:28	1554553	58dd769642b8e500017159d5	573684100	1	main_slash	11	main_slash	3	stimuli_distractor_diamondtriangles.svg	stimuli_target_squaretriangles.svg	15	yes	53	1	506
6.6.1	win	2022-12-29	18:38:32	19:04:28	1554553	58dd769642b8e500017159d5	573684100	1	main_slash	11	advance_on_keypress_SLASH	4	stimuli_distractor_diamondtriangles.svg	stimuli_target_squaretriangles.svg	15	yes	57	0	813
6.6.1	win	2022-12-29	18:38:32	19:04:29	1556461	58dd769642b8e500017159d5	573684100	1	main_slash	11	main_slash	5	stimuli_distractor_trianglediamonds.svg	stimuli_target_squarediamonds.svg	12	yes	53	1	465
6.6.1	win	2022-12-29	18:38:32	19:04:29	1556461	58dd769642b8e500017159d5	573684100	1	main_slash	11	advance_on_keypress_SLASH	6	stimuli_distractor_trianglediamonds.svg	stimuli_target_squarediamonds.svg	12	yes	57	0	419
6.6.1	win	2022-12-29	18:38:32	19:04:33	1559530	58dd769642b8e500017159d5	573684100	1	main_slash	11	main_slash	7	stimuli_distractor_trianglediamonds.svg	stimuli_distractor_diamondtriangles.svg	35	no	0	1	2000
6.6.1	win	2022-12-29	18:38:32	19:04:33	1559530	58dd769642b8e500017159d5	573684100	1	main_slash	11	advance_on_keypress_SLASH	8	stimuli_distractor_trianglediamonds.svg	stimuli_distractor_diamondtriangles.svg	35	no	57	0	302
6.6.1	win	2022-12-29	18:38:32	19:04:34	1560979	58dd769642b8e500017159d5	573684100	1	main_slash	11	main_slash	9	stimuli_distractor_trianglediamonds.svg	stimuli_target_diamondcircles.svg	27	yes	53	1	499
6.6.1	win	2022-12-29	18:38:32	19:04:34	1560979	58dd769642b8e500017159d5	573684100	1	main_slash	11	advance_on_keypress_SLASH	10	stimuli_distractor_trianglediamonds.svg	stimuli_target_diamondcircles.svg	27	yes	57	0	522
6.6.1	win	2022-12-29	18:38:32	19:04:36	1562721	58dd769642b8e500017159d5	573684100	1	main_slash	11	main_slash	11	stimuli_distractor_diamondtriangles.svg	stimuli_target_trianglesquares.svg	30	yes	53	1	574
6.6.1	win	2022-12-29	18:38:32	19:04:36	1562721	58dd769642b8e500017159d5	573684100	1	main_slash	11	advance_on_keypress_SLASH	12	stimuli_distractor_diamondtriangles.svg	stimuli_target_trianglesquares.svg	30	yes	57	0	256
6.6.1	win	2022-12-29	18:38:32	19:04:39	1565613	58dd769642b8e500017159d5	573684100	1	main_slash	11	main_slash	13	stimuli_target_circletriangles.svg	stimuli_distractor_trianglediamonds.svg	1	yes	0	0	2000
6.6.1	win	2022-12-29	18:38:32	19:04:39	1565613	58dd769642b8e500017159d5	573684100	1	main_slash	11	advance_on_keypress_SLASH	14	stimuli_target_circletriangles.svg	stimuli_distractor_trianglediamonds.svg	1	yes	57	0	771
6.6.1	win	2022-12-29	18:38:32	19:04:41	1567662	58dd769642b8e500017159d5	573684100	1	main_slash	11	main_slash	15	stimuli_distractor_trianglediamonds.svg	stimuli_distractor_trianglediamonds.svg	34	no	53	0	632
6.6.1	win	2022-12-29	18:38:32	19:04:41	1567662	58dd769642b8e500017159d5	573684100	1	main_slash	11	advance_on_keypress_SLASH	16	stimuli_distractor_trianglediamonds.svg	stimuli_distractor_trianglediamonds.svg	34	no	57	0	335
6.6.1	win	2022-12-29	18:38:32	19:04:42	1569336	58dd769642b8e500017159d5	573684100	1	main_slash	11	main_slash	17	stimuli_target_diamondcircles.svg	stimuli_distractor_trianglediamonds.svg	19	yes	53	1	689
6.6.1	win	2022-12-29	18:38:32	19:04:42	1569336	58dd769642b8e500017159d5	573684100	1	main_slash	11	advance_on_keypress_SLASH	18	stimuli_target_diamondcircles.svg	stimuli_distractor_trianglediamonds.svg	19	yes	57	0	382
6.6.1	win	2022-12-29	18:38:32	19:04:44	1571079	58dd769642b8e500017159d5	573684100	1	main_slash	11	main_slash	19	stimuli_target_squarediamonds.svg	stimuli_distractor_trianglediamonds.svg	4	yes	53	1	716
6.6.1	win	2022-12-29	18:38:32	19:04:44	1571079	58dd769642b8e500017159d5	573684100	1	main_slash	11	advance_on_keypress_SLASH	20	stimuli_target_squarediamonds.svg	stimuli_distractor_trianglediamonds.svg	4	yes	57	0	306
6.6.1	win	2022-12-29	18:38:32	19:04:46	1572561	58dd769642b8e500017159d5	573684100	1	main_slash	11	main_slash	21	stimuli_target_circlediamonds.svg	stimuli_distractor_diamondtriangles.svg	6	yes	53	1	531
6.6.1	win	2022-12-29	18:38:32	19:04:46	1572561	58dd769642b8e500017159d5	573684100	1	main_slash	11	advance_on_keypress_SLASH	22	stimuli_target_circlediamonds.svg	stimuli_distractor_diamondtriangles.svg	6	yes	57	0	293
6.6.1	win	2022-12-29	18:38:32	19:04:47	1574029	58dd769642b8e500017159d5	573684100	1	main_slash	11	main_slash	23	stimuli_distractor_diamondtriangles.svg	stimuli_target_squarediamonds.svg	16	yes	53	1	550
6.6.1	win	2022-12-29	18:38:32	19:04:47	1574029	58dd769642b8e500017159d5	573684100	1	main_slash	11	advance_on_keypress_SLASH	24	stimuli_distractor_diamondtriangles.svg	stimuli_target_squarediamonds.svg	16	yes	57	0	262
6.6.1	win	2022-12-29	18:38:32	19:04:49	1575729	58dd769642b8e500017159d5	573684100	1	main_slash	11	main_slash	25	stimuli_distractor_trianglediamonds.svg	stimuli_target_trianglesquares.svg	26	yes	53	1	799
6.6.1	win	2022-12-29	18:38:32	19:04:49	1575729	58dd769642b8e500017159d5	573684100	1	main_slash	11	advance_on_keypress_SLASH	26	stimuli_distractor_trianglediamonds.svg	stimuli_target_trianglesquares.svg	26	yes	57	0	247
6.6.1	win	2022-12-29	18:38:32	19:04:50	1577167	58dd769642b8e500017159d5	573684100	1	main_slash	11	main_slash	27	stimuli_target_trianglesquares.svg	stimuli_distractor_trianglediamonds.svg	18	yes	53	1	553
6.6.1	win	2022-12-29	18:38:32	19:04:50	1577167	58dd769642b8e500017159d5	573684100	1	main_slash	11	advance_on_keypress_SLASH	28	stimuli_target_trianglesquares.svg	stimuli_distractor_trianglediamonds.svg	18	yes	57	0	267
6.6.1	win	2022-12-29	18:38:32	19:04:53	1580081	58dd769642b8e500017159d5	573684100	1	main_slash	11	main_slash	29	stimuli_distractor_diamondtriangles.svg	stimuli_distractor_diamondtriangles.svg	40	no	0	1	2000
6.6.1	win	2022-12-29	18:38:32	19:04:53	1580081	58dd769642b8e500017159d5	573684100	1	main_slash	11	advance_on_keypress_SLASH	30	stimuli_distractor_diamondtriangles.svg	stimuli_distractor_diamondtriangles.svg	40	no	57	0	472
6.6.1	win	2022-12-29	18:38:32	19:04:55	1581742	58dd769642b8e500017159d5	573684100	1	main_slash	11	main_slash	31	stimuli_distractor_diamondtriangles.svg	stimuli_target_trianglecircles.svg	29	yes	53	1	545
6.6.1	win	2022-12-29	18:38:32	19:04:55	1581742	58dd769642b8e500017159d5	573684100	1	main_slash	11	advance_on_keypress_SLASH	32	stimuli_distractor_diamondtriangles.svg	stimuli_target_trianglecircles.svg	29	yes	57	0	231
6.6.1	win	2022-12-29	18:38:32	19:04:58	1584598	58dd769642b8e500017159d5	573684100	1	main_slash	11	main_slash	33	stimuli_distractor_trianglediamonds.svg	stimuli_distractor_diamondtriangles.svg	36	no	0	1	2000
6.6.1	win	2022-12-29	18:38:32	19:04:58	1584598	58dd769642b8e500017159d5	573684100	1	main_slash	11	advance_on_keypress_SLASH	34	stimuli_distractor_trianglediamonds.svg	stimuli_distractor_diamondtriangles.svg	36	no	57	0	412
6.6.1	win	2022-12-29	18:38:32	19:05:01	1587647	58dd769642b8e500017159d5	573684100	1	main_slash	11	main_slash	35	stimuli_distractor_diamondtriangles.svg	stimuli_distractor_diamondtriangles.svg	39	no	0	1	2000
6.6.1	win	2022-12-29	18:38:32	19:05:01	1587647	58dd769642b8e500017159d5	573684100	1	main_slash	11	advance_on_keypress_SLASH	36	stimuli_distractor_diamondtriangles.svg	stimuli_distractor_diamondtriangles.svg	39	no	57	0	252
6.6.1	win	2022-12-29	18:38:32	19:05:02	1589074	58dd769642b8e500017159d5	573684100	1	main_slash	11	main_slash	37	stimuli_target_trianglecircles.svg	stimuli_distractor_diamondtriangles.svg	21	yes	53	1	527
6.6.1	win	2022-12-29	18:38:32	19:05:02	1589074	58dd769642b8e500017159d5	573684100	1	main_slash	11	advance_on_keypress_SLASH	38	stimuli_target_trianglecircles.svg	stimuli_distractor_diamondtriangles.svg	21	yes	57	0	362
6.6.1	win	2022-12-29	18:38:32	19:05:04	1590807	58dd769642b8e500017159d5	573684100	1	main_slash	11	main_slash	39	stimuli_distractor_diamondtriangles.svg	stimuli_target_circletriangles.svg	13	yes	53	1	744
6.6.1	win	2022-12-29	18:38:32	19:05:04	1590807	58dd769642b8e500017159d5	573684100	1	main_slash	11	advance_on_keypress_SLASH	40	stimuli_distractor_diamondtriangles.svg	stimuli_target_circletriangles.svg	13	yes	57	0	284
6.6.1	win	2022-12-29	18:38:32	19:05:05	1592300	58dd769642b8e500017159d5	573684100	1	main_slash	11	main_slash	41	stimuli_target_diamondcircles.svg	stimuli_distractor_diamondtriangles.svg	23	yes	53	1	570
6.6.1	win	2022-12-29	18:38:32	19:05:05	1592300	58dd769642b8e500017159d5	573684100	1	main_slash	11	advance_on_keypress_SLASH	42	stimuli_target_diamondcircles.svg	stimuli_distractor_diamondtriangles.svg	23	yes	57	0	207
6.6.1	win	2022-12-29	18:38:32	19:05:07	1593664	58dd769642b8e500017159d5	573684100	1	main_slash	11	main_slash	43	stimuli_distractor_trianglediamonds.svg	stimuli_target_trianglecircles.svg	25	yes	53	1	517
6.6.1	win	2022-12-29	18:38:32	19:05:07	1593664	58dd769642b8e500017159d5	573684100	1	main_slash	11	advance_on_keypress_SLASH	44	stimuli_distractor_trianglediamonds.svg	stimuli_target_trianglecircles.svg	25	yes	57	0	190
6.6.1	win	2022-12-29	18:38:32	19:05:08	1594954	58dd769642b8e500017159d5	573684100	1	main_slash	11	main_slash	45	stimuli_target_trianglesquares.svg	stimuli_distractor_diamondtriangles.svg	22	yes	53	1	457
6.6.1	win	2022-12-29	18:38:32	19:05:08	1594954	58dd769642b8e500017159d5	573684100	1	main_slash	11	advance_on_keypress_SLASH	46	stimuli_target_trianglesquares.svg	stimuli_distractor_diamondtriangles.svg	22	yes	57	0	240
6.6.1	win	2022-12-29	18:38:32	19:05:09	1596274	58dd769642b8e500017159d5	573684100	1	main_slash	11	main_slash	47	stimuli_target_trianglecircles.svg	stimuli_distractor_trianglediamonds.svg	17	yes	53	1	444
6.6.1	win	2022-12-29	18:38:32	19:05:09	1596274	58dd769642b8e500017159d5	573684100	1	main_slash	11	advance_on_keypress_SLASH	48	stimuli_target_trianglecircles.svg	stimuli_distractor_trianglediamonds.svg	17	yes	57	0	200
6.6.1	win	2022-12-29	18:38:32	19:05:11	1597638	58dd769642b8e500017159d5	573684100	1	main_slash	11	main_slash	49	stimuli_target_squarediamonds.svg	stimuli_distractor_diamondtriangles.svg	8	yes	53	1	524
6.6.1	win	2022-12-29	18:38:32	19:05:11	1597638	58dd769642b8e500017159d5	573684100	1	main_slash	11	advance_on_keypress_SLASH	50	stimuli_target_squarediamonds.svg	stimuli_distractor_diamondtriangles.svg	8	yes	57	0	222
6.6.1	win	2022-12-29	18:38:32	19:05:12	1598885	58dd769642b8e500017159d5	573684100	1	main_slash	11	main_slash	51	stimuli_distractor_trianglediamonds.svg	stimuli_target_circletriangles.svg	9	yes	53	1	389
6.6.1	win	2022-12-29	18:38:32	19:05:12	1598885	58dd769642b8e500017159d5	573684100	1	main_slash	11	advance_on_keypress_SLASH	52	stimuli_distractor_trianglediamonds.svg	stimuli_target_circletriangles.svg	9	yes	57	0	219
6.6.1	win	2022-12-29	18:38:32	19:05:13	1600131	58dd769642b8e500017159d5	573684100	1	main_slash	11	main_slash	53	stimuli_distractor_diamondtriangles.svg	stimuli_target_circlediamonds.svg	14	yes	53	1	370
6.6.1	win	2022-12-29	18:38:32	19:05:13	1600131	58dd769642b8e500017159d5	573684100	1	main_slash	11	advance_on_keypress_SLASH	54	stimuli_distractor_diamondtriangles.svg	stimuli_target_circlediamonds.svg	14	yes	57	0	128
6.6.1	win	2022-12-29	18:38:32	19:05:14	1601334	58dd769642b8e500017159d5	573684100	1	main_slash	11	main_slash	55	stimuli_distractor_trianglediamonds.svg	stimuli_target_diamondsquares.svg	28	yes	53	1	437
6.6.1	win	2022-12-29	18:38:32	19:05:14	1601334	58dd769642b8e500017159d5	573684100	1	main_slash	11	advance_on_keypress_SLASH	56	stimuli_distractor_trianglediamonds.svg	stimuli_target_diamondsquares.svg	28	yes	57	0	130
6.6.1	win	2022-12-29	18:38:32	19:05:15	1602481	58dd769642b8e500017159d5	573684100	1	main_slash	11	main_slash	57	stimuli_distractor_trianglediamonds.svg	stimuli_target_circlediamonds.svg	10	yes	53	1	380
6.6.1	win	2022-12-29	18:38:32	19:05:15	1602481	58dd769642b8e500017159d5	573684100	1	main_slash	11	advance_on_keypress_SLASH	58	stimuli_distractor_trianglediamonds.svg	stimuli_target_circlediamonds.svg	10	yes	57	0	138
6.6.1	win	2022-12-29	18:38:32	19:05:17	1603695	58dd769642b8e500017159d5	573684100	1	main_slash	11	main_slash	59	stimuli_target_squaretriangles.svg	stimuli_distractor_trianglediamonds.svg	3	yes	53	1	431
6.6.1	win	2022-12-29	18:38:32	19:05:17	1603695	58dd769642b8e500017159d5	573684100	1	main_slash	11	advance_on_keypress_SLASH	60	stimuli_target_squaretriangles.svg	stimuli_distractor_trianglediamonds.svg	3	yes	57	0	138
6.6.1	win	2022-12-29	18:38:32	19:05:18	1604823	58dd769642b8e500017159d5	573684100	1	main_slash	11	main_slash	61	stimuli_distractor_diamondtriangles.svg	stimuli_target_diamondcircles.svg	31	yes	53	1	343
6.6.1	win	2022-12-29	18:38:32	19:05:18	1604823	58dd769642b8e500017159d5	573684100	1	main_slash	11	advance_on_keypress_SLASH	62	stimuli_distractor_diamondtriangles.svg	stimuli_target_diamondcircles.svg	31	yes	57	0	254
6.6.1	win	2022-12-29	18:38:32	19:05:19	1606097	58dd769642b8e500017159d5	573684100	1	main_slash	11	main_slash	63	stimuli_distractor_diamondtriangles.svg	stimuli_distractor_trianglediamonds.svg	38	no	53	0	381
6.6.1	win	2022-12-29	18:38:32	19:05:19	1606097	58dd769642b8e500017159d5	573684100	1	main_slash	11	advance_on_keypress_SLASH	64	stimuli_distractor_diamondtriangles.svg	stimuli_distractor_trianglediamonds.svg	38	no	57	0	217
6.6.1	win	2022-12-29	18:38:32	19:05:21	1608033	58dd769642b8e500017159d5	573684100	1	main_slash	11	main_slash	65	stimuli_target_circletriangles.svg	stimuli_distractor_diamondtriangles.svg	5	yes	53	1	1070
6.6.1	win	2022-12-29	18:38:32	19:05:21	1608033	58dd769642b8e500017159d5	573684100	1	main_slash	11	advance_on_keypress_SLASH	66	stimuli_target_circletriangles.svg	stimuli_distractor_diamondtriangles.svg	5	yes	57	0	148
6.6.1	win	2022-12-29	18:38:32	19:05:22	1609368	58dd769642b8e500017159d5	573684100	1	main_slash	11	main_slash	67	stimuli_distractor_trianglediamonds.svg	stimuli_target_squaretriangles.svg	11	yes	53	1	538
6.6.1	win	2022-12-29	18:38:32	19:05:22	1609368	58dd769642b8e500017159d5	573684100	1	main_slash	11	advance_on_keypress_SLASH	68	stimuli_distractor_trianglediamonds.svg	stimuli_target_squaretriangles.svg	11	yes	57	0	150
6.6.1	win	2022-12-29	18:38:32	19:05:24	1611465	58dd769642b8e500017159d5	573684100	1	main_slash	11	main_slash	69	stimuli_target_diamondsquares.svg	stimuli_distractor_trianglediamonds.svg	20	yes	53	1	1300
6.6.1	win	2022-12-29	18:38:32	19:05:24	1611465	58dd769642b8e500017159d5	573684100	1	main_slash	11	advance_on_keypress_SLASH	70	stimuli_target_diamondsquares.svg	stimuli_distractor_trianglediamonds.svg	20	yes	57	0	146
6.6.1	win	2022-12-29	18:38:32	19:05:26	1612799	58dd769642b8e500017159d5	573684100	1	main_slash	11	main_slash	71	stimuli_distractor_diamondtriangles.svg	stimuli_target_diamondsquares.svg	32	yes	53	1	551
6.6.1	win	2022-12-29	18:38:32	19:05:26	1612799	58dd769642b8e500017159d5	573684100	1	main_slash	11	advance_on_keypress_SLASH	72	stimuli_distractor_diamondtriangles.svg	stimuli_target_diamondsquares.svg	32	yes	57	0	131
6.6.1	win	2022-12-29	18:38:32	19:05:27	1614393	58dd769642b8e500017159d5	573684100	1	main_slash	11	main_slash	73	stimuli_target_diamondsquares.svg	stimuli_distractor_diamondtriangles.svg	24	yes	53	1	813
6.6.1	win	2022-12-29	18:38:32	19:05:27	1614393	58dd769642b8e500017159d5	573684100	1	main_slash	11	advance_on_keypress_SLASH	74	stimuli_target_diamondsquares.svg	stimuli_distractor_diamondtriangles.svg	24	yes	57	0	129
6.6.1	win	2022-12-29	18:38:32	19:05:29	1615639	58dd769642b8e500017159d5	573684100	1	main_slash	11	main_slash	75	stimuli_target_squaretriangles.svg	stimuli_distractor_diamondtriangles.svg	7	yes	53	1	492
6.6.1	win	2022-12-29	18:38:32	19:05:29	1615639	58dd769642b8e500017159d5	573684100	1	main_slash	11	advance_on_keypress_SLASH	76	stimuli_target_squaretriangles.svg	stimuli_distractor_diamondtriangles.svg	7	yes	57	0	184
6.6.1	win	2022-12-29	18:38:32	19:05:31	1618464	58dd769642b8e500017159d5	573684100	1	main_slash	11	main_slash	77	stimuli_distractor_trianglediamonds.svg	stimuli_distractor_trianglediamonds.svg	33	no	0	1	2000
6.6.1	win	2022-12-29	18:38:32	19:05:31	1618464	58dd769642b8e500017159d5	573684100	1	main_slash	11	advance_on_keypress_SLASH	78	stimuli_distractor_trianglediamonds.svg	stimuli_distractor_trianglediamonds.svg	33	no	57	0	620
6.6.1	win	2022-12-29	18:38:32	19:05:35	1621731	58dd769642b8e500017159d5	573684100	1	main_slash	11	main_slash	79	stimuli_distractor_diamondtriangles.svg	stimuli_distractor_trianglediamonds.svg	37	no	0	1	2000
6.6.1	win	2022-12-29	18:38:32	19:05:35	1621731	58dd769642b8e500017159d5	573684100	1	main_slash	11	advance_on_keypress_SLASH	80	stimuli_distractor_diamondtriangles.svg	stimuli_distractor_trianglediamonds.svg	37	no	57	0	316
6.6.1	win	2022-12-29	18:38:32	19:05:36	1623117	58dd769642b8e500017159d5	573684100	1	main_slash	11	main_slash	81	stimuli_distractor_trianglediamonds.svg	stimuli_target_diamondcircles.svg	27	yes	53	1	420
6.6.1	win	2022-12-29	18:38:32	19:05:36	1623117	58dd769642b8e500017159d5	573684100	1	main_slash	11	advance_on_keypress_SLASH	82	stimuli_distractor_trianglediamonds.svg	stimuli_target_diamondcircles.svg	27	yes	57	0	149
6.6.1	win	2022-12-29	18:38:32	19:05:37	1624306	58dd769642b8e500017159d5	573684100	1	main_slash	11	main_slash	83	stimuli_target_diamondcircles.svg	stimuli_distractor_trianglediamonds.svg	19	yes	53	1	392
6.6.1	win	2022-12-29	18:38:32	19:05:37	1624306	58dd769642b8e500017159d5	573684100	1	main_slash	11	advance_on_keypress_SLASH	84	stimuli_target_diamondcircles.svg	stimuli_distractor_trianglediamonds.svg	19	yes	57	0	123
6.6.1	win	2022-12-29	18:38:32	19:05:39	1625552	58dd769642b8e500017159d5	573684100	1	main_slash	11	main_slash	85	stimuli_distractor_trianglediamonds.svg	stimuli_target_squaretriangles.svg	11	yes	53	1	487
6.6.1	win	2022-12-29	18:38:32	19:05:39	1625552	58dd769642b8e500017159d5	573684100	1	main_slash	11	advance_on_keypress_SLASH	86	stimuli_distractor_trianglediamonds.svg	stimuli_target_squaretriangles.svg	11	yes	57	0	120
6.6.1	win	2022-12-29	18:38:32	19:05:40	1626709	58dd769642b8e500017159d5	573684100	1	main_slash	11	main_slash	87	stimuli_target_squarediamonds.svg	stimuli_distractor_trianglediamonds.svg	4	yes	53	1	396
6.6.1	win	2022-12-29	18:38:32	19:05:40	1626709	58dd769642b8e500017159d5	573684100	1	main_slash	11	advance_on_keypress_SLASH	88	stimuli_target_squarediamonds.svg	stimuli_distractor_trianglediamonds.svg	4	yes	57	0	187
6.6.1	win	2022-12-29	18:38:32	19:05:41	1628000	58dd769642b8e500017159d5	573684100	1	main_slash	11	main_slash	89	stimuli_distractor_diamondtriangles.svg	stimuli_target_trianglesquares.svg	30	yes	53	1	470
6.6.1	win	2022-12-29	18:38:32	19:05:41	1628000	58dd769642b8e500017159d5	573684100	1	main_slash	11	advance_on_keypress_SLASH	90	stimuli_distractor_diamondtriangles.svg	stimuli_target_trianglesquares.svg	30	yes	57	0	133
6.6.1	win	2022-12-29	18:38:32	19:05:42	1629276	58dd769642b8e500017159d5	573684100	1	main_slash	11	main_slash	91	stimuli_target_circletriangles.svg	stimuli_distractor_diamondtriangles.svg	5	yes	53	1	496
6.6.1	win	2022-12-29	18:38:32	19:05:42	1629276	58dd769642b8e500017159d5	573684100	1	main_slash	11	advance_on_keypress_SLASH	92	stimuli_target_circletriangles.svg	stimuli_distractor_diamondtriangles.svg	5	yes	57	0	157
6.6.1	win	2022-12-29	18:38:32	19:05:44	1630537	58dd769642b8e500017159d5	573684100	1	main_slash	11	main_slash	93	stimuli_distractor_diamondtriangles.svg	stimuli_target_diamondsquares.svg	32	yes	53	1	473
6.6.1	win	2022-12-29	18:38:32	19:05:44	1630537	58dd769642b8e500017159d5	573684100	1	main_slash	11	advance_on_keypress_SLASH	94	stimuli_distractor_diamondtriangles.svg	stimuli_target_diamondsquares.svg	32	yes	57	0	177
6.6.1	win	2022-12-29	18:38:32	19:05:45	1631739	58dd769642b8e500017159d5	573684100	1	main_slash	11	main_slash	95	stimuli_target_diamondcircles.svg	stimuli_distractor_diamondtriangles.svg	23	yes	53	1	392
6.6.1	win	2022-12-29	18:38:32	19:05:45	1631739	58dd769642b8e500017159d5	573684100	1	main_slash	11	advance_on_keypress_SLASH	96	stimuli_target_diamondcircles.svg	stimuli_distractor_diamondtriangles.svg	23	yes	57	0	150
6.6.1	win	2022-12-29	18:38:32	19:05:46	1633084	58dd769642b8e500017159d5	573684100	1	main_slash	11	main_slash	97	stimuli_distractor_trianglediamonds.svg	stimuli_target_circletriangles.svg	9	yes	53	1	554
6.6.1	win	2022-12-29	18:38:32	19:05:46	1633084	58dd769642b8e500017159d5	573684100	1	main_slash	11	advance_on_keypress_SLASH	98	stimuli_distractor_trianglediamonds.svg	stimuli_target_circletriangles.svg	9	yes	57	0	119
6.6.1	win	2022-12-29	18:38:32	19:05:47	1634272	58dd769642b8e500017159d5	573684100	1	main_slash	11	main_slash	99	stimuli_distractor_trianglediamonds.svg	stimuli_distractor_diamondtriangles.svg	36	no	53	0	425
6.6.1	win	2022-12-29	18:38:32	19:05:47	1634272	58dd769642b8e500017159d5	573684100	1	main_slash	11	advance_on_keypress_SLASH	100	stimuli_distractor_trianglediamonds.svg	stimuli_distractor_diamondtriangles.svg	36	no	57	0	184
6.6.1	win	2022-12-29	18:38:32	19:05:50	1637097	58dd769642b8e500017159d5	573684100	1	main_slash	11	main_slash	101	stimuli_distractor_diamondtriangles.svg	stimuli_distractor_diamondtriangles.svg	40	no	0	1	2000
6.6.1	win	2022-12-29	18:38:32	19:05:50	1637097	58dd769642b8e500017159d5	573684100	1	main_slash	11	advance_on_keypress_SLASH	102	stimuli_distractor_diamondtriangles.svg	stimuli_distractor_diamondtriangles.svg	40	no	57	0	1662
6.6.1	win	2022-12-29	18:38:32	19:05:53	1639860	58dd769642b8e500017159d5	573684100	1	main_slash	11	main_slash	103	stimuli_target_squaretriangles.svg	stimuli_distractor_trianglediamonds.svg	3	yes	53	1	463
6.6.1	win	2022-12-29	18:38:32	19:05:53	1639860	58dd769642b8e500017159d5	573684100	1	main_slash	11	advance_on_keypress_SLASH	104	stimuli_target_squaretriangles.svg	stimuli_distractor_trianglediamonds.svg	3	yes	57	0	173
6.6.1	win	2022-12-29	18:38:32	19:05:54	1641264	58dd769642b8e500017159d5	573684100	1	main_slash	11	main_slash	105	stimuli_target_circlediamonds.svg	stimuli_distractor_diamondtriangles.svg	6	yes	53	1	600
6.6.1	win	2022-12-29	18:38:32	19:05:54	1641264	58dd769642b8e500017159d5	573684100	1	main_slash	11	advance_on_keypress_SLASH	106	stimuli_target_circlediamonds.svg	stimuli_distractor_diamondtriangles.svg	6	yes	57	0	146
6.6.1	win	2022-12-29	18:38:32	19:05:56	1642496	58dd769642b8e500017159d5	573684100	1	main_slash	11	main_slash	107	stimuli_distractor_diamondtriangles.svg	stimuli_target_diamondcircles.svg	31	yes	53	1	449
6.6.1	win	2022-12-29	18:38:32	19:05:56	1642496	58dd769642b8e500017159d5	573684100	1	main_slash	11	advance_on_keypress_SLASH	108	stimuli_distractor_diamondtriangles.svg	stimuli_target_diamondcircles.svg	31	yes	57	0	129
6.6.1	win	2022-12-29	18:38:32	19:05:57	1643860	58dd769642b8e500017159d5	573684100	1	main_slash	11	main_slash	109	stimuli_distractor_diamondtriangles.svg	stimuli_distractor_trianglediamonds.svg	38	no	53	0	595
6.6.1	win	2022-12-29	18:38:32	19:05:57	1643860	58dd769642b8e500017159d5	573684100	1	main_slash	11	advance_on_keypress_SLASH	110	stimuli_distractor_diamondtriangles.svg	stimuli_distractor_trianglediamonds.svg	38	no	57	0	201
6.6.1	win	2022-12-29	18:38:32	19:05:58	1645458	58dd769642b8e500017159d5	573684100	1	main_slash	11	main_slash	111	stimuli_distractor_diamondtriangles.svg	stimuli_target_squarediamonds.svg	16	yes	53	1	762
6.6.1	win	2022-12-29	18:38:32	19:05:58	1645458	58dd769642b8e500017159d5	573684100	1	main_slash	11	advance_on_keypress_SLASH	112	stimuli_distractor_diamondtriangles.svg	stimuli_target_squarediamonds.svg	16	yes	57	0	143
6.6.1	win	2022-12-29	18:38:32	19:06:01	1648231	58dd769642b8e500017159d5	573684100	1	main_slash	11	main_slash	113	stimuli_distractor_trianglediamonds.svg	stimuli_distractor_diamondtriangles.svg	35	no	0	1	2000
6.6.1	win	2022-12-29	18:38:32	19:06:01	1648231	58dd769642b8e500017159d5	573684100	1	main_slash	11	advance_on_keypress_SLASH	114	stimuli_distractor_trianglediamonds.svg	stimuli_distractor_diamondtriangles.svg	35	no	57	0	759
6.6.1	win	2022-12-29	18:38:32	19:06:03	1650194	58dd769642b8e500017159d5	573684100	1	main_slash	11	main_slash	115	stimuli_target_trianglesquares.svg	stimuli_distractor_trianglediamonds.svg	18	yes	53	1	564
6.6.1	win	2022-12-29	18:38:32	19:06:03	1650194	58dd769642b8e500017159d5	573684100	1	main_slash	11	advance_on_keypress_SLASH	116	stimuli_target_trianglesquares.svg	stimuli_distractor_trianglediamonds.svg	18	yes	57	0	144
6.6.1	win	2022-12-29	18:38:32	19:06:04	1651454	58dd769642b8e500017159d5	573684100	1	main_slash	11	main_slash	117	stimuli_target_trianglesquares.svg	stimuli_distractor_diamondtriangles.svg	22	yes	53	1	490
6.6.1	win	2022-12-29	18:38:32	19:06:04	1651454	58dd769642b8e500017159d5	573684100	1	main_slash	11	advance_on_keypress_SLASH	118	stimuli_target_trianglesquares.svg	stimuli_distractor_diamondtriangles.svg	22	yes	57	0	182
6.6.1	win	2022-12-29	18:38:32	19:06:07	1654281	58dd769642b8e500017159d5	573684100	1	main_slash	11	main_slash	119	stimuli_distractor_trianglediamonds.svg	stimuli_distractor_trianglediamonds.svg	34	no	0	1	2000
6.6.1	win	2022-12-29	18:38:32	19:06:07	1654281	58dd769642b8e500017159d5	573684100	1	main_slash	11	advance_on_keypress_SLASH	120	stimuli_distractor_trianglediamonds.svg	stimuli_distractor_trianglediamonds.svg	34	no	57	0	500
6.6.1	win	2022-12-29	18:38:32	19:06:09	1655867	58dd769642b8e500017159d5	573684100	1	main_slash	11	main_slash	121	stimuli_distractor_diamondtriangles.svg	stimuli_target_squaretriangles.svg	15	yes	53	1	436
6.6.1	win	2022-12-29	18:38:32	19:06:09	1655867	58dd769642b8e500017159d5	573684100	1	main_slash	11	advance_on_keypress_SLASH	122	stimuli_distractor_diamondtriangles.svg	stimuli_target_squaretriangles.svg	15	yes	57	0	134
6.6.1	win	2022-12-29	18:38:32	19:06:10	1657069	58dd769642b8e500017159d5	573684100	1	main_slash	11	main_slash	123	stimuli_distractor_diamondtriangles.svg	stimuli_target_circlediamonds.svg	14	yes	53	1	422
6.6.1	win	2022-12-29	18:38:32	19:06:10	1657069	58dd769642b8e500017159d5	573684100	1	main_slash	11	advance_on_keypress_SLASH	124	stimuli_distractor_diamondtriangles.svg	stimuli_target_circlediamonds.svg	14	yes	57	0	150
6.6.1	win	2022-12-29	18:38:32	19:06:11	1658271	58dd769642b8e500017159d5	573684100	1	main_slash	11	main_slash	125	stimuli_target_circlediamonds.svg	stimuli_distractor_trianglediamonds.svg	2	yes	53	1	407
6.6.1	win	2022-12-29	18:38:32	19:06:11	1658271	58dd769642b8e500017159d5	573684100	1	main_slash	11	advance_on_keypress_SLASH	126	stimuli_target_circlediamonds.svg	stimuli_distractor_trianglediamonds.svg	2	yes	57	0	167
6.6.1	win	2022-12-29	18:38:32	19:06:13	1659546	58dd769642b8e500017159d5	573684100	1	main_slash	11	main_slash	127	stimuli_distractor_trianglediamonds.svg	stimuli_target_squarediamonds.svg	12	yes	53	1	466
6.6.1	win	2022-12-29	18:38:32	19:06:13	1659546	58dd769642b8e500017159d5	573684100	1	main_slash	11	advance_on_keypress_SLASH	128	stimuli_distractor_trianglediamonds.svg	stimuli_target_squarediamonds.svg	12	yes	57	0	115
6.6.1	win	2022-12-29	18:38:32	19:06:14	1660719	58dd769642b8e500017159d5	573684100	1	main_slash	11	main_slash	129	stimuli_target_trianglecircles.svg	stimuli_distractor_trianglediamonds.svg	17	yes	53	1	405
6.6.1	win	2022-12-29	18:38:32	19:06:14	1660719	58dd769642b8e500017159d5	573684100	1	main_slash	11	advance_on_keypress_SLASH	130	stimuli_target_trianglecircles.svg	stimuli_distractor_trianglediamonds.svg	17	yes	57	0	166
6.6.1	win	2022-12-29	18:38:32	19:06:16	1662874	58dd769642b8e500017159d5	573684100	1	main_slash	11	main_slash	131	stimuli_target_diamondsquares.svg	stimuli_distractor_trianglediamonds.svg	20	yes	53	1	1342
6.6.1	win	2022-12-29	18:38:32	19:06:16	1662874	58dd769642b8e500017159d5	573684100	1	main_slash	11	advance_on_keypress_SLASH	132	stimuli_target_diamondsquares.svg	stimuli_distractor_trianglediamonds.svg	20	yes	57	0	112
6.6.1	win	2022-12-29	18:38:32	19:06:19	1665614	58dd769642b8e500017159d5	573684100	1	main_slash	11	main_slash	133	stimuli_distractor_trianglediamonds.svg	stimuli_distractor_trianglediamonds.svg	33	no	0	1	2000
6.6.1	win	2022-12-29	18:38:32	19:06:19	1665614	58dd769642b8e500017159d5	573684100	1	main_slash	11	advance_on_keypress_SLASH	134	stimuli_distractor_trianglediamonds.svg	stimuli_distractor_trianglediamonds.svg	33	no	57	0	819
6.6.1	win	2022-12-29	18:38:32	19:06:21	1667579	58dd769642b8e500017159d5	573684100	1	main_slash	11	main_slash	135	stimuli_target_circletriangles.svg	stimuli_distractor_trianglediamonds.svg	1	yes	53	1	498
6.6.1	win	2022-12-29	18:38:32	19:06:21	1667579	58dd769642b8e500017159d5	573684100	1	main_slash	11	advance_on_keypress_SLASH	136	stimuli_target_circletriangles.svg	stimuli_distractor_trianglediamonds.svg	1	yes	57	0	129
6.6.1	win	2022-12-29	18:38:32	19:06:22	1668825	58dd769642b8e500017159d5	573684100	1	main_slash	11	main_slash	137	stimuli_target_trianglecircles.svg	stimuli_distractor_diamondtriangles.svg	21	yes	53	1	478
6.6.1	win	2022-12-29	18:38:32	19:06:22	1668825	58dd769642b8e500017159d5	573684100	1	main_slash	11	advance_on_keypress_SLASH	138	stimuli_target_trianglecircles.svg	stimuli_distractor_diamondtriangles.svg	21	yes	57	0	144
6.6.1	win	2022-12-29	18:38:32	19:06:25	1671597	58dd769642b8e500017159d5	573684100	1	main_slash	11	main_slash	139	stimuli_distractor_diamondtriangles.svg	stimuli_distractor_trianglediamonds.svg	37	no	0	1	2000
6.6.1	win	2022-12-29	18:38:32	19:06:25	1671597	58dd769642b8e500017159d5	573684100	1	main_slash	11	advance_on_keypress_SLASH	140	stimuli_distractor_diamondtriangles.svg	stimuli_distractor_trianglediamonds.svg	37	no	57	0	333
6.6.1	win	2022-12-29	18:38:32	19:06:26	1673207	58dd769642b8e500017159d5	573684100	1	main_slash	11	main_slash	141	stimuli_distractor_trianglediamonds.svg	stimuli_target_diamondsquares.svg	28	yes	53	1	626
6.6.1	win	2022-12-29	18:38:32	19:06:26	1673207	58dd769642b8e500017159d5	573684100	1	main_slash	11	advance_on_keypress_SLASH	142	stimuli_distractor_trianglediamonds.svg	stimuli_target_diamondsquares.svg	28	yes	57	0	111
6.6.1	win	2022-12-29	18:38:32	19:06:28	1674499	58dd769642b8e500017159d5	573684100	1	main_slash	11	main_slash	143	stimuli_target_squaretriangles.svg	stimuli_distractor_diamondtriangles.svg	7	yes	53	1	551
6.6.1	win	2022-12-29	18:38:32	19:06:28	1674499	58dd769642b8e500017159d5	573684100	1	main_slash	11	advance_on_keypress_SLASH	144	stimuli_target_squaretriangles.svg	stimuli_distractor_diamondtriangles.svg	7	yes	57	0	116
6.6.1	win	2022-12-29	18:38:32	19:06:29	1675715	58dd769642b8e500017159d5	573684100	1	main_slash	11	main_slash	145	stimuli_target_squarediamonds.svg	stimuli_distractor_diamondtriangles.svg	8	yes	53	1	451
6.6.1	win	2022-12-29	18:38:32	19:06:29	1675715	58dd769642b8e500017159d5	573684100	1	main_slash	11	advance_on_keypress_SLASH	146	stimuli_target_squarediamonds.svg	stimuli_distractor_diamondtriangles.svg	8	yes	57	0	145
6.6.1	win	2022-12-29	18:38:32	19:06:32	1678499	58dd769642b8e500017159d5	573684100	1	main_slash	11	main_slash	147	stimuli_distractor_diamondtriangles.svg	stimuli_distractor_diamondtriangles.svg	39	no	0	1	2000
6.6.1	win	2022-12-29	18:38:32	19:06:32	1678499	58dd769642b8e500017159d5	573684100	1	main_slash	11	advance_on_keypress_SLASH	148	stimuli_distractor_diamondtriangles.svg	stimuli_distractor_diamondtriangles.svg	39	no	57	0	630
6.6.1	win	2022-12-29	18:38:32	19:06:33	1680302	58dd769642b8e500017159d5	573684100	1	main_slash	11	main_slash	149	stimuli_distractor_diamondtriangles.svg	stimuli_target_trianglecircles.svg	29	yes	53	1	521
6.6.1	win	2022-12-29	18:38:32	19:06:33	1680302	58dd769642b8e500017159d5	573684100	1	main_slash	11	advance_on_keypress_SLASH	150	stimuli_distractor_diamondtriangles.svg	stimuli_target_trianglecircles.svg	29	yes	57	0	121
6.6.1	win	2022-12-29	18:38:32	19:06:35	1681534	58dd769642b8e500017159d5	573684100	1	main_slash	11	main_slash	151	stimuli_distractor_diamondtriangles.svg	stimuli_target_circletriangles.svg	13	yes	53	1	470
6.6.1	win	2022-12-29	18:38:32	19:06:35	1681534	58dd769642b8e500017159d5	573684100	1	main_slash	11	advance_on_keypress_SLASH	152	stimuli_distractor_diamondtriangles.svg	stimuli_target_circletriangles.svg	13	yes	57	0	135
6.6.1	win	2022-12-29	18:38:32	19:06:36	1682826	58dd769642b8e500017159d5	573684100	1	main_slash	11	main_slash	153	stimuli_distractor_trianglediamonds.svg	stimuli_target_circlediamonds.svg	10	yes	53	1	511
6.6.1	win	2022-12-29	18:38:32	19:06:36	1682826	58dd769642b8e500017159d5	573684100	1	main_slash	11	advance_on_keypress_SLASH	154	stimuli_distractor_trianglediamonds.svg	stimuli_target_circlediamonds.svg	10	yes	57	0	156
6.6.1	win	2022-12-29	18:38:32	19:06:38	1684758	58dd769642b8e500017159d5	573684100	1	main_slash	11	main_slash	155	stimuli_target_diamondsquares.svg	stimuli_distractor_diamondtriangles.svg	24	yes	53	1	1144
6.6.1	win	2022-12-29	18:38:32	19:06:38	1684758	58dd769642b8e500017159d5	573684100	1	main_slash	11	advance_on_keypress_SLASH	156	stimuli_target_diamondsquares.svg	stimuli_distractor_diamondtriangles.svg	24	yes	57	0	245
6.6.1	win	2022-12-29	18:38:32	19:06:39	1686181	58dd769642b8e500017159d5	573684100	1	main_slash	11	main_slash	157	stimuli_distractor_trianglediamonds.svg	stimuli_target_trianglesquares.svg	26	yes	53	1	550
6.6.1	win	2022-12-29	18:38:32	19:06:39	1686181	58dd769642b8e500017159d5	573684100	1	main_slash	11	advance_on_keypress_SLASH	158	stimuli_distractor_trianglediamonds.svg	stimuli_target_trianglesquares.svg	26	yes	57	0	176
6.6.1	win	2022-12-29	18:38:32	19:06:40	1687399	58dd769642b8e500017159d5	573684100	1	main_slash	11	main_slash	159	stimuli_distractor_trianglediamonds.svg	stimuli_target_trianglecircles.svg	25	yes	53	1	401
6.6.1	win	2022-12-29	18:38:32	19:06:40	1687399	58dd769642b8e500017159d5	573684100	1	main_slash	11	advance_on_keypress_SLASH	160	stimuli_distractor_trianglediamonds.svg	stimuli_target_trianglecircles.svg	25	yes	57	0	131