build	computer.platform	date	time	timestamp	time_elapsed_ms	subject	group	session	blockcode	blocknum	trialcode	trialnum	stimulus_left	stimulus_right	stim_index	target_present	response	correct	latency
6.6.1	mac	2022-12-14	14:51:28	14:53:25	106596	60a55d4bb6bd9be6c95b89eb	93746402	1	practice_z	5	practice_z	1	stimuli_distractor_diamondtriangles.svg	stimuli_distractor_trianglediamonds.svg	14	no	0	1	2000
6.6.1	mac	2022-12-14	14:51:28	14:53:25	106596	60a55d4bb6bd9be6c95b89eb	93746402	1	practice_z	5	advance_on_keypress_ZEE	2	stimuli_distractor_diamondtriangles.svg	stimuli_distractor_trianglediamonds.svg	14	no	57	0	1603
6.6.1	mac	2022-12-14	14:51:28	14:53:29	110543	60a55d4bb6bd9be6c95b89eb	93746402	1	practice_z	5	practice_z	3	stimuli_distractor_trianglediamonds.svg	stimuli_target_diamondcircles.svg	12	yes	44	1	713
6.6.1	mac	2022-12-14	14:51:28	14:53:29	110543	60a55d4bb6bd9be6c95b89eb	93746402	1	practice_z	5	advance_on_keypress_ZEE	4	stimuli_distractor_trianglediamonds.svg	stimuli_target_diamondcircles.svg	12	yes	57	0	1275
6.6.1	mac	2022-12-14	14:51:28	14:53:33	114286	60a55d4bb6bd9be6c95b89eb	93746402	1	practice_z	5	practice_z	5	stimuli_distractor_trianglediamonds.svg	stimuli_distractor_diamondtriangles.svg	16	no	44	0	837
6.6.1	mac	2022-12-14	14:51:28	14:53:33	114286	60a55d4bb6bd9be6c95b89eb	93746402	1	practice_z	5	advance_on_keypress_ZEE	6	stimuli_distractor_trianglediamonds.svg	stimuli_distractor_diamondtriangles.svg	16	no	57	0	1012
6.6.1	mac	2022-12-14	14:51:28	14:53:37	118930	60a55d4bb6bd9be6c95b89eb	93746402	1	practice_z	5	practice_z	7	stimuli_distractor_trianglediamonds.svg	stimuli_distractor_trianglediamonds.svg	15	no	0	1	2000
6.6.1	mac	2022-12-14	14:51:28	14:53:37	118930	60a55d4bb6bd9be6c95b89eb	93746402	1	practice_z	5	advance_on_keypress_ZEE	8	stimuli_distractor_trianglediamonds.svg	stimuli_distractor_trianglediamonds.svg	15	no	57	0	442
6.6.1	mac	2022-12-14	14:51:28	14:53:41	122074	60a55d4bb6bd9be6c95b89eb	93746402	1	practice_z	5	practice_z	9	stimuli_target_diamondsquares.svg	stimuli_distractor_diamondtriangles.svg	3	yes	44	1	1059
6.6.1	mac	2022-12-14	14:51:28	14:53:41	122074	60a55d4bb6bd9be6c95b89eb	93746402	1	practice_z	5	advance_on_keypress_ZEE	10	stimuli_target_diamondsquares.svg	stimuli_distractor_diamondtriangles.svg	3	yes	57	0	945
6.6.1	mac	2022-12-14	14:51:28	14:53:44	125297	60a55d4bb6bd9be6c95b89eb	93746402	1	practice_z	5	practice_z	11	stimuli_target_squarediamonds.svg	stimuli_distractor_diamondtriangles.svg	2	yes	44	1	650
6.6.1	mac	2022-12-14	14:51:28	14:53:44	125297	60a55d4bb6bd9be6c95b89eb	93746402	1	practice_z	5	advance_on_keypress_ZEE	12	stimuli_target_squarediamonds.svg	stimuli_distractor_diamondtriangles.svg	2	yes	57	0	645
6.6.1	mac	2022-12-14	14:51:28	14:53:47	128111	60a55d4bb6bd9be6c95b89eb	93746402	1	practice_z	5	practice_z	13	stimuli_target_circlediamonds.svg	stimuli_distractor_trianglediamonds.svg	4	yes	44	1	528
6.6.1	mac	2022-12-14	14:51:28	14:53:47	128111	60a55d4bb6bd9be6c95b89eb	93746402	1	practice_z	5	advance_on_keypress_ZEE	14	stimuli_target_circlediamonds.svg	stimuli_distractor_trianglediamonds.svg	4	yes	57	0	367
6.6.1	mac	2022-12-14	14:51:28	14:53:49	130776	60a55d4bb6bd9be6c95b89eb	93746402	1	practice_z	5	practice_z	15	stimuli_distractor_diamondtriangles.svg	stimuli_target_circletriangles.svg	7	yes	44	1	661
6.6.1	mac	2022-12-14	14:51:28	14:53:49	130776	60a55d4bb6bd9be6c95b89eb	93746402	1	practice_z	5	advance_on_keypress_ZEE	16	stimuli_distractor_diamondtriangles.svg	stimuli_target_circletriangles.svg	7	yes	57	0	366
6.6.1	mac	2022-12-14	14:51:28	14:53:52	133328	60a55d4bb6bd9be6c95b89eb	93746402	1	practice_z	5	practice_z	17	stimuli_target_circlediamonds.svg	stimuli_distractor_diamondtriangles.svg	1	yes	44	1	562
6.6.1	mac	2022-12-14	14:51:28	14:53:52	133328	60a55d4bb6bd9be6c95b89eb	93746402	1	practice_z	5	advance_on_keypress_ZEE	18	stimuli_target_circlediamonds.svg	stimuli_distractor_diamondtriangles.svg	1	yes	57	0	322
6.6.1	mac	2022-12-14	14:51:28	14:53:54	135710	60a55d4bb6bd9be6c95b89eb	93746402	1	practice_z	5	practice_z	19	stimuli_distractor_diamondtriangles.svg	stimuli_target_diamondcircles.svg	8	yes	44	1	427
6.6.1	mac	2022-12-14	14:51:28	14:53:54	135710	60a55d4bb6bd9be6c95b89eb	93746402	1	practice_z	5	advance_on_keypress_ZEE	20	stimuli_distractor_diamondtriangles.svg	stimuli_target_diamondcircles.svg	8	yes	57	0	404
6.6.1	mac	2022-12-14	14:51:28	14:53:57	138227	60a55d4bb6bd9be6c95b89eb	93746402	1	practice_z	5	practice_z	21	stimuli_target_diamondsquares.svg	stimuli_distractor_trianglediamonds.svg	6	yes	44	1	477
6.6.1	mac	2022-12-14	14:51:28	14:53:57	138227	60a55d4bb6bd9be6c95b89eb	93746402	1	practice_z	5	advance_on_keypress_ZEE	22	stimuli_target_diamondsquares.svg	stimuli_distractor_trianglediamonds.svg	6	yes	57	0	6234
6.6.1	mac	2022-12-14	14:51:28	14:54:05	146460	60a55d4bb6bd9be6c95b89eb	93746402	1	practice_z	5	practice_z	23	stimuli_target_squarediamonds.svg	stimuli_distractor_trianglediamonds.svg	5	yes	44	1	376
6.6.1	mac	2022-12-14	14:51:28	14:54:05	146460	60a55d4bb6bd9be6c95b89eb	93746402	1	practice_z	5	advance_on_keypress_ZEE	24	stimuli_target_squarediamonds.svg	stimuli_distractor_trianglediamonds.svg	5	yes	57	0	359
6.6.1	mac	2022-12-14	14:51:28	14:54:07	148758	60a55d4bb6bd9be6c95b89eb	93746402	1	practice_z	5	practice_z	25	stimuli_distractor_trianglediamonds.svg	stimuli_target_squarediamonds.svg	11	yes	44	1	308
6.6.1	mac	2022-12-14	14:51:28	14:54:07	148758	60a55d4bb6bd9be6c95b89eb	93746402	1	practice_z	5	advance_on_keypress_ZEE	26	stimuli_distractor_trianglediamonds.svg	stimuli_target_squarediamonds.svg	11	yes	57	0	255
6.6.1	mac	2022-12-14	14:51:28	14:54:10	150981	60a55d4bb6bd9be6c95b89eb	93746402	1	practice_z	5	practice_z	27	stimuli_distractor_diamondtriangles.svg	stimuli_target_trianglecircles.svg	9	yes	44	1	330
6.6.1	mac	2022-12-14	14:51:28	14:54:10	150981	60a55d4bb6bd9be6c95b89eb	93746402	1	practice_z	5	advance_on_keypress_ZEE	28	stimuli_distractor_diamondtriangles.svg	stimuli_target_trianglecircles.svg	9	yes	57	0	184
6.6.1	mac	2022-12-14	14:51:28	14:54:12	153187	60a55d4bb6bd9be6c95b89eb	93746402	1	practice_z	5	practice_z	29	stimuli_distractor_trianglediamonds.svg	stimuli_target_circlediamonds.svg	10	yes	44	1	387
6.6.1	mac	2022-12-14	14:51:28	14:54:12	153187	60a55d4bb6bd9be6c95b89eb	93746402	1	practice_z	5	advance_on_keypress_ZEE	30	stimuli_distractor_trianglediamonds.svg	stimuli_target_circlediamonds.svg	10	yes	57	0	77
6.6.1	mac	2022-12-14	14:51:28	14:54:14	155244	60a55d4bb6bd9be6c95b89eb	93746402	1	practice_z	5	practice_z	31	stimuli_distractor_diamondtriangles.svg	stimuli_distractor_diamondtriangles.svg	13	no	44	0	360
6.6.1	mac	2022-12-14	14:51:28	14:54:14	155244	60a55d4bb6bd9be6c95b89eb	93746402	1	practice_z	5	advance_on_keypress_ZEE	32	stimuli_distractor_diamondtriangles.svg	stimuli_distractor_diamondtriangles.svg	13	no	57	0	8364
6.6.1	mac	2022-12-14	14:51:28	14:54:28	169793	60a55d4bb6bd9be6c95b89eb	93746402	1	main_z	7	main_z	1	stimuli_distractor_trianglediamonds.svg	stimuli_target_trianglesquares.svg	26	yes	44	1	540
6.6.1	mac	2022-12-14	14:51:28	14:54:28	169793	60a55d4bb6bd9be6c95b89eb	93746402	1	main_z	7	advance_on_keypress_ZEE	2	stimuli_distractor_trianglediamonds.svg	stimuli_target_trianglesquares.svg	26	yes	57	0	677
6.6.1	mac	2022-12-14	14:51:28	14:54:30	171581	60a55d4bb6bd9be6c95b89eb	93746402	1	main_z	7	main_z	3	stimuli_target_squaretriangles.svg	stimuli_distractor_trianglediamonds.svg	3	yes	44	1	479
6.6.1	mac	2022-12-14	14:51:28	14:54:30	171581	60a55d4bb6bd9be6c95b89eb	93746402	1	main_z	7	advance_on_keypress_ZEE	4	stimuli_target_squaretriangles.svg	stimuli_distractor_trianglediamonds.svg	3	yes	57	0	566
6.6.1	mac	2022-12-14	14:51:28	14:54:32	173160	60a55d4bb6bd9be6c95b89eb	93746402	1	main_z	7	main_z	5	stimuli_distractor_diamondtriangles.svg	stimuli_target_diamondsquares.svg	32	yes	44	1	392
6.6.1	mac	2022-12-14	14:51:28	14:54:32	173160	60a55d4bb6bd9be6c95b89eb	93746402	1	main_z	7	advance_on_keypress_ZEE	6	stimuli_distractor_diamondtriangles.svg	stimuli_target_diamondsquares.svg	32	yes	57	0	686
6.6.1	mac	2022-12-14	14:51:28	14:54:33	174891	60a55d4bb6bd9be6c95b89eb	93746402	1	main_z	7	main_z	7	stimuli_target_circletriangles.svg	stimuli_distractor_trianglediamonds.svg	1	yes	44	1	423
6.6.1	mac	2022-12-14	14:51:28	14:54:33	174891	60a55d4bb6bd9be6c95b89eb	93746402	1	main_z	7	advance_on_keypress_ZEE	8	stimuli_target_circletriangles.svg	stimuli_distractor_trianglediamonds.svg	1	yes	57	0	557
6.6.1	mac	2022-12-14	14:51:28	14:54:35	176411	60a55d4bb6bd9be6c95b89eb	93746402	1	main_z	7	main_z	9	stimuli_target_diamondsquares.svg	stimuli_distractor_diamondtriangles.svg	24	yes	44	1	326
6.6.1	mac	2022-12-14	14:51:28	14:54:35	176411	60a55d4bb6bd9be6c95b89eb	93746402	1	main_z	7	advance_on_keypress_ZEE	10	stimuli_target_diamondsquares.svg	stimuli_distractor_diamondtriangles.svg	24	yes	57	0	539
6.6.1	mac	2022-12-14	14:51:28	14:54:37	177967	60a55d4bb6bd9be6c95b89eb	93746402	1	main_z	7	main_z	11	stimuli_target_circlediamonds.svg	stimuli_distractor_trianglediamonds.svg	2	yes	44	1	382
6.6.1	mac	2022-12-14	14:51:28	14:54:37	177967	60a55d4bb6bd9be6c95b89eb	93746402	1	main_z	7	advance_on_keypress_ZEE	12	stimuli_target_circlediamonds.svg	stimuli_distractor_trianglediamonds.svg	2	yes	57	0	513
6.6.1	mac	2022-12-14	14:51:28	14:54:38	179389	60a55d4bb6bd9be6c95b89eb	93746402	1	main_z	7	main_z	13	stimuli_distractor_trianglediamonds.svg	stimuli_distractor_trianglediamonds.svg	34	no	44	0	270
6.6.1	mac	2022-12-14	14:51:28	14:54:38	179389	60a55d4bb6bd9be6c95b89eb	93746402	1	main_z	7	advance_on_keypress_ZEE	14	stimuli_distractor_trianglediamonds.svg	stimuli_distractor_trianglediamonds.svg	34	no	57	0	1054
6.6.1	mac	2022-12-14	14:51:28	14:54:40	181525	60a55d4bb6bd9be6c95b89eb	93746402	1	main_z	7	main_z	15	stimuli_distractor_trianglediamonds.svg	stimuli_target_circletriangles.svg	9	yes	44	1	457
6.6.1	mac	2022-12-14	14:51:28	14:54:40	181525	60a55d4bb6bd9be6c95b89eb	93746402	1	main_z	7	advance_on_keypress_ZEE	16	stimuli_distractor_trianglediamonds.svg	stimuli_target_circletriangles.svg	9	yes	57	0	547
6.6.1	mac	2022-12-14	14:51:28	14:54:42	183110	60a55d4bb6bd9be6c95b89eb	93746402	1	main_z	7	main_z	17	stimuli_distractor_trianglediamonds.svg	stimuli_target_squarediamonds.svg	12	yes	44	1	407
6.6.1	mac	2022-12-14	14:51:28	14:54:42	183110	60a55d4bb6bd9be6c95b89eb	93746402	1	main_z	7	advance_on_keypress_ZEE	18	stimuli_distractor_trianglediamonds.svg	stimuli_target_squarediamonds.svg	12	yes	57	0	476
6.6.1	mac	2022-12-14	14:51:28	14:54:45	186218	60a55d4bb6bd9be6c95b89eb	93746402	1	main_z	7	main_z	19	stimuli_distractor_diamondtriangles.svg	stimuli_distractor_trianglediamonds.svg	38	no	0	1	2000
6.6.1	mac	2022-12-14	14:51:28	14:54:45	186218	60a55d4bb6bd9be6c95b89eb	93746402	1	main_z	7	advance_on_keypress_ZEE	20	stimuli_distractor_diamondtriangles.svg	stimuli_distractor_trianglediamonds.svg	38	no	57	0	595
6.6.1	mac	2022-12-14	14:51:28	14:54:46	187768	60a55d4bb6bd9be6c95b89eb	93746402	1	main_z	7	main_z	21	stimuli_target_circlediamonds.svg	stimuli_distractor_diamondtriangles.svg	6	yes	44	1	331
6.6.1	mac	2022-12-14	14:51:28	14:54:46	187768	60a55d4bb6bd9be6c95b89eb	93746402	1	main_z	7	advance_on_keypress_ZEE	22	stimuli_target_circlediamonds.svg	stimuli_distractor_diamondtriangles.svg	6	yes	57	0	686
6.6.1	mac	2022-12-14	14:51:28	14:54:48	189412	60a55d4bb6bd9be6c95b89eb	93746402	1	main_z	7	main_z	23	stimuli_distractor_trianglediamonds.svg	stimuli_target_circlediamonds.svg	10	yes	44	1	326
6.6.1	mac	2022-12-14	14:51:28	14:54:48	189412	60a55d4bb6bd9be6c95b89eb	93746402	1	main_z	7	advance_on_keypress_ZEE	24	stimuli_distractor_trianglediamonds.svg	stimuli_target_circlediamonds.svg	10	yes	57	0	548
6.6.1	mac	2022-12-14	14:51:28	14:54:49	190893	60a55d4bb6bd9be6c95b89eb	93746402	1	main_z	7	main_z	25	stimuli_target_trianglecircles.svg	stimuli_distractor_trianglediamonds.svg	17	yes	44	1	307
6.6.1	mac	2022-12-14	14:51:28	14:54:49	190893	60a55d4bb6bd9be6c95b89eb	93746402	1	main_z	7	advance_on_keypress_ZEE	26	stimuli_target_trianglecircles.svg	stimuli_distractor_trianglediamonds.svg	17	yes	57	0	681
6.6.1	mac	2022-12-14	14:51:28	14:54:51	192675	60a55d4bb6bd9be6c95b89eb	93746402	1	main_z	7	main_z	27	stimuli_target_circletriangles.svg	stimuli_distractor_diamondtriangles.svg	5	yes	44	1	472
6.6.1	mac	2022-12-14	14:51:28	14:54:51	192675	60a55d4bb6bd9be6c95b89eb	93746402	1	main_z	7	advance_on_keypress_ZEE	28	stimuli_target_circletriangles.svg	stimuli_distractor_diamondtriangles.svg	5	yes	57	0	419
6.6.1	mac	2022-12-14	14:51:28	14:54:54	195720	60a55d4bb6bd9be6c95b89eb	93746402	1	main_z	7	main_z	29	stimuli_distractor_trianglediamonds.svg	stimuli_distractor_diamondtriangles.svg	36	no	0	1	2000
6.6.1	mac	2022-12-14	14:51:28	14:54:54	195720	60a55d4bb6bd9be6c95b89eb	93746402	1	main_z	7	advance_on_keypress_ZEE	30	stimuli_distractor_trianglediamonds.svg	stimuli_distractor_diamondtriangles.svg	36	no	57	0	341
6.6.1	mac	2022-12-14	14:51:28	14:54:56	196997	60a55d4bb6bd9be6c95b89eb	93746402	1	main_z	7	main_z	31	stimuli_distractor_trianglediamonds.svg	stimuli_target_squaretriangles.svg	11	yes	44	1	310
6.6.1	mac	2022-12-14	14:51:28	14:54:56	196997	60a55d4bb6bd9be6c95b89eb	93746402	1	main_z	7	advance_on_keypress_ZEE	32	stimuli_distractor_trianglediamonds.svg	stimuli_target_squaretriangles.svg	11	yes	57	0	589
6.6.1	mac	2022-12-14	14:51:28	14:54:59	200220	60a55d4bb6bd9be6c95b89eb	93746402	1	main_z	7	main_z	33	stimuli_distractor_diamondtriangles.svg	stimuli_distractor_diamondtriangles.svg	40	no	0	1	2000
6.6.1	mac	2022-12-14	14:51:28	14:54:59	200220	60a55d4bb6bd9be6c95b89eb	93746402	1	main_z	7	advance_on_keypress_ZEE	34	stimuli_distractor_diamondtriangles.svg	stimuli_distractor_diamondtriangles.svg	40	no	57	0	348
6.6.1	mac	2022-12-14	14:51:28	14:55:00	201531	60a55d4bb6bd9be6c95b89eb	93746402	1	main_z	7	main_z	35	stimuli_target_trianglesquares.svg	stimuli_distractor_diamondtriangles.svg	22	yes	44	1	327
6.6.1	mac	2022-12-14	14:51:28	14:55:00	201531	60a55d4bb6bd9be6c95b89eb	93746402	1	main_z	7	advance_on_keypress_ZEE	36	stimuli_target_trianglesquares.svg	stimuli_distractor_diamondtriangles.svg	22	yes	57	0	800
6.6.1	mac	2022-12-14	14:51:28	14:55:02	203357	60a55d4bb6bd9be6c95b89eb	93746402	1	main_z	7	main_z	37	stimuli_distractor_diamondtriangles.svg	stimuli_target_trianglesquares.svg	30	yes	44	1	402
6.6.1	mac	2022-12-14	14:51:28	14:55:02	203357	60a55d4bb6bd9be6c95b89eb	93746402	1	main_z	7	advance_on_keypress_ZEE	38	stimuli_distractor_diamondtriangles.svg	stimuli_target_trianglesquares.svg	30	yes	57	0	664
6.6.1	mac	2022-12-14	14:51:28	14:55:04	205020	60a55d4bb6bd9be6c95b89eb	93746402	1	main_z	7	main_z	39	stimuli_target_trianglesquares.svg	stimuli_distractor_trianglediamonds.svg	18	yes	44	1	365
6.6.1	mac	2022-12-14	14:51:28	14:55:04	205020	60a55d4bb6bd9be6c95b89eb	93746402	1	main_z	7	advance_on_keypress_ZEE	40	stimuli_target_trianglesquares.svg	stimuli_distractor_trianglediamonds.svg	18	yes	57	0	643
6.6.1	mac	2022-12-14	14:51:28	14:55:05	206700	60a55d4bb6bd9be6c95b89eb	93746402	1	main_z	7	main_z	41	stimuli_distractor_trianglediamonds.svg	stimuli_distractor_diamondtriangles.svg	35	no	44	0	396
6.6.1	mac	2022-12-14	14:51:28	14:55:05	206700	60a55d4bb6bd9be6c95b89eb	93746402	1	main_z	7	advance_on_keypress_ZEE	42	stimuli_distractor_trianglediamonds.svg	stimuli_distractor_diamondtriangles.svg	35	no	57	0	917
6.6.1	mac	2022-12-14	14:51:28	14:55:07	208714	60a55d4bb6bd9be6c95b89eb	93746402	1	main_z	7	main_z	43	stimuli_distractor_diamondtriangles.svg	stimuli_target_diamondcircles.svg	31	yes	44	1	477
6.6.1	mac	2022-12-14	14:51:28	14:55:07	208714	60a55d4bb6bd9be6c95b89eb	93746402	1	main_z	7	advance_on_keypress_ZEE	44	stimuli_distractor_diamondtriangles.svg	stimuli_target_diamondcircles.svg	31	yes	57	0	1317
6.6.1	mac	2022-12-14	14:51:28	14:55:11	212097	60a55d4bb6bd9be6c95b89eb	93746402	1	main_z	7	main_z	45	stimuli_target_diamondcircles.svg	stimuli_distractor_trianglediamonds.svg	19	yes	44	1	1443
6.6.1	mac	2022-12-14	14:51:28	14:55:11	212097	60a55d4bb6bd9be6c95b89eb	93746402	1	main_z	7	advance_on_keypress_ZEE	46	stimuli_target_diamondcircles.svg	stimuli_distractor_trianglediamonds.svg	19	yes	57	0	587
6.6.1	mac	2022-12-14	14:51:28	14:55:12	213697	60a55d4bb6bd9be6c95b89eb	93746402	1	main_z	7	main_z	47	stimuli_distractor_trianglediamonds.svg	stimuli_target_diamondsquares.svg	28	yes	44	1	393
6.6.1	mac	2022-12-14	14:51:28	14:55:12	213697	60a55d4bb6bd9be6c95b89eb	93746402	1	main_z	7	advance_on_keypress_ZEE	48	stimuli_distractor_trianglediamonds.svg	stimuli_target_diamondsquares.svg	28	yes	57	0	475
6.6.1	mac	2022-12-14	14:51:28	14:55:14	215181	60a55d4bb6bd9be6c95b89eb	93746402	1	main_z	7	main_z	49	stimuli_target_trianglecircles.svg	stimuli_distractor_diamondtriangles.svg	21	yes	44	1	376
6.6.1	mac	2022-12-14	14:51:28	14:55:14	215181	60a55d4bb6bd9be6c95b89eb	93746402	1	main_z	7	advance_on_keypress_ZEE	50	stimuli_target_trianglecircles.svg	stimuli_distractor_diamondtriangles.svg	21	yes	57	0	784
6.6.1	mac	2022-12-14	14:51:28	14:55:15	216910	60a55d4bb6bd9be6c95b89eb	93746402	1	main_z	7	main_z	51	stimuli_target_squaretriangles.svg	stimuli_distractor_diamondtriangles.svg	7	yes	44	1	305
6.6.1	mac	2022-12-14	14:51:28	14:55:15	216910	60a55d4bb6bd9be6c95b89eb	93746402	1	main_z	7	advance_on_keypress_ZEE	52	stimuli_target_squaretriangles.svg	stimuli_distractor_diamondtriangles.svg	7	yes	57	0	726
6.6.1	mac	2022-12-14	14:51:28	14:55:17	218691	60a55d4bb6bd9be6c95b89eb	93746402	1	main_z	7	main_z	53	stimuli_distractor_diamondtriangles.svg	stimuli_distractor_diamondtriangles.svg	39	no	44	0	435
6.6.1	mac	2022-12-14	14:51:28	14:55:17	218691	60a55d4bb6bd9be6c95b89eb	93746402	1	main_z	7	advance_on_keypress_ZEE	54	stimuli_distractor_diamondtriangles.svg	stimuli_distractor_diamondtriangles.svg	39	no	57	0	1013
6.6.1	mac	2022-12-14	14:51:28	14:55:19	220879	60a55d4bb6bd9be6c95b89eb	93746402	1	main_z	7	main_z	55	stimuli_target_diamondcircles.svg	stimuli_distractor_diamondtriangles.svg	23	yes	44	1	540
6.6.1	mac	2022-12-14	14:51:28	14:55:19	220879	60a55d4bb6bd9be6c95b89eb	93746402	1	main_z	7	advance_on_keypress_ZEE	56	stimuli_target_diamondcircles.svg	stimuli_distractor_diamondtriangles.svg	23	yes	57	0	846
6.6.1	mac	2022-12-14	14:51:28	14:55:22	223153	60a55d4bb6bd9be6c95b89eb	93746402	1	main_z	7	main_z	57	stimuli_distractor_diamondtriangles.svg	stimuli_target_squaretriangles.svg	15	yes	44	1	798
6.6.1	mac	2022-12-14	14:51:28	14:55:22	223153	60a55d4bb6bd9be6c95b89eb	93746402	1	main_z	7	advance_on_keypress_ZEE	58	stimuli_distractor_diamondtriangles.svg	stimuli_target_squaretriangles.svg	15	yes	57	0	11767
6.6.1	mac	2022-12-14	14:51:28	14:55:35	236150	60a55d4bb6bd9be6c95b89eb	93746402	1	main_z	7	main_z	59	stimuli_distractor_diamondtriangles.svg	stimuli_target_circletriangles.svg	13	yes	44	1	593
6.6.1	mac	2022-12-14	14:51:28	14:55:35	236150	60a55d4bb6bd9be6c95b89eb	93746402	1	main_z	7	advance_on_keypress_ZEE	60	stimuli_distractor_diamondtriangles.svg	stimuli_target_circletriangles.svg	13	yes	57	0	1073
6.6.1	mac	2022-12-14	14:51:28	14:55:37	238335	60a55d4bb6bd9be6c95b89eb	93746402	1	main_z	7	main_z	61	stimuli_distractor_trianglediamonds.svg	stimuli_target_diamondcircles.svg	27	yes	44	1	478
6.6.1	mac	2022-12-14	14:51:28	14:55:37	238335	60a55d4bb6bd9be6c95b89eb	93746402	1	main_z	7	advance_on_keypress_ZEE	62	stimuli_distractor_trianglediamonds.svg	stimuli_target_diamondcircles.svg	27	yes	57	0	656
6.6.1	mac	2022-12-14	14:51:28	14:55:39	240035	60a55d4bb6bd9be6c95b89eb	93746402	1	main_z	7	main_z	63	stimuli_distractor_diamondtriangles.svg	stimuli_target_trianglecircles.svg	29	yes	44	1	411
6.6.1	mac	2022-12-14	14:51:28	14:55:39	240035	60a55d4bb6bd9be6c95b89eb	93746402	1	main_z	7	advance_on_keypress_ZEE	64	stimuli_distractor_diamondtriangles.svg	stimuli_target_trianglecircles.svg	29	yes	57	0	628
6.6.1	mac	2022-12-14	14:51:28	14:55:40	241771	60a55d4bb6bd9be6c95b89eb	93746402	1	main_z	7	main_z	65	stimuli_distractor_diamondtriangles.svg	stimuli_target_circlediamonds.svg	14	yes	44	1	481
6.6.1	mac	2022-12-14	14:51:28	14:55:40	241771	60a55d4bb6bd9be6c95b89eb	93746402	1	main_z	7	advance_on_keypress_ZEE	66	stimuli_distractor_diamondtriangles.svg	stimuli_target_circlediamonds.svg	14	yes	57	0	738
6.6.1	mac	2022-12-14	14:51:28	14:55:42	243722	60a55d4bb6bd9be6c95b89eb	93746402	1	main_z	7	main_z	67	stimuli_distractor_diamondtriangles.svg	stimuli_target_squarediamonds.svg	16	yes	44	1	582
6.6.1	mac	2022-12-14	14:51:28	14:55:42	243722	60a55d4bb6bd9be6c95b89eb	93746402	1	main_z	7	advance_on_keypress_ZEE	68	stimuli_distractor_diamondtriangles.svg	stimuli_target_squarediamonds.svg	16	yes	57	0	607
6.6.1	mac	2022-12-14	14:51:28	14:55:44	245426	60a55d4bb6bd9be6c95b89eb	93746402	1	main_z	7	main_z	69	stimuli_distractor_trianglediamonds.svg	stimuli_target_trianglecircles.svg	25	yes	44	1	469
6.6.1	mac	2022-12-14	14:51:28	14:55:44	245426	60a55d4bb6bd9be6c95b89eb	93746402	1	main_z	7	advance_on_keypress_ZEE	70	stimuli_distractor_trianglediamonds.svg	stimuli_target_trianglecircles.svg	25	yes	57	0	411
6.6.1	mac	2022-12-14	14:51:28	14:55:47	248457	60a55d4bb6bd9be6c95b89eb	93746402	1	main_z	7	main_z	71	stimuli_distractor_diamondtriangles.svg	stimuli_distractor_trianglediamonds.svg	37	no	0	1	2000
6.6.1	mac	2022-12-14	14:51:28	14:55:47	248457	60a55d4bb6bd9be6c95b89eb	93746402	1	main_z	7	advance_on_keypress_ZEE	72	stimuli_distractor_diamondtriangles.svg	stimuli_distractor_trianglediamonds.svg	37	no	57	0	280
6.6.1	mac	2022-12-14	14:51:28	14:55:48	249809	60a55d4bb6bd9be6c95b89eb	93746402	1	main_z	7	main_z	73	stimuli_target_diamondsquares.svg	stimuli_distractor_trianglediamonds.svg	20	yes	44	1	435
6.6.1	mac	2022-12-14	14:51:28	14:55:48	249809	60a55d4bb6bd9be6c95b89eb	93746402	1	main_z	7	advance_on_keypress_ZEE	74	stimuli_target_diamondsquares.svg	stimuli_distractor_trianglediamonds.svg	20	yes	57	0	875
6.6.1	mac	2022-12-14	14:51:28	14:55:50	251723	60a55d4bb6bd9be6c95b89eb	93746402	1	main_z	7	main_z	75	stimuli_target_squarediamonds.svg	stimuli_distractor_trianglediamonds.svg	4	yes	44	1	416
6.6.1	mac	2022-12-14	14:51:28	14:55:50	251723	60a55d4bb6bd9be6c95b89eb	93746402	1	main_z	7	advance_on_keypress_ZEE	76	stimuli_target_squarediamonds.svg	stimuli_distractor_trianglediamonds.svg	4	yes	57	0	559
6.6.1	mac	2022-12-14	14:51:28	14:55:52	253458	60a55d4bb6bd9be6c95b89eb	93746402	1	main_z	7	main_z	77	stimuli_target_squarediamonds.svg	stimuli_distractor_diamondtriangles.svg	8	yes	44	1	550
6.6.1	mac	2022-12-14	14:51:28	14:55:52	253458	60a55d4bb6bd9be6c95b89eb	93746402	1	main_z	7	advance_on_keypress_ZEE	78	stimuli_target_squarediamonds.svg	stimuli_distractor_diamondtriangles.svg	8	yes	57	0	684
6.6.1	mac	2022-12-14	14:51:28	14:55:55	256773	60a55d4bb6bd9be6c95b89eb	93746402	1	main_z	7	main_z	79	stimuli_distractor_trianglediamonds.svg	stimuli_distractor_trianglediamonds.svg	33	no	0	1	2000
6.6.1	mac	2022-12-14	14:51:28	14:55:55	256773	60a55d4bb6bd9be6c95b89eb	93746402	1	main_z	7	advance_on_keypress_ZEE	80	stimuli_distractor_trianglediamonds.svg	stimuli_distractor_trianglediamonds.svg	33	no	57	0	264
6.6.1	mac	2022-12-14	14:51:28	14:55:58	259674	60a55d4bb6bd9be6c95b89eb	93746402	1	main_z	7	main_z	81	stimuli_distractor_diamondtriangles.svg	stimuli_distractor_diamondtriangles.svg	40	no	0	1	2000
6.6.1	mac	2022-12-14	14:51:28	14:55:58	259674	60a55d4bb6bd9be6c95b89eb	93746402	1	main_z	7	advance_on_keypress_ZEE	82	stimuli_distractor_diamondtriangles.svg	stimuli_distractor_diamondtriangles.svg	40	no	57	0	277
6.6.1	mac	2022-12-14	14:51:28	14:56:00	261112	60a55d4bb6bd9be6c95b89eb	93746402	1	main_z	7	main_z	83	stimuli_target_circlediamonds.svg	stimuli_distractor_trianglediamonds.svg	2	yes	44	1	538
6.6.1	mac	2022-12-14	14:51:28	14:56:00	261112	60a55d4bb6bd9be6c95b89eb	93746402	1	main_z	7	advance_on_keypress_ZEE	84	stimuli_target_circlediamonds.svg	stimuli_distractor_trianglediamonds.svg	2	yes	57	0	630
6.6.1	mac	2022-12-14	14:51:28	14:56:01	262893	60a55d4bb6bd9be6c95b89eb	93746402	1	main_z	7	main_z	85	stimuli_target_diamondsquares.svg	stimuli_distractor_trianglediamonds.svg	20	yes	44	1	517
6.6.1	mac	2022-12-14	14:51:28	14:56:01	262893	60a55d4bb6bd9be6c95b89eb	93746402	1	main_z	7	advance_on_keypress_ZEE	86	stimuli_target_diamondsquares.svg	stimuli_distractor_trianglediamonds.svg	20	yes	57	0	486
6.6.1	mac	2022-12-14	14:51:28	14:56:03	264451	60a55d4bb6bd9be6c95b89eb	93746402	1	main_z	7	main_z	87	stimuli_target_diamondcircles.svg	stimuli_distractor_diamondtriangles.svg	23	yes	44	1	443
6.6.1	mac	2022-12-14	14:51:28	14:56:03	264451	60a55d4bb6bd9be6c95b89eb	93746402	1	main_z	7	advance_on_keypress_ZEE	88	stimuli_target_diamondcircles.svg	stimuli_distractor_diamondtriangles.svg	23	yes	57	0	552
6.6.1	mac	2022-12-14	14:51:28	14:56:05	266210	60a55d4bb6bd9be6c95b89eb	93746402	1	main_z	7	main_z	89	stimuli_distractor_trianglediamonds.svg	stimuli_target_squarediamonds.svg	12	yes	44	1	585
6.6.1	mac	2022-12-14	14:51:28	14:56:05	266210	60a55d4bb6bd9be6c95b89eb	93746402	1	main_z	7	advance_on_keypress_ZEE	90	stimuli_distractor_trianglediamonds.svg	stimuli_target_squarediamonds.svg	12	yes	57	0	552
6.6.1	mac	2022-12-14	14:51:28	14:56:08	269408	60a55d4bb6bd9be6c95b89eb	93746402	1	main_z	7	main_z	91	stimuli_distractor_trianglediamonds.svg	stimuli_distractor_diamondtriangles.svg	36	no	0	1	2000
6.6.1	mac	2022-12-14	14:51:28	14:56:08	269408	60a55d4bb6bd9be6c95b89eb	93746402	1	main_z	7	advance_on_keypress_ZEE	92	stimuli_distractor_trianglediamonds.svg	stimuli_distractor_diamondtriangles.svg	36	no	57	0	300
6.6.1	mac	2022-12-14	14:51:28	14:56:09	270941	60a55d4bb6bd9be6c95b89eb	93746402	1	main_z	7	main_z	93	stimuli_distractor_trianglediamonds.svg	stimuli_target_squaretriangles.svg	11	yes	44	1	598
6.6.1	mac	2022-12-14	14:51:28	14:56:09	270941	60a55d4bb6bd9be6c95b89eb	93746402	1	main_z	7	advance_on_keypress_ZEE	94	stimuli_distractor_trianglediamonds.svg	stimuli_target_squaretriangles.svg	11	yes	57	0	957
6.6.1	mac	2022-12-14	14:51:28	14:56:13	274525	60a55d4bb6bd9be6c95b89eb	93746402	1	main_z	7	main_z	95	stimuli_distractor_trianglediamonds.svg	stimuli_distractor_trianglediamonds.svg	33	no	0	1	2000
6.6.1	mac	2022-12-14	14:51:28	14:56:13	274525	60a55d4bb6bd9be6c95b89eb	93746402	1	main_z	7	advance_on_keypress_ZEE	96	stimuli_distractor_trianglediamonds.svg	stimuli_distractor_trianglediamonds.svg	33	no	57	0	8637
6.6.1	mac	2022-12-14	14:51:28	14:56:23	284638	60a55d4bb6bd9be6c95b89eb	93746402	1	main_z	7	main_z	97	stimuli_distractor_trianglediamonds.svg	stimuli_target_trianglecircles.svg	25	yes	44	1	846
6.6.1	mac	2022-12-14	14:51:28	14:56:23	284638	60a55d4bb6bd9be6c95b89eb	93746402	1	main_z	7	advance_on_keypress_ZEE	98	stimuli_distractor_trianglediamonds.svg	stimuli_target_trianglecircles.svg	25	yes	57	0	916
6.6.1	mac	2022-12-14	14:51:28	14:56:25	286880	60a55d4bb6bd9be6c95b89eb	93746402	1	main_z	7	main_z	99	stimuli_distractor_diamondtriangles.svg	stimuli_target_squaretriangles.svg	15	yes	44	1	704
6.6.1	mac	2022-12-14	14:51:28	14:56:25	286880	60a55d4bb6bd9be6c95b89eb	93746402	1	main_z	7	advance_on_keypress_ZEE	100	stimuli_distractor_diamondtriangles.svg	stimuli_target_squaretriangles.svg	15	yes	57	0	703
6.6.1	mac	2022-12-14	14:51:28	14:56:29	290209	60a55d4bb6bd9be6c95b89eb	93746402	1	main_z	7	main_z	101	stimuli_distractor_trianglediamonds.svg	stimuli_distractor_diamondtriangles.svg	35	no	0	1	2000
6.6.1	mac	2022-12-14	14:51:28	14:56:29	290209	60a55d4bb6bd9be6c95b89eb	93746402	1	main_z	7	advance_on_keypress_ZEE	102	stimuli_distractor_trianglediamonds.svg	stimuli_distractor_diamondtriangles.svg	35	no	57	0	794
6.6.1	mac	2022-12-14	14:51:28	14:56:31	292177	60a55d4bb6bd9be6c95b89eb	93746402	1	main_z	7	main_z	103	stimuli_distractor_diamondtriangles.svg	stimuli_target_circletriangles.svg	13	yes	44	1	549
6.6.1	mac	2022-12-14	14:51:28	14:56:31	292177	60a55d4bb6bd9be6c95b89eb	93746402	1	main_z	7	advance_on_keypress_ZEE	104	stimuli_distractor_diamondtriangles.svg	stimuli_target_circletriangles.svg	13	yes	57	0	515
6.6.1	mac	2022-12-14	14:51:28	14:56:33	293952	60a55d4bb6bd9be6c95b89eb	93746402	1	main_z	7	main_z	105	stimuli_distractor_trianglediamonds.svg	stimuli_target_diamondsquares.svg	28	yes	44	1	625
6.6.1	mac	2022-12-14	14:51:28	14:56:33	293952	60a55d4bb6bd9be6c95b89eb	93746402	1	main_z	7	advance_on_keypress_ZEE	106	stimuli_distractor_trianglediamonds.svg	stimuli_target_diamondsquares.svg	28	yes	57	0	458
6.6.1	mac	2022-12-14	14:51:28	14:56:34	295540	60a55d4bb6bd9be6c95b89eb	93746402	1	main_z	7	main_z	107	stimuli_distractor_diamondtriangles.svg	stimuli_target_circlediamonds.svg	14	yes	44	1	495
6.6.1	mac	2022-12-14	14:51:28	14:56:34	295540	60a55d4bb6bd9be6c95b89eb	93746402	1	main_z	7	advance_on_keypress_ZEE	108	stimuli_distractor_diamondtriangles.svg	stimuli_target_circlediamonds.svg	14	yes	57	0	439
6.6.1	mac	2022-12-14	14:51:28	14:56:36	297076	60a55d4bb6bd9be6c95b89eb	93746402	1	main_z	7	main_z	109	stimuli_distractor_trianglediamonds.svg	stimuli_target_circletriangles.svg	9	yes	44	1	466
6.6.1	mac	2022-12-14	14:51:28	14:56:36	297076	60a55d4bb6bd9be6c95b89eb	93746402	1	main_z	7	advance_on_keypress_ZEE	110	stimuli_distractor_trianglediamonds.svg	stimuli_target_circletriangles.svg	9	yes	57	0	38490
6.6.1	mac	2022-12-14	14:51:28	14:57:15	336716	60a55d4bb6bd9be6c95b89eb	93746402	1	main_z	7	main_z	111	stimuli_target_diamondsquares.svg	stimuli_distractor_diamondtriangles.svg	24	yes	44	1	520
6.6.1	mac	2022-12-14	14:51:28	14:57:15	336716	60a55d4bb6bd9be6c95b89eb	93746402	1	main_z	7	advance_on_keypress_ZEE	112	stimuli_target_diamondsquares.svg	stimuli_distractor_diamondtriangles.svg	24	yes	57	0	1408
6.6.1	mac	2022-12-14	14:51:28	14:57:18	339192	60a55d4bb6bd9be6c95b89eb	93746402	1	main_z	7	main_z	113	stimuli_target_trianglesquares.svg	stimuli_distractor_trianglediamonds.svg	18	yes	44	1	429
6.6.1	mac	2022-12-14	14:51:28	14:57:18	339192	60a55d4bb6bd9be6c95b89eb	93746402	1	main_z	7	advance_on_keypress_ZEE	114	stimuli_target_trianglesquares.svg	stimuli_distractor_trianglediamonds.svg	18	yes	57	0	1248
6.6.1	mac	2022-12-14	14:51:28	14:57:22	343062	60a55d4bb6bd9be6c95b89eb	93746402	1	main_z	7	main_z	115	stimuli_distractor_trianglediamonds.svg	stimuli_distractor_trianglediamonds.svg	34	no	0	1	2000
6.6.1	mac	2022-12-14	14:51:28	14:57:22	343062	60a55d4bb6bd9be6c95b89eb	93746402	1	main_z	7	advance_on_keypress_ZEE	116	stimuli_distractor_trianglediamonds.svg	stimuli_distractor_trianglediamonds.svg	34	no	57	0	285
6.6.1	mac	2022-12-14	14:51:28	14:57:23	344363	60a55d4bb6bd9be6c95b89eb	93746402	1	main_z	7	main_z	117	stimuli_target_circletriangles.svg	stimuli_distractor_trianglediamonds.svg	1	yes	44	1	383
6.6.1	mac	2022-12-14	14:51:28	14:57:23	344363	60a55d4bb6bd9be6c95b89eb	93746402	1	main_z	7	advance_on_keypress_ZEE	118	stimuli_target_circletriangles.svg	stimuli_distractor_trianglediamonds.svg	1	yes	57	0	665
6.6.1	mac	2022-12-14	14:51:28	14:57:25	346080	60a55d4bb6bd9be6c95b89eb	93746402	1	main_z	7	main_z	119	stimuli_target_squarediamonds.svg	stimuli_distractor_diamondtriangles.svg	8	yes	44	1	417
6.6.1	mac	2022-12-14	14:51:28	14:57:25	346080	60a55d4bb6bd9be6c95b89eb	93746402	1	main_z	7	advance_on_keypress_ZEE	120	stimuli_target_squarediamonds.svg	stimuli_distractor_diamondtriangles.svg	8	yes	57	0	708
6.6.1	mac	2022-12-14	14:51:28	14:57:28	349413	60a55d4bb6bd9be6c95b89eb	93746402	1	main_z	7	main_z	121	stimuli_distractor_diamondtriangles.svg	stimuli_distractor_trianglediamonds.svg	37	no	0	1	2000
6.6.1	mac	2022-12-14	14:51:28	14:57:28	349413	60a55d4bb6bd9be6c95b89eb	93746402	1	main_z	7	advance_on_keypress_ZEE	122	stimuli_distractor_diamondtriangles.svg	stimuli_distractor_trianglediamonds.svg	37	no	57	0	120
6.6.1	mac	2022-12-14	14:51:28	14:57:29	350532	60a55d4bb6bd9be6c95b89eb	93746402	1	main_z	7	main_z	123	stimuli_target_trianglecircles.svg	stimuli_distractor_diamondtriangles.svg	21	yes	44	1	369
6.6.1	mac	2022-12-14	14:51:28	14:57:29	350532	60a55d4bb6bd9be6c95b89eb	93746402	1	main_z	7	advance_on_keypress_ZEE	124	stimuli_target_trianglecircles.svg	stimuli_distractor_diamondtriangles.svg	21	yes	57	0	646
6.6.1	mac	2022-12-14	14:51:28	14:57:31	352231	60a55d4bb6bd9be6c95b89eb	93746402	1	main_z	7	main_z	125	stimuli_target_squaretriangles.svg	stimuli_distractor_trianglediamonds.svg	3	yes	44	1	417
6.6.1	mac	2022-12-14	14:51:28	14:57:31	352231	60a55d4bb6bd9be6c95b89eb	93746402	1	main_z	7	advance_on_keypress_ZEE	126	stimuli_target_squaretriangles.svg	stimuli_distractor_trianglediamonds.svg	3	yes	57	0	607
6.6.1	mac	2022-12-14	14:51:28	14:57:34	355464	60a55d4bb6bd9be6c95b89eb	93746402	1	main_z	7	main_z	127	stimuli_distractor_diamondtriangles.svg	stimuli_distractor_trianglediamonds.svg	38	no	0	1	2000
6.6.1	mac	2022-12-14	14:51:28	14:57:34	355464	60a55d4bb6bd9be6c95b89eb	93746402	1	main_z	7	advance_on_keypress_ZEE	128	stimuli_distractor_diamondtriangles.svg	stimuli_distractor_trianglediamonds.svg	38	no	57	0	294
6.6.1	mac	2022-12-14	14:51:28	14:57:35	356881	60a55d4bb6bd9be6c95b89eb	93746402	1	main_z	7	main_z	129	stimuli_distractor_trianglediamonds.svg	stimuli_target_diamondcircles.svg	27	yes	44	1	500
6.6.1	mac	2022-12-14	14:51:28	14:57:35	356881	60a55d4bb6bd9be6c95b89eb	93746402	1	main_z	7	advance_on_keypress_ZEE	130	stimuli_distractor_trianglediamonds.svg	stimuli_target_diamondcircles.svg	27	yes	57	0	522
6.6.1	mac	2022-12-14	14:51:28	14:57:37	358503	60a55d4bb6bd9be6c95b89eb	93746402	1	main_z	7	main_z	131	stimuli_target_squaretriangles.svg	stimuli_distractor_diamondtriangles.svg	7	yes	44	1	454
6.6.1	mac	2022-12-14	14:51:28	14:57:37	358503	60a55d4bb6bd9be6c95b89eb	93746402	1	main_z	7	advance_on_keypress_ZEE	132	stimuli_target_squaretriangles.svg	stimuli_distractor_diamondtriangles.svg	7	yes	57	0	3110
6.6.1	mac	2022-12-14	14:51:28	14:57:41	362711	60a55d4bb6bd9be6c95b89eb	93746402	1	main_z	7	main_z	133	stimuli_distractor_trianglediamonds.svg	stimuli_target_circlediamonds.svg	10	yes	44	1	479
6.6.1	mac	2022-12-14	14:51:28	14:57:41	362711	60a55d4bb6bd9be6c95b89eb	93746402	1	main_z	7	advance_on_keypress_ZEE	134	stimuli_distractor_trianglediamonds.svg	stimuli_target_circlediamonds.svg	10	yes	57	0	486
6.6.1	mac	2022-12-14	14:51:28	14:57:44	365814	60a55d4bb6bd9be6c95b89eb	93746402	1	main_z	7	main_z	135	stimuli_distractor_diamondtriangles.svg	stimuli_distractor_diamondtriangles.svg	39	no	0	1	2000
6.6.1	mac	2022-12-14	14:51:28	14:57:44	365814	60a55d4bb6bd9be6c95b89eb	93746402	1	main_z	7	advance_on_keypress_ZEE	136	stimuli_distractor_diamondtriangles.svg	stimuli_distractor_diamondtriangles.svg	39	no	57	0	243
6.6.1	mac	2022-12-14	14:51:28	14:57:46	367080	60a55d4bb6bd9be6c95b89eb	93746402	1	main_z	7	main_z	137	stimuli_target_circlediamonds.svg	stimuli_distractor_diamondtriangles.svg	6	yes	44	1	399
6.6.1	mac	2022-12-14	14:51:28	14:57:46	367080	60a55d4bb6bd9be6c95b89eb	93746402	1	main_z	7	advance_on_keypress_ZEE	138	stimuli_target_circlediamonds.svg	stimuli_distractor_diamondtriangles.svg	6	yes	57	0	677
6.6.1	mac	2022-12-14	14:51:28	14:57:47	368875	60a55d4bb6bd9be6c95b89eb	93746402	1	main_z	7	main_z	139	stimuli_distractor_diamondtriangles.svg	stimuli_target_squarediamonds.svg	16	yes	44	1	494
6.6.1	mac	2022-12-14	14:51:28	14:57:47	368875	60a55d4bb6bd9be6c95b89eb	93746402	1	main_z	7	advance_on_keypress_ZEE	140	stimuli_distractor_diamondtriangles.svg	stimuli_target_squarediamonds.svg	16	yes	57	0	397
6.6.1	mac	2022-12-14	14:51:28	14:57:49	370439	60a55d4bb6bd9be6c95b89eb	93746402	1	main_z	7	main_z	141	stimuli_distractor_diamondtriangles.svg	stimuli_target_trianglesquares.svg	30	yes	44	1	541
6.6.1	mac	2022-12-14	14:51:28	14:57:49	370439	60a55d4bb6bd9be6c95b89eb	93746402	1	main_z	7	advance_on_keypress_ZEE	142	stimuli_distractor_diamondtriangles.svg	stimuli_target_trianglesquares.svg	30	yes	57	0	453
6.6.1	mac	2022-12-14	14:51:28	14:57:51	371974	60a55d4bb6bd9be6c95b89eb	93746402	1	main_z	7	main_z	143	stimuli_distractor_trianglediamonds.svg	stimuli_target_trianglesquares.svg	26	yes	44	1	459
6.6.1	mac	2022-12-14	14:51:28	14:57:51	371974	60a55d4bb6bd9be6c95b89eb	93746402	1	main_z	7	advance_on_keypress_ZEE	144	stimuli_distractor_trianglediamonds.svg	stimuli_target_trianglesquares.svg	26	yes	57	0	411
6.6.1	mac	2022-12-14	14:51:28	14:57:52	373548	60a55d4bb6bd9be6c95b89eb	93746402	1	main_z	7	main_z	145	stimuli_target_diamondcircles.svg	stimuli_distractor_trianglediamonds.svg	19	yes	44	1	532
6.6.1	mac	2022-12-14	14:51:28	14:57:52	373548	60a55d4bb6bd9be6c95b89eb	93746402	1	main_z	7	advance_on_keypress_ZEE	146	stimuli_target_diamondcircles.svg	stimuli_distractor_trianglediamonds.svg	19	yes	57	0	369
6.6.1	mac	2022-12-14	14:51:28	14:57:54	375560	60a55d4bb6bd9be6c95b89eb	93746402	1	main_z	7	main_z	147	stimuli_target_trianglesquares.svg	stimuli_distractor_diamondtriangles.svg	22	yes	44	1	1010
6.6.1	mac	2022-12-14	14:51:28	14:57:54	375560	60a55d4bb6bd9be6c95b89eb	93746402	1	main_z	7	advance_on_keypress_ZEE	148	stimuli_target_trianglesquares.svg	stimuli_distractor_diamondtriangles.svg	22	yes	57	0	386
6.6.1	mac	2022-12-14	14:51:28	14:57:56	377205	60a55d4bb6bd9be6c95b89eb	93746402	1	main_z	7	main_z	149	stimuli_distractor_diamondtriangles.svg	stimuli_target_diamondcircles.svg	31	yes	44	1	639
6.6.1	mac	2022-12-14	14:51:28	14:57:56	377205	60a55d4bb6bd9be6c95b89eb	93746402	1	main_z	7	advance_on_keypress_ZEE	150	stimuli_distractor_diamondtriangles.svg	stimuli_target_diamondcircles.svg	31	yes	57	0	646
6.6.1	mac	2022-12-14	14:51:28	14:57:58	378978	60a55d4bb6bd9be6c95b89eb	93746402	1	main_z	7	main_z	151	stimuli_target_circletriangles.svg	stimuli_distractor_diamondtriangles.svg	5	yes	44	1	494
6.6.1	mac	2022-12-14	14:51:28	14:57:58	378978	60a55d4bb6bd9be6c95b89eb	93746402	1	main_z	7	advance_on_keypress_ZEE	152	stimuli_target_circletriangles.svg	stimuli_distractor_diamondtriangles.svg	5	yes	57	0	454
6.6.1	mac	2022-12-14	14:51:28	14:57:59	380449	60a55d4bb6bd9be6c95b89eb	93746402	1	main_z	7	main_z	153	stimuli_target_trianglecircles.svg	stimuli_distractor_trianglediamonds.svg	17	yes	44	1	383
6.6.1	mac	2022-12-14	14:51:28	14:57:59	380449	60a55d4bb6bd9be6c95b89eb	93746402	1	main_z	7	advance_on_keypress_ZEE	154	stimuli_target_trianglecircles.svg	stimuli_distractor_trianglediamonds.svg	17	yes	57	0	490
6.6.1	mac	2022-12-14	14:51:28	14:58:00	381838	60a55d4bb6bd9be6c95b89eb	93746402	1	main_z	7	main_z	155	stimuli_distractor_diamondtriangles.svg	stimuli_target_trianglecircles.svg	29	yes	44	1	255
6.6.1	mac	2022-12-14	14:51:28	14:58:00	381838	60a55d4bb6bd9be6c95b89eb	93746402	1	main_z	7	advance_on_keypress_ZEE	156	stimuli_distractor_diamondtriangles.svg	stimuli_target_trianglecircles.svg	29	yes	57	0	683
6.6.1	mac	2022-12-14	14:51:28	14:58:02	383470	60a55d4bb6bd9be6c95b89eb	93746402	1	main_z	7	main_z	157	stimuli_distractor_diamondtriangles.svg	stimuli_target_diamondsquares.svg	32	yes	44	1	321
6.6.1	mac	2022-12-14	14:51:28	14:58:02	383470	60a55d4bb6bd9be6c95b89eb	93746402	1	main_z	7	advance_on_keypress_ZEE	158	stimuli_distractor_diamondtriangles.svg	stimuli_target_diamondsquares.svg	32	yes	57	0	710
6.6.1	mac	2022-12-14	14:51:28	14:58:04	385252	60a55d4bb6bd9be6c95b89eb	93746402	1	main_z	7	main_z	159	stimuli_target_squarediamonds.svg	stimuli_distractor_trianglediamonds.svg	4	yes	44	1	452
6.6.1	mac	2022-12-14	14:51:28	14:58:04	385252	60a55d4bb6bd9be6c95b89eb	93746402	1	main_z	7	advance_on_keypress_ZEE	160	stimuli_target_squarediamonds.svg	stimuli_distractor_trianglediamonds.svg	4	yes	57	0	803
6.6.1	mac	2022-12-14	14:51:28	14:58:32	413658	60a55d4bb6bd9be6c95b89eb	93746402	1	practice_slash	9	practice_slash	1	stimuli_target_squarediamonds.svg	stimuli_distractor_diamondtriangles.svg	2	yes	53	1	556
6.6.1	mac	2022-12-14	14:51:28	14:58:32	413658	60a55d4bb6bd9be6c95b89eb	93746402	1	practice_slash	9	advance_on_keypress_SLASH	2	stimuli_target_squarediamonds.svg	stimuli_distractor_diamondtriangles.svg	2	yes	57	0	613
6.6.1	mac	2022-12-14	14:51:28	14:58:35	416385	60a55d4bb6bd9be6c95b89eb	93746402	1	practice_slash	9	practice_slash	3	stimuli_target_circlediamonds.svg	stimuli_distractor_trianglediamonds.svg	4	yes	53	1	483
6.6.1	mac	2022-12-14	14:51:28	14:58:35	416385	60a55d4bb6bd9be6c95b89eb	93746402	1	practice_slash	9	advance_on_keypress_SLASH	4	stimuli_target_circlediamonds.svg	stimuli_distractor_trianglediamonds.svg	4	yes	57	0	1322
6.6.1	mac	2022-12-14	14:51:28	14:58:38	419764	60a55d4bb6bd9be6c95b89eb	93746402	1	practice_slash	9	practice_slash	5	stimuli_distractor_diamondtriangles.svg	stimuli_target_diamondcircles.svg	8	yes	53	1	428
6.6.1	mac	2022-12-14	14:51:28	14:58:38	419764	60a55d4bb6bd9be6c95b89eb	93746402	1	practice_slash	9	advance_on_keypress_SLASH	6	stimuli_distractor_diamondtriangles.svg	stimuli_target_diamondcircles.svg	8	yes	57	0	305
6.6.1	mac	2022-12-14	14:51:28	14:58:41	422128	60a55d4bb6bd9be6c95b89eb	93746402	1	practice_slash	9	practice_slash	7	stimuli_distractor_trianglediamonds.svg	stimuli_target_diamondcircles.svg	12	yes	53	1	426
6.6.1	mac	2022-12-14	14:51:28	14:58:41	422128	60a55d4bb6bd9be6c95b89eb	93746402	1	practice_slash	9	advance_on_keypress_SLASH	8	stimuli_distractor_trianglediamonds.svg	stimuli_target_diamondcircles.svg	12	yes	57	0	425
6.6.1	mac	2022-12-14	14:51:28	14:58:43	424563	60a55d4bb6bd9be6c95b89eb	93746402	1	practice_slash	9	practice_slash	9	stimuli_target_squarediamonds.svg	stimuli_distractor_trianglediamonds.svg	5	yes	53	1	377
6.6.1	mac	2022-12-14	14:51:28	14:58:43	424563	60a55d4bb6bd9be6c95b89eb	93746402	1	practice_slash	9	advance_on_keypress_SLASH	10	stimuli_target_squarediamonds.svg	stimuli_distractor_trianglediamonds.svg	5	yes	57	0	517
6.6.1	mac	2022-12-14	14:51:28	14:58:46	427187	60a55d4bb6bd9be6c95b89eb	93746402	1	practice_slash	9	practice_slash	11	stimuli_distractor_diamondtriangles.svg	stimuli_target_trianglecircles.svg	9	yes	53	1	484
6.6.1	mac	2022-12-14	14:51:28	14:58:46	427187	60a55d4bb6bd9be6c95b89eb	93746402	1	practice_slash	9	advance_on_keypress_SLASH	12	stimuli_distractor_diamondtriangles.svg	stimuli_target_trianglecircles.svg	9	yes	57	0	369
6.6.1	mac	2022-12-14	14:51:28	14:58:50	431185	60a55d4bb6bd9be6c95b89eb	93746402	1	practice_slash	9	practice_slash	13	stimuli_distractor_trianglediamonds.svg	stimuli_distractor_diamondtriangles.svg	16	no	0	1	2000
6.6.1	mac	2022-12-14	14:51:28	14:58:50	431185	60a55d4bb6bd9be6c95b89eb	93746402	1	practice_slash	9	advance_on_keypress_SLASH	14	stimuli_distractor_trianglediamonds.svg	stimuli_distractor_diamondtriangles.svg	16	no	57	0	840
6.6.1	mac	2022-12-14	14:51:28	14:58:53	434048	60a55d4bb6bd9be6c95b89eb	93746402	1	practice_slash	9	practice_slash	15	stimuli_target_circlediamonds.svg	stimuli_distractor_diamondtriangles.svg	1	yes	53	1	394
6.6.1	mac	2022-12-14	14:51:28	14:58:53	434048	60a55d4bb6bd9be6c95b89eb	93746402	1	practice_slash	9	advance_on_keypress_SLASH	16	stimuli_target_circlediamonds.svg	stimuli_distractor_diamondtriangles.svg	1	yes	57	0	513
6.6.1	mac	2022-12-14	14:51:28	14:58:55	436531	60a55d4bb6bd9be6c95b89eb	93746402	1	practice_slash	9	practice_slash	17	stimuli_distractor_trianglediamonds.svg	stimuli_distractor_trianglediamonds.svg	15	no	53	0	344
6.6.1	mac	2022-12-14	14:51:28	14:58:55	436531	60a55d4bb6bd9be6c95b89eb	93746402	1	practice_slash	9	advance_on_keypress_SLASH	18	stimuli_distractor_trianglediamonds.svg	stimuli_distractor_trianglediamonds.svg	15	no	57	0	11529
6.6.1	mac	2022-12-14	14:51:28	14:59:09	450270	60a55d4bb6bd9be6c95b89eb	93746402	1	practice_slash	9	practice_slash	19	stimuli_target_diamondsquares.svg	stimuli_distractor_diamondtriangles.svg	3	yes	53	1	583
6.6.1	mac	2022-12-14	14:51:28	14:59:09	450270	60a55d4bb6bd9be6c95b89eb	93746402	1	practice_slash	9	advance_on_keypress_SLASH	20	stimuli_target_diamondsquares.svg	stimuli_distractor_diamondtriangles.svg	3	yes	57	0	425
6.6.1	mac	2022-12-14	14:51:28	14:59:13	454320	60a55d4bb6bd9be6c95b89eb	93746402	1	practice_slash	9	practice_slash	21	stimuli_distractor_diamondtriangles.svg	stimuli_distractor_diamondtriangles.svg	13	no	0	1	2000
6.6.1	mac	2022-12-14	14:51:28	14:59:13	454320	60a55d4bb6bd9be6c95b89eb	93746402	1	practice_slash	9	advance_on_keypress_SLASH	22	stimuli_distractor_diamondtriangles.svg	stimuli_distractor_diamondtriangles.svg	13	no	57	0	435
6.6.1	mac	2022-12-14	14:51:28	14:59:15	456806	60a55d4bb6bd9be6c95b89eb	93746402	1	practice_slash	9	practice_slash	23	stimuli_target_diamondsquares.svg	stimuli_distractor_trianglediamonds.svg	6	yes	53	1	417
6.6.1	mac	2022-12-14	14:51:28	14:59:15	456806	60a55d4bb6bd9be6c95b89eb	93746402	1	practice_slash	9	advance_on_keypress_SLASH	24	stimuli_target_diamondsquares.svg	stimuli_distractor_trianglediamonds.svg	6	yes	57	0	580
6.6.1	mac	2022-12-14	14:51:28	14:59:18	459620	60a55d4bb6bd9be6c95b89eb	93746402	1	practice_slash	9	practice_slash	25	stimuli_distractor_trianglediamonds.svg	stimuli_target_circlediamonds.svg	10	yes	53	1	598
6.6.1	mac	2022-12-14	14:51:28	14:59:18	459620	60a55d4bb6bd9be6c95b89eb	93746402	1	practice_slash	9	advance_on_keypress_SLASH	26	stimuli_distractor_trianglediamonds.svg	stimuli_target_circlediamonds.svg	10	yes	57	0	542
6.6.1	mac	2022-12-14	14:51:28	14:59:21	462293	60a55d4bb6bd9be6c95b89eb	93746402	1	practice_slash	9	practice_slash	27	stimuli_distractor_diamondtriangles.svg	stimuli_target_circletriangles.svg	7	yes	53	1	505
6.6.1	mac	2022-12-14	14:51:28	14:59:21	462293	60a55d4bb6bd9be6c95b89eb	93746402	1	practice_slash	9	advance_on_keypress_SLASH	28	stimuli_distractor_diamondtriangles.svg	stimuli_target_circletriangles.svg	7	yes	57	0	536
6.6.1	mac	2022-12-14	14:51:28	14:59:25	466454	60a55d4bb6bd9be6c95b89eb	93746402	1	practice_slash	9	practice_slash	29	stimuli_distractor_diamondtriangles.svg	stimuli_distractor_trianglediamonds.svg	14	no	0	1	2000
6.6.1	mac	2022-12-14	14:51:28	14:59:25	466454	60a55d4bb6bd9be6c95b89eb	93746402	1	practice_slash	9	advance_on_keypress_SLASH	30	stimuli_distractor_diamondtriangles.svg	stimuli_distractor_trianglediamonds.svg	14	no	57	0	280
6.6.1	mac	2022-12-14	14:51:28	14:59:27	468759	60a55d4bb6bd9be6c95b89eb	93746402	1	practice_slash	9	practice_slash	31	stimuli_distractor_trianglediamonds.svg	stimuli_target_squarediamonds.svg	11	yes	53	1	386
6.6.1	mac	2022-12-14	14:51:28	14:59:27	468759	60a55d4bb6bd9be6c95b89eb	93746402	1	practice_slash	9	advance_on_keypress_SLASH	32	stimuli_distractor_trianglediamonds.svg	stimuli_target_squarediamonds.svg	11	yes	57	0	547
6.6.1	mac	2022-12-14	14:51:28	14:59:32	473022	60a55d4bb6bd9be6c95b89eb	93746402	1	main_slash	11	main_slash	1	stimuli_distractor_trianglediamonds.svg	stimuli_distractor_diamondtriangles.svg	35	no	0	1	2000
6.6.1	mac	2022-12-14	14:51:28	14:59:32	473022	60a55d4bb6bd9be6c95b89eb	93746402	1	main_slash	11	advance_on_keypress_SLASH	2	stimuli_distractor_trianglediamonds.svg	stimuli_distractor_diamondtriangles.svg	35	no	57	0	551
6.6.1	mac	2022-12-14	14:51:28	14:59:33	474676	60a55d4bb6bd9be6c95b89eb	93746402	1	main_slash	11	main_slash	3	stimuli_distractor_diamondtriangles.svg	stimuli_target_trianglecircles.svg	29	yes	53	1	470
6.6.1	mac	2022-12-14	14:51:28	14:59:33	474676	60a55d4bb6bd9be6c95b89eb	93746402	1	main_slash	11	advance_on_keypress_SLASH	4	stimuli_distractor_diamondtriangles.svg	stimuli_target_trianglecircles.svg	29	yes	57	0	553
6.6.1	mac	2022-12-14	14:51:28	14:59:35	476185	60a55d4bb6bd9be6c95b89eb	93746402	1	main_slash	11	main_slash	5	stimuli_target_diamondcircles.svg	stimuli_distractor_diamondtriangles.svg	23	yes	53	1	313
6.6.1	mac	2022-12-14	14:51:28	14:59:35	476185	60a55d4bb6bd9be6c95b89eb	93746402	1	main_slash	11	advance_on_keypress_SLASH	6	stimuli_target_diamondcircles.svg	stimuli_distractor_diamondtriangles.svg	23	yes	57	0	582
6.6.1	mac	2022-12-14	14:51:28	14:59:38	479389	60a55d4bb6bd9be6c95b89eb	93746402	1	main_slash	11	main_slash	7	stimuli_distractor_diamondtriangles.svg	stimuli_distractor_diamondtriangles.svg	39	no	0	1	2000
6.6.1	mac	2022-12-14	14:51:28	14:59:38	479389	60a55d4bb6bd9be6c95b89eb	93746402	1	main_slash	11	advance_on_keypress_SLASH	8	stimuli_distractor_diamondtriangles.svg	stimuli_distractor_diamondtriangles.svg	39	no	57	0	329
6.6.1	mac	2022-12-14	14:51:28	14:59:39	480754	60a55d4bb6bd9be6c95b89eb	93746402	1	main_slash	11	main_slash	9	stimuli_distractor_trianglediamonds.svg	stimuli_distractor_diamondtriangles.svg	36	no	53	0	398
6.6.1	mac	2022-12-14	14:51:28	14:59:39	480754	60a55d4bb6bd9be6c95b89eb	93746402	1	main_slash	11	advance_on_keypress_SLASH	10	stimuli_distractor_trianglediamonds.svg	stimuli_distractor_diamondtriangles.svg	36	no	57	0	802
6.6.1	mac	2022-12-14	14:51:28	14:59:41	482655	60a55d4bb6bd9be6c95b89eb	93746402	1	main_slash	11	main_slash	11	stimuli_target_trianglecircles.svg	stimuli_distractor_trianglediamonds.svg	17	yes	53	1	464
6.6.1	mac	2022-12-14	14:51:28	14:59:41	482655	60a55d4bb6bd9be6c95b89eb	93746402	1	main_slash	11	advance_on_keypress_SLASH	12	stimuli_target_trianglecircles.svg	stimuli_distractor_trianglediamonds.svg	17	yes	57	0	467
6.6.1	mac	2022-12-14	14:51:28	14:59:43	484180	60a55d4bb6bd9be6c95b89eb	93746402	1	main_slash	11	main_slash	13	stimuli_distractor_trianglediamonds.svg	stimuli_target_squaretriangles.svg	11	yes	53	1	423
6.6.1	mac	2022-12-14	14:51:28	14:59:43	484180	60a55d4bb6bd9be6c95b89eb	93746402	1	main_slash	11	advance_on_keypress_SLASH	14	stimuli_distractor_trianglediamonds.svg	stimuli_target_squaretriangles.svg	11	yes	57	0	514
6.6.1	mac	2022-12-14	14:51:28	14:59:44	485654	60a55d4bb6bd9be6c95b89eb	93746402	1	main_slash	11	main_slash	15	stimuli_distractor_trianglediamonds.svg	stimuli_target_circlediamonds.svg	10	yes	53	1	331
6.6.1	mac	2022-12-14	14:51:28	14:59:44	485654	60a55d4bb6bd9be6c95b89eb	93746402	1	main_slash	11	advance_on_keypress_SLASH	16	stimuli_distractor_trianglediamonds.svg	stimuli_target_circlediamonds.svg	10	yes	57	0	533
6.6.1	mac	2022-12-14	14:51:28	14:59:46	487293	60a55d4bb6bd9be6c95b89eb	93746402	1	main_slash	11	main_slash	17	stimuli_distractor_trianglediamonds.svg	stimuli_target_trianglecircles.svg	25	yes	53	1	470
6.6.1	mac	2022-12-14	14:51:28	14:59:46	487293	60a55d4bb6bd9be6c95b89eb	93746402	1	main_slash	11	advance_on_keypress_SLASH	18	stimuli_distractor_trianglediamonds.svg	stimuli_target_trianglecircles.svg	25	yes	57	0	541
6.6.1	mac	2022-12-14	14:51:28	14:59:47	488899	60a55d4bb6bd9be6c95b89eb	93746402	1	main_slash	11	main_slash	19	stimuli_target_diamondsquares.svg	stimuli_distractor_trianglediamonds.svg	20	yes	53	1	442
6.6.1	mac	2022-12-14	14:51:28	14:59:47	488899	60a55d4bb6bd9be6c95b89eb	93746402	1	main_slash	11	advance_on_keypress_SLASH	20	stimuli_target_diamondsquares.svg	stimuli_distractor_trianglediamonds.svg	20	yes	57	0	629
6.6.1	mac	2022-12-14	14:51:28	14:59:49	490554	60a55d4bb6bd9be6c95b89eb	93746402	1	main_slash	11	main_slash	21	stimuli_distractor_trianglediamonds.svg	stimuli_target_trianglesquares.svg	26	yes	53	1	397
6.6.1	mac	2022-12-14	14:51:28	14:59:49	490554	60a55d4bb6bd9be6c95b89eb	93746402	1	main_slash	11	advance_on_keypress_SLASH	22	stimuli_distractor_trianglediamonds.svg	stimuli_target_trianglesquares.svg	26	yes	57	0	494
6.6.1	mac	2022-12-14	14:51:28	14:59:51	492135	60a55d4bb6bd9be6c95b89eb	93746402	1	main_slash	11	main_slash	23	stimuli_distractor_diamondtriangles.svg	stimuli_target_circlediamonds.svg	14	yes	53	1	462
6.6.1	mac	2022-12-14	14:51:28	14:59:51	492135	60a55d4bb6bd9be6c95b89eb	93746402	1	main_slash	11	advance_on_keypress_SLASH	24	stimuli_distractor_diamondtriangles.svg	stimuli_target_circlediamonds.svg	14	yes	57	0	482
6.6.1	mac	2022-12-14	14:51:28	14:59:52	493523	60a55d4bb6bd9be6c95b89eb	93746402	1	main_slash	11	main_slash	25	stimuli_distractor_diamondtriangles.svg	stimuli_target_trianglesquares.svg	30	yes	53	1	282
6.6.1	mac	2022-12-14	14:51:28	14:59:52	493523	60a55d4bb6bd9be6c95b89eb	93746402	1	main_slash	11	advance_on_keypress_SLASH	26	stimuli_distractor_diamondtriangles.svg	stimuli_target_trianglesquares.svg	30	yes	57	0	458
6.6.1	mac	2022-12-14	14:51:28	14:59:53	494894	60a55d4bb6bd9be6c95b89eb	93746402	1	main_slash	11	main_slash	27	stimuli_distractor_diamondtriangles.svg	stimuli_target_circletriangles.svg	13	yes	53	1	287
6.6.1	mac	2022-12-14	14:51:28	14:59:53	494894	60a55d4bb6bd9be6c95b89eb	93746402	1	main_slash	11	advance_on_keypress_SLASH	28	stimuli_distractor_diamondtriangles.svg	stimuli_target_circletriangles.svg	13	yes	57	0	584
6.6.1	mac	2022-12-14	14:51:28	14:59:55	496527	60a55d4bb6bd9be6c95b89eb	93746402	1	main_slash	11	main_slash	29	stimuli_target_trianglecircles.svg	stimuli_distractor_diamondtriangles.svg	21	yes	53	1	420
6.6.1	mac	2022-12-14	14:51:28	14:59:55	496527	60a55d4bb6bd9be6c95b89eb	93746402	1	main_slash	11	advance_on_keypress_SLASH	30	stimuli_target_trianglecircles.svg	stimuli_distractor_diamondtriangles.svg	21	yes	57	0	545
6.6.1	mac	2022-12-14	14:51:28	14:59:57	497986	60a55d4bb6bd9be6c95b89eb	93746402	1	main_slash	11	main_slash	31	stimuli_target_squarediamonds.svg	stimuli_distractor_trianglediamonds.svg	4	yes	53	1	295
6.6.1	mac	2022-12-14	14:51:28	14:59:57	497986	60a55d4bb6bd9be6c95b89eb	93746402	1	main_slash	11	advance_on_keypress_SLASH	32	stimuli_target_squarediamonds.svg	stimuli_distractor_trianglediamonds.svg	4	yes	57	0	599
6.6.1	mac	2022-12-14	14:51:28	14:59:58	499606	60a55d4bb6bd9be6c95b89eb	93746402	1	main_slash	11	main_slash	33	stimuli_target_circletriangles.svg	stimuli_distractor_diamondtriangles.svg	5	yes	53	1	398
6.6.1	mac	2022-12-14	14:51:28	14:59:58	499606	60a55d4bb6bd9be6c95b89eb	93746402	1	main_slash	11	advance_on_keypress_SLASH	34	stimuli_target_circletriangles.svg	stimuli_distractor_diamondtriangles.svg	5	yes	57	0	518
6.6.1	mac	2022-12-14	14:51:28	15:00:00	501079	60a55d4bb6bd9be6c95b89eb	93746402	1	main_slash	11	main_slash	35	stimuli_distractor_trianglediamonds.svg	stimuli_target_diamondcircles.svg	27	yes	53	1	322
6.6.1	mac	2022-12-14	14:51:28	15:00:00	501079	60a55d4bb6bd9be6c95b89eb	93746402	1	main_slash	11	advance_on_keypress_SLASH	36	stimuli_distractor_trianglediamonds.svg	stimuli_target_diamondcircles.svg	27	yes	57	0	639
6.6.1	mac	2022-12-14	14:51:28	15:00:01	502600	60a55d4bb6bd9be6c95b89eb	93746402	1	main_slash	11	main_slash	37	stimuli_target_squaretriangles.svg	stimuli_distractor_diamondtriangles.svg	7	yes	53	1	259
6.6.1	mac	2022-12-14	14:51:28	15:00:01	502600	60a55d4bb6bd9be6c95b89eb	93746402	1	main_slash	11	advance_on_keypress_SLASH	38	stimuli_target_squaretriangles.svg	stimuli_distractor_diamondtriangles.svg	7	yes	57	0	478
6.6.1	mac	2022-12-14	14:51:28	15:00:03	503970	60a55d4bb6bd9be6c95b89eb	93746402	1	main_slash	11	main_slash	39	stimuli_distractor_diamondtriangles.svg	stimuli_target_diamondcircles.svg	31	yes	53	1	262
6.6.1	mac	2022-12-14	14:51:28	15:00:03	503970	60a55d4bb6bd9be6c95b89eb	93746402	1	main_slash	11	advance_on_keypress_SLASH	40	stimuli_distractor_diamondtriangles.svg	stimuli_target_diamondcircles.svg	31	yes	57	0	536
6.6.1	mac	2022-12-14	14:51:28	15:00:04	505449	60a55d4bb6bd9be6c95b89eb	93746402	1	main_slash	11	main_slash	41	stimuli_target_squarediamonds.svg	stimuli_distractor_diamondtriangles.svg	8	yes	53	1	325
6.6.1	mac	2022-12-14	14:51:28	15:00:04	505449	60a55d4bb6bd9be6c95b89eb	93746402	1	main_slash	11	advance_on_keypress_SLASH	42	stimuli_target_squarediamonds.svg	stimuli_distractor_diamondtriangles.svg	8	yes	57	0	751
6.6.1	mac	2022-12-14	14:51:28	15:00:06	507219	60a55d4bb6bd9be6c95b89eb	93746402	1	main_slash	11	main_slash	43	stimuli_distractor_trianglediamonds.svg	stimuli_distractor_trianglediamonds.svg	34	no	53	0	378
6.6.1	mac	2022-12-14	14:51:28	15:00:06	507219	60a55d4bb6bd9be6c95b89eb	93746402	1	main_slash	11	advance_on_keypress_SLASH	44	stimuli_distractor_trianglediamonds.svg	stimuli_distractor_trianglediamonds.svg	34	no	57	0	659
6.6.1	mac	2022-12-14	14:51:28	15:00:08	508981	60a55d4bb6bd9be6c95b89eb	93746402	1	main_slash	11	main_slash	45	stimuli_target_trianglesquares.svg	stimuli_distractor_diamondtriangles.svg	22	yes	53	1	456
6.6.1	mac	2022-12-14	14:51:28	15:00:08	508981	60a55d4bb6bd9be6c95b89eb	93746402	1	main_slash	11	advance_on_keypress_SLASH	46	stimuli_target_trianglesquares.svg	stimuli_distractor_diamondtriangles.svg	22	yes	57	0	477
6.6.1	mac	2022-12-14	14:51:28	15:00:09	510440	60a55d4bb6bd9be6c95b89eb	93746402	1	main_slash	11	main_slash	47	stimuli_target_trianglesquares.svg	stimuli_distractor_trianglediamonds.svg	18	yes	53	1	348
6.6.1	mac	2022-12-14	14:51:28	15:00:09	510440	60a55d4bb6bd9be6c95b89eb	93746402	1	main_slash	11	advance_on_keypress_SLASH	48	stimuli_target_trianglesquares.svg	stimuli_distractor_trianglediamonds.svg	18	yes	57	0	539
6.6.1	mac	2022-12-14	14:51:28	15:00:11	512120	60a55d4bb6bd9be6c95b89eb	93746402	1	main_slash	11	main_slash	49	stimuli_target_circletriangles.svg	stimuli_distractor_trianglediamonds.svg	1	yes	53	1	512
6.6.1	mac	2022-12-14	14:51:28	15:00:11	512120	60a55d4bb6bd9be6c95b89eb	93746402	1	main_slash	11	advance_on_keypress_SLASH	50	stimuli_target_circletriangles.svg	stimuli_distractor_trianglediamonds.svg	1	yes	57	0	532
6.6.1	mac	2022-12-14	14:51:28	15:00:12	513554	60a55d4bb6bd9be6c95b89eb	93746402	1	main_slash	11	main_slash	51	stimuli_distractor_diamondtriangles.svg	stimuli_target_squarediamonds.svg	16	yes	53	1	263
6.6.1	mac	2022-12-14	14:51:28	15:00:12	513554	60a55d4bb6bd9be6c95b89eb	93746402	1	main_slash	11	advance_on_keypress_SLASH	52	stimuli_distractor_diamondtriangles.svg	stimuli_target_squarediamonds.svg	16	yes	57	0	707
6.6.1	mac	2022-12-14	14:51:28	15:00:14	515195	60a55d4bb6bd9be6c95b89eb	93746402	1	main_slash	11	main_slash	53	stimuli_distractor_trianglediamonds.svg	stimuli_distractor_trianglediamonds.svg	33	no	53	0	302
6.6.1	mac	2022-12-14	14:51:28	15:00:14	515195	60a55d4bb6bd9be6c95b89eb	93746402	1	main_slash	11	advance_on_keypress_SLASH	54	stimuli_distractor_trianglediamonds.svg	stimuli_distractor_trianglediamonds.svg	33	no	57	0	731
6.6.1	mac	2022-12-14	14:51:28	15:00:16	516989	60a55d4bb6bd9be6c95b89eb	93746402	1	main_slash	11	main_slash	55	stimuli_target_circlediamonds.svg	stimuli_distractor_diamondtriangles.svg	6	yes	53	1	429
6.6.1	mac	2022-12-14	14:51:28	15:00:16	516989	60a55d4bb6bd9be6c95b89eb	93746402	1	main_slash	11	advance_on_keypress_SLASH	56	stimuli_target_circlediamonds.svg	stimuli_distractor_diamondtriangles.svg	6	yes	57	0	632
6.6.1	mac	2022-12-14	14:51:28	15:00:17	518731	60a55d4bb6bd9be6c95b89eb	93746402	1	main_slash	11	main_slash	57	stimuli_distractor_trianglediamonds.svg	stimuli_target_squarediamonds.svg	12	yes	53	1	472
6.6.1	mac	2022-12-14	14:51:28	15:00:17	518731	60a55d4bb6bd9be6c95b89eb	93746402	1	main_slash	11	advance_on_keypress_SLASH	58	stimuli_distractor_trianglediamonds.svg	stimuli_target_squarediamonds.svg	12	yes	57	0	535
6.6.1	mac	2022-12-14	14:51:28	15:00:19	520273	60a55d4bb6bd9be6c95b89eb	93746402	1	main_slash	11	main_slash	59	stimuli_target_diamondcircles.svg	stimuli_distractor_trianglediamonds.svg	19	yes	53	1	381
6.6.1	mac	2022-12-14	14:51:28	15:00:19	520273	60a55d4bb6bd9be6c95b89eb	93746402	1	main_slash	11	advance_on_keypress_SLASH	60	stimuli_target_diamondcircles.svg	stimuli_distractor_trianglediamonds.svg	19	yes	57	0	713
6.6.1	mac	2022-12-14	14:51:28	15:00:21	522057	60a55d4bb6bd9be6c95b89eb	93746402	1	main_slash	11	main_slash	61	stimuli_distractor_trianglediamonds.svg	stimuli_target_circletriangles.svg	9	yes	53	1	431
6.6.1	mac	2022-12-14	14:51:28	15:00:21	522057	60a55d4bb6bd9be6c95b89eb	93746402	1	main_slash	11	advance_on_keypress_SLASH	62	stimuli_distractor_trianglediamonds.svg	stimuli_target_circletriangles.svg	9	yes	57	0	417
6.6.1	mac	2022-12-14	14:51:28	15:00:22	523476	60a55d4bb6bd9be6c95b89eb	93746402	1	main_slash	11	main_slash	63	stimuli_distractor_trianglediamonds.svg	stimuli_target_diamondsquares.svg	28	yes	53	1	367
6.6.1	mac	2022-12-14	14:51:28	15:00:22	523476	60a55d4bb6bd9be6c95b89eb	93746402	1	main_slash	11	advance_on_keypress_SLASH	64	stimuli_distractor_trianglediamonds.svg	stimuli_target_diamondsquares.svg	28	yes	57	0	746
6.6.1	mac	2022-12-14	14:51:28	15:00:25	526859	60a55d4bb6bd9be6c95b89eb	93746402	1	main_slash	11	main_slash	65	stimuli_distractor_diamondtriangles.svg	stimuli_distractor_diamondtriangles.svg	40	no	0	1	2000
6.6.1	mac	2022-12-14	14:51:28	15:00:25	526859	60a55d4bb6bd9be6c95b89eb	93746402	1	main_slash	11	advance_on_keypress_SLASH	66	stimuli_distractor_diamondtriangles.svg	stimuli_distractor_diamondtriangles.svg	40	no	57	0	308
6.6.1	mac	2022-12-14	14:51:28	15:00:27	528164	60a55d4bb6bd9be6c95b89eb	93746402	1	main_slash	11	main_slash	67	stimuli_distractor_diamondtriangles.svg	stimuli_distractor_trianglediamonds.svg	38	no	53	0	371
6.6.1	mac	2022-12-14	14:51:28	15:00:27	528164	60a55d4bb6bd9be6c95b89eb	93746402	1	main_slash	11	advance_on_keypress_SLASH	68	stimuli_distractor_diamondtriangles.svg	stimuli_distractor_trianglediamonds.svg	38	no	57	0	590
6.6.1	mac	2022-12-14	14:51:28	15:00:28	529874	60a55d4bb6bd9be6c95b89eb	93746402	1	main_slash	11	main_slash	69	stimuli_target_squaretriangles.svg	stimuli_distractor_trianglediamonds.svg	3	yes	53	1	481
6.6.1	mac	2022-12-14	14:51:28	15:00:28	529874	60a55d4bb6bd9be6c95b89eb	93746402	1	main_slash	11	advance_on_keypress_SLASH	70	stimuli_target_squaretriangles.svg	stimuli_distractor_trianglediamonds.svg	3	yes	57	0	459
6.6.1	mac	2022-12-14	14:51:28	15:00:32	532959	60a55d4bb6bd9be6c95b89eb	93746402	1	main_slash	11	main_slash	71	stimuli_distractor_diamondtriangles.svg	stimuli_distractor_trianglediamonds.svg	37	no	0	1	2000
6.6.1	mac	2022-12-14	14:51:28	15:00:32	532959	60a55d4bb6bd9be6c95b89eb	93746402	1	main_slash	11	advance_on_keypress_SLASH	72	stimuli_distractor_diamondtriangles.svg	stimuli_distractor_trianglediamonds.svg	37	no	57	0	325
6.6.1	mac	2022-12-14	14:51:28	15:00:33	534281	60a55d4bb6bd9be6c95b89eb	93746402	1	main_slash	11	main_slash	73	stimuli_distractor_diamondtriangles.svg	stimuli_target_squaretriangles.svg	15	yes	53	1	370
6.6.1	mac	2022-12-14	14:51:28	15:00:33	534281	60a55d4bb6bd9be6c95b89eb	93746402	1	main_slash	11	advance_on_keypress_SLASH	74	stimuli_distractor_diamondtriangles.svg	stimuli_target_squaretriangles.svg	15	yes	57	0	993
6.6.1	mac	2022-12-14	14:51:28	15:00:35	536561	60a55d4bb6bd9be6c95b89eb	93746402	1	main_slash	11	main_slash	75	stimuli_distractor_diamondtriangles.svg	stimuli_target_diamondsquares.svg	32	yes	53	1	634
6.6.1	mac	2022-12-14	14:51:28	15:00:35	536561	60a55d4bb6bd9be6c95b89eb	93746402	1	main_slash	11	advance_on_keypress_SLASH	76	stimuli_distractor_diamondtriangles.svg	stimuli_target_diamondsquares.svg	32	yes	57	0	493
6.6.1	mac	2022-12-14	14:51:28	15:00:37	538170	60a55d4bb6bd9be6c95b89eb	93746402	1	main_slash	11	main_slash	77	stimuli_target_diamondsquares.svg	stimuli_distractor_diamondtriangles.svg	24	yes	53	1	493
6.6.1	mac	2022-12-14	14:51:28	15:00:37	538170	60a55d4bb6bd9be6c95b89eb	93746402	1	main_slash	11	advance_on_keypress_SLASH	78	stimuli_target_diamondsquares.svg	stimuli_distractor_diamondtriangles.svg	24	yes	57	0	539
6.6.1	mac	2022-12-14	14:51:28	15:00:38	539864	60a55d4bb6bd9be6c95b89eb	93746402	1	main_slash	11	main_slash	79	stimuli_target_circlediamonds.svg	stimuli_distractor_trianglediamonds.svg	2	yes	53	1	519
6.6.1	mac	2022-12-14	14:51:28	15:00:38	539864	60a55d4bb6bd9be6c95b89eb	93746402	1	main_slash	11	advance_on_keypress_SLASH	80	stimuli_target_circlediamonds.svg	stimuli_distractor_trianglediamonds.svg	2	yes	57	0	470
6.6.1	mac	2022-12-14	14:51:28	15:00:40	541339	60a55d4bb6bd9be6c95b89eb	93746402	1	main_slash	11	main_slash	81	stimuli_distractor_trianglediamonds.svg	stimuli_distractor_trianglediamonds.svg	34	no	53	0	379
6.6.1	mac	2022-12-14	14:51:28	15:00:40	541339	60a55d4bb6bd9be6c95b89eb	93746402	1	main_slash	11	advance_on_keypress_SLASH	82	stimuli_distractor_trianglediamonds.svg	stimuli_distractor_trianglediamonds.svg	34	no	57	0	712
6.6.1	mac	2022-12-14	14:51:28	15:00:42	543176	60a55d4bb6bd9be6c95b89eb	93746402	1	main_slash	11	main_slash	83	stimuli_target_circletriangles.svg	stimuli_distractor_diamondtriangles.svg	5	yes	53	1	483
6.6.1	mac	2022-12-14	14:51:28	15:00:42	543176	60a55d4bb6bd9be6c95b89eb	93746402	1	main_slash	11	advance_on_keypress_SLASH	84	stimuli_target_circletriangles.svg	stimuli_distractor_diamondtriangles.svg	5	yes	57	0	519
6.6.1	mac	2022-12-14	14:51:28	15:00:45	546327	60a55d4bb6bd9be6c95b89eb	93746402	1	main_slash	11	main_slash	85	stimuli_distractor_diamondtriangles.svg	stimuli_distractor_diamondtriangles.svg	39	no	0	1	2000
6.6.1	mac	2022-12-14	14:51:28	15:00:45	546327	60a55d4bb6bd9be6c95b89eb	93746402	1	main_slash	11	advance_on_keypress_SLASH	86	stimuli_distractor_diamondtriangles.svg	stimuli_distractor_diamondtriangles.svg	39	no	57	0	321
6.6.1	mac	2022-12-14	14:51:28	15:00:46	547703	60a55d4bb6bd9be6c95b89eb	93746402	1	main_slash	11	main_slash	87	stimuli_distractor_diamondtriangles.svg	stimuli_target_trianglesquares.svg	30	yes	53	1	425
6.6.1	mac	2022-12-14	14:51:28	15:00:46	547703	60a55d4bb6bd9be6c95b89eb	93746402	1	main_slash	11	advance_on_keypress_SLASH	88	stimuli_distractor_diamondtriangles.svg	stimuli_target_trianglesquares.svg	30	yes	57	0	532
6.6.1	mac	2022-12-14	14:51:28	15:00:48	549266	60a55d4bb6bd9be6c95b89eb	93746402	1	main_slash	11	main_slash	89	stimuli_target_circlediamonds.svg	stimuli_distractor_trianglediamonds.svg	2	yes	53	1	404
6.6.1	mac	2022-12-14	14:51:28	15:00:48	549266	60a55d4bb6bd9be6c95b89eb	93746402	1	main_slash	11	advance_on_keypress_SLASH	90	stimuli_target_circlediamonds.svg	stimuli_distractor_trianglediamonds.svg	2	yes	57	0	548
6.6.1	mac	2022-12-14	14:51:28	15:00:49	550832	60a55d4bb6bd9be6c95b89eb	93746402	1	main_slash	11	main_slash	91	stimuli_target_circletriangles.svg	stimuli_distractor_trianglediamonds.svg	1	yes	53	1	387
6.6.1	mac	2022-12-14	14:51:28	15:00:49	550832	60a55d4bb6bd9be6c95b89eb	93746402	1	main_slash	11	advance_on_keypress_SLASH	92	stimuli_target_circletriangles.svg	stimuli_distractor_trianglediamonds.svg	1	yes	57	0	506
6.6.1	mac	2022-12-14	14:51:28	15:00:51	552331	60a55d4bb6bd9be6c95b89eb	93746402	1	main_slash	11	main_slash	93	stimuli_distractor_diamondtriangles.svg	stimuli_target_squaretriangles.svg	15	yes	53	1	354
6.6.1	mac	2022-12-14	14:51:28	15:00:51	552331	60a55d4bb6bd9be6c95b89eb	93746402	1	main_slash	11	advance_on_keypress_SLASH	94	stimuli_distractor_diamondtriangles.svg	stimuli_target_squaretriangles.svg	15	yes	57	0	490
6.6.1	mac	2022-12-14	14:51:28	15:00:52	553877	60a55d4bb6bd9be6c95b89eb	93746402	1	main_slash	11	main_slash	95	stimuli_target_diamondcircles.svg	stimuli_distractor_diamondtriangles.svg	23	yes	53	1	432
6.6.1	mac	2022-12-14	14:51:28	15:00:52	553877	60a55d4bb6bd9be6c95b89eb	93746402	1	main_slash	11	advance_on_keypress_SLASH	96	stimuli_target_diamondcircles.svg	stimuli_distractor_diamondtriangles.svg	23	yes	57	0	563
6.6.1	mac	2022-12-14	14:51:28	15:00:54	555498	60a55d4bb6bd9be6c95b89eb	93746402	1	main_slash	11	main_slash	97	stimuli_target_trianglecircles.svg	stimuli_distractor_trianglediamonds.svg	17	yes	53	1	420
6.6.1	mac	2022-12-14	14:51:28	15:00:54	555498	60a55d4bb6bd9be6c95b89eb	93746402	1	main_slash	11	advance_on_keypress_SLASH	98	stimuli_target_trianglecircles.svg	stimuli_distractor_trianglediamonds.svg	17	yes	57	0	479
6.6.1	mac	2022-12-14	14:51:28	15:00:55	556899	60a55d4bb6bd9be6c95b89eb	93746402	1	main_slash	11	main_slash	99	stimuli_distractor_diamondtriangles.svg	stimuli_distractor_trianglediamonds.svg	38	no	53	0	304
6.6.1	mac	2022-12-14	14:51:28	15:00:55	556899	60a55d4bb6bd9be6c95b89eb	93746402	1	main_slash	11	advance_on_keypress_SLASH	100	stimuli_distractor_diamondtriangles.svg	stimuli_distractor_trianglediamonds.svg	38	no	57	0	508
6.6.1	mac	2022-12-14	14:51:28	15:00:57	558447	60a55d4bb6bd9be6c95b89eb	93746402	1	main_slash	11	main_slash	101	stimuli_target_trianglecircles.svg	stimuli_distractor_diamondtriangles.svg	21	yes	53	1	419
6.6.1	mac	2022-12-14	14:51:28	15:00:57	558447	60a55d4bb6bd9be6c95b89eb	93746402	1	main_slash	11	advance_on_keypress_SLASH	102	stimuli_target_trianglecircles.svg	stimuli_distractor_diamondtriangles.svg	21	yes	57	0	520
6.6.1	mac	2022-12-14	14:51:28	15:00:59	559967	60a55d4bb6bd9be6c95b89eb	93746402	1	main_slash	11	main_slash	103	stimuli_target_trianglesquares.svg	stimuli_distractor_trianglediamonds.svg	18	yes	53	1	372
6.6.1	mac	2022-12-14	14:51:28	15:00:59	559967	60a55d4bb6bd9be6c95b89eb	93746402	1	main_slash	11	advance_on_keypress_SLASH	104	stimuli_target_trianglesquares.svg	stimuli_distractor_trianglediamonds.svg	18	yes	57	0	480
6.6.1	mac	2022-12-14	14:51:28	15:01:00	561557	60a55d4bb6bd9be6c95b89eb	93746402	1	main_slash	11	main_slash	105	stimuli_distractor_diamondtriangles.svg	stimuli_target_diamondcircles.svg	31	yes	53	1	478
6.6.1	mac	2022-12-14	14:51:28	15:01:00	561557	60a55d4bb6bd9be6c95b89eb	93746402	1	main_slash	11	advance_on_keypress_SLASH	106	stimuli_distractor_diamondtriangles.svg	stimuli_target_diamondcircles.svg	31	yes	57	0	428
6.6.1	mac	2022-12-14	14:51:28	15:01:02	562965	60a55d4bb6bd9be6c95b89eb	93746402	1	main_slash	11	main_slash	107	stimuli_distractor_diamondtriangles.svg	stimuli_target_circlediamonds.svg	14	yes	53	1	354
6.6.1	mac	2022-12-14	14:51:28	15:01:02	562965	60a55d4bb6bd9be6c95b89eb	93746402	1	main_slash	11	advance_on_keypress_SLASH	108	stimuli_distractor_diamondtriangles.svg	stimuli_target_circlediamonds.svg	14	yes	57	0	546
6.6.1	mac	2022-12-14	14:51:28	15:01:03	564469	60a55d4bb6bd9be6c95b89eb	93746402	1	main_slash	11	main_slash	109	stimuli_distractor_diamondtriangles.svg	stimuli_target_circletriangles.svg	13	yes	53	1	341
6.6.1	mac	2022-12-14	14:51:28	15:01:03	564469	60a55d4bb6bd9be6c95b89eb	93746402	1	main_slash	11	advance_on_keypress_SLASH	110	stimuli_distractor_diamondtriangles.svg	stimuli_target_circletriangles.svg	13	yes	57	0	500
6.6.1	mac	2022-12-14	14:51:28	15:01:05	566157	60a55d4bb6bd9be6c95b89eb	93746402	1	main_slash	11	main_slash	111	stimuli_distractor_trianglediamonds.svg	stimuli_target_trianglecircles.svg	25	yes	53	1	561
6.6.1	mac	2022-12-14	14:51:28	15:01:05	566157	60a55d4bb6bd9be6c95b89eb	93746402	1	main_slash	11	advance_on_keypress_SLASH	112	stimuli_distractor_trianglediamonds.svg	stimuli_target_trianglecircles.svg	25	yes	57	0	529
6.6.1	mac	2022-12-14	14:51:28	15:01:06	567671	60a55d4bb6bd9be6c95b89eb	93746402	1	main_slash	11	main_slash	113	stimuli_distractor_diamondtriangles.svg	stimuli_target_diamondsquares.svg	32	yes	53	1	358
6.6.1	mac	2022-12-14	14:51:28	15:01:06	567671	60a55d4bb6bd9be6c95b89eb	93746402	1	main_slash	11	advance_on_keypress_SLASH	114	stimuli_distractor_diamondtriangles.svg	stimuli_target_diamondsquares.svg	32	yes	57	0	508
6.6.1	mac	2022-12-14	14:51:28	15:01:08	569150	60a55d4bb6bd9be6c95b89eb	93746402	1	main_slash	11	main_slash	115	stimuli_target_squaretriangles.svg	stimuli_distractor_diamondtriangles.svg	7	yes	53	1	337
6.6.1	mac	2022-12-14	14:51:28	15:01:08	569150	60a55d4bb6bd9be6c95b89eb	93746402	1	main_slash	11	advance_on_keypress_SLASH	116	stimuli_target_squaretriangles.svg	stimuli_distractor_diamondtriangles.svg	7	yes	57	0	510
6.6.1	mac	2022-12-14	14:51:28	15:01:11	572279	60a55d4bb6bd9be6c95b89eb	93746402	1	main_slash	11	main_slash	117	stimuli_distractor_trianglediamonds.svg	stimuli_distractor_trianglediamonds.svg	33	no	0	1	2000
6.6.1	mac	2022-12-14	14:51:28	15:01:11	572279	60a55d4bb6bd9be6c95b89eb	93746402	1	main_slash	11	advance_on_keypress_SLASH	118	stimuli_distractor_trianglediamonds.svg	stimuli_distractor_trianglediamonds.svg	33	no	57	0	422
6.6.1	mac	2022-12-14	14:51:28	15:01:12	573629	60a55d4bb6bd9be6c95b89eb	93746402	1	main_slash	11	main_slash	119	stimuli_target_squarediamonds.svg	stimuli_distractor_trianglediamonds.svg	4	yes	53	1	300
6.6.1	mac	2022-12-14	14:51:28	15:01:12	573629	60a55d4bb6bd9be6c95b89eb	93746402	1	main_slash	11	advance_on_keypress_SLASH	120	stimuli_target_squarediamonds.svg	stimuli_distractor_trianglediamonds.svg	4	yes	57	0	1039
6.6.1	mac	2022-12-14	14:51:28	15:01:16	577296	60a55d4bb6bd9be6c95b89eb	93746402	1	main_slash	11	main_slash	121	stimuli_distractor_diamondtriangles.svg	stimuli_distractor_diamondtriangles.svg	40	no	0	1	2000
6.6.1	mac	2022-12-14	14:51:28	15:01:16	577296	60a55d4bb6bd9be6c95b89eb	93746402	1	main_slash	11	advance_on_keypress_SLASH	122	stimuli_distractor_diamondtriangles.svg	stimuli_distractor_diamondtriangles.svg	40	no	57	0	461
6.6.1	mac	2022-12-14	14:51:28	15:01:17	578750	60a55d4bb6bd9be6c95b89eb	93746402	1	main_slash	11	main_slash	123	stimuli_distractor_diamondtriangles.svg	stimuli_target_trianglecircles.svg	29	yes	53	1	370
6.6.1	mac	2022-12-14	14:51:28	15:01:17	578750	60a55d4bb6bd9be6c95b89eb	93746402	1	main_slash	11	advance_on_keypress_SLASH	124	stimuli_distractor_diamondtriangles.svg	stimuli_target_trianglecircles.svg	29	yes	57	0	856
6.6.1	mac	2022-12-14	14:51:28	15:01:19	580649	60a55d4bb6bd9be6c95b89eb	93746402	1	main_slash	11	main_slash	125	stimuli_distractor_trianglediamonds.svg	stimuli_target_circletriangles.svg	9	yes	53	1	403
6.6.1	mac	2022-12-14	14:51:28	15:01:19	580649	60a55d4bb6bd9be6c95b89eb	93746402	1	main_slash	11	advance_on_keypress_SLASH	126	stimuli_distractor_trianglediamonds.svg	stimuli_target_circletriangles.svg	9	yes	57	0	491
6.6.1	mac	2022-12-14	14:51:28	15:01:21	582148	60a55d4bb6bd9be6c95b89eb	93746402	1	main_slash	11	main_slash	127	stimuli_target_circlediamonds.svg	stimuli_distractor_diamondtriangles.svg	6	yes	53	1	385
6.6.1	mac	2022-12-14	14:51:28	15:01:21	582148	60a55d4bb6bd9be6c95b89eb	93746402	1	main_slash	11	advance_on_keypress_SLASH	128	stimuli_target_circlediamonds.svg	stimuli_distractor_diamondtriangles.svg	6	yes	57	0	816
6.6.1	mac	2022-12-14	14:51:28	15:01:22	583928	60a55d4bb6bd9be6c95b89eb	93746402	1	main_slash	11	main_slash	129	stimuli_target_diamondcircles.svg	stimuli_distractor_trianglediamonds.svg	19	yes	53	1	330
6.6.1	mac	2022-12-14	14:51:28	15:01:22	583928	60a55d4bb6bd9be6c95b89eb	93746402	1	main_slash	11	advance_on_keypress_SLASH	130	stimuli_target_diamondcircles.svg	stimuli_distractor_trianglediamonds.svg	19	yes	57	0	612
6.6.1	mac	2022-12-14	14:51:28	15:01:24	585531	60a55d4bb6bd9be6c95b89eb	93746402	1	main_slash	11	main_slash	131	stimuli_distractor_trianglediamonds.svg	stimuli_target_squaretriangles.svg	11	yes	53	1	367
6.6.1	mac	2022-12-14	14:51:28	15:01:24	585531	60a55d4bb6bd9be6c95b89eb	93746402	1	main_slash	11	advance_on_keypress_SLASH	132	stimuli_distractor_trianglediamonds.svg	stimuli_target_squaretriangles.svg	11	yes	57	0	641
6.6.1	mac	2022-12-14	14:51:28	15:01:26	587117	60a55d4bb6bd9be6c95b89eb	93746402	1	main_slash	11	main_slash	133	stimuli_distractor_trianglediamonds.svg	stimuli_target_squarediamonds.svg	12	yes	53	1	302
6.6.1	mac	2022-12-14	14:51:28	15:01:26	587117	60a55d4bb6bd9be6c95b89eb	93746402	1	main_slash	11	advance_on_keypress_SLASH	134	stimuli_distractor_trianglediamonds.svg	stimuli_target_squarediamonds.svg	12	yes	57	0	593
6.6.1	mac	2022-12-14	14:51:28	15:01:27	588645	60a55d4bb6bd9be6c95b89eb	93746402	1	main_slash	11	main_slash	135	stimuli_target_diamondsquares.svg	stimuli_distractor_trianglediamonds.svg	20	yes	53	1	315
6.6.1	mac	2022-12-14	14:51:28	15:01:27	588645	60a55d4bb6bd9be6c95b89eb	93746402	1	main_slash	11	advance_on_keypress_SLASH	136	stimuli_target_diamondsquares.svg	stimuli_distractor_trianglediamonds.svg	20	yes	57	0	521
6.6.1	mac	2022-12-14	14:51:28	15:01:29	590032	60a55d4bb6bd9be6c95b89eb	93746402	1	main_slash	11	main_slash	137	stimuli_distractor_trianglediamonds.svg	stimuli_distractor_diamondtriangles.svg	36	no	53	0	235
6.6.1	mac	2022-12-14	14:51:28	15:01:29	590032	60a55d4bb6bd9be6c95b89eb	93746402	1	main_slash	11	advance_on_keypress_SLASH	138	stimuli_distractor_trianglediamonds.svg	stimuli_distractor_diamondtriangles.svg	36	no	57	0	614
6.6.1	mac	2022-12-14	14:51:28	15:01:30	591672	60a55d4bb6bd9be6c95b89eb	93746402	1	main_slash	11	main_slash	139	stimuli_target_diamondsquares.svg	stimuli_distractor_diamondtriangles.svg	24	yes	53	1	391
6.6.1	mac	2022-12-14	14:51:28	15:01:30	591672	60a55d4bb6bd9be6c95b89eb	93746402	1	main_slash	11	advance_on_keypress_SLASH	140	stimuli_target_diamondsquares.svg	stimuli_distractor_diamondtriangles.svg	24	yes	57	0	466
6.6.1	mac	2022-12-14	14:51:28	15:01:32	593140	60a55d4bb6bd9be6c95b89eb	93746402	1	main_slash	11	main_slash	141	stimuli_distractor_trianglediamonds.svg	stimuli_target_trianglesquares.svg	26	yes	53	1	376
6.6.1	mac	2022-12-14	14:51:28	15:01:32	593140	60a55d4bb6bd9be6c95b89eb	93746402	1	main_slash	11	advance_on_keypress_SLASH	142	stimuli_distractor_trianglediamonds.svg	stimuli_target_trianglesquares.svg	26	yes	57	0	511
6.6.1	mac	2022-12-14	14:51:28	15:01:35	596297	60a55d4bb6bd9be6c95b89eb	93746402	1	main_slash	11	main_slash	143	stimuli_distractor_diamondtriangles.svg	stimuli_distractor_trianglediamonds.svg	37	no	0	1	2000
6.6.1	mac	2022-12-14	14:51:28	15:01:35	596297	60a55d4bb6bd9be6c95b89eb	93746402	1	main_slash	11	advance_on_keypress_SLASH	144	stimuli_distractor_diamondtriangles.svg	stimuli_distractor_trianglediamonds.svg	37	no	57	0	458
6.6.1	mac	2022-12-14	14:51:28	15:01:36	597698	60a55d4bb6bd9be6c95b89eb	93746402	1	main_slash	11	main_slash	145	stimuli_target_trianglesquares.svg	stimuli_distractor_diamondtriangles.svg	22	yes	53	1	318
6.6.1	mac	2022-12-14	14:51:28	15:01:36	597698	60a55d4bb6bd9be6c95b89eb	93746402	1	main_slash	11	advance_on_keypress_SLASH	146	stimuli_target_trianglesquares.svg	stimuli_distractor_diamondtriangles.svg	22	yes	57	0	491
6.6.1	mac	2022-12-14	14:51:28	15:01:38	599111	60a55d4bb6bd9be6c95b89eb	93746402	1	main_slash	11	main_slash	147	stimuli_distractor_diamondtriangles.svg	stimuli_target_squarediamonds.svg	16	yes	53	1	297
6.6.1	mac	2022-12-14	14:51:28	15:01:38	599111	60a55d4bb6bd9be6c95b89eb	93746402	1	main_slash	11	advance_on_keypress_SLASH	148	stimuli_distractor_diamondtriangles.svg	stimuli_target_squarediamonds.svg	16	yes	57	0	570
6.6.1	mac	2022-12-14	14:51:28	15:01:39	600565	60a55d4bb6bd9be6c95b89eb	93746402	1	main_slash	11	main_slash	149	stimuli_target_squarediamonds.svg	stimuli_distractor_diamondtriangles.svg	8	yes	53	1	267
6.6.1	mac	2022-12-14	14:51:28	15:01:39	600565	60a55d4bb6bd9be6c95b89eb	93746402	1	main_slash	11	advance_on_keypress_SLASH	150	stimuli_target_squarediamonds.svg	stimuli_distractor_diamondtriangles.svg	8	yes	57	0	543
6.6.1	mac	2022-12-14	14:51:28	15:01:41	602052	60a55d4bb6bd9be6c95b89eb	93746402	1	main_slash	11	main_slash	151	stimuli_distractor_trianglediamonds.svg	stimuli_target_diamondsquares.svg	28	yes	53	1	320
6.6.1	mac	2022-12-14	14:51:28	15:01:41	602052	60a55d4bb6bd9be6c95b89eb	93746402	1	main_slash	11	advance_on_keypress_SLASH	152	stimuli_distractor_trianglediamonds.svg	stimuli_target_diamondsquares.svg	28	yes	57	0	445
6.6.1	mac	2022-12-14	14:51:28	15:01:42	603563	60a55d4bb6bd9be6c95b89eb	93746402	1	main_slash	11	main_slash	153	stimuli_distractor_trianglediamonds.svg	stimuli_target_diamondcircles.svg	27	yes	53	1	448
6.6.1	mac	2022-12-14	14:51:28	15:01:42	603563	60a55d4bb6bd9be6c95b89eb	93746402	1	main_slash	11	advance_on_keypress_SLASH	154	stimuli_distractor_trianglediamonds.svg	stimuli_target_diamondcircles.svg	27	yes	57	0	483
6.6.1	mac	2022-12-14	14:51:28	15:01:43	604929	60a55d4bb6bd9be6c95b89eb	93746402	1	main_slash	11	main_slash	155	stimuli_distractor_trianglediamonds.svg	stimuli_target_circlediamonds.svg	10	yes	53	1	247
6.6.1	mac	2022-12-14	14:51:28	15:01:43	604929	60a55d4bb6bd9be6c95b89eb	93746402	1	main_slash	11	advance_on_keypress_SLASH	156	stimuli_distractor_trianglediamonds.svg	stimuli_target_circlediamonds.svg	10	yes	57	0	464
6.6.1	mac	2022-12-14	14:51:28	15:01:45	606376	60a55d4bb6bd9be6c95b89eb	93746402	1	main_slash	11	main_slash	157	stimuli_target_squaretriangles.svg	stimuli_distractor_trianglediamonds.svg	3	yes	53	1	344
6.6.1	mac	2022-12-14	14:51:28	15:01:45	606376	60a55d4bb6bd9be6c95b89eb	93746402	1	main_slash	11	advance_on_keypress_SLASH	158	stimuli_target_squaretriangles.svg	stimuli_distractor_trianglediamonds.svg	3	yes	57	0	399
6.6.1	mac	2022-12-14	14:51:28	15:01:46	607667	60a55d4bb6bd9be6c95b89eb	93746402	1	main_slash	11	main_slash	159	stimuli_distractor_trianglediamonds.svg	stimuli_distractor_diamondtriangles.svg	35	no	53	0	269
6.6.1	mac	2022-12-14	14:51:28	15:01:46	607667	60a55d4bb6bd9be6c95b89eb	93746402	1	main_slash	11	advance_on_keypress_SLASH	160	stimuli_distractor_trianglediamonds.svg	stimuli_distractor_diamondtriangles.svg	35	no	57	0	534