build	computer.platform	date	time	timestamp	time_elapsed_ms	subject	group	session	blockcode	blocknum	trialcode	trialnum	stimulus_left	stimulus_right	stim_index	target_present	response	correct	latency
6.6.1	win	2022-12-14	20:58:11	21:01:12	179344	5dcb685070d51c8275d7bd54	370979094	1	practice_z	5	practice_z	1	stimuli_distractor_trianglediamonds.svg	stimuli_distractor_trianglediamonds.svg	15	no	0	1	2000
6.6.1	win	2022-12-14	20:58:11	21:01:12	179344	5dcb685070d51c8275d7bd54	370979094	1	practice_z	5	advance_on_keypress_ZEE	2	stimuli_distractor_trianglediamonds.svg	stimuli_distractor_trianglediamonds.svg	15	no	57	0	766
6.6.1	win	2022-12-14	20:58:11	21:01:16	182839	5dcb685070d51c8275d7bd54	370979094	1	practice_z	5	practice_z	3	stimuli_target_squarediamonds.svg	stimuli_distractor_diamondtriangles.svg	2	yes	44	1	1078
6.6.1	win	2022-12-14	20:58:11	21:01:16	182839	5dcb685070d51c8275d7bd54	370979094	1	practice_z	5	advance_on_keypress_ZEE	4	stimuli_target_squarediamonds.svg	stimuli_distractor_diamondtriangles.svg	2	yes	57	0	522
6.6.1	win	2022-12-14	20:58:11	21:01:20	187011	5dcb685070d51c8275d7bd54	370979094	1	practice_z	5	practice_z	5	stimuli_target_diamondsquares.svg	stimuli_distractor_trianglediamonds.svg	6	yes	0	0	2000
6.6.1	win	2022-12-14	20:58:11	21:01:20	187011	5dcb685070d51c8275d7bd54	370979094	1	practice_z	5	advance_on_keypress_ZEE	6	stimuli_target_diamondsquares.svg	stimuli_distractor_trianglediamonds.svg	6	yes	57	0	579
6.6.1	win	2022-12-14	20:58:11	21:01:23	190655	5dcb685070d51c8275d7bd54	370979094	1	practice_z	5	practice_z	7	stimuli_distractor_diamondtriangles.svg	stimuli_target_diamondcircles.svg	8	yes	44	1	1410
6.6.1	win	2022-12-14	20:58:11	21:01:23	190655	5dcb685070d51c8275d7bd54	370979094	1	practice_z	5	advance_on_keypress_ZEE	8	stimuli_distractor_diamondtriangles.svg	stimuli_target_diamondcircles.svg	8	yes	57	0	498
6.6.1	win	2022-12-14	20:58:11	21:01:28	194795	5dcb685070d51c8275d7bd54	370979094	1	practice_z	5	practice_z	9	stimuli_distractor_trianglediamonds.svg	stimuli_target_squarediamonds.svg	11	yes	0	0	2000
6.6.1	win	2022-12-14	20:58:11	21:01:28	194795	5dcb685070d51c8275d7bd54	370979094	1	practice_z	5	advance_on_keypress_ZEE	10	stimuli_distractor_trianglediamonds.svg	stimuli_target_squarediamonds.svg	11	yes	57	0	420
6.6.1	win	2022-12-14	20:58:11	21:01:32	198861	5dcb685070d51c8275d7bd54	370979094	1	practice_z	5	practice_z	11	stimuli_distractor_diamondtriangles.svg	stimuli_distractor_diamondtriangles.svg	13	no	0	1	2000
6.6.1	win	2022-12-14	20:58:11	21:01:32	198861	5dcb685070d51c8275d7bd54	370979094	1	practice_z	5	advance_on_keypress_ZEE	12	stimuli_distractor_diamondtriangles.svg	stimuli_distractor_diamondtriangles.svg	13	no	57	0	641
6.6.1	win	2022-12-14	20:58:11	21:01:35	202631	5dcb685070d51c8275d7bd54	370979094	1	practice_z	5	practice_z	13	stimuli_target_circlediamonds.svg	stimuli_distractor_diamondtriangles.svg	1	yes	44	1	1486
6.6.1	win	2022-12-14	20:58:11	21:01:35	202631	5dcb685070d51c8275d7bd54	370979094	1	practice_z	5	advance_on_keypress_ZEE	14	stimuli_target_circlediamonds.svg	stimuli_distractor_diamondtriangles.svg	1	yes	57	0	651
6.6.1	win	2022-12-14	20:58:11	21:01:39	206143	5dcb685070d51c8275d7bd54	370979094	1	practice_z	5	practice_z	15	stimuli_distractor_diamondtriangles.svg	stimuli_target_trianglecircles.svg	9	yes	44	1	1215
6.6.1	win	2022-12-14	20:58:11	21:01:39	206143	5dcb685070d51c8275d7bd54	370979094	1	practice_z	5	advance_on_keypress_ZEE	16	stimuli_distractor_diamondtriangles.svg	stimuli_target_trianglecircles.svg	9	yes	57	0	438
6.6.1	win	2022-12-14	20:58:11	21:01:42	209527	5dcb685070d51c8275d7bd54	370979094	1	practice_z	5	practice_z	17	stimuli_target_diamondsquares.svg	stimuli_distractor_diamondtriangles.svg	3	yes	44	1	1300
6.6.1	win	2022-12-14	20:58:11	21:01:42	209527	5dcb685070d51c8275d7bd54	370979094	1	practice_z	5	advance_on_keypress_ZEE	18	stimuli_target_diamondsquares.svg	stimuli_distractor_diamondtriangles.svg	3	yes	57	0	862
6.6.1	win	2022-12-14	20:58:11	21:01:47	214045	5dcb685070d51c8275d7bd54	370979094	1	practice_z	5	practice_z	19	stimuli_distractor_trianglediamonds.svg	stimuli_distractor_diamondtriangles.svg	16	no	0	1	2000
6.6.1	win	2022-12-14	20:58:11	21:01:47	214045	5dcb685070d51c8275d7bd54	370979094	1	practice_z	5	advance_on_keypress_ZEE	20	stimuli_distractor_trianglediamonds.svg	stimuli_distractor_diamondtriangles.svg	16	no	57	0	546
6.6.1	win	2022-12-14	20:58:11	21:01:50	217247	5dcb685070d51c8275d7bd54	370979094	1	practice_z	5	practice_z	21	stimuli_distractor_trianglediamonds.svg	stimuli_target_circlediamonds.svg	10	yes	44	1	1002
6.6.1	win	2022-12-14	20:58:11	21:01:50	217247	5dcb685070d51c8275d7bd54	370979094	1	practice_z	5	advance_on_keypress_ZEE	22	stimuli_distractor_trianglediamonds.svg	stimuli_target_circlediamonds.svg	10	yes	57	0	1282
6.6.1	win	2022-12-14	20:58:11	21:01:54	221167	5dcb685070d51c8275d7bd54	370979094	1	practice_z	5	practice_z	23	stimuli_target_squarediamonds.svg	stimuli_distractor_trianglediamonds.svg	5	yes	44	1	989
6.6.1	win	2022-12-14	20:58:11	21:01:54	221167	5dcb685070d51c8275d7bd54	370979094	1	practice_z	5	advance_on_keypress_ZEE	24	stimuli_target_squarediamonds.svg	stimuli_distractor_trianglediamonds.svg	5	yes	57	0	589
6.6.1	win	2022-12-14	20:58:11	21:01:57	224407	5dcb685070d51c8275d7bd54	370979094	1	practice_z	5	practice_z	25	stimuli_target_circlediamonds.svg	stimuli_distractor_trianglediamonds.svg	4	yes	44	1	1012
6.6.1	win	2022-12-14	20:58:11	21:01:57	224407	5dcb685070d51c8275d7bd54	370979094	1	practice_z	5	advance_on_keypress_ZEE	26	stimuli_target_circlediamonds.svg	stimuli_distractor_trianglediamonds.svg	4	yes	57	0	475
6.6.1	win	2022-12-14	20:58:11	21:02:01	228528	5dcb685070d51c8275d7bd54	370979094	1	practice_z	5	practice_z	27	stimuli_distractor_diamondtriangles.svg	stimuli_distractor_trianglediamonds.svg	14	no	0	1	2000
6.6.1	win	2022-12-14	20:58:11	21:02:01	228528	5dcb685070d51c8275d7bd54	370979094	1	practice_z	5	advance_on_keypress_ZEE	28	stimuli_distractor_diamondtriangles.svg	stimuli_distractor_trianglediamonds.svg	14	no	57	0	606
6.6.1	win	2022-12-14	20:58:11	21:02:04	231696	5dcb685070d51c8275d7bd54	370979094	1	practice_z	5	practice_z	29	stimuli_distractor_diamondtriangles.svg	stimuli_target_circletriangles.svg	7	yes	44	1	918
6.6.1	win	2022-12-14	20:58:11	21:02:04	231696	5dcb685070d51c8275d7bd54	370979094	1	practice_z	5	advance_on_keypress_ZEE	30	stimuli_distractor_diamondtriangles.svg	stimuli_target_circletriangles.svg	7	yes	57	0	616
6.6.1	win	2022-12-14	20:58:11	21:02:08	234871	5dcb685070d51c8275d7bd54	370979094	1	practice_z	5	practice_z	31	stimuli_distractor_trianglediamonds.svg	stimuli_target_diamondcircles.svg	12	yes	44	1	910
6.6.1	win	2022-12-14	20:58:11	21:02:08	234871	5dcb685070d51c8275d7bd54	370979094	1	practice_z	5	advance_on_keypress_ZEE	32	stimuli_distractor_trianglediamonds.svg	stimuli_target_diamondcircles.svg	12	yes	57	0	489
6.6.1	win	2022-12-14	20:58:11	21:02:13	240061	5dcb685070d51c8275d7bd54	370979094	1	main_z	7	main_z	1	stimuli_target_squarediamonds.svg	stimuli_distractor_trianglediamonds.svg	4	yes	44	1	835
6.6.1	win	2022-12-14	20:58:11	21:02:13	240061	5dcb685070d51c8275d7bd54	370979094	1	main_z	7	advance_on_keypress_ZEE	2	stimuli_target_squarediamonds.svg	stimuli_distractor_trianglediamonds.svg	4	yes	57	0	889
6.6.1	win	2022-12-14	20:58:11	21:02:16	243593	5dcb685070d51c8275d7bd54	370979094	1	main_z	7	main_z	3	stimuli_distractor_diamondtriangles.svg	stimuli_distractor_diamondtriangles.svg	39	no	0	1	2000
6.6.1	win	2022-12-14	20:58:11	21:02:16	243593	5dcb685070d51c8275d7bd54	370979094	1	main_z	7	advance_on_keypress_ZEE	4	stimuli_distractor_diamondtriangles.svg	stimuli_distractor_diamondtriangles.svg	39	no	57	0	620
6.6.1	win	2022-12-14	20:58:11	21:02:19	246245	5dcb685070d51c8275d7bd54	370979094	1	main_z	7	main_z	5	stimuli_distractor_trianglediamonds.svg	stimuli_target_trianglecircles.svg	25	yes	44	1	1386
6.6.1	win	2022-12-14	20:58:11	21:02:19	246245	5dcb685070d51c8275d7bd54	370979094	1	main_z	7	advance_on_keypress_ZEE	6	stimuli_distractor_trianglediamonds.svg	stimuli_target_trianglecircles.svg	25	yes	57	0	786
6.6.1	win	2022-12-14	20:58:11	21:02:22	249013	5dcb685070d51c8275d7bd54	370979094	1	main_z	7	main_z	7	stimuli_distractor_trianglediamonds.svg	stimuli_target_trianglesquares.svg	26	yes	44	1	1337
6.6.1	win	2022-12-14	20:58:11	21:02:22	249013	5dcb685070d51c8275d7bd54	370979094	1	main_z	7	advance_on_keypress_ZEE	8	stimuli_distractor_trianglediamonds.svg	stimuli_target_trianglesquares.svg	26	yes	57	0	852
6.6.1	win	2022-12-14	20:58:11	21:02:25	252510	5dcb685070d51c8275d7bd54	370979094	1	main_z	7	main_z	9	stimuli_distractor_trianglediamonds.svg	stimuli_distractor_diamondtriangles.svg	36	no	0	1	2000
6.6.1	win	2022-12-14	20:58:11	21:02:25	252510	5dcb685070d51c8275d7bd54	370979094	1	main_z	7	advance_on_keypress_ZEE	10	stimuli_distractor_trianglediamonds.svg	stimuli_distractor_diamondtriangles.svg	36	no	57	0	607
6.6.1	win	2022-12-14	20:58:11	21:02:28	255760	5dcb685070d51c8275d7bd54	370979094	1	main_z	7	main_z	11	stimuli_target_trianglesquares.svg	stimuli_distractor_trianglediamonds.svg	18	yes	0	0	2000
6.6.1	win	2022-12-14	20:58:11	21:02:28	255760	5dcb685070d51c8275d7bd54	370979094	1	main_z	7	advance_on_keypress_ZEE	12	stimuli_target_trianglesquares.svg	stimuli_distractor_trianglediamonds.svg	18	yes	57	0	861
6.6.1	win	2022-12-14	20:58:11	21:02:31	258005	5dcb685070d51c8275d7bd54	370979094	1	main_z	7	main_z	13	stimuli_distractor_trianglediamonds.svg	stimuli_target_circletriangles.svg	9	yes	44	1	746
6.6.1	win	2022-12-14	20:58:11	21:02:31	258005	5dcb685070d51c8275d7bd54	370979094	1	main_z	7	advance_on_keypress_ZEE	14	stimuli_distractor_trianglediamonds.svg	stimuli_target_circletriangles.svg	9	yes	57	0	1260
6.6.1	win	2022-12-14	20:58:11	21:02:33	260637	5dcb685070d51c8275d7bd54	370979094	1	main_z	7	main_z	15	stimuli_target_trianglecircles.svg	stimuli_distractor_trianglediamonds.svg	17	yes	44	1	744
6.6.1	win	2022-12-14	20:58:11	21:02:33	260637	5dcb685070d51c8275d7bd54	370979094	1	main_z	7	advance_on_keypress_ZEE	16	stimuli_target_trianglecircles.svg	stimuli_distractor_trianglediamonds.svg	17	yes	57	0	675
6.6.1	win	2022-12-14	20:58:11	21:02:37	263944	5dcb685070d51c8275d7bd54	370979094	1	main_z	7	main_z	17	stimuli_distractor_diamondtriangles.svg	stimuli_target_circletriangles.svg	13	yes	0	0	2000
6.6.1	win	2022-12-14	20:58:11	21:02:37	263944	5dcb685070d51c8275d7bd54	370979094	1	main_z	7	advance_on_keypress_ZEE	18	stimuli_distractor_diamondtriangles.svg	stimuli_target_circletriangles.svg	13	yes	57	0	519
6.6.1	win	2022-12-14	20:58:11	21:02:40	267109	5dcb685070d51c8275d7bd54	370979094	1	main_z	7	main_z	19	stimuli_target_diamondsquares.svg	stimuli_distractor_diamondtriangles.svg	24	yes	0	0	2000
6.6.1	win	2022-12-14	20:58:11	21:02:40	267109	5dcb685070d51c8275d7bd54	370979094	1	main_z	7	advance_on_keypress_ZEE	20	stimuli_target_diamondsquares.svg	stimuli_distractor_diamondtriangles.svg	24	yes	57	0	463
6.6.1	win	2022-12-14	20:58:11	21:02:42	269125	5dcb685070d51c8275d7bd54	370979094	1	main_z	7	main_z	21	stimuli_target_circletriangles.svg	stimuli_distractor_diamondtriangles.svg	5	yes	44	1	899
6.6.1	win	2022-12-14	20:58:11	21:02:42	269125	5dcb685070d51c8275d7bd54	370979094	1	main_z	7	advance_on_keypress_ZEE	22	stimuli_target_circletriangles.svg	stimuli_distractor_diamondtriangles.svg	5	yes	57	0	934
6.6.1	win	2022-12-14	20:58:11	21:02:45	272045	5dcb685070d51c8275d7bd54	370979094	1	main_z	7	main_z	23	stimuli_distractor_trianglediamonds.svg	stimuli_target_diamondcircles.svg	27	yes	44	1	1336
6.6.1	win	2022-12-14	20:58:11	21:02:45	272045	5dcb685070d51c8275d7bd54	370979094	1	main_z	7	advance_on_keypress_ZEE	24	stimuli_distractor_trianglediamonds.svg	stimuli_target_diamondcircles.svg	27	yes	57	0	650
6.6.1	win	2022-12-14	20:58:11	21:02:48	275343	5dcb685070d51c8275d7bd54	370979094	1	main_z	7	main_z	25	stimuli_target_circlediamonds.svg	stimuli_distractor_diamondtriangles.svg	6	yes	0	0	2000
6.6.1	win	2022-12-14	20:58:11	21:02:48	275343	5dcb685070d51c8275d7bd54	370979094	1	main_z	7	advance_on_keypress_ZEE	26	stimuli_target_circlediamonds.svg	stimuli_distractor_diamondtriangles.svg	6	yes	57	0	742
6.6.1	win	2022-12-14	20:58:11	21:02:51	278726	5dcb685070d51c8275d7bd54	370979094	1	main_z	7	main_z	27	stimuli_distractor_trianglediamonds.svg	stimuli_distractor_trianglediamonds.svg	33	no	0	1	2000
6.6.1	win	2022-12-14	20:58:11	21:02:51	278726	5dcb685070d51c8275d7bd54	370979094	1	main_z	7	advance_on_keypress_ZEE	28	stimuli_distractor_trianglediamonds.svg	stimuli_distractor_trianglediamonds.svg	33	no	57	0	342
6.6.1	win	2022-12-14	20:58:11	21:02:54	281710	5dcb685070d51c8275d7bd54	370979094	1	main_z	7	main_z	29	stimuli_distractor_trianglediamonds.svg	stimuli_target_squarediamonds.svg	12	yes	0	0	2000
6.6.1	win	2022-12-14	20:58:11	21:02:54	281710	5dcb685070d51c8275d7bd54	370979094	1	main_z	7	advance_on_keypress_ZEE	30	stimuli_distractor_trianglediamonds.svg	stimuli_target_squarediamonds.svg	12	yes	57	0	359
6.6.1	win	2022-12-14	20:58:11	21:02:57	283837	5dcb685070d51c8275d7bd54	370979094	1	main_z	7	main_z	31	stimuli_target_trianglesquares.svg	stimuli_distractor_diamondtriangles.svg	22	yes	44	1	1128
6.6.1	win	2022-12-14	20:58:11	21:02:57	283837	5dcb685070d51c8275d7bd54	370979094	1	main_z	7	advance_on_keypress_ZEE	32	stimuli_target_trianglesquares.svg	stimuli_distractor_diamondtriangles.svg	22	yes	57	0	771
6.6.1	win	2022-12-14	20:58:11	21:02:59	286205	5dcb685070d51c8275d7bd54	370979094	1	main_z	7	main_z	33	stimuli_target_squaretriangles.svg	stimuli_distractor_diamondtriangles.svg	7	yes	44	1	962
6.6.1	win	2022-12-14	20:58:11	21:02:59	286205	5dcb685070d51c8275d7bd54	370979094	1	main_z	7	advance_on_keypress_ZEE	34	stimuli_target_squaretriangles.svg	stimuli_distractor_diamondtriangles.svg	7	yes	57	0	651
6.6.1	win	2022-12-14	20:58:11	21:03:01	288517	5dcb685070d51c8275d7bd54	370979094	1	main_z	7	main_z	35	stimuli_distractor_trianglediamonds.svg	stimuli_target_circlediamonds.svg	10	yes	44	1	1008
6.6.1	win	2022-12-14	20:58:11	21:03:01	288517	5dcb685070d51c8275d7bd54	370979094	1	main_z	7	advance_on_keypress_ZEE	36	stimuli_distractor_trianglediamonds.svg	stimuli_target_circlediamonds.svg	10	yes	57	0	936
6.6.1	win	2022-12-14	20:58:11	21:03:04	291053	5dcb685070d51c8275d7bd54	370979094	1	main_z	7	main_z	37	stimuli_distractor_diamondtriangles.svg	stimuli_target_squaretriangles.svg	15	yes	44	1	960
6.6.1	win	2022-12-14	20:58:11	21:03:04	291053	5dcb685070d51c8275d7bd54	370979094	1	main_z	7	advance_on_keypress_ZEE	38	stimuli_distractor_diamondtriangles.svg	stimuli_target_squaretriangles.svg	15	yes	57	0	866
6.6.1	win	2022-12-14	20:58:11	21:03:07	294560	5dcb685070d51c8275d7bd54	370979094	1	main_z	7	main_z	39	stimuli_distractor_trianglediamonds.svg	stimuli_target_diamondsquares.svg	28	yes	0	0	2000
6.6.1	win	2022-12-14	20:58:11	21:03:07	294560	5dcb685070d51c8275d7bd54	370979094	1	main_z	7	advance_on_keypress_ZEE	40	stimuli_distractor_trianglediamonds.svg	stimuli_target_diamondsquares.svg	28	yes	57	0	429
6.6.1	win	2022-12-14	20:58:11	21:03:10	297643	5dcb685070d51c8275d7bd54	370979094	1	main_z	7	main_z	41	stimuli_distractor_diamondtriangles.svg	stimuli_target_diamondcircles.svg	31	yes	0	0	2000
6.6.1	win	2022-12-14	20:58:11	21:03:10	297643	5dcb685070d51c8275d7bd54	370979094	1	main_z	7	advance_on_keypress_ZEE	42	stimuli_distractor_diamondtriangles.svg	stimuli_target_diamondcircles.svg	31	yes	57	0	490
6.6.1	win	2022-12-14	20:58:11	21:03:14	300776	5dcb685070d51c8275d7bd54	370979094	1	main_z	7	main_z	43	stimuli_target_diamondcircles.svg	stimuli_distractor_diamondtriangles.svg	23	yes	0	0	2000
6.6.1	win	2022-12-14	20:58:11	21:03:14	300776	5dcb685070d51c8275d7bd54	370979094	1	main_z	7	advance_on_keypress_ZEE	44	stimuli_target_diamondcircles.svg	stimuli_distractor_diamondtriangles.svg	23	yes	57	0	428
6.6.1	win	2022-12-14	20:58:11	21:03:17	303843	5dcb685070d51c8275d7bd54	370979094	1	main_z	7	main_z	45	stimuli_distractor_diamondtriangles.svg	stimuli_distractor_diamondtriangles.svg	40	no	0	1	2000
6.6.1	win	2022-12-14	20:58:11	21:03:17	303843	5dcb685070d51c8275d7bd54	370979094	1	main_z	7	advance_on_keypress_ZEE	46	stimuli_distractor_diamondtriangles.svg	stimuli_distractor_diamondtriangles.svg	40	no	57	0	2114
6.6.1	win	2022-12-14	20:58:11	21:03:21	308610	5dcb685070d51c8275d7bd54	370979094	1	main_z	7	main_z	47	stimuli_distractor_diamondtriangles.svg	stimuli_distractor_trianglediamonds.svg	37	no	0	1	2000
6.6.1	win	2022-12-14	20:58:11	21:03:21	308610	5dcb685070d51c8275d7bd54	370979094	1	main_z	7	advance_on_keypress_ZEE	48	stimuli_distractor_diamondtriangles.svg	stimuli_distractor_trianglediamonds.svg	37	no	57	0	643
6.6.1	win	2022-12-14	20:58:11	21:03:24	310813	5dcb685070d51c8275d7bd54	370979094	1	main_z	7	main_z	49	stimuli_distractor_diamondtriangles.svg	stimuli_target_trianglesquares.svg	30	yes	44	1	921
6.6.1	win	2022-12-14	20:58:11	21:03:24	310813	5dcb685070d51c8275d7bd54	370979094	1	main_z	7	advance_on_keypress_ZEE	50	stimuli_distractor_diamondtriangles.svg	stimuli_target_trianglesquares.svg	30	yes	57	0	1875
6.6.1	win	2022-12-14	20:58:11	21:03:27	314653	5dcb685070d51c8275d7bd54	370979094	1	main_z	7	main_z	51	stimuli_distractor_diamondtriangles.svg	stimuli_distractor_trianglediamonds.svg	38	no	44	0	1327
6.6.1	win	2022-12-14	20:58:11	21:03:27	314653	5dcb685070d51c8275d7bd54	370979094	1	main_z	7	advance_on_keypress_ZEE	52	stimuli_distractor_diamondtriangles.svg	stimuli_distractor_trianglediamonds.svg	38	no	57	0	1138
6.6.1	win	2022-12-14	20:58:11	21:03:30	317469	5dcb685070d51c8275d7bd54	370979094	1	main_z	7	main_z	53	stimuli_target_circlediamonds.svg	stimuli_distractor_trianglediamonds.svg	2	yes	44	1	1043
6.6.1	win	2022-12-14	20:58:11	21:03:30	317469	5dcb685070d51c8275d7bd54	370979094	1	main_z	7	advance_on_keypress_ZEE	54	stimuli_target_circlediamonds.svg	stimuli_distractor_trianglediamonds.svg	2	yes	57	0	4145
6.6.1	win	2022-12-14	20:58:11	21:03:37	324243	5dcb685070d51c8275d7bd54	370979094	1	main_z	7	main_z	55	stimuli_target_diamondsquares.svg	stimuli_distractor_trianglediamonds.svg	20	yes	0	0	2000
6.6.1	win	2022-12-14	20:58:11	21:03:37	324243	5dcb685070d51c8275d7bd54	370979094	1	main_z	7	advance_on_keypress_ZEE	56	stimuli_target_diamondsquares.svg	stimuli_distractor_trianglediamonds.svg	20	yes	57	0	1194
6.6.1	win	2022-12-14	20:58:11	21:03:41	328076	5dcb685070d51c8275d7bd54	370979094	1	main_z	7	main_z	57	stimuli_target_circletriangles.svg	stimuli_distractor_trianglediamonds.svg	1	yes	0	0	2000
6.6.1	win	2022-12-14	20:58:11	21:03:41	328076	5dcb685070d51c8275d7bd54	370979094	1	main_z	7	advance_on_keypress_ZEE	58	stimuli_target_circletriangles.svg	stimuli_distractor_trianglediamonds.svg	1	yes	57	0	1152
6.6.1	win	2022-12-14	20:58:11	21:03:44	331607	5dcb685070d51c8275d7bd54	370979094	1	main_z	7	main_z	59	stimuli_target_squarediamonds.svg	stimuli_distractor_diamondtriangles.svg	8	yes	44	1	1730
6.6.1	win	2022-12-14	20:58:11	21:03:44	331607	5dcb685070d51c8275d7bd54	370979094	1	main_z	7	advance_on_keypress_ZEE	60	stimuli_target_squarediamonds.svg	stimuli_distractor_diamondtriangles.svg	8	yes	57	0	731
6.6.1	win	2022-12-14	20:58:11	21:03:48	334993	5dcb685070d51c8275d7bd54	370979094	1	main_z	7	main_z	61	stimuli_distractor_diamondtriangles.svg	stimuli_target_squarediamonds.svg	16	yes	0	0	2000
6.6.1	win	2022-12-14	20:58:11	21:03:48	334993	5dcb685070d51c8275d7bd54	370979094	1	main_z	7	advance_on_keypress_ZEE	62	stimuli_distractor_diamondtriangles.svg	stimuli_target_squarediamonds.svg	16	yes	57	0	484
6.6.1	win	2022-12-14	20:58:11	21:03:50	337142	5dcb685070d51c8275d7bd54	370979094	1	main_z	7	main_z	63	stimuli_target_squaretriangles.svg	stimuli_distractor_trianglediamonds.svg	3	yes	44	1	1015
6.6.1	win	2022-12-14	20:58:11	21:03:50	337142	5dcb685070d51c8275d7bd54	370979094	1	main_z	7	advance_on_keypress_ZEE	64	stimuli_target_squaretriangles.svg	stimuli_distractor_trianglediamonds.svg	3	yes	57	0	782
6.6.1	win	2022-12-14	20:58:11	21:03:53	340576	5dcb685070d51c8275d7bd54	370979094	1	main_z	7	main_z	65	stimuli_distractor_trianglediamonds.svg	stimuli_distractor_trianglediamonds.svg	34	no	0	1	2000
6.6.1	win	2022-12-14	20:58:11	21:03:53	340576	5dcb685070d51c8275d7bd54	370979094	1	main_z	7	advance_on_keypress_ZEE	66	stimuli_distractor_trianglediamonds.svg	stimuli_distractor_trianglediamonds.svg	34	no	57	0	444
6.6.1	win	2022-12-14	20:58:11	21:03:56	342885	5dcb685070d51c8275d7bd54	370979094	1	main_z	7	main_z	67	stimuli_distractor_trianglediamonds.svg	stimuli_target_squaretriangles.svg	11	yes	44	1	1226
6.6.1	win	2022-12-14	20:58:11	21:03:56	342885	5dcb685070d51c8275d7bd54	370979094	1	main_z	7	advance_on_keypress_ZEE	68	stimuli_distractor_trianglediamonds.svg	stimuli_target_squaretriangles.svg	11	yes	57	0	1217
6.6.1	win	2022-12-14	20:58:11	21:03:59	346743	5dcb685070d51c8275d7bd54	370979094	1	main_z	7	main_z	69	stimuli_distractor_trianglediamonds.svg	stimuli_distractor_diamondtriangles.svg	35	no	0	1	2000
6.6.1	win	2022-12-14	20:58:11	21:03:59	346743	5dcb685070d51c8275d7bd54	370979094	1	main_z	7	advance_on_keypress_ZEE	70	stimuli_distractor_trianglediamonds.svg	stimuli_distractor_diamondtriangles.svg	35	no	57	0	1254
6.6.1	win	2022-12-14	20:58:11	21:04:03	349981	5dcb685070d51c8275d7bd54	370979094	1	main_z	7	main_z	71	stimuli_target_trianglecircles.svg	stimuli_distractor_diamondtriangles.svg	21	yes	44	1	1339
6.6.1	win	2022-12-14	20:58:11	21:04:03	349981	5dcb685070d51c8275d7bd54	370979094	1	main_z	7	advance_on_keypress_ZEE	72	stimuli_target_trianglecircles.svg	stimuli_distractor_diamondtriangles.svg	21	yes	57	0	788
6.6.1	win	2022-12-14	20:58:11	21:04:06	353410	5dcb685070d51c8275d7bd54	370979094	1	main_z	7	main_z	73	stimuli_distractor_diamondtriangles.svg	stimuli_target_diamondsquares.svg	32	yes	0	0	2000
6.6.1	win	2022-12-14	20:58:11	21:04:06	353410	5dcb685070d51c8275d7bd54	370979094	1	main_z	7	advance_on_keypress_ZEE	74	stimuli_distractor_diamondtriangles.svg	stimuli_target_diamondsquares.svg	32	yes	57	0	411
6.6.1	win	2022-12-14	20:58:11	21:04:09	356460	5dcb685070d51c8275d7bd54	370979094	1	main_z	7	main_z	75	stimuli_target_diamondcircles.svg	stimuli_distractor_trianglediamonds.svg	19	yes	0	0	2000
6.6.1	win	2022-12-14	20:58:11	21:04:09	356460	5dcb685070d51c8275d7bd54	370979094	1	main_z	7	advance_on_keypress_ZEE	76	stimuli_target_diamondcircles.svg	stimuli_distractor_trianglediamonds.svg	19	yes	57	0	601
6.6.1	win	2022-12-14	20:58:11	21:04:11	358661	5dcb685070d51c8275d7bd54	370979094	1	main_z	7	main_z	77	stimuli_distractor_diamondtriangles.svg	stimuli_target_trianglecircles.svg	29	yes	44	1	952
6.6.1	win	2022-12-14	20:58:11	21:04:11	358661	5dcb685070d51c8275d7bd54	370979094	1	main_z	7	advance_on_keypress_ZEE	78	stimuli_distractor_diamondtriangles.svg	stimuli_target_trianglecircles.svg	29	yes	57	0	1265
6.6.1	win	2022-12-14	20:58:11	21:04:14	361405	5dcb685070d51c8275d7bd54	370979094	1	main_z	7	main_z	79	stimuli_distractor_diamondtriangles.svg	stimuli_target_circlediamonds.svg	14	yes	44	1	829
6.6.1	win	2022-12-14	20:58:11	21:04:14	361405	5dcb685070d51c8275d7bd54	370979094	1	main_z	7	advance_on_keypress_ZEE	80	stimuli_distractor_diamondtriangles.svg	stimuli_target_circlediamonds.svg	14	yes	57	0	1419
6.6.1	win	2022-12-14	20:58:11	21:04:17	364701	5dcb685070d51c8275d7bd54	370979094	1	main_z	7	main_z	81	stimuli_distractor_trianglediamonds.svg	stimuli_target_squaretriangles.svg	11	yes	44	1	1225
6.6.1	win	2022-12-14	20:58:11	21:04:17	364701	5dcb685070d51c8275d7bd54	370979094	1	main_z	7	advance_on_keypress_ZEE	82	stimuli_distractor_trianglediamonds.svg	stimuli_target_squaretriangles.svg	11	yes	57	0	920
6.6.1	win	2022-12-14	20:58:11	21:04:21	367877	5dcb685070d51c8275d7bd54	370979094	1	main_z	7	main_z	83	stimuli_distractor_trianglediamonds.svg	stimuli_target_trianglesquares.svg	26	yes	44	1	1618
6.6.1	win	2022-12-14	20:58:11	21:04:21	367877	5dcb685070d51c8275d7bd54	370979094	1	main_z	7	advance_on_keypress_ZEE	84	stimuli_distractor_trianglediamonds.svg	stimuli_target_trianglesquares.svg	26	yes	57	0	648
6.6.1	win	2022-12-14	20:58:11	21:04:23	370661	5dcb685070d51c8275d7bd54	370979094	1	main_z	7	main_z	85	stimuli_distractor_trianglediamonds.svg	stimuli_target_trianglecircles.svg	25	yes	44	1	1485
6.6.1	win	2022-12-14	20:58:11	21:04:23	370661	5dcb685070d51c8275d7bd54	370979094	1	main_z	7	advance_on_keypress_ZEE	86	stimuli_distractor_trianglediamonds.svg	stimuli_target_trianglecircles.svg	25	yes	57	0	673
6.6.1	win	2022-12-14	20:58:11	21:04:26	373101	5dcb685070d51c8275d7bd54	370979094	1	main_z	7	main_z	87	stimuli_target_trianglecircles.svg	stimuli_distractor_diamondtriangles.svg	21	yes	44	1	1125
6.6.1	win	2022-12-14	20:58:11	21:04:26	373101	5dcb685070d51c8275d7bd54	370979094	1	main_z	7	advance_on_keypress_ZEE	88	stimuli_target_trianglecircles.svg	stimuli_distractor_diamondtriangles.svg	21	yes	57	0	648
6.6.1	win	2022-12-14	20:58:11	21:04:29	376393	5dcb685070d51c8275d7bd54	370979094	1	main_z	7	main_z	89	stimuli_distractor_trianglediamonds.svg	stimuli_target_circletriangles.svg	9	yes	0	0	2000
6.6.1	win	2022-12-14	20:58:11	21:04:29	376393	5dcb685070d51c8275d7bd54	370979094	1	main_z	7	advance_on_keypress_ZEE	90	stimuli_distractor_trianglediamonds.svg	stimuli_target_circletriangles.svg	9	yes	57	0	396
6.6.1	win	2022-12-14	20:58:11	21:04:32	379427	5dcb685070d51c8275d7bd54	370979094	1	main_z	7	main_z	91	stimuli_distractor_diamondtriangles.svg	stimuli_target_squarediamonds.svg	16	yes	0	0	2000
6.6.1	win	2022-12-14	20:58:11	21:04:32	379427	5dcb685070d51c8275d7bd54	370979094	1	main_z	7	advance_on_keypress_ZEE	92	stimuli_distractor_diamondtriangles.svg	stimuli_target_squarediamonds.svg	16	yes	57	0	7890
6.6.1	win	2022-12-14	20:58:11	21:04:43	389960	5dcb685070d51c8275d7bd54	370979094	1	main_z	7	main_z	93	stimuli_distractor_trianglediamonds.svg	stimuli_distractor_trianglediamonds.svg	33	no	0	1	2000
6.6.1	win	2022-12-14	20:58:11	21:04:43	389960	5dcb685070d51c8275d7bd54	370979094	1	main_z	7	advance_on_keypress_ZEE	94	stimuli_distractor_trianglediamonds.svg	stimuli_distractor_trianglediamonds.svg	33	no	57	0	1845
6.6.1	win	2022-12-14	20:58:11	21:04:46	393637	5dcb685070d51c8275d7bd54	370979094	1	main_z	7	main_z	95	stimuli_distractor_diamondtriangles.svg	stimuli_target_circlediamonds.svg	14	yes	44	1	1195
6.6.1	win	2022-12-14	20:58:11	21:04:46	393637	5dcb685070d51c8275d7bd54	370979094	1	main_z	7	advance_on_keypress_ZEE	96	stimuli_distractor_diamondtriangles.svg	stimuli_target_circlediamonds.svg	14	yes	57	0	1787
6.6.1	win	2022-12-14	20:58:11	21:04:50	397398	5dcb685070d51c8275d7bd54	370979094	1	main_z	7	main_z	97	stimuli_target_squaretriangles.svg	stimuli_distractor_diamondtriangles.svg	7	yes	44	1	1338
6.6.1	win	2022-12-14	20:58:11	21:04:50	397398	5dcb685070d51c8275d7bd54	370979094	1	main_z	7	advance_on_keypress_ZEE	98	stimuli_target_squaretriangles.svg	stimuli_distractor_diamondtriangles.svg	7	yes	57	0	1117
6.6.1	win	2022-12-14	20:58:11	21:04:54	401160	5dcb685070d51c8275d7bd54	370979094	1	main_z	7	main_z	99	stimuli_target_trianglesquares.svg	stimuli_distractor_trianglediamonds.svg	18	yes	0	0	2000
6.6.1	win	2022-12-14	20:58:11	21:04:54	401160	5dcb685070d51c8275d7bd54	370979094	1	main_z	7	advance_on_keypress_ZEE	100	stimuli_target_trianglesquares.svg	stimuli_distractor_trianglediamonds.svg	18	yes	57	0	493
6.6.1	win	2022-12-14	20:58:11	21:04:57	403781	5dcb685070d51c8275d7bd54	370979094	1	main_z	7	main_z	101	stimuli_target_trianglesquares.svg	stimuli_distractor_diamondtriangles.svg	22	yes	44	1	1489
6.6.1	win	2022-12-14	20:58:11	21:04:57	403781	5dcb685070d51c8275d7bd54	370979094	1	main_z	7	advance_on_keypress_ZEE	102	stimuli_target_trianglesquares.svg	stimuli_distractor_diamondtriangles.svg	22	yes	57	0	1612
6.6.1	win	2022-12-14	20:58:11	21:05:00	407013	5dcb685070d51c8275d7bd54	370979094	1	main_z	7	main_z	103	stimuli_distractor_diamondtriangles.svg	stimuli_target_trianglecircles.svg	29	yes	44	1	970
6.6.1	win	2022-12-14	20:58:11	21:05:00	407013	5dcb685070d51c8275d7bd54	370979094	1	main_z	7	advance_on_keypress_ZEE	104	stimuli_distractor_diamondtriangles.svg	stimuli_target_trianglecircles.svg	29	yes	57	0	859
6.6.1	win	2022-12-14	20:58:11	21:05:02	409677	5dcb685070d51c8275d7bd54	370979094	1	main_z	7	main_z	105	stimuli_target_squarediamonds.svg	stimuli_distractor_diamondtriangles.svg	8	yes	44	1	1168
6.6.1	win	2022-12-14	20:58:11	21:05:02	409677	5dcb685070d51c8275d7bd54	370979094	1	main_z	7	advance_on_keypress_ZEE	106	stimuli_target_squarediamonds.svg	stimuli_distractor_diamondtriangles.svg	8	yes	57	0	1024
6.6.1	win	2022-12-14	20:58:11	21:05:06	413343	5dcb685070d51c8275d7bd54	370979094	1	main_z	7	main_z	107	stimuli_distractor_trianglediamonds.svg	stimuli_target_squarediamonds.svg	12	yes	0	0	2000
6.6.1	win	2022-12-14	20:58:11	21:05:06	413343	5dcb685070d51c8275d7bd54	370979094	1	main_z	7	advance_on_keypress_ZEE	108	stimuli_distractor_trianglediamonds.svg	stimuli_target_squarediamonds.svg	12	yes	57	0	830
6.6.1	win	2022-12-14	20:58:11	21:05:10	416826	5dcb685070d51c8275d7bd54	370979094	1	main_z	7	main_z	109	stimuli_target_diamondsquares.svg	stimuli_distractor_diamondtriangles.svg	24	yes	0	0	2000
6.6.1	win	2022-12-14	20:58:11	21:05:10	416826	5dcb685070d51c8275d7bd54	370979094	1	main_z	7	advance_on_keypress_ZEE	110	stimuli_target_diamondsquares.svg	stimuli_distractor_diamondtriangles.svg	24	yes	57	0	507
6.6.1	win	2022-12-14	20:58:11	21:05:13	419976	5dcb685070d51c8275d7bd54	370979094	1	main_z	7	main_z	111	stimuli_distractor_diamondtriangles.svg	stimuli_distractor_trianglediamonds.svg	37	no	0	1	2000
6.6.1	win	2022-12-14	20:58:11	21:05:13	419976	5dcb685070d51c8275d7bd54	370979094	1	main_z	7	advance_on_keypress_ZEE	112	stimuli_distractor_diamondtriangles.svg	stimuli_distractor_trianglediamonds.svg	37	no	57	0	548
6.6.1	win	2022-12-14	20:58:11	21:05:15	422109	5dcb685070d51c8275d7bd54	370979094	1	main_z	7	main_z	113	stimuli_target_circlediamonds.svg	stimuli_distractor_trianglediamonds.svg	2	yes	44	1	933
6.6.1	win	2022-12-14	20:58:11	21:05:15	422109	5dcb685070d51c8275d7bd54	370979094	1	main_z	7	advance_on_keypress_ZEE	114	stimuli_target_circlediamonds.svg	stimuli_distractor_trianglediamonds.svg	2	yes	57	0	1623
6.6.1	win	2022-12-14	20:58:11	21:05:19	426376	5dcb685070d51c8275d7bd54	370979094	1	main_z	7	main_z	115	stimuli_target_diamondsquares.svg	stimuli_distractor_trianglediamonds.svg	20	yes	0	0	2000
6.6.1	win	2022-12-14	20:58:11	21:05:19	426376	5dcb685070d51c8275d7bd54	370979094	1	main_z	7	advance_on_keypress_ZEE	116	stimuli_target_diamondsquares.svg	stimuli_distractor_trianglediamonds.svg	20	yes	57	0	501
6.6.1	win	2022-12-14	20:58:11	21:05:22	429029	5dcb685070d51c8275d7bd54	370979094	1	main_z	7	main_z	117	stimuli_target_circletriangles.svg	stimuli_distractor_trianglediamonds.svg	1	yes	44	1	1503
6.6.1	win	2022-12-14	20:58:11	21:05:22	429029	5dcb685070d51c8275d7bd54	370979094	1	main_z	7	advance_on_keypress_ZEE	118	stimuli_target_circletriangles.svg	stimuli_distractor_trianglediamonds.svg	1	yes	57	0	931
6.6.1	win	2022-12-14	20:58:11	21:05:25	432229	5dcb685070d51c8275d7bd54	370979094	1	main_z	7	main_z	119	stimuli_target_circlediamonds.svg	stimuli_distractor_diamondtriangles.svg	6	yes	44	1	1620
6.6.1	win	2022-12-14	20:58:11	21:05:25	432229	5dcb685070d51c8275d7bd54	370979094	1	main_z	7	advance_on_keypress_ZEE	120	stimuli_target_circlediamonds.svg	stimuli_distractor_diamondtriangles.svg	6	yes	57	0	1122
6.6.1	win	2022-12-14	20:58:11	21:05:29	435993	5dcb685070d51c8275d7bd54	370979094	1	main_z	7	main_z	121	stimuli_distractor_diamondtriangles.svg	stimuli_distractor_diamondtriangles.svg	39	no	0	1	2000
6.6.1	win	2022-12-14	20:58:11	21:05:29	435993	5dcb685070d51c8275d7bd54	370979094	1	main_z	7	advance_on_keypress_ZEE	122	stimuli_distractor_diamondtriangles.svg	stimuli_distractor_diamondtriangles.svg	39	no	57	0	724
6.6.1	win	2022-12-14	20:58:11	21:05:32	439360	5dcb685070d51c8275d7bd54	370979094	1	main_z	7	main_z	123	stimuli_distractor_diamondtriangles.svg	stimuli_target_trianglesquares.svg	30	yes	0	0	2000
6.6.1	win	2022-12-14	20:58:11	21:05:32	439360	5dcb685070d51c8275d7bd54	370979094	1	main_z	7	advance_on_keypress_ZEE	124	stimuli_distractor_diamondtriangles.svg	stimuli_target_trianglesquares.svg	30	yes	57	0	1733
6.6.1	win	2022-12-14	20:58:11	21:05:36	443565	5dcb685070d51c8275d7bd54	370979094	1	main_z	7	main_z	125	stimuli_distractor_diamondtriangles.svg	stimuli_target_squaretriangles.svg	15	yes	44	1	1822
6.6.1	win	2022-12-14	20:58:11	21:05:36	443565	5dcb685070d51c8275d7bd54	370979094	1	main_z	7	advance_on_keypress_ZEE	126	stimuli_distractor_diamondtriangles.svg	stimuli_target_squaretriangles.svg	15	yes	57	0	4389
6.6.1	win	2022-12-14	20:58:11	21:05:43	449925	5dcb685070d51c8275d7bd54	370979094	1	main_z	7	main_z	127	stimuli_distractor_trianglediamonds.svg	stimuli_target_diamondcircles.svg	27	yes	44	1	1332
6.6.1	win	2022-12-14	20:58:11	21:05:43	449925	5dcb685070d51c8275d7bd54	370979094	1	main_z	7	advance_on_keypress_ZEE	128	stimuli_distractor_trianglediamonds.svg	stimuli_target_diamondcircles.svg	27	yes	57	0	790
6.6.1	win	2022-12-14	20:58:11	21:05:45	452525	5dcb685070d51c8275d7bd54	370979094	1	main_z	7	main_z	129	stimuli_target_trianglecircles.svg	stimuli_distractor_trianglediamonds.svg	17	yes	44	1	1166
6.6.1	win	2022-12-14	20:58:11	21:05:45	452525	5dcb685070d51c8275d7bd54	370979094	1	main_z	7	advance_on_keypress_ZEE	130	stimuli_target_trianglecircles.svg	stimuli_distractor_trianglediamonds.svg	17	yes	57	0	847
6.6.1	win	2022-12-14	20:58:11	21:05:48	455069	5dcb685070d51c8275d7bd54	370979094	1	main_z	7	main_z	131	stimuli_target_squaretriangles.svg	stimuli_distractor_trianglediamonds.svg	3	yes	44	1	1043
6.6.1	win	2022-12-14	20:58:11	21:05:48	455069	5dcb685070d51c8275d7bd54	370979094	1	main_z	7	advance_on_keypress_ZEE	132	stimuli_target_squaretriangles.svg	stimuli_distractor_trianglediamonds.svg	3	yes	57	0	881
6.6.1	win	2022-12-14	20:58:11	21:05:51	458593	5dcb685070d51c8275d7bd54	370979094	1	main_z	7	main_z	133	stimuli_distractor_diamondtriangles.svg	stimuli_target_circletriangles.svg	13	yes	0	0	2000
6.6.1	win	2022-12-14	20:58:11	21:05:51	458593	5dcb685070d51c8275d7bd54	370979094	1	main_z	7	advance_on_keypress_ZEE	134	stimuli_distractor_diamondtriangles.svg	stimuli_target_circletriangles.svg	13	yes	57	0	1052
6.6.1	win	2022-12-14	20:58:11	21:05:55	462293	5dcb685070d51c8275d7bd54	370979094	1	main_z	7	main_z	135	stimuli_distractor_diamondtriangles.svg	stimuli_distractor_trianglediamonds.svg	38	no	0	1	2000
6.6.1	win	2022-12-14	20:58:11	21:05:55	462293	5dcb685070d51c8275d7bd54	370979094	1	main_z	7	advance_on_keypress_ZEE	136	stimuli_distractor_diamondtriangles.svg	stimuli_distractor_trianglediamonds.svg	38	no	57	0	496
6.6.1	win	2022-12-14	20:58:11	21:05:58	464781	5dcb685070d51c8275d7bd54	370979094	1	main_z	7	main_z	137	stimuli_target_circletriangles.svg	stimuli_distractor_diamondtriangles.svg	5	yes	44	1	1338
6.6.1	win	2022-12-14	20:58:11	21:05:58	464781	5dcb685070d51c8275d7bd54	370979094	1	main_z	7	advance_on_keypress_ZEE	138	stimuli_target_circletriangles.svg	stimuli_distractor_diamondtriangles.svg	5	yes	57	0	1669
6.6.1	win	2022-12-14	20:58:11	21:06:02	469093	5dcb685070d51c8275d7bd54	370979094	1	main_z	7	main_z	139	stimuli_distractor_trianglediamonds.svg	stimuli_distractor_diamondtriangles.svg	36	no	0	1	2000
6.6.1	win	2022-12-14	20:58:11	21:06:02	469093	5dcb685070d51c8275d7bd54	370979094	1	main_z	7	advance_on_keypress_ZEE	140	stimuli_distractor_trianglediamonds.svg	stimuli_distractor_diamondtriangles.svg	36	no	57	0	1128
6.6.1	win	2022-12-14	20:58:11	21:06:06	472859	5dcb685070d51c8275d7bd54	370979094	1	main_z	7	main_z	141	stimuli_distractor_diamondtriangles.svg	stimuli_target_diamondsquares.svg	32	yes	0	0	2000
6.6.1	win	2022-12-14	20:58:11	21:06:06	472859	5dcb685070d51c8275d7bd54	370979094	1	main_z	7	advance_on_keypress_ZEE	142	stimuli_distractor_diamondtriangles.svg	stimuli_target_diamondsquares.svg	32	yes	57	0	1361
6.6.1	win	2022-12-14	20:58:11	21:06:09	476013	5dcb685070d51c8275d7bd54	370979094	1	main_z	7	main_z	143	stimuli_distractor_trianglediamonds.svg	stimuli_distractor_diamondtriangles.svg	35	no	44	0	1154
6.6.1	win	2022-12-14	20:58:11	21:06:09	476013	5dcb685070d51c8275d7bd54	370979094	1	main_z	7	advance_on_keypress_ZEE	144	stimuli_distractor_trianglediamonds.svg	stimuli_distractor_diamondtriangles.svg	35	no	57	0	2211
6.6.1	win	2022-12-14	20:58:11	21:06:14	480860	5dcb685070d51c8275d7bd54	370979094	1	main_z	7	main_z	145	stimuli_distractor_trianglediamonds.svg	stimuli_distractor_trianglediamonds.svg	34	no	0	1	2000
6.6.1	win	2022-12-14	20:58:11	21:06:14	480860	5dcb685070d51c8275d7bd54	370979094	1	main_z	7	advance_on_keypress_ZEE	146	stimuli_distractor_trianglediamonds.svg	stimuli_distractor_trianglediamonds.svg	34	no	57	0	1418
6.6.1	win	2022-12-14	20:58:11	21:06:18	484926	5dcb685070d51c8275d7bd54	370979094	1	main_z	7	main_z	147	stimuli_distractor_diamondtriangles.svg	stimuli_distractor_diamondtriangles.svg	40	no	0	1	2000
6.6.1	win	2022-12-14	20:58:11	21:06:18	484926	5dcb685070d51c8275d7bd54	370979094	1	main_z	7	advance_on_keypress_ZEE	148	stimuli_distractor_diamondtriangles.svg	stimuli_distractor_diamondtriangles.svg	40	no	57	0	358
6.6.1	win	2022-12-14	20:58:11	21:06:21	487926	5dcb685070d51c8275d7bd54	370979094	1	main_z	7	main_z	149	stimuli_distractor_diamondtriangles.svg	stimuli_target_diamondcircles.svg	31	yes	0	0	2000
6.6.1	win	2022-12-14	20:58:11	21:06:21	487926	5dcb685070d51c8275d7bd54	370979094	1	main_z	7	advance_on_keypress_ZEE	150	stimuli_distractor_diamondtriangles.svg	stimuli_target_diamondcircles.svg	31	yes	57	0	1239
6.6.1	win	2022-12-14	20:58:11	21:06:23	490733	5dcb685070d51c8275d7bd54	370979094	1	main_z	7	main_z	151	stimuli_distractor_trianglediamonds.svg	stimuli_target_diamondsquares.svg	28	yes	44	1	924
6.6.1	win	2022-12-14	20:58:11	21:06:23	490733	5dcb685070d51c8275d7bd54	370979094	1	main_z	7	advance_on_keypress_ZEE	152	stimuli_distractor_trianglediamonds.svg	stimuli_target_diamondsquares.svg	28	yes	57	0	823
6.6.1	win	2022-12-14	20:58:11	21:06:27	494193	5dcb685070d51c8275d7bd54	370979094	1	main_z	7	main_z	153	stimuli_distractor_trianglediamonds.svg	stimuli_target_circlediamonds.svg	10	yes	0	0	2000
6.6.1	win	2022-12-14	20:58:11	21:06:27	494193	5dcb685070d51c8275d7bd54	370979094	1	main_z	7	advance_on_keypress_ZEE	154	stimuli_distractor_trianglediamonds.svg	stimuli_target_circlediamonds.svg	10	yes	57	0	460
6.6.1	win	2022-12-14	20:58:11	21:06:29	496053	5dcb685070d51c8275d7bd54	370979094	1	main_z	7	main_z	155	stimuli_target_squarediamonds.svg	stimuli_distractor_trianglediamonds.svg	4	yes	44	1	761
6.6.1	win	2022-12-14	20:58:11	21:06:29	496053	5dcb685070d51c8275d7bd54	370979094	1	main_z	7	advance_on_keypress_ZEE	156	stimuli_target_squarediamonds.svg	stimuli_distractor_trianglediamonds.svg	4	yes	57	0	1338
6.6.1	win	2022-12-14	20:58:11	21:06:32	498829	5dcb685070d51c8275d7bd54	370979094	1	main_z	7	main_z	157	stimuli_target_diamondcircles.svg	stimuli_distractor_diamondtriangles.svg	23	yes	44	1	803
6.6.1	win	2022-12-14	20:58:11	21:06:32	498829	5dcb685070d51c8275d7bd54	370979094	1	main_z	7	advance_on_keypress_ZEE	158	stimuli_target_diamondcircles.svg	stimuli_distractor_diamondtriangles.svg	23	yes	57	0	883
6.6.1	win	2022-12-14	20:58:11	21:06:35	502360	5dcb685070d51c8275d7bd54	370979094	1	main_z	7	main_z	159	stimuli_target_diamondcircles.svg	stimuli_distractor_trianglediamonds.svg	19	yes	0	0	2000
6.6.1	win	2022-12-14	20:58:11	21:06:35	502360	5dcb685070d51c8275d7bd54	370979094	1	main_z	7	advance_on_keypress_ZEE	160	stimuli_target_diamondcircles.svg	stimuli_distractor_trianglediamonds.svg	19	yes	57	0	981
6.6.1	win	2022-12-14	20:58:11	21:06:59	526598	5dcb685070d51c8275d7bd54	370979094	1	practice_slash	9	practice_slash	1	stimuli_target_circlediamonds.svg	stimuli_distractor_trianglediamonds.svg	4	yes	53	1	754
6.6.1	win	2022-12-14	20:58:11	21:06:59	526598	5dcb685070d51c8275d7bd54	370979094	1	practice_slash	9	advance_on_keypress_SLASH	2	stimuli_target_circlediamonds.svg	stimuli_distractor_trianglediamonds.svg	4	yes	57	0	964
6.6.1	win	2022-12-14	20:58:11	21:07:04	531211	5dcb685070d51c8275d7bd54	370979094	1	practice_slash	9	practice_slash	3	stimuli_distractor_diamondtriangles.svg	stimuli_distractor_diamondtriangles.svg	13	no	0	1	2000
6.6.1	win	2022-12-14	20:58:11	21:07:04	531211	5dcb685070d51c8275d7bd54	370979094	1	practice_slash	9	advance_on_keypress_SLASH	4	stimuli_distractor_diamondtriangles.svg	stimuli_distractor_diamondtriangles.svg	13	no	57	0	483
6.6.1	win	2022-12-14	20:58:11	21:07:07	534071	5dcb685070d51c8275d7bd54	370979094	1	practice_slash	9	practice_slash	5	stimuli_distractor_diamondtriangles.svg	stimuli_target_diamondcircles.svg	8	yes	53	1	727
6.6.1	win	2022-12-14	20:58:11	21:07:07	534071	5dcb685070d51c8275d7bd54	370979094	1	practice_slash	9	advance_on_keypress_SLASH	6	stimuli_distractor_diamondtriangles.svg	stimuli_target_diamondcircles.svg	8	yes	57	0	457
6.6.1	win	2022-12-14	20:58:11	21:07:11	537766	5dcb685070d51c8275d7bd54	370979094	1	practice_slash	9	practice_slash	7	stimuli_target_diamondsquares.svg	stimuli_distractor_diamondtriangles.svg	3	yes	53	1	1606
6.6.1	win	2022-12-14	20:58:11	21:07:11	537766	5dcb685070d51c8275d7bd54	370979094	1	practice_slash	9	advance_on_keypress_SLASH	8	stimuli_target_diamondsquares.svg	stimuli_distractor_diamondtriangles.svg	3	yes	57	0	517
6.6.1	win	2022-12-14	20:58:11	21:07:14	541326	5dcb685070d51c8275d7bd54	370979094	1	practice_slash	9	practice_slash	9	stimuli_distractor_trianglediamonds.svg	stimuli_target_squarediamonds.svg	11	yes	53	1	1399
6.6.1	win	2022-12-14	20:58:11	21:07:14	541326	5dcb685070d51c8275d7bd54	370979094	1	practice_slash	9	advance_on_keypress_SLASH	10	stimuli_distractor_trianglediamonds.svg	stimuli_target_squarediamonds.svg	11	yes	57	0	374
6.6.1	win	2022-12-14	20:58:11	21:07:17	544327	5dcb685070d51c8275d7bd54	370979094	1	practice_slash	9	practice_slash	11	stimuli_distractor_trianglediamonds.svg	stimuli_target_diamondcircles.svg	12	yes	53	1	983
6.6.1	win	2022-12-14	20:58:11	21:07:17	544327	5dcb685070d51c8275d7bd54	370979094	1	practice_slash	9	advance_on_keypress_SLASH	12	stimuli_distractor_trianglediamonds.svg	stimuli_target_diamondcircles.svg	12	yes	57	0	367
6.6.1	win	2022-12-14	20:58:11	21:07:21	548345	5dcb685070d51c8275d7bd54	370979094	1	practice_slash	9	practice_slash	13	stimuli_distractor_trianglediamonds.svg	stimuli_distractor_diamondtriangles.svg	16	no	0	1	2000
6.6.1	win	2022-12-14	20:58:11	21:07:21	548345	5dcb685070d51c8275d7bd54	370979094	1	practice_slash	9	advance_on_keypress_SLASH	14	stimuli_distractor_trianglediamonds.svg	stimuli_distractor_diamondtriangles.svg	16	no	57	0	566
6.6.1	win	2022-12-14	20:58:11	21:07:25	552143	5dcb685070d51c8275d7bd54	370979094	1	practice_slash	9	practice_slash	15	stimuli_distractor_diamondtriangles.svg	stimuli_target_circletriangles.svg	7	yes	53	1	1582
6.6.1	win	2022-12-14	20:58:11	21:07:25	552143	5dcb685070d51c8275d7bd54	370979094	1	practice_slash	9	advance_on_keypress_SLASH	16	stimuli_distractor_diamondtriangles.svg	stimuli_target_circletriangles.svg	7	yes	57	0	446
6.6.1	win	2022-12-14	20:58:11	21:07:28	555423	5dcb685070d51c8275d7bd54	370979094	1	practice_slash	9	practice_slash	17	stimuli_target_squarediamonds.svg	stimuli_distractor_diamondtriangles.svg	2	yes	53	1	1178
6.6.1	win	2022-12-14	20:58:11	21:07:28	555423	5dcb685070d51c8275d7bd54	370979094	1	practice_slash	9	advance_on_keypress_SLASH	18	stimuli_target_squarediamonds.svg	stimuli_distractor_diamondtriangles.svg	2	yes	57	0	699
6.6.1	win	2022-12-14	20:58:11	21:07:33	559778	5dcb685070d51c8275d7bd54	370979094	1	practice_slash	9	practice_slash	19	stimuli_distractor_diamondtriangles.svg	stimuli_distractor_trianglediamonds.svg	14	no	0	1	2000
6.6.1	win	2022-12-14	20:58:11	21:07:33	559778	5dcb685070d51c8275d7bd54	370979094	1	practice_slash	9	advance_on_keypress_SLASH	20	stimuli_distractor_diamondtriangles.svg	stimuli_distractor_trianglediamonds.svg	14	no	57	0	428
6.6.1	win	2022-12-14	20:58:11	21:07:35	562702	5dcb685070d51c8275d7bd54	370979094	1	practice_slash	9	practice_slash	21	stimuli_target_circlediamonds.svg	stimuli_distractor_diamondtriangles.svg	1	yes	53	1	842
6.6.1	win	2022-12-14	20:58:11	21:07:35	562702	5dcb685070d51c8275d7bd54	370979094	1	practice_slash	9	advance_on_keypress_SLASH	22	stimuli_target_circlediamonds.svg	stimuli_distractor_diamondtriangles.svg	1	yes	57	0	568
6.6.1	win	2022-12-14	20:58:11	21:07:40	566911	5dcb685070d51c8275d7bd54	370979094	1	practice_slash	9	practice_slash	23	stimuli_distractor_trianglediamonds.svg	stimuli_distractor_trianglediamonds.svg	15	no	0	1	2000
6.6.1	win	2022-12-14	20:58:11	21:07:40	566911	5dcb685070d51c8275d7bd54	370979094	1	practice_slash	9	advance_on_keypress_SLASH	24	stimuli_distractor_trianglediamonds.svg	stimuli_distractor_trianglediamonds.svg	15	no	57	0	447
6.6.1	win	2022-12-14	20:58:11	21:07:42	569686	5dcb685070d51c8275d7bd54	370979094	1	practice_slash	9	practice_slash	25	stimuli_distractor_trianglediamonds.svg	stimuli_target_circlediamonds.svg	10	yes	53	1	676
6.6.1	win	2022-12-14	20:58:11	21:07:42	569686	5dcb685070d51c8275d7bd54	370979094	1	practice_slash	9	advance_on_keypress_SLASH	26	stimuli_distractor_trianglediamonds.svg	stimuli_target_circlediamonds.svg	10	yes	57	0	416
6.6.1	win	2022-12-14	20:58:11	21:07:45	572455	5dcb685070d51c8275d7bd54	370979094	1	practice_slash	9	practice_slash	27	stimuli_target_squarediamonds.svg	stimuli_distractor_trianglediamonds.svg	5	yes	53	1	711
6.6.1	win	2022-12-14	20:58:11	21:07:45	572455	5dcb685070d51c8275d7bd54	370979094	1	practice_slash	9	advance_on_keypress_SLASH	28	stimuli_target_squarediamonds.svg	stimuli_distractor_trianglediamonds.svg	5	yes	57	0	386
6.6.1	win	2022-12-14	20:58:11	21:07:49	576478	5dcb685070d51c8275d7bd54	370979094	1	practice_slash	9	practice_slash	29	stimuli_target_diamondsquares.svg	stimuli_distractor_trianglediamonds.svg	6	yes	0	0	2000
6.6.1	win	2022-12-14	20:58:11	21:07:49	576478	5dcb685070d51c8275d7bd54	370979094	1	practice_slash	9	advance_on_keypress_SLASH	30	stimuli_target_diamondsquares.svg	stimuli_distractor_trianglediamonds.svg	6	yes	57	0	368
6.6.1	win	2022-12-14	20:58:11	21:07:53	580463	5dcb685070d51c8275d7bd54	370979094	1	practice_slash	9	practice_slash	31	stimuli_distractor_diamondtriangles.svg	stimuli_target_trianglecircles.svg	9	yes	53	1	1968
6.6.1	win	2022-12-14	20:58:11	21:07:53	580463	5dcb685070d51c8275d7bd54	370979094	1	practice_slash	9	advance_on_keypress_SLASH	32	stimuli_distractor_diamondtriangles.svg	stimuli_target_trianglecircles.svg	9	yes	57	0	481
6.6.1	win	2022-12-14	20:58:11	21:07:58	585349	5dcb685070d51c8275d7bd54	370979094	1	main_slash	11	main_slash	1	stimuli_target_circletriangles.svg	stimuli_distractor_trianglediamonds.svg	1	yes	53	1	1039
6.6.1	win	2022-12-14	20:58:11	21:07:58	585349	5dcb685070d51c8275d7bd54	370979094	1	main_slash	11	advance_on_keypress_SLASH	2	stimuli_target_circletriangles.svg	stimuli_distractor_trianglediamonds.svg	1	yes	57	0	662
6.6.1	win	2022-12-14	20:58:11	21:08:00	587278	5dcb685070d51c8275d7bd54	370979094	1	main_slash	11	main_slash	3	stimuli_target_circlediamonds.svg	stimuli_distractor_diamondtriangles.svg	6	yes	53	1	635
6.6.1	win	2022-12-14	20:58:11	21:08:00	587278	5dcb685070d51c8275d7bd54	370979094	1	main_slash	11	advance_on_keypress_SLASH	4	stimuli_target_circlediamonds.svg	stimuli_distractor_diamondtriangles.svg	6	yes	57	0	625
6.6.1	win	2022-12-14	20:58:11	21:08:03	590544	5dcb685070d51c8275d7bd54	370979094	1	main_slash	11	main_slash	5	stimuli_distractor_trianglediamonds.svg	stimuli_target_trianglesquares.svg	26	yes	0	0	2000
6.6.1	win	2022-12-14	20:58:11	21:08:03	590544	5dcb685070d51c8275d7bd54	370979094	1	main_slash	11	advance_on_keypress_SLASH	6	stimuli_distractor_trianglediamonds.svg	stimuli_target_trianglesquares.svg	26	yes	57	0	350
6.6.1	win	2022-12-14	20:58:11	21:08:05	592301	5dcb685070d51c8275d7bd54	370979094	1	main_slash	11	main_slash	7	stimuli_target_squaretriangles.svg	stimuli_distractor_diamondtriangles.svg	7	yes	53	1	758
6.6.1	win	2022-12-14	20:58:11	21:08:05	592301	5dcb685070d51c8275d7bd54	370979094	1	main_slash	11	advance_on_keypress_SLASH	8	stimuli_target_squaretriangles.svg	stimuli_distractor_diamondtriangles.svg	7	yes	57	0	752
6.6.1	win	2022-12-14	20:58:11	21:08:08	595693	5dcb685070d51c8275d7bd54	370979094	1	main_slash	11	main_slash	9	stimuli_distractor_diamondtriangles.svg	stimuli_target_diamondsquares.svg	32	yes	0	0	2000
6.6.1	win	2022-12-14	20:58:11	21:08:08	595693	5dcb685070d51c8275d7bd54	370979094	1	main_slash	11	advance_on_keypress_SLASH	10	stimuli_distractor_diamondtriangles.svg	stimuli_target_diamondsquares.svg	32	yes	57	0	792
6.6.1	win	2022-12-14	20:58:11	21:08:11	597869	5dcb685070d51c8275d7bd54	370979094	1	main_slash	11	main_slash	11	stimuli_distractor_diamondtriangles.svg	stimuli_target_squarediamonds.svg	16	yes	53	1	743
6.6.1	win	2022-12-14	20:58:11	21:08:11	597869	5dcb685070d51c8275d7bd54	370979094	1	main_slash	11	advance_on_keypress_SLASH	12	stimuli_distractor_diamondtriangles.svg	stimuli_target_squarediamonds.svg	16	yes	57	0	2641
6.6.1	win	2022-12-14	20:58:11	21:08:16	603144	5dcb685070d51c8275d7bd54	370979094	1	main_slash	11	main_slash	13	stimuli_distractor_trianglediamonds.svg	stimuli_target_diamondsquares.svg	28	yes	0	0	2000
6.6.1	win	2022-12-14	20:58:11	21:08:16	603144	5dcb685070d51c8275d7bd54	370979094	1	main_slash	11	advance_on_keypress_SLASH	14	stimuli_distractor_trianglediamonds.svg	stimuli_target_diamondsquares.svg	28	yes	57	0	486
6.6.1	win	2022-12-14	20:58:11	21:08:18	605005	5dcb685070d51c8275d7bd54	370979094	1	main_slash	11	main_slash	15	stimuli_distractor_diamondtriangles.svg	stimuli_target_circlediamonds.svg	14	yes	53	1	729
6.6.1	win	2022-12-14	20:58:11	21:08:18	605005	5dcb685070d51c8275d7bd54	370979094	1	main_slash	11	advance_on_keypress_SLASH	16	stimuli_distractor_diamondtriangles.svg	stimuli_target_circlediamonds.svg	14	yes	57	0	812
6.6.1	win	2022-12-14	20:58:11	21:08:21	608443	5dcb685070d51c8275d7bd54	370979094	1	main_slash	11	main_slash	17	stimuli_distractor_diamondtriangles.svg	stimuli_target_trianglesquares.svg	30	yes	0	0	2000
6.6.1	win	2022-12-14	20:58:11	21:08:21	608443	5dcb685070d51c8275d7bd54	370979094	1	main_slash	11	advance_on_keypress_SLASH	18	stimuli_distractor_diamondtriangles.svg	stimuli_target_trianglesquares.svg	30	yes	57	0	1122
6.6.1	win	2022-12-14	20:58:11	21:08:24	610853	5dcb685070d51c8275d7bd54	370979094	1	main_slash	11	main_slash	19	stimuli_target_squarediamonds.svg	stimuli_distractor_diamondtriangles.svg	8	yes	53	1	644
6.6.1	win	2022-12-14	20:58:11	21:08:24	610853	5dcb685070d51c8275d7bd54	370979094	1	main_slash	11	advance_on_keypress_SLASH	20	stimuli_target_squarediamonds.svg	stimuli_distractor_diamondtriangles.svg	8	yes	57	0	930
6.6.1	win	2022-12-14	20:58:11	21:08:27	614426	5dcb685070d51c8275d7bd54	370979094	1	main_slash	11	main_slash	21	stimuli_target_diamondsquares.svg	stimuli_distractor_diamondtriangles.svg	24	yes	0	0	2000
6.6.1	win	2022-12-14	20:58:11	21:08:27	614426	5dcb685070d51c8275d7bd54	370979094	1	main_slash	11	advance_on_keypress_SLASH	22	stimuli_target_diamondsquares.svg	stimuli_distractor_diamondtriangles.svg	24	yes	57	0	11507
6.6.1	win	2022-12-14	20:58:11	21:08:41	628577	5dcb685070d51c8275d7bd54	370979094	1	main_slash	11	main_slash	23	stimuli_distractor_diamondtriangles.svg	stimuli_distractor_diamondtriangles.svg	39	no	0	1	2000
6.6.1	win	2022-12-14	20:58:11	21:08:41	628577	5dcb685070d51c8275d7bd54	370979094	1	main_slash	11	advance_on_keypress_SLASH	24	stimuli_distractor_diamondtriangles.svg	stimuli_distractor_diamondtriangles.svg	39	no	57	0	412
6.6.1	win	2022-12-14	20:58:11	21:08:44	631643	5dcb685070d51c8275d7bd54	370979094	1	main_slash	11	main_slash	25	stimuli_target_trianglesquares.svg	stimuli_distractor_trianglediamonds.svg	18	yes	0	0	2000
6.6.1	win	2022-12-14	20:58:11	21:08:44	631643	5dcb685070d51c8275d7bd54	370979094	1	main_slash	11	advance_on_keypress_SLASH	26	stimuli_target_trianglesquares.svg	stimuli_distractor_trianglediamonds.svg	18	yes	57	0	514
6.6.1	win	2022-12-14	20:58:11	21:08:46	633612	5dcb685070d51c8275d7bd54	370979094	1	main_slash	11	main_slash	27	stimuli_target_trianglecircles.svg	stimuli_distractor_diamondtriangles.svg	21	yes	53	1	803
6.6.1	win	2022-12-14	20:58:11	21:08:46	633612	5dcb685070d51c8275d7bd54	370979094	1	main_slash	11	advance_on_keypress_SLASH	28	stimuli_target_trianglecircles.svg	stimuli_distractor_diamondtriangles.svg	21	yes	57	0	635
6.6.1	win	2022-12-14	20:58:11	21:08:49	635965	5dcb685070d51c8275d7bd54	370979094	1	main_slash	11	main_slash	29	stimuli_target_trianglecircles.svg	stimuli_distractor_trianglediamonds.svg	17	yes	53	1	1072
6.6.1	win	2022-12-14	20:58:11	21:08:49	635965	5dcb685070d51c8275d7bd54	370979094	1	main_slash	11	advance_on_keypress_SLASH	30	stimuli_target_trianglecircles.svg	stimuli_distractor_trianglediamonds.svg	17	yes	57	0	548
6.6.1	win	2022-12-14	20:58:11	21:08:51	637813	5dcb685070d51c8275d7bd54	370979094	1	main_slash	11	main_slash	31	stimuli_distractor_diamondtriangles.svg	stimuli_target_diamondcircles.svg	31	yes	53	1	654
6.6.1	win	2022-12-14	20:58:11	21:08:51	637813	5dcb685070d51c8275d7bd54	370979094	1	main_slash	11	advance_on_keypress_SLASH	32	stimuli_distractor_diamondtriangles.svg	stimuli_target_diamondcircles.svg	31	yes	57	0	514
6.6.1	win	2022-12-14	20:58:11	21:08:52	639621	5dcb685070d51c8275d7bd54	370979094	1	main_slash	11	main_slash	33	stimuli_distractor_diamondtriangles.svg	stimuli_target_trianglecircles.svg	29	yes	53	1	644
6.6.1	win	2022-12-14	20:58:11	21:08:52	639621	5dcb685070d51c8275d7bd54	370979094	1	main_slash	11	advance_on_keypress_SLASH	34	stimuli_distractor_diamondtriangles.svg	stimuli_target_trianglecircles.svg	29	yes	57	0	531
6.6.1	win	2022-12-14	20:58:11	21:08:54	641645	5dcb685070d51c8275d7bd54	370979094	1	main_slash	11	main_slash	35	stimuli_distractor_trianglediamonds.svg	stimuli_target_trianglecircles.svg	25	yes	53	1	853
6.6.1	win	2022-12-14	20:58:11	21:08:54	641645	5dcb685070d51c8275d7bd54	370979094	1	main_slash	11	advance_on_keypress_SLASH	36	stimuli_distractor_trianglediamonds.svg	stimuli_target_trianglecircles.svg	25	yes	57	0	649
6.6.1	win	2022-12-14	20:58:11	21:08:57	644293	5dcb685070d51c8275d7bd54	370979094	1	main_slash	11	main_slash	37	stimuli_distractor_trianglediamonds.svg	stimuli_target_diamondcircles.svg	27	yes	53	1	1350
6.6.1	win	2022-12-14	20:58:11	21:08:57	644293	5dcb685070d51c8275d7bd54	370979094	1	main_slash	11	advance_on_keypress_SLASH	38	stimuli_distractor_trianglediamonds.svg	stimuli_target_diamondcircles.svg	27	yes	57	0	624
6.6.1	win	2022-12-14	20:58:11	21:08:59	646453	5dcb685070d51c8275d7bd54	370979094	1	main_slash	11	main_slash	39	stimuli_target_circletriangles.svg	stimuli_distractor_diamondtriangles.svg	5	yes	53	1	893
6.6.1	win	2022-12-14	20:58:11	21:08:59	646453	5dcb685070d51c8275d7bd54	370979094	1	main_slash	11	advance_on_keypress_SLASH	40	stimuli_target_circletriangles.svg	stimuli_distractor_diamondtriangles.svg	5	yes	57	0	505
6.6.1	win	2022-12-14	20:58:11	21:09:01	648421	5dcb685070d51c8275d7bd54	370979094	1	main_slash	11	main_slash	41	stimuli_distractor_trianglediamonds.svg	stimuli_target_circlediamonds.svg	10	yes	53	1	829
6.6.1	win	2022-12-14	20:58:11	21:09:01	648421	5dcb685070d51c8275d7bd54	370979094	1	main_slash	11	advance_on_keypress_SLASH	42	stimuli_distractor_trianglediamonds.svg	stimuli_target_circlediamonds.svg	10	yes	57	0	491
6.6.1	win	2022-12-14	20:58:11	21:09:04	650981	5dcb685070d51c8275d7bd54	370979094	1	main_slash	11	main_slash	43	stimuli_distractor_diamondtriangles.svg	stimuli_target_circletriangles.svg	13	yes	53	1	1438
6.6.1	win	2022-12-14	20:58:11	21:09:04	650981	5dcb685070d51c8275d7bd54	370979094	1	main_slash	11	advance_on_keypress_SLASH	44	stimuli_distractor_diamondtriangles.svg	stimuli_target_circletriangles.svg	13	yes	57	0	772
6.6.1	win	2022-12-14	20:58:11	21:09:06	653301	5dcb685070d51c8275d7bd54	370979094	1	main_slash	11	main_slash	45	stimuli_distractor_trianglediamonds.svg	stimuli_target_squarediamonds.svg	12	yes	53	1	908
6.6.1	win	2022-12-14	20:58:11	21:09:06	653301	5dcb685070d51c8275d7bd54	370979094	1	main_slash	11	advance_on_keypress_SLASH	46	stimuli_distractor_trianglediamonds.svg	stimuli_target_squarediamonds.svg	12	yes	57	0	536
6.6.1	win	2022-12-14	20:58:11	21:09:09	656477	5dcb685070d51c8275d7bd54	370979094	1	main_slash	11	main_slash	47	stimuli_target_trianglesquares.svg	stimuli_distractor_diamondtriangles.svg	22	yes	0	0	2000
6.6.1	win	2022-12-14	20:58:11	21:09:09	656477	5dcb685070d51c8275d7bd54	370979094	1	main_slash	11	advance_on_keypress_SLASH	48	stimuli_target_trianglesquares.svg	stimuli_distractor_diamondtriangles.svg	22	yes	57	0	448
6.6.1	win	2022-12-14	20:58:11	21:09:11	658429	5dcb685070d51c8275d7bd54	370979094	1	main_slash	11	main_slash	49	stimuli_target_diamondcircles.svg	stimuli_distractor_diamondtriangles.svg	23	yes	53	1	853
6.6.1	win	2022-12-14	20:58:11	21:09:11	658429	5dcb685070d51c8275d7bd54	370979094	1	main_slash	11	advance_on_keypress_SLASH	50	stimuli_target_diamondcircles.svg	stimuli_distractor_diamondtriangles.svg	23	yes	57	0	698
6.6.1	win	2022-12-14	20:58:11	21:09:13	660557	5dcb685070d51c8275d7bd54	370979094	1	main_slash	11	main_slash	51	stimuli_target_squarediamonds.svg	stimuli_distractor_trianglediamonds.svg	4	yes	53	1	781
6.6.1	win	2022-12-14	20:58:11	21:09:13	660557	5dcb685070d51c8275d7bd54	370979094	1	main_slash	11	advance_on_keypress_SLASH	52	stimuli_target_squarediamonds.svg	stimuli_distractor_trianglediamonds.svg	4	yes	57	0	661
6.6.1	win	2022-12-14	20:58:11	21:09:17	663860	5dcb685070d51c8275d7bd54	370979094	1	main_slash	11	main_slash	53	stimuli_distractor_diamondtriangles.svg	stimuli_distractor_trianglediamonds.svg	37	no	0	1	2000
6.6.1	win	2022-12-14	20:58:11	21:09:17	663860	5dcb685070d51c8275d7bd54	370979094	1	main_slash	11	advance_on_keypress_SLASH	54	stimuli_distractor_diamondtriangles.svg	stimuli_distractor_trianglediamonds.svg	37	no	57	0	1169
6.6.1	win	2022-12-14	20:58:11	21:09:19	666278	5dcb685070d51c8275d7bd54	370979094	1	main_slash	11	main_slash	55	stimuli_target_circlediamonds.svg	stimuli_distractor_trianglediamonds.svg	2	yes	53	1	601
6.6.1	win	2022-12-14	20:58:11	21:09:19	666278	5dcb685070d51c8275d7bd54	370979094	1	main_slash	11	advance_on_keypress_SLASH	56	stimuli_target_circlediamonds.svg	stimuli_distractor_trianglediamonds.svg	2	yes	57	0	585
6.6.1	win	2022-12-14	20:58:11	21:09:22	669510	5dcb685070d51c8275d7bd54	370979094	1	main_slash	11	main_slash	57	stimuli_distractor_diamondtriangles.svg	stimuli_distractor_trianglediamonds.svg	38	no	0	1	2000
6.6.1	win	2022-12-14	20:58:11	21:09:22	669510	5dcb685070d51c8275d7bd54	370979094	1	main_slash	11	advance_on_keypress_SLASH	58	stimuli_distractor_diamondtriangles.svg	stimuli_distractor_trianglediamonds.svg	38	no	57	0	942
6.6.1	win	2022-12-14	20:58:11	21:09:25	671941	5dcb685070d51c8275d7bd54	370979094	1	main_slash	11	main_slash	59	stimuli_distractor_trianglediamonds.svg	stimuli_target_circletriangles.svg	9	yes	53	1	848
6.6.1	win	2022-12-14	20:58:11	21:09:25	671941	5dcb685070d51c8275d7bd54	370979094	1	main_slash	11	advance_on_keypress_SLASH	60	stimuli_distractor_trianglediamonds.svg	stimuli_target_circletriangles.svg	9	yes	57	0	605
6.6.1	win	2022-12-14	20:58:11	21:09:28	675193	5dcb685070d51c8275d7bd54	370979094	1	main_slash	11	main_slash	61	stimuli_distractor_trianglediamonds.svg	stimuli_distractor_diamondtriangles.svg	35	no	0	1	2000
6.6.1	win	2022-12-14	20:58:11	21:09:28	675193	5dcb685070d51c8275d7bd54	370979094	1	main_slash	11	advance_on_keypress_SLASH	62	stimuli_distractor_trianglediamonds.svg	stimuli_distractor_diamondtriangles.svg	35	no	57	0	436
6.6.1	win	2022-12-14	20:58:11	21:09:31	678276	5dcb685070d51c8275d7bd54	370979094	1	main_slash	11	main_slash	63	stimuli_distractor_diamondtriangles.svg	stimuli_distractor_diamondtriangles.svg	40	no	0	1	2000
6.6.1	win	2022-12-14	20:58:11	21:09:31	678276	5dcb685070d51c8275d7bd54	370979094	1	main_slash	11	advance_on_keypress_SLASH	64	stimuli_distractor_diamondtriangles.svg	stimuli_distractor_diamondtriangles.svg	40	no	57	0	672
6.6.1	win	2022-12-14	20:58:11	21:09:34	681593	5dcb685070d51c8275d7bd54	370979094	1	main_slash	11	main_slash	65	stimuli_distractor_diamondtriangles.svg	stimuli_target_squaretriangles.svg	15	yes	0	0	2000
6.6.1	win	2022-12-14	20:58:11	21:09:34	681593	5dcb685070d51c8275d7bd54	370979094	1	main_slash	11	advance_on_keypress_SLASH	66	stimuli_distractor_diamondtriangles.svg	stimuli_target_squaretriangles.svg	15	yes	57	0	1260
6.6.1	win	2022-12-14	20:58:11	21:09:38	685494	5dcb685070d51c8275d7bd54	370979094	1	main_slash	11	main_slash	67	stimuli_distractor_trianglediamonds.svg	stimuli_distractor_trianglediamonds.svg	33	no	0	1	2000
6.6.1	win	2022-12-14	20:58:11	21:09:38	685494	5dcb685070d51c8275d7bd54	370979094	1	main_slash	11	advance_on_keypress_SLASH	68	stimuli_distractor_trianglediamonds.svg	stimuli_distractor_trianglediamonds.svg	33	no	57	0	2471
6.6.1	win	2022-12-14	20:58:11	21:09:42	689405	5dcb685070d51c8275d7bd54	370979094	1	main_slash	11	main_slash	69	stimuli_target_diamondcircles.svg	stimuli_distractor_trianglediamonds.svg	19	yes	53	1	795
6.6.1	win	2022-12-14	20:58:11	21:09:42	689405	5dcb685070d51c8275d7bd54	370979094	1	main_slash	11	advance_on_keypress_SLASH	70	stimuli_target_diamondcircles.svg	stimuli_distractor_trianglediamonds.svg	19	yes	57	0	859
6.6.1	win	2022-12-14	20:58:11	21:09:44	691748	5dcb685070d51c8275d7bd54	370979094	1	main_slash	11	main_slash	71	stimuli_target_squaretriangles.svg	stimuli_distractor_trianglediamonds.svg	3	yes	53	1	855
6.6.1	win	2022-12-14	20:58:11	21:09:44	691748	5dcb685070d51c8275d7bd54	370979094	1	main_slash	11	advance_on_keypress_SLASH	72	stimuli_target_squaretriangles.svg	stimuli_distractor_trianglediamonds.svg	3	yes	57	0	718
6.6.1	win	2022-12-14	20:58:11	21:09:48	695110	5dcb685070d51c8275d7bd54	370979094	1	main_slash	11	main_slash	73	stimuli_target_diamondsquares.svg	stimuli_distractor_trianglediamonds.svg	20	yes	0	0	2000
6.6.1	win	2022-12-14	20:58:11	21:09:48	695110	5dcb685070d51c8275d7bd54	370979094	1	main_slash	11	advance_on_keypress_SLASH	74	stimuli_target_diamondsquares.svg	stimuli_distractor_trianglediamonds.svg	20	yes	57	0	398
6.6.1	win	2022-12-14	20:58:11	21:09:51	698160	5dcb685070d51c8275d7bd54	370979094	1	main_slash	11	main_slash	75	stimuli_distractor_trianglediamonds.svg	stimuli_distractor_diamondtriangles.svg	36	no	0	1	2000
6.6.1	win	2022-12-14	20:58:11	21:09:51	698160	5dcb685070d51c8275d7bd54	370979094	1	main_slash	11	advance_on_keypress_SLASH	76	stimuli_distractor_trianglediamonds.svg	stimuli_distractor_diamondtriangles.svg	36	no	57	0	389
6.6.1	win	2022-12-14	20:58:11	21:09:53	699845	5dcb685070d51c8275d7bd54	370979094	1	main_slash	11	main_slash	77	stimuli_distractor_trianglediamonds.svg	stimuli_target_squaretriangles.svg	11	yes	53	1	652
6.6.1	win	2022-12-14	20:58:11	21:09:53	699845	5dcb685070d51c8275d7bd54	370979094	1	main_slash	11	advance_on_keypress_SLASH	78	stimuli_distractor_trianglediamonds.svg	stimuli_target_squaretriangles.svg	11	yes	57	0	514
6.6.1	win	2022-12-14	20:58:11	21:09:56	703010	5dcb685070d51c8275d7bd54	370979094	1	main_slash	11	main_slash	79	stimuli_distractor_trianglediamonds.svg	stimuli_distractor_trianglediamonds.svg	34	no	0	1	2000
6.6.1	win	2022-12-14	20:58:11	21:09:56	703010	5dcb685070d51c8275d7bd54	370979094	1	main_slash	11	advance_on_keypress_SLASH	80	stimuli_distractor_trianglediamonds.svg	stimuli_distractor_trianglediamonds.svg	34	no	57	0	362
6.6.1	win	2022-12-14	20:58:11	21:09:59	706010	5dcb685070d51c8275d7bd54	370979094	1	main_slash	11	main_slash	81	stimuli_distractor_trianglediamonds.svg	stimuli_distractor_trianglediamonds.svg	34	no	0	1	2000
6.6.1	win	2022-12-14	20:58:11	21:09:59	706010	5dcb685070d51c8275d7bd54	370979094	1	main_slash	11	advance_on_keypress_SLASH	82	stimuli_distractor_trianglediamonds.svg	stimuli_distractor_trianglediamonds.svg	34	no	57	0	122
6.6.1	win	2022-12-14	20:58:11	21:10:00	707373	5dcb685070d51c8275d7bd54	370979094	1	main_slash	11	main_slash	83	stimuli_target_squaretriangles.svg	stimuli_distractor_trianglediamonds.svg	3	yes	53	1	596
6.6.1	win	2022-12-14	20:58:11	21:10:00	707373	5dcb685070d51c8275d7bd54	370979094	1	main_slash	11	advance_on_keypress_SLASH	84	stimuli_target_squaretriangles.svg	stimuli_distractor_trianglediamonds.svg	3	yes	57	0	523
6.6.1	win	2022-12-14	20:58:11	21:10:02	709237	5dcb685070d51c8275d7bd54	370979094	1	main_slash	11	main_slash	85	stimuli_distractor_trianglediamonds.svg	stimuli_target_diamondcircles.svg	27	yes	53	1	695
6.6.1	win	2022-12-14	20:58:11	21:10:02	709237	5dcb685070d51c8275d7bd54	370979094	1	main_slash	11	advance_on_keypress_SLASH	86	stimuli_distractor_trianglediamonds.svg	stimuli_target_diamondcircles.svg	27	yes	57	0	538
6.6.1	win	2022-12-14	20:58:11	21:10:04	710901	5dcb685070d51c8275d7bd54	370979094	1	main_slash	11	main_slash	87	stimuli_distractor_trianglediamonds.svg	stimuli_target_squarediamonds.svg	12	yes	53	1	492
6.6.1	win	2022-12-14	20:58:11	21:10:04	710901	5dcb685070d51c8275d7bd54	370979094	1	main_slash	11	advance_on_keypress_SLASH	88	stimuli_distractor_trianglediamonds.svg	stimuli_target_squarediamonds.svg	12	yes	57	0	423
6.6.1	win	2022-12-14	20:58:11	21:10:05	712509	5dcb685070d51c8275d7bd54	370979094	1	main_slash	11	main_slash	89	stimuli_distractor_diamondtriangles.svg	stimuli_target_squaretriangles.svg	15	yes	53	1	549
6.6.1	win	2022-12-14	20:58:11	21:10:05	712509	5dcb685070d51c8275d7bd54	370979094	1	main_slash	11	advance_on_keypress_SLASH	90	stimuli_distractor_diamondtriangles.svg	stimuli_target_squaretriangles.svg	15	yes	57	0	342
6.6.1	win	2022-12-14	20:58:11	21:10:07	714237	5dcb685070d51c8275d7bd54	370979094	1	main_slash	11	main_slash	91	stimuli_target_diamondcircles.svg	stimuli_distractor_trianglediamonds.svg	19	yes	53	1	744
6.6.1	win	2022-12-14	20:58:11	21:10:07	714237	5dcb685070d51c8275d7bd54	370979094	1	main_slash	11	advance_on_keypress_SLASH	92	stimuli_target_diamondcircles.svg	stimuli_distractor_trianglediamonds.svg	19	yes	57	0	394
6.6.1	win	2022-12-14	20:58:11	21:10:09	715805	5dcb685070d51c8275d7bd54	370979094	1	main_slash	11	main_slash	93	stimuli_target_trianglecircles.svg	stimuli_distractor_trianglediamonds.svg	17	yes	53	1	545
6.6.1	win	2022-12-14	20:58:11	21:10:09	715805	5dcb685070d51c8275d7bd54	370979094	1	main_slash	11	advance_on_keypress_SLASH	94	stimuli_target_trianglecircles.svg	stimuli_distractor_trianglediamonds.svg	17	yes	57	0	323
6.6.1	win	2022-12-14	20:58:11	21:10:10	717253	5dcb685070d51c8275d7bd54	370979094	1	main_slash	11	main_slash	95	stimuli_distractor_diamondtriangles.svg	stimuli_target_trianglecircles.svg	29	yes	53	1	493
6.6.1	win	2022-12-14	20:58:11	21:10:10	717253	5dcb685070d51c8275d7bd54	370979094	1	main_slash	11	advance_on_keypress_SLASH	96	stimuli_distractor_diamondtriangles.svg	stimuli_target_trianglecircles.svg	29	yes	57	0	322
6.6.1	win	2022-12-14	20:58:11	21:10:11	718701	5dcb685070d51c8275d7bd54	370979094	1	main_slash	11	main_slash	97	stimuli_distractor_trianglediamonds.svg	stimuli_target_circlediamonds.svg	10	yes	53	1	492
6.6.1	win	2022-12-14	20:58:11	21:10:11	718701	5dcb685070d51c8275d7bd54	370979094	1	main_slash	11	advance_on_keypress_SLASH	98	stimuli_distractor_trianglediamonds.svg	stimuli_target_circlediamonds.svg	10	yes	57	0	343
6.6.1	win	2022-12-14	20:58:11	21:10:14	721676	5dcb685070d51c8275d7bd54	370979094	1	main_slash	11	main_slash	99	stimuli_distractor_diamondtriangles.svg	stimuli_distractor_diamondtriangles.svg	39	no	0	1	2000
6.6.1	win	2022-12-14	20:58:11	21:10:14	721676	5dcb685070d51c8275d7bd54	370979094	1	main_slash	11	advance_on_keypress_SLASH	100	stimuli_distractor_diamondtriangles.svg	stimuli_distractor_diamondtriangles.svg	39	no	57	0	688
6.6.1	win	2022-12-14	20:58:11	21:10:18	725009	5dcb685070d51c8275d7bd54	370979094	1	main_slash	11	main_slash	101	stimuli_distractor_diamondtriangles.svg	stimuli_distractor_diamondtriangles.svg	40	no	0	1	2000
6.6.1	win	2022-12-14	20:58:11	21:10:18	725009	5dcb685070d51c8275d7bd54	370979094	1	main_slash	11	advance_on_keypress_SLASH	102	stimuli_distractor_diamondtriangles.svg	stimuli_distractor_diamondtriangles.svg	40	no	57	0	267
6.6.1	win	2022-12-14	20:58:11	21:10:19	726701	5dcb685070d51c8275d7bd54	370979094	1	main_slash	11	main_slash	103	stimuli_target_circletriangles.svg	stimuli_distractor_diamondtriangles.svg	5	yes	53	1	774
6.6.1	win	2022-12-14	20:58:11	21:10:19	726701	5dcb685070d51c8275d7bd54	370979094	1	main_slash	11	advance_on_keypress_SLASH	104	stimuli_target_circletriangles.svg	stimuli_distractor_diamondtriangles.svg	5	yes	57	0	463
6.6.1	win	2022-12-14	20:58:11	21:10:21	728436	5dcb685070d51c8275d7bd54	370979094	1	main_slash	11	main_slash	105	stimuli_target_circlediamonds.svg	stimuli_distractor_diamondtriangles.svg	6	yes	53	1	627
6.6.1	win	2022-12-14	20:58:11	21:10:21	728436	5dcb685070d51c8275d7bd54	370979094	1	main_slash	11	advance_on_keypress_SLASH	106	stimuli_target_circlediamonds.svg	stimuli_distractor_diamondtriangles.svg	6	yes	57	0	402
6.6.1	win	2022-12-14	20:58:11	21:10:23	729837	5dcb685070d51c8275d7bd54	370979094	1	main_slash	11	main_slash	107	stimuli_target_trianglecircles.svg	stimuli_distractor_diamondtriangles.svg	21	yes	53	1	360
6.6.1	win	2022-12-14	20:58:11	21:10:23	729837	5dcb685070d51c8275d7bd54	370979094	1	main_slash	11	advance_on_keypress_SLASH	108	stimuli_target_trianglecircles.svg	stimuli_distractor_diamondtriangles.svg	21	yes	57	0	482
6.6.1	win	2022-12-14	20:58:11	21:10:24	731709	5dcb685070d51c8275d7bd54	370979094	1	main_slash	11	main_slash	109	stimuli_target_trianglesquares.svg	stimuli_distractor_trianglediamonds.svg	18	yes	53	1	749
6.6.1	win	2022-12-14	20:58:11	21:10:24	731709	5dcb685070d51c8275d7bd54	370979094	1	main_slash	11	advance_on_keypress_SLASH	110	stimuli_target_trianglesquares.svg	stimuli_distractor_trianglediamonds.svg	18	yes	57	0	438
6.6.1	win	2022-12-14	20:58:11	21:10:28	734793	5dcb685070d51c8275d7bd54	370979094	1	main_slash	11	main_slash	111	stimuli_distractor_diamondtriangles.svg	stimuli_distractor_trianglediamonds.svg	38	no	0	1	2000
6.6.1	win	2022-12-14	20:58:11	21:10:28	734793	5dcb685070d51c8275d7bd54	370979094	1	main_slash	11	advance_on_keypress_SLASH	112	stimuli_distractor_diamondtriangles.svg	stimuli_distractor_trianglediamonds.svg	38	no	57	0	843
6.6.1	win	2022-12-14	20:58:11	21:10:31	738276	5dcb685070d51c8275d7bd54	370979094	1	main_slash	11	main_slash	113	stimuli_target_diamondsquares.svg	stimuli_distractor_diamondtriangles.svg	24	yes	0	0	2000
6.6.1	win	2022-12-14	20:58:11	21:10:31	738276	5dcb685070d51c8275d7bd54	370979094	1	main_slash	11	advance_on_keypress_SLASH	114	stimuli_target_diamondsquares.svg	stimuli_distractor_diamondtriangles.svg	24	yes	57	0	424
6.6.1	win	2022-12-14	20:58:11	21:10:33	740428	5dcb685070d51c8275d7bd54	370979094	1	main_slash	11	main_slash	115	stimuli_distractor_trianglediamonds.svg	stimuli_target_diamondsquares.svg	28	yes	53	1	1085
6.6.1	win	2022-12-14	20:58:11	21:10:33	740428	5dcb685070d51c8275d7bd54	370979094	1	main_slash	11	advance_on_keypress_SLASH	116	stimuli_distractor_trianglediamonds.svg	stimuli_target_diamondsquares.svg	28	yes	57	0	538
6.6.1	win	2022-12-14	20:58:11	21:10:36	742788	5dcb685070d51c8275d7bd54	370979094	1	main_slash	11	main_slash	117	stimuli_distractor_diamondtriangles.svg	stimuli_target_squarediamonds.svg	16	yes	53	1	1179
6.6.1	win	2022-12-14	20:58:11	21:10:36	742788	5dcb685070d51c8275d7bd54	370979094	1	main_slash	11	advance_on_keypress_SLASH	118	stimuli_distractor_diamondtriangles.svg	stimuli_target_squarediamonds.svg	16	yes	57	0	492
6.6.1	win	2022-12-14	20:58:11	21:10:37	744757	5dcb685070d51c8275d7bd54	370979094	1	main_slash	11	main_slash	119	stimuli_distractor_trianglediamonds.svg	stimuli_target_trianglesquares.svg	26	yes	53	1	847
6.6.1	win	2022-12-14	20:58:11	21:10:37	744757	5dcb685070d51c8275d7bd54	370979094	1	main_slash	11	advance_on_keypress_SLASH	120	stimuli_distractor_trianglediamonds.svg	stimuli_target_trianglesquares.svg	26	yes	57	0	588
6.6.1	win	2022-12-14	20:58:11	21:10:39	746653	5dcb685070d51c8275d7bd54	370979094	1	main_slash	11	main_slash	121	stimuli_target_trianglesquares.svg	stimuli_distractor_diamondtriangles.svg	22	yes	53	1	660
6.6.1	win	2022-12-14	20:58:11	21:10:39	746653	5dcb685070d51c8275d7bd54	370979094	1	main_slash	11	advance_on_keypress_SLASH	122	stimuli_target_trianglesquares.svg	stimuli_distractor_diamondtriangles.svg	22	yes	57	0	402
6.6.1	win	2022-12-14	20:58:11	21:10:41	748278	5dcb685070d51c8275d7bd54	370979094	1	main_slash	11	main_slash	123	stimuli_target_diamondcircles.svg	stimuli_distractor_diamondtriangles.svg	23	yes	53	1	584
6.6.1	win	2022-12-14	20:58:11	21:10:41	748278	5dcb685070d51c8275d7bd54	370979094	1	main_slash	11	advance_on_keypress_SLASH	124	stimuli_target_diamondcircles.svg	stimuli_distractor_diamondtriangles.svg	23	yes	57	0	360
6.6.1	win	2022-12-14	20:58:11	21:10:44	751276	5dcb685070d51c8275d7bd54	370979094	1	main_slash	11	main_slash	125	stimuli_target_squaretriangles.svg	stimuli_distractor_diamondtriangles.svg	7	yes	0	0	2000
6.6.1	win	2022-12-14	20:58:11	21:10:44	751276	5dcb685070d51c8275d7bd54	370979094	1	main_slash	11	advance_on_keypress_SLASH	126	stimuli_target_squaretriangles.svg	stimuli_distractor_diamondtriangles.svg	7	yes	57	0	400
6.6.1	win	2022-12-14	20:58:11	21:10:46	753453	5dcb685070d51c8275d7bd54	370979094	1	main_slash	11	main_slash	127	stimuli_distractor_trianglediamonds.svg	stimuli_target_circletriangles.svg	9	yes	53	1	1126
6.6.1	win	2022-12-14	20:58:11	21:10:46	753453	5dcb685070d51c8275d7bd54	370979094	1	main_slash	11	advance_on_keypress_SLASH	128	stimuli_distractor_trianglediamonds.svg	stimuli_target_circletriangles.svg	9	yes	57	0	513
6.6.1	win	2022-12-14	20:58:11	21:10:48	755204	5dcb685070d51c8275d7bd54	370979094	1	main_slash	11	main_slash	129	stimuli_distractor_diamondtriangles.svg	stimuli_target_trianglesquares.svg	30	yes	53	1	595
6.6.1	win	2022-12-14	20:58:11	21:10:48	755204	5dcb685070d51c8275d7bd54	370979094	1	main_slash	11	advance_on_keypress_SLASH	130	stimuli_distractor_diamondtriangles.svg	stimuli_target_trianglesquares.svg	30	yes	57	0	451
6.6.1	win	2022-12-14	20:58:11	21:10:49	756757	5dcb685070d51c8275d7bd54	370979094	1	main_slash	11	main_slash	131	stimuli_target_diamondsquares.svg	stimuli_distractor_trianglediamonds.svg	20	yes	53	1	464
6.6.1	win	2022-12-14	20:58:11	21:10:49	756757	5dcb685070d51c8275d7bd54	370979094	1	main_slash	11	advance_on_keypress_SLASH	132	stimuli_target_diamondsquares.svg	stimuli_distractor_trianglediamonds.svg	20	yes	57	0	308
6.6.1	win	2022-12-14	20:58:11	21:10:51	758284	5dcb685070d51c8275d7bd54	370979094	1	main_slash	11	main_slash	133	stimuli_distractor_diamondtriangles.svg	stimuli_distractor_trianglediamonds.svg	37	no	53	0	575
6.6.1	win	2022-12-14	20:58:11	21:10:51	758284	5dcb685070d51c8275d7bd54	370979094	1	main_slash	11	advance_on_keypress_SLASH	134	stimuli_distractor_diamondtriangles.svg	stimuli_distractor_trianglediamonds.svg	37	no	57	0	280
6.6.1	win	2022-12-14	20:58:11	21:10:54	761209	5dcb685070d51c8275d7bd54	370979094	1	main_slash	11	main_slash	135	stimuli_distractor_trianglediamonds.svg	stimuli_distractor_diamondtriangles.svg	36	no	0	1	2000
6.6.1	win	2022-12-14	20:58:11	21:10:54	761209	5dcb685070d51c8275d7bd54	370979094	1	main_slash	11	advance_on_keypress_SLASH	136	stimuli_distractor_trianglediamonds.svg	stimuli_distractor_diamondtriangles.svg	36	no	57	0	426
6.6.1	win	2022-12-14	20:58:11	21:10:56	762828	5dcb685070d51c8275d7bd54	370979094	1	main_slash	11	main_slash	137	stimuli_distractor_diamondtriangles.svg	stimuli_target_diamondsquares.svg	32	yes	53	1	552
6.6.1	win	2022-12-14	20:58:11	21:10:56	762828	5dcb685070d51c8275d7bd54	370979094	1	main_slash	11	advance_on_keypress_SLASH	138	stimuli_distractor_diamondtriangles.svg	stimuli_target_diamondsquares.svg	32	yes	57	0	289
6.6.1	win	2022-12-14	20:58:11	21:10:58	765760	5dcb685070d51c8275d7bd54	370979094	1	main_slash	11	main_slash	139	stimuli_distractor_trianglediamonds.svg	stimuli_target_trianglecircles.svg	25	yes	0	0	2000
6.6.1	win	2022-12-14	20:58:11	21:10:58	765760	5dcb685070d51c8275d7bd54	370979094	1	main_slash	11	advance_on_keypress_SLASH	140	stimuli_distractor_trianglediamonds.svg	stimuli_target_trianglecircles.svg	25	yes	57	0	572
6.6.1	win	2022-12-14	20:58:11	21:11:02	768976	5dcb685070d51c8275d7bd54	370979094	1	main_slash	11	main_slash	141	stimuli_distractor_trianglediamonds.svg	stimuli_distractor_diamondtriangles.svg	35	no	0	1	2000
6.6.1	win	2022-12-14	20:58:11	21:11:02	768976	5dcb685070d51c8275d7bd54	370979094	1	main_slash	11	advance_on_keypress_SLASH	142	stimuli_distractor_trianglediamonds.svg	stimuli_distractor_diamondtriangles.svg	35	no	57	0	1108
6.6.1	win	2022-12-14	20:58:11	21:11:04	770796	5dcb685070d51c8275d7bd54	370979094	1	main_slash	11	main_slash	143	stimuli_target_squarediamonds.svg	stimuli_distractor_diamondtriangles.svg	8	yes	53	1	70
6.6.1	win	2022-12-14	20:58:11	21:11:04	770796	5dcb685070d51c8275d7bd54	370979094	1	main_slash	11	advance_on_keypress_SLASH	144	stimuli_target_squarediamonds.svg	stimuli_distractor_diamondtriangles.svg	8	yes	57	0	636
6.6.1	win	2022-12-14	20:58:11	21:11:07	774076	5dcb685070d51c8275d7bd54	370979094	1	main_slash	11	main_slash	145	stimuli_distractor_diamondtriangles.svg	stimuli_target_circletriangles.svg	13	yes	0	0	2000
6.6.1	win	2022-12-14	20:58:11	21:11:07	774076	5dcb685070d51c8275d7bd54	370979094	1	main_slash	11	advance_on_keypress_SLASH	146	stimuli_distractor_diamondtriangles.svg	stimuli_target_circletriangles.svg	13	yes	57	0	2216
6.6.1	win	2022-12-14	20:58:11	21:11:10	777717	5dcb685070d51c8275d7bd54	370979094	1	main_slash	11	main_slash	147	stimuli_distractor_diamondtriangles.svg	stimuli_target_diamondcircles.svg	31	yes	53	1	775
6.6.1	win	2022-12-14	20:58:11	21:11:10	777717	5dcb685070d51c8275d7bd54	370979094	1	main_slash	11	advance_on_keypress_SLASH	148	stimuli_distractor_diamondtriangles.svg	stimuli_target_diamondcircles.svg	31	yes	57	0	518
6.6.1	win	2022-12-14	20:58:11	21:11:14	780877	5dcb685070d51c8275d7bd54	370979094	1	main_slash	11	main_slash	149	stimuli_distractor_trianglediamonds.svg	stimuli_target_squaretriangles.svg	11	yes	0	0	2000
6.6.1	win	2022-12-14	20:58:11	21:11:14	780877	5dcb685070d51c8275d7bd54	370979094	1	main_slash	11	advance_on_keypress_SLASH	150	stimuli_distractor_trianglediamonds.svg	stimuli_target_squaretriangles.svg	11	yes	57	0	447
6.6.1	win	2022-12-14	20:58:11	21:11:15	782668	5dcb685070d51c8275d7bd54	370979094	1	main_slash	11	main_slash	151	stimuli_target_squarediamonds.svg	stimuli_distractor_trianglediamonds.svg	4	yes	53	1	692
6.6.1	win	2022-12-14	20:58:11	21:11:15	782668	5dcb685070d51c8275d7bd54	370979094	1	main_slash	11	advance_on_keypress_SLASH	152	stimuli_target_squarediamonds.svg	stimuli_distractor_trianglediamonds.svg	4	yes	57	0	488
6.6.1	win	2022-12-14	20:58:11	21:11:17	784556	5dcb685070d51c8275d7bd54	370979094	1	main_slash	11	main_slash	153	stimuli_distractor_diamondtriangles.svg	stimuli_target_circlediamonds.svg	14	yes	53	1	763
6.6.1	win	2022-12-14	20:58:11	21:11:17	784556	5dcb685070d51c8275d7bd54	370979094	1	main_slash	11	advance_on_keypress_SLASH	154	stimuli_distractor_diamondtriangles.svg	stimuli_target_circlediamonds.svg	14	yes	57	0	388
6.6.1	win	2022-12-14	20:58:11	21:11:20	787593	5dcb685070d51c8275d7bd54	370979094	1	main_slash	11	main_slash	155	stimuli_distractor_trianglediamonds.svg	stimuli_distractor_trianglediamonds.svg	33	no	0	1	2000
6.6.1	win	2022-12-14	20:58:11	21:11:20	787593	5dcb685070d51c8275d7bd54	370979094	1	main_slash	11	advance_on_keypress_SLASH	156	stimuli_distractor_trianglediamonds.svg	stimuli_distractor_trianglediamonds.svg	33	no	57	0	252
6.6.1	win	2022-12-14	20:58:11	21:11:22	789036	5dcb685070d51c8275d7bd54	370979094	1	main_slash	11	main_slash	157	stimuli_target_circlediamonds.svg	stimuli_distractor_trianglediamonds.svg	2	yes	53	1	544
6.6.1	win	2022-12-14	20:58:11	21:11:22	789036	5dcb685070d51c8275d7bd54	370979094	1	main_slash	11	advance_on_keypress_SLASH	158	stimuli_target_circlediamonds.svg	stimuli_distractor_trianglediamonds.svg	2	yes	57	0	378
6.6.1	win	2022-12-14	20:58:11	21:11:23	790580	5dcb685070d51c8275d7bd54	370979094	1	main_slash	11	main_slash	159	stimuli_target_circletriangles.svg	stimuli_distractor_trianglediamonds.svg	1	yes	53	1	537
6.6.1	win	2022-12-14	20:58:11	21:11:23	790580	5dcb685070d51c8275d7bd54	370979094	1	main_slash	11	advance_on_keypress_SLASH	160	stimuli_target_circletriangles.svg	stimuli_distractor_trianglediamonds.svg	1	yes	57	0	300