build	computer.platform	date	time	timestamp	time_elapsed_ms	subject	group	session	blockcode	blocknum	trialcode	trialnum	stimulus_left	stimulus_right	stim_index	target_present	response	correct	latency
6.6.1	win	2022-12-20	04:25:54	04:29:21	206342	5de33ff0cc246f3633dc01d2	484219622	1	practice_z	5	practice_z	1	stimuli_distractor_diamondtriangles.svg	stimuli_distractor_diamondtriangles.svg	13	no	44	0	1262
6.6.1	win	2022-12-20	04:25:54	04:29:21	206342	5de33ff0cc246f3633dc01d2	484219622	1	practice_z	5	advance_on_keypress_ZEE	2	stimuli_distractor_diamondtriangles.svg	stimuli_distractor_diamondtriangles.svg	13	no	57	0	507
6.6.1	win	2022-12-20	04:25:54	04:29:24	209501	5de33ff0cc246f3633dc01d2	484219622	1	practice_z	5	practice_z	3	stimuli_distractor_trianglediamonds.svg	stimuli_target_squarediamonds.svg	11	yes	44	1	988
6.6.1	win	2022-12-20	04:25:54	04:29:24	209501	5de33ff0cc246f3633dc01d2	484219622	1	practice_z	5	advance_on_keypress_ZEE	4	stimuli_distractor_trianglediamonds.svg	stimuli_target_squarediamonds.svg	11	yes	57	0	494
6.6.1	win	2022-12-20	04:25:54	04:29:28	212931	5de33ff0cc246f3633dc01d2	484219622	1	practice_z	5	practice_z	5	stimuli_distractor_diamondtriangles.svg	stimuli_target_circletriangles.svg	7	yes	44	1	1303
6.6.1	win	2022-12-20	04:25:54	04:29:28	212931	5de33ff0cc246f3633dc01d2	484219622	1	practice_z	5	advance_on_keypress_ZEE	6	stimuli_distractor_diamondtriangles.svg	stimuli_target_circletriangles.svg	7	yes	57	0	506
6.6.1	win	2022-12-20	04:25:54	04:29:32	217094	5de33ff0cc246f3633dc01d2	484219622	1	practice_z	5	practice_z	7	stimuli_target_diamondsquares.svg	stimuli_distractor_diamondtriangles.svg	3	yes	0	0	2000
6.6.1	win	2022-12-20	04:25:54	04:29:32	217094	5de33ff0cc246f3633dc01d2	484219622	1	practice_z	5	advance_on_keypress_ZEE	8	stimuli_target_diamondsquares.svg	stimuli_distractor_diamondtriangles.svg	3	yes	57	0	187
6.6.1	win	2022-12-20	04:25:54	04:29:36	220926	5de33ff0cc246f3633dc01d2	484219622	1	practice_z	5	practice_z	9	stimuli_distractor_trianglediamonds.svg	stimuli_distractor_trianglediamonds.svg	15	no	0	1	2000
6.6.1	win	2022-12-20	04:25:54	04:29:36	220926	5de33ff0cc246f3633dc01d2	484219622	1	practice_z	5	advance_on_keypress_ZEE	10	stimuli_distractor_trianglediamonds.svg	stimuli_distractor_trianglediamonds.svg	15	no	57	0	442
6.6.1	win	2022-12-20	04:25:54	04:29:39	223966	5de33ff0cc246f3633dc01d2	484219622	1	practice_z	5	practice_z	11	stimuli_target_circlediamonds.svg	stimuli_distractor_diamondtriangles.svg	1	yes	44	1	958
6.6.1	win	2022-12-20	04:25:54	04:29:39	223966	5de33ff0cc246f3633dc01d2	484219622	1	practice_z	5	advance_on_keypress_ZEE	12	stimuli_target_circlediamonds.svg	stimuli_distractor_diamondtriangles.svg	1	yes	57	0	632
6.6.1	win	2022-12-20	04:25:54	04:29:43	228240	5de33ff0cc246f3633dc01d2	484219622	1	practice_z	5	practice_z	13	stimuli_distractor_trianglediamonds.svg	stimuli_distractor_diamondtriangles.svg	16	no	0	1	2000
6.6.1	win	2022-12-20	04:25:54	04:29:43	228240	5de33ff0cc246f3633dc01d2	484219622	1	practice_z	5	advance_on_keypress_ZEE	14	stimuli_distractor_trianglediamonds.svg	stimuli_distractor_diamondtriangles.svg	16	no	57	0	566
6.6.1	win	2022-12-20	04:25:54	04:29:47	232456	5de33ff0cc246f3633dc01d2	484219622	1	practice_z	5	practice_z	15	stimuli_distractor_diamondtriangles.svg	stimuli_target_trianglecircles.svg	9	yes	0	0	2000
6.6.1	win	2022-12-20	04:25:54	04:29:47	232456	5de33ff0cc246f3633dc01d2	484219622	1	practice_z	5	advance_on_keypress_ZEE	16	stimuli_distractor_diamondtriangles.svg	stimuli_target_trianglecircles.svg	9	yes	57	0	547
6.6.1	win	2022-12-20	04:25:54	04:29:51	236654	5de33ff0cc246f3633dc01d2	484219622	1	practice_z	5	practice_z	17	stimuli_target_diamondsquares.svg	stimuli_distractor_trianglediamonds.svg	6	yes	0	0	2000
6.6.1	win	2022-12-20	04:25:54	04:29:51	236654	5de33ff0cc246f3633dc01d2	484219622	1	practice_z	5	advance_on_keypress_ZEE	18	stimuli_target_diamondsquares.svg	stimuli_distractor_trianglediamonds.svg	6	yes	57	0	299
6.6.1	win	2022-12-20	04:25:54	04:29:54	239743	5de33ff0cc246f3633dc01d2	484219622	1	practice_z	5	practice_z	19	stimuli_target_squarediamonds.svg	stimuli_distractor_diamondtriangles.svg	2	yes	44	1	1140
6.6.1	win	2022-12-20	04:25:54	04:29:54	239743	5de33ff0cc246f3633dc01d2	484219622	1	practice_z	5	advance_on_keypress_ZEE	20	stimuli_target_squarediamonds.svg	stimuli_distractor_diamondtriangles.svg	2	yes	57	0	480
6.6.1	win	2022-12-20	04:25:54	04:29:59	243868	5de33ff0cc246f3633dc01d2	484219622	1	practice_z	5	practice_z	21	stimuli_distractor_diamondtriangles.svg	stimuli_distractor_trianglediamonds.svg	14	no	0	1	2000
6.6.1	win	2022-12-20	04:25:54	04:29:59	243868	5de33ff0cc246f3633dc01d2	484219622	1	practice_z	5	advance_on_keypress_ZEE	22	stimuli_distractor_diamondtriangles.svg	stimuli_distractor_trianglediamonds.svg	14	no	57	0	480
6.6.1	win	2022-12-20	04:25:54	04:30:02	246876	5de33ff0cc246f3633dc01d2	484219622	1	practice_z	5	practice_z	23	stimuli_target_circlediamonds.svg	stimuli_distractor_trianglediamonds.svg	4	yes	44	1	876
6.6.1	win	2022-12-20	04:25:54	04:30:02	246876	5de33ff0cc246f3633dc01d2	484219622	1	practice_z	5	advance_on_keypress_ZEE	24	stimuli_target_circlediamonds.svg	stimuli_distractor_trianglediamonds.svg	4	yes	57	0	633
6.6.1	win	2022-12-20	04:25:54	04:30:05	249971	5de33ff0cc246f3633dc01d2	484219622	1	practice_z	5	practice_z	25	stimuli_distractor_trianglediamonds.svg	stimuli_target_circlediamonds.svg	10	yes	44	1	822
6.6.1	win	2022-12-20	04:25:54	04:30:05	249971	5de33ff0cc246f3633dc01d2	484219622	1	practice_z	5	advance_on_keypress_ZEE	26	stimuli_distractor_trianglediamonds.svg	stimuli_target_circlediamonds.svg	10	yes	57	0	573
6.6.1	win	2022-12-20	04:25:54	04:30:09	254182	5de33ff0cc246f3633dc01d2	484219622	1	practice_z	5	practice_z	27	stimuli_distractor_diamondtriangles.svg	stimuli_target_diamondcircles.svg	8	yes	0	0	2000
6.6.1	win	2022-12-20	04:25:54	04:30:09	254182	5de33ff0cc246f3633dc01d2	484219622	1	practice_z	5	advance_on_keypress_ZEE	28	stimuli_distractor_diamondtriangles.svg	stimuli_target_diamondcircles.svg	8	yes	57	0	659
6.6.1	win	2022-12-20	04:25:54	04:30:13	257984	5de33ff0cc246f3633dc01d2	484219622	1	practice_z	5	practice_z	29	stimuli_distractor_trianglediamonds.svg	stimuli_target_diamondcircles.svg	12	yes	44	1	1504
6.6.1	win	2022-12-20	04:25:54	04:30:13	257984	5de33ff0cc246f3633dc01d2	484219622	1	practice_z	5	advance_on_keypress_ZEE	30	stimuli_distractor_trianglediamonds.svg	stimuli_target_diamondcircles.svg	12	yes	57	0	458
6.6.1	win	2022-12-20	04:25:54	04:30:16	260934	5de33ff0cc246f3633dc01d2	484219622	1	practice_z	5	practice_z	31	stimuli_target_squarediamonds.svg	stimuli_distractor_trianglediamonds.svg	5	yes	44	1	855
6.6.1	win	2022-12-20	04:25:54	04:30:16	260934	5de33ff0cc246f3633dc01d2	484219622	1	practice_z	5	advance_on_keypress_ZEE	32	stimuli_target_squarediamonds.svg	stimuli_distractor_trianglediamonds.svg	5	yes	57	0	444
6.6.1	win	2022-12-20	04:25:54	04:30:25	270641	5de33ff0cc246f3633dc01d2	484219622	1	main_z	7	main_z	1	stimuli_distractor_diamondtriangles.svg	stimuli_target_trianglecircles.svg	29	yes	0	0	2000
6.6.1	win	2022-12-20	04:25:54	04:30:25	270641	5de33ff0cc246f3633dc01d2	484219622	1	main_z	7	advance_on_keypress_ZEE	2	stimuli_distractor_diamondtriangles.svg	stimuli_target_trianglecircles.svg	29	yes	57	0	647
6.6.1	win	2022-12-20	04:25:54	04:30:27	272543	5de33ff0cc246f3633dc01d2	484219622	1	main_z	7	main_z	3	stimuli_distractor_trianglediamonds.svg	stimuli_target_circlediamonds.svg	10	yes	44	1	604
6.6.1	win	2022-12-20	04:25:54	04:30:27	272543	5de33ff0cc246f3633dc01d2	484219622	1	main_z	7	advance_on_keypress_ZEE	4	stimuli_distractor_trianglediamonds.svg	stimuli_target_circlediamonds.svg	10	yes	57	0	723
6.6.1	win	2022-12-20	04:25:54	04:30:29	274677	5de33ff0cc246f3633dc01d2	484219622	1	main_z	7	main_z	5	stimuli_distractor_diamondtriangles.svg	stimuli_target_circletriangles.svg	13	yes	44	1	772
6.6.1	win	2022-12-20	04:25:54	04:30:29	274677	5de33ff0cc246f3633dc01d2	484219622	1	main_z	7	advance_on_keypress_ZEE	6	stimuli_distractor_diamondtriangles.svg	stimuli_target_circletriangles.svg	13	yes	57	0	1013
6.6.1	win	2022-12-20	04:25:54	04:30:33	278322	5de33ff0cc246f3633dc01d2	484219622	1	main_z	7	main_z	7	stimuli_distractor_diamondtriangles.svg	stimuli_distractor_diamondtriangles.svg	40	no	0	1	2000
6.6.1	win	2022-12-20	04:25:54	04:30:33	278322	5de33ff0cc246f3633dc01d2	484219622	1	main_z	7	advance_on_keypress_ZEE	8	stimuli_distractor_diamondtriangles.svg	stimuli_distractor_diamondtriangles.svg	40	no	57	0	603
6.6.1	win	2022-12-20	04:25:54	04:30:35	280427	5de33ff0cc246f3633dc01d2	484219622	1	main_z	7	main_z	9	stimuli_distractor_diamondtriangles.svg	stimuli_target_squaretriangles.svg	15	yes	44	1	857
6.6.1	win	2022-12-20	04:25:54	04:30:35	280427	5de33ff0cc246f3633dc01d2	484219622	1	main_z	7	advance_on_keypress_ZEE	10	stimuli_distractor_diamondtriangles.svg	stimuli_target_squaretriangles.svg	15	yes	57	0	671
6.6.1	win	2022-12-20	04:25:54	04:30:38	283737	5de33ff0cc246f3633dc01d2	484219622	1	main_z	7	main_z	11	stimuli_distractor_trianglediamonds.svg	stimuli_distractor_diamondtriangles.svg	36	no	0	1	2000
6.6.1	win	2022-12-20	04:25:54	04:30:38	283737	5de33ff0cc246f3633dc01d2	484219622	1	main_z	7	advance_on_keypress_ZEE	12	stimuli_distractor_trianglediamonds.svg	stimuli_distractor_diamondtriangles.svg	36	no	57	0	641
6.6.1	win	2022-12-20	04:25:54	04:30:40	285675	5de33ff0cc246f3633dc01d2	484219622	1	main_z	7	main_z	13	stimuli_target_circletriangles.svg	stimuli_distractor_diamondtriangles.svg	5	yes	44	1	656
6.6.1	win	2022-12-20	04:25:54	04:30:40	285675	5de33ff0cc246f3633dc01d2	484219622	1	main_z	7	advance_on_keypress_ZEE	14	stimuli_target_circletriangles.svg	stimuli_distractor_diamondtriangles.svg	5	yes	57	0	565
6.6.1	win	2022-12-20	04:25:54	04:30:44	288885	5de33ff0cc246f3633dc01d2	484219622	1	main_z	7	main_z	15	stimuli_target_diamondcircles.svg	stimuli_distractor_diamondtriangles.svg	23	yes	0	0	2000
6.6.1	win	2022-12-20	04:25:54	04:30:44	288885	5de33ff0cc246f3633dc01d2	484219622	1	main_z	7	advance_on_keypress_ZEE	16	stimuli_target_diamondcircles.svg	stimuli_distractor_diamondtriangles.svg	23	yes	57	0	507
6.6.1	win	2022-12-20	04:25:54	04:30:45	290560	5de33ff0cc246f3633dc01d2	484219622	1	main_z	7	main_z	17	stimuli_distractor_trianglediamonds.svg	stimuli_target_circletriangles.svg	9	yes	44	1	526
6.6.1	win	2022-12-20	04:25:54	04:30:45	290560	5de33ff0cc246f3633dc01d2	484219622	1	main_z	7	advance_on_keypress_ZEE	18	stimuli_distractor_trianglediamonds.svg	stimuli_target_circletriangles.svg	9	yes	57	0	786
6.6.1	win	2022-12-20	04:25:54	04:30:49	293983	5de33ff0cc246f3633dc01d2	484219622	1	main_z	7	main_z	19	stimuli_target_diamondsquares.svg	stimuli_distractor_trianglediamonds.svg	20	yes	0	0	2000
6.6.1	win	2022-12-20	04:25:54	04:30:49	293983	5de33ff0cc246f3633dc01d2	484219622	1	main_z	7	advance_on_keypress_ZEE	20	stimuli_target_diamondsquares.svg	stimuli_distractor_trianglediamonds.svg	20	yes	57	0	519
6.6.1	win	2022-12-20	04:25:54	04:30:52	297149	5de33ff0cc246f3633dc01d2	484219622	1	main_z	7	main_z	21	stimuli_distractor_trianglediamonds.svg	stimuli_target_trianglecircles.svg	25	yes	0	0	2000
6.6.1	win	2022-12-20	04:25:54	04:30:52	297149	5de33ff0cc246f3633dc01d2	484219622	1	main_z	7	advance_on_keypress_ZEE	22	stimuli_distractor_trianglediamonds.svg	stimuli_target_trianglecircles.svg	25	yes	57	0	400
6.6.1	win	2022-12-20	04:25:54	04:30:55	300198	5de33ff0cc246f3633dc01d2	484219622	1	main_z	7	main_z	23	stimuli_distractor_trianglediamonds.svg	stimuli_target_trianglesquares.svg	26	yes	0	0	2000
6.6.1	win	2022-12-20	04:25:54	04:30:55	300198	5de33ff0cc246f3633dc01d2	484219622	1	main_z	7	advance_on_keypress_ZEE	24	stimuli_distractor_trianglediamonds.svg	stimuli_target_trianglesquares.svg	26	yes	57	0	421
6.6.1	win	2022-12-20	04:25:54	04:30:58	303263	5de33ff0cc246f3633dc01d2	484219622	1	main_z	7	main_z	25	stimuli_distractor_trianglediamonds.svg	stimuli_target_diamondcircles.svg	27	yes	0	0	2000
6.6.1	win	2022-12-20	04:25:54	04:30:58	303263	5de33ff0cc246f3633dc01d2	484219622	1	main_z	7	advance_on_keypress_ZEE	26	stimuli_distractor_trianglediamonds.svg	stimuli_target_diamondcircles.svg	27	yes	57	0	370
6.6.1	win	2022-12-20	04:25:54	04:31:00	304825	5de33ff0cc246f3633dc01d2	484219622	1	main_z	7	main_z	27	stimuli_distractor_trianglediamonds.svg	stimuli_target_squaretriangles.svg	11	yes	44	1	546
6.6.1	win	2022-12-20	04:25:54	04:31:00	304825	5de33ff0cc246f3633dc01d2	484219622	1	main_z	7	advance_on_keypress_ZEE	28	stimuli_distractor_trianglediamonds.svg	stimuli_target_squaretriangles.svg	11	yes	57	0	595
6.6.1	win	2022-12-20	04:25:54	04:31:01	306640	5de33ff0cc246f3633dc01d2	484219622	1	main_z	7	main_z	29	stimuli_target_circlediamonds.svg	stimuli_distractor_diamondtriangles.svg	6	yes	44	1	561
6.6.1	win	2022-12-20	04:25:54	04:31:01	306640	5de33ff0cc246f3633dc01d2	484219622	1	main_z	7	advance_on_keypress_ZEE	30	stimuli_target_circlediamonds.svg	stimuli_distractor_diamondtriangles.svg	6	yes	57	0	1027
6.6.1	win	2022-12-20	04:25:54	04:31:05	310295	5de33ff0cc246f3633dc01d2	484219622	1	main_z	7	main_z	31	stimuli_distractor_trianglediamonds.svg	stimuli_distractor_trianglediamonds.svg	33	no	0	1	2000
6.6.1	win	2022-12-20	04:25:54	04:31:05	310295	5de33ff0cc246f3633dc01d2	484219622	1	main_z	7	advance_on_keypress_ZEE	32	stimuli_distractor_trianglediamonds.svg	stimuli_distractor_trianglediamonds.svg	33	no	57	0	343
6.6.1	win	2022-12-20	04:25:54	04:31:07	311798	5de33ff0cc246f3633dc01d2	484219622	1	main_z	7	main_z	33	stimuli_target_circlediamonds.svg	stimuli_distractor_trianglediamonds.svg	2	yes	44	1	521
6.6.1	win	2022-12-20	04:25:54	04:31:07	311798	5de33ff0cc246f3633dc01d2	484219622	1	main_z	7	advance_on_keypress_ZEE	34	stimuli_target_circlediamonds.svg	stimuli_distractor_trianglediamonds.svg	2	yes	57	0	1436
6.6.1	win	2022-12-20	04:25:54	04:31:10	315252	5de33ff0cc246f3633dc01d2	484219622	1	main_z	7	main_z	35	stimuli_distractor_diamondtriangles.svg	stimuli_target_trianglesquares.svg	30	yes	44	1	1376
6.6.1	win	2022-12-20	04:25:54	04:31:10	315252	5de33ff0cc246f3633dc01d2	484219622	1	main_z	7	advance_on_keypress_ZEE	36	stimuli_distractor_diamondtriangles.svg	stimuli_target_trianglesquares.svg	30	yes	57	0	577
6.6.1	win	2022-12-20	04:25:54	04:31:13	318458	5de33ff0cc246f3633dc01d2	484219622	1	main_z	7	main_z	37	stimuli_distractor_trianglediamonds.svg	stimuli_target_diamondsquares.svg	28	yes	0	0	2000
6.6.1	win	2022-12-20	04:25:54	04:31:13	318458	5de33ff0cc246f3633dc01d2	484219622	1	main_z	7	advance_on_keypress_ZEE	38	stimuli_distractor_trianglediamonds.svg	stimuli_target_diamondsquares.svg	28	yes	57	0	568
6.6.1	win	2022-12-20	04:25:54	04:31:16	321674	5de33ff0cc246f3633dc01d2	484219622	1	main_z	7	main_z	39	stimuli_distractor_diamondtriangles.svg	stimuli_distractor_trianglediamonds.svg	38	no	0	1	2000
6.6.1	win	2022-12-20	04:25:54	04:31:16	321674	5de33ff0cc246f3633dc01d2	484219622	1	main_z	7	advance_on_keypress_ZEE	40	stimuli_distractor_diamondtriangles.svg	stimuli_distractor_trianglediamonds.svg	38	no	57	0	376
6.6.1	win	2022-12-20	04:25:54	04:31:19	324690	5de33ff0cc246f3633dc01d2	484219622	1	main_z	7	main_z	41	stimuli_target_diamondcircles.svg	stimuli_distractor_trianglediamonds.svg	19	yes	0	0	2000
6.6.1	win	2022-12-20	04:25:54	04:31:19	324690	5de33ff0cc246f3633dc01d2	484219622	1	main_z	7	advance_on_keypress_ZEE	42	stimuli_target_diamondcircles.svg	stimuli_distractor_trianglediamonds.svg	19	yes	57	0	230
6.6.1	win	2022-12-20	04:25:54	04:31:21	326663	5de33ff0cc246f3633dc01d2	484219622	1	main_z	7	main_z	43	stimuli_target_trianglesquares.svg	stimuli_distractor_diamondtriangles.svg	22	yes	44	1	1091
6.6.1	win	2022-12-20	04:25:54	04:31:21	326663	5de33ff0cc246f3633dc01d2	484219622	1	main_z	7	advance_on_keypress_ZEE	44	stimuli_target_trianglesquares.svg	stimuli_distractor_diamondtriangles.svg	22	yes	57	0	536
6.6.1	win	2022-12-20	04:25:54	04:31:25	329838	5de33ff0cc246f3633dc01d2	484219622	1	main_z	7	main_z	45	stimuli_target_trianglesquares.svg	stimuli_distractor_trianglediamonds.svg	18	yes	0	0	2000
6.6.1	win	2022-12-20	04:25:54	04:31:25	329838	5de33ff0cc246f3633dc01d2	484219622	1	main_z	7	advance_on_keypress_ZEE	46	stimuli_target_trianglesquares.svg	stimuli_distractor_trianglediamonds.svg	18	yes	57	0	472
6.6.1	win	2022-12-20	04:25:54	04:31:26	331525	5de33ff0cc246f3633dc01d2	484219622	1	main_z	7	main_z	47	stimuli_target_squarediamonds.svg	stimuli_distractor_diamondtriangles.svg	8	yes	44	1	572
6.6.1	win	2022-12-20	04:25:54	04:31:26	331525	5de33ff0cc246f3633dc01d2	484219622	1	main_z	7	advance_on_keypress_ZEE	48	stimuli_target_squarediamonds.svg	stimuli_distractor_diamondtriangles.svg	8	yes	57	0	612
6.6.1	win	2022-12-20	04:25:54	04:31:30	334770	5de33ff0cc246f3633dc01d2	484219622	1	main_z	7	main_z	49	stimuli_target_trianglecircles.svg	stimuli_distractor_trianglediamonds.svg	17	yes	0	0	2000
6.6.1	win	2022-12-20	04:25:54	04:31:30	334770	5de33ff0cc246f3633dc01d2	484219622	1	main_z	7	advance_on_keypress_ZEE	50	stimuli_target_trianglecircles.svg	stimuli_distractor_trianglediamonds.svg	17	yes	57	0	426
6.6.1	win	2022-12-20	04:25:54	04:31:33	337835	5de33ff0cc246f3633dc01d2	484219622	1	main_z	7	main_z	51	stimuli_distractor_trianglediamonds.svg	stimuli_distractor_trianglediamonds.svg	34	no	0	1	2000
6.6.1	win	2022-12-20	04:25:54	04:31:33	337835	5de33ff0cc246f3633dc01d2	484219622	1	main_z	7	advance_on_keypress_ZEE	52	stimuli_distractor_trianglediamonds.svg	stimuli_distractor_trianglediamonds.svg	34	no	57	0	310
6.6.1	win	2022-12-20	04:25:54	04:31:36	340784	5de33ff0cc246f3633dc01d2	484219622	1	main_z	7	main_z	53	stimuli_target_diamondsquares.svg	stimuli_distractor_diamondtriangles.svg	24	yes	0	0	2000
6.6.1	win	2022-12-20	04:25:54	04:31:36	340784	5de33ff0cc246f3633dc01d2	484219622	1	main_z	7	advance_on_keypress_ZEE	54	stimuli_target_diamondsquares.svg	stimuli_distractor_diamondtriangles.svg	24	yes	57	0	1488
6.6.1	win	2022-12-20	04:25:54	04:31:40	344916	5de33ff0cc246f3633dc01d2	484219622	1	main_z	7	main_z	55	stimuli_distractor_diamondtriangles.svg	stimuli_target_diamondsquares.svg	32	yes	0	0	2000
6.6.1	win	2022-12-20	04:25:54	04:31:40	344916	5de33ff0cc246f3633dc01d2	484219622	1	main_z	7	advance_on_keypress_ZEE	56	stimuli_distractor_diamondtriangles.svg	stimuli_target_diamondsquares.svg	32	yes	57	0	100
6.6.1	win	2022-12-20	04:25:54	04:31:41	346518	5de33ff0cc246f3633dc01d2	484219622	1	main_z	7	main_z	57	stimuli_target_squarediamonds.svg	stimuli_distractor_trianglediamonds.svg	4	yes	44	1	853
6.6.1	win	2022-12-20	04:25:54	04:31:41	346518	5de33ff0cc246f3633dc01d2	484219622	1	main_z	7	advance_on_keypress_ZEE	58	stimuli_target_squarediamonds.svg	stimuli_distractor_trianglediamonds.svg	4	yes	57	0	643
6.6.1	win	2022-12-20	04:25:54	04:31:45	349798	5de33ff0cc246f3633dc01d2	484219622	1	main_z	7	main_z	59	stimuli_distractor_diamondtriangles.svg	stimuli_target_diamondcircles.svg	31	yes	0	0	2000
6.6.1	win	2022-12-20	04:25:54	04:31:45	349798	5de33ff0cc246f3633dc01d2	484219622	1	main_z	7	advance_on_keypress_ZEE	60	stimuli_distractor_diamondtriangles.svg	stimuli_target_diamondcircles.svg	31	yes	57	0	440
6.6.1	win	2022-12-20	04:25:54	04:31:46	351460	5de33ff0cc246f3633dc01d2	484219622	1	main_z	7	main_z	61	stimuli_distractor_trianglediamonds.svg	stimuli_target_squarediamonds.svg	12	yes	44	1	580
6.6.1	win	2022-12-20	04:25:54	04:31:46	351460	5de33ff0cc246f3633dc01d2	484219622	1	main_z	7	advance_on_keypress_ZEE	62	stimuli_distractor_trianglediamonds.svg	stimuli_target_squarediamonds.svg	12	yes	57	0	1180
6.6.1	win	2022-12-20	04:25:54	04:31:49	353907	5de33ff0cc246f3633dc01d2	484219622	1	main_z	7	main_z	63	stimuli_target_squaretriangles.svg	stimuli_distractor_diamondtriangles.svg	7	yes	44	1	611
6.6.1	win	2022-12-20	04:25:54	04:31:49	353907	5de33ff0cc246f3633dc01d2	484219622	1	main_z	7	advance_on_keypress_ZEE	64	stimuli_target_squaretriangles.svg	stimuli_distractor_diamondtriangles.svg	7	yes	57	0	786
6.6.1	win	2022-12-20	04:25:54	04:31:51	355939	5de33ff0cc246f3633dc01d2	484219622	1	main_z	7	main_z	65	stimuli_distractor_diamondtriangles.svg	stimuli_target_circlediamonds.svg	14	yes	44	1	611
6.6.1	win	2022-12-20	04:25:54	04:31:51	355939	5de33ff0cc246f3633dc01d2	484219622	1	main_z	7	advance_on_keypress_ZEE	66	stimuli_distractor_diamondtriangles.svg	stimuli_target_circlediamonds.svg	14	yes	57	0	808
6.6.1	win	2022-12-20	04:25:54	04:31:54	359378	5de33ff0cc246f3633dc01d2	484219622	1	main_z	7	main_z	67	stimuli_target_trianglecircles.svg	stimuli_distractor_diamondtriangles.svg	21	yes	0	0	2000
6.6.1	win	2022-12-20	04:25:54	04:31:54	359378	5de33ff0cc246f3633dc01d2	484219622	1	main_z	7	advance_on_keypress_ZEE	68	stimuli_target_trianglecircles.svg	stimuli_distractor_diamondtriangles.svg	21	yes	57	0	511
6.6.1	win	2022-12-20	04:25:54	04:31:57	362527	5de33ff0cc246f3633dc01d2	484219622	1	main_z	7	main_z	69	stimuli_distractor_diamondtriangles.svg	stimuli_distractor_trianglediamonds.svg	37	no	0	1	2000
6.6.1	win	2022-12-20	04:25:54	04:31:57	362527	5de33ff0cc246f3633dc01d2	484219622	1	main_z	7	advance_on_keypress_ZEE	70	stimuli_distractor_diamondtriangles.svg	stimuli_distractor_trianglediamonds.svg	37	no	57	0	73
6.6.1	win	2022-12-20	04:25:54	04:32:00	365243	5de33ff0cc246f3633dc01d2	484219622	1	main_z	7	main_z	71	stimuli_distractor_trianglediamonds.svg	stimuli_distractor_diamondtriangles.svg	35	no	0	1	2000
6.6.1	win	2022-12-20	04:25:54	04:32:00	365243	5de33ff0cc246f3633dc01d2	484219622	1	main_z	7	advance_on_keypress_ZEE	72	stimuli_distractor_trianglediamonds.svg	stimuli_distractor_diamondtriangles.svg	35	no	57	0	0
6.6.1	win	2022-12-20	04:25:54	04:32:01	366605	5de33ff0cc246f3633dc01d2	484219622	1	main_z	7	main_z	73	stimuli_target_circletriangles.svg	stimuli_distractor_trianglediamonds.svg	1	yes	44	1	697
6.6.1	win	2022-12-20	04:25:54	04:32:01	366605	5de33ff0cc246f3633dc01d2	484219622	1	main_z	7	advance_on_keypress_ZEE	74	stimuli_target_circletriangles.svg	stimuli_distractor_trianglediamonds.svg	1	yes	57	0	1685
6.6.1	win	2022-12-20	04:25:54	04:32:06	370941	5de33ff0cc246f3633dc01d2	484219622	1	main_z	7	main_z	75	stimuli_distractor_diamondtriangles.svg	stimuli_distractor_diamondtriangles.svg	39	no	0	1	2000
6.6.1	win	2022-12-20	04:25:54	04:32:06	370941	5de33ff0cc246f3633dc01d2	484219622	1	main_z	7	advance_on_keypress_ZEE	76	stimuli_distractor_diamondtriangles.svg	stimuli_distractor_diamondtriangles.svg	39	no	57	0	408
6.6.1	win	2022-12-20	04:25:54	04:32:07	372563	5de33ff0cc246f3633dc01d2	484219622	1	main_z	7	main_z	77	stimuli_target_squaretriangles.svg	stimuli_distractor_trianglediamonds.svg	3	yes	44	1	573
6.6.1	win	2022-12-20	04:25:54	04:32:07	372563	5de33ff0cc246f3633dc01d2	484219622	1	main_z	7	advance_on_keypress_ZEE	78	stimuli_target_squaretriangles.svg	stimuli_distractor_trianglediamonds.svg	3	yes	57	0	655
6.6.1	win	2022-12-20	04:25:54	04:32:09	374475	5de33ff0cc246f3633dc01d2	484219622	1	main_z	7	main_z	79	stimuli_distractor_diamondtriangles.svg	stimuli_target_squarediamonds.svg	16	yes	44	1	618
6.6.1	win	2022-12-20	04:25:54	04:32:09	374475	5de33ff0cc246f3633dc01d2	484219622	1	main_z	7	advance_on_keypress_ZEE	80	stimuli_distractor_diamondtriangles.svg	stimuli_target_squarediamonds.svg	16	yes	57	0	657
6.6.1	win	2022-12-20	04:25:54	04:32:11	376401	5de33ff0cc246f3633dc01d2	484219622	1	main_z	7	main_z	81	stimuli_distractor_trianglediamonds.svg	stimuli_target_squarediamonds.svg	12	yes	44	1	629
6.6.1	win	2022-12-20	04:25:54	04:32:11	376401	5de33ff0cc246f3633dc01d2	484219622	1	main_z	7	advance_on_keypress_ZEE	82	stimuli_distractor_trianglediamonds.svg	stimuli_target_squarediamonds.svg	12	yes	57	0	500
6.6.1	win	2022-12-20	04:25:54	04:32:13	378008	5de33ff0cc246f3633dc01d2	484219622	1	main_z	7	main_z	83	stimuli_distractor_trianglediamonds.svg	stimuli_target_squaretriangles.svg	11	yes	44	1	453
6.6.1	win	2022-12-20	04:25:54	04:32:13	378008	5de33ff0cc246f3633dc01d2	484219622	1	main_z	7	advance_on_keypress_ZEE	84	stimuli_distractor_trianglediamonds.svg	stimuli_target_squaretriangles.svg	11	yes	57	0	387
6.6.1	win	2022-12-20	04:25:54	04:32:16	381038	5de33ff0cc246f3633dc01d2	484219622	1	main_z	7	main_z	85	stimuli_distractor_trianglediamonds.svg	stimuli_target_diamondsquares.svg	28	yes	0	0	2000
6.6.1	win	2022-12-20	04:25:54	04:32:16	381038	5de33ff0cc246f3633dc01d2	484219622	1	main_z	7	advance_on_keypress_ZEE	86	stimuli_distractor_trianglediamonds.svg	stimuli_target_diamondsquares.svg	28	yes	57	0	234
6.6.1	win	2022-12-20	04:25:54	04:32:17	382494	5de33ff0cc246f3633dc01d2	484219622	1	main_z	7	main_z	87	stimuli_distractor_diamondtriangles.svg	stimuli_target_squaretriangles.svg	15	yes	44	1	574
6.6.1	win	2022-12-20	04:25:54	04:32:17	382494	5de33ff0cc246f3633dc01d2	484219622	1	main_z	7	advance_on_keypress_ZEE	88	stimuli_distractor_diamondtriangles.svg	stimuli_target_squaretriangles.svg	15	yes	57	0	776
6.6.1	win	2022-12-20	04:25:54	04:32:19	384525	5de33ff0cc246f3633dc01d2	484219622	1	main_z	7	main_z	89	stimuli_distractor_trianglediamonds.svg	stimuli_target_circlediamonds.svg	10	yes	44	1	622
6.6.1	win	2022-12-20	04:25:54	04:32:19	384525	5de33ff0cc246f3633dc01d2	484219622	1	main_z	7	advance_on_keypress_ZEE	90	stimuli_distractor_trianglediamonds.svg	stimuli_target_circlediamonds.svg	10	yes	57	0	542
6.6.1	win	2022-12-20	04:25:54	04:32:21	386157	5de33ff0cc246f3633dc01d2	484219622	1	main_z	7	main_z	91	stimuli_target_circletriangles.svg	stimuli_distractor_trianglediamonds.svg	1	yes	44	1	455
6.6.1	win	2022-12-20	04:25:54	04:32:21	386157	5de33ff0cc246f3633dc01d2	484219622	1	main_z	7	advance_on_keypress_ZEE	92	stimuli_target_circletriangles.svg	stimuli_distractor_trianglediamonds.svg	1	yes	57	0	500
6.6.1	win	2022-12-20	04:25:54	04:32:24	389302	5de33ff0cc246f3633dc01d2	484219622	1	main_z	7	main_z	93	stimuli_target_squarediamonds.svg	stimuli_distractor_diamondtriangles.svg	8	yes	0	0	2000
6.6.1	win	2022-12-20	04:25:54	04:32:24	389302	5de33ff0cc246f3633dc01d2	484219622	1	main_z	7	advance_on_keypress_ZEE	94	stimuli_target_squarediamonds.svg	stimuli_distractor_diamondtriangles.svg	8	yes	57	0	463
6.6.1	win	2022-12-20	04:25:54	04:32:27	392417	5de33ff0cc246f3633dc01d2	484219622	1	main_z	7	main_z	95	stimuli_distractor_diamondtriangles.svg	stimuli_distractor_trianglediamonds.svg	37	no	0	1	2000
6.6.1	win	2022-12-20	04:25:54	04:32:27	392417	5de33ff0cc246f3633dc01d2	484219622	1	main_z	7	advance_on_keypress_ZEE	96	stimuli_distractor_diamondtriangles.svg	stimuli_distractor_trianglediamonds.svg	37	no	57	0	553
6.6.1	win	2022-12-20	04:25:54	04:32:30	395616	5de33ff0cc246f3633dc01d2	484219622	1	main_z	7	main_z	97	stimuli_target_diamondsquares.svg	stimuli_distractor_diamondtriangles.svg	24	yes	0	0	2000
6.6.1	win	2022-12-20	04:25:54	04:32:30	395616	5de33ff0cc246f3633dc01d2	484219622	1	main_z	7	advance_on_keypress_ZEE	98	stimuli_target_diamondsquares.svg	stimuli_distractor_diamondtriangles.svg	24	yes	57	0	362
6.6.1	win	2022-12-20	04:25:54	04:32:32	397303	5de33ff0cc246f3633dc01d2	484219622	1	main_z	7	main_z	99	stimuli_target_squarediamonds.svg	stimuli_distractor_trianglediamonds.svg	4	yes	44	1	688
6.6.1	win	2022-12-20	04:25:54	04:32:32	397303	5de33ff0cc246f3633dc01d2	484219622	1	main_z	7	advance_on_keypress_ZEE	100	stimuli_target_squarediamonds.svg	stimuli_distractor_trianglediamonds.svg	4	yes	57	0	606
6.6.1	win	2022-12-20	04:25:54	04:32:35	400548	5de33ff0cc246f3633dc01d2	484219622	1	main_z	7	main_z	101	stimuli_distractor_trianglediamonds.svg	stimuli_distractor_trianglediamonds.svg	33	no	0	1	2000
6.6.1	win	2022-12-20	04:25:54	04:32:35	400548	5de33ff0cc246f3633dc01d2	484219622	1	main_z	7	advance_on_keypress_ZEE	102	stimuli_distractor_trianglediamonds.svg	stimuli_distractor_trianglediamonds.svg	33	no	57	0	571
6.6.1	win	2022-12-20	04:25:54	04:32:38	403764	5de33ff0cc246f3633dc01d2	484219622	1	main_z	7	main_z	103	stimuli_distractor_trianglediamonds.svg	stimuli_distractor_trianglediamonds.svg	34	no	0	1	2000
6.6.1	win	2022-12-20	04:25:54	04:32:38	403764	5de33ff0cc246f3633dc01d2	484219622	1	main_z	7	advance_on_keypress_ZEE	104	stimuli_distractor_trianglediamonds.svg	stimuli_distractor_trianglediamonds.svg	34	no	57	0	186
6.6.1	win	2022-12-20	04:25:54	04:32:40	405116	5de33ff0cc246f3633dc01d2	484219622	1	main_z	7	main_z	105	stimuli_target_diamondsquares.svg	stimuli_distractor_trianglediamonds.svg	20	yes	44	1	520
6.6.1	win	2022-12-20	04:25:54	04:32:40	405116	5de33ff0cc246f3633dc01d2	484219622	1	main_z	7	advance_on_keypress_ZEE	106	stimuli_target_diamondsquares.svg	stimuli_distractor_trianglediamonds.svg	20	yes	57	0	443
6.6.1	win	2022-12-20	04:25:54	04:32:43	408195	5de33ff0cc246f3633dc01d2	484219622	1	main_z	7	main_z	107	stimuli_distractor_diamondtriangles.svg	stimuli_target_diamondsquares.svg	32	yes	0	0	2000
6.6.1	win	2022-12-20	04:25:54	04:32:43	408195	5de33ff0cc246f3633dc01d2	484219622	1	main_z	7	advance_on_keypress_ZEE	108	stimuli_distractor_diamondtriangles.svg	stimuli_target_diamondsquares.svg	32	yes	57	0	401
6.6.1	win	2022-12-20	04:25:54	04:32:46	411244	5de33ff0cc246f3633dc01d2	484219622	1	main_z	7	main_z	109	stimuli_target_diamondcircles.svg	stimuli_distractor_trianglediamonds.svg	19	yes	0	0	2000
6.6.1	win	2022-12-20	04:25:54	04:32:46	411244	5de33ff0cc246f3633dc01d2	484219622	1	main_z	7	advance_on_keypress_ZEE	110	stimuli_target_diamondcircles.svg	stimuli_distractor_trianglediamonds.svg	19	yes	57	0	158
6.6.1	win	2022-12-20	04:25:54	04:32:49	414044	5de33ff0cc246f3633dc01d2	484219622	1	main_z	7	main_z	111	stimuli_target_diamondcircles.svg	stimuli_distractor_diamondtriangles.svg	23	yes	0	0	2000
6.6.1	win	2022-12-20	04:25:54	04:32:49	414044	5de33ff0cc246f3633dc01d2	484219622	1	main_z	7	advance_on_keypress_ZEE	112	stimuli_target_diamondcircles.svg	stimuli_distractor_diamondtriangles.svg	23	yes	57	0	13
6.6.1	win	2022-12-20	04:25:54	04:32:51	416709	5de33ff0cc246f3633dc01d2	484219622	1	main_z	7	main_z	113	stimuli_distractor_trianglediamonds.svg	stimuli_target_diamondcircles.svg	27	yes	0	0	2000
6.6.1	win	2022-12-20	04:25:54	04:32:51	416709	5de33ff0cc246f3633dc01d2	484219622	1	main_z	7	advance_on_keypress_ZEE	114	stimuli_distractor_trianglediamonds.svg	stimuli_target_diamondcircles.svg	27	yes	57	0	402
6.6.1	win	2022-12-20	04:25:54	04:32:53	418176	5de33ff0cc246f3633dc01d2	484219622	1	main_z	7	main_z	115	stimuli_target_circlediamonds.svg	stimuli_distractor_trianglediamonds.svg	2	yes	44	1	417
6.6.1	win	2022-12-20	04:25:54	04:32:53	418176	5de33ff0cc246f3633dc01d2	484219622	1	main_z	7	advance_on_keypress_ZEE	116	stimuli_target_circlediamonds.svg	stimuli_distractor_trianglediamonds.svg	2	yes	57	0	623
6.6.1	win	2022-12-20	04:25:54	04:32:56	421441	5de33ff0cc246f3633dc01d2	484219622	1	main_z	7	main_z	117	stimuli_distractor_trianglediamonds.svg	stimuli_distractor_diamondtriangles.svg	36	no	0	1	2000
6.6.1	win	2022-12-20	04:25:54	04:32:56	421441	5de33ff0cc246f3633dc01d2	484219622	1	main_z	7	advance_on_keypress_ZEE	118	stimuli_distractor_trianglediamonds.svg	stimuli_distractor_diamondtriangles.svg	36	no	57	0	165
6.6.1	win	2022-12-20	04:25:54	04:32:58	422949	5de33ff0cc246f3633dc01d2	484219622	1	main_z	7	main_z	119	stimuli_target_circletriangles.svg	stimuli_distractor_diamondtriangles.svg	5	yes	44	1	693
6.6.1	win	2022-12-20	04:25:54	04:32:58	422949	5de33ff0cc246f3633dc01d2	484219622	1	main_z	7	advance_on_keypress_ZEE	120	stimuli_target_circletriangles.svg	stimuli_distractor_diamondtriangles.svg	5	yes	57	0	592
6.6.1	win	2022-12-20	04:25:54	04:33:00	425005	5de33ff0cc246f3633dc01d2	484219622	1	main_z	7	main_z	121	stimuli_distractor_trianglediamonds.svg	stimuli_distractor_diamondtriangles.svg	35	no	44	0	831
6.6.1	win	2022-12-20	04:25:54	04:33:00	425005	5de33ff0cc246f3633dc01d2	484219622	1	main_z	7	advance_on_keypress_ZEE	122	stimuli_distractor_trianglediamonds.svg	stimuli_distractor_diamondtriangles.svg	35	no	57	0	565
6.6.1	win	2022-12-20	04:25:54	04:33:03	428222	5de33ff0cc246f3633dc01d2	484219622	1	main_z	7	main_z	123	stimuli_distractor_diamondtriangles.svg	stimuli_target_trianglesquares.svg	30	yes	0	0	2000
6.6.1	win	2022-12-20	04:25:54	04:33:03	428222	5de33ff0cc246f3633dc01d2	484219622	1	main_z	7	advance_on_keypress_ZEE	124	stimuli_distractor_diamondtriangles.svg	stimuli_target_trianglesquares.svg	30	yes	57	0	437
6.6.1	win	2022-12-20	04:25:54	04:33:05	429834	5de33ff0cc246f3633dc01d2	484219622	1	main_z	7	main_z	125	stimuli_target_squaretriangles.svg	stimuli_distractor_trianglediamonds.svg	3	yes	44	1	530
6.6.1	win	2022-12-20	04:25:54	04:33:05	429834	5de33ff0cc246f3633dc01d2	484219622	1	main_z	7	advance_on_keypress_ZEE	126	stimuli_target_squaretriangles.svg	stimuli_distractor_trianglediamonds.svg	3	yes	57	0	1955
6.6.1	win	2022-12-20	04:25:54	04:33:09	434437	5de33ff0cc246f3633dc01d2	484219622	1	main_z	7	main_z	127	stimuli_distractor_diamondtriangles.svg	stimuli_distractor_trianglediamonds.svg	38	no	0	1	2000
6.6.1	win	2022-12-20	04:25:54	04:33:09	434437	5de33ff0cc246f3633dc01d2	484219622	1	main_z	7	advance_on_keypress_ZEE	128	stimuli_distractor_diamondtriangles.svg	stimuli_distractor_trianglediamonds.svg	38	no	57	0	28
6.6.1	win	2022-12-20	04:25:54	04:33:12	437103	5de33ff0cc246f3633dc01d2	484219622	1	main_z	7	main_z	129	stimuli_distractor_diamondtriangles.svg	stimuli_distractor_diamondtriangles.svg	39	no	0	1	2000
6.6.1	win	2022-12-20	04:25:54	04:33:12	437103	5de33ff0cc246f3633dc01d2	484219622	1	main_z	7	advance_on_keypress_ZEE	130	stimuli_distractor_diamondtriangles.svg	stimuli_distractor_diamondtriangles.svg	39	no	57	0	328
6.6.1	win	2022-12-20	04:25:54	04:33:15	440068	5de33ff0cc246f3633dc01d2	484219622	1	main_z	7	main_z	131	stimuli_distractor_diamondtriangles.svg	stimuli_target_diamondcircles.svg	31	yes	0	0	2000
6.6.1	win	2022-12-20	04:25:54	04:33:15	440068	5de33ff0cc246f3633dc01d2	484219622	1	main_z	7	advance_on_keypress_ZEE	132	stimuli_distractor_diamondtriangles.svg	stimuli_target_diamondcircles.svg	31	yes	57	0	242
6.6.1	win	2022-12-20	04:25:54	04:33:16	441509	5de33ff0cc246f3633dc01d2	484219622	1	main_z	7	main_z	133	stimuli_distractor_diamondtriangles.svg	stimuli_target_circlediamonds.svg	14	yes	44	1	559
6.6.1	win	2022-12-20	04:25:54	04:33:16	441509	5de33ff0cc246f3633dc01d2	484219622	1	main_z	7	advance_on_keypress_ZEE	134	stimuli_distractor_diamondtriangles.svg	stimuli_target_circlediamonds.svg	14	yes	57	0	559
6.6.1	win	2022-12-20	04:25:54	04:33:19	444700	5de33ff0cc246f3633dc01d2	484219622	1	main_z	7	main_z	135	stimuli_distractor_diamondtriangles.svg	stimuli_target_trianglecircles.svg	29	yes	0	0	2000
6.6.1	win	2022-12-20	04:25:54	04:33:19	444700	5de33ff0cc246f3633dc01d2	484219622	1	main_z	7	advance_on_keypress_ZEE	136	stimuli_distractor_diamondtriangles.svg	stimuli_target_trianglecircles.svg	29	yes	57	0	192
6.6.1	win	2022-12-20	04:25:54	04:33:22	447532	5de33ff0cc246f3633dc01d2	484219622	1	main_z	7	main_z	137	stimuli_target_trianglesquares.svg	stimuli_distractor_trianglediamonds.svg	18	yes	0	0	2000
6.6.1	win	2022-12-20	04:25:54	04:33:22	447532	5de33ff0cc246f3633dc01d2	484219622	1	main_z	7	advance_on_keypress_ZEE	138	stimuli_target_trianglesquares.svg	stimuli_distractor_trianglediamonds.svg	18	yes	57	0	118
6.6.1	win	2022-12-20	04:25:54	04:33:25	450298	5de33ff0cc246f3633dc01d2	484219622	1	main_z	7	main_z	139	stimuli_target_trianglesquares.svg	stimuli_distractor_diamondtriangles.svg	22	yes	0	0	2000
6.6.1	win	2022-12-20	04:25:54	04:33:25	450298	5de33ff0cc246f3633dc01d2	484219622	1	main_z	7	advance_on_keypress_ZEE	140	stimuli_target_trianglesquares.svg	stimuli_distractor_diamondtriangles.svg	22	yes	57	0	31
6.6.1	win	2022-12-20	04:25:54	04:33:26	451456	5de33ff0cc246f3633dc01d2	484219622	1	main_z	7	main_z	141	stimuli_distractor_diamondtriangles.svg	stimuli_target_squarediamonds.svg	16	yes	44	1	476
6.6.1	win	2022-12-20	04:25:54	04:33:26	451456	5de33ff0cc246f3633dc01d2	484219622	1	main_z	7	advance_on_keypress_ZEE	142	stimuli_distractor_diamondtriangles.svg	stimuli_target_squarediamonds.svg	16	yes	57	0	473
6.6.1	win	2022-12-20	04:25:54	04:33:29	454563	5de33ff0cc246f3633dc01d2	484219622	1	main_z	7	main_z	143	stimuli_target_trianglecircles.svg	stimuli_distractor_diamondtriangles.svg	21	yes	0	0	2000
6.6.1	win	2022-12-20	04:25:54	04:33:29	454563	5de33ff0cc246f3633dc01d2	484219622	1	main_z	7	advance_on_keypress_ZEE	144	stimuli_target_trianglecircles.svg	stimuli_distractor_diamondtriangles.svg	21	yes	57	0	548
6.6.1	win	2022-12-20	04:25:54	04:33:32	457762	5de33ff0cc246f3633dc01d2	484219622	1	main_z	7	main_z	145	stimuli_distractor_trianglediamonds.svg	stimuli_target_trianglecircles.svg	25	yes	0	0	2000
6.6.1	win	2022-12-20	04:25:54	04:33:32	457762	5de33ff0cc246f3633dc01d2	484219622	1	main_z	7	advance_on_keypress_ZEE	146	stimuli_distractor_trianglediamonds.svg	stimuli_target_trianglecircles.svg	25	yes	57	0	99
6.6.1	win	2022-12-20	04:25:54	04:33:35	460512	5de33ff0cc246f3633dc01d2	484219622	1	main_z	7	main_z	147	stimuli_distractor_diamondtriangles.svg	stimuli_distractor_diamondtriangles.svg	40	no	0	1	2000
6.6.1	win	2022-12-20	04:25:54	04:33:35	460512	5de33ff0cc246f3633dc01d2	484219622	1	main_z	7	advance_on_keypress_ZEE	148	stimuli_distractor_diamondtriangles.svg	stimuli_distractor_diamondtriangles.svg	40	no	57	0	269
6.6.1	win	2022-12-20	04:25:54	04:33:37	462140	5de33ff0cc246f3633dc01d2	484219622	1	main_z	7	main_z	149	stimuli_distractor_diamondtriangles.svg	stimuli_target_circletriangles.svg	13	yes	44	1	712
6.6.1	win	2022-12-20	04:25:54	04:33:37	462140	5de33ff0cc246f3633dc01d2	484219622	1	main_z	7	advance_on_keypress_ZEE	150	stimuli_distractor_diamondtriangles.svg	stimuli_target_circletriangles.svg	13	yes	57	0	573
6.6.1	win	2022-12-20	04:25:54	04:33:39	464411	5de33ff0cc246f3633dc01d2	484219622	1	main_z	7	main_z	151	stimuli_target_squaretriangles.svg	stimuli_distractor_diamondtriangles.svg	7	yes	44	1	1068
6.6.1	win	2022-12-20	04:25:54	04:33:39	464411	5de33ff0cc246f3633dc01d2	484219622	1	main_z	7	advance_on_keypress_ZEE	152	stimuli_target_squaretriangles.svg	stimuli_distractor_diamondtriangles.svg	7	yes	57	0	392
6.6.1	win	2022-12-20	04:25:54	04:33:41	465866	5de33ff0cc246f3633dc01d2	484219622	1	main_z	7	main_z	153	stimuli_target_circlediamonds.svg	stimuli_distractor_diamondtriangles.svg	6	yes	44	1	424
6.6.1	win	2022-12-20	04:25:54	04:33:41	465866	5de33ff0cc246f3633dc01d2	484219622	1	main_z	7	advance_on_keypress_ZEE	154	stimuli_target_circlediamonds.svg	stimuli_distractor_diamondtriangles.svg	6	yes	57	0	303
6.6.1	win	2022-12-20	04:25:54	04:33:42	467305	5de33ff0cc246f3633dc01d2	484219622	1	main_z	7	main_z	155	stimuli_distractor_trianglediamonds.svg	stimuli_target_circletriangles.svg	9	yes	44	1	497
6.6.1	win	2022-12-20	04:25:54	04:33:42	467305	5de33ff0cc246f3633dc01d2	484219622	1	main_z	7	advance_on_keypress_ZEE	156	stimuli_distractor_trianglediamonds.svg	stimuli_target_circletriangles.svg	9	yes	57	0	196
6.6.1	win	2022-12-20	04:25:54	04:33:43	468656	5de33ff0cc246f3633dc01d2	484219622	1	main_z	7	main_z	157	stimuli_target_trianglecircles.svg	stimuli_distractor_trianglediamonds.svg	17	yes	44	1	498
6.6.1	win	2022-12-20	04:25:54	04:33:43	468656	5de33ff0cc246f3633dc01d2	484219622	1	main_z	7	advance_on_keypress_ZEE	158	stimuli_target_trianglecircles.svg	stimuli_distractor_trianglediamonds.svg	17	yes	57	0	278
6.6.1	win	2022-12-20	04:25:54	04:33:46	471574	5de33ff0cc246f3633dc01d2	484219622	1	main_z	7	main_z	159	stimuli_distractor_trianglediamonds.svg	stimuli_target_trianglesquares.svg	26	yes	0	0	2000
6.6.1	win	2022-12-20	04:25:54	04:33:46	471574	5de33ff0cc246f3633dc01d2	484219622	1	main_z	7	advance_on_keypress_ZEE	160	stimuli_distractor_trianglediamonds.svg	stimuli_target_trianglesquares.svg	26	yes	57	0	345
6.6.1	win	2022-12-20	04:25:54	04:34:09	494064	5de33ff0cc246f3633dc01d2	484219622	1	practice_slash	9	practice_slash	1	stimuli_target_squarediamonds.svg	stimuli_distractor_trianglediamonds.svg	5	yes	53	1	412
6.6.1	win	2022-12-20	04:25:54	04:34:09	494064	5de33ff0cc246f3633dc01d2	484219622	1	practice_slash	9	advance_on_keypress_SLASH	2	stimuli_target_squarediamonds.svg	stimuli_distractor_trianglediamonds.svg	5	yes	57	0	379
6.6.1	win	2022-12-20	04:25:54	04:34:11	496551	5de33ff0cc246f3633dc01d2	484219622	1	practice_slash	9	practice_slash	3	stimuli_target_circlediamonds.svg	stimuli_distractor_trianglediamonds.svg	4	yes	53	1	450
6.6.1	win	2022-12-20	04:25:54	04:34:11	496551	5de33ff0cc246f3633dc01d2	484219622	1	practice_slash	9	advance_on_keypress_SLASH	4	stimuli_target_circlediamonds.svg	stimuli_distractor_trianglediamonds.svg	4	yes	57	0	367
6.6.1	win	2022-12-20	04:25:54	04:34:15	500567	5de33ff0cc246f3633dc01d2	484219622	1	practice_slash	9	practice_slash	5	stimuli_distractor_diamondtriangles.svg	stimuli_distractor_diamondtriangles.svg	13	no	0	1	2000
6.6.1	win	2022-12-20	04:25:54	04:34:15	500567	5de33ff0cc246f3633dc01d2	484219622	1	practice_slash	9	advance_on_keypress_SLASH	6	stimuli_distractor_diamondtriangles.svg	stimuli_distractor_diamondtriangles.svg	13	no	57	0	478
6.6.1	win	2022-12-20	04:25:54	04:34:18	503220	5de33ff0cc246f3633dc01d2	484219622	1	practice_slash	9	practice_slash	7	stimuli_distractor_diamondtriangles.svg	stimuli_target_circletriangles.svg	7	yes	53	1	538
6.6.1	win	2022-12-20	04:25:54	04:34:18	503220	5de33ff0cc246f3633dc01d2	484219622	1	practice_slash	9	advance_on_keypress_SLASH	8	stimuli_distractor_diamondtriangles.svg	stimuli_target_circletriangles.svg	7	yes	57	0	1020
6.6.1	win	2022-12-20	04:25:54	04:34:23	507882	5de33ff0cc246f3633dc01d2	484219622	1	practice_slash	9	practice_slash	9	stimuli_distractor_trianglediamonds.svg	stimuli_target_diamondcircles.svg	12	yes	0	0	2000
6.6.1	win	2022-12-20	04:25:54	04:34:23	507882	5de33ff0cc246f3633dc01d2	484219622	1	practice_slash	9	advance_on_keypress_SLASH	10	stimuli_distractor_trianglediamonds.svg	stimuli_target_diamondcircles.svg	12	yes	57	0	369
6.6.1	win	2022-12-20	04:25:54	04:34:27	511897	5de33ff0cc246f3633dc01d2	484219622	1	practice_slash	9	practice_slash	11	stimuli_target_diamondsquares.svg	stimuli_distractor_diamondtriangles.svg	3	yes	0	0	2000
6.6.1	win	2022-12-20	04:25:54	04:34:27	511897	5de33ff0cc246f3633dc01d2	484219622	1	practice_slash	9	advance_on_keypress_SLASH	12	stimuli_target_diamondsquares.svg	stimuli_distractor_diamondtriangles.svg	3	yes	57	0	96
6.6.1	win	2022-12-20	04:25:54	04:34:29	514223	5de33ff0cc246f3633dc01d2	484219622	1	practice_slash	9	practice_slash	13	stimuli_distractor_trianglediamonds.svg	stimuli_target_circlediamonds.svg	10	yes	53	1	578
6.6.1	win	2022-12-20	04:25:54	04:34:29	514223	5de33ff0cc246f3633dc01d2	484219622	1	practice_slash	9	advance_on_keypress_SLASH	14	stimuli_distractor_trianglediamonds.svg	stimuli_target_circlediamonds.svg	10	yes	57	0	571
6.6.1	win	2022-12-20	04:25:54	04:34:32	517045	5de33ff0cc246f3633dc01d2	484219622	1	practice_slash	9	practice_slash	15	stimuli_target_squarediamonds.svg	stimuli_distractor_diamondtriangles.svg	2	yes	53	1	617
6.6.1	win	2022-12-20	04:25:54	04:34:32	517045	5de33ff0cc246f3633dc01d2	484219622	1	practice_slash	9	advance_on_keypress_SLASH	16	stimuli_target_squarediamonds.svg	stimuli_distractor_diamondtriangles.svg	2	yes	57	0	633
6.6.1	win	2022-12-20	04:25:54	04:34:36	521327	5de33ff0cc246f3633dc01d2	484219622	1	practice_slash	9	practice_slash	17	stimuli_distractor_diamondtriangles.svg	stimuli_target_trianglecircles.svg	9	yes	0	0	2000
6.6.1	win	2022-12-20	04:25:54	04:34:36	521327	5de33ff0cc246f3633dc01d2	484219622	1	practice_slash	9	advance_on_keypress_SLASH	18	stimuli_distractor_diamondtriangles.svg	stimuli_target_trianglecircles.svg	9	yes	57	0	85
6.6.1	win	2022-12-20	04:25:54	04:34:40	525059	5de33ff0cc246f3633dc01d2	484219622	1	practice_slash	9	practice_slash	19	stimuli_distractor_diamondtriangles.svg	stimuli_target_diamondcircles.svg	8	yes	0	0	2000
6.6.1	win	2022-12-20	04:25:54	04:34:40	525059	5de33ff0cc246f3633dc01d2	484219622	1	practice_slash	9	advance_on_keypress_SLASH	20	stimuli_distractor_diamondtriangles.svg	stimuli_target_diamondcircles.svg	8	yes	57	0	360
6.6.1	win	2022-12-20	04:25:54	04:34:44	529058	5de33ff0cc246f3633dc01d2	484219622	1	practice_slash	9	practice_slash	21	stimuli_target_diamondsquares.svg	stimuli_distractor_trianglediamonds.svg	6	yes	0	0	2000
6.6.1	win	2022-12-20	04:25:54	04:34:44	529058	5de33ff0cc246f3633dc01d2	484219622	1	practice_slash	9	advance_on_keypress_SLASH	22	stimuli_target_diamondsquares.svg	stimuli_distractor_trianglediamonds.svg	6	yes	57	0	319
6.6.1	win	2022-12-20	04:25:54	04:34:46	531598	5de33ff0cc246f3633dc01d2	484219622	1	practice_slash	9	practice_slash	23	stimuli_target_circlediamonds.svg	stimuli_distractor_diamondtriangles.svg	1	yes	53	1	576
6.6.1	win	2022-12-20	04:25:54	04:34:46	531598	5de33ff0cc246f3633dc01d2	484219622	1	practice_slash	9	advance_on_keypress_SLASH	24	stimuli_target_circlediamonds.svg	stimuli_distractor_diamondtriangles.svg	1	yes	57	0	410
6.6.1	win	2022-12-20	04:25:54	04:34:50	535639	5de33ff0cc246f3633dc01d2	484219622	1	practice_slash	9	practice_slash	25	stimuli_distractor_diamondtriangles.svg	stimuli_distractor_trianglediamonds.svg	14	no	0	1	2000
6.6.1	win	2022-12-20	04:25:54	04:34:50	535639	5de33ff0cc246f3633dc01d2	484219622	1	practice_slash	9	advance_on_keypress_SLASH	26	stimuli_distractor_diamondtriangles.svg	stimuli_distractor_trianglediamonds.svg	14	no	57	0	271
6.6.1	win	2022-12-20	04:25:54	04:34:53	538363	5de33ff0cc246f3633dc01d2	484219622	1	practice_slash	9	practice_slash	27	stimuli_distractor_trianglediamonds.svg	stimuli_distractor_diamondtriangles.svg	16	no	53	0	810
6.6.1	win	2022-12-20	04:25:54	04:34:53	538363	5de33ff0cc246f3633dc01d2	484219622	1	practice_slash	9	advance_on_keypress_SLASH	28	stimuli_distractor_trianglediamonds.svg	stimuli_distractor_diamondtriangles.svg	16	no	57	0	226
6.6.1	win	2022-12-20	04:25:54	04:34:56	540859	5de33ff0cc246f3633dc01d2	484219622	1	practice_slash	9	practice_slash	29	stimuli_distractor_trianglediamonds.svg	stimuli_target_squarediamonds.svg	11	yes	53	1	640
6.6.1	win	2022-12-20	04:25:54	04:34:56	540859	5de33ff0cc246f3633dc01d2	484219622	1	practice_slash	9	advance_on_keypress_SLASH	30	stimuli_distractor_trianglediamonds.svg	stimuli_target_squarediamonds.svg	11	yes	57	0	438
6.6.1	win	2022-12-20	04:25:54	04:35:00	544936	5de33ff0cc246f3633dc01d2	484219622	1	practice_slash	9	practice_slash	31	stimuli_distractor_trianglediamonds.svg	stimuli_distractor_trianglediamonds.svg	15	no	0	1	2000
6.6.1	win	2022-12-20	04:25:54	04:35:00	544936	5de33ff0cc246f3633dc01d2	484219622	1	practice_slash	9	advance_on_keypress_SLASH	32	stimuli_distractor_trianglediamonds.svg	stimuli_distractor_trianglediamonds.svg	15	no	57	0	314
6.6.1	win	2022-12-20	04:25:54	04:35:05	550682	5de33ff0cc246f3633dc01d2	484219622	1	main_slash	11	main_slash	1	stimuli_distractor_trianglediamonds.svg	stimuli_distractor_trianglediamonds.svg	33	no	0	1	2000
6.6.1	win	2022-12-20	04:25:54	04:35:05	550682	5de33ff0cc246f3633dc01d2	484219622	1	main_slash	11	advance_on_keypress_SLASH	2	stimuli_distractor_trianglediamonds.svg	stimuli_distractor_trianglediamonds.svg	33	no	57	0	267
6.6.1	win	2022-12-20	04:25:54	04:35:07	552116	5de33ff0cc246f3633dc01d2	484219622	1	main_slash	11	main_slash	3	stimuli_target_squaretriangles.svg	stimuli_distractor_trianglediamonds.svg	3	yes	53	1	519
6.6.1	win	2022-12-20	04:25:54	04:35:07	552116	5de33ff0cc246f3633dc01d2	484219622	1	main_slash	11	advance_on_keypress_SLASH	4	stimuli_target_squaretriangles.svg	stimuli_distractor_trianglediamonds.svg	3	yes	57	0	722
6.6.1	win	2022-12-20	04:25:54	04:35:10	555480	5de33ff0cc246f3633dc01d2	484219622	1	main_slash	11	main_slash	5	stimuli_target_trianglecircles.svg	stimuli_distractor_trianglediamonds.svg	17	yes	0	0	2000
6.6.1	win	2022-12-20	04:25:54	04:35:10	555480	5de33ff0cc246f3633dc01d2	484219622	1	main_slash	11	advance_on_keypress_SLASH	6	stimuli_target_trianglecircles.svg	stimuli_distractor_trianglediamonds.svg	17	yes	57	0	210
6.6.1	win	2022-12-20	04:25:54	04:35:12	557074	5de33ff0cc246f3633dc01d2	484219622	1	main_slash	11	main_slash	7	stimuli_target_trianglecircles.svg	stimuli_distractor_diamondtriangles.svg	21	yes	53	1	745
6.6.1	win	2022-12-20	04:25:54	04:35:12	557074	5de33ff0cc246f3633dc01d2	484219622	1	main_slash	11	advance_on_keypress_SLASH	8	stimuli_target_trianglecircles.svg	stimuli_distractor_diamondtriangles.svg	21	yes	57	0	547
6.6.1	win	2022-12-20	04:25:54	04:35:15	560279	5de33ff0cc246f3633dc01d2	484219622	1	main_slash	11	main_slash	9	stimuli_distractor_diamondtriangles.svg	stimuli_distractor_diamondtriangles.svg	40	no	0	1	2000
6.6.1	win	2022-12-20	04:25:54	04:35:15	560279	5de33ff0cc246f3633dc01d2	484219622	1	main_slash	11	advance_on_keypress_SLASH	10	stimuli_distractor_diamondtriangles.svg	stimuli_distractor_diamondtriangles.svg	40	no	57	0	26
6.6.1	win	2022-12-20	04:25:54	04:35:16	561529	5de33ff0cc246f3633dc01d2	484219622	1	main_slash	11	main_slash	11	stimuli_distractor_diamondtriangles.svg	stimuli_distractor_trianglediamonds.svg	38	no	53	0	584
6.6.1	win	2022-12-20	04:25:54	04:35:16	561529	5de33ff0cc246f3633dc01d2	484219622	1	main_slash	11	advance_on_keypress_SLASH	12	stimuli_distractor_diamondtriangles.svg	stimuli_distractor_trianglediamonds.svg	38	no	57	0	432
6.6.1	win	2022-12-20	04:25:54	04:35:19	564611	5de33ff0cc246f3633dc01d2	484219622	1	main_slash	11	main_slash	13	stimuli_distractor_diamondtriangles.svg	stimuli_target_diamondsquares.svg	32	yes	0	0	2000
6.6.1	win	2022-12-20	04:25:54	04:35:19	564611	5de33ff0cc246f3633dc01d2	484219622	1	main_slash	11	advance_on_keypress_SLASH	14	stimuli_distractor_diamondtriangles.svg	stimuli_target_diamondsquares.svg	32	yes	57	0	476
6.6.1	win	2022-12-20	04:25:54	04:35:21	566382	5de33ff0cc246f3633dc01d2	484219622	1	main_slash	11	main_slash	15	stimuli_target_circletriangles.svg	stimuli_distractor_diamondtriangles.svg	5	yes	53	1	656
6.6.1	win	2022-12-20	04:25:54	04:35:21	566382	5de33ff0cc246f3633dc01d2	484219622	1	main_slash	11	advance_on_keypress_SLASH	16	stimuli_target_circletriangles.svg	stimuli_distractor_diamondtriangles.svg	5	yes	57	0	478
6.6.1	win	2022-12-20	04:25:54	04:35:24	569492	5de33ff0cc246f3633dc01d2	484219622	1	main_slash	11	main_slash	17	stimuli_target_diamondsquares.svg	stimuli_distractor_diamondtriangles.svg	24	yes	0	0	2000
6.6.1	win	2022-12-20	04:25:54	04:35:24	569492	5de33ff0cc246f3633dc01d2	484219622	1	main_slash	11	advance_on_keypress_SLASH	18	stimuli_target_diamondsquares.svg	stimuli_distractor_diamondtriangles.svg	24	yes	57	0	377
6.6.1	win	2022-12-20	04:25:54	04:35:26	571628	5de33ff0cc246f3633dc01d2	484219622	1	main_slash	11	main_slash	19	stimuli_distractor_diamondtriangles.svg	stimuli_target_squarediamonds.svg	16	yes	53	1	1120
6.6.1	win	2022-12-20	04:25:54	04:35:26	571628	5de33ff0cc246f3633dc01d2	484219622	1	main_slash	11	advance_on_keypress_SLASH	20	stimuli_distractor_diamondtriangles.svg	stimuli_target_squarediamonds.svg	16	yes	57	0	460
6.6.1	win	2022-12-20	04:25:54	04:35:29	574724	5de33ff0cc246f3633dc01d2	484219622	1	main_slash	11	main_slash	21	stimuli_distractor_trianglediamonds.svg	stimuli_distractor_diamondtriangles.svg	36	no	0	1	2000
6.6.1	win	2022-12-20	04:25:54	04:35:29	574724	5de33ff0cc246f3633dc01d2	484219622	1	main_slash	11	advance_on_keypress_SLASH	22	stimuli_distractor_trianglediamonds.svg	stimuli_distractor_diamondtriangles.svg	36	no	57	0	143
6.6.1	win	2022-12-20	04:25:54	04:35:31	576066	5de33ff0cc246f3633dc01d2	484219622	1	main_slash	11	main_slash	23	stimuli_target_squarediamonds.svg	stimuli_distractor_trianglediamonds.svg	4	yes	53	1	560
6.6.1	win	2022-12-20	04:25:54	04:35:31	576066	5de33ff0cc246f3633dc01d2	484219622	1	main_slash	11	advance_on_keypress_SLASH	24	stimuli_target_squarediamonds.svg	stimuli_distractor_trianglediamonds.svg	4	yes	57	0	554
6.6.1	win	2022-12-20	04:25:54	04:35:32	577697	5de33ff0cc246f3633dc01d2	484219622	1	main_slash	11	main_slash	25	stimuli_distractor_diamondtriangles.svg	stimuli_target_circletriangles.svg	13	yes	53	1	441
6.6.1	win	2022-12-20	04:25:54	04:35:32	577697	5de33ff0cc246f3633dc01d2	484219622	1	main_slash	11	advance_on_keypress_SLASH	26	stimuli_distractor_diamondtriangles.svg	stimuli_target_circletriangles.svg	13	yes	57	0	352
6.6.1	win	2022-12-20	04:25:54	04:35:34	579232	5de33ff0cc246f3633dc01d2	484219622	1	main_slash	11	main_slash	27	stimuli_target_squaretriangles.svg	stimuli_distractor_diamondtriangles.svg	7	yes	53	1	544
6.6.1	win	2022-12-20	04:25:54	04:35:34	579232	5de33ff0cc246f3633dc01d2	484219622	1	main_slash	11	advance_on_keypress_SLASH	28	stimuli_target_squaretriangles.svg	stimuli_distractor_diamondtriangles.svg	7	yes	57	0	306
6.6.1	win	2022-12-20	04:25:54	04:35:37	582172	5de33ff0cc246f3633dc01d2	484219622	1	main_slash	11	main_slash	29	stimuli_distractor_trianglediamonds.svg	stimuli_distractor_diamondtriangles.svg	35	no	0	1	2000
6.6.1	win	2022-12-20	04:25:54	04:35:37	582172	5de33ff0cc246f3633dc01d2	484219622	1	main_slash	11	advance_on_keypress_SLASH	30	stimuli_distractor_trianglediamonds.svg	stimuli_distractor_diamondtriangles.svg	35	no	57	0	259
6.6.1	win	2022-12-20	04:25:54	04:35:38	583598	5de33ff0cc246f3633dc01d2	484219622	1	main_slash	11	main_slash	31	stimuli_target_circlediamonds.svg	stimuli_distractor_diamondtriangles.svg	6	yes	53	1	528
6.6.1	win	2022-12-20	04:25:54	04:35:38	583598	5de33ff0cc246f3633dc01d2	484219622	1	main_slash	11	advance_on_keypress_SLASH	32	stimuli_target_circlediamonds.svg	stimuli_distractor_diamondtriangles.svg	6	yes	57	0	371
6.6.1	win	2022-12-20	04:25:54	04:35:41	586603	5de33ff0cc246f3633dc01d2	484219622	1	main_slash	11	main_slash	33	stimuli_distractor_trianglediamonds.svg	stimuli_target_trianglesquares.svg	26	yes	0	0	2000
6.6.1	win	2022-12-20	04:25:54	04:35:41	586603	5de33ff0cc246f3633dc01d2	484219622	1	main_slash	11	advance_on_keypress_SLASH	34	stimuli_distractor_trianglediamonds.svg	stimuli_target_trianglesquares.svg	26	yes	57	0	67
6.6.1	win	2022-12-20	04:25:54	04:35:43	588029	5de33ff0cc246f3633dc01d2	484219622	1	main_slash	11	main_slash	35	stimuli_distractor_trianglediamonds.svg	stimuli_target_squarediamonds.svg	12	yes	53	1	710
6.6.1	win	2022-12-20	04:25:54	04:35:43	588029	5de33ff0cc246f3633dc01d2	484219622	1	main_slash	11	advance_on_keypress_SLASH	36	stimuli_distractor_trianglediamonds.svg	stimuli_target_squarediamonds.svg	12	yes	57	0	393
6.6.1	win	2022-12-20	04:25:54	04:35:46	591052	5de33ff0cc246f3633dc01d2	484219622	1	main_slash	11	main_slash	37	stimuli_target_diamondcircles.svg	stimuli_distractor_diamondtriangles.svg	23	yes	0	0	2000
6.6.1	win	2022-12-20	04:25:54	04:35:46	591052	5de33ff0cc246f3633dc01d2	484219622	1	main_slash	11	advance_on_keypress_SLASH	38	stimuli_target_diamondcircles.svg	stimuli_distractor_diamondtriangles.svg	23	yes	57	0	144
6.6.1	win	2022-12-20	04:25:54	04:35:49	593834	5de33ff0cc246f3633dc01d2	484219622	1	main_slash	11	main_slash	39	stimuli_target_trianglesquares.svg	stimuli_distractor_trianglediamonds.svg	18	yes	0	0	2000
6.6.1	win	2022-12-20	04:25:54	04:35:49	593834	5de33ff0cc246f3633dc01d2	484219622	1	main_slash	11	advance_on_keypress_SLASH	40	stimuli_target_trianglesquares.svg	stimuli_distractor_trianglediamonds.svg	18	yes	57	0	224
6.6.1	win	2022-12-20	04:25:54	04:35:51	596700	5de33ff0cc246f3633dc01d2	484219622	1	main_slash	11	main_slash	41	stimuli_distractor_diamondtriangles.svg	stimuli_target_diamondcircles.svg	31	yes	0	0	2000
6.6.1	win	2022-12-20	04:25:54	04:35:51	596700	5de33ff0cc246f3633dc01d2	484219622	1	main_slash	11	advance_on_keypress_SLASH	42	stimuli_distractor_diamondtriangles.svg	stimuli_target_diamondcircles.svg	31	yes	57	0	69
6.6.1	win	2022-12-20	04:25:54	04:35:54	599416	5de33ff0cc246f3633dc01d2	484219622	1	main_slash	11	main_slash	43	stimuli_distractor_trianglediamonds.svg	stimuli_target_diamondsquares.svg	28	yes	0	0	2000
6.6.1	win	2022-12-20	04:25:54	04:35:54	599416	5de33ff0cc246f3633dc01d2	484219622	1	main_slash	11	advance_on_keypress_SLASH	44	stimuli_distractor_trianglediamonds.svg	stimuli_target_diamondsquares.svg	28	yes	57	0	360
6.6.1	win	2022-12-20	04:25:54	04:35:57	602415	5de33ff0cc246f3633dc01d2	484219622	1	main_slash	11	main_slash	45	stimuli_target_trianglesquares.svg	stimuli_distractor_diamondtriangles.svg	22	yes	0	0	2000
6.6.1	win	2022-12-20	04:25:54	04:35:57	602415	5de33ff0cc246f3633dc01d2	484219622	1	main_slash	11	advance_on_keypress_SLASH	46	stimuli_target_trianglesquares.svg	stimuli_distractor_diamondtriangles.svg	22	yes	57	0	16
6.6.1	win	2022-12-20	04:25:54	04:36:00	605081	5de33ff0cc246f3633dc01d2	484219622	1	main_slash	11	main_slash	47	stimuli_target_diamondcircles.svg	stimuli_distractor_trianglediamonds.svg	19	yes	0	0	2000
6.6.1	win	2022-12-20	04:25:54	04:36:00	605081	5de33ff0cc246f3633dc01d2	484219622	1	main_slash	11	advance_on_keypress_SLASH	48	stimuli_target_diamondcircles.svg	stimuli_distractor_trianglediamonds.svg	19	yes	57	0	148
6.6.1	win	2022-12-20	04:25:54	04:36:02	606924	5de33ff0cc246f3633dc01d2	484219622	1	main_slash	11	main_slash	49	stimuli_distractor_diamondtriangles.svg	stimuli_distractor_trianglediamonds.svg	37	no	53	0	1044
6.6.1	win	2022-12-20	04:25:54	04:36:02	606924	5de33ff0cc246f3633dc01d2	484219622	1	main_slash	11	advance_on_keypress_SLASH	50	stimuli_distractor_diamondtriangles.svg	stimuli_distractor_trianglediamonds.svg	37	no	57	0	443
6.6.1	win	2022-12-20	04:25:54	04:36:05	609996	5de33ff0cc246f3633dc01d2	484219622	1	main_slash	11	main_slash	51	stimuli_distractor_trianglediamonds.svg	stimuli_distractor_trianglediamonds.svg	34	no	0	1	2000
6.6.1	win	2022-12-20	04:25:54	04:36:05	609996	5de33ff0cc246f3633dc01d2	484219622	1	main_slash	11	advance_on_keypress_SLASH	52	stimuli_distractor_trianglediamonds.svg	stimuli_distractor_trianglediamonds.svg	34	no	57	0	488
6.6.1	win	2022-12-20	04:25:54	04:36:06	611554	5de33ff0cc246f3633dc01d2	484219622	1	main_slash	11	main_slash	53	stimuli_target_circlediamonds.svg	stimuli_distractor_trianglediamonds.svg	2	yes	53	1	426
6.6.1	win	2022-12-20	04:25:54	04:36:06	611554	5de33ff0cc246f3633dc01d2	484219622	1	main_slash	11	advance_on_keypress_SLASH	54	stimuli_target_circlediamonds.svg	stimuli_distractor_trianglediamonds.svg	2	yes	57	0	441
6.6.1	win	2022-12-20	04:25:54	04:36:09	614627	5de33ff0cc246f3633dc01d2	484219622	1	main_slash	11	main_slash	55	stimuli_distractor_diamondtriangles.svg	stimuli_distractor_diamondtriangles.svg	39	no	0	1	2000
6.6.1	win	2022-12-20	04:25:54	04:36:09	614627	5de33ff0cc246f3633dc01d2	484219622	1	main_slash	11	advance_on_keypress_SLASH	56	stimuli_distractor_diamondtriangles.svg	stimuli_distractor_diamondtriangles.svg	39	no	57	0	302
6.6.1	win	2022-12-20	04:25:54	04:36:11	616177	5de33ff0cc246f3633dc01d2	484219622	1	main_slash	11	main_slash	57	stimuli_target_circletriangles.svg	stimuli_distractor_trianglediamonds.svg	1	yes	53	1	600
6.6.1	win	2022-12-20	04:25:54	04:36:11	616177	5de33ff0cc246f3633dc01d2	484219622	1	main_slash	11	advance_on_keypress_SLASH	58	stimuli_target_circletriangles.svg	stimuli_distractor_trianglediamonds.svg	1	yes	57	0	424
6.6.1	win	2022-12-20	04:25:54	04:36:13	618239	5de33ff0cc246f3633dc01d2	484219622	1	main_slash	11	main_slash	59	stimuli_distractor_diamondtriangles.svg	stimuli_target_squaretriangles.svg	15	yes	53	1	997
6.6.1	win	2022-12-20	04:25:54	04:36:13	618239	5de33ff0cc246f3633dc01d2	484219622	1	main_slash	11	advance_on_keypress_SLASH	60	stimuli_distractor_diamondtriangles.svg	stimuli_target_squaretriangles.svg	15	yes	57	0	341
6.6.1	win	2022-12-20	04:25:54	04:36:16	621225	5de33ff0cc246f3633dc01d2	484219622	1	main_slash	11	main_slash	61	stimuli_distractor_diamondtriangles.svg	stimuli_target_trianglesquares.svg	30	yes	0	0	2000
6.6.1	win	2022-12-20	04:25:54	04:36:16	621225	5de33ff0cc246f3633dc01d2	484219622	1	main_slash	11	advance_on_keypress_SLASH	62	stimuli_distractor_diamondtriangles.svg	stimuli_target_trianglesquares.svg	30	yes	57	0	293
6.6.1	win	2022-12-20	04:25:54	04:36:19	624158	5de33ff0cc246f3633dc01d2	484219622	1	main_slash	11	main_slash	63	stimuli_target_diamondsquares.svg	stimuli_distractor_trianglediamonds.svg	20	yes	0	0	2000
6.6.1	win	2022-12-20	04:25:54	04:36:19	624158	5de33ff0cc246f3633dc01d2	484219622	1	main_slash	11	advance_on_keypress_SLASH	64	stimuli_target_diamondsquares.svg	stimuli_distractor_trianglediamonds.svg	20	yes	57	0	223
6.6.1	win	2022-12-20	04:25:54	04:36:20	625590	5de33ff0cc246f3633dc01d2	484219622	1	main_slash	11	main_slash	65	stimuli_distractor_trianglediamonds.svg	stimuli_target_circletriangles.svg	9	yes	53	1	566
6.6.1	win	2022-12-20	04:25:54	04:36:20	625590	5de33ff0cc246f3633dc01d2	484219622	1	main_slash	11	advance_on_keypress_SLASH	66	stimuli_distractor_trianglediamonds.svg	stimuli_target_circletriangles.svg	9	yes	57	0	462
6.6.1	win	2022-12-20	04:25:54	04:36:22	627379	5de33ff0cc246f3633dc01d2	484219622	1	main_slash	11	main_slash	67	stimuli_target_squarediamonds.svg	stimuli_distractor_diamondtriangles.svg	8	yes	53	1	690
6.6.1	win	2022-12-20	04:25:54	04:36:22	627379	5de33ff0cc246f3633dc01d2	484219622	1	main_slash	11	advance_on_keypress_SLASH	68	stimuli_target_squarediamonds.svg	stimuli_distractor_diamondtriangles.svg	8	yes	57	0	422
6.6.1	win	2022-12-20	04:25:54	04:36:25	630439	5de33ff0cc246f3633dc01d2	484219622	1	main_slash	11	main_slash	69	stimuli_distractor_diamondtriangles.svg	stimuli_target_trianglecircles.svg	29	yes	0	0	2000
6.6.1	win	2022-12-20	04:25:54	04:36:25	630439	5de33ff0cc246f3633dc01d2	484219622	1	main_slash	11	advance_on_keypress_SLASH	70	stimuli_distractor_diamondtriangles.svg	stimuli_target_trianglecircles.svg	29	yes	57	0	500
6.6.1	win	2022-12-20	04:25:54	04:36:28	633588	5de33ff0cc246f3633dc01d2	484219622	1	main_slash	11	main_slash	71	stimuli_distractor_trianglediamonds.svg	stimuli_target_diamondcircles.svg	27	yes	0	0	2000
6.6.1	win	2022-12-20	04:25:54	04:36:28	633588	5de33ff0cc246f3633dc01d2	484219622	1	main_slash	11	advance_on_keypress_SLASH	72	stimuli_distractor_trianglediamonds.svg	stimuli_target_diamondcircles.svg	27	yes	57	0	493
6.6.1	win	2022-12-20	04:25:54	04:36:31	636720	5de33ff0cc246f3633dc01d2	484219622	1	main_slash	11	main_slash	73	stimuli_distractor_trianglediamonds.svg	stimuli_target_trianglecircles.svg	25	yes	0	0	2000
6.6.1	win	2022-12-20	04:25:54	04:36:31	636720	5de33ff0cc246f3633dc01d2	484219622	1	main_slash	11	advance_on_keypress_SLASH	74	stimuli_distractor_trianglediamonds.svg	stimuli_target_trianglecircles.svg	25	yes	57	0	606
6.6.1	win	2022-12-20	04:25:54	04:36:33	638342	5de33ff0cc246f3633dc01d2	484219622	1	main_slash	11	main_slash	75	stimuli_distractor_trianglediamonds.svg	stimuli_target_circlediamonds.svg	10	yes	53	1	373
6.6.1	win	2022-12-20	04:25:54	04:36:33	638342	5de33ff0cc246f3633dc01d2	484219622	1	main_slash	11	advance_on_keypress_SLASH	76	stimuli_distractor_trianglediamonds.svg	stimuli_target_circlediamonds.svg	10	yes	57	0	334
6.6.1	win	2022-12-20	04:25:54	04:36:35	640070	5de33ff0cc246f3633dc01d2	484219622	1	main_slash	11	main_slash	77	stimuli_distractor_trianglediamonds.svg	stimuli_target_squaretriangles.svg	11	yes	53	1	752
6.6.1	win	2022-12-20	04:25:54	04:36:35	640070	5de33ff0cc246f3633dc01d2	484219622	1	main_slash	11	advance_on_keypress_SLASH	78	stimuli_distractor_trianglediamonds.svg	stimuli_target_squaretriangles.svg	11	yes	57	0	265
6.6.1	win	2022-12-20	04:25:54	04:36:36	641549	5de33ff0cc246f3633dc01d2	484219622	1	main_slash	11	main_slash	79	stimuli_distractor_diamondtriangles.svg	stimuli_target_circlediamonds.svg	14	yes	53	1	565
6.6.1	win	2022-12-20	04:25:54	04:36:36	641549	5de33ff0cc246f3633dc01d2	484219622	1	main_slash	11	advance_on_keypress_SLASH	80	stimuli_distractor_diamondtriangles.svg	stimuli_target_circlediamonds.svg	14	yes	57	0	262
6.6.1	win	2022-12-20	04:25:54	04:36:39	644451	5de33ff0cc246f3633dc01d2	484219622	1	main_slash	11	main_slash	81	stimuli_target_trianglesquares.svg	stimuli_distractor_trianglediamonds.svg	18	yes	0	0	2000
6.6.1	win	2022-12-20	04:25:54	04:36:39	644451	5de33ff0cc246f3633dc01d2	484219622	1	main_slash	11	advance_on_keypress_SLASH	82	stimuli_target_trianglesquares.svg	stimuli_distractor_trianglediamonds.svg	18	yes	57	0	185
6.6.1	win	2022-12-20	04:25:54	04:36:41	645891	5de33ff0cc246f3633dc01d2	484219622	1	main_slash	11	main_slash	83	stimuli_distractor_diamondtriangles.svg	stimuli_target_circlediamonds.svg	14	yes	53	1	608
6.6.1	win	2022-12-20	04:25:54	04:36:41	645891	5de33ff0cc246f3633dc01d2	484219622	1	main_slash	11	advance_on_keypress_SLASH	84	stimuli_distractor_diamondtriangles.svg	stimuli_target_circlediamonds.svg	14	yes	57	0	360
6.6.1	win	2022-12-20	04:25:54	04:36:44	648883	5de33ff0cc246f3633dc01d2	484219622	1	main_slash	11	main_slash	85	stimuli_distractor_trianglediamonds.svg	stimuli_target_trianglesquares.svg	26	yes	0	0	2000
6.6.1	win	2022-12-20	04:25:54	04:36:44	648883	5de33ff0cc246f3633dc01d2	484219622	1	main_slash	11	advance_on_keypress_SLASH	86	stimuli_distractor_trianglediamonds.svg	stimuli_target_trianglesquares.svg	26	yes	57	0	511
6.6.1	win	2022-12-20	04:25:54	04:36:45	650521	5de33ff0cc246f3633dc01d2	484219622	1	main_slash	11	main_slash	87	stimuli_target_squaretriangles.svg	stimuli_distractor_trianglediamonds.svg	3	yes	53	1	473
6.6.1	win	2022-12-20	04:25:54	04:36:45	650521	5de33ff0cc246f3633dc01d2	484219622	1	main_slash	11	advance_on_keypress_SLASH	88	stimuli_target_squaretriangles.svg	stimuli_distractor_trianglediamonds.svg	3	yes	57	0	301
6.6.1	win	2022-12-20	04:25:54	04:36:48	653465	5de33ff0cc246f3633dc01d2	484219622	1	main_slash	11	main_slash	89	stimuli_distractor_diamondtriangles.svg	stimuli_target_diamondcircles.svg	31	yes	0	0	2000
6.6.1	win	2022-12-20	04:25:54	04:36:48	653465	5de33ff0cc246f3633dc01d2	484219622	1	main_slash	11	advance_on_keypress_SLASH	90	stimuli_distractor_diamondtriangles.svg	stimuli_target_diamondcircles.svg	31	yes	57	0	328
6.6.1	win	2022-12-20	04:25:54	04:36:50	654983	5de33ff0cc246f3633dc01d2	484219622	1	main_slash	11	main_slash	91	stimuli_distractor_diamondtriangles.svg	stimuli_target_circletriangles.svg	13	yes	53	1	553
6.6.1	win	2022-12-20	04:25:54	04:36:50	654983	5de33ff0cc246f3633dc01d2	484219622	1	main_slash	11	advance_on_keypress_SLASH	92	stimuli_distractor_diamondtriangles.svg	stimuli_target_circletriangles.svg	13	yes	57	0	419
6.6.1	win	2022-12-20	04:25:54	04:36:51	656583	5de33ff0cc246f3633dc01d2	484219622	1	main_slash	11	main_slash	93	stimuli_distractor_trianglediamonds.svg	stimuli_target_squarediamonds.svg	12	yes	53	1	537
6.6.1	win	2022-12-20	04:25:54	04:36:51	656583	5de33ff0cc246f3633dc01d2	484219622	1	main_slash	11	advance_on_keypress_SLASH	94	stimuli_distractor_trianglediamonds.svg	stimuli_target_squarediamonds.svg	12	yes	57	0	218
6.6.1	win	2022-12-20	04:25:54	04:36:54	659446	5de33ff0cc246f3633dc01d2	484219622	1	main_slash	11	main_slash	95	stimuli_target_trianglesquares.svg	stimuli_distractor_diamondtriangles.svg	22	yes	0	0	2000
6.6.1	win	2022-12-20	04:25:54	04:36:54	659446	5de33ff0cc246f3633dc01d2	484219622	1	main_slash	11	advance_on_keypress_SLASH	96	stimuli_target_trianglesquares.svg	stimuli_distractor_diamondtriangles.svg	22	yes	57	0	832
6.6.1	win	2022-12-20	04:25:54	04:36:56	661405	5de33ff0cc246f3633dc01d2	484219622	1	main_slash	11	main_slash	97	stimuli_target_circletriangles.svg	stimuli_distractor_diamondtriangles.svg	5	yes	53	1	477
6.6.1	win	2022-12-20	04:25:54	04:36:56	661405	5de33ff0cc246f3633dc01d2	484219622	1	main_slash	11	advance_on_keypress_SLASH	98	stimuli_target_circletriangles.svg	stimuli_distractor_diamondtriangles.svg	5	yes	57	0	168
6.6.1	win	2022-12-20	04:25:54	04:36:59	664211	5de33ff0cc246f3633dc01d2	484219622	1	main_slash	11	main_slash	99	stimuli_distractor_trianglediamonds.svg	stimuli_target_trianglecircles.svg	25	yes	0	0	2000
6.6.1	win	2022-12-20	04:25:54	04:36:59	664211	5de33ff0cc246f3633dc01d2	484219622	1	main_slash	11	advance_on_keypress_SLASH	100	stimuli_distractor_trianglediamonds.svg	stimuli_target_trianglecircles.svg	25	yes	57	0	296
6.6.1	win	2022-12-20	04:25:54	04:37:02	667160	5de33ff0cc246f3633dc01d2	484219622	1	main_slash	11	main_slash	101	stimuli_distractor_trianglediamonds.svg	stimuli_target_diamondcircles.svg	27	yes	0	0	2000
6.6.1	win	2022-12-20	04:25:54	04:37:02	667160	5de33ff0cc246f3633dc01d2	484219622	1	main_slash	11	advance_on_keypress_SLASH	102	stimuli_distractor_trianglediamonds.svg	stimuli_target_diamondcircles.svg	27	yes	57	0	274
6.6.1	win	2022-12-20	04:25:54	04:37:05	670076	5de33ff0cc246f3633dc01d2	484219622	1	main_slash	11	main_slash	103	stimuli_distractor_diamondtriangles.svg	stimuli_distractor_trianglediamonds.svg	37	no	0	1	2000
6.6.1	win	2022-12-20	04:25:54	04:37:05	670076	5de33ff0cc246f3633dc01d2	484219622	1	main_slash	11	advance_on_keypress_SLASH	104	stimuli_distractor_diamondtriangles.svg	stimuli_distractor_trianglediamonds.svg	37	no	57	0	46
6.6.1	win	2022-12-20	04:25:54	04:37:07	672758	5de33ff0cc246f3633dc01d2	484219622	1	main_slash	11	main_slash	105	stimuli_distractor_diamondtriangles.svg	stimuli_distractor_trianglediamonds.svg	38	no	0	1	2000
6.6.1	win	2022-12-20	04:25:54	04:37:07	672758	5de33ff0cc246f3633dc01d2	484219622	1	main_slash	11	advance_on_keypress_SLASH	106	stimuli_distractor_diamondtriangles.svg	stimuli_distractor_trianglediamonds.svg	38	no	57	0	129
6.6.1	win	2022-12-20	04:25:54	04:37:10	675524	5de33ff0cc246f3633dc01d2	484219622	1	main_slash	11	main_slash	107	stimuli_distractor_diamondtriangles.svg	stimuli_distractor_diamondtriangles.svg	40	no	0	1	2000
6.6.1	win	2022-12-20	04:25:54	04:37:10	675524	5de33ff0cc246f3633dc01d2	484219622	1	main_slash	11	advance_on_keypress_SLASH	108	stimuli_distractor_diamondtriangles.svg	stimuli_distractor_diamondtriangles.svg	40	no	57	0	482
6.6.1	win	2022-12-20	04:25:54	04:37:13	678656	5de33ff0cc246f3633dc01d2	484219622	1	main_slash	11	main_slash	109	stimuli_target_diamondsquares.svg	stimuli_distractor_trianglediamonds.svg	20	yes	0	0	2000
6.6.1	win	2022-12-20	04:25:54	04:37:13	678656	5de33ff0cc246f3633dc01d2	484219622	1	main_slash	11	advance_on_keypress_SLASH	110	stimuli_target_diamondsquares.svg	stimuli_distractor_trianglediamonds.svg	20	yes	57	0	285
6.6.1	win	2022-12-20	04:25:54	04:37:16	681589	5de33ff0cc246f3633dc01d2	484219622	1	main_slash	11	main_slash	111	stimuli_target_trianglecircles.svg	stimuli_distractor_diamondtriangles.svg	21	yes	0	0	2000
6.6.1	win	2022-12-20	04:25:54	04:37:16	681589	5de33ff0cc246f3633dc01d2	484219622	1	main_slash	11	advance_on_keypress_SLASH	112	stimuli_target_trianglecircles.svg	stimuli_distractor_diamondtriangles.svg	21	yes	57	0	382
6.6.1	win	2022-12-20	04:25:54	04:37:18	683028	5de33ff0cc246f3633dc01d2	484219622	1	main_slash	11	main_slash	113	stimuli_target_circlediamonds.svg	stimuli_distractor_trianglediamonds.svg	2	yes	53	1	406
6.6.1	win	2022-12-20	04:25:54	04:37:18	683028	5de33ff0cc246f3633dc01d2	484219622	1	main_slash	11	advance_on_keypress_SLASH	114	stimuli_target_circlediamonds.svg	stimuli_distractor_trianglediamonds.svg	2	yes	57	0	302
6.6.1	win	2022-12-20	04:25:54	04:37:21	685971	5de33ff0cc246f3633dc01d2	484219622	1	main_slash	11	main_slash	115	stimuli_target_diamondcircles.svg	stimuli_distractor_diamondtriangles.svg	23	yes	0	0	2000
6.6.1	win	2022-12-20	04:25:54	04:37:21	685971	5de33ff0cc246f3633dc01d2	484219622	1	main_slash	11	advance_on_keypress_SLASH	116	stimuli_target_diamondcircles.svg	stimuli_distractor_diamondtriangles.svg	23	yes	57	0	16
6.6.1	win	2022-12-20	04:25:54	04:37:23	688636	5de33ff0cc246f3633dc01d2	484219622	1	main_slash	11	main_slash	117	stimuli_target_trianglecircles.svg	stimuli_distractor_trianglediamonds.svg	17	yes	0	0	2000
6.6.1	win	2022-12-20	04:25:54	04:37:23	688636	5de33ff0cc246f3633dc01d2	484219622	1	main_slash	11	advance_on_keypress_SLASH	118	stimuli_target_trianglecircles.svg	stimuli_distractor_trianglediamonds.svg	17	yes	57	0	69
6.6.1	win	2022-12-20	04:25:54	04:37:25	689840	5de33ff0cc246f3633dc01d2	484219622	1	main_slash	11	main_slash	119	stimuli_distractor_trianglediamonds.svg	stimuli_target_squaretriangles.svg	11	yes	53	1	487
6.6.1	win	2022-12-20	04:25:54	04:37:25	689840	5de33ff0cc246f3633dc01d2	484219622	1	main_slash	11	advance_on_keypress_SLASH	120	stimuli_distractor_trianglediamonds.svg	stimuli_target_squaretriangles.svg	11	yes	57	0	333
6.6.1	win	2022-12-20	04:25:54	04:37:28	692818	5de33ff0cc246f3633dc01d2	484219622	1	main_slash	11	main_slash	121	stimuli_distractor_diamondtriangles.svg	stimuli_distractor_diamondtriangles.svg	39	no	0	1	2000
6.6.1	win	2022-12-20	04:25:54	04:37:28	692818	5de33ff0cc246f3633dc01d2	484219622	1	main_slash	11	advance_on_keypress_SLASH	122	stimuli_distractor_diamondtriangles.svg	stimuli_distractor_diamondtriangles.svg	39	no	57	0	101
6.6.1	win	2022-12-20	04:25:54	04:37:29	694015	5de33ff0cc246f3633dc01d2	484219622	1	main_slash	11	main_slash	123	stimuli_distractor_trianglediamonds.svg	stimuli_target_circletriangles.svg	9	yes	53	1	447
6.6.1	win	2022-12-20	04:25:54	04:37:29	694015	5de33ff0cc246f3633dc01d2	484219622	1	main_slash	11	advance_on_keypress_SLASH	124	stimuli_distractor_trianglediamonds.svg	stimuli_target_circletriangles.svg	9	yes	57	0	229
6.6.1	win	2022-12-20	04:25:54	04:37:30	695734	5de33ff0cc246f3633dc01d2	484219622	1	main_slash	11	main_slash	125	stimuli_target_squaretriangles.svg	stimuli_distractor_diamondtriangles.svg	7	yes	53	1	834
6.6.1	win	2022-12-20	04:25:54	04:37:30	695734	5de33ff0cc246f3633dc01d2	484219622	1	main_slash	11	advance_on_keypress_SLASH	126	stimuli_target_squaretriangles.svg	stimuli_distractor_diamondtriangles.svg	7	yes	57	0	254
6.6.1	win	2022-12-20	04:25:54	04:37:32	697142	5de33ff0cc246f3633dc01d2	484219622	1	main_slash	11	main_slash	127	stimuli_target_diamondcircles.svg	stimuli_distractor_trianglediamonds.svg	19	yes	53	1	508
6.6.1	win	2022-12-20	04:25:54	04:37:32	697142	5de33ff0cc246f3633dc01d2	484219622	1	main_slash	11	advance_on_keypress_SLASH	128	stimuli_target_diamondcircles.svg	stimuli_distractor_trianglediamonds.svg	19	yes	57	0	255
6.6.1	win	2022-12-20	04:25:54	04:37:35	700033	5de33ff0cc246f3633dc01d2	484219622	1	main_slash	11	main_slash	129	stimuli_distractor_trianglediamonds.svg	stimuli_distractor_trianglediamonds.svg	34	no	0	1	2000
6.6.1	win	2022-12-20	04:25:54	04:37:35	700033	5de33ff0cc246f3633dc01d2	484219622	1	main_slash	11	advance_on_keypress_SLASH	130	stimuli_distractor_trianglediamonds.svg	stimuli_distractor_trianglediamonds.svg	34	no	57	0	4
6.6.1	win	2022-12-20	04:25:54	04:37:37	702698	5de33ff0cc246f3633dc01d2	484219622	1	main_slash	11	main_slash	131	stimuli_distractor_diamondtriangles.svg	stimuli_target_trianglecircles.svg	29	yes	0	0	2000
6.6.1	win	2022-12-20	04:25:54	04:37:37	702698	5de33ff0cc246f3633dc01d2	484219622	1	main_slash	11	advance_on_keypress_SLASH	132	stimuli_distractor_diamondtriangles.svg	stimuli_target_trianglecircles.svg	29	yes	57	0	95
6.6.1	win	2022-12-20	04:25:54	04:37:39	703970	5de33ff0cc246f3633dc01d2	484219622	1	main_slash	11	main_slash	133	stimuli_target_squarediamonds.svg	stimuli_distractor_diamondtriangles.svg	8	yes	53	1	523
6.6.1	win	2022-12-20	04:25:54	04:37:39	703970	5de33ff0cc246f3633dc01d2	484219622	1	main_slash	11	advance_on_keypress_SLASH	134	stimuli_target_squarediamonds.svg	stimuli_distractor_diamondtriangles.svg	8	yes	57	0	254
6.6.1	win	2022-12-20	04:25:54	04:37:42	706864	5de33ff0cc246f3633dc01d2	484219622	1	main_slash	11	main_slash	135	stimuli_distractor_trianglediamonds.svg	stimuli_distractor_trianglediamonds.svg	33	no	0	1	2000
6.6.1	win	2022-12-20	04:25:54	04:37:42	706864	5de33ff0cc246f3633dc01d2	484219622	1	main_slash	11	advance_on_keypress_SLASH	136	stimuli_distractor_trianglediamonds.svg	stimuli_distractor_trianglediamonds.svg	33	no	57	0	169
6.6.1	win	2022-12-20	04:25:54	04:37:44	709679	5de33ff0cc246f3633dc01d2	484219622	1	main_slash	11	main_slash	137	stimuli_distractor_diamondtriangles.svg	stimuli_target_diamondsquares.svg	32	yes	0	0	2000
6.6.1	win	2022-12-20	04:25:54	04:37:44	709679	5de33ff0cc246f3633dc01d2	484219622	1	main_slash	11	advance_on_keypress_SLASH	138	stimuli_distractor_diamondtriangles.svg	stimuli_target_diamondsquares.svg	32	yes	57	0	288
6.6.1	win	2022-12-20	04:25:54	04:37:47	712612	5de33ff0cc246f3633dc01d2	484219622	1	main_slash	11	main_slash	139	stimuli_distractor_diamondtriangles.svg	stimuli_target_trianglesquares.svg	30	yes	0	0	2000
6.6.1	win	2022-12-20	04:25:54	04:37:47	712612	5de33ff0cc246f3633dc01d2	484219622	1	main_slash	11	advance_on_keypress_SLASH	140	stimuli_distractor_diamondtriangles.svg	stimuli_target_trianglesquares.svg	30	yes	57	0	218
6.6.1	win	2022-12-20	04:25:54	04:37:50	715478	5de33ff0cc246f3633dc01d2	484219622	1	main_slash	11	main_slash	141	stimuli_distractor_trianglediamonds.svg	stimuli_distractor_diamondtriangles.svg	36	no	0	1	2000
6.6.1	win	2022-12-20	04:25:54	04:37:50	715478	5de33ff0cc246f3633dc01d2	484219622	1	main_slash	11	advance_on_keypress_SLASH	142	stimuli_distractor_trianglediamonds.svg	stimuli_distractor_diamondtriangles.svg	36	no	57	0	223
6.6.1	win	2022-12-20	04:25:54	04:37:52	716828	5de33ff0cc246f3633dc01d2	484219622	1	main_slash	11	main_slash	143	stimuli_distractor_diamondtriangles.svg	stimuli_target_squarediamonds.svg	16	yes	53	1	485
6.6.1	win	2022-12-20	04:25:54	04:37:52	716828	5de33ff0cc246f3633dc01d2	484219622	1	main_slash	11	advance_on_keypress_SLASH	144	stimuli_distractor_diamondtriangles.svg	stimuli_target_squarediamonds.svg	16	yes	57	0	346
6.6.1	win	2022-12-20	04:25:54	04:37:53	718387	5de33ff0cc246f3633dc01d2	484219622	1	main_slash	11	main_slash	145	stimuli_target_circlediamonds.svg	stimuli_distractor_diamondtriangles.svg	6	yes	53	1	578
6.6.1	win	2022-12-20	04:25:54	04:37:53	718387	5de33ff0cc246f3633dc01d2	484219622	1	main_slash	11	advance_on_keypress_SLASH	146	stimuli_target_circlediamonds.svg	stimuli_distractor_diamondtriangles.svg	6	yes	57	0	522
6.6.1	win	2022-12-20	04:25:54	04:37:55	720035	5de33ff0cc246f3633dc01d2	484219622	1	main_slash	11	main_slash	147	stimuli_distractor_diamondtriangles.svg	stimuli_target_squaretriangles.svg	15	yes	53	1	492
6.6.1	win	2022-12-20	04:25:54	04:37:55	720035	5de33ff0cc246f3633dc01d2	484219622	1	main_slash	11	advance_on_keypress_SLASH	148	stimuli_distractor_diamondtriangles.svg	stimuli_target_squaretriangles.svg	15	yes	57	0	297
6.6.1	win	2022-12-20	04:25:54	04:37:56	721506	5de33ff0cc246f3633dc01d2	484219622	1	main_slash	11	main_slash	149	stimuli_distractor_trianglediamonds.svg	stimuli_target_circlediamonds.svg	10	yes	53	1	531
6.6.1	win	2022-12-20	04:25:54	04:37:56	721506	5de33ff0cc246f3633dc01d2	484219622	1	main_slash	11	advance_on_keypress_SLASH	150	stimuli_distractor_trianglediamonds.svg	stimuli_target_circlediamonds.svg	10	yes	57	0	326
6.6.1	win	2022-12-20	04:25:54	04:37:58	722993	5de33ff0cc246f3633dc01d2	484219622	1	main_slash	11	main_slash	151	stimuli_target_circletriangles.svg	stimuli_distractor_trianglediamonds.svg	1	yes	53	1	519
6.6.1	win	2022-12-20	04:25:54	04:37:58	722993	5de33ff0cc246f3633dc01d2	484219622	1	main_slash	11	advance_on_keypress_SLASH	152	stimuli_target_circletriangles.svg	stimuli_distractor_trianglediamonds.svg	1	yes	57	0	409
6.6.1	win	2022-12-20	04:25:54	04:38:01	726041	5de33ff0cc246f3633dc01d2	484219622	1	main_slash	11	main_slash	153	stimuli_target_diamondsquares.svg	stimuli_distractor_diamondtriangles.svg	24	yes	0	0	2000
6.6.1	win	2022-12-20	04:25:54	04:38:01	726041	5de33ff0cc246f3633dc01d2	484219622	1	main_slash	11	advance_on_keypress_SLASH	154	stimuli_target_diamondsquares.svg	stimuli_distractor_diamondtriangles.svg	24	yes	57	0	263
6.6.1	win	2022-12-20	04:25:54	04:38:02	727415	5de33ff0cc246f3633dc01d2	484219622	1	main_slash	11	main_slash	155	stimuli_distractor_trianglediamonds.svg	stimuli_target_diamondsquares.svg	28	yes	53	1	458
6.6.1	win	2022-12-20	04:25:54	04:38:02	727415	5de33ff0cc246f3633dc01d2	484219622	1	main_slash	11	advance_on_keypress_SLASH	156	stimuli_distractor_trianglediamonds.svg	stimuli_target_diamondsquares.svg	28	yes	57	0	313
6.6.1	win	2022-12-20	04:25:54	04:38:04	729183	5de33ff0cc246f3633dc01d2	484219622	1	main_slash	11	main_slash	157	stimuli_target_squarediamonds.svg	stimuli_distractor_trianglediamonds.svg	4	yes	53	1	809
6.6.1	win	2022-12-20	04:25:54	04:38:04	729183	5de33ff0cc246f3633dc01d2	484219622	1	main_slash	11	advance_on_keypress_SLASH	158	stimuli_target_squarediamonds.svg	stimuli_distractor_trianglediamonds.svg	4	yes	57	0	386
6.6.1	win	2022-12-20	04:25:54	04:38:07	732206	5de33ff0cc246f3633dc01d2	484219622	1	main_slash	11	main_slash	159	stimuli_distractor_trianglediamonds.svg	stimuli_distractor_diamondtriangles.svg	35	no	0	1	2000
6.6.1	win	2022-12-20	04:25:54	04:38:07	732206	5de33ff0cc246f3633dc01d2	484219622	1	main_slash	11	advance_on_keypress_SLASH	160	stimuli_distractor_trianglediamonds.svg	stimuli_distractor_diamondtriangles.svg	35	no	57	0	1886