build	computer.platform	date	time	timestamp	time_elapsed_ms	subject	group	session	blockcode	blocknum	trialcode	trialnum	stimulus_left	stimulus_right	stim_index	target_present	response	correct	latency
6.6.1	win	2022-12-23	01:26:24	01:29:40	194468	60fc9ce95a59b3400b38e2a7	908749816	1	practice_z	5	practice_z	1	stimuli_target_diamondsquares.svg	stimuli_distractor_trianglediamonds.svg	6	yes	0	0	2000
6.6.1	win	2022-12-23	01:26:24	01:29:40	194468	60fc9ce95a59b3400b38e2a7	908749816	1	practice_z	5	advance_on_keypress_ZEE	2	stimuli_target_diamondsquares.svg	stimuli_distractor_trianglediamonds.svg	6	yes	57	0	1328
6.6.1	win	2022-12-23	01:26:24	01:29:44	197783	60fc9ce95a59b3400b38e2a7	908749816	1	practice_z	5	practice_z	3	stimuli_distractor_trianglediamonds.svg	stimuli_target_circlediamonds.svg	10	yes	44	1	330
6.6.1	win	2022-12-23	01:26:24	01:29:44	197783	60fc9ce95a59b3400b38e2a7	908749816	1	practice_z	5	advance_on_keypress_ZEE	4	stimuli_distractor_trianglediamonds.svg	stimuli_target_circlediamonds.svg	10	yes	57	0	1095
6.6.1	win	2022-12-23	01:26:24	01:29:47	200908	60fc9ce95a59b3400b38e2a7	908749816	1	practice_z	5	practice_z	5	stimuli_distractor_diamondtriangles.svg	stimuli_distractor_trianglediamonds.svg	14	no	44	0	371
6.6.1	win	2022-12-23	01:26:24	01:29:47	200908	60fc9ce95a59b3400b38e2a7	908749816	1	practice_z	5	advance_on_keypress_ZEE	6	stimuli_distractor_diamondtriangles.svg	stimuli_distractor_trianglediamonds.svg	14	no	57	0	895
6.6.1	win	2022-12-23	01:26:24	01:29:50	203717	60fc9ce95a59b3400b38e2a7	908749816	1	practice_z	5	practice_z	7	stimuli_target_circlediamonds.svg	stimuli_distractor_trianglediamonds.svg	4	yes	44	1	265
6.6.1	win	2022-12-23	01:26:24	01:29:50	203717	60fc9ce95a59b3400b38e2a7	908749816	1	practice_z	5	advance_on_keypress_ZEE	8	stimuli_target_circlediamonds.svg	stimuli_distractor_trianglediamonds.svg	4	yes	57	0	551
6.6.1	win	2022-12-23	01:26:24	01:29:52	206159	60fc9ce95a59b3400b38e2a7	908749816	1	practice_z	5	practice_z	9	stimuli_distractor_diamondtriangles.svg	stimuli_distractor_diamondtriangles.svg	13	no	44	0	241
6.6.1	win	2022-12-23	01:26:24	01:29:52	206159	60fc9ce95a59b3400b38e2a7	908749816	1	practice_z	5	advance_on_keypress_ZEE	10	stimuli_distractor_diamondtriangles.svg	stimuli_distractor_diamondtriangles.svg	13	no	57	0	541
6.6.1	win	2022-12-23	01:26:24	01:29:54	208540	60fc9ce95a59b3400b38e2a7	908749816	1	practice_z	5	practice_z	11	stimuli_target_circlediamonds.svg	stimuli_distractor_diamondtriangles.svg	1	yes	44	1	206
6.6.1	win	2022-12-23	01:26:24	01:29:54	208540	60fc9ce95a59b3400b38e2a7	908749816	1	practice_z	5	advance_on_keypress_ZEE	12	stimuli_target_circlediamonds.svg	stimuli_distractor_diamondtriangles.svg	1	yes	57	0	472
6.6.1	win	2022-12-23	01:26:24	01:29:57	210905	60fc9ce95a59b3400b38e2a7	908749816	1	practice_z	5	practice_z	13	stimuli_distractor_diamondtriangles.svg	stimuli_target_diamondcircles.svg	8	yes	44	1	255
6.6.1	win	2022-12-23	01:26:24	01:29:57	210905	60fc9ce95a59b3400b38e2a7	908749816	1	practice_z	5	advance_on_keypress_ZEE	14	stimuli_distractor_diamondtriangles.svg	stimuli_target_diamondcircles.svg	8	yes	57	0	427
6.6.1	win	2022-12-23	01:26:24	01:29:59	213210	60fc9ce95a59b3400b38e2a7	908749816	1	practice_z	5	practice_z	15	stimuli_distractor_trianglediamonds.svg	stimuli_distractor_diamondtriangles.svg	16	no	44	0	226
6.6.1	win	2022-12-23	01:26:24	01:29:59	213210	60fc9ce95a59b3400b38e2a7	908749816	1	practice_z	5	advance_on_keypress_ZEE	16	stimuli_distractor_trianglediamonds.svg	stimuli_distractor_diamondtriangles.svg	16	no	57	0	546
6.6.1	win	2022-12-23	01:26:24	01:30:02	215682	60fc9ce95a59b3400b38e2a7	908749816	1	practice_z	5	practice_z	17	stimuli_target_diamondsquares.svg	stimuli_distractor_diamondtriangles.svg	3	yes	44	1	281
6.6.1	win	2022-12-23	01:26:24	01:30:02	215682	60fc9ce95a59b3400b38e2a7	908749816	1	practice_z	5	advance_on_keypress_ZEE	18	stimuli_target_diamondsquares.svg	stimuli_distractor_diamondtriangles.svg	3	yes	57	0	516
6.6.1	win	2022-12-23	01:26:24	01:30:04	217973	60fc9ce95a59b3400b38e2a7	908749816	1	practice_z	5	practice_z	19	stimuli_distractor_trianglediamonds.svg	stimuli_target_diamondcircles.svg	12	yes	44	1	122
6.6.1	win	2022-12-23	01:26:24	01:30:04	217973	60fc9ce95a59b3400b38e2a7	908749816	1	practice_z	5	advance_on_keypress_ZEE	20	stimuli_distractor_trianglediamonds.svg	stimuli_target_diamondcircles.svg	12	yes	57	0	603
6.6.1	win	2022-12-23	01:26:24	01:30:06	220432	60fc9ce95a59b3400b38e2a7	908749816	1	practice_z	5	practice_z	21	stimuli_distractor_diamondtriangles.svg	stimuli_target_trianglecircles.svg	9	yes	44	1	215
6.6.1	win	2022-12-23	01:26:24	01:30:06	220432	60fc9ce95a59b3400b38e2a7	908749816	1	practice_z	5	advance_on_keypress_ZEE	22	stimuli_distractor_diamondtriangles.svg	stimuli_target_trianglecircles.svg	9	yes	57	0	336
6.6.1	win	2022-12-23	01:26:24	01:30:09	222695	60fc9ce95a59b3400b38e2a7	908749816	1	practice_z	5	practice_z	23	stimuli_distractor_trianglediamonds.svg	stimuli_target_squarediamonds.svg	11	yes	44	1	278
6.6.1	win	2022-12-23	01:26:24	01:30:09	222695	60fc9ce95a59b3400b38e2a7	908749816	1	practice_z	5	advance_on_keypress_ZEE	24	stimuli_distractor_trianglediamonds.svg	stimuli_target_squarediamonds.svg	11	yes	57	0	375
6.6.1	win	2022-12-23	01:26:24	01:30:11	224946	60fc9ce95a59b3400b38e2a7	908749816	1	practice_z	5	practice_z	25	stimuli_distractor_diamondtriangles.svg	stimuli_target_circletriangles.svg	7	yes	44	1	213
6.6.1	win	2022-12-23	01:26:24	01:30:11	224946	60fc9ce95a59b3400b38e2a7	908749816	1	practice_z	5	advance_on_keypress_ZEE	26	stimuli_distractor_diamondtriangles.svg	stimuli_target_circletriangles.svg	7	yes	57	0	323
6.6.1	win	2022-12-23	01:26:24	01:30:13	227159	60fc9ce95a59b3400b38e2a7	908749816	1	practice_z	5	practice_z	27	stimuli_distractor_trianglediamonds.svg	stimuli_distractor_trianglediamonds.svg	15	no	44	0	242
6.6.1	win	2022-12-23	01:26:24	01:30:13	227159	60fc9ce95a59b3400b38e2a7	908749816	1	practice_z	5	advance_on_keypress_ZEE	28	stimuli_distractor_trianglediamonds.svg	stimuli_distractor_trianglediamonds.svg	15	no	57	0	630
6.6.1	win	2022-12-23	01:26:24	01:30:15	229640	60fc9ce95a59b3400b38e2a7	908749816	1	practice_z	5	practice_z	29	stimuli_target_squarediamonds.svg	stimuli_distractor_diamondtriangles.svg	2	yes	44	1	206
6.6.1	win	2022-12-23	01:26:24	01:30:15	229640	60fc9ce95a59b3400b38e2a7	908749816	1	practice_z	5	advance_on_keypress_ZEE	30	stimuli_target_squarediamonds.svg	stimuli_distractor_diamondtriangles.svg	2	yes	57	0	461
6.6.1	win	2022-12-23	01:26:24	01:30:18	231983	60fc9ce95a59b3400b38e2a7	908749816	1	practice_z	5	practice_z	31	stimuli_target_squarediamonds.svg	stimuli_distractor_trianglediamonds.svg	5	yes	44	1	232
6.6.1	win	2022-12-23	01:26:24	01:30:18	231983	60fc9ce95a59b3400b38e2a7	908749816	1	practice_z	5	advance_on_keypress_ZEE	32	stimuli_target_squarediamonds.svg	stimuli_distractor_trianglediamonds.svg	5	yes	57	0	362
6.6.1	win	2022-12-23	01:26:24	01:30:29	243105	60fc9ce95a59b3400b38e2a7	908749816	1	main_z	7	main_z	1	stimuli_distractor_diamondtriangles.svg	stimuli_target_trianglesquares.svg	30	yes	44	1	257
6.6.1	win	2022-12-23	01:26:24	01:30:29	243105	60fc9ce95a59b3400b38e2a7	908749816	1	main_z	7	advance_on_keypress_ZEE	2	stimuli_distractor_diamondtriangles.svg	stimuli_target_trianglesquares.svg	30	yes	57	0	1526
6.6.1	win	2022-12-23	01:26:24	01:30:31	245620	60fc9ce95a59b3400b38e2a7	908749816	1	main_z	7	main_z	3	stimuli_target_trianglesquares.svg	stimuli_distractor_trianglediamonds.svg	18	yes	44	1	356
6.6.1	win	2022-12-23	01:26:24	01:30:31	245620	60fc9ce95a59b3400b38e2a7	908749816	1	main_z	7	advance_on_keypress_ZEE	4	stimuli_target_trianglesquares.svg	stimuli_distractor_trianglediamonds.svg	18	yes	57	0	1393
6.6.1	win	2022-12-23	01:26:24	01:30:35	249648	60fc9ce95a59b3400b38e2a7	908749816	1	main_z	7	main_z	5	stimuli_distractor_trianglediamonds.svg	stimuli_distractor_trianglediamonds.svg	33	no	0	1	2000
6.6.1	win	2022-12-23	01:26:24	01:30:35	249648	60fc9ce95a59b3400b38e2a7	908749816	1	main_z	7	advance_on_keypress_ZEE	6	stimuli_distractor_trianglediamonds.svg	stimuli_distractor_trianglediamonds.svg	33	no	57	0	971
6.6.1	win	2022-12-23	01:26:24	01:30:37	251532	60fc9ce95a59b3400b38e2a7	908749816	1	main_z	7	main_z	7	stimuli_target_diamondsquares.svg	stimuli_distractor_diamondtriangles.svg	24	yes	44	1	267
6.6.1	win	2022-12-23	01:26:24	01:30:37	251532	60fc9ce95a59b3400b38e2a7	908749816	1	main_z	7	advance_on_keypress_ZEE	8	stimuli_target_diamondsquares.svg	stimuli_distractor_diamondtriangles.svg	24	yes	57	0	1293
6.6.1	win	2022-12-23	01:26:24	01:30:40	253713	60fc9ce95a59b3400b38e2a7	908749816	1	main_z	7	main_z	9	stimuli_distractor_trianglediamonds.svg	stimuli_target_squarediamonds.svg	12	yes	44	1	248
6.6.1	win	2022-12-23	01:26:24	01:30:40	253713	60fc9ce95a59b3400b38e2a7	908749816	1	main_z	7	advance_on_keypress_ZEE	10	stimuli_distractor_trianglediamonds.svg	stimuli_target_squarediamonds.svg	12	yes	57	0	1109
6.6.1	win	2022-12-23	01:26:24	01:30:42	255679	60fc9ce95a59b3400b38e2a7	908749816	1	main_z	7	main_z	11	stimuli_distractor_trianglediamonds.svg	stimuli_target_circlediamonds.svg	10	yes	44	1	215
6.6.1	win	2022-12-23	01:26:24	01:30:42	255679	60fc9ce95a59b3400b38e2a7	908749816	1	main_z	7	advance_on_keypress_ZEE	12	stimuli_distractor_trianglediamonds.svg	stimuli_target_circlediamonds.svg	10	yes	57	0	1126
6.6.1	win	2022-12-23	01:26:24	01:30:44	257675	60fc9ce95a59b3400b38e2a7	908749816	1	main_z	7	main_z	13	stimuli_target_diamondcircles.svg	stimuli_distractor_trianglediamonds.svg	19	yes	44	1	227
6.6.1	win	2022-12-23	01:26:24	01:30:44	257675	60fc9ce95a59b3400b38e2a7	908749816	1	main_z	7	advance_on_keypress_ZEE	14	stimuli_target_diamondcircles.svg	stimuli_distractor_trianglediamonds.svg	19	yes	57	0	1246
6.6.1	win	2022-12-23	01:26:24	01:30:46	259761	60fc9ce95a59b3400b38e2a7	908749816	1	main_z	7	main_z	15	stimuli_distractor_diamondtriangles.svg	stimuli_distractor_trianglediamonds.svg	38	no	44	0	197
6.6.1	win	2022-12-23	01:26:24	01:30:46	259761	60fc9ce95a59b3400b38e2a7	908749816	1	main_z	7	advance_on_keypress_ZEE	16	stimuli_distractor_diamondtriangles.svg	stimuli_distractor_trianglediamonds.svg	38	no	57	0	1206
6.6.1	win	2022-12-23	01:26:24	01:30:48	261724	60fc9ce95a59b3400b38e2a7	908749816	1	main_z	7	main_z	17	stimuli_target_diamondcircles.svg	stimuli_distractor_diamondtriangles.svg	23	yes	44	1	110
6.6.1	win	2022-12-23	01:26:24	01:30:48	261724	60fc9ce95a59b3400b38e2a7	908749816	1	main_z	7	advance_on_keypress_ZEE	18	stimuli_target_diamondcircles.svg	stimuli_distractor_diamondtriangles.svg	23	yes	57	0	1282
6.6.1	win	2022-12-23	01:26:24	01:30:50	263870	60fc9ce95a59b3400b38e2a7	908749816	1	main_z	7	main_z	19	stimuli_distractor_diamondtriangles.svg	stimuli_target_circletriangles.svg	13	yes	44	1	222
6.6.1	win	2022-12-23	01:26:24	01:30:50	263870	60fc9ce95a59b3400b38e2a7	908749816	1	main_z	7	advance_on_keypress_ZEE	20	stimuli_distractor_diamondtriangles.svg	stimuli_target_circletriangles.svg	13	yes	57	0	1310
6.6.1	win	2022-12-23	01:26:24	01:30:52	266051	60fc9ce95a59b3400b38e2a7	908749816	1	main_z	7	main_z	21	stimuli_distractor_trianglediamonds.svg	stimuli_distractor_trianglediamonds.svg	34	no	44	0	222
6.6.1	win	2022-12-23	01:26:24	01:30:52	266051	60fc9ce95a59b3400b38e2a7	908749816	1	main_z	7	advance_on_keypress_ZEE	22	stimuli_distractor_trianglediamonds.svg	stimuli_distractor_trianglediamonds.svg	34	no	57	0	1332
6.6.1	win	2022-12-23	01:26:24	01:30:54	268248	60fc9ce95a59b3400b38e2a7	908749816	1	main_z	7	main_z	23	stimuli_target_circlediamonds.svg	stimuli_distractor_diamondtriangles.svg	6	yes	44	1	224
6.6.1	win	2022-12-23	01:26:24	01:30:54	268248	60fc9ce95a59b3400b38e2a7	908749816	1	main_z	7	advance_on_keypress_ZEE	24	stimuli_target_circlediamonds.svg	stimuli_distractor_diamondtriangles.svg	6	yes	57	0	1043
6.6.1	win	2022-12-23	01:26:24	01:30:56	270162	60fc9ce95a59b3400b38e2a7	908749816	1	main_z	7	main_z	25	stimuli_distractor_trianglediamonds.svg	stimuli_target_diamondcircles.svg	27	yes	44	1	228
6.6.1	win	2022-12-23	01:26:24	01:30:56	270162	60fc9ce95a59b3400b38e2a7	908749816	1	main_z	7	advance_on_keypress_ZEE	26	stimuli_distractor_trianglediamonds.svg	stimuli_target_diamondcircles.svg	27	yes	57	0	1182
6.6.1	win	2022-12-23	01:26:24	01:30:58	272222	60fc9ce95a59b3400b38e2a7	908749816	1	main_z	7	main_z	27	stimuli_distractor_diamondtriangles.svg	stimuli_target_squarediamonds.svg	16	yes	44	1	228
6.6.1	win	2022-12-23	01:26:24	01:30:58	272222	60fc9ce95a59b3400b38e2a7	908749816	1	main_z	7	advance_on_keypress_ZEE	28	stimuli_distractor_diamondtriangles.svg	stimuli_target_squarediamonds.svg	16	yes	57	0	1201
6.6.1	win	2022-12-23	01:26:24	01:31:00	274363	60fc9ce95a59b3400b38e2a7	908749816	1	main_z	7	main_z	29	stimuli_target_trianglecircles.svg	stimuli_distractor_trianglediamonds.svg	17	yes	44	1	292
6.6.1	win	2022-12-23	01:26:24	01:31:00	274363	60fc9ce95a59b3400b38e2a7	908749816	1	main_z	7	advance_on_keypress_ZEE	30	stimuli_target_trianglecircles.svg	stimuli_distractor_trianglediamonds.svg	17	yes	57	0	1170
6.6.1	win	2022-12-23	01:26:24	01:31:02	276427	60fc9ce95a59b3400b38e2a7	908749816	1	main_z	7	main_z	31	stimuli_target_circletriangles.svg	stimuli_distractor_diamondtriangles.svg	5	yes	44	1	265
6.6.1	win	2022-12-23	01:26:24	01:31:02	276427	60fc9ce95a59b3400b38e2a7	908749816	1	main_z	7	advance_on_keypress_ZEE	32	stimuli_target_circletriangles.svg	stimuli_distractor_diamondtriangles.svg	5	yes	57	0	1014
6.6.1	win	2022-12-23	01:26:24	01:31:04	278180	60fc9ce95a59b3400b38e2a7	908749816	1	main_z	7	main_z	33	stimuli_target_diamondsquares.svg	stimuli_distractor_trianglediamonds.svg	20	yes	44	1	95
6.6.1	win	2022-12-23	01:26:24	01:31:04	278180	60fc9ce95a59b3400b38e2a7	908749816	1	main_z	7	advance_on_keypress_ZEE	34	stimuli_target_diamondsquares.svg	stimuli_distractor_trianglediamonds.svg	20	yes	57	0	1140
6.6.1	win	2022-12-23	01:26:24	01:31:06	280200	60fc9ce95a59b3400b38e2a7	908749816	1	main_z	7	main_z	35	stimuli_distractor_diamondtriangles.svg	stimuli_target_circlediamonds.svg	14	yes	44	1	226
6.6.1	win	2022-12-23	01:26:24	01:31:06	280200	60fc9ce95a59b3400b38e2a7	908749816	1	main_z	7	advance_on_keypress_ZEE	36	stimuli_distractor_diamondtriangles.svg	stimuli_target_circlediamonds.svg	14	yes	57	0	1263
6.6.1	win	2022-12-23	01:26:24	01:31:08	282349	60fc9ce95a59b3400b38e2a7	908749816	1	main_z	7	main_z	37	stimuli_distractor_diamondtriangles.svg	stimuli_distractor_diamondtriangles.svg	39	no	44	0	229
6.6.1	win	2022-12-23	01:26:24	01:31:08	282349	60fc9ce95a59b3400b38e2a7	908749816	1	main_z	7	advance_on_keypress_ZEE	38	stimuli_distractor_diamondtriangles.svg	stimuli_distractor_diamondtriangles.svg	39	no	57	0	1267
6.6.1	win	2022-12-23	01:26:24	01:31:10	284554	60fc9ce95a59b3400b38e2a7	908749816	1	main_z	7	main_z	39	stimuli_target_circlediamonds.svg	stimuli_distractor_trianglediamonds.svg	2	yes	44	1	281
6.6.1	win	2022-12-23	01:26:24	01:31:10	284554	60fc9ce95a59b3400b38e2a7	908749816	1	main_z	7	advance_on_keypress_ZEE	40	stimuli_target_circlediamonds.svg	stimuli_distractor_trianglediamonds.svg	2	yes	57	0	1490
6.6.1	win	2022-12-23	01:26:24	01:31:13	287015	60fc9ce95a59b3400b38e2a7	908749816	1	main_z	7	main_z	41	stimuli_distractor_diamondtriangles.svg	stimuli_target_squaretriangles.svg	15	yes	44	1	322
6.6.1	win	2022-12-23	01:26:24	01:31:13	287015	60fc9ce95a59b3400b38e2a7	908749816	1	main_z	7	advance_on_keypress_ZEE	42	stimuli_distractor_diamondtriangles.svg	stimuli_target_squaretriangles.svg	15	yes	57	0	1376
6.6.1	win	2022-12-23	01:26:24	01:31:15	289266	60fc9ce95a59b3400b38e2a7	908749816	1	main_z	7	main_z	43	stimuli_distractor_diamondtriangles.svg	stimuli_target_diamondsquares.svg	32	yes	44	1	236
6.6.1	win	2022-12-23	01:26:24	01:31:15	289266	60fc9ce95a59b3400b38e2a7	908749816	1	main_z	7	advance_on_keypress_ZEE	44	stimuli_distractor_diamondtriangles.svg	stimuli_target_diamondsquares.svg	32	yes	57	0	1160
6.6.1	win	2022-12-23	01:26:24	01:31:17	291341	60fc9ce95a59b3400b38e2a7	908749816	1	main_z	7	main_z	45	stimuli_target_circletriangles.svg	stimuli_distractor_trianglediamonds.svg	1	yes	44	1	275
6.6.1	win	2022-12-23	01:26:24	01:31:17	291341	60fc9ce95a59b3400b38e2a7	908749816	1	main_z	7	advance_on_keypress_ZEE	46	stimuli_target_circletriangles.svg	stimuli_distractor_trianglediamonds.svg	1	yes	57	0	1058
6.6.1	win	2022-12-23	01:26:24	01:31:19	293302	60fc9ce95a59b3400b38e2a7	908749816	1	main_z	7	main_z	47	stimuli_distractor_diamondtriangles.svg	stimuli_distractor_diamondtriangles.svg	40	no	44	0	265
6.6.1	win	2022-12-23	01:26:24	01:31:19	293302	60fc9ce95a59b3400b38e2a7	908749816	1	main_z	7	advance_on_keypress_ZEE	48	stimuli_distractor_diamondtriangles.svg	stimuli_distractor_diamondtriangles.svg	40	no	57	0	1398
6.6.1	win	2022-12-23	01:26:24	01:31:21	295622	60fc9ce95a59b3400b38e2a7	908749816	1	main_z	7	main_z	49	stimuli_target_squaretriangles.svg	stimuli_distractor_trianglediamonds.svg	3	yes	44	1	265
6.6.1	win	2022-12-23	01:26:24	01:31:21	295622	60fc9ce95a59b3400b38e2a7	908749816	1	main_z	7	advance_on_keypress_ZEE	50	stimuli_target_squaretriangles.svg	stimuli_distractor_trianglediamonds.svg	3	yes	57	0	1076
6.6.1	win	2022-12-23	01:26:24	01:31:23	297601	60fc9ce95a59b3400b38e2a7	908749816	1	main_z	7	main_z	51	stimuli_distractor_trianglediamonds.svg	stimuli_target_trianglesquares.svg	26	yes	44	1	257
6.6.1	win	2022-12-23	01:26:24	01:31:23	297601	60fc9ce95a59b3400b38e2a7	908749816	1	main_z	7	advance_on_keypress_ZEE	52	stimuli_distractor_trianglediamonds.svg	stimuli_target_trianglesquares.svg	26	yes	57	0	1169
6.6.1	win	2022-12-23	01:26:24	01:31:26	299672	60fc9ce95a59b3400b38e2a7	908749816	1	main_z	7	main_z	53	stimuli_distractor_diamondtriangles.svg	stimuli_target_diamondcircles.svg	31	yes	44	1	259
6.6.1	win	2022-12-23	01:26:24	01:31:26	299672	60fc9ce95a59b3400b38e2a7	908749816	1	main_z	7	advance_on_keypress_ZEE	54	stimuli_distractor_diamondtriangles.svg	stimuli_target_diamondcircles.svg	31	yes	57	0	1085
6.6.1	win	2022-12-23	01:26:24	01:31:28	301696	60fc9ce95a59b3400b38e2a7	908749816	1	main_z	7	main_z	55	stimuli_distractor_trianglediamonds.svg	stimuli_target_diamondsquares.svg	28	yes	44	1	295
6.6.1	win	2022-12-23	01:26:24	01:31:28	301696	60fc9ce95a59b3400b38e2a7	908749816	1	main_z	7	advance_on_keypress_ZEE	56	stimuli_distractor_trianglediamonds.svg	stimuli_target_diamondsquares.svg	28	yes	57	0	1654
6.6.1	win	2022-12-23	01:26:24	01:31:30	304257	60fc9ce95a59b3400b38e2a7	908749816	1	main_z	7	main_z	57	stimuli_distractor_diamondtriangles.svg	stimuli_distractor_trianglediamonds.svg	37	no	44	0	268
6.6.1	win	2022-12-23	01:26:24	01:31:30	304257	60fc9ce95a59b3400b38e2a7	908749816	1	main_z	7	advance_on_keypress_ZEE	58	stimuli_distractor_diamondtriangles.svg	stimuli_distractor_trianglediamonds.svg	37	no	57	0	1176
6.6.1	win	2022-12-23	01:26:24	01:31:34	308075	60fc9ce95a59b3400b38e2a7	908749816	1	main_z	7	main_z	59	stimuli_target_squarediamonds.svg	stimuli_distractor_diamondtriangles.svg	8	yes	0	0	2000
6.6.1	win	2022-12-23	01:26:24	01:31:34	308075	60fc9ce95a59b3400b38e2a7	908749816	1	main_z	7	advance_on_keypress_ZEE	60	stimuli_target_squarediamonds.svg	stimuli_distractor_diamondtriangles.svg	8	yes	57	0	940
6.6.1	win	2022-12-23	01:26:24	01:31:36	309933	60fc9ce95a59b3400b38e2a7	908749816	1	main_z	7	main_z	61	stimuli_distractor_trianglediamonds.svg	stimuli_target_squaretriangles.svg	11	yes	44	1	268
6.6.1	win	2022-12-23	01:26:24	01:31:36	309933	60fc9ce95a59b3400b38e2a7	908749816	1	main_z	7	advance_on_keypress_ZEE	62	stimuli_distractor_trianglediamonds.svg	stimuli_target_squaretriangles.svg	11	yes	57	0	1164
6.6.1	win	2022-12-23	01:26:24	01:31:40	313751	60fc9ce95a59b3400b38e2a7	908749816	1	main_z	7	main_z	63	stimuli_target_trianglecircles.svg	stimuli_distractor_diamondtriangles.svg	21	yes	0	0	2000
6.6.1	win	2022-12-23	01:26:24	01:31:40	313751	60fc9ce95a59b3400b38e2a7	908749816	1	main_z	7	advance_on_keypress_ZEE	64	stimuli_target_trianglecircles.svg	stimuli_distractor_diamondtriangles.svg	21	yes	57	0	707
6.6.1	win	2022-12-23	01:26:24	01:31:41	315387	60fc9ce95a59b3400b38e2a7	908749816	1	main_z	7	main_z	65	stimuli_distractor_trianglediamonds.svg	stimuli_distractor_diamondtriangles.svg	35	no	44	0	281
6.6.1	win	2022-12-23	01:26:24	01:31:41	315387	60fc9ce95a59b3400b38e2a7	908749816	1	main_z	7	advance_on_keypress_ZEE	66	stimuli_distractor_trianglediamonds.svg	stimuli_distractor_diamondtriangles.svg	35	no	57	0	1470
6.6.1	win	2022-12-23	01:26:24	01:31:44	317822	60fc9ce95a59b3400b38e2a7	908749816	1	main_z	7	main_z	67	stimuli_distractor_trianglediamonds.svg	stimuli_target_circletriangles.svg	9	yes	44	1	312
6.6.1	win	2022-12-23	01:26:24	01:31:44	317822	60fc9ce95a59b3400b38e2a7	908749816	1	main_z	7	advance_on_keypress_ZEE	68	stimuli_distractor_trianglediamonds.svg	stimuli_target_circletriangles.svg	9	yes	57	0	1695
6.6.1	win	2022-12-23	01:26:24	01:31:46	320420	60fc9ce95a59b3400b38e2a7	908749816	1	main_z	7	main_z	69	stimuli_distractor_trianglediamonds.svg	stimuli_distractor_diamondtriangles.svg	36	no	44	0	271
6.6.1	win	2022-12-23	01:26:24	01:31:46	320420	60fc9ce95a59b3400b38e2a7	908749816	1	main_z	7	advance_on_keypress_ZEE	70	stimuli_distractor_trianglediamonds.svg	stimuli_distractor_diamondtriangles.svg	36	no	57	0	1161
6.6.1	win	2022-12-23	01:26:24	01:31:48	322572	60fc9ce95a59b3400b38e2a7	908749816	1	main_z	7	main_z	71	stimuli_target_squarediamonds.svg	stimuli_distractor_trianglediamonds.svg	4	yes	44	1	353
6.6.1	win	2022-12-23	01:26:24	01:31:48	322572	60fc9ce95a59b3400b38e2a7	908749816	1	main_z	7	advance_on_keypress_ZEE	72	stimuli_target_squarediamonds.svg	stimuli_distractor_trianglediamonds.svg	4	yes	57	0	1723
6.6.1	win	2022-12-23	01:26:24	01:31:51	325132	60fc9ce95a59b3400b38e2a7	908749816	1	main_z	7	main_z	73	stimuli_distractor_trianglediamonds.svg	stimuli_target_trianglecircles.svg	25	yes	44	1	193
6.6.1	win	2022-12-23	01:26:24	01:31:51	325132	60fc9ce95a59b3400b38e2a7	908749816	1	main_z	7	advance_on_keypress_ZEE	74	stimuli_distractor_trianglediamonds.svg	stimuli_target_trianglecircles.svg	25	yes	57	0	1091
6.6.1	win	2022-12-23	01:26:24	01:31:53	327133	60fc9ce95a59b3400b38e2a7	908749816	1	main_z	7	main_z	75	stimuli_target_trianglesquares.svg	stimuli_distractor_diamondtriangles.svg	22	yes	44	1	274
6.6.1	win	2022-12-23	01:26:24	01:31:53	327133	60fc9ce95a59b3400b38e2a7	908749816	1	main_z	7	advance_on_keypress_ZEE	76	stimuli_target_trianglesquares.svg	stimuli_distractor_diamondtriangles.svg	22	yes	57	0	1197
6.6.1	win	2022-12-23	01:26:24	01:31:55	329224	60fc9ce95a59b3400b38e2a7	908749816	1	main_z	7	main_z	77	stimuli_distractor_diamondtriangles.svg	stimuli_target_trianglecircles.svg	29	yes	44	1	245
6.6.1	win	2022-12-23	01:26:24	01:31:55	329224	60fc9ce95a59b3400b38e2a7	908749816	1	main_z	7	advance_on_keypress_ZEE	78	stimuli_distractor_diamondtriangles.svg	stimuli_target_trianglecircles.svg	29	yes	57	0	1262
6.6.1	win	2022-12-23	01:26:24	01:31:57	331343	60fc9ce95a59b3400b38e2a7	908749816	1	main_z	7	main_z	79	stimuli_target_squaretriangles.svg	stimuli_distractor_diamondtriangles.svg	7	yes	44	1	226
6.6.1	win	2022-12-23	01:26:24	01:31:57	331343	60fc9ce95a59b3400b38e2a7	908749816	1	main_z	7	advance_on_keypress_ZEE	80	stimuli_target_squaretriangles.svg	stimuli_distractor_diamondtriangles.svg	7	yes	57	0	2881
6.6.1	win	2022-12-23	01:26:24	01:32:01	335121	60fc9ce95a59b3400b38e2a7	908749816	1	main_z	7	main_z	81	stimuli_distractor_diamondtriangles.svg	stimuli_distractor_trianglediamonds.svg	38	no	44	0	266
6.6.1	win	2022-12-23	01:26:24	01:32:01	335121	60fc9ce95a59b3400b38e2a7	908749816	1	main_z	7	advance_on_keypress_ZEE	82	stimuli_distractor_diamondtriangles.svg	stimuli_distractor_trianglediamonds.svg	38	no	57	0	1287
6.6.1	win	2022-12-23	01:26:24	01:32:03	337395	60fc9ce95a59b3400b38e2a7	908749816	1	main_z	7	main_z	83	stimuli_target_diamondcircles.svg	stimuli_distractor_trianglediamonds.svg	19	yes	44	1	336
6.6.1	win	2022-12-23	01:26:24	01:32:03	337395	60fc9ce95a59b3400b38e2a7	908749816	1	main_z	7	advance_on_keypress_ZEE	84	stimuli_target_diamondcircles.svg	stimuli_distractor_trianglediamonds.svg	19	yes	57	0	1087
6.6.1	win	2022-12-23	01:26:24	01:32:05	339363	60fc9ce95a59b3400b38e2a7	908749816	1	main_z	7	main_z	85	stimuli_distractor_diamondtriangles.svg	stimuli_distractor_trianglediamonds.svg	37	no	44	0	234
6.6.1	win	2022-12-23	01:26:24	01:32:05	339363	60fc9ce95a59b3400b38e2a7	908749816	1	main_z	7	advance_on_keypress_ZEE	86	stimuli_distractor_diamondtriangles.svg	stimuli_distractor_trianglediamonds.svg	37	no	57	0	1243
6.6.1	win	2022-12-23	01:26:24	01:32:07	341538	60fc9ce95a59b3400b38e2a7	908749816	1	main_z	7	main_z	87	stimuli_target_squaretriangles.svg	stimuli_distractor_diamondtriangles.svg	7	yes	44	1	289
6.6.1	win	2022-12-23	01:26:24	01:32:07	341538	60fc9ce95a59b3400b38e2a7	908749816	1	main_z	7	advance_on_keypress_ZEE	88	stimuli_target_squaretriangles.svg	stimuli_distractor_diamondtriangles.svg	7	yes	57	0	1281
6.6.1	win	2022-12-23	01:26:24	01:32:09	343600	60fc9ce95a59b3400b38e2a7	908749816	1	main_z	7	main_z	89	stimuli_distractor_trianglediamonds.svg	stimuli_distractor_trianglediamonds.svg	33	no	44	0	129
6.6.1	win	2022-12-23	01:26:24	01:32:09	343600	60fc9ce95a59b3400b38e2a7	908749816	1	main_z	7	advance_on_keypress_ZEE	90	stimuli_distractor_trianglediamonds.svg	stimuli_distractor_trianglediamonds.svg	33	no	57	0	1072
6.6.1	win	2022-12-23	01:26:24	01:32:11	345578	60fc9ce95a59b3400b38e2a7	908749816	1	main_z	7	main_z	91	stimuli_target_squarediamonds.svg	stimuli_distractor_trianglediamonds.svg	4	yes	44	1	255
6.6.1	win	2022-12-23	01:26:24	01:32:11	345578	60fc9ce95a59b3400b38e2a7	908749816	1	main_z	7	advance_on_keypress_ZEE	92	stimuli_target_squarediamonds.svg	stimuli_distractor_trianglediamonds.svg	4	yes	57	0	1021
6.6.1	win	2022-12-23	01:26:24	01:32:13	347379	60fc9ce95a59b3400b38e2a7	908749816	1	main_z	7	main_z	93	stimuli_distractor_trianglediamonds.svg	stimuli_distractor_diamondtriangles.svg	35	no	44	0	136
6.6.1	win	2022-12-23	01:26:24	01:32:13	347379	60fc9ce95a59b3400b38e2a7	908749816	1	main_z	7	advance_on_keypress_ZEE	94	stimuli_distractor_trianglediamonds.svg	stimuli_distractor_diamondtriangles.svg	35	no	57	0	1111
6.6.1	win	2022-12-23	01:26:24	01:32:15	349358	60fc9ce95a59b3400b38e2a7	908749816	1	main_z	7	main_z	95	stimuli_distractor_diamondtriangles.svg	stimuli_target_circlediamonds.svg	14	yes	44	1	229
6.6.1	win	2022-12-23	01:26:24	01:32:15	349358	60fc9ce95a59b3400b38e2a7	908749816	1	main_z	7	advance_on_keypress_ZEE	96	stimuli_distractor_diamondtriangles.svg	stimuli_target_circlediamonds.svg	14	yes	57	0	1095
6.6.1	win	2022-12-23	01:26:24	01:32:17	351238	60fc9ce95a59b3400b38e2a7	908749816	1	main_z	7	main_z	97	stimuli_distractor_diamondtriangles.svg	stimuli_distractor_diamondtriangles.svg	40	no	44	0	155
6.6.1	win	2022-12-23	01:26:24	01:32:17	351238	60fc9ce95a59b3400b38e2a7	908749816	1	main_z	7	advance_on_keypress_ZEE	98	stimuli_distractor_diamondtriangles.svg	stimuli_distractor_diamondtriangles.svg	40	no	57	0	1163
6.6.1	win	2022-12-23	01:26:24	01:32:19	353322	60fc9ce95a59b3400b38e2a7	908749816	1	main_z	7	main_z	99	stimuli_distractor_trianglediamonds.svg	stimuli_target_squaretriangles.svg	11	yes	44	1	269
6.6.1	win	2022-12-23	01:26:24	01:32:19	353322	60fc9ce95a59b3400b38e2a7	908749816	1	main_z	7	advance_on_keypress_ZEE	100	stimuli_distractor_trianglediamonds.svg	stimuli_target_squaretriangles.svg	11	yes	57	0	1123
6.6.1	win	2022-12-23	01:26:24	01:32:21	355291	60fc9ce95a59b3400b38e2a7	908749816	1	main_z	7	main_z	101	stimuli_distractor_trianglediamonds.svg	stimuli_target_trianglecircles.svg	25	yes	44	1	201
6.6.1	win	2022-12-23	01:26:24	01:32:21	355291	60fc9ce95a59b3400b38e2a7	908749816	1	main_z	7	advance_on_keypress_ZEE	102	stimuli_distractor_trianglediamonds.svg	stimuli_target_trianglecircles.svg	25	yes	57	0	1074
6.6.1	win	2022-12-23	01:26:24	01:32:23	357257	60fc9ce95a59b3400b38e2a7	908749816	1	main_z	7	main_z	103	stimuli_target_circlediamonds.svg	stimuli_distractor_diamondtriangles.svg	6	yes	44	1	247
6.6.1	win	2022-12-23	01:26:24	01:32:23	357257	60fc9ce95a59b3400b38e2a7	908749816	1	main_z	7	advance_on_keypress_ZEE	104	stimuli_target_circlediamonds.svg	stimuli_distractor_diamondtriangles.svg	6	yes	57	0	1225
6.6.1	win	2022-12-23	01:26:24	01:32:25	359332	60fc9ce95a59b3400b38e2a7	908749816	1	main_z	7	main_z	105	stimuli_target_circletriangles.svg	stimuli_distractor_diamondtriangles.svg	5	yes	44	1	202
6.6.1	win	2022-12-23	01:26:24	01:32:25	359332	60fc9ce95a59b3400b38e2a7	908749816	1	main_z	7	advance_on_keypress_ZEE	106	stimuli_target_circletriangles.svg	stimuli_distractor_diamondtriangles.svg	5	yes	57	0	1128
6.6.1	win	2022-12-23	01:26:24	01:32:27	361335	60fc9ce95a59b3400b38e2a7	908749816	1	main_z	7	main_z	107	stimuli_distractor_diamondtriangles.svg	stimuli_target_squaretriangles.svg	15	yes	44	1	236
6.6.1	win	2022-12-23	01:26:24	01:32:27	361335	60fc9ce95a59b3400b38e2a7	908749816	1	main_z	7	advance_on_keypress_ZEE	108	stimuli_distractor_diamondtriangles.svg	stimuli_target_squaretriangles.svg	15	yes	57	0	1095
6.6.1	win	2022-12-23	01:26:24	01:32:29	363300	60fc9ce95a59b3400b38e2a7	908749816	1	main_z	7	main_z	109	stimuli_distractor_trianglediamonds.svg	stimuli_target_diamondcircles.svg	27	yes	44	1	230
6.6.1	win	2022-12-23	01:26:24	01:32:29	363300	60fc9ce95a59b3400b38e2a7	908749816	1	main_z	7	advance_on_keypress_ZEE	110	stimuli_distractor_trianglediamonds.svg	stimuli_target_diamondcircles.svg	27	yes	57	0	968
6.6.1	win	2022-12-23	01:26:24	01:32:31	365166	60fc9ce95a59b3400b38e2a7	908749816	1	main_z	7	main_z	111	stimuli_target_squarediamonds.svg	stimuli_distractor_diamondtriangles.svg	8	yes	44	1	260
6.6.1	win	2022-12-23	01:26:24	01:32:31	365166	60fc9ce95a59b3400b38e2a7	908749816	1	main_z	7	advance_on_keypress_ZEE	112	stimuli_target_squarediamonds.svg	stimuli_distractor_diamondtriangles.svg	8	yes	57	0	993
6.6.1	win	2022-12-23	01:26:24	01:32:33	367058	60fc9ce95a59b3400b38e2a7	908749816	1	main_z	7	main_z	113	stimuli_target_trianglesquares.svg	stimuli_distractor_trianglediamonds.svg	18	yes	44	1	265
6.6.1	win	2022-12-23	01:26:24	01:32:33	367058	60fc9ce95a59b3400b38e2a7	908749816	1	main_z	7	advance_on_keypress_ZEE	114	stimuli_target_trianglesquares.svg	stimuli_distractor_trianglediamonds.svg	18	yes	57	0	1206
6.6.1	win	2022-12-23	01:26:24	01:32:35	369065	60fc9ce95a59b3400b38e2a7	908749816	1	main_z	7	main_z	115	stimuli_distractor_trianglediamonds.svg	stimuli_distractor_trianglediamonds.svg	34	no	44	0	152
6.6.1	win	2022-12-23	01:26:24	01:32:35	369065	60fc9ce95a59b3400b38e2a7	908749816	1	main_z	7	advance_on_keypress_ZEE	116	stimuli_distractor_trianglediamonds.svg	stimuli_distractor_trianglediamonds.svg	34	no	57	0	1324
6.6.1	win	2022-12-23	01:26:24	01:32:37	371278	60fc9ce95a59b3400b38e2a7	908749816	1	main_z	7	main_z	117	stimuli_target_trianglecircles.svg	stimuli_distractor_diamondtriangles.svg	21	yes	44	1	245
6.6.1	win	2022-12-23	01:26:24	01:32:37	371278	60fc9ce95a59b3400b38e2a7	908749816	1	main_z	7	advance_on_keypress_ZEE	118	stimuli_target_trianglecircles.svg	stimuli_distractor_diamondtriangles.svg	21	yes	57	0	994
6.6.1	win	2022-12-23	01:26:24	01:32:39	373104	60fc9ce95a59b3400b38e2a7	908749816	1	main_z	7	main_z	119	stimuli_distractor_diamondtriangles.svg	stimuli_target_diamondsquares.svg	32	yes	44	1	200
6.6.1	win	2022-12-23	01:26:24	01:32:39	373104	60fc9ce95a59b3400b38e2a7	908749816	1	main_z	7	advance_on_keypress_ZEE	120	stimuli_distractor_diamondtriangles.svg	stimuli_target_diamondsquares.svg	32	yes	57	0	1074
6.6.1	win	2022-12-23	01:26:24	01:32:41	375071	60fc9ce95a59b3400b38e2a7	908749816	1	main_z	7	main_z	121	stimuli_distractor_diamondtriangles.svg	stimuli_target_trianglecircles.svg	29	yes	44	1	247
6.6.1	win	2022-12-23	01:26:24	01:32:41	375071	60fc9ce95a59b3400b38e2a7	908749816	1	main_z	7	advance_on_keypress_ZEE	122	stimuli_distractor_diamondtriangles.svg	stimuli_target_trianglecircles.svg	29	yes	57	0	1350
6.6.1	win	2022-12-23	01:26:24	01:32:43	377269	60fc9ce95a59b3400b38e2a7	908749816	1	main_z	7	main_z	123	stimuli_target_circletriangles.svg	stimuli_distractor_trianglediamonds.svg	1	yes	44	1	192
6.6.1	win	2022-12-23	01:26:24	01:32:43	377269	60fc9ce95a59b3400b38e2a7	908749816	1	main_z	7	advance_on_keypress_ZEE	124	stimuli_target_circletriangles.svg	stimuli_distractor_trianglediamonds.svg	1	yes	57	0	1220
6.6.1	win	2022-12-23	01:26:24	01:32:45	379394	60fc9ce95a59b3400b38e2a7	908749816	1	main_z	7	main_z	125	stimuli_target_circlediamonds.svg	stimuli_distractor_trianglediamonds.svg	2	yes	44	1	264
6.6.1	win	2022-12-23	01:26:24	01:32:45	379394	60fc9ce95a59b3400b38e2a7	908749816	1	main_z	7	advance_on_keypress_ZEE	126	stimuli_target_circlediamonds.svg	stimuli_distractor_trianglediamonds.svg	2	yes	57	0	2887
6.6.1	win	2022-12-23	01:26:24	01:32:49	382984	60fc9ce95a59b3400b38e2a7	908749816	1	main_z	7	main_z	127	stimuli_distractor_diamondtriangles.svg	stimuli_target_circletriangles.svg	13	yes	44	1	46
6.6.1	win	2022-12-23	01:26:24	01:32:49	382984	60fc9ce95a59b3400b38e2a7	908749816	1	main_z	7	advance_on_keypress_ZEE	128	stimuli_distractor_diamondtriangles.svg	stimuli_target_circletriangles.svg	13	yes	57	0	1161
6.6.1	win	2022-12-23	01:26:24	01:32:51	384991	60fc9ce95a59b3400b38e2a7	908749816	1	main_z	7	main_z	129	stimuli_distractor_trianglediamonds.svg	stimuli_distractor_diamondtriangles.svg	36	no	44	0	217
6.6.1	win	2022-12-23	01:26:24	01:32:51	384991	60fc9ce95a59b3400b38e2a7	908749816	1	main_z	7	advance_on_keypress_ZEE	130	stimuli_distractor_trianglediamonds.svg	stimuli_distractor_diamondtriangles.svg	36	no	57	0	1132
6.6.1	win	2022-12-23	01:26:24	01:32:53	386988	60fc9ce95a59b3400b38e2a7	908749816	1	main_z	7	main_z	131	stimuli_distractor_diamondtriangles.svg	stimuli_distractor_diamondtriangles.svg	39	no	44	0	211
6.6.1	win	2022-12-23	01:26:24	01:32:53	386988	60fc9ce95a59b3400b38e2a7	908749816	1	main_z	7	advance_on_keypress_ZEE	132	stimuli_distractor_diamondtriangles.svg	stimuli_distractor_diamondtriangles.svg	39	no	57	0	1204
6.6.1	win	2022-12-23	01:26:24	01:32:55	389070	60fc9ce95a59b3400b38e2a7	908749816	1	main_z	7	main_z	133	stimuli_distractor_trianglediamonds.svg	stimuli_target_circlediamonds.svg	10	yes	44	1	240
6.6.1	win	2022-12-23	01:26:24	01:32:55	389070	60fc9ce95a59b3400b38e2a7	908749816	1	main_z	7	advance_on_keypress_ZEE	134	stimuli_distractor_trianglediamonds.svg	stimuli_target_circlediamonds.svg	10	yes	57	0	1100
6.6.1	win	2022-12-23	01:26:24	01:32:57	391068	60fc9ce95a59b3400b38e2a7	908749816	1	main_z	7	main_z	135	stimuli_distractor_trianglediamonds.svg	stimuli_target_circletriangles.svg	9	yes	44	1	251
6.6.1	win	2022-12-23	01:26:24	01:32:57	391068	60fc9ce95a59b3400b38e2a7	908749816	1	main_z	7	advance_on_keypress_ZEE	136	stimuli_distractor_trianglediamonds.svg	stimuli_target_circletriangles.svg	9	yes	57	0	1126
6.6.1	win	2022-12-23	01:26:24	01:32:59	393051	60fc9ce95a59b3400b38e2a7	908749816	1	main_z	7	main_z	137	stimuli_target_diamondsquares.svg	stimuli_distractor_diamondtriangles.svg	24	yes	44	1	213
6.6.1	win	2022-12-23	01:26:24	01:32:59	393051	60fc9ce95a59b3400b38e2a7	908749816	1	main_z	7	advance_on_keypress_ZEE	138	stimuli_target_diamondsquares.svg	stimuli_distractor_diamondtriangles.svg	24	yes	57	0	1288
6.6.1	win	2022-12-23	01:26:24	01:33:01	395225	60fc9ce95a59b3400b38e2a7	908749816	1	main_z	7	main_z	139	stimuli_distractor_diamondtriangles.svg	stimuli_target_diamondcircles.svg	31	yes	44	1	249
6.6.1	win	2022-12-23	01:26:24	01:33:01	395225	60fc9ce95a59b3400b38e2a7	908749816	1	main_z	7	advance_on_keypress_ZEE	140	stimuli_distractor_diamondtriangles.svg	stimuli_target_diamondcircles.svg	31	yes	57	0	1958
6.6.1	win	2022-12-23	01:26:24	01:33:04	397952	60fc9ce95a59b3400b38e2a7	908749816	1	main_z	7	main_z	141	stimuli_target_squaretriangles.svg	stimuli_distractor_trianglediamonds.svg	3	yes	44	1	121
6.6.1	win	2022-12-23	01:26:24	01:33:04	397952	60fc9ce95a59b3400b38e2a7	908749816	1	main_z	7	advance_on_keypress_ZEE	142	stimuli_target_squaretriangles.svg	stimuli_distractor_trianglediamonds.svg	3	yes	57	0	1199
6.6.1	win	2022-12-23	01:26:24	01:33:06	400051	60fc9ce95a59b3400b38e2a7	908749816	1	main_z	7	main_z	143	stimuli_target_diamondcircles.svg	stimuli_distractor_diamondtriangles.svg	23	yes	44	1	251
6.6.1	win	2022-12-23	01:26:24	01:33:06	400051	60fc9ce95a59b3400b38e2a7	908749816	1	main_z	7	advance_on_keypress_ZEE	144	stimuli_target_diamondcircles.svg	stimuli_distractor_diamondtriangles.svg	23	yes	57	0	1132
6.6.1	win	2022-12-23	01:26:24	01:33:08	402115	60fc9ce95a59b3400b38e2a7	908749816	1	main_z	7	main_z	145	stimuli_distractor_trianglediamonds.svg	stimuli_target_trianglesquares.svg	26	yes	44	1	279
6.6.1	win	2022-12-23	01:26:24	01:33:08	402115	60fc9ce95a59b3400b38e2a7	908749816	1	main_z	7	advance_on_keypress_ZEE	146	stimuli_distractor_trianglediamonds.svg	stimuli_target_trianglesquares.svg	26	yes	57	0	879
6.6.1	win	2022-12-23	01:26:24	01:33:10	403753	60fc9ce95a59b3400b38e2a7	908749816	1	main_z	7	main_z	147	stimuli_target_diamondsquares.svg	stimuli_distractor_trianglediamonds.svg	20	yes	44	1	131
6.6.1	win	2022-12-23	01:26:24	01:33:10	403753	60fc9ce95a59b3400b38e2a7	908749816	1	main_z	7	advance_on_keypress_ZEE	148	stimuli_target_diamondsquares.svg	stimuli_distractor_trianglediamonds.svg	20	yes	57	0	983
6.6.1	win	2022-12-23	01:26:24	01:33:11	405562	60fc9ce95a59b3400b38e2a7	908749816	1	main_z	7	main_z	149	stimuli_distractor_trianglediamonds.svg	stimuli_target_diamondsquares.svg	28	yes	44	1	170
6.6.1	win	2022-12-23	01:26:24	01:33:11	405562	60fc9ce95a59b3400b38e2a7	908749816	1	main_z	7	advance_on_keypress_ZEE	150	stimuli_distractor_trianglediamonds.svg	stimuli_target_diamondsquares.svg	28	yes	57	0	1108
6.6.1	win	2022-12-23	01:26:24	01:33:13	407472	60fc9ce95a59b3400b38e2a7	908749816	1	main_z	7	main_z	151	stimuli_distractor_diamondtriangles.svg	stimuli_target_trianglesquares.svg	30	yes	44	1	159
6.6.1	win	2022-12-23	01:26:24	01:33:13	407472	60fc9ce95a59b3400b38e2a7	908749816	1	main_z	7	advance_on_keypress_ZEE	152	stimuli_distractor_diamondtriangles.svg	stimuli_target_trianglesquares.svg	30	yes	57	0	1139
6.6.1	win	2022-12-23	01:26:24	01:33:15	409392	60fc9ce95a59b3400b38e2a7	908749816	1	main_z	7	main_z	153	stimuli_distractor_diamondtriangles.svg	stimuli_target_squarediamonds.svg	16	yes	44	1	143
6.6.1	win	2022-12-23	01:26:24	01:33:15	409392	60fc9ce95a59b3400b38e2a7	908749816	1	main_z	7	advance_on_keypress_ZEE	154	stimuli_distractor_diamondtriangles.svg	stimuli_target_squarediamonds.svg	16	yes	57	0	1076
6.6.1	win	2022-12-23	01:26:24	01:33:17	411376	60fc9ce95a59b3400b38e2a7	908749816	1	main_z	7	main_z	155	stimuli_distractor_trianglediamonds.svg	stimuli_target_squarediamonds.svg	12	yes	44	1	273
6.6.1	win	2022-12-23	01:26:24	01:33:17	411376	60fc9ce95a59b3400b38e2a7	908749816	1	main_z	7	advance_on_keypress_ZEE	156	stimuli_distractor_trianglediamonds.svg	stimuli_target_squarediamonds.svg	12	yes	57	0	1060
6.6.1	win	2022-12-23	01:26:24	01:33:19	413201	60fc9ce95a59b3400b38e2a7	908749816	1	main_z	7	main_z	157	stimuli_target_trianglesquares.svg	stimuli_distractor_diamondtriangles.svg	22	yes	44	1	128
6.6.1	win	2022-12-23	01:26:24	01:33:19	413201	60fc9ce95a59b3400b38e2a7	908749816	1	main_z	7	advance_on_keypress_ZEE	158	stimuli_target_trianglesquares.svg	stimuli_distractor_diamondtriangles.svg	22	yes	57	0	1189
6.6.1	win	2022-12-23	01:26:24	01:33:21	415220	60fc9ce95a59b3400b38e2a7	908749816	1	main_z	7	main_z	159	stimuli_target_trianglecircles.svg	stimuli_distractor_trianglediamonds.svg	17	yes	44	1	194
6.6.1	win	2022-12-23	01:26:24	01:33:21	415220	60fc9ce95a59b3400b38e2a7	908749816	1	main_z	7	advance_on_keypress_ZEE	160	stimuli_target_trianglecircles.svg	stimuli_distractor_trianglediamonds.svg	17	yes	57	0	973
6.6.1	win	2022-12-23	01:26:24	01:33:49	442755	60fc9ce95a59b3400b38e2a7	908749816	1	practice_slash	9	practice_slash	1	stimuli_distractor_trianglediamonds.svg	stimuli_distractor_diamondtriangles.svg	16	no	0	1	2000
6.6.1	win	2022-12-23	01:26:24	01:33:49	442755	60fc9ce95a59b3400b38e2a7	908749816	1	practice_slash	9	advance_on_keypress_SLASH	2	stimuli_distractor_trianglediamonds.svg	stimuli_distractor_diamondtriangles.svg	16	no	57	0	696
6.6.1	win	2022-12-23	01:26:24	01:33:53	447114	60fc9ce95a59b3400b38e2a7	908749816	1	practice_slash	9	practice_slash	3	stimuli_target_circlediamonds.svg	stimuli_distractor_trianglediamonds.svg	4	yes	0	0	2000
6.6.1	win	2022-12-23	01:26:24	01:33:53	447114	60fc9ce95a59b3400b38e2a7	908749816	1	practice_slash	9	advance_on_keypress_SLASH	4	stimuli_target_circlediamonds.svg	stimuli_distractor_trianglediamonds.svg	4	yes	57	0	648
6.6.1	win	2022-12-23	01:26:24	01:33:57	451422	60fc9ce95a59b3400b38e2a7	908749816	1	practice_slash	9	practice_slash	5	stimuli_distractor_diamondtriangles.svg	stimuli_distractor_trianglediamonds.svg	14	no	0	1	2000
6.6.1	win	2022-12-23	01:26:24	01:33:57	451422	60fc9ce95a59b3400b38e2a7	908749816	1	practice_slash	9	advance_on_keypress_SLASH	6	stimuli_distractor_diamondtriangles.svg	stimuli_distractor_trianglediamonds.svg	14	no	57	0	317
6.6.1	win	2022-12-23	01:26:24	01:34:01	455395	60fc9ce95a59b3400b38e2a7	908749816	1	practice_slash	9	practice_slash	7	stimuli_target_diamondsquares.svg	stimuli_distractor_diamondtriangles.svg	3	yes	0	0	2000
6.6.1	win	2022-12-23	01:26:24	01:34:01	455395	60fc9ce95a59b3400b38e2a7	908749816	1	practice_slash	9	advance_on_keypress_SLASH	8	stimuli_target_diamondsquares.svg	stimuli_distractor_diamondtriangles.svg	3	yes	57	0	1339
6.6.1	win	2022-12-23	01:26:24	01:34:06	460372	60fc9ce95a59b3400b38e2a7	908749816	1	practice_slash	9	practice_slash	9	stimuli_target_squarediamonds.svg	stimuli_distractor_diamondtriangles.svg	2	yes	0	0	2000
6.6.1	win	2022-12-23	01:26:24	01:34:06	460372	60fc9ce95a59b3400b38e2a7	908749816	1	practice_slash	9	advance_on_keypress_SLASH	10	stimuli_target_squarediamonds.svg	stimuli_distractor_diamondtriangles.svg	2	yes	57	0	779
6.6.1	win	2022-12-23	01:26:24	01:34:11	464813	60fc9ce95a59b3400b38e2a7	908749816	1	practice_slash	9	practice_slash	11	stimuli_target_squarediamonds.svg	stimuli_distractor_trianglediamonds.svg	5	yes	0	0	2000
6.6.1	win	2022-12-23	01:26:24	01:34:11	464813	60fc9ce95a59b3400b38e2a7	908749816	1	practice_slash	9	advance_on_keypress_SLASH	12	stimuli_target_squarediamonds.svg	stimuli_distractor_trianglediamonds.svg	5	yes	57	0	1320
6.6.1	win	2022-12-23	01:26:24	01:34:16	469790	60fc9ce95a59b3400b38e2a7	908749816	1	practice_slash	9	practice_slash	13	stimuli_distractor_diamondtriangles.svg	stimuli_target_diamondcircles.svg	8	yes	0	0	2000
6.6.1	win	2022-12-23	01:26:24	01:34:16	469790	60fc9ce95a59b3400b38e2a7	908749816	1	practice_slash	9	advance_on_keypress_SLASH	14	stimuli_distractor_diamondtriangles.svg	stimuli_target_diamondcircles.svg	8	yes	57	0	1457
6.6.1	win	2022-12-23	01:26:24	01:34:21	474899	60fc9ce95a59b3400b38e2a7	908749816	1	practice_slash	9	practice_slash	15	stimuli_distractor_diamondtriangles.svg	stimuli_target_circletriangles.svg	7	yes	0	0	2000
6.6.1	win	2022-12-23	01:26:24	01:34:21	474899	60fc9ce95a59b3400b38e2a7	908749816	1	practice_slash	9	advance_on_keypress_SLASH	16	stimuli_distractor_diamondtriangles.svg	stimuli_target_circletriangles.svg	7	yes	57	0	2048
6.6.1	win	2022-12-23	01:26:24	01:34:26	480610	60fc9ce95a59b3400b38e2a7	908749816	1	practice_slash	9	practice_slash	17	stimuli_distractor_trianglediamonds.svg	stimuli_target_diamondcircles.svg	12	yes	0	0	2000
6.6.1	win	2022-12-23	01:26:24	01:34:26	480610	60fc9ce95a59b3400b38e2a7	908749816	1	practice_slash	9	advance_on_keypress_SLASH	18	stimuli_distractor_trianglediamonds.svg	stimuli_target_diamondcircles.svg	12	yes	57	0	1083
6.6.1	win	2022-12-23	01:26:24	01:34:31	485352	60fc9ce95a59b3400b38e2a7	908749816	1	practice_slash	9	practice_slash	19	stimuli_distractor_trianglediamonds.svg	stimuli_distractor_trianglediamonds.svg	15	no	0	1	2000
6.6.1	win	2022-12-23	01:26:24	01:34:31	485352	60fc9ce95a59b3400b38e2a7	908749816	1	practice_slash	9	advance_on_keypress_SLASH	20	stimuli_distractor_trianglediamonds.svg	stimuli_distractor_trianglediamonds.svg	15	no	57	0	858
6.6.1	win	2022-12-23	01:26:24	01:34:36	489861	60fc9ce95a59b3400b38e2a7	908749816	1	practice_slash	9	practice_slash	21	stimuli_target_diamondsquares.svg	stimuli_distractor_trianglediamonds.svg	6	yes	0	0	2000
6.6.1	win	2022-12-23	01:26:24	01:34:36	489861	60fc9ce95a59b3400b38e2a7	908749816	1	practice_slash	9	advance_on_keypress_SLASH	22	stimuli_target_diamondsquares.svg	stimuli_distractor_trianglediamonds.svg	6	yes	57	0	999
6.6.1	win	2022-12-23	01:26:24	01:34:40	494519	60fc9ce95a59b3400b38e2a7	908749816	1	practice_slash	9	practice_slash	23	stimuli_distractor_diamondtriangles.svg	stimuli_distractor_diamondtriangles.svg	13	no	0	1	2000
6.6.1	win	2022-12-23	01:26:24	01:34:40	494519	60fc9ce95a59b3400b38e2a7	908749816	1	practice_slash	9	advance_on_keypress_SLASH	24	stimuli_distractor_diamondtriangles.svg	stimuli_distractor_diamondtriangles.svg	13	no	57	0	234
6.6.1	win	2022-12-23	01:26:24	01:34:44	498393	60fc9ce95a59b3400b38e2a7	908749816	1	practice_slash	9	practice_slash	25	stimuli_target_circlediamonds.svg	stimuli_distractor_diamondtriangles.svg	1	yes	0	0	2000
6.6.1	win	2022-12-23	01:26:24	01:34:44	498393	60fc9ce95a59b3400b38e2a7	908749816	1	practice_slash	9	advance_on_keypress_SLASH	26	stimuli_target_circlediamonds.svg	stimuli_distractor_diamondtriangles.svg	1	yes	57	0	917
6.6.1	win	2022-12-23	01:26:24	01:34:49	502953	60fc9ce95a59b3400b38e2a7	908749816	1	practice_slash	9	practice_slash	27	stimuli_distractor_diamondtriangles.svg	stimuli_target_trianglecircles.svg	9	yes	0	0	2000
6.6.1	win	2022-12-23	01:26:24	01:34:49	502953	60fc9ce95a59b3400b38e2a7	908749816	1	practice_slash	9	advance_on_keypress_SLASH	28	stimuli_distractor_diamondtriangles.svg	stimuli_target_trianglecircles.svg	9	yes	57	0	2139
6.6.1	win	2022-12-23	01:26:24	01:34:55	508747	60fc9ce95a59b3400b38e2a7	908749816	1	practice_slash	9	practice_slash	29	stimuli_distractor_trianglediamonds.svg	stimuli_target_circlediamonds.svg	10	yes	0	0	2000
6.6.1	win	2022-12-23	01:26:24	01:34:55	508747	60fc9ce95a59b3400b38e2a7	908749816	1	practice_slash	9	advance_on_keypress_SLASH	30	stimuli_distractor_trianglediamonds.svg	stimuli_target_circlediamonds.svg	10	yes	57	0	1842
6.6.1	win	2022-12-23	01:26:24	01:35:00	514240	60fc9ce95a59b3400b38e2a7	908749816	1	practice_slash	9	practice_slash	31	stimuli_distractor_trianglediamonds.svg	stimuli_target_squarediamonds.svg	11	yes	0	0	2000
6.6.1	win	2022-12-23	01:26:24	01:35:00	514240	60fc9ce95a59b3400b38e2a7	908749816	1	practice_slash	9	advance_on_keypress_SLASH	32	stimuli_distractor_trianglediamonds.svg	stimuli_target_squarediamonds.svg	11	yes	57	0	12565
6.6.1	win	2022-12-23	01:26:24	01:35:23	537436	60fc9ce95a59b3400b38e2a7	908749816	1	main_slash	11	main_slash	1	stimuli_target_trianglesquares.svg	stimuli_distractor_diamondtriangles.svg	22	yes	0	0	2000
6.6.1	win	2022-12-23	01:26:24	01:35:23	537436	60fc9ce95a59b3400b38e2a7	908749816	1	main_slash	11	advance_on_keypress_SLASH	2	stimuli_target_trianglesquares.svg	stimuli_distractor_diamondtriangles.svg	22	yes	57	0	551
6.6.1	win	2022-12-23	01:26:24	01:35:26	540642	60fc9ce95a59b3400b38e2a7	908749816	1	main_slash	11	main_slash	3	stimuli_distractor_diamondtriangles.svg	stimuli_target_circletriangles.svg	13	yes	0	0	2000
6.6.1	win	2022-12-23	01:26:24	01:35:26	540642	60fc9ce95a59b3400b38e2a7	908749816	1	main_slash	11	advance_on_keypress_SLASH	4	stimuli_distractor_diamondtriangles.svg	stimuli_target_circletriangles.svg	13	yes	57	0	442
6.6.1	win	2022-12-23	01:26:24	01:35:30	543715	60fc9ce95a59b3400b38e2a7	908749816	1	main_slash	11	main_slash	5	stimuli_target_trianglecircles.svg	stimuli_distractor_trianglediamonds.svg	17	yes	0	0	2000
6.6.1	win	2022-12-23	01:26:24	01:35:30	543715	60fc9ce95a59b3400b38e2a7	908749816	1	main_slash	11	advance_on_keypress_SLASH	6	stimuli_target_trianglecircles.svg	stimuli_distractor_trianglediamonds.svg	17	yes	57	0	1019
6.6.1	win	2022-12-23	01:26:24	01:35:33	547372	60fc9ce95a59b3400b38e2a7	908749816	1	main_slash	11	main_slash	7	stimuli_distractor_trianglediamonds.svg	stimuli_target_diamondsquares.svg	28	yes	0	0	2000
6.6.1	win	2022-12-23	01:26:24	01:35:33	547372	60fc9ce95a59b3400b38e2a7	908749816	1	main_slash	11	advance_on_keypress_SLASH	8	stimuli_distractor_trianglediamonds.svg	stimuli_target_diamondsquares.svg	28	yes	57	0	898
6.6.1	win	2022-12-23	01:26:24	01:35:37	550929	60fc9ce95a59b3400b38e2a7	908749816	1	main_slash	11	main_slash	9	stimuli_distractor_diamondtriangles.svg	stimuli_distractor_diamondtriangles.svg	39	no	0	1	2000
6.6.1	win	2022-12-23	01:26:24	01:35:37	550929	60fc9ce95a59b3400b38e2a7	908749816	1	main_slash	11	advance_on_keypress_SLASH	10	stimuli_distractor_diamondtriangles.svg	stimuli_distractor_diamondtriangles.svg	39	no	57	0	388
6.6.1	win	2022-12-23	01:26:24	01:35:40	553968	60fc9ce95a59b3400b38e2a7	908749816	1	main_slash	11	main_slash	11	stimuli_target_trianglecircles.svg	stimuli_distractor_diamondtriangles.svg	21	yes	0	0	2000
6.6.1	win	2022-12-23	01:26:24	01:35:40	553968	60fc9ce95a59b3400b38e2a7	908749816	1	main_slash	11	advance_on_keypress_SLASH	12	stimuli_target_trianglecircles.svg	stimuli_distractor_diamondtriangles.svg	21	yes	57	0	1020
6.6.1	win	2022-12-23	01:26:24	01:35:43	557625	60fc9ce95a59b3400b38e2a7	908749816	1	main_slash	11	main_slash	13	stimuli_distractor_diamondtriangles.svg	stimuli_distractor_trianglediamonds.svg	37	no	0	1	2000
6.6.1	win	2022-12-23	01:26:24	01:35:43	557625	60fc9ce95a59b3400b38e2a7	908749816	1	main_slash	11	advance_on_keypress_SLASH	14	stimuli_distractor_diamondtriangles.svg	stimuli_distractor_trianglediamonds.svg	37	no	57	0	414
6.6.1	win	2022-12-23	01:26:24	01:35:47	560681	60fc9ce95a59b3400b38e2a7	908749816	1	main_slash	11	main_slash	15	stimuli_distractor_diamondtriangles.svg	stimuli_target_squarediamonds.svg	16	yes	0	0	2000
6.6.1	win	2022-12-23	01:26:24	01:35:47	560681	60fc9ce95a59b3400b38e2a7	908749816	1	main_slash	11	advance_on_keypress_SLASH	16	stimuli_distractor_diamondtriangles.svg	stimuli_target_squarediamonds.svg	16	yes	57	0	478
6.6.1	win	2022-12-23	01:26:24	01:35:50	563803	60fc9ce95a59b3400b38e2a7	908749816	1	main_slash	11	main_slash	17	stimuli_distractor_diamondtriangles.svg	stimuli_distractor_diamondtriangles.svg	40	no	0	1	2000
6.6.1	win	2022-12-23	01:26:24	01:35:50	563803	60fc9ce95a59b3400b38e2a7	908749816	1	main_slash	11	advance_on_keypress_SLASH	18	stimuli_distractor_diamondtriangles.svg	stimuli_distractor_diamondtriangles.svg	40	no	57	0	536
6.6.1	win	2022-12-23	01:26:24	01:35:53	566976	60fc9ce95a59b3400b38e2a7	908749816	1	main_slash	11	main_slash	19	stimuli_target_circlediamonds.svg	stimuli_distractor_diamondtriangles.svg	6	yes	0	0	2000
6.6.1	win	2022-12-23	01:26:24	01:35:53	566976	60fc9ce95a59b3400b38e2a7	908749816	1	main_slash	11	advance_on_keypress_SLASH	20	stimuli_target_circlediamonds.svg	stimuli_distractor_diamondtriangles.svg	6	yes	57	0	358
6.6.1	win	2022-12-23	01:26:24	01:35:56	569982	60fc9ce95a59b3400b38e2a7	908749816	1	main_slash	11	main_slash	21	stimuli_distractor_trianglediamonds.svg	stimuli_target_circletriangles.svg	9	yes	0	0	2000
6.6.1	win	2022-12-23	01:26:24	01:35:56	569982	60fc9ce95a59b3400b38e2a7	908749816	1	main_slash	11	advance_on_keypress_SLASH	22	stimuli_distractor_trianglediamonds.svg	stimuli_target_circletriangles.svg	9	yes	57	0	434
6.6.1	win	2022-12-23	01:26:24	01:35:59	573071	60fc9ce95a59b3400b38e2a7	908749816	1	main_slash	11	main_slash	23	stimuli_distractor_diamondtriangles.svg	stimuli_target_diamondsquares.svg	32	yes	0	0	2000
6.6.1	win	2022-12-23	01:26:24	01:35:59	573071	60fc9ce95a59b3400b38e2a7	908749816	1	main_slash	11	advance_on_keypress_SLASH	24	stimuli_distractor_diamondtriangles.svg	stimuli_target_diamondsquares.svg	32	yes	57	0	555
6.6.1	win	2022-12-23	01:26:24	01:36:02	576277	60fc9ce95a59b3400b38e2a7	908749816	1	main_slash	11	main_slash	25	stimuli_target_diamondsquares.svg	stimuli_distractor_trianglediamonds.svg	20	yes	0	0	2000
6.6.1	win	2022-12-23	01:26:24	01:36:02	576277	60fc9ce95a59b3400b38e2a7	908749816	1	main_slash	11	advance_on_keypress_SLASH	26	stimuli_target_diamondsquares.svg	stimuli_distractor_trianglediamonds.svg	20	yes	57	0	307
6.6.1	win	2022-12-23	01:26:24	01:36:05	579233	60fc9ce95a59b3400b38e2a7	908749816	1	main_slash	11	main_slash	27	stimuli_distractor_trianglediamonds.svg	stimuli_target_squaretriangles.svg	11	yes	0	0	2000
6.6.1	win	2022-12-23	01:26:24	01:36:05	579233	60fc9ce95a59b3400b38e2a7	908749816	1	main_slash	11	advance_on_keypress_SLASH	28	stimuli_distractor_trianglediamonds.svg	stimuli_target_squaretriangles.svg	11	yes	57	0	489
6.6.1	win	2022-12-23	01:26:24	01:36:08	582372	60fc9ce95a59b3400b38e2a7	908749816	1	main_slash	11	main_slash	29	stimuli_distractor_trianglediamonds.svg	stimuli_distractor_diamondtriangles.svg	35	no	0	1	2000
6.6.1	win	2022-12-23	01:26:24	01:36:08	582372	60fc9ce95a59b3400b38e2a7	908749816	1	main_slash	11	advance_on_keypress_SLASH	30	stimuli_distractor_trianglediamonds.svg	stimuli_distractor_diamondtriangles.svg	35	no	57	0	461
6.6.1	win	2022-12-23	01:26:24	01:36:11	585478	60fc9ce95a59b3400b38e2a7	908749816	1	main_slash	11	main_slash	31	stimuli_distractor_diamondtriangles.svg	stimuli_distractor_trianglediamonds.svg	38	no	0	1	2000
6.6.1	win	2022-12-23	01:26:24	01:36:11	585478	60fc9ce95a59b3400b38e2a7	908749816	1	main_slash	11	advance_on_keypress_SLASH	32	stimuli_distractor_diamondtriangles.svg	stimuli_distractor_trianglediamonds.svg	38	no	57	0	340
6.6.1	win	2022-12-23	01:26:24	01:36:14	588450	60fc9ce95a59b3400b38e2a7	908749816	1	main_slash	11	main_slash	33	stimuli_target_diamondcircles.svg	stimuli_distractor_trianglediamonds.svg	19	yes	0	0	2000
6.6.1	win	2022-12-23	01:26:24	01:36:14	588450	60fc9ce95a59b3400b38e2a7	908749816	1	main_slash	11	advance_on_keypress_SLASH	34	stimuli_target_diamondcircles.svg	stimuli_distractor_trianglediamonds.svg	19	yes	57	0	423
6.6.1	win	2022-12-23	01:26:24	01:36:17	591506	60fc9ce95a59b3400b38e2a7	908749816	1	main_slash	11	main_slash	35	stimuli_target_circlediamonds.svg	stimuli_distractor_trianglediamonds.svg	2	yes	0	0	2000
6.6.1	win	2022-12-23	01:26:24	01:36:17	591506	60fc9ce95a59b3400b38e2a7	908749816	1	main_slash	11	advance_on_keypress_SLASH	36	stimuli_target_circlediamonds.svg	stimuli_distractor_trianglediamonds.svg	2	yes	57	0	437
6.6.1	win	2022-12-23	01:26:24	01:36:20	594595	60fc9ce95a59b3400b38e2a7	908749816	1	main_slash	11	main_slash	37	stimuli_target_squaretriangles.svg	stimuli_distractor_diamondtriangles.svg	7	yes	0	0	2000
6.6.1	win	2022-12-23	01:26:24	01:36:20	594595	60fc9ce95a59b3400b38e2a7	908749816	1	main_slash	11	advance_on_keypress_SLASH	38	stimuli_target_squaretriangles.svg	stimuli_distractor_diamondtriangles.svg	7	yes	57	0	423
6.6.1	win	2022-12-23	01:26:24	01:36:24	597668	60fc9ce95a59b3400b38e2a7	908749816	1	main_slash	11	main_slash	39	stimuli_distractor_diamondtriangles.svg	stimuli_target_squaretriangles.svg	15	yes	0	0	2000
6.6.1	win	2022-12-23	01:26:24	01:36:24	597668	60fc9ce95a59b3400b38e2a7	908749816	1	main_slash	11	advance_on_keypress_SLASH	40	stimuli_distractor_diamondtriangles.svg	stimuli_target_squaretriangles.svg	15	yes	57	0	821
6.6.1	win	2022-12-23	01:26:24	01:36:27	601142	60fc9ce95a59b3400b38e2a7	908749816	1	main_slash	11	main_slash	41	stimuli_distractor_trianglediamonds.svg	stimuli_distractor_trianglediamonds.svg	33	no	0	1	2000
6.6.1	win	2022-12-23	01:26:24	01:36:27	601142	60fc9ce95a59b3400b38e2a7	908749816	1	main_slash	11	advance_on_keypress_SLASH	42	stimuli_distractor_trianglediamonds.svg	stimuli_distractor_trianglediamonds.svg	33	no	57	0	532
6.6.1	win	2022-12-23	01:26:24	01:36:30	604331	60fc9ce95a59b3400b38e2a7	908749816	1	main_slash	11	main_slash	43	stimuli_target_squarediamonds.svg	stimuli_distractor_diamondtriangles.svg	8	yes	0	0	2000
6.6.1	win	2022-12-23	01:26:24	01:36:30	604331	60fc9ce95a59b3400b38e2a7	908749816	1	main_slash	11	advance_on_keypress_SLASH	44	stimuli_target_squarediamonds.svg	stimuli_distractor_diamondtriangles.svg	8	yes	57	0	613
6.6.1	win	2022-12-23	01:26:24	01:36:33	607604	60fc9ce95a59b3400b38e2a7	908749816	1	main_slash	11	main_slash	45	stimuli_distractor_trianglediamonds.svg	stimuli_target_trianglesquares.svg	26	yes	0	0	2000
6.6.1	win	2022-12-23	01:26:24	01:36:33	607604	60fc9ce95a59b3400b38e2a7	908749816	1	main_slash	11	advance_on_keypress_SLASH	46	stimuli_distractor_trianglediamonds.svg	stimuli_target_trianglesquares.svg	26	yes	57	0	309
6.6.1	win	2022-12-23	01:26:24	01:36:36	610544	60fc9ce95a59b3400b38e2a7	908749816	1	main_slash	11	main_slash	47	stimuli_target_diamondcircles.svg	stimuli_distractor_diamondtriangles.svg	23	yes	0	0	2000
6.6.1	win	2022-12-23	01:26:24	01:36:36	610544	60fc9ce95a59b3400b38e2a7	908749816	1	main_slash	11	advance_on_keypress_SLASH	48	stimuli_target_diamondcircles.svg	stimuli_distractor_diamondtriangles.svg	23	yes	57	0	340
6.6.1	win	2022-12-23	01:26:24	01:36:39	613516	60fc9ce95a59b3400b38e2a7	908749816	1	main_slash	11	main_slash	49	stimuli_distractor_diamondtriangles.svg	stimuli_target_circlediamonds.svg	14	yes	0	0	2000
6.6.1	win	2022-12-23	01:26:24	01:36:39	613516	60fc9ce95a59b3400b38e2a7	908749816	1	main_slash	11	advance_on_keypress_SLASH	50	stimuli_distractor_diamondtriangles.svg	stimuli_target_circlediamonds.svg	14	yes	57	0	341
6.6.1	win	2022-12-23	01:26:24	01:36:42	616505	60fc9ce95a59b3400b38e2a7	908749816	1	main_slash	11	main_slash	51	stimuli_target_squarediamonds.svg	stimuli_distractor_trianglediamonds.svg	4	yes	0	0	2000
6.6.1	win	2022-12-23	01:26:24	01:36:42	616505	60fc9ce95a59b3400b38e2a7	908749816	1	main_slash	11	advance_on_keypress_SLASH	52	stimuli_target_squarediamonds.svg	stimuli_distractor_trianglediamonds.svg	4	yes	57	0	363
6.6.1	win	2022-12-23	01:26:24	01:36:45	619512	60fc9ce95a59b3400b38e2a7	908749816	1	main_slash	11	main_slash	53	stimuli_target_trianglesquares.svg	stimuli_distractor_trianglediamonds.svg	18	yes	0	0	2000
6.6.1	win	2022-12-23	01:26:24	01:36:45	619512	60fc9ce95a59b3400b38e2a7	908749816	1	main_slash	11	advance_on_keypress_SLASH	54	stimuli_target_trianglesquares.svg	stimuli_distractor_trianglediamonds.svg	18	yes	57	0	508
6.6.1	win	2022-12-23	01:26:24	01:36:49	622668	60fc9ce95a59b3400b38e2a7	908749816	1	main_slash	11	main_slash	55	stimuli_target_diamondsquares.svg	stimuli_distractor_diamondtriangles.svg	24	yes	0	0	2000
6.6.1	win	2022-12-23	01:26:24	01:36:49	622668	60fc9ce95a59b3400b38e2a7	908749816	1	main_slash	11	advance_on_keypress_SLASH	56	stimuli_target_diamondsquares.svg	stimuli_distractor_diamondtriangles.svg	24	yes	57	0	559
6.6.1	win	2022-12-23	01:26:24	01:36:52	625857	60fc9ce95a59b3400b38e2a7	908749816	1	main_slash	11	main_slash	57	stimuli_distractor_diamondtriangles.svg	stimuli_target_trianglesquares.svg	30	yes	0	0	2000
6.6.1	win	2022-12-23	01:26:24	01:36:52	625857	60fc9ce95a59b3400b38e2a7	908749816	1	main_slash	11	advance_on_keypress_SLASH	58	stimuli_distractor_diamondtriangles.svg	stimuli_target_trianglesquares.svg	30	yes	57	0	386
6.6.1	win	2022-12-23	01:26:24	01:36:55	628897	60fc9ce95a59b3400b38e2a7	908749816	1	main_slash	11	main_slash	59	stimuli_target_squaretriangles.svg	stimuli_distractor_trianglediamonds.svg	3	yes	0	0	2000
6.6.1	win	2022-12-23	01:26:24	01:36:55	628897	60fc9ce95a59b3400b38e2a7	908749816	1	main_slash	11	advance_on_keypress_SLASH	60	stimuli_target_squaretriangles.svg	stimuli_distractor_trianglediamonds.svg	3	yes	57	0	321
6.6.1	win	2022-12-23	01:26:24	01:36:58	631869	60fc9ce95a59b3400b38e2a7	908749816	1	main_slash	11	main_slash	61	stimuli_distractor_diamondtriangles.svg	stimuli_target_diamondcircles.svg	31	yes	0	0	2000
6.6.1	win	2022-12-23	01:26:24	01:36:58	631869	60fc9ce95a59b3400b38e2a7	908749816	1	main_slash	11	advance_on_keypress_SLASH	62	stimuli_distractor_diamondtriangles.svg	stimuli_target_diamondcircles.svg	31	yes	57	0	640
6.6.1	win	2022-12-23	01:26:24	01:37:01	635159	60fc9ce95a59b3400b38e2a7	908749816	1	main_slash	11	main_slash	63	stimuli_distractor_trianglediamonds.svg	stimuli_target_trianglecircles.svg	25	yes	0	0	2000
6.6.1	win	2022-12-23	01:26:24	01:37:01	635159	60fc9ce95a59b3400b38e2a7	908749816	1	main_slash	11	advance_on_keypress_SLASH	64	stimuli_distractor_trianglediamonds.svg	stimuli_target_trianglecircles.svg	25	yes	57	0	558
6.6.1	win	2022-12-23	01:26:24	01:37:04	638365	60fc9ce95a59b3400b38e2a7	908749816	1	main_slash	11	main_slash	65	stimuli_distractor_trianglediamonds.svg	stimuli_target_circlediamonds.svg	10	yes	0	0	2000
6.6.1	win	2022-12-23	01:26:24	01:37:04	638365	60fc9ce95a59b3400b38e2a7	908749816	1	main_slash	11	advance_on_keypress_SLASH	66	stimuli_distractor_trianglediamonds.svg	stimuli_target_circlediamonds.svg	10	yes	57	0	578
6.6.1	win	2022-12-23	01:26:24	01:37:07	641572	60fc9ce95a59b3400b38e2a7	908749816	1	main_slash	11	main_slash	67	stimuli_distractor_diamondtriangles.svg	stimuli_target_trianglecircles.svg	29	yes	0	0	2000
6.6.1	win	2022-12-23	01:26:24	01:37:07	641572	60fc9ce95a59b3400b38e2a7	908749816	1	main_slash	11	advance_on_keypress_SLASH	68	stimuli_distractor_diamondtriangles.svg	stimuli_target_trianglecircles.svg	29	yes	57	0	461
6.6.1	win	2022-12-23	01:26:24	01:37:11	644678	60fc9ce95a59b3400b38e2a7	908749816	1	main_slash	11	main_slash	69	stimuli_target_circletriangles.svg	stimuli_distractor_diamondtriangles.svg	5	yes	0	0	2000
6.6.1	win	2022-12-23	01:26:24	01:37:11	644678	60fc9ce95a59b3400b38e2a7	908749816	1	main_slash	11	advance_on_keypress_SLASH	70	stimuli_target_circletriangles.svg	stimuli_distractor_diamondtriangles.svg	5	yes	57	0	612
6.6.1	win	2022-12-23	01:26:24	01:37:14	647934	60fc9ce95a59b3400b38e2a7	908749816	1	main_slash	11	main_slash	71	stimuli_distractor_trianglediamonds.svg	stimuli_target_diamondcircles.svg	27	yes	0	0	2000
6.6.1	win	2022-12-23	01:26:24	01:37:14	647934	60fc9ce95a59b3400b38e2a7	908749816	1	main_slash	11	advance_on_keypress_SLASH	72	stimuli_distractor_trianglediamonds.svg	stimuli_target_diamondcircles.svg	27	yes	57	0	437
6.6.1	win	2022-12-23	01:26:24	01:37:17	651007	60fc9ce95a59b3400b38e2a7	908749816	1	main_slash	11	main_slash	73	stimuli_distractor_trianglediamonds.svg	stimuli_distractor_diamondtriangles.svg	36	no	0	1	2000
6.6.1	win	2022-12-23	01:26:24	01:37:17	651007	60fc9ce95a59b3400b38e2a7	908749816	1	main_slash	11	advance_on_keypress_SLASH	74	stimuli_distractor_trianglediamonds.svg	stimuli_distractor_diamondtriangles.svg	36	no	57	0	550
6.6.1	win	2022-12-23	01:26:24	01:37:20	654214	60fc9ce95a59b3400b38e2a7	908749816	1	main_slash	11	main_slash	75	stimuli_distractor_trianglediamonds.svg	stimuli_target_squarediamonds.svg	12	yes	0	0	2000
6.6.1	win	2022-12-23	01:26:24	01:37:20	654214	60fc9ce95a59b3400b38e2a7	908749816	1	main_slash	11	advance_on_keypress_SLASH	76	stimuli_distractor_trianglediamonds.svg	stimuli_target_squarediamonds.svg	12	yes	57	0	551
6.6.1	win	2022-12-23	01:26:24	01:37:23	657404	60fc9ce95a59b3400b38e2a7	908749816	1	main_slash	11	main_slash	77	stimuli_distractor_trianglediamonds.svg	stimuli_distractor_trianglediamonds.svg	34	no	0	1	2000
6.6.1	win	2022-12-23	01:26:24	01:37:23	657404	60fc9ce95a59b3400b38e2a7	908749816	1	main_slash	11	advance_on_keypress_SLASH	78	stimuli_distractor_trianglediamonds.svg	stimuli_distractor_trianglediamonds.svg	34	no	57	0	466
6.6.1	win	2022-12-23	01:26:24	01:37:26	660510	60fc9ce95a59b3400b38e2a7	908749816	1	main_slash	11	main_slash	79	stimuli_target_circletriangles.svg	stimuli_distractor_trianglediamonds.svg	1	yes	0	0	2000
6.6.1	win	2022-12-23	01:26:24	01:37:26	660510	60fc9ce95a59b3400b38e2a7	908749816	1	main_slash	11	advance_on_keypress_SLASH	80	stimuli_target_circletriangles.svg	stimuli_distractor_trianglediamonds.svg	1	yes	57	0	563
6.6.1	win	2022-12-23	01:26:24	01:37:30	663717	60fc9ce95a59b3400b38e2a7	908749816	1	main_slash	11	main_slash	81	stimuli_target_diamondcircles.svg	stimuli_distractor_diamondtriangles.svg	23	yes	0	0	2000
6.6.1	win	2022-12-23	01:26:24	01:37:30	663717	60fc9ce95a59b3400b38e2a7	908749816	1	main_slash	11	advance_on_keypress_SLASH	82	stimuli_target_diamondcircles.svg	stimuli_distractor_diamondtriangles.svg	23	yes	57	0	393
6.6.1	win	2022-12-23	01:26:24	01:37:33	666756	60fc9ce95a59b3400b38e2a7	908749816	1	main_slash	11	main_slash	83	stimuli_distractor_diamondtriangles.svg	stimuli_distractor_diamondtriangles.svg	40	no	0	1	2000
6.6.1	win	2022-12-23	01:26:24	01:37:33	666756	60fc9ce95a59b3400b38e2a7	908749816	1	main_slash	11	advance_on_keypress_SLASH	84	stimuli_distractor_diamondtriangles.svg	stimuli_distractor_diamondtriangles.svg	40	no	57	0	657
6.6.1	win	2022-12-23	01:26:24	01:37:36	670063	60fc9ce95a59b3400b38e2a7	908749816	1	main_slash	11	main_slash	85	stimuli_distractor_trianglediamonds.svg	stimuli_target_diamondsquares.svg	28	yes	0	0	2000
6.6.1	win	2022-12-23	01:26:24	01:37:36	670063	60fc9ce95a59b3400b38e2a7	908749816	1	main_slash	11	advance_on_keypress_SLASH	86	stimuli_distractor_trianglediamonds.svg	stimuli_target_diamondsquares.svg	28	yes	57	0	502
6.6.1	win	2022-12-23	01:26:24	01:37:39	673202	60fc9ce95a59b3400b38e2a7	908749816	1	main_slash	11	main_slash	87	stimuli_distractor_diamondtriangles.svg	stimuli_target_squaretriangles.svg	15	yes	0	0	2000
6.6.1	win	2022-12-23	01:26:24	01:37:39	673202	60fc9ce95a59b3400b38e2a7	908749816	1	main_slash	11	advance_on_keypress_SLASH	88	stimuli_distractor_diamondtriangles.svg	stimuli_target_squaretriangles.svg	15	yes	57	0	1271
6.6.1	win	2022-12-23	01:26:24	01:37:43	677110	60fc9ce95a59b3400b38e2a7	908749816	1	main_slash	11	main_slash	89	stimuli_distractor_diamondtriangles.svg	stimuli_target_circlediamonds.svg	14	yes	0	0	2000
6.6.1	win	2022-12-23	01:26:24	01:37:43	677110	60fc9ce95a59b3400b38e2a7	908749816	1	main_slash	11	advance_on_keypress_SLASH	90	stimuli_distractor_diamondtriangles.svg	stimuli_target_circlediamonds.svg	14	yes	57	0	1160
6.6.1	win	2022-12-23	01:26:24	01:37:47	680902	60fc9ce95a59b3400b38e2a7	908749816	1	main_slash	11	main_slash	91	stimuli_target_trianglecircles.svg	stimuli_distractor_diamondtriangles.svg	21	yes	0	0	2000
6.6.1	win	2022-12-23	01:26:24	01:37:47	680902	60fc9ce95a59b3400b38e2a7	908749816	1	main_slash	11	advance_on_keypress_SLASH	92	stimuli_target_trianglecircles.svg	stimuli_distractor_diamondtriangles.svg	21	yes	57	0	667
6.6.1	win	2022-12-23	01:26:24	01:37:50	684225	60fc9ce95a59b3400b38e2a7	908749816	1	main_slash	11	main_slash	93	stimuli_distractor_trianglediamonds.svg	stimuli_target_circletriangles.svg	9	yes	0	0	2000
6.6.1	win	2022-12-23	01:26:24	01:37:50	684225	60fc9ce95a59b3400b38e2a7	908749816	1	main_slash	11	advance_on_keypress_SLASH	94	stimuli_distractor_trianglediamonds.svg	stimuli_target_circletriangles.svg	9	yes	57	0	408
6.6.1	win	2022-12-23	01:26:24	01:37:53	687265	60fc9ce95a59b3400b38e2a7	908749816	1	main_slash	11	main_slash	95	stimuli_target_diamondsquares.svg	stimuli_distractor_trianglediamonds.svg	20	yes	0	0	2000
6.6.1	win	2022-12-23	01:26:24	01:37:53	687265	60fc9ce95a59b3400b38e2a7	908749816	1	main_slash	11	advance_on_keypress_SLASH	96	stimuli_target_diamondsquares.svg	stimuli_distractor_trianglediamonds.svg	20	yes	57	0	339
6.6.1	win	2022-12-23	01:26:24	01:37:56	690255	60fc9ce95a59b3400b38e2a7	908749816	1	main_slash	11	main_slash	97	stimuli_target_trianglesquares.svg	stimuli_distractor_trianglediamonds.svg	18	yes	0	0	2000
6.6.1	win	2022-12-23	01:26:24	01:37:56	690255	60fc9ce95a59b3400b38e2a7	908749816	1	main_slash	11	advance_on_keypress_SLASH	98	stimuli_target_trianglesquares.svg	stimuli_distractor_trianglediamonds.svg	18	yes	57	0	345
6.6.1	win	2022-12-23	01:26:24	01:37:59	693244	60fc9ce95a59b3400b38e2a7	908749816	1	main_slash	11	main_slash	99	stimuli_distractor_trianglediamonds.svg	stimuli_distractor_trianglediamonds.svg	34	no	0	1	2000
6.6.1	win	2022-12-23	01:26:24	01:37:59	693244	60fc9ce95a59b3400b38e2a7	908749816	1	main_slash	11	advance_on_keypress_SLASH	100	stimuli_distractor_trianglediamonds.svg	stimuli_distractor_trianglediamonds.svg	34	no	57	0	500
6.6.1	win	2022-12-23	01:26:24	01:38:02	696384	60fc9ce95a59b3400b38e2a7	908749816	1	main_slash	11	main_slash	101	stimuli_distractor_trianglediamonds.svg	stimuli_target_squaretriangles.svg	11	yes	0	0	2000
6.6.1	win	2022-12-23	01:26:24	01:38:02	696384	60fc9ce95a59b3400b38e2a7	908749816	1	main_slash	11	advance_on_keypress_SLASH	102	stimuli_distractor_trianglediamonds.svg	stimuli_target_squaretriangles.svg	11	yes	57	0	443
6.6.1	win	2022-12-23	01:26:24	01:38:05	699457	60fc9ce95a59b3400b38e2a7	908749816	1	main_slash	11	main_slash	103	stimuli_target_trianglesquares.svg	stimuli_distractor_diamondtriangles.svg	22	yes	0	0	2000
6.6.1	win	2022-12-23	01:26:24	01:38:05	699457	60fc9ce95a59b3400b38e2a7	908749816	1	main_slash	11	advance_on_keypress_SLASH	104	stimuli_target_trianglesquares.svg	stimuli_distractor_diamondtriangles.svg	22	yes	57	0	341
6.6.1	win	2022-12-23	01:26:24	01:38:08	702447	60fc9ce95a59b3400b38e2a7	908749816	1	main_slash	11	main_slash	105	stimuli_target_trianglecircles.svg	stimuli_distractor_trianglediamonds.svg	17	yes	0	0	2000
6.6.1	win	2022-12-23	01:26:24	01:38:08	702447	60fc9ce95a59b3400b38e2a7	908749816	1	main_slash	11	advance_on_keypress_SLASH	106	stimuli_target_trianglecircles.svg	stimuli_distractor_trianglediamonds.svg	17	yes	57	0	418
6.6.1	win	2022-12-23	01:26:24	01:38:11	705503	60fc9ce95a59b3400b38e2a7	908749816	1	main_slash	11	main_slash	107	stimuli_target_squaretriangles.svg	stimuli_distractor_trianglediamonds.svg	3	yes	0	0	2000
6.6.1	win	2022-12-23	01:26:24	01:38:11	705503	60fc9ce95a59b3400b38e2a7	908749816	1	main_slash	11	advance_on_keypress_SLASH	108	stimuli_target_squaretriangles.svg	stimuli_distractor_trianglediamonds.svg	3	yes	57	0	414
6.6.1	win	2022-12-23	01:26:24	01:38:14	708560	60fc9ce95a59b3400b38e2a7	908749816	1	main_slash	11	main_slash	109	stimuli_distractor_trianglediamonds.svg	stimuli_target_circlediamonds.svg	10	yes	0	0	2000
6.6.1	win	2022-12-23	01:26:24	01:38:14	708560	60fc9ce95a59b3400b38e2a7	908749816	1	main_slash	11	advance_on_keypress_SLASH	110	stimuli_distractor_trianglediamonds.svg	stimuli_target_circlediamonds.svg	10	yes	57	0	359
6.6.1	win	2022-12-23	01:26:24	01:38:17	711566	60fc9ce95a59b3400b38e2a7	908749816	1	main_slash	11	main_slash	111	stimuli_distractor_diamondtriangles.svg	stimuli_distractor_trianglediamonds.svg	38	no	0	1	2000
6.6.1	win	2022-12-23	01:26:24	01:38:17	711566	60fc9ce95a59b3400b38e2a7	908749816	1	main_slash	11	advance_on_keypress_SLASH	112	stimuli_distractor_diamondtriangles.svg	stimuli_distractor_trianglediamonds.svg	38	no	57	0	415
6.6.1	win	2022-12-23	01:26:24	01:38:20	714622	60fc9ce95a59b3400b38e2a7	908749816	1	main_slash	11	main_slash	113	stimuli_distractor_trianglediamonds.svg	stimuli_target_diamondcircles.svg	27	yes	0	0	2000
6.6.1	win	2022-12-23	01:26:24	01:38:20	714622	60fc9ce95a59b3400b38e2a7	908749816	1	main_slash	11	advance_on_keypress_SLASH	114	stimuli_distractor_trianglediamonds.svg	stimuli_target_diamondcircles.svg	27	yes	57	0	424
6.6.1	win	2022-12-23	01:26:24	01:38:24	717680	60fc9ce95a59b3400b38e2a7	908749816	1	main_slash	11	main_slash	115	stimuli_distractor_diamondtriangles.svg	stimuli_target_circletriangles.svg	13	yes	0	0	2000
6.6.1	win	2022-12-23	01:26:24	01:38:24	717680	60fc9ce95a59b3400b38e2a7	908749816	1	main_slash	11	advance_on_keypress_SLASH	116	stimuli_distractor_diamondtriangles.svg	stimuli_target_circletriangles.svg	13	yes	57	0	690
6.6.1	win	2022-12-23	01:26:24	01:38:27	721019	60fc9ce95a59b3400b38e2a7	908749816	1	main_slash	11	main_slash	117	stimuli_distractor_trianglediamonds.svg	stimuli_distractor_diamondtriangles.svg	35	no	0	1	2000
6.6.1	win	2022-12-23	01:26:24	01:38:27	721019	60fc9ce95a59b3400b38e2a7	908749816	1	main_slash	11	advance_on_keypress_SLASH	118	stimuli_distractor_trianglediamonds.svg	stimuli_distractor_diamondtriangles.svg	35	no	57	0	872
6.6.1	win	2022-12-23	01:26:24	01:38:30	724527	60fc9ce95a59b3400b38e2a7	908749816	1	main_slash	11	main_slash	119	stimuli_distractor_diamondtriangles.svg	stimuli_distractor_trianglediamonds.svg	37	no	0	1	2000
6.6.1	win	2022-12-23	01:26:24	01:38:30	724527	60fc9ce95a59b3400b38e2a7	908749816	1	main_slash	11	advance_on_keypress_SLASH	120	stimuli_distractor_diamondtriangles.svg	stimuli_distractor_trianglediamonds.svg	37	no	57	0	693
6.6.1	win	2022-12-23	01:26:24	01:38:34	727850	60fc9ce95a59b3400b38e2a7	908749816	1	main_slash	11	main_slash	121	stimuli_distractor_diamondtriangles.svg	stimuli_distractor_diamondtriangles.svg	39	no	0	1	2000
6.6.1	win	2022-12-23	01:26:24	01:38:34	727850	60fc9ce95a59b3400b38e2a7	908749816	1	main_slash	11	advance_on_keypress_SLASH	122	stimuli_distractor_diamondtriangles.svg	stimuli_distractor_diamondtriangles.svg	39	no	57	0	497
6.6.1	win	2022-12-23	01:26:24	01:38:37	730990	60fc9ce95a59b3400b38e2a7	908749816	1	main_slash	11	main_slash	123	stimuli_distractor_diamondtriangles.svg	stimuli_target_diamondcircles.svg	31	yes	0	0	2000
6.6.1	win	2022-12-23	01:26:24	01:38:37	730990	60fc9ce95a59b3400b38e2a7	908749816	1	main_slash	11	advance_on_keypress_SLASH	124	stimuli_distractor_diamondtriangles.svg	stimuli_target_diamondcircles.svg	31	yes	57	0	704
6.6.1	win	2022-12-23	01:26:24	01:38:40	734348	60fc9ce95a59b3400b38e2a7	908749816	1	main_slash	11	main_slash	125	stimuli_target_circlediamonds.svg	stimuli_distractor_trianglediamonds.svg	2	yes	0	0	2000
6.6.1	win	2022-12-23	01:26:24	01:38:40	734348	60fc9ce95a59b3400b38e2a7	908749816	1	main_slash	11	advance_on_keypress_SLASH	126	stimuli_target_circlediamonds.svg	stimuli_distractor_trianglediamonds.svg	2	yes	57	0	479
6.6.1	win	2022-12-23	01:26:24	01:38:43	737471	60fc9ce95a59b3400b38e2a7	908749816	1	main_slash	11	main_slash	127	stimuli_distractor_trianglediamonds.svg	stimuli_target_squarediamonds.svg	12	yes	0	0	2000
6.6.1	win	2022-12-23	01:26:24	01:38:43	737471	60fc9ce95a59b3400b38e2a7	908749816	1	main_slash	11	advance_on_keypress_SLASH	128	stimuli_distractor_trianglediamonds.svg	stimuli_target_squarediamonds.svg	12	yes	57	0	425
6.6.1	win	2022-12-23	01:26:24	01:38:46	740528	60fc9ce95a59b3400b38e2a7	908749816	1	main_slash	11	main_slash	129	stimuli_distractor_diamondtriangles.svg	stimuli_target_trianglecircles.svg	29	yes	0	0	2000
6.6.1	win	2022-12-23	01:26:24	01:38:46	740528	60fc9ce95a59b3400b38e2a7	908749816	1	main_slash	11	advance_on_keypress_SLASH	130	stimuli_distractor_diamondtriangles.svg	stimuli_target_trianglecircles.svg	29	yes	57	0	544
6.6.1	win	2022-12-23	01:26:24	01:38:50	743718	60fc9ce95a59b3400b38e2a7	908749816	1	main_slash	11	main_slash	131	stimuli_distractor_diamondtriangles.svg	stimuli_target_squarediamonds.svg	16	yes	0	0	2000
6.6.1	win	2022-12-23	01:26:24	01:38:50	743718	60fc9ce95a59b3400b38e2a7	908749816	1	main_slash	11	advance_on_keypress_SLASH	132	stimuli_distractor_diamondtriangles.svg	stimuli_target_squarediamonds.svg	16	yes	57	0	472
6.6.1	win	2022-12-23	01:26:24	01:38:53	746841	60fc9ce95a59b3400b38e2a7	908749816	1	main_slash	11	main_slash	133	stimuli_target_squaretriangles.svg	stimuli_distractor_diamondtriangles.svg	7	yes	0	0	2000
6.6.1	win	2022-12-23	01:26:24	01:38:53	746841	60fc9ce95a59b3400b38e2a7	908749816	1	main_slash	11	advance_on_keypress_SLASH	134	stimuli_target_squaretriangles.svg	stimuli_distractor_diamondtriangles.svg	7	yes	57	0	660
6.6.1	win	2022-12-23	01:26:24	01:38:56	750130	60fc9ce95a59b3400b38e2a7	908749816	1	main_slash	11	main_slash	135	stimuli_target_diamondcircles.svg	stimuli_distractor_trianglediamonds.svg	19	yes	0	0	2000
6.6.1	win	2022-12-23	01:26:24	01:38:56	750130	60fc9ce95a59b3400b38e2a7	908749816	1	main_slash	11	advance_on_keypress_SLASH	136	stimuli_target_diamondcircles.svg	stimuli_distractor_trianglediamonds.svg	19	yes	57	0	539
6.6.1	win	2022-12-23	01:26:24	01:38:59	753304	60fc9ce95a59b3400b38e2a7	908749816	1	main_slash	11	main_slash	137	stimuli_target_squarediamonds.svg	stimuli_distractor_diamondtriangles.svg	8	yes	0	0	2000
6.6.1	win	2022-12-23	01:26:24	01:38:59	753304	60fc9ce95a59b3400b38e2a7	908749816	1	main_slash	11	advance_on_keypress_SLASH	138	stimuli_target_squarediamonds.svg	stimuli_distractor_diamondtriangles.svg	8	yes	57	0	478
6.6.1	win	2022-12-23	01:26:24	01:39:02	756410	60fc9ce95a59b3400b38e2a7	908749816	1	main_slash	11	main_slash	139	stimuli_target_squarediamonds.svg	stimuli_distractor_trianglediamonds.svg	4	yes	0	0	2000
6.6.1	win	2022-12-23	01:26:24	01:39:02	756410	60fc9ce95a59b3400b38e2a7	908749816	1	main_slash	11	advance_on_keypress_SLASH	140	stimuli_target_squarediamonds.svg	stimuli_distractor_trianglediamonds.svg	4	yes	57	0	2002
6.6.1	win	2022-12-23	01:26:24	01:39:07	761054	60fc9ce95a59b3400b38e2a7	908749816	1	main_slash	11	main_slash	141	stimuli_distractor_trianglediamonds.svg	stimuli_distractor_trianglediamonds.svg	33	no	0	1	2000
6.6.1	win	2022-12-23	01:26:24	01:39:07	761054	60fc9ce95a59b3400b38e2a7	908749816	1	main_slash	11	advance_on_keypress_SLASH	142	stimuli_distractor_trianglediamonds.svg	stimuli_distractor_trianglediamonds.svg	33	no	57	0	461
6.6.1	win	2022-12-23	01:26:24	01:39:10	764143	60fc9ce95a59b3400b38e2a7	908749816	1	main_slash	11	main_slash	143	stimuli_target_circletriangles.svg	stimuli_distractor_diamondtriangles.svg	5	yes	0	0	2000
6.6.1	win	2022-12-23	01:26:24	01:39:10	764143	60fc9ce95a59b3400b38e2a7	908749816	1	main_slash	11	advance_on_keypress_SLASH	144	stimuli_target_circletriangles.svg	stimuli_distractor_diamondtriangles.svg	5	yes	57	0	426
6.6.1	win	2022-12-23	01:26:24	01:39:13	767200	60fc9ce95a59b3400b38e2a7	908749816	1	main_slash	11	main_slash	145	stimuli_target_circlediamonds.svg	stimuli_distractor_diamondtriangles.svg	6	yes	0	0	2000
6.6.1	win	2022-12-23	01:26:24	01:39:13	767200	60fc9ce95a59b3400b38e2a7	908749816	1	main_slash	11	advance_on_keypress_SLASH	146	stimuli_target_circlediamonds.svg	stimuli_distractor_diamondtriangles.svg	6	yes	57	0	521
6.6.1	win	2022-12-23	01:26:24	01:39:16	770372	60fc9ce95a59b3400b38e2a7	908749816	1	main_slash	11	main_slash	147	stimuli_distractor_diamondtriangles.svg	stimuli_target_trianglesquares.svg	30	yes	0	0	2000
6.6.1	win	2022-12-23	01:26:24	01:39:16	770372	60fc9ce95a59b3400b38e2a7	908749816	1	main_slash	11	advance_on_keypress_SLASH	148	stimuli_distractor_diamondtriangles.svg	stimuli_target_trianglesquares.svg	30	yes	57	0	468
6.6.1	win	2022-12-23	01:26:24	01:39:19	773479	60fc9ce95a59b3400b38e2a7	908749816	1	main_slash	11	main_slash	149	stimuli_distractor_trianglediamonds.svg	stimuli_distractor_diamondtriangles.svg	36	no	0	1	2000
6.6.1	win	2022-12-23	01:26:24	01:39:19	773479	60fc9ce95a59b3400b38e2a7	908749816	1	main_slash	11	advance_on_keypress_SLASH	150	stimuli_distractor_trianglediamonds.svg	stimuli_distractor_diamondtriangles.svg	36	no	57	0	495
6.6.1	win	2022-12-23	01:26:24	01:39:22	776619	60fc9ce95a59b3400b38e2a7	908749816	1	main_slash	11	main_slash	151	stimuli_distractor_diamondtriangles.svg	stimuli_target_diamondsquares.svg	32	yes	0	0	2000
6.6.1	win	2022-12-23	01:26:24	01:39:22	776619	60fc9ce95a59b3400b38e2a7	908749816	1	main_slash	11	advance_on_keypress_SLASH	152	stimuli_distractor_diamondtriangles.svg	stimuli_target_diamondsquares.svg	32	yes	57	0	1168
6.6.1	win	2022-12-23	01:26:24	01:39:26	780427	60fc9ce95a59b3400b38e2a7	908749816	1	main_slash	11	main_slash	153	stimuli_distractor_trianglediamonds.svg	stimuli_target_trianglesquares.svg	26	yes	0	0	2000
6.6.1	win	2022-12-23	01:26:24	01:39:26	780427	60fc9ce95a59b3400b38e2a7	908749816	1	main_slash	11	advance_on_keypress_SLASH	154	stimuli_distractor_trianglediamonds.svg	stimuli_target_trianglesquares.svg	26	yes	57	0	582
6.6.1	win	2022-12-23	01:26:24	01:39:30	783667	60fc9ce95a59b3400b38e2a7	908749816	1	main_slash	11	main_slash	155	stimuli_target_diamondsquares.svg	stimuli_distractor_diamondtriangles.svg	24	yes	0	0	2000
6.6.1	win	2022-12-23	01:26:24	01:39:30	783667	60fc9ce95a59b3400b38e2a7	908749816	1	main_slash	11	advance_on_keypress_SLASH	156	stimuli_target_diamondsquares.svg	stimuli_distractor_diamondtriangles.svg	24	yes	57	0	606
6.6.1	win	2022-12-23	01:26:24	01:39:33	786906	60fc9ce95a59b3400b38e2a7	908749816	1	main_slash	11	main_slash	157	stimuli_distractor_trianglediamonds.svg	stimuli_target_trianglecircles.svg	25	yes	0	0	2000
6.6.1	win	2022-12-23	01:26:24	01:39:33	786906	60fc9ce95a59b3400b38e2a7	908749816	1	main_slash	11	advance_on_keypress_SLASH	158	stimuli_distractor_trianglediamonds.svg	stimuli_target_trianglecircles.svg	25	yes	57	0	468
6.6.1	win	2022-12-23	01:26:24	01:39:36	790013	60fc9ce95a59b3400b38e2a7	908749816	1	main_slash	11	main_slash	159	stimuli_target_circletriangles.svg	stimuli_distractor_trianglediamonds.svg	1	yes	0	0	2000
6.6.1	win	2022-12-23	01:26:24	01:39:36	790013	60fc9ce95a59b3400b38e2a7	908749816	1	main_slash	11	advance_on_keypress_SLASH	160	stimuli_target_circletriangles.svg	stimuli_distractor_trianglediamonds.svg	1	yes	57	0	442