build	computer.platform	date	time	timestamp	time_elapsed_ms	subject	group	session	blockcode	blocknum	trialcode	trialnum	stimulus_left	stimulus_right	stim_index	target_present	response	correct	latency
6.6.1	win	2022-12-14	11:16:57	11:19:11	132120	62b17a23f40c54a776801476	453846906	1	practice_z	5	practice_z	1	stimuli_distractor_trianglediamonds.svg	stimuli_target_squarediamonds.svg	11	yes	44	1	1072
6.6.1	win	2022-12-14	11:16:57	11:19:11	132120	62b17a23f40c54a776801476	453846906	1	practice_z	5	advance_on_keypress_ZEE	2	stimuli_distractor_trianglediamonds.svg	stimuli_target_squarediamonds.svg	11	yes	57	0	973
6.6.1	win	2022-12-14	11:16:57	11:19:14	135484	62b17a23f40c54a776801476	453846906	1	practice_z	5	practice_z	3	stimuli_distractor_diamondtriangles.svg	stimuli_target_circletriangles.svg	7	yes	44	1	736
6.6.1	win	2022-12-14	11:16:57	11:19:14	135484	62b17a23f40c54a776801476	453846906	1	practice_z	5	advance_on_keypress_ZEE	4	stimuli_distractor_diamondtriangles.svg	stimuli_target_circletriangles.svg	7	yes	57	0	693
6.6.1	win	2022-12-14	11:16:57	11:19:19	139831	62b17a23f40c54a776801476	453846906	1	practice_z	5	practice_z	5	stimuli_distractor_diamondtriangles.svg	stimuli_distractor_trianglediamonds.svg	14	no	0	1	2000
6.6.1	win	2022-12-14	11:16:57	11:19:19	139831	62b17a23f40c54a776801476	453846906	1	practice_z	5	advance_on_keypress_ZEE	6	stimuli_distractor_diamondtriangles.svg	stimuli_distractor_trianglediamonds.svg	14	no	57	0	518
6.6.1	win	2022-12-14	11:16:57	11:19:22	143279	62b17a23f40c54a776801476	453846906	1	practice_z	5	practice_z	7	stimuli_distractor_diamondtriangles.svg	stimuli_target_trianglecircles.svg	9	yes	44	1	1281
6.6.1	win	2022-12-14	11:16:57	11:19:22	143279	62b17a23f40c54a776801476	453846906	1	practice_z	5	advance_on_keypress_ZEE	8	stimuli_distractor_diamondtriangles.svg	stimuli_target_trianglecircles.svg	9	yes	57	0	653
6.6.1	win	2022-12-14	11:16:57	11:19:26	146802	62b17a23f40c54a776801476	453846906	1	practice_z	5	practice_z	9	stimuli_target_diamondsquares.svg	stimuli_distractor_diamondtriangles.svg	3	yes	44	1	1221
6.6.1	win	2022-12-14	11:16:57	11:19:26	146802	62b17a23f40c54a776801476	453846906	1	practice_z	5	advance_on_keypress_ZEE	10	stimuli_target_diamondsquares.svg	stimuli_distractor_diamondtriangles.svg	3	yes	57	0	631
6.6.1	win	2022-12-14	11:16:57	11:19:29	149782	62b17a23f40c54a776801476	453846906	1	practice_z	5	practice_z	11	stimuli_target_circlediamonds.svg	stimuli_distractor_diamondtriangles.svg	1	yes	44	1	701
6.6.1	win	2022-12-14	11:16:57	11:19:29	149782	62b17a23f40c54a776801476	453846906	1	practice_z	5	advance_on_keypress_ZEE	12	stimuli_target_circlediamonds.svg	stimuli_distractor_diamondtriangles.svg	1	yes	57	0	728
6.6.1	win	2022-12-14	11:16:57	11:19:32	152930	62b17a23f40c54a776801476	453846906	1	practice_z	5	practice_z	13	stimuli_target_squarediamonds.svg	stimuli_distractor_diamondtriangles.svg	2	yes	44	1	766
6.6.1	win	2022-12-14	11:16:57	11:19:32	152930	62b17a23f40c54a776801476	453846906	1	practice_z	5	advance_on_keypress_ZEE	14	stimuli_target_squarediamonds.svg	stimuli_distractor_diamondtriangles.svg	2	yes	57	0	425
6.6.1	win	2022-12-14	11:16:57	11:19:34	155599	62b17a23f40c54a776801476	453846906	1	practice_z	5	practice_z	15	stimuli_target_squarediamonds.svg	stimuli_distractor_trianglediamonds.svg	5	yes	44	1	600
6.6.1	win	2022-12-14	11:16:57	11:19:34	155599	62b17a23f40c54a776801476	453846906	1	practice_z	5	advance_on_keypress_ZEE	16	stimuli_target_squarediamonds.svg	stimuli_distractor_trianglediamonds.svg	5	yes	57	0	403
6.6.1	win	2022-12-14	11:16:57	11:19:37	158534	62b17a23f40c54a776801476	453846906	1	practice_z	5	practice_z	17	stimuli_distractor_trianglediamonds.svg	stimuli_target_diamondcircles.svg	12	yes	44	1	886
6.6.1	win	2022-12-14	11:16:57	11:19:37	158534	62b17a23f40c54a776801476	453846906	1	practice_z	5	advance_on_keypress_ZEE	18	stimuli_distractor_trianglediamonds.svg	stimuli_target_diamondcircles.svg	12	yes	57	0	489
6.6.1	win	2022-12-14	11:16:57	11:19:41	162664	62b17a23f40c54a776801476	453846906	1	practice_z	5	practice_z	19	stimuli_distractor_diamondtriangles.svg	stimuli_distractor_diamondtriangles.svg	13	no	0	1	2000
6.6.1	win	2022-12-14	11:16:57	11:19:41	162664	62b17a23f40c54a776801476	453846906	1	practice_z	5	advance_on_keypress_ZEE	20	stimuli_distractor_diamondtriangles.svg	stimuli_distractor_diamondtriangles.svg	13	no	57	0	298
6.6.1	win	2022-12-14	11:16:57	11:19:45	165905	62b17a23f40c54a776801476	453846906	1	practice_z	5	practice_z	21	stimuli_target_diamondsquares.svg	stimuli_distractor_trianglediamonds.svg	6	yes	44	1	1292
6.6.1	win	2022-12-14	11:16:57	11:19:45	165905	62b17a23f40c54a776801476	453846906	1	practice_z	5	advance_on_keypress_ZEE	22	stimuli_target_diamondsquares.svg	stimuli_distractor_trianglediamonds.svg	6	yes	57	0	323
6.6.1	win	2022-12-14	11:16:57	11:19:48	169150	62b17a23f40c54a776801476	453846906	1	practice_z	5	practice_z	23	stimuli_distractor_trianglediamonds.svg	stimuli_target_circlediamonds.svg	10	yes	44	1	1286
6.6.1	win	2022-12-14	11:16:57	11:19:48	169150	62b17a23f40c54a776801476	453846906	1	practice_z	5	advance_on_keypress_ZEE	24	stimuli_distractor_trianglediamonds.svg	stimuli_target_circlediamonds.svg	10	yes	57	0	468
6.6.1	win	2022-12-14	11:16:57	11:19:52	173264	62b17a23f40c54a776801476	453846906	1	practice_z	5	practice_z	25	stimuli_distractor_trianglediamonds.svg	stimuli_distractor_diamondtriangles.svg	16	no	0	1	2000
6.6.1	win	2022-12-14	11:16:57	11:19:52	173264	62b17a23f40c54a776801476	453846906	1	practice_z	5	advance_on_keypress_ZEE	26	stimuli_distractor_trianglediamonds.svg	stimuli_distractor_diamondtriangles.svg	16	no	57	0	601
6.6.1	win	2022-12-14	11:16:57	11:19:55	176719	62b17a23f40c54a776801476	453846906	1	practice_z	5	practice_z	27	stimuli_distractor_trianglediamonds.svg	stimuli_distractor_trianglediamonds.svg	15	no	44	0	1205
6.6.1	win	2022-12-14	11:16:57	11:19:55	176719	62b17a23f40c54a776801476	453846906	1	practice_z	5	advance_on_keypress_ZEE	28	stimuli_distractor_trianglediamonds.svg	stimuli_distractor_trianglediamonds.svg	15	no	57	0	459
6.6.1	win	2022-12-14	11:16:57	11:19:58	179678	62b17a23f40c54a776801476	453846906	1	practice_z	5	practice_z	29	stimuli_target_circlediamonds.svg	stimuli_distractor_trianglediamonds.svg	4	yes	44	1	847
6.6.1	win	2022-12-14	11:16:57	11:19:58	179678	62b17a23f40c54a776801476	453846906	1	practice_z	5	advance_on_keypress_ZEE	30	stimuli_target_circlediamonds.svg	stimuli_distractor_trianglediamonds.svg	4	yes	57	0	327
6.6.1	win	2022-12-14	11:16:57	11:20:01	182451	62b17a23f40c54a776801476	453846906	1	practice_z	5	practice_z	31	stimuli_distractor_diamondtriangles.svg	stimuli_target_diamondcircles.svg	8	yes	44	1	787
6.6.1	win	2022-12-14	11:16:57	11:20:01	182451	62b17a23f40c54a776801476	453846906	1	practice_z	5	advance_on_keypress_ZEE	32	stimuli_distractor_diamondtriangles.svg	stimuli_target_diamondcircles.svg	8	yes	57	0	539
6.6.1	win	2022-12-14	11:16:57	11:20:06	187712	62b17a23f40c54a776801476	453846906	1	main_z	7	main_z	1	stimuli_target_diamondsquares.svg	stimuli_distractor_diamondtriangles.svg	24	yes	44	1	667
6.6.1	win	2022-12-14	11:16:57	11:20:06	187712	62b17a23f40c54a776801476	453846906	1	main_z	7	advance_on_keypress_ZEE	2	stimuli_target_diamondsquares.svg	stimuli_distractor_diamondtriangles.svg	24	yes	57	0	1194
6.6.1	win	2022-12-14	11:16:57	11:20:09	190220	62b17a23f40c54a776801476	453846906	1	main_z	7	main_z	3	stimuli_target_circletriangles.svg	stimuli_distractor_trianglediamonds.svg	1	yes	44	1	675
6.6.1	win	2022-12-14	11:16:57	11:20:09	190220	62b17a23f40c54a776801476	453846906	1	main_z	7	advance_on_keypress_ZEE	4	stimuli_target_circletriangles.svg	stimuli_distractor_trianglediamonds.svg	1	yes	57	0	797
6.6.1	win	2022-12-14	11:16:57	11:20:11	192284	62b17a23f40c54a776801476	453846906	1	main_z	7	main_z	5	stimuli_target_trianglesquares.svg	stimuli_distractor_diamondtriangles.svg	22	yes	44	1	621
6.6.1	win	2022-12-14	11:16:57	11:20:11	192284	62b17a23f40c54a776801476	453846906	1	main_z	7	advance_on_keypress_ZEE	6	stimuli_target_trianglesquares.svg	stimuli_distractor_diamondtriangles.svg	22	yes	57	0	523
6.6.1	win	2022-12-14	11:16:57	11:20:13	194326	62b17a23f40c54a776801476	453846906	1	main_z	7	main_z	7	stimuli_distractor_diamondtriangles.svg	stimuli_target_trianglesquares.svg	30	yes	44	1	880
6.6.1	win	2022-12-14	11:16:57	11:20:13	194326	62b17a23f40c54a776801476	453846906	1	main_z	7	advance_on_keypress_ZEE	8	stimuli_distractor_diamondtriangles.svg	stimuli_target_trianglesquares.svg	30	yes	57	0	450
6.6.1	win	2022-12-14	11:16:57	11:20:15	196281	62b17a23f40c54a776801476	453846906	1	main_z	7	main_z	9	stimuli_target_trianglesquares.svg	stimuli_distractor_trianglediamonds.svg	18	yes	44	1	868
6.6.1	win	2022-12-14	11:16:57	11:20:15	196281	62b17a23f40c54a776801476	453846906	1	main_z	7	advance_on_keypress_ZEE	10	stimuli_target_trianglesquares.svg	stimuli_distractor_trianglediamonds.svg	18	yes	57	0	392
6.6.1	win	2022-12-14	11:16:57	11:20:18	199313	62b17a23f40c54a776801476	453846906	1	main_z	7	main_z	11	stimuli_distractor_diamondtriangles.svg	stimuli_distractor_diamondtriangles.svg	39	no	0	1	2000
6.6.1	win	2022-12-14	11:16:57	11:20:18	199313	62b17a23f40c54a776801476	453846906	1	main_z	7	advance_on_keypress_ZEE	12	stimuli_distractor_diamondtriangles.svg	stimuli_distractor_diamondtriangles.svg	39	no	57	0	438
6.6.1	win	2022-12-14	11:16:57	11:20:21	202396	62b17a23f40c54a776801476	453846906	1	main_z	7	main_z	13	stimuli_distractor_diamondtriangles.svg	stimuli_distractor_trianglediamonds.svg	37	no	0	1	2000
6.6.1	win	2022-12-14	11:16:57	11:20:21	202396	62b17a23f40c54a776801476	453846906	1	main_z	7	advance_on_keypress_ZEE	14	stimuli_distractor_diamondtriangles.svg	stimuli_distractor_trianglediamonds.svg	37	no	57	0	493
6.6.1	win	2022-12-14	11:16:57	11:20:24	205529	62b17a23f40c54a776801476	453846906	1	main_z	7	main_z	15	stimuli_distractor_trianglediamonds.svg	stimuli_distractor_trianglediamonds.svg	33	no	0	1	2000
6.6.1	win	2022-12-14	11:16:57	11:20:24	205529	62b17a23f40c54a776801476	453846906	1	main_z	7	advance_on_keypress_ZEE	16	stimuli_distractor_trianglediamonds.svg	stimuli_distractor_trianglediamonds.svg	33	no	57	0	548
6.6.1	win	2022-12-14	11:16:57	11:20:27	208729	62b17a23f40c54a776801476	453846906	1	main_z	7	main_z	17	stimuli_distractor_trianglediamonds.svg	stimuli_distractor_diamondtriangles.svg	35	no	0	1	2000
6.6.1	win	2022-12-14	11:16:57	11:20:27	208729	62b17a23f40c54a776801476	453846906	1	main_z	7	advance_on_keypress_ZEE	18	stimuli_distractor_trianglediamonds.svg	stimuli_distractor_diamondtriangles.svg	35	no	57	0	613
6.6.1	win	2022-12-14	11:16:57	11:20:30	211036	62b17a23f40c54a776801476	453846906	1	main_z	7	main_z	19	stimuli_distractor_diamondtriangles.svg	stimuli_target_squarediamonds.svg	16	yes	44	1	1057
6.6.1	win	2022-12-14	11:16:57	11:20:30	211036	62b17a23f40c54a776801476	453846906	1	main_z	7	advance_on_keypress_ZEE	20	stimuli_distractor_diamondtriangles.svg	stimuli_target_squarediamonds.svg	16	yes	57	0	811
6.6.1	win	2022-12-14	11:16:57	11:20:32	213189	62b17a23f40c54a776801476	453846906	1	main_z	7	main_z	21	stimuli_target_squaretriangles.svg	stimuli_distractor_trianglediamonds.svg	3	yes	44	1	710
6.6.1	win	2022-12-14	11:16:57	11:20:32	213189	62b17a23f40c54a776801476	453846906	1	main_z	7	advance_on_keypress_ZEE	22	stimuli_target_squaretriangles.svg	stimuli_distractor_trianglediamonds.svg	3	yes	57	0	744
6.6.1	win	2022-12-14	11:16:57	11:20:34	215206	62b17a23f40c54a776801476	453846906	1	main_z	7	main_z	23	stimuli_target_circlediamonds.svg	stimuli_distractor_trianglediamonds.svg	2	yes	44	1	643
6.6.1	win	2022-12-14	11:16:57	11:20:34	215206	62b17a23f40c54a776801476	453846906	1	main_z	7	advance_on_keypress_ZEE	24	stimuli_target_circlediamonds.svg	stimuli_distractor_trianglediamonds.svg	2	yes	57	0	584
6.6.1	win	2022-12-14	11:16:57	11:20:36	217438	62b17a23f40c54a776801476	453846906	1	main_z	7	main_z	25	stimuli_distractor_trianglediamonds.svg	stimuli_target_diamondsquares.svg	28	yes	44	1	1009
6.6.1	win	2022-12-14	11:16:57	11:20:36	217438	62b17a23f40c54a776801476	453846906	1	main_z	7	advance_on_keypress_ZEE	26	stimuli_distractor_trianglediamonds.svg	stimuli_target_diamondsquares.svg	28	yes	57	0	463
6.6.1	win	2022-12-14	11:16:57	11:20:38	219641	62b17a23f40c54a776801476	453846906	1	main_z	7	main_z	27	stimuli_target_circletriangles.svg	stimuli_distractor_diamondtriangles.svg	5	yes	44	1	1095
6.6.1	win	2022-12-14	11:16:57	11:20:38	219641	62b17a23f40c54a776801476	453846906	1	main_z	7	advance_on_keypress_ZEE	28	stimuli_target_circletriangles.svg	stimuli_distractor_diamondtriangles.svg	5	yes	57	0	454
6.6.1	win	2022-12-14	11:16:57	11:20:40	221479	62b17a23f40c54a776801476	453846906	1	main_z	7	main_z	29	stimuli_distractor_trianglediamonds.svg	stimuli_target_circletriangles.svg	9	yes	44	1	733
6.6.1	win	2022-12-14	11:16:57	11:20:40	221479	62b17a23f40c54a776801476	453846906	1	main_z	7	advance_on_keypress_ZEE	30	stimuli_distractor_trianglediamonds.svg	stimuli_target_circletriangles.svg	9	yes	57	0	398
6.6.1	win	2022-12-14	11:16:57	11:20:42	223313	62b17a23f40c54a776801476	453846906	1	main_z	7	main_z	31	stimuli_distractor_trianglediamonds.svg	stimuli_target_diamondcircles.svg	27	yes	44	1	785
6.6.1	win	2022-12-14	11:16:57	11:20:42	223313	62b17a23f40c54a776801476	453846906	1	main_z	7	advance_on_keypress_ZEE	32	stimuli_distractor_trianglediamonds.svg	stimuli_target_diamondcircles.svg	27	yes	57	0	373
6.6.1	win	2022-12-14	11:16:57	11:20:44	225215	62b17a23f40c54a776801476	453846906	1	main_z	7	main_z	33	stimuli_target_diamondsquares.svg	stimuli_distractor_trianglediamonds.svg	20	yes	44	1	887
6.6.1	win	2022-12-14	11:16:57	11:20:44	225215	62b17a23f40c54a776801476	453846906	1	main_z	7	advance_on_keypress_ZEE	34	stimuli_target_diamondsquares.svg	stimuli_distractor_trianglediamonds.svg	20	yes	57	0	325
6.6.1	win	2022-12-14	11:16:57	11:20:46	226910	62b17a23f40c54a776801476	453846906	1	main_z	7	main_z	35	stimuli_distractor_diamondtriangles.svg	stimuli_target_diamondcircles.svg	31	yes	44	1	731
6.6.1	win	2022-12-14	11:16:57	11:20:46	226910	62b17a23f40c54a776801476	453846906	1	main_z	7	advance_on_keypress_ZEE	36	stimuli_distractor_diamondtriangles.svg	stimuli_target_diamondcircles.svg	31	yes	57	0	372
6.6.1	win	2022-12-14	11:16:57	11:20:47	228588	62b17a23f40c54a776801476	453846906	1	main_z	7	main_z	37	stimuli_distractor_trianglediamonds.svg	stimuli_target_trianglecircles.svg	25	yes	44	1	659
6.6.1	win	2022-12-14	11:16:57	11:20:47	228588	62b17a23f40c54a776801476	453846906	1	main_z	7	advance_on_keypress_ZEE	38	stimuli_distractor_trianglediamonds.svg	stimuli_target_trianglecircles.svg	25	yes	57	0	342
6.6.1	win	2022-12-14	11:16:57	11:20:49	230250	62b17a23f40c54a776801476	453846906	1	main_z	7	main_z	39	stimuli_distractor_diamondtriangles.svg	stimuli_target_circlediamonds.svg	14	yes	44	1	687
6.6.1	win	2022-12-14	11:16:57	11:20:49	230250	62b17a23f40c54a776801476	453846906	1	main_z	7	advance_on_keypress_ZEE	40	stimuli_distractor_diamondtriangles.svg	stimuli_target_circlediamonds.svg	14	yes	57	0	302
6.6.1	win	2022-12-14	11:16:57	11:20:52	233196	62b17a23f40c54a776801476	453846906	1	main_z	7	main_z	41	stimuli_distractor_diamondtriangles.svg	stimuli_distractor_diamondtriangles.svg	40	no	0	1	2000
6.6.1	win	2022-12-14	11:16:57	11:20:52	233196	62b17a23f40c54a776801476	453846906	1	main_z	7	advance_on_keypress_ZEE	42	stimuli_distractor_diamondtriangles.svg	stimuli_distractor_diamondtriangles.svg	40	no	57	0	414
6.6.1	win	2022-12-14	11:16:57	11:20:54	234800	62b17a23f40c54a776801476	453846906	1	main_z	7	main_z	43	stimuli_distractor_trianglediamonds.svg	stimuli_target_trianglesquares.svg	26	yes	44	1	554
6.6.1	win	2022-12-14	11:16:57	11:20:54	234800	62b17a23f40c54a776801476	453846906	1	main_z	7	advance_on_keypress_ZEE	44	stimuli_distractor_trianglediamonds.svg	stimuli_target_trianglesquares.svg	26	yes	57	0	553
6.6.1	win	2022-12-14	11:16:57	11:20:55	236642	62b17a23f40c54a776801476	453846906	1	main_z	7	main_z	45	stimuli_target_diamondcircles.svg	stimuli_distractor_diamondtriangles.svg	23	yes	44	1	647
6.6.1	win	2022-12-14	11:16:57	11:20:55	236642	62b17a23f40c54a776801476	453846906	1	main_z	7	advance_on_keypress_ZEE	46	stimuli_target_diamondcircles.svg	stimuli_distractor_diamondtriangles.svg	23	yes	57	0	367
6.6.1	win	2022-12-14	11:16:57	11:20:58	239446	62b17a23f40c54a776801476	453846906	1	main_z	7	main_z	47	stimuli_distractor_trianglediamonds.svg	stimuli_target_squarediamonds.svg	12	yes	44	1	1800
6.6.1	win	2022-12-14	11:16:57	11:20:58	239446	62b17a23f40c54a776801476	453846906	1	main_z	7	advance_on_keypress_ZEE	48	stimuli_distractor_trianglediamonds.svg	stimuli_target_squarediamonds.svg	12	yes	57	0	504
6.6.1	win	2022-12-14	11:16:57	11:21:00	241178	62b17a23f40c54a776801476	453846906	1	main_z	7	main_z	49	stimuli_target_diamondcircles.svg	stimuli_distractor_trianglediamonds.svg	19	yes	44	1	582
6.6.1	win	2022-12-14	11:16:57	11:21:00	241178	62b17a23f40c54a776801476	453846906	1	main_z	7	advance_on_keypress_ZEE	50	stimuli_target_diamondcircles.svg	stimuli_distractor_trianglediamonds.svg	19	yes	57	0	332
6.6.1	win	2022-12-14	11:16:57	11:21:03	244163	62b17a23f40c54a776801476	453846906	1	main_z	7	main_z	51	stimuli_distractor_trianglediamonds.svg	stimuli_distractor_trianglediamonds.svg	34	no	0	1	2000
6.6.1	win	2022-12-14	11:16:57	11:21:03	244163	62b17a23f40c54a776801476	453846906	1	main_z	7	advance_on_keypress_ZEE	52	stimuli_distractor_trianglediamonds.svg	stimuli_distractor_trianglediamonds.svg	34	no	57	0	438
6.6.1	win	2022-12-14	11:16:57	11:21:05	245869	62b17a23f40c54a776801476	453846906	1	main_z	7	main_z	53	stimuli_distractor_trianglediamonds.svg	stimuli_target_circlediamonds.svg	10	yes	44	1	623
6.6.1	win	2022-12-14	11:16:57	11:21:05	245869	62b17a23f40c54a776801476	453846906	1	main_z	7	advance_on_keypress_ZEE	54	stimuli_distractor_trianglediamonds.svg	stimuli_target_circlediamonds.svg	10	yes	57	0	295
6.6.1	win	2022-12-14	11:16:57	11:21:06	247388	62b17a23f40c54a776801476	453846906	1	main_z	7	main_z	55	stimuli_distractor_diamondtriangles.svg	stimuli_target_squaretriangles.svg	15	yes	44	1	593
6.6.1	win	2022-12-14	11:16:57	11:21:06	247388	62b17a23f40c54a776801476	453846906	1	main_z	7	advance_on_keypress_ZEE	56	stimuli_distractor_diamondtriangles.svg	stimuli_target_squaretriangles.svg	15	yes	57	0	265
6.6.1	win	2022-12-14	11:16:57	11:21:08	248963	62b17a23f40c54a776801476	453846906	1	main_z	7	main_z	57	stimuli_distractor_diamondtriangles.svg	stimuli_target_diamondsquares.svg	32	yes	44	1	667
6.6.1	win	2022-12-14	11:16:57	11:21:08	248963	62b17a23f40c54a776801476	453846906	1	main_z	7	advance_on_keypress_ZEE	58	stimuli_distractor_diamondtriangles.svg	stimuli_target_diamondsquares.svg	32	yes	57	0	274
6.6.1	win	2022-12-14	11:16:57	11:21:09	250479	62b17a23f40c54a776801476	453846906	1	main_z	7	main_z	59	stimuli_distractor_diamondtriangles.svg	stimuli_target_trianglecircles.svg	29	yes	44	1	601
6.6.1	win	2022-12-14	11:16:57	11:21:09	250479	62b17a23f40c54a776801476	453846906	1	main_z	7	advance_on_keypress_ZEE	60	stimuli_distractor_diamondtriangles.svg	stimuli_target_trianglecircles.svg	29	yes	57	0	284
6.6.1	win	2022-12-14	11:16:57	11:21:11	252176	62b17a23f40c54a776801476	453846906	1	main_z	7	main_z	61	stimuli_distractor_diamondtriangles.svg	stimuli_target_circletriangles.svg	13	yes	44	1	765
6.6.1	win	2022-12-14	11:16:57	11:21:11	252176	62b17a23f40c54a776801476	453846906	1	main_z	7	advance_on_keypress_ZEE	62	stimuli_distractor_diamondtriangles.svg	stimuli_target_circletriangles.svg	13	yes	57	0	287
6.6.1	win	2022-12-14	11:16:57	11:21:14	255112	62b17a23f40c54a776801476	453846906	1	main_z	7	main_z	63	stimuli_distractor_diamondtriangles.svg	stimuli_distractor_trianglediamonds.svg	38	no	0	1	2000
6.6.1	win	2022-12-14	11:16:57	11:21:14	255112	62b17a23f40c54a776801476	453846906	1	main_z	7	advance_on_keypress_ZEE	64	stimuli_distractor_diamondtriangles.svg	stimuli_distractor_trianglediamonds.svg	38	no	57	0	422
6.6.1	win	2022-12-14	11:16:57	11:21:16	256782	62b17a23f40c54a776801476	453846906	1	main_z	7	main_z	65	stimuli_target_trianglecircles.svg	stimuli_distractor_trianglediamonds.svg	17	yes	44	1	603
6.6.1	win	2022-12-14	11:16:57	11:21:16	256782	62b17a23f40c54a776801476	453846906	1	main_z	7	advance_on_keypress_ZEE	66	stimuli_target_trianglecircles.svg	stimuli_distractor_trianglediamonds.svg	17	yes	57	0	252
6.6.1	win	2022-12-14	11:16:57	11:21:17	258256	62b17a23f40c54a776801476	453846906	1	main_z	7	main_z	67	stimuli_target_squaretriangles.svg	stimuli_distractor_diamondtriangles.svg	7	yes	44	1	577
6.6.1	win	2022-12-14	11:16:57	11:21:17	258256	62b17a23f40c54a776801476	453846906	1	main_z	7	advance_on_keypress_ZEE	68	stimuli_target_squaretriangles.svg	stimuli_distractor_diamondtriangles.svg	7	yes	57	0	263
6.6.1	win	2022-12-14	11:16:57	11:21:20	261145	62b17a23f40c54a776801476	453846906	1	main_z	7	main_z	69	stimuli_distractor_trianglediamonds.svg	stimuli_target_squaretriangles.svg	11	yes	0	0	2000
6.6.1	win	2022-12-14	11:16:57	11:21:20	261145	62b17a23f40c54a776801476	453846906	1	main_z	7	advance_on_keypress_ZEE	70	stimuli_distractor_trianglediamonds.svg	stimuli_target_squaretriangles.svg	11	yes	57	0	627
6.6.1	win	2022-12-14	11:16:57	11:21:22	263586	62b17a23f40c54a776801476	453846906	1	main_z	7	main_z	71	stimuli_distractor_trianglediamonds.svg	stimuli_distractor_diamondtriangles.svg	36	no	44	0	1174
6.6.1	win	2022-12-14	11:16:57	11:21:22	263586	62b17a23f40c54a776801476	453846906	1	main_z	7	advance_on_keypress_ZEE	72	stimuli_distractor_trianglediamonds.svg	stimuli_distractor_diamondtriangles.svg	36	no	57	0	191
6.6.1	win	2022-12-14	11:16:57	11:21:24	265143	62b17a23f40c54a776801476	453846906	1	main_z	7	main_z	73	stimuli_target_squarediamonds.svg	stimuli_distractor_trianglediamonds.svg	4	yes	44	1	731
6.6.1	win	2022-12-14	11:16:57	11:21:24	265143	62b17a23f40c54a776801476	453846906	1	main_z	7	advance_on_keypress_ZEE	74	stimuli_target_squarediamonds.svg	stimuli_distractor_trianglediamonds.svg	4	yes	57	0	249
6.6.1	win	2022-12-14	11:16:57	11:21:27	268045	62b17a23f40c54a776801476	453846906	1	main_z	7	main_z	75	stimuli_target_trianglecircles.svg	stimuli_distractor_diamondtriangles.svg	21	yes	0	0	2000
6.6.1	win	2022-12-14	11:16:57	11:21:27	268045	62b17a23f40c54a776801476	453846906	1	main_z	7	advance_on_keypress_ZEE	76	stimuli_target_trianglecircles.svg	stimuli_distractor_diamondtriangles.svg	21	yes	57	0	425
6.6.1	win	2022-12-14	11:16:57	11:21:28	269632	62b17a23f40c54a776801476	453846906	1	main_z	7	main_z	77	stimuli_target_circlediamonds.svg	stimuli_distractor_diamondtriangles.svg	6	yes	44	1	521
6.6.1	win	2022-12-14	11:16:57	11:21:28	269632	62b17a23f40c54a776801476	453846906	1	main_z	7	advance_on_keypress_ZEE	78	stimuli_target_circlediamonds.svg	stimuli_distractor_diamondtriangles.svg	6	yes	57	0	268
6.6.1	win	2022-12-14	11:16:57	11:21:30	271075	62b17a23f40c54a776801476	453846906	1	main_z	7	main_z	79	stimuli_target_squarediamonds.svg	stimuli_distractor_diamondtriangles.svg	8	yes	44	1	530
6.6.1	win	2022-12-14	11:16:57	11:21:30	271075	62b17a23f40c54a776801476	453846906	1	main_z	7	advance_on_keypress_ZEE	80	stimuli_target_squarediamonds.svg	stimuli_distractor_diamondtriangles.svg	8	yes	57	0	211
6.6.1	win	2022-12-14	11:16:57	11:21:31	272401	62b17a23f40c54a776801476	453846906	1	main_z	7	main_z	81	stimuli_target_circlediamonds.svg	stimuli_distractor_diamondtriangles.svg	6	yes	44	1	490
6.6.1	win	2022-12-14	11:16:57	11:21:31	272401	62b17a23f40c54a776801476	453846906	1	main_z	7	advance_on_keypress_ZEE	82	stimuli_target_circlediamonds.svg	stimuli_distractor_diamondtriangles.svg	6	yes	57	0	229
6.6.1	win	2022-12-14	11:16:57	11:21:33	273948	62b17a23f40c54a776801476	453846906	1	main_z	7	main_z	83	stimuli_distractor_trianglediamonds.svg	stimuli_target_circletriangles.svg	9	yes	44	1	687
6.6.1	win	2022-12-14	11:16:57	11:21:33	273948	62b17a23f40c54a776801476	453846906	1	main_z	7	advance_on_keypress_ZEE	84	stimuli_distractor_trianglediamonds.svg	stimuli_target_circletriangles.svg	9	yes	57	0	152
6.6.1	win	2022-12-14	11:16:57	11:21:34	275295	62b17a23f40c54a776801476	453846906	1	main_z	7	main_z	85	stimuli_distractor_diamondtriangles.svg	stimuli_target_trianglesquares.svg	30	yes	44	1	550
6.6.1	win	2022-12-14	11:16:57	11:21:34	275295	62b17a23f40c54a776801476	453846906	1	main_z	7	advance_on_keypress_ZEE	86	stimuli_distractor_diamondtriangles.svg	stimuli_target_trianglesquares.svg	30	yes	57	0	163
6.6.1	win	2022-12-14	11:16:57	11:21:37	278095	62b17a23f40c54a776801476	453846906	1	main_z	7	main_z	87	stimuli_distractor_trianglediamonds.svg	stimuli_distractor_trianglediamonds.svg	34	no	0	1	2000
6.6.1	win	2022-12-14	11:16:57	11:21:37	278095	62b17a23f40c54a776801476	453846906	1	main_z	7	advance_on_keypress_ZEE	88	stimuli_distractor_trianglediamonds.svg	stimuli_distractor_trianglediamonds.svg	34	no	57	0	588
6.6.1	win	2022-12-14	11:16:57	11:21:39	279985	62b17a23f40c54a776801476	453846906	1	main_z	7	main_z	89	stimuli_target_circlediamonds.svg	stimuli_distractor_trianglediamonds.svg	2	yes	44	1	656
6.6.1	win	2022-12-14	11:16:57	11:21:39	279985	62b17a23f40c54a776801476	453846906	1	main_z	7	advance_on_keypress_ZEE	90	stimuli_target_circlediamonds.svg	stimuli_distractor_trianglediamonds.svg	2	yes	57	0	190
6.6.1	win	2022-12-14	11:16:57	11:21:40	281447	62b17a23f40c54a776801476	453846906	1	main_z	7	main_z	91	stimuli_target_diamondcircles.svg	stimuli_distractor_diamondtriangles.svg	23	yes	44	1	636
6.6.1	win	2022-12-14	11:16:57	11:21:40	281447	62b17a23f40c54a776801476	453846906	1	main_z	7	advance_on_keypress_ZEE	92	stimuli_target_diamondcircles.svg	stimuli_distractor_diamondtriangles.svg	23	yes	57	0	226
6.6.1	win	2022-12-14	11:16:57	11:21:42	282994	62b17a23f40c54a776801476	453846906	1	main_z	7	main_z	93	stimuli_distractor_trianglediamonds.svg	stimuli_target_circlediamonds.svg	10	yes	44	1	683
6.6.1	win	2022-12-14	11:16:57	11:21:42	282994	62b17a23f40c54a776801476	453846906	1	main_z	7	advance_on_keypress_ZEE	94	stimuli_distractor_trianglediamonds.svg	stimuli_target_circlediamonds.svg	10	yes	57	0	152
6.6.1	win	2022-12-14	11:16:57	11:21:45	285795	62b17a23f40c54a776801476	453846906	1	main_z	7	main_z	95	stimuli_distractor_trianglediamonds.svg	stimuli_distractor_diamondtriangles.svg	35	no	0	1	2000
6.6.1	win	2022-12-14	11:16:57	11:21:45	285795	62b17a23f40c54a776801476	453846906	1	main_z	7	advance_on_keypress_ZEE	96	stimuli_distractor_trianglediamonds.svg	stimuli_distractor_diamondtriangles.svg	35	no	57	0	366
6.6.1	win	2022-12-14	11:16:57	11:21:48	288812	62b17a23f40c54a776801476	453846906	1	main_z	7	main_z	97	stimuli_distractor_diamondtriangles.svg	stimuli_distractor_diamondtriangles.svg	39	no	0	1	2000
6.6.1	win	2022-12-14	11:16:57	11:21:48	288812	62b17a23f40c54a776801476	453846906	1	main_z	7	advance_on_keypress_ZEE	98	stimuli_distractor_diamondtriangles.svg	stimuli_distractor_diamondtriangles.svg	39	no	57	0	429
6.6.1	win	2022-12-14	11:16:57	11:21:49	290524	62b17a23f40c54a776801476	453846906	1	main_z	7	main_z	99	stimuli_target_squarediamonds.svg	stimuli_distractor_trianglediamonds.svg	4	yes	44	1	646
6.6.1	win	2022-12-14	11:16:57	11:21:49	290524	62b17a23f40c54a776801476	453846906	1	main_z	7	advance_on_keypress_ZEE	100	stimuli_target_squarediamonds.svg	stimuli_distractor_trianglediamonds.svg	4	yes	57	0	315
6.6.1	win	2022-12-14	11:16:57	11:21:51	292200	62b17a23f40c54a776801476	453846906	1	main_z	7	main_z	101	stimuli_distractor_diamondtriangles.svg	stimuli_target_circletriangles.svg	13	yes	44	1	722
6.6.1	win	2022-12-14	11:16:57	11:21:51	292200	62b17a23f40c54a776801476	453846906	1	main_z	7	advance_on_keypress_ZEE	102	stimuli_distractor_diamondtriangles.svg	stimuli_target_circletriangles.svg	13	yes	57	0	288
6.6.1	win	2022-12-14	11:16:57	11:21:52	293662	62b17a23f40c54a776801476	453846906	1	main_z	7	main_z	103	stimuli_distractor_trianglediamonds.svg	stimuli_target_squarediamonds.svg	12	yes	44	1	534
6.6.1	win	2022-12-14	11:16:57	11:21:52	293662	62b17a23f40c54a776801476	453846906	1	main_z	7	advance_on_keypress_ZEE	104	stimuli_distractor_trianglediamonds.svg	stimuli_target_squarediamonds.svg	12	yes	57	0	294
6.6.1	win	2022-12-14	11:16:57	11:21:54	295269	62b17a23f40c54a776801476	453846906	1	main_z	7	main_z	105	stimuli_distractor_diamondtriangles.svg	stimuli_target_circlediamonds.svg	14	yes	44	1	674
6.6.1	win	2022-12-14	11:16:57	11:21:54	295269	62b17a23f40c54a776801476	453846906	1	main_z	7	advance_on_keypress_ZEE	106	stimuli_distractor_diamondtriangles.svg	stimuli_target_circlediamonds.svg	14	yes	57	0	191
6.6.1	win	2022-12-14	11:16:57	11:21:57	298095	62b17a23f40c54a776801476	453846906	1	main_z	7	main_z	107	stimuli_distractor_trianglediamonds.svg	stimuli_distractor_trianglediamonds.svg	33	no	0	1	2000
6.6.1	win	2022-12-14	11:16:57	11:21:57	298095	62b17a23f40c54a776801476	453846906	1	main_z	7	advance_on_keypress_ZEE	108	stimuli_distractor_trianglediamonds.svg	stimuli_distractor_trianglediamonds.svg	33	no	57	0	411
6.6.1	win	2022-12-14	11:16:57	11:21:58	299755	62b17a23f40c54a776801476	453846906	1	main_z	7	main_z	109	stimuli_target_trianglecircles.svg	stimuli_distractor_diamondtriangles.svg	21	yes	44	1	610
6.6.1	win	2022-12-14	11:16:57	11:21:58	299755	62b17a23f40c54a776801476	453846906	1	main_z	7	advance_on_keypress_ZEE	110	stimuli_target_trianglecircles.svg	stimuli_distractor_diamondtriangles.svg	21	yes	57	0	253
6.6.1	win	2022-12-14	11:16:57	11:22:00	301409	62b17a23f40c54a776801476	453846906	1	main_z	7	main_z	111	stimuli_target_squarediamonds.svg	stimuli_distractor_diamondtriangles.svg	8	yes	44	1	764
6.6.1	win	2022-12-14	11:16:57	11:22:00	301409	62b17a23f40c54a776801476	453846906	1	main_z	7	advance_on_keypress_ZEE	112	stimuli_target_squarediamonds.svg	stimuli_distractor_diamondtriangles.svg	8	yes	57	0	534
6.6.1	win	2022-12-14	11:16:57	11:22:02	303439	62b17a23f40c54a776801476	453846906	1	main_z	7	main_z	113	stimuli_target_trianglesquares.svg	stimuli_distractor_trianglediamonds.svg	18	yes	44	1	844
6.6.1	win	2022-12-14	11:16:57	11:22:02	303439	62b17a23f40c54a776801476	453846906	1	main_z	7	advance_on_keypress_ZEE	114	stimuli_target_trianglesquares.svg	stimuli_distractor_trianglediamonds.svg	18	yes	57	0	619
6.6.1	win	2022-12-14	11:16:57	11:22:04	305313	62b17a23f40c54a776801476	453846906	1	main_z	7	main_z	115	stimuli_distractor_trianglediamonds.svg	stimuli_target_squaretriangles.svg	11	yes	44	1	618
6.6.1	win	2022-12-14	11:16:57	11:22:04	305313	62b17a23f40c54a776801476	453846906	1	main_z	7	advance_on_keypress_ZEE	116	stimuli_distractor_trianglediamonds.svg	stimuli_target_squaretriangles.svg	11	yes	57	0	553
6.6.1	win	2022-12-14	11:16:57	11:22:06	307043	62b17a23f40c54a776801476	453846906	1	main_z	7	main_z	117	stimuli_distractor_trianglediamonds.svg	stimuli_target_trianglesquares.svg	26	yes	44	1	532
6.6.1	win	2022-12-14	11:16:57	11:22:06	307043	62b17a23f40c54a776801476	453846906	1	main_z	7	advance_on_keypress_ZEE	118	stimuli_distractor_trianglediamonds.svg	stimuli_target_trianglesquares.svg	26	yes	57	0	237
6.6.1	win	2022-12-14	11:16:57	11:22:09	309928	62b17a23f40c54a776801476	453846906	1	main_z	7	main_z	119	stimuli_distractor_diamondtriangles.svg	stimuli_distractor_trianglediamonds.svg	37	no	0	1	2000
6.6.1	win	2022-12-14	11:16:57	11:22:09	309928	62b17a23f40c54a776801476	453846906	1	main_z	7	advance_on_keypress_ZEE	120	stimuli_distractor_diamondtriangles.svg	stimuli_distractor_trianglediamonds.svg	37	no	57	0	437
6.6.1	win	2022-12-14	11:16:57	11:22:10	311533	62b17a23f40c54a776801476	453846906	1	main_z	7	main_z	121	stimuli_target_trianglecircles.svg	stimuli_distractor_trianglediamonds.svg	17	yes	44	1	522
6.6.1	win	2022-12-14	11:16:57	11:22:10	311533	62b17a23f40c54a776801476	453846906	1	main_z	7	advance_on_keypress_ZEE	122	stimuli_target_trianglecircles.svg	stimuli_distractor_trianglediamonds.svg	17	yes	57	0	241
6.6.1	win	2022-12-14	11:16:57	11:22:12	313046	62b17a23f40c54a776801476	453846906	1	main_z	7	main_z	123	stimuli_distractor_trianglediamonds.svg	stimuli_target_diamondcircles.svg	27	yes	44	1	635
6.6.1	win	2022-12-14	11:16:57	11:22:12	313046	62b17a23f40c54a776801476	453846906	1	main_z	7	advance_on_keypress_ZEE	124	stimuli_distractor_trianglediamonds.svg	stimuli_target_diamondcircles.svg	27	yes	57	0	285
6.6.1	win	2022-12-14	11:16:57	11:22:13	314508	62b17a23f40c54a776801476	453846906	1	main_z	7	main_z	125	stimuli_target_squaretriangles.svg	stimuli_distractor_diamondtriangles.svg	7	yes	44	1	530
6.6.1	win	2022-12-14	11:16:57	11:22:13	314508	62b17a23f40c54a776801476	453846906	1	main_z	7	advance_on_keypress_ZEE	126	stimuli_target_squaretriangles.svg	stimuli_distractor_diamondtriangles.svg	7	yes	57	0	246
6.6.1	win	2022-12-14	11:16:57	11:22:15	316434	62b17a23f40c54a776801476	453846906	1	main_z	7	main_z	127	stimuli_distractor_trianglediamonds.svg	stimuli_target_diamondsquares.svg	28	yes	44	1	1039
6.6.1	win	2022-12-14	11:16:57	11:22:15	316434	62b17a23f40c54a776801476	453846906	1	main_z	7	advance_on_keypress_ZEE	128	stimuli_distractor_trianglediamonds.svg	stimuli_target_diamondsquares.svg	28	yes	57	0	274
6.6.1	win	2022-12-14	11:16:57	11:22:17	317891	62b17a23f40c54a776801476	453846906	1	main_z	7	main_z	129	stimuli_distractor_trianglediamonds.svg	stimuli_target_trianglecircles.svg	25	yes	44	1	546
6.6.1	win	2022-12-14	11:16:57	11:22:17	317891	62b17a23f40c54a776801476	453846906	1	main_z	7	advance_on_keypress_ZEE	130	stimuli_distractor_trianglediamonds.svg	stimuli_target_trianglecircles.svg	25	yes	57	0	333
6.6.1	win	2022-12-14	11:16:57	11:22:18	319377	62b17a23f40c54a776801476	453846906	1	main_z	7	main_z	131	stimuli_target_diamondcircles.svg	stimuli_distractor_trianglediamonds.svg	19	yes	44	1	517
6.6.1	win	2022-12-14	11:16:57	11:22:18	319377	62b17a23f40c54a776801476	453846906	1	main_z	7	advance_on_keypress_ZEE	132	stimuli_target_diamondcircles.svg	stimuli_distractor_trianglediamonds.svg	19	yes	57	0	238
6.6.1	win	2022-12-14	11:16:57	11:22:20	320995	62b17a23f40c54a776801476	453846906	1	main_z	7	main_z	133	stimuli_target_circletriangles.svg	stimuli_distractor_trianglediamonds.svg	1	yes	44	1	734
6.6.1	win	2022-12-14	11:16:57	11:22:20	320995	62b17a23f40c54a776801476	453846906	1	main_z	7	advance_on_keypress_ZEE	134	stimuli_target_circletriangles.svg	stimuli_distractor_trianglediamonds.svg	1	yes	57	0	249
6.6.1	win	2022-12-14	11:16:57	11:22:23	323894	62b17a23f40c54a776801476	453846906	1	main_z	7	main_z	135	stimuli_distractor_diamondtriangles.svg	stimuli_distractor_diamondtriangles.svg	40	no	0	1	2000
6.6.1	win	2022-12-14	11:16:57	11:22:23	323894	62b17a23f40c54a776801476	453846906	1	main_z	7	advance_on_keypress_ZEE	136	stimuli_distractor_diamondtriangles.svg	stimuli_distractor_diamondtriangles.svg	40	no	57	0	488
6.6.1	win	2022-12-14	11:16:57	11:22:24	325533	62b17a23f40c54a776801476	453846906	1	main_z	7	main_z	137	stimuli_target_trianglesquares.svg	stimuli_distractor_diamondtriangles.svg	22	yes	44	1	505
6.6.1	win	2022-12-14	11:16:57	11:22:24	325533	62b17a23f40c54a776801476	453846906	1	main_z	7	advance_on_keypress_ZEE	138	stimuli_target_trianglesquares.svg	stimuli_distractor_diamondtriangles.svg	22	yes	57	0	205
6.6.1	win	2022-12-14	11:16:57	11:22:26	327062	62b17a23f40c54a776801476	453846906	1	main_z	7	main_z	139	stimuli_target_diamondsquares.svg	stimuli_distractor_diamondtriangles.svg	24	yes	44	1	684
6.6.1	win	2022-12-14	11:16:57	11:22:26	327062	62b17a23f40c54a776801476	453846906	1	main_z	7	advance_on_keypress_ZEE	140	stimuli_target_diamondsquares.svg	stimuli_distractor_diamondtriangles.svg	24	yes	57	0	374
6.6.1	win	2022-12-14	11:16:57	11:22:27	328554	62b17a23f40c54a776801476	453846906	1	main_z	7	main_z	141	stimuli_target_diamondsquares.svg	stimuli_distractor_trianglediamonds.svg	20	yes	44	1	476
6.6.1	win	2022-12-14	11:16:57	11:22:27	328554	62b17a23f40c54a776801476	453846906	1	main_z	7	advance_on_keypress_ZEE	142	stimuli_target_diamondsquares.svg	stimuli_distractor_trianglediamonds.svg	20	yes	57	0	223
6.6.1	win	2022-12-14	11:16:57	11:22:29	329951	62b17a23f40c54a776801476	453846906	1	main_z	7	main_z	143	stimuli_distractor_diamondtriangles.svg	stimuli_target_diamondcircles.svg	31	yes	44	1	540
6.6.1	win	2022-12-14	11:16:57	11:22:29	329951	62b17a23f40c54a776801476	453846906	1	main_z	7	advance_on_keypress_ZEE	144	stimuli_distractor_diamondtriangles.svg	stimuli_target_diamondcircles.svg	31	yes	57	0	260
6.6.1	win	2022-12-14	11:16:57	11:22:30	331447	62b17a23f40c54a776801476	453846906	1	main_z	7	main_z	145	stimuli_distractor_diamondtriangles.svg	stimuli_target_squaretriangles.svg	15	yes	44	1	602
6.6.1	win	2022-12-14	11:16:57	11:22:30	331447	62b17a23f40c54a776801476	453846906	1	main_z	7	advance_on_keypress_ZEE	146	stimuli_distractor_diamondtriangles.svg	stimuli_target_squaretriangles.svg	15	yes	57	0	222
6.6.1	win	2022-12-14	11:16:57	11:22:33	334311	62b17a23f40c54a776801476	453846906	1	main_z	7	main_z	147	stimuli_distractor_trianglediamonds.svg	stimuli_distractor_diamondtriangles.svg	36	no	0	1	2000
6.6.1	win	2022-12-14	11:16:57	11:22:33	334311	62b17a23f40c54a776801476	453846906	1	main_z	7	advance_on_keypress_ZEE	148	stimuli_distractor_trianglediamonds.svg	stimuli_distractor_diamondtriangles.svg	36	no	57	0	404
6.6.1	win	2022-12-14	11:16:57	11:22:35	335872	62b17a23f40c54a776801476	453846906	1	main_z	7	main_z	149	stimuli_target_squaretriangles.svg	stimuli_distractor_trianglediamonds.svg	3	yes	44	1	511
6.6.1	win	2022-12-14	11:16:57	11:22:35	335872	62b17a23f40c54a776801476	453846906	1	main_z	7	advance_on_keypress_ZEE	150	stimuli_target_squaretriangles.svg	stimuli_distractor_trianglediamonds.svg	3	yes	57	0	255
6.6.1	win	2022-12-14	11:16:57	11:22:36	337305	62b17a23f40c54a776801476	453846906	1	main_z	7	main_z	151	stimuli_target_circletriangles.svg	stimuli_distractor_diamondtriangles.svg	5	yes	44	1	544
6.6.1	win	2022-12-14	11:16:57	11:22:36	337305	62b17a23f40c54a776801476	453846906	1	main_z	7	advance_on_keypress_ZEE	152	stimuli_target_circletriangles.svg	stimuli_distractor_diamondtriangles.svg	5	yes	57	0	223
6.6.1	win	2022-12-14	11:16:57	11:22:39	340161	62b17a23f40c54a776801476	453846906	1	main_z	7	main_z	153	stimuli_distractor_diamondtriangles.svg	stimuli_distractor_trianglediamonds.svg	38	no	0	1	2000
6.6.1	win	2022-12-14	11:16:57	11:22:39	340161	62b17a23f40c54a776801476	453846906	1	main_z	7	advance_on_keypress_ZEE	154	stimuli_distractor_diamondtriangles.svg	stimuli_distractor_trianglediamonds.svg	38	no	57	0	363
6.6.1	win	2022-12-14	11:16:57	11:22:41	341830	62b17a23f40c54a776801476	453846906	1	main_z	7	main_z	155	stimuli_distractor_diamondtriangles.svg	stimuli_target_squarediamonds.svg	16	yes	44	1	669
6.6.1	win	2022-12-14	11:16:57	11:22:41	341830	62b17a23f40c54a776801476	453846906	1	main_z	7	advance_on_keypress_ZEE	156	stimuli_distractor_diamondtriangles.svg	stimuli_target_squarediamonds.svg	16	yes	57	0	181
6.6.1	win	2022-12-14	11:16:57	11:22:43	344044	62b17a23f40c54a776801476	453846906	1	main_z	7	main_z	157	stimuli_distractor_diamondtriangles.svg	stimuli_target_diamondsquares.svg	32	yes	44	1	1383
6.6.1	win	2022-12-14	11:16:57	11:22:43	344044	62b17a23f40c54a776801476	453846906	1	main_z	7	advance_on_keypress_ZEE	158	stimuli_distractor_diamondtriangles.svg	stimuli_target_diamondsquares.svg	32	yes	57	0	351
6.6.1	win	2022-12-14	11:16:57	11:22:44	345500	62b17a23f40c54a776801476	453846906	1	main_z	7	main_z	159	stimuli_distractor_diamondtriangles.svg	stimuli_target_trianglecircles.svg	29	yes	44	1	455
6.6.1	win	2022-12-14	11:16:57	11:22:44	345500	62b17a23f40c54a776801476	453846906	1	main_z	7	advance_on_keypress_ZEE	160	stimuli_distractor_diamondtriangles.svg	stimuli_target_trianglecircles.svg	29	yes	57	0	245
6.6.1	win	2022-12-14	11:16:57	11:22:59	360479	62b17a23f40c54a776801476	453846906	1	practice_slash	9	practice_slash	1	stimuli_target_squarediamonds.svg	stimuli_distractor_trianglediamonds.svg	5	yes	53	1	1100
6.6.1	win	2022-12-14	11:16:57	11:22:59	360479	62b17a23f40c54a776801476	453846906	1	practice_slash	9	advance_on_keypress_SLASH	2	stimuli_target_squarediamonds.svg	stimuli_distractor_trianglediamonds.svg	5	yes	57	0	510
6.6.1	win	2022-12-14	11:16:57	11:23:02	363226	62b17a23f40c54a776801476	453846906	1	practice_slash	9	practice_slash	3	stimuli_target_squarediamonds.svg	stimuli_distractor_diamondtriangles.svg	2	yes	53	1	596
6.6.1	win	2022-12-14	11:16:57	11:23:02	363226	62b17a23f40c54a776801476	453846906	1	practice_slash	9	advance_on_keypress_SLASH	4	stimuli_target_squarediamonds.svg	stimuli_distractor_diamondtriangles.svg	2	yes	57	0	422
6.6.1	win	2022-12-14	11:16:57	11:23:04	365728	62b17a23f40c54a776801476	453846906	1	practice_slash	9	practice_slash	5	stimuli_distractor_diamondtriangles.svg	stimuli_target_circletriangles.svg	7	yes	53	1	433
6.6.1	win	2022-12-14	11:16:57	11:23:04	365728	62b17a23f40c54a776801476	453846906	1	practice_slash	9	advance_on_keypress_SLASH	6	stimuli_distractor_diamondtriangles.svg	stimuli_target_circletriangles.svg	7	yes	57	0	370
6.6.1	win	2022-12-14	11:16:57	11:23:07	368201	62b17a23f40c54a776801476	453846906	1	practice_slash	9	practice_slash	7	stimuli_distractor_trianglediamonds.svg	stimuli_target_diamondcircles.svg	12	yes	53	1	456
6.6.1	win	2022-12-14	11:16:57	11:23:07	368201	62b17a23f40c54a776801476	453846906	1	practice_slash	9	advance_on_keypress_SLASH	8	stimuli_distractor_trianglediamonds.svg	stimuli_target_diamondcircles.svg	12	yes	57	0	1
6.6.1	win	2022-12-14	11:16:57	11:23:09	370349	62b17a23f40c54a776801476	453846906	1	practice_slash	9	practice_slash	9	stimuli_distractor_trianglediamonds.svg	stimuli_distractor_diamondtriangles.svg	16	no	53	0	504
6.6.1	win	2022-12-14	11:16:57	11:23:09	370349	62b17a23f40c54a776801476	453846906	1	practice_slash	9	advance_on_keypress_SLASH	10	stimuli_distractor_trianglediamonds.svg	stimuli_distractor_diamondtriangles.svg	16	no	57	0	358
6.6.1	win	2022-12-14	11:16:57	11:23:11	372757	62b17a23f40c54a776801476	453846906	1	practice_slash	9	practice_slash	11	stimuli_distractor_diamondtriangles.svg	stimuli_target_trianglecircles.svg	9	yes	53	1	413
6.6.1	win	2022-12-14	11:16:57	11:23:11	372757	62b17a23f40c54a776801476	453846906	1	practice_slash	9	advance_on_keypress_SLASH	12	stimuli_distractor_diamondtriangles.svg	stimuli_target_trianglecircles.svg	9	yes	57	0	267
6.6.1	win	2022-12-14	11:16:57	11:23:14	375717	62b17a23f40c54a776801476	453846906	1	practice_slash	9	practice_slash	13	stimuli_distractor_diamondtriangles.svg	stimuli_target_diamondcircles.svg	8	yes	53	1	1054
6.6.1	win	2022-12-14	11:16:57	11:23:14	375717	62b17a23f40c54a776801476	453846906	1	practice_slash	9	advance_on_keypress_SLASH	14	stimuli_distractor_diamondtriangles.svg	stimuli_target_diamondcircles.svg	8	yes	57	0	234
6.6.1	win	2022-12-14	11:16:57	11:23:17	378078	62b17a23f40c54a776801476	453846906	1	practice_slash	9	practice_slash	15	stimuli_distractor_trianglediamonds.svg	stimuli_target_circlediamonds.svg	10	yes	53	1	483
6.6.1	win	2022-12-14	11:16:57	11:23:17	378078	62b17a23f40c54a776801476	453846906	1	practice_slash	9	advance_on_keypress_SLASH	16	stimuli_distractor_trianglediamonds.svg	stimuli_target_circlediamonds.svg	10	yes	57	0	230
6.6.1	win	2022-12-14	11:16:57	11:23:21	381962	62b17a23f40c54a776801476	453846906	1	practice_slash	9	practice_slash	17	stimuli_target_circlediamonds.svg	stimuli_distractor_diamondtriangles.svg	1	yes	0	0	2000
6.6.1	win	2022-12-14	11:16:57	11:23:21	381962	62b17a23f40c54a776801476	453846906	1	practice_slash	9	advance_on_keypress_SLASH	18	stimuli_target_circlediamonds.svg	stimuli_distractor_diamondtriangles.svg	1	yes	57	0	237
6.6.1	win	2022-12-14	11:16:57	11:23:23	384366	62b17a23f40c54a776801476	453846906	1	practice_slash	9	practice_slash	19	stimuli_target_circlediamonds.svg	stimuli_distractor_trianglediamonds.svg	4	yes	53	1	521
6.6.1	win	2022-12-14	11:16:57	11:23:23	384366	62b17a23f40c54a776801476	453846906	1	practice_slash	9	advance_on_keypress_SLASH	20	stimuli_target_circlediamonds.svg	stimuli_distractor_trianglediamonds.svg	4	yes	57	0	204
6.6.1	win	2022-12-14	11:16:57	11:23:25	386725	62b17a23f40c54a776801476	453846906	1	practice_slash	9	practice_slash	21	stimuli_distractor_trianglediamonds.svg	stimuli_target_squarediamonds.svg	11	yes	53	1	513
6.6.1	win	2022-12-14	11:16:57	11:23:25	386725	62b17a23f40c54a776801476	453846906	1	practice_slash	9	advance_on_keypress_SLASH	22	stimuli_distractor_trianglediamonds.svg	stimuli_target_squarediamonds.svg	11	yes	57	0	330
6.6.1	win	2022-12-14	11:16:57	11:23:29	390713	62b17a23f40c54a776801476	453846906	1	practice_slash	9	practice_slash	23	stimuli_distractor_trianglediamonds.svg	stimuli_distractor_trianglediamonds.svg	15	no	0	1	2000
6.6.1	win	2022-12-14	11:16:57	11:23:29	390713	62b17a23f40c54a776801476	453846906	1	practice_slash	9	advance_on_keypress_SLASH	24	stimuli_distractor_trianglediamonds.svg	stimuli_distractor_trianglediamonds.svg	15	no	57	0	397
6.6.1	win	2022-12-14	11:16:57	11:23:33	394762	62b17a23f40c54a776801476	453846906	1	practice_slash	9	practice_slash	25	stimuli_distractor_diamondtriangles.svg	stimuli_distractor_diamondtriangles.svg	13	no	0	1	2000
6.6.1	win	2022-12-14	11:16:57	11:23:33	394762	62b17a23f40c54a776801476	453846906	1	practice_slash	9	advance_on_keypress_SLASH	26	stimuli_distractor_diamondtriangles.svg	stimuli_distractor_diamondtriangles.svg	13	no	57	0	131
6.6.1	win	2022-12-14	11:16:57	11:23:36	397324	62b17a23f40c54a776801476	453846906	1	practice_slash	9	practice_slash	27	stimuli_target_diamondsquares.svg	stimuli_distractor_diamondtriangles.svg	3	yes	53	1	779
6.6.1	win	2022-12-14	11:16:57	11:23:36	397324	62b17a23f40c54a776801476	453846906	1	practice_slash	9	advance_on_keypress_SLASH	28	stimuli_target_diamondsquares.svg	stimuli_distractor_diamondtriangles.svg	3	yes	57	0	520
6.6.1	win	2022-12-14	11:16:57	11:23:40	401478	62b17a23f40c54a776801476	453846906	1	practice_slash	9	practice_slash	29	stimuli_distractor_diamondtriangles.svg	stimuli_distractor_trianglediamonds.svg	14	no	0	1	2000
6.6.1	win	2022-12-14	11:16:57	11:23:40	401478	62b17a23f40c54a776801476	453846906	1	practice_slash	9	advance_on_keypress_SLASH	30	stimuli_distractor_diamondtriangles.svg	stimuli_distractor_trianglediamonds.svg	14	no	57	0	308
6.6.1	win	2022-12-14	11:16:57	11:23:43	404110	62b17a23f40c54a776801476	453846906	1	practice_slash	9	practice_slash	31	stimuli_target_diamondsquares.svg	stimuli_distractor_trianglediamonds.svg	6	yes	53	1	682
6.6.1	win	2022-12-14	11:16:57	11:23:43	404110	62b17a23f40c54a776801476	453846906	1	practice_slash	9	advance_on_keypress_SLASH	32	stimuli_target_diamondsquares.svg	stimuli_distractor_trianglediamonds.svg	6	yes	57	0	328
6.6.1	win	2022-12-14	11:16:57	11:23:46	407108	62b17a23f40c54a776801476	453846906	1	main_slash	11	main_slash	1	stimuli_distractor_trianglediamonds.svg	stimuli_target_diamondcircles.svg	27	yes	53	1	614
6.6.1	win	2022-12-14	11:16:57	11:23:46	407108	62b17a23f40c54a776801476	453846906	1	main_slash	11	advance_on_keypress_SLASH	2	stimuli_distractor_trianglediamonds.svg	stimuli_target_diamondcircles.svg	27	yes	57	0	898
6.6.1	win	2022-12-14	11:16:57	11:23:48	409118	62b17a23f40c54a776801476	453846906	1	main_slash	11	main_slash	3	stimuli_distractor_diamondtriangles.svg	stimuli_target_diamondcircles.svg	31	yes	53	1	458
6.6.1	win	2022-12-14	11:16:57	11:23:48	409118	62b17a23f40c54a776801476	453846906	1	main_slash	11	advance_on_keypress_SLASH	4	stimuli_distractor_diamondtriangles.svg	stimuli_target_diamondcircles.svg	31	yes	57	0	485
6.6.1	win	2022-12-14	11:16:57	11:23:50	410812	62b17a23f40c54a776801476	453846906	1	main_slash	11	main_slash	5	stimuli_target_diamondcircles.svg	stimuli_distractor_trianglediamonds.svg	19	yes	53	1	568
6.6.1	win	2022-12-14	11:16:57	11:23:50	410812	62b17a23f40c54a776801476	453846906	1	main_slash	11	advance_on_keypress_SLASH	6	stimuli_target_diamondcircles.svg	stimuli_distractor_trianglediamonds.svg	19	yes	57	0	371
6.6.1	win	2022-12-14	11:16:57	11:23:53	413827	62b17a23f40c54a776801476	453846906	1	main_slash	11	main_slash	7	stimuli_distractor_diamondtriangles.svg	stimuli_distractor_diamondtriangles.svg	40	no	0	1	2000
6.6.1	win	2022-12-14	11:16:57	11:23:53	413827	62b17a23f40c54a776801476	453846906	1	main_slash	11	advance_on_keypress_SLASH	8	stimuli_distractor_diamondtriangles.svg	stimuli_distractor_diamondtriangles.svg	40	no	57	0	462
6.6.1	win	2022-12-14	11:16:57	11:23:54	415433	62b17a23f40c54a776801476	453846906	1	main_slash	11	main_slash	9	stimuli_target_trianglesquares.svg	stimuli_distractor_diamondtriangles.svg	22	yes	53	1	506
6.6.1	win	2022-12-14	11:16:57	11:23:54	415433	62b17a23f40c54a776801476	453846906	1	main_slash	11	advance_on_keypress_SLASH	10	stimuli_target_trianglesquares.svg	stimuli_distractor_diamondtriangles.svg	22	yes	57	0	395
6.6.1	win	2022-12-14	11:16:57	11:23:56	417110	62b17a23f40c54a776801476	453846906	1	main_slash	11	main_slash	11	stimuli_distractor_trianglediamonds.svg	stimuli_target_diamondsquares.svg	28	yes	53	1	650
6.6.1	win	2022-12-14	11:16:57	11:23:56	417110	62b17a23f40c54a776801476	453846906	1	main_slash	11	advance_on_keypress_SLASH	12	stimuli_distractor_trianglediamonds.svg	stimuli_target_diamondsquares.svg	28	yes	57	0	738
6.6.1	win	2022-12-14	11:16:57	11:23:59	420493	62b17a23f40c54a776801476	453846906	1	main_slash	11	main_slash	13	stimuli_target_circletriangles.svg	stimuli_distractor_diamondtriangles.svg	5	yes	0	0	2000
6.6.1	win	2022-12-14	11:16:57	11:23:59	420493	62b17a23f40c54a776801476	453846906	1	main_slash	11	advance_on_keypress_SLASH	14	stimuli_target_circletriangles.svg	stimuli_distractor_diamondtriangles.svg	5	yes	57	0	395
6.6.1	win	2022-12-14	11:16:57	11:24:01	422401	62b17a23f40c54a776801476	453846906	1	main_slash	11	main_slash	15	stimuli_target_squarediamonds.svg	stimuli_distractor_trianglediamonds.svg	4	yes	53	1	874
6.6.1	win	2022-12-14	11:16:57	11:24:01	422401	62b17a23f40c54a776801476	453846906	1	main_slash	11	advance_on_keypress_SLASH	16	stimuli_target_squarediamonds.svg	stimuli_distractor_trianglediamonds.svg	4	yes	57	0	262
6.6.1	win	2022-12-14	11:16:57	11:24:04	425294	62b17a23f40c54a776801476	453846906	1	main_slash	11	main_slash	17	stimuli_distractor_trianglediamonds.svg	stimuli_distractor_diamondtriangles.svg	36	no	0	1	2000
6.6.1	win	2022-12-14	11:16:57	11:24:04	425294	62b17a23f40c54a776801476	453846906	1	main_slash	11	advance_on_keypress_SLASH	18	stimuli_distractor_trianglediamonds.svg	stimuli_distractor_diamondtriangles.svg	36	no	57	0	226
6.6.1	win	2022-12-14	11:16:57	11:24:07	428160	62b17a23f40c54a776801476	453846906	1	main_slash	11	main_slash	19	stimuli_distractor_trianglediamonds.svg	stimuli_distractor_diamondtriangles.svg	35	no	0	1	2000
6.6.1	win	2022-12-14	11:16:57	11:24:07	428160	62b17a23f40c54a776801476	453846906	1	main_slash	11	advance_on_keypress_SLASH	20	stimuli_distractor_trianglediamonds.svg	stimuli_distractor_diamondtriangles.svg	35	no	57	0	271
6.6.1	win	2022-12-14	11:16:57	11:24:08	429535	62b17a23f40c54a776801476	453846906	1	main_slash	11	main_slash	21	stimuli_target_squaretriangles.svg	stimuli_distractor_diamondtriangles.svg	7	yes	53	1	458
6.6.1	win	2022-12-14	11:16:57	11:24:08	429535	62b17a23f40c54a776801476	453846906	1	main_slash	11	advance_on_keypress_SLASH	22	stimuli_target_squaretriangles.svg	stimuli_distractor_diamondtriangles.svg	7	yes	57	0	268
6.6.1	win	2022-12-14	11:16:57	11:24:10	430866	62b17a23f40c54a776801476	453846906	1	main_slash	11	main_slash	23	stimuli_target_squarediamonds.svg	stimuli_distractor_diamondtriangles.svg	8	yes	53	1	424
6.6.1	win	2022-12-14	11:16:57	11:24:10	430866	62b17a23f40c54a776801476	453846906	1	main_slash	11	advance_on_keypress_SLASH	24	stimuli_target_squarediamonds.svg	stimuli_distractor_diamondtriangles.svg	8	yes	57	0	305
6.6.1	win	2022-12-14	11:16:57	11:24:11	432388	62b17a23f40c54a776801476	453846906	1	main_slash	11	main_slash	25	stimuli_target_diamondcircles.svg	stimuli_distractor_diamondtriangles.svg	23	yes	53	1	578
6.6.1	win	2022-12-14	11:16:57	11:24:11	432388	62b17a23f40c54a776801476	453846906	1	main_slash	11	advance_on_keypress_SLASH	26	stimuli_target_diamondcircles.svg	stimuli_distractor_diamondtriangles.svg	23	yes	57	0	241
6.6.1	win	2022-12-14	11:16:57	11:24:13	434075	62b17a23f40c54a776801476	453846906	1	main_slash	11	main_slash	27	stimuli_distractor_diamondtriangles.svg	stimuli_target_squaretriangles.svg	15	yes	53	1	815
6.6.1	win	2022-12-14	11:16:57	11:24:13	434075	62b17a23f40c54a776801476	453846906	1	main_slash	11	advance_on_keypress_SLASH	28	stimuli_distractor_diamondtriangles.svg	stimuli_target_squaretriangles.svg	15	yes	57	0	258
6.6.1	win	2022-12-14	11:16:57	11:24:16	436976	62b17a23f40c54a776801476	453846906	1	main_slash	11	main_slash	29	stimuli_distractor_trianglediamonds.svg	stimuli_distractor_trianglediamonds.svg	34	no	0	1	2000
6.6.1	win	2022-12-14	11:16:57	11:24:16	436976	62b17a23f40c54a776801476	453846906	1	main_slash	11	advance_on_keypress_SLASH	30	stimuli_distractor_trianglediamonds.svg	stimuli_distractor_trianglediamonds.svg	34	no	57	0	296
6.6.1	win	2022-12-14	11:16:57	11:24:17	438431	62b17a23f40c54a776801476	453846906	1	main_slash	11	main_slash	31	stimuli_distractor_diamondtriangles.svg	stimuli_target_circletriangles.svg	13	yes	53	1	521
6.6.1	win	2022-12-14	11:16:57	11:24:17	438431	62b17a23f40c54a776801476	453846906	1	main_slash	11	advance_on_keypress_SLASH	32	stimuli_distractor_diamondtriangles.svg	stimuli_target_circletriangles.svg	13	yes	57	0	218
6.6.1	win	2022-12-14	11:16:57	11:24:20	441293	62b17a23f40c54a776801476	453846906	1	main_slash	11	main_slash	33	stimuli_distractor_diamondtriangles.svg	stimuli_distractor_trianglediamonds.svg	38	no	0	1	2000
6.6.1	win	2022-12-14	11:16:57	11:24:20	441293	62b17a23f40c54a776801476	453846906	1	main_slash	11	advance_on_keypress_SLASH	34	stimuli_distractor_diamondtriangles.svg	stimuli_distractor_trianglediamonds.svg	38	no	57	0	279
6.6.1	win	2022-12-14	11:16:57	11:24:21	442581	62b17a23f40c54a776801476	453846906	1	main_slash	11	main_slash	35	stimuli_distractor_trianglediamonds.svg	stimuli_target_squarediamonds.svg	12	yes	53	1	371
6.6.1	win	2022-12-14	11:16:57	11:24:21	442581	62b17a23f40c54a776801476	453846906	1	main_slash	11	advance_on_keypress_SLASH	36	stimuli_distractor_trianglediamonds.svg	stimuli_target_squarediamonds.svg	12	yes	57	0	223
6.6.1	win	2022-12-14	11:16:57	11:24:23	444081	62b17a23f40c54a776801476	453846906	1	main_slash	11	main_slash	37	stimuli_target_circletriangles.svg	stimuli_distractor_trianglediamonds.svg	1	yes	53	1	638
6.6.1	win	2022-12-14	11:16:57	11:24:23	444081	62b17a23f40c54a776801476	453846906	1	main_slash	11	advance_on_keypress_SLASH	38	stimuli_target_circletriangles.svg	stimuli_distractor_trianglediamonds.svg	1	yes	57	0	215
6.6.1	win	2022-12-14	11:16:57	11:24:24	445489	62b17a23f40c54a776801476	453846906	1	main_slash	11	main_slash	39	stimuli_target_squaretriangles.svg	stimuli_distractor_trianglediamonds.svg	3	yes	53	1	546
6.6.1	win	2022-12-14	11:16:57	11:24:24	445489	62b17a23f40c54a776801476	453846906	1	main_slash	11	advance_on_keypress_SLASH	40	stimuli_target_squaretriangles.svg	stimuli_distractor_trianglediamonds.svg	3	yes	57	0	222
6.6.1	win	2022-12-14	11:16:57	11:24:26	446841	62b17a23f40c54a776801476	453846906	1	main_slash	11	main_slash	41	stimuli_distractor_diamondtriangles.svg	stimuli_target_trianglesquares.svg	30	yes	53	1	498
6.6.1	win	2022-12-14	11:16:57	11:24:26	446841	62b17a23f40c54a776801476	453846906	1	main_slash	11	advance_on_keypress_SLASH	42	stimuli_distractor_diamondtriangles.svg	stimuli_target_trianglesquares.svg	30	yes	57	0	246
6.6.1	win	2022-12-14	11:16:57	11:24:27	448257	62b17a23f40c54a776801476	453846906	1	main_slash	11	main_slash	43	stimuli_target_trianglecircles.svg	stimuli_distractor_diamondtriangles.svg	21	yes	53	1	530
6.6.1	win	2022-12-14	11:16:57	11:24:27	448257	62b17a23f40c54a776801476	453846906	1	main_slash	11	advance_on_keypress_SLASH	44	stimuli_target_trianglecircles.svg	stimuli_distractor_diamondtriangles.svg	21	yes	57	0	197
6.6.1	win	2022-12-14	11:16:57	11:24:30	451093	62b17a23f40c54a776801476	453846906	1	main_slash	11	main_slash	45	stimuli_distractor_diamondtriangles.svg	stimuli_distractor_diamondtriangles.svg	39	no	0	1	2000
6.6.1	win	2022-12-14	11:16:57	11:24:30	451093	62b17a23f40c54a776801476	453846906	1	main_slash	11	advance_on_keypress_SLASH	46	stimuli_distractor_diamondtriangles.svg	stimuli_distractor_diamondtriangles.svg	39	no	57	0	446
6.6.1	win	2022-12-14	11:16:57	11:24:31	452577	62b17a23f40c54a776801476	453846906	1	main_slash	11	main_slash	47	stimuli_distractor_trianglediamonds.svg	stimuli_target_squaretriangles.svg	11	yes	53	1	384
6.6.1	win	2022-12-14	11:16:57	11:24:31	452577	62b17a23f40c54a776801476	453846906	1	main_slash	11	advance_on_keypress_SLASH	48	stimuli_distractor_trianglediamonds.svg	stimuli_target_squaretriangles.svg	11	yes	57	0	190
6.6.1	win	2022-12-14	11:16:57	11:24:33	453860	62b17a23f40c54a776801476	453846906	1	main_slash	11	main_slash	49	stimuli_distractor_diamondtriangles.svg	stimuli_target_squarediamonds.svg	16	yes	53	1	450
6.6.1	win	2022-12-14	11:16:57	11:24:33	453860	62b17a23f40c54a776801476	453846906	1	main_slash	11	advance_on_keypress_SLASH	50	stimuli_distractor_diamondtriangles.svg	stimuli_target_squarediamonds.svg	16	yes	57	0	188
6.6.1	win	2022-12-14	11:16:57	11:24:35	456693	62b17a23f40c54a776801476	453846906	1	main_slash	11	main_slash	51	stimuli_distractor_trianglediamonds.svg	stimuli_distractor_trianglediamonds.svg	33	no	0	1	2000
6.6.1	win	2022-12-14	11:16:57	11:24:35	456693	62b17a23f40c54a776801476	453846906	1	main_slash	11	advance_on_keypress_SLASH	52	stimuli_distractor_trianglediamonds.svg	stimuli_distractor_trianglediamonds.svg	33	no	57	0	253
6.6.1	win	2022-12-14	11:16:57	11:24:37	458024	62b17a23f40c54a776801476	453846906	1	main_slash	11	main_slash	53	stimuli_target_diamondsquares.svg	stimuli_distractor_trianglediamonds.svg	20	yes	53	1	431
6.6.1	win	2022-12-14	11:16:57	11:24:37	458024	62b17a23f40c54a776801476	453846906	1	main_slash	11	advance_on_keypress_SLASH	54	stimuli_target_diamondsquares.svg	stimuli_distractor_trianglediamonds.svg	20	yes	57	0	537
6.6.1	win	2022-12-14	11:16:57	11:24:38	459636	62b17a23f40c54a776801476	453846906	1	main_slash	11	main_slash	55	stimuli_target_circlediamonds.svg	stimuli_distractor_trianglediamonds.svg	2	yes	53	1	426
6.6.1	win	2022-12-14	11:16:57	11:24:38	459636	62b17a23f40c54a776801476	453846906	1	main_slash	11	advance_on_keypress_SLASH	56	stimuli_target_circlediamonds.svg	stimuli_distractor_trianglediamonds.svg	2	yes	57	0	223
6.6.1	win	2022-12-14	11:16:57	11:24:40	461400	62b17a23f40c54a776801476	453846906	1	main_slash	11	main_slash	57	stimuli_distractor_trianglediamonds.svg	stimuli_target_trianglesquares.svg	26	yes	53	1	907
6.6.1	win	2022-12-14	11:16:57	11:24:40	461400	62b17a23f40c54a776801476	453846906	1	main_slash	11	advance_on_keypress_SLASH	58	stimuli_distractor_trianglediamonds.svg	stimuli_target_trianglesquares.svg	26	yes	57	0	319
6.6.1	win	2022-12-14	11:16:57	11:24:42	462876	62b17a23f40c54a776801476	453846906	1	main_slash	11	main_slash	59	stimuli_distractor_diamondtriangles.svg	stimuli_target_diamondsquares.svg	32	yes	53	1	516
6.6.1	win	2022-12-14	11:16:57	11:24:42	462876	62b17a23f40c54a776801476	453846906	1	main_slash	11	advance_on_keypress_SLASH	60	stimuli_distractor_diamondtriangles.svg	stimuli_target_diamondsquares.svg	32	yes	57	0	177
6.6.1	win	2022-12-14	11:16:57	11:24:43	464187	62b17a23f40c54a776801476	453846906	1	main_slash	11	main_slash	61	stimuli_distractor_trianglediamonds.svg	stimuli_target_circletriangles.svg	9	yes	53	1	494
6.6.1	win	2022-12-14	11:16:57	11:24:43	464187	62b17a23f40c54a776801476	453846906	1	main_slash	11	advance_on_keypress_SLASH	62	stimuli_distractor_trianglediamonds.svg	stimuli_target_circletriangles.svg	9	yes	57	0	168
6.6.1	win	2022-12-14	11:16:57	11:24:46	466993	62b17a23f40c54a776801476	453846906	1	main_slash	11	main_slash	63	stimuli_distractor_diamondtriangles.svg	stimuli_distractor_trianglediamonds.svg	37	no	0	1	2000
6.6.1	win	2022-12-14	11:16:57	11:24:46	466993	62b17a23f40c54a776801476	453846906	1	main_slash	11	advance_on_keypress_SLASH	64	stimuli_distractor_diamondtriangles.svg	stimuli_distractor_trianglediamonds.svg	37	no	57	0	420
6.6.1	win	2022-12-14	11:16:57	11:24:47	468497	62b17a23f40c54a776801476	453846906	1	main_slash	11	main_slash	65	stimuli_target_circlediamonds.svg	stimuli_distractor_diamondtriangles.svg	6	yes	53	1	437
6.6.1	win	2022-12-14	11:16:57	11:24:47	468497	62b17a23f40c54a776801476	453846906	1	main_slash	11	advance_on_keypress_SLASH	66	stimuli_target_circlediamonds.svg	stimuli_distractor_diamondtriangles.svg	6	yes	57	0	176
6.6.1	win	2022-12-14	11:16:57	11:24:49	469988	62b17a23f40c54a776801476	453846906	1	main_slash	11	main_slash	67	stimuli_target_diamondsquares.svg	stimuli_distractor_diamondtriangles.svg	24	yes	53	1	678
6.6.1	win	2022-12-14	11:16:57	11:24:49	469988	62b17a23f40c54a776801476	453846906	1	main_slash	11	advance_on_keypress_SLASH	68	stimuli_target_diamondsquares.svg	stimuli_distractor_diamondtriangles.svg	24	yes	57	0	255
6.6.1	win	2022-12-14	11:16:57	11:24:50	471385	62b17a23f40c54a776801476	453846906	1	main_slash	11	main_slash	69	stimuli_distractor_trianglediamonds.svg	stimuli_target_trianglecircles.svg	25	yes	53	1	509
6.6.1	win	2022-12-14	11:16:57	11:24:50	471385	62b17a23f40c54a776801476	453846906	1	main_slash	11	advance_on_keypress_SLASH	70	stimuli_distractor_trianglediamonds.svg	stimuli_target_trianglecircles.svg	25	yes	57	0	168
6.6.1	win	2022-12-14	11:16:57	11:24:51	472652	62b17a23f40c54a776801476	453846906	1	main_slash	11	main_slash	71	stimuli_distractor_diamondtriangles.svg	stimuli_target_circlediamonds.svg	14	yes	53	1	459
6.6.1	win	2022-12-14	11:16:57	11:24:51	472652	62b17a23f40c54a776801476	453846906	1	main_slash	11	advance_on_keypress_SLASH	72	stimuli_distractor_diamondtriangles.svg	stimuli_target_circlediamonds.svg	14	yes	57	0	147
6.6.1	win	2022-12-14	11:16:57	11:24:53	474048	62b17a23f40c54a776801476	453846906	1	main_slash	11	main_slash	73	stimuli_target_trianglesquares.svg	stimuli_distractor_trianglediamonds.svg	18	yes	53	1	605
6.6.1	win	2022-12-14	11:16:57	11:24:53	474048	62b17a23f40c54a776801476	453846906	1	main_slash	11	advance_on_keypress_SLASH	74	stimuli_target_trianglesquares.svg	stimuli_distractor_trianglediamonds.svg	18	yes	57	0	148
6.6.1	win	2022-12-14	11:16:57	11:24:54	475241	62b17a23f40c54a776801476	453846906	1	main_slash	11	main_slash	75	stimuli_target_trianglecircles.svg	stimuli_distractor_trianglediamonds.svg	17	yes	53	1	398
6.6.1	win	2022-12-14	11:16:57	11:24:54	475241	62b17a23f40c54a776801476	453846906	1	main_slash	11	advance_on_keypress_SLASH	76	stimuli_target_trianglecircles.svg	stimuli_distractor_trianglediamonds.svg	17	yes	57	0	225
6.6.1	win	2022-12-14	11:16:57	11:24:56	476827	62b17a23f40c54a776801476	453846906	1	main_slash	11	main_slash	77	stimuli_distractor_diamondtriangles.svg	stimuli_target_trianglecircles.svg	29	yes	53	1	717
6.6.1	win	2022-12-14	11:16:57	11:24:56	476827	62b17a23f40c54a776801476	453846906	1	main_slash	11	advance_on_keypress_SLASH	78	stimuli_distractor_diamondtriangles.svg	stimuli_target_trianglecircles.svg	29	yes	57	0	165
6.6.1	win	2022-12-14	11:16:57	11:24:57	478133	62b17a23f40c54a776801476	453846906	1	main_slash	11	main_slash	79	stimuli_distractor_trianglediamonds.svg	stimuli_target_circlediamonds.svg	10	yes	53	1	490
6.6.1	win	2022-12-14	11:16:57	11:24:57	478133	62b17a23f40c54a776801476	453846906	1	main_slash	11	advance_on_keypress_SLASH	80	stimuli_distractor_trianglediamonds.svg	stimuli_target_circlediamonds.svg	10	yes	57	0	145
6.6.1	win	2022-12-14	11:16:57	11:24:58	479319	62b17a23f40c54a776801476	453846906	1	main_slash	11	main_slash	81	stimuli_distractor_diamondtriangles.svg	stimuli_target_trianglesquares.svg	30	yes	53	1	409
6.6.1	win	2022-12-14	11:16:57	11:24:58	479319	62b17a23f40c54a776801476	453846906	1	main_slash	11	advance_on_keypress_SLASH	82	stimuli_distractor_diamondtriangles.svg	stimuli_target_trianglesquares.svg	30	yes	57	0	179
6.6.1	win	2022-12-14	11:16:57	11:25:00	480885	62b17a23f40c54a776801476	453846906	1	main_slash	11	main_slash	83	stimuli_target_circlediamonds.svg	stimuli_distractor_trianglediamonds.svg	2	yes	53	1	759
6.6.1	win	2022-12-14	11:16:57	11:25:00	480885	62b17a23f40c54a776801476	453846906	1	main_slash	11	advance_on_keypress_SLASH	84	stimuli_target_circlediamonds.svg	stimuli_distractor_trianglediamonds.svg	2	yes	57	0	208
6.6.1	win	2022-12-14	11:16:57	11:25:02	483726	62b17a23f40c54a776801476	453846906	1	main_slash	11	main_slash	85	stimuli_distractor_trianglediamonds.svg	stimuli_distractor_diamondtriangles.svg	35	no	0	1	2000
6.6.1	win	2022-12-14	11:16:57	11:25:02	483726	62b17a23f40c54a776801476	453846906	1	main_slash	11	advance_on_keypress_SLASH	86	stimuli_distractor_trianglediamonds.svg	stimuli_distractor_diamondtriangles.svg	35	no	57	0	366
6.6.1	win	2022-12-14	11:16:57	11:25:04	485166	62b17a23f40c54a776801476	453846906	1	main_slash	11	main_slash	87	stimuli_distractor_trianglediamonds.svg	stimuli_target_trianglesquares.svg	26	yes	53	1	423
6.6.1	win	2022-12-14	11:16:57	11:25:04	485166	62b17a23f40c54a776801476	453846906	1	main_slash	11	advance_on_keypress_SLASH	88	stimuli_distractor_trianglediamonds.svg	stimuli_target_trianglesquares.svg	26	yes	57	0	196
6.6.1	win	2022-12-14	11:16:57	11:25:07	487993	62b17a23f40c54a776801476	453846906	1	main_slash	11	main_slash	89	stimuli_distractor_diamondtriangles.svg	stimuli_distractor_trianglediamonds.svg	37	no	0	1	2000
6.6.1	win	2022-12-14	11:16:57	11:25:07	487993	62b17a23f40c54a776801476	453846906	1	main_slash	11	advance_on_keypress_SLASH	90	stimuli_distractor_diamondtriangles.svg	stimuli_distractor_trianglediamonds.svg	37	no	57	0	445
6.6.1	win	2022-12-14	11:16:57	11:25:08	489521	62b17a23f40c54a776801476	453846906	1	main_slash	11	main_slash	91	stimuli_distractor_diamondtriangles.svg	stimuli_target_diamondsquares.svg	32	yes	53	1	445
6.6.1	win	2022-12-14	11:16:57	11:25:08	489521	62b17a23f40c54a776801476	453846906	1	main_slash	11	advance_on_keypress_SLASH	92	stimuli_distractor_diamondtriangles.svg	stimuli_target_diamondsquares.svg	32	yes	57	0	176
6.6.1	win	2022-12-14	11:16:57	11:25:10	490953	62b17a23f40c54a776801476	453846906	1	main_slash	11	main_slash	93	stimuli_distractor_diamondtriangles.svg	stimuli_target_squaretriangles.svg	15	yes	53	1	627
6.6.1	win	2022-12-14	11:16:57	11:25:10	490953	62b17a23f40c54a776801476	453846906	1	main_slash	11	advance_on_keypress_SLASH	94	stimuli_distractor_diamondtriangles.svg	stimuli_target_squaretriangles.svg	15	yes	57	0	164
6.6.1	win	2022-12-14	11:16:57	11:25:11	492154	62b17a23f40c54a776801476	453846906	1	main_slash	11	main_slash	95	stimuli_distractor_trianglediamonds.svg	stimuli_target_circletriangles.svg	9	yes	53	1	411
6.6.1	win	2022-12-14	11:16:57	11:25:11	492154	62b17a23f40c54a776801476	453846906	1	main_slash	11	advance_on_keypress_SLASH	96	stimuli_distractor_trianglediamonds.svg	stimuli_target_circletriangles.svg	9	yes	57	0	156
6.6.1	win	2022-12-14	11:16:57	11:25:12	493656	62b17a23f40c54a776801476	453846906	1	main_slash	11	main_slash	97	stimuli_target_trianglesquares.svg	stimuli_distractor_trianglediamonds.svg	18	yes	53	1	713
6.6.1	win	2022-12-14	11:16:57	11:25:12	493656	62b17a23f40c54a776801476	453846906	1	main_slash	11	advance_on_keypress_SLASH	98	stimuli_target_trianglesquares.svg	stimuli_distractor_trianglediamonds.svg	18	yes	57	0	172
6.6.1	win	2022-12-14	11:16:57	11:25:14	494878	62b17a23f40c54a776801476	453846906	1	main_slash	11	main_slash	99	stimuli_distractor_diamondtriangles.svg	stimuli_target_circletriangles.svg	13	yes	53	1	419
6.6.1	win	2022-12-14	11:16:57	11:25:14	494878	62b17a23f40c54a776801476	453846906	1	main_slash	11	advance_on_keypress_SLASH	100	stimuli_distractor_diamondtriangles.svg	stimuli_target_circletriangles.svg	13	yes	57	0	152
6.6.1	win	2022-12-14	11:16:57	11:25:15	496047	62b17a23f40c54a776801476	453846906	1	main_slash	11	main_slash	101	stimuli_distractor_trianglediamonds.svg	stimuli_target_circlediamonds.svg	10	yes	53	1	369
6.6.1	win	2022-12-14	11:16:57	11:25:15	496047	62b17a23f40c54a776801476	453846906	1	main_slash	11	advance_on_keypress_SLASH	102	stimuli_distractor_trianglediamonds.svg	stimuli_target_circlediamonds.svg	10	yes	57	0	190
6.6.1	win	2022-12-14	11:16:57	11:25:16	497616	62b17a23f40c54a776801476	453846906	1	main_slash	11	main_slash	103	stimuli_target_diamondcircles.svg	stimuli_distractor_trianglediamonds.svg	19	yes	53	1	740
6.6.1	win	2022-12-14	11:16:57	11:25:16	497616	62b17a23f40c54a776801476	453846906	1	main_slash	11	advance_on_keypress_SLASH	104	stimuli_target_diamondcircles.svg	stimuli_distractor_trianglediamonds.svg	19	yes	57	0	255
6.6.1	win	2022-12-14	11:16:57	11:25:18	498992	62b17a23f40c54a776801476	453846906	1	main_slash	11	main_slash	105	stimuli_target_diamondsquares.svg	stimuli_distractor_trianglediamonds.svg	20	yes	53	1	484
6.6.1	win	2022-12-14	11:16:57	11:25:18	498992	62b17a23f40c54a776801476	453846906	1	main_slash	11	advance_on_keypress_SLASH	106	stimuli_target_diamondsquares.svg	stimuli_distractor_trianglediamonds.svg	20	yes	57	0	128
6.6.1	win	2022-12-14	11:16:57	11:25:20	501759	62b17a23f40c54a776801476	453846906	1	main_slash	11	main_slash	107	stimuli_distractor_trianglediamonds.svg	stimuli_distractor_trianglediamonds.svg	34	no	0	1	2000
6.6.1	win	2022-12-14	11:16:57	11:25:20	501759	62b17a23f40c54a776801476	453846906	1	main_slash	11	advance_on_keypress_SLASH	108	stimuli_distractor_trianglediamonds.svg	stimuli_distractor_trianglediamonds.svg	34	no	57	0	305
6.6.1	win	2022-12-14	11:16:57	11:25:22	503062	62b17a23f40c54a776801476	453846906	1	main_slash	11	main_slash	109	stimuli_target_squaretriangles.svg	stimuli_distractor_trianglediamonds.svg	3	yes	53	1	353
6.6.1	win	2022-12-14	11:16:57	11:25:22	503062	62b17a23f40c54a776801476	453846906	1	main_slash	11	advance_on_keypress_SLASH	110	stimuli_target_squaretriangles.svg	stimuli_distractor_trianglediamonds.svg	3	yes	57	0	168
6.6.1	win	2022-12-14	11:16:57	11:25:23	504229	62b17a23f40c54a776801476	453846906	1	main_slash	11	main_slash	111	stimuli_distractor_diamondtriangles.svg	stimuli_target_circlediamonds.svg	14	yes	53	1	353
6.6.1	win	2022-12-14	11:16:57	11:25:23	504229	62b17a23f40c54a776801476	453846906	1	main_slash	11	advance_on_keypress_SLASH	112	stimuli_distractor_diamondtriangles.svg	stimuli_target_circlediamonds.svg	14	yes	57	0	161
6.6.1	win	2022-12-14	11:16:57	11:25:24	505436	62b17a23f40c54a776801476	453846906	1	main_slash	11	main_slash	113	stimuli_target_circlediamonds.svg	stimuli_distractor_diamondtriangles.svg	6	yes	53	1	410
6.6.1	win	2022-12-14	11:16:57	11:25:24	505436	62b17a23f40c54a776801476	453846906	1	main_slash	11	advance_on_keypress_SLASH	114	stimuli_target_circlediamonds.svg	stimuli_distractor_diamondtriangles.svg	6	yes	57	0	169
6.6.1	win	2022-12-14	11:16:57	11:25:25	506647	62b17a23f40c54a776801476	453846906	1	main_slash	11	main_slash	115	stimuli_distractor_trianglediamonds.svg	stimuli_distractor_diamondtriangles.svg	36	no	53	0	405
6.6.1	win	2022-12-14	11:16:57	11:25:25	506647	62b17a23f40c54a776801476	453846906	1	main_slash	11	advance_on_keypress_SLASH	116	stimuli_distractor_trianglediamonds.svg	stimuli_distractor_diamondtriangles.svg	36	no	57	0	710
6.6.1	win	2022-12-14	11:16:57	11:25:27	508469	62b17a23f40c54a776801476	453846906	1	main_slash	11	main_slash	117	stimuli_target_circletriangles.svg	stimuli_distractor_diamondtriangles.svg	5	yes	53	1	477
6.6.1	win	2022-12-14	11:16:57	11:25:27	508469	62b17a23f40c54a776801476	453846906	1	main_slash	11	advance_on_keypress_SLASH	118	stimuli_target_circletriangles.svg	stimuli_distractor_diamondtriangles.svg	5	yes	57	0	163
6.6.1	win	2022-12-14	11:16:57	11:25:29	509795	62b17a23f40c54a776801476	453846906	1	main_slash	11	main_slash	119	stimuli_distractor_diamondtriangles.svg	stimuli_target_squarediamonds.svg	16	yes	53	1	536
6.6.1	win	2022-12-14	11:16:57	11:25:29	509795	62b17a23f40c54a776801476	453846906	1	main_slash	11	advance_on_keypress_SLASH	120	stimuli_distractor_diamondtriangles.svg	stimuli_target_squarediamonds.svg	16	yes	57	0	212
6.6.1	win	2022-12-14	11:16:57	11:25:30	511072	62b17a23f40c54a776801476	453846906	1	main_slash	11	main_slash	121	stimuli_distractor_trianglediamonds.svg	stimuli_target_diamondcircles.svg	27	yes	53	1	430
6.6.1	win	2022-12-14	11:16:57	11:25:30	511072	62b17a23f40c54a776801476	453846906	1	main_slash	11	advance_on_keypress_SLASH	122	stimuli_distractor_trianglediamonds.svg	stimuli_target_diamondcircles.svg	27	yes	57	0	156
6.6.1	win	2022-12-14	11:16:57	11:25:31	512339	62b17a23f40c54a776801476	453846906	1	main_slash	11	main_slash	123	stimuli_target_trianglecircles.svg	stimuli_distractor_trianglediamonds.svg	17	yes	53	1	480
6.6.1	win	2022-12-14	11:16:57	11:25:31	512339	62b17a23f40c54a776801476	453846906	1	main_slash	11	advance_on_keypress_SLASH	124	stimuli_target_trianglecircles.svg	stimuli_distractor_trianglediamonds.svg	17	yes	57	0	186
6.6.1	win	2022-12-14	11:16:57	11:25:33	513980	62b17a23f40c54a776801476	453846906	1	main_slash	11	main_slash	125	stimuli_target_diamondsquares.svg	stimuli_distractor_diamondtriangles.svg	24	yes	53	1	821
6.6.1	win	2022-12-14	11:16:57	11:25:33	513980	62b17a23f40c54a776801476	453846906	1	main_slash	11	advance_on_keypress_SLASH	126	stimuli_target_diamondsquares.svg	stimuli_distractor_diamondtriangles.svg	24	yes	57	0	209
6.6.1	win	2022-12-14	11:16:57	11:25:36	516826	62b17a23f40c54a776801476	453846906	1	main_slash	11	main_slash	127	stimuli_distractor_diamondtriangles.svg	stimuli_distractor_diamondtriangles.svg	40	no	0	1	2000
6.6.1	win	2022-12-14	11:16:57	11:25:36	516826	62b17a23f40c54a776801476	453846906	1	main_slash	11	advance_on_keypress_SLASH	128	stimuli_distractor_diamondtriangles.svg	stimuli_distractor_diamondtriangles.svg	40	no	57	0	377
6.6.1	win	2022-12-14	11:16:57	11:25:37	518537	62b17a23f40c54a776801476	453846906	1	main_slash	11	main_slash	129	stimuli_distractor_trianglediamonds.svg	stimuli_target_squaretriangles.svg	11	yes	53	1	694
6.6.1	win	2022-12-14	11:16:57	11:25:37	518537	62b17a23f40c54a776801476	453846906	1	main_slash	11	advance_on_keypress_SLASH	130	stimuli_distractor_trianglediamonds.svg	stimuli_target_squaretriangles.svg	11	yes	57	0	170
6.6.1	win	2022-12-14	11:16:57	11:25:40	521342	62b17a23f40c54a776801476	453846906	1	main_slash	11	main_slash	131	stimuli_distractor_diamondtriangles.svg	stimuli_distractor_diamondtriangles.svg	39	no	0	1	2000
6.6.1	win	2022-12-14	11:16:57	11:25:40	521342	62b17a23f40c54a776801476	453846906	1	main_slash	11	advance_on_keypress_SLASH	132	stimuli_distractor_diamondtriangles.svg	stimuli_distractor_diamondtriangles.svg	39	no	57	0	542
6.6.1	win	2022-12-14	11:16:57	11:25:42	522916	62b17a23f40c54a776801476	453846906	1	main_slash	11	main_slash	133	stimuli_distractor_trianglediamonds.svg	stimuli_target_diamondsquares.svg	28	yes	53	1	390
6.6.1	win	2022-12-14	11:16:57	11:25:42	522916	62b17a23f40c54a776801476	453846906	1	main_slash	11	advance_on_keypress_SLASH	134	stimuli_distractor_trianglediamonds.svg	stimuli_target_diamondsquares.svg	28	yes	57	0	161
6.6.1	win	2022-12-14	11:16:57	11:25:44	525709	62b17a23f40c54a776801476	453846906	1	main_slash	11	main_slash	135	stimuli_distractor_diamondtriangles.svg	stimuli_distractor_trianglediamonds.svg	38	no	0	1	2000
6.6.1	win	2022-12-14	11:16:57	11:25:44	525709	62b17a23f40c54a776801476	453846906	1	main_slash	11	advance_on_keypress_SLASH	136	stimuli_distractor_diamondtriangles.svg	stimuli_distractor_trianglediamonds.svg	38	no	57	0	304
6.6.1	win	2022-12-14	11:16:57	11:25:46	527136	62b17a23f40c54a776801476	453846906	1	main_slash	11	main_slash	137	stimuli_target_trianglesquares.svg	stimuli_distractor_diamondtriangles.svg	22	yes	53	1	478
6.6.1	win	2022-12-14	11:16:57	11:25:46	527136	62b17a23f40c54a776801476	453846906	1	main_slash	11	advance_on_keypress_SLASH	138	stimuli_target_trianglesquares.svg	stimuli_distractor_diamondtriangles.svg	22	yes	57	0	215
6.6.1	win	2022-12-14	11:16:57	11:25:47	528464	62b17a23f40c54a776801476	453846906	1	main_slash	11	main_slash	139	stimuli_target_diamondcircles.svg	stimuli_distractor_diamondtriangles.svg	23	yes	53	1	472
6.6.1	win	2022-12-14	11:16:57	11:25:47	528464	62b17a23f40c54a776801476	453846906	1	main_slash	11	advance_on_keypress_SLASH	140	stimuli_target_diamondcircles.svg	stimuli_distractor_diamondtriangles.svg	23	yes	57	0	163
6.6.1	win	2022-12-14	11:16:57	11:25:48	529757	62b17a23f40c54a776801476	453846906	1	main_slash	11	main_slash	141	stimuli_distractor_diamondtriangles.svg	stimuli_target_trianglecircles.svg	29	yes	53	1	497
6.6.1	win	2022-12-14	11:16:57	11:25:48	529757	62b17a23f40c54a776801476	453846906	1	main_slash	11	advance_on_keypress_SLASH	142	stimuli_distractor_diamondtriangles.svg	stimuli_target_trianglecircles.svg	29	yes	57	0	149
6.6.1	win	2022-12-14	11:16:57	11:25:50	531672	62b17a23f40c54a776801476	453846906	1	main_slash	11	main_slash	143	stimuli_distractor_diamondtriangles.svg	stimuli_target_diamondcircles.svg	31	yes	53	1	1113
6.6.1	win	2022-12-14	11:16:57	11:25:50	531672	62b17a23f40c54a776801476	453846906	1	main_slash	11	advance_on_keypress_SLASH	144	stimuli_distractor_diamondtriangles.svg	stimuli_target_diamondcircles.svg	31	yes	57	0	252
6.6.1	win	2022-12-14	11:16:57	11:25:52	533372	62b17a23f40c54a776801476	453846906	1	main_slash	11	main_slash	145	stimuli_target_circletriangles.svg	stimuli_distractor_trianglediamonds.svg	1	yes	53	1	813
6.6.1	win	2022-12-14	11:16:57	11:25:52	533372	62b17a23f40c54a776801476	453846906	1	main_slash	11	advance_on_keypress_SLASH	146	stimuli_target_circletriangles.svg	stimuli_distractor_trianglediamonds.svg	1	yes	57	0	158
6.6.1	win	2022-12-14	11:16:57	11:25:55	536159	62b17a23f40c54a776801476	453846906	1	main_slash	11	main_slash	147	stimuli_target_trianglecircles.svg	stimuli_distractor_diamondtriangles.svg	21	yes	0	0	2000
6.6.1	win	2022-12-14	11:16:57	11:25:55	536159	62b17a23f40c54a776801476	453846906	1	main_slash	11	advance_on_keypress_SLASH	148	stimuli_target_trianglecircles.svg	stimuli_distractor_diamondtriangles.svg	21	yes	57	0	272
6.6.1	win	2022-12-14	11:16:57	11:25:58	539075	62b17a23f40c54a776801476	453846906	1	main_slash	11	main_slash	149	stimuli_distractor_trianglediamonds.svg	stimuli_distractor_trianglediamonds.svg	33	no	0	1	2000
6.6.1	win	2022-12-14	11:16:57	11:25:58	539075	62b17a23f40c54a776801476	453846906	1	main_slash	11	advance_on_keypress_SLASH	150	stimuli_distractor_trianglediamonds.svg	stimuli_distractor_trianglediamonds.svg	33	no	57	0	314
6.6.1	win	2022-12-14	11:16:57	11:25:59	540432	62b17a23f40c54a776801476	453846906	1	main_slash	11	main_slash	151	stimuli_distractor_trianglediamonds.svg	stimuli_target_trianglecircles.svg	25	yes	53	1	389
6.6.1	win	2022-12-14	11:16:57	11:25:59	540432	62b17a23f40c54a776801476	453846906	1	main_slash	11	advance_on_keypress_SLASH	152	stimuli_distractor_trianglediamonds.svg	stimuli_target_trianglecircles.svg	25	yes	57	0	242
6.6.1	win	2022-12-14	11:16:57	11:26:01	541779	62b17a23f40c54a776801476	453846906	1	main_slash	11	main_slash	153	stimuli_target_squaretriangles.svg	stimuli_distractor_diamondtriangles.svg	7	yes	53	1	470
6.6.1	win	2022-12-14	11:16:57	11:26:01	541779	62b17a23f40c54a776801476	453846906	1	main_slash	11	advance_on_keypress_SLASH	154	stimuli_target_squaretriangles.svg	stimuli_distractor_diamondtriangles.svg	7	yes	57	0	127
6.6.1	win	2022-12-14	11:16:57	11:26:02	543231	62b17a23f40c54a776801476	453846906	1	main_slash	11	main_slash	155	stimuli_distractor_trianglediamonds.svg	stimuli_target_squarediamonds.svg	12	yes	53	1	689
6.6.1	win	2022-12-14	11:16:57	11:26:02	543231	62b17a23f40c54a776801476	453846906	1	main_slash	11	advance_on_keypress_SLASH	156	stimuli_distractor_trianglediamonds.svg	stimuli_target_squarediamonds.svg	12	yes	57	0	319
6.6.1	win	2022-12-14	11:16:57	11:26:03	544668	62b17a23f40c54a776801476	453846906	1	main_slash	11	main_slash	157	stimuli_target_squarediamonds.svg	stimuli_distractor_trianglediamonds.svg	4	yes	53	1	476
6.6.1	win	2022-12-14	11:16:57	11:26:03	544668	62b17a23f40c54a776801476	453846906	1	main_slash	11	advance_on_keypress_SLASH	158	stimuli_target_squarediamonds.svg	stimuli_distractor_trianglediamonds.svg	4	yes	57	0	153
6.6.1	win	2022-12-14	11:16:57	11:26:05	545854	62b17a23f40c54a776801476	453846906	1	main_slash	11	main_slash	159	stimuli_target_squarediamonds.svg	stimuli_distractor_diamondtriangles.svg	8	yes	53	1	394
6.6.1	win	2022-12-14	11:16:57	11:26:05	545854	62b17a23f40c54a776801476	453846906	1	main_slash	11	advance_on_keypress_SLASH	160	stimuli_target_squarediamonds.svg	stimuli_distractor_diamondtriangles.svg	8	yes	57	0	205