build	computer.platform	date	time	timestamp	time_elapsed_ms	subject	group	session	blockcode	blocknum	trialcode	trialnum	stimulus_left	stimulus_right	stim_index	target_present	response	correct	latency
6.6.1	mac	2023-01-01	17:23:49	17:26:19	148603	610071e2de637700bf0cd8fc	618683691	1	practice_slash	5	practice_slash	1	stimuli_target_squarediamonds.svg	stimuli_distractor_diamondtriangles.svg	2	yes	53	1	1327
6.6.1	mac	2023-01-01	17:23:49	17:26:19	148603	610071e2de637700bf0cd8fc	618683691	1	practice_slash	5	advance_on_keypress_SLASH	2	stimuli_target_squarediamonds.svg	stimuli_distractor_diamondtriangles.svg	2	yes	57	0	1514
6.6.1	mac	2023-01-01	17:23:49	17:26:23	152420	610071e2de637700bf0cd8fc	618683691	1	practice_slash	5	practice_slash	3	stimuli_distractor_diamondtriangles.svg	stimuli_target_circletriangles.svg	7	yes	53	1	664
6.6.1	mac	2023-01-01	17:23:49	17:26:23	152420	610071e2de637700bf0cd8fc	618683691	1	practice_slash	5	advance_on_keypress_SLASH	4	stimuli_distractor_diamondtriangles.svg	stimuli_target_circletriangles.svg	7	yes	57	0	418
6.6.1	mac	2023-01-01	17:23:49	17:26:25	154835	610071e2de637700bf0cd8fc	618683691	1	practice_slash	5	practice_slash	5	stimuli_distractor_diamondtriangles.svg	stimuli_target_diamondcircles.svg	8	yes	53	1	357
6.6.1	mac	2023-01-01	17:23:49	17:26:25	154835	610071e2de637700bf0cd8fc	618683691	1	practice_slash	5	advance_on_keypress_SLASH	6	stimuli_distractor_diamondtriangles.svg	stimuli_target_diamondcircles.svg	8	yes	57	0	282
6.6.1	mac	2023-01-01	17:23:49	17:26:27	157180	610071e2de637700bf0cd8fc	618683691	1	practice_slash	5	practice_slash	7	stimuli_target_circlediamonds.svg	stimuli_distractor_trianglediamonds.svg	4	yes	53	1	406
6.6.1	mac	2023-01-01	17:23:49	17:26:27	157180	610071e2de637700bf0cd8fc	618683691	1	practice_slash	5	advance_on_keypress_SLASH	8	stimuli_target_circlediamonds.svg	stimuli_distractor_trianglediamonds.svg	4	yes	57	0	1247
6.6.1	mac	2023-01-01	17:23:49	17:26:32	161271	610071e2de637700bf0cd8fc	618683691	1	practice_slash	5	practice_slash	9	stimuli_distractor_trianglediamonds.svg	stimuli_target_circlediamonds.svg	10	yes	53	1	1193
6.6.1	mac	2023-01-01	17:23:49	17:26:32	161271	610071e2de637700bf0cd8fc	618683691	1	practice_slash	5	advance_on_keypress_SLASH	10	stimuli_distractor_trianglediamonds.svg	stimuli_target_circlediamonds.svg	10	yes	57	0	481
6.6.1	mac	2023-01-01	17:23:49	17:26:36	165383	610071e2de637700bf0cd8fc	618683691	1	practice_slash	5	practice_slash	11	stimuli_distractor_diamondtriangles.svg	stimuli_distractor_diamondtriangles.svg	13	no	0	1	2000
6.6.1	mac	2023-01-01	17:23:49	17:26:36	165383	610071e2de637700bf0cd8fc	618683691	1	practice_slash	5	advance_on_keypress_SLASH	12	stimuli_distractor_diamondtriangles.svg	stimuli_distractor_diamondtriangles.svg	13	no	57	0	378
6.6.1	mac	2023-01-01	17:23:49	17:26:39	168373	610071e2de637700bf0cd8fc	618683691	1	practice_slash	5	practice_slash	13	stimuli_target_diamondsquares.svg	stimuli_distractor_diamondtriangles.svg	3	yes	53	1	968
6.6.1	mac	2023-01-01	17:23:49	17:26:39	168373	610071e2de637700bf0cd8fc	618683691	1	practice_slash	5	advance_on_keypress_SLASH	14	stimuli_target_diamondsquares.svg	stimuli_distractor_diamondtriangles.svg	3	yes	57	0	345
6.6.1	mac	2023-01-01	17:23:49	17:26:42	171315	610071e2de637700bf0cd8fc	618683691	1	practice_slash	5	practice_slash	15	stimuli_distractor_trianglediamonds.svg	stimuli_target_diamondcircles.svg	12	yes	53	1	943
6.6.1	mac	2023-01-01	17:23:49	17:26:42	171315	610071e2de637700bf0cd8fc	618683691	1	practice_slash	5	advance_on_keypress_SLASH	16	stimuli_distractor_trianglediamonds.svg	stimuli_target_diamondcircles.svg	12	yes	57	0	260
6.6.1	mac	2023-01-01	17:23:49	17:26:44	173836	610071e2de637700bf0cd8fc	618683691	1	practice_slash	5	practice_slash	17	stimuli_target_squarediamonds.svg	stimuli_distractor_trianglediamonds.svg	5	yes	53	1	623
6.6.1	mac	2023-01-01	17:23:49	17:26:44	173836	610071e2de637700bf0cd8fc	618683691	1	practice_slash	5	advance_on_keypress_SLASH	18	stimuli_target_squarediamonds.svg	stimuli_distractor_trianglediamonds.svg	5	yes	57	0	413
6.6.1	mac	2023-01-01	17:23:49	17:26:47	176621	610071e2de637700bf0cd8fc	618683691	1	practice_slash	5	practice_slash	19	stimuli_target_diamondsquares.svg	stimuli_distractor_trianglediamonds.svg	6	yes	53	1	735
6.6.1	mac	2023-01-01	17:23:49	17:26:47	176621	610071e2de637700bf0cd8fc	618683691	1	practice_slash	5	advance_on_keypress_SLASH	20	stimuli_target_diamondsquares.svg	stimuli_distractor_trianglediamonds.svg	6	yes	57	0	271
6.6.1	mac	2023-01-01	17:23:49	17:26:50	179364	610071e2de637700bf0cd8fc	618683691	1	practice_slash	5	practice_slash	21	stimuli_target_circlediamonds.svg	stimuli_distractor_diamondtriangles.svg	1	yes	53	1	838
6.6.1	mac	2023-01-01	17:23:49	17:26:50	179364	610071e2de637700bf0cd8fc	618683691	1	practice_slash	5	advance_on_keypress_SLASH	22	stimuli_target_circlediamonds.svg	stimuli_distractor_diamondtriangles.svg	1	yes	57	0	101
6.6.1	mac	2023-01-01	17:23:49	17:26:53	183098	610071e2de637700bf0cd8fc	618683691	1	practice_slash	5	practice_slash	23	stimuli_distractor_diamondtriangles.svg	stimuli_distractor_trianglediamonds.svg	14	no	0	1	2000
6.6.1	mac	2023-01-01	17:23:49	17:26:53	183098	610071e2de637700bf0cd8fc	618683691	1	practice_slash	5	advance_on_keypress_SLASH	24	stimuli_distractor_diamondtriangles.svg	stimuli_distractor_trianglediamonds.svg	14	no	57	0	303
6.6.1	mac	2023-01-01	17:23:49	17:26:57	187041	610071e2de637700bf0cd8fc	618683691	1	practice_slash	5	practice_slash	25	stimuli_distractor_trianglediamonds.svg	stimuli_distractor_diamondtriangles.svg	16	no	0	1	2000
6.6.1	mac	2023-01-01	17:23:49	17:26:57	187041	610071e2de637700bf0cd8fc	618683691	1	practice_slash	5	advance_on_keypress_SLASH	26	stimuli_distractor_trianglediamonds.svg	stimuli_distractor_diamondtriangles.svg	16	no	57	0	301
6.6.1	mac	2023-01-01	17:23:49	17:27:01	190968	610071e2de637700bf0cd8fc	618683691	1	practice_slash	5	practice_slash	27	stimuli_distractor_trianglediamonds.svg	stimuli_distractor_trianglediamonds.svg	15	no	0	1	2000
6.6.1	mac	2023-01-01	17:23:49	17:27:01	190968	610071e2de637700bf0cd8fc	618683691	1	practice_slash	5	advance_on_keypress_SLASH	28	stimuli_distractor_trianglediamonds.svg	stimuli_distractor_trianglediamonds.svg	15	no	57	0	294
6.6.1	mac	2023-01-01	17:23:49	17:27:04	193580	610071e2de637700bf0cd8fc	618683691	1	practice_slash	5	practice_slash	29	stimuli_distractor_diamondtriangles.svg	stimuli_target_trianglecircles.svg	9	yes	53	1	681
6.6.1	mac	2023-01-01	17:23:49	17:27:04	193580	610071e2de637700bf0cd8fc	618683691	1	practice_slash	5	advance_on_keypress_SLASH	30	stimuli_distractor_diamondtriangles.svg	stimuli_target_trianglecircles.svg	9	yes	57	0	273
6.6.1	mac	2023-01-01	17:23:49	17:27:06	196200	610071e2de637700bf0cd8fc	618683691	1	practice_slash	5	practice_slash	31	stimuli_distractor_trianglediamonds.svg	stimuli_target_squarediamonds.svg	11	yes	53	1	695
6.6.1	mac	2023-01-01	17:23:49	17:27:06	196200	610071e2de637700bf0cd8fc	618683691	1	practice_slash	5	advance_on_keypress_SLASH	32	stimuli_distractor_trianglediamonds.svg	stimuli_target_squarediamonds.svg	11	yes	57	0	307
6.6.1	mac	2023-01-01	17:23:49	17:27:15	204944	610071e2de637700bf0cd8fc	618683691	1	main_slash	7	main_slash	1	stimuli_distractor_trianglediamonds.svg	stimuli_distractor_diamondtriangles.svg	35	no	53	0	613
6.6.1	mac	2023-01-01	17:23:49	17:27:15	204944	610071e2de637700bf0cd8fc	618683691	1	main_slash	7	advance_on_keypress_SLASH	2	stimuli_distractor_trianglediamonds.svg	stimuli_distractor_diamondtriangles.svg	35	no	57	0	1409
6.6.1	mac	2023-01-01	17:23:49	17:27:18	208017	610071e2de637700bf0cd8fc	618683691	1	main_slash	7	main_slash	3	stimuli_distractor_diamondtriangles.svg	stimuli_target_squarediamonds.svg	16	yes	53	1	1012
6.6.1	mac	2023-01-01	17:23:49	17:27:18	208017	610071e2de637700bf0cd8fc	618683691	1	main_slash	7	advance_on_keypress_SLASH	4	stimuli_distractor_diamondtriangles.svg	stimuli_target_squarediamonds.svg	16	yes	57	0	951
6.6.1	mac	2023-01-01	17:23:49	17:27:22	211608	610071e2de637700bf0cd8fc	618683691	1	main_slash	7	main_slash	5	stimuli_distractor_diamondtriangles.svg	stimuli_distractor_trianglediamonds.svg	37	no	0	1	2000
6.6.1	mac	2023-01-01	17:23:49	17:27:22	211608	610071e2de637700bf0cd8fc	618683691	1	main_slash	7	advance_on_keypress_SLASH	6	stimuli_distractor_diamondtriangles.svg	stimuli_distractor_trianglediamonds.svg	37	no	57	0	398
6.6.1	mac	2023-01-01	17:23:49	17:27:24	213417	610071e2de637700bf0cd8fc	618683691	1	main_slash	7	main_slash	7	stimuli_target_diamondsquares.svg	stimuli_distractor_diamondtriangles.svg	24	yes	53	1	781
6.6.1	mac	2023-01-01	17:23:49	17:27:24	213417	610071e2de637700bf0cd8fc	618683691	1	main_slash	7	advance_on_keypress_SLASH	8	stimuli_target_diamondsquares.svg	stimuli_distractor_diamondtriangles.svg	24	yes	57	0	532
6.6.1	mac	2023-01-01	17:23:49	17:27:26	215470	610071e2de637700bf0cd8fc	618683691	1	main_slash	7	main_slash	9	stimuli_distractor_trianglediamonds.svg	stimuli_target_squarediamonds.svg	12	yes	53	1	878
6.6.1	mac	2023-01-01	17:23:49	17:27:26	215470	610071e2de637700bf0cd8fc	618683691	1	main_slash	7	advance_on_keypress_SLASH	10	stimuli_distractor_trianglediamonds.svg	stimuli_target_squarediamonds.svg	12	yes	57	0	408
6.6.1	mac	2023-01-01	17:23:49	17:27:28	217261	610071e2de637700bf0cd8fc	618683691	1	main_slash	7	main_slash	11	stimuli_distractor_diamondtriangles.svg	stimuli_target_trianglecircles.svg	29	yes	53	1	730
6.6.1	mac	2023-01-01	17:23:49	17:27:28	217261	610071e2de637700bf0cd8fc	618683691	1	main_slash	7	advance_on_keypress_SLASH	12	stimuli_distractor_diamondtriangles.svg	stimuli_target_trianglecircles.svg	29	yes	57	0	402
6.6.1	mac	2023-01-01	17:23:49	17:27:29	219035	610071e2de637700bf0cd8fc	618683691	1	main_slash	7	main_slash	13	stimuli_distractor_diamondtriangles.svg	stimuli_target_squaretriangles.svg	15	yes	53	1	733
6.6.1	mac	2023-01-01	17:23:49	17:27:29	219035	610071e2de637700bf0cd8fc	618683691	1	main_slash	7	advance_on_keypress_SLASH	14	stimuli_distractor_diamondtriangles.svg	stimuli_target_squaretriangles.svg	15	yes	57	0	418
6.6.1	mac	2023-01-01	17:23:49	17:27:31	220660	610071e2de637700bf0cd8fc	618683691	1	main_slash	7	main_slash	15	stimuli_target_circlediamonds.svg	stimuli_distractor_diamondtriangles.svg	6	yes	53	1	571
6.6.1	mac	2023-01-01	17:23:49	17:27:31	220660	610071e2de637700bf0cd8fc	618683691	1	main_slash	7	advance_on_keypress_SLASH	16	stimuli_target_circlediamonds.svg	stimuli_distractor_diamondtriangles.svg	6	yes	57	0	454
6.6.1	mac	2023-01-01	17:23:49	17:27:34	223758	610071e2de637700bf0cd8fc	618683691	1	main_slash	7	main_slash	17	stimuli_distractor_trianglediamonds.svg	stimuli_distractor_diamondtriangles.svg	36	no	0	1	2000
6.6.1	mac	2023-01-01	17:23:49	17:27:34	223758	610071e2de637700bf0cd8fc	618683691	1	main_slash	7	advance_on_keypress_SLASH	18	stimuli_distractor_trianglediamonds.svg	stimuli_distractor_diamondtriangles.svg	36	no	57	0	397
6.6.1	mac	2023-01-01	17:23:49	17:27:36	225616	610071e2de637700bf0cd8fc	618683691	1	main_slash	7	main_slash	19	stimuli_target_circletriangles.svg	stimuli_distractor_diamondtriangles.svg	5	yes	53	1	814
6.6.1	mac	2023-01-01	17:23:49	17:27:36	225616	610071e2de637700bf0cd8fc	618683691	1	main_slash	7	advance_on_keypress_SLASH	20	stimuli_target_circletriangles.svg	stimuli_distractor_diamondtriangles.svg	5	yes	57	0	284
6.6.1	mac	2023-01-01	17:23:49	17:27:37	227180	610071e2de637700bf0cd8fc	618683691	1	main_slash	7	main_slash	21	stimuli_distractor_diamondtriangles.svg	stimuli_target_circlediamonds.svg	14	yes	53	1	640
6.6.1	mac	2023-01-01	17:23:49	17:27:37	227180	610071e2de637700bf0cd8fc	618683691	1	main_slash	7	advance_on_keypress_SLASH	22	stimuli_distractor_diamondtriangles.svg	stimuli_target_circlediamonds.svg	14	yes	57	0	363
6.6.1	mac	2023-01-01	17:23:49	17:27:40	230175	610071e2de637700bf0cd8fc	618683691	1	main_slash	7	main_slash	23	stimuli_distractor_trianglediamonds.svg	stimuli_distractor_trianglediamonds.svg	34	no	0	1	2000
6.6.1	mac	2023-01-01	17:23:49	17:27:40	230175	610071e2de637700bf0cd8fc	618683691	1	main_slash	7	advance_on_keypress_SLASH	24	stimuli_distractor_trianglediamonds.svg	stimuli_distractor_trianglediamonds.svg	34	no	57	0	264
6.6.1	mac	2023-01-01	17:23:49	17:27:43	233083	610071e2de637700bf0cd8fc	618683691	1	main_slash	7	main_slash	25	stimuli_distractor_diamondtriangles.svg	stimuli_distractor_diamondtriangles.svg	39	no	0	1	2000
6.6.1	mac	2023-01-01	17:23:49	17:27:43	233083	610071e2de637700bf0cd8fc	618683691	1	main_slash	7	advance_on_keypress_SLASH	26	stimuli_distractor_diamondtriangles.svg	stimuli_distractor_diamondtriangles.svg	39	no	57	0	317
6.6.1	mac	2023-01-01	17:23:49	17:27:45	234554	610071e2de637700bf0cd8fc	618683691	1	main_slash	7	main_slash	27	stimuli_distractor_trianglediamonds.svg	stimuli_target_trianglesquares.svg	26	yes	53	1	510
6.6.1	mac	2023-01-01	17:23:49	17:27:45	234554	610071e2de637700bf0cd8fc	618683691	1	main_slash	7	advance_on_keypress_SLASH	28	stimuli_distractor_trianglediamonds.svg	stimuli_target_trianglesquares.svg	26	yes	57	0	379
6.6.1	mac	2023-01-01	17:23:49	17:27:46	236156	610071e2de637700bf0cd8fc	618683691	1	main_slash	7	main_slash	29	stimuli_target_circlediamonds.svg	stimuli_distractor_trianglediamonds.svg	2	yes	53	1	575
6.6.1	mac	2023-01-01	17:23:49	17:27:46	236156	610071e2de637700bf0cd8fc	618683691	1	main_slash	7	advance_on_keypress_SLASH	30	stimuli_target_circlediamonds.svg	stimuli_distractor_trianglediamonds.svg	2	yes	57	0	370
6.6.1	mac	2023-01-01	17:23:49	17:27:48	237742	610071e2de637700bf0cd8fc	618683691	1	main_slash	7	main_slash	31	stimuli_target_squarediamonds.svg	stimuli_distractor_diamondtriangles.svg	8	yes	53	1	574
6.6.1	mac	2023-01-01	17:23:49	17:27:48	237742	610071e2de637700bf0cd8fc	618683691	1	main_slash	7	advance_on_keypress_SLASH	32	stimuli_target_squarediamonds.svg	stimuli_distractor_diamondtriangles.svg	8	yes	57	0	302
6.6.1	mac	2023-01-01	17:23:49	17:27:50	240133	610071e2de637700bf0cd8fc	618683691	1	main_slash	7	main_slash	33	stimuli_target_diamondsquares.svg	stimuli_distractor_trianglediamonds.svg	20	yes	53	1	1444
6.6.1	mac	2023-01-01	17:23:49	17:27:50	240133	610071e2de637700bf0cd8fc	618683691	1	main_slash	7	advance_on_keypress_SLASH	34	stimuli_target_diamondsquares.svg	stimuli_distractor_trianglediamonds.svg	20	yes	57	0	365
6.6.1	mac	2023-01-01	17:23:49	17:27:52	242133	610071e2de637700bf0cd8fc	618683691	1	main_slash	7	main_slash	35	stimuli_distractor_diamondtriangles.svg	stimuli_target_diamondcircles.svg	31	yes	53	1	1004
6.6.1	mac	2023-01-01	17:23:49	17:27:52	242133	610071e2de637700bf0cd8fc	618683691	1	main_slash	7	advance_on_keypress_SLASH	36	stimuli_distractor_diamondtriangles.svg	stimuli_target_diamondcircles.svg	31	yes	57	0	334
6.6.1	mac	2023-01-01	17:23:49	17:27:55	245098	610071e2de637700bf0cd8fc	618683691	1	main_slash	7	main_slash	37	stimuli_distractor_diamondtriangles.svg	stimuli_distractor_trianglediamonds.svg	38	no	0	1	2000
6.6.1	mac	2023-01-01	17:23:49	17:27:55	245098	610071e2de637700bf0cd8fc	618683691	1	main_slash	7	advance_on_keypress_SLASH	38	stimuli_distractor_diamondtriangles.svg	stimuli_distractor_trianglediamonds.svg	38	no	57	0	372
6.6.1	mac	2023-01-01	17:23:49	17:27:57	246979	610071e2de637700bf0cd8fc	618683691	1	main_slash	7	main_slash	39	stimuli_distractor_trianglediamonds.svg	stimuli_target_trianglecircles.svg	25	yes	53	1	854
6.6.1	mac	2023-01-01	17:23:49	17:27:57	246979	610071e2de637700bf0cd8fc	618683691	1	main_slash	7	advance_on_keypress_SLASH	40	stimuli_distractor_trianglediamonds.svg	stimuli_target_trianglecircles.svg	25	yes	57	0	708
6.6.1	mac	2023-01-01	17:23:49	17:27:59	248823	610071e2de637700bf0cd8fc	618683691	1	main_slash	7	main_slash	41	stimuli_distractor_trianglediamonds.svg	stimuli_target_squaretriangles.svg	11	yes	53	1	492
6.6.1	mac	2023-01-01	17:23:49	17:27:59	248823	610071e2de637700bf0cd8fc	618683691	1	main_slash	7	advance_on_keypress_SLASH	42	stimuli_distractor_trianglediamonds.svg	stimuli_target_squaretriangles.svg	11	yes	57	0	284
6.6.1	mac	2023-01-01	17:23:49	17:28:00	250192	610071e2de637700bf0cd8fc	618683691	1	main_slash	7	main_slash	43	stimuli_target_trianglesquares.svg	stimuli_distractor_diamondtriangles.svg	22	yes	53	1	458
6.6.1	mac	2023-01-01	17:23:49	17:28:00	250192	610071e2de637700bf0cd8fc	618683691	1	main_slash	7	advance_on_keypress_SLASH	44	stimuli_target_trianglesquares.svg	stimuli_distractor_diamondtriangles.svg	22	yes	57	0	401
6.6.1	mac	2023-01-01	17:23:49	17:28:02	252115	610071e2de637700bf0cd8fc	618683691	1	main_slash	7	main_slash	45	stimuli_distractor_diamondtriangles.svg	stimuli_target_circletriangles.svg	13	yes	53	1	893
6.6.1	mac	2023-01-01	17:23:49	17:28:02	252115	610071e2de637700bf0cd8fc	618683691	1	main_slash	7	advance_on_keypress_SLASH	46	stimuli_distractor_diamondtriangles.svg	stimuli_target_circletriangles.svg	13	yes	57	0	311
6.6.1	mac	2023-01-01	17:23:49	17:28:04	253661	610071e2de637700bf0cd8fc	618683691	1	main_slash	7	main_slash	47	stimuli_target_diamondcircles.svg	stimuli_distractor_diamondtriangles.svg	23	yes	53	1	601
6.6.1	mac	2023-01-01	17:23:49	17:28:04	253661	610071e2de637700bf0cd8fc	618683691	1	main_slash	7	advance_on_keypress_SLASH	48	stimuli_target_diamondcircles.svg	stimuli_distractor_diamondtriangles.svg	23	yes	57	0	234
6.6.1	mac	2023-01-01	17:23:49	17:28:05	255121	610071e2de637700bf0cd8fc	618683691	1	main_slash	7	main_slash	49	stimuli_distractor_trianglediamonds.svg	stimuli_target_circlediamonds.svg	10	yes	53	1	590
6.6.1	mac	2023-01-01	17:23:49	17:28:05	255121	610071e2de637700bf0cd8fc	618683691	1	main_slash	7	advance_on_keypress_SLASH	50	stimuli_distractor_trianglediamonds.svg	stimuli_target_circlediamonds.svg	10	yes	57	0	256
6.6.1	mac	2023-01-01	17:23:49	17:28:08	258000	610071e2de637700bf0cd8fc	618683691	1	main_slash	7	main_slash	51	stimuli_distractor_trianglediamonds.svg	stimuli_distractor_trianglediamonds.svg	33	no	0	1	2000
6.6.1	mac	2023-01-01	17:23:49	17:28:08	258000	610071e2de637700bf0cd8fc	618683691	1	main_slash	7	advance_on_keypress_SLASH	52	stimuli_distractor_trianglediamonds.svg	stimuli_distractor_trianglediamonds.svg	33	no	57	0	317
6.6.1	mac	2023-01-01	17:23:49	17:28:10	259488	610071e2de637700bf0cd8fc	618683691	1	main_slash	7	main_slash	53	stimuli_distractor_diamondtriangles.svg	stimuli_target_diamondsquares.svg	32	yes	53	1	528
6.6.1	mac	2023-01-01	17:23:49	17:28:10	259488	610071e2de637700bf0cd8fc	618683691	1	main_slash	7	advance_on_keypress_SLASH	54	stimuli_distractor_diamondtriangles.svg	stimuli_target_diamondsquares.svg	32	yes	57	0	224
6.6.1	mac	2023-01-01	17:23:49	17:28:11	260781	610071e2de637700bf0cd8fc	618683691	1	main_slash	7	main_slash	55	stimuli_target_trianglecircles.svg	stimuli_distractor_trianglediamonds.svg	17	yes	53	1	416
6.6.1	mac	2023-01-01	17:23:49	17:28:11	260781	610071e2de637700bf0cd8fc	618683691	1	main_slash	7	advance_on_keypress_SLASH	56	stimuli_target_trianglecircles.svg	stimuli_distractor_trianglediamonds.svg	17	yes	57	0	263
6.6.1	mac	2023-01-01	17:23:49	17:28:12	262201	610071e2de637700bf0cd8fc	618683691	1	main_slash	7	main_slash	57	stimuli_distractor_diamondtriangles.svg	stimuli_target_trianglesquares.svg	30	yes	53	1	517
6.6.1	mac	2023-01-01	17:23:49	17:28:12	262201	610071e2de637700bf0cd8fc	618683691	1	main_slash	7	advance_on_keypress_SLASH	58	stimuli_distractor_diamondtriangles.svg	stimuli_target_trianglesquares.svg	30	yes	57	0	203
6.6.1	mac	2023-01-01	17:23:49	17:28:14	263571	610071e2de637700bf0cd8fc	618683691	1	main_slash	7	main_slash	59	stimuli_target_squarediamonds.svg	stimuli_distractor_trianglediamonds.svg	4	yes	53	1	533
6.6.1	mac	2023-01-01	17:23:49	17:28:14	263571	610071e2de637700bf0cd8fc	618683691	1	main_slash	7	advance_on_keypress_SLASH	60	stimuli_target_squarediamonds.svg	stimuli_distractor_trianglediamonds.svg	4	yes	57	0	262
6.6.1	mac	2023-01-01	17:23:49	17:28:15	264880	610071e2de637700bf0cd8fc	618683691	1	main_slash	7	main_slash	61	stimuli_target_squaretriangles.svg	stimuli_distractor_trianglediamonds.svg	3	yes	53	1	405
6.6.1	mac	2023-01-01	17:23:49	17:28:15	264880	610071e2de637700bf0cd8fc	618683691	1	main_slash	7	advance_on_keypress_SLASH	62	stimuli_target_squaretriangles.svg	stimuli_distractor_trianglediamonds.svg	3	yes	57	0	234
6.6.1	mac	2023-01-01	17:23:49	17:28:17	266300	610071e2de637700bf0cd8fc	618683691	1	main_slash	7	main_slash	63	stimuli_target_trianglecircles.svg	stimuli_distractor_diamondtriangles.svg	21	yes	53	1	538
6.6.1	mac	2023-01-01	17:23:49	17:28:17	266300	610071e2de637700bf0cd8fc	618683691	1	main_slash	7	advance_on_keypress_SLASH	64	stimuli_target_trianglecircles.svg	stimuli_distractor_diamondtriangles.svg	21	yes	57	0	248
6.6.1	mac	2023-01-01	17:23:49	17:28:19	269179	610071e2de637700bf0cd8fc	618683691	1	main_slash	7	main_slash	65	stimuli_distractor_diamondtriangles.svg	stimuli_distractor_diamondtriangles.svg	40	no	0	1	2000
6.6.1	mac	2023-01-01	17:23:49	17:28:19	269179	610071e2de637700bf0cd8fc	618683691	1	main_slash	7	advance_on_keypress_SLASH	66	stimuli_distractor_diamondtriangles.svg	stimuli_distractor_diamondtriangles.svg	40	no	57	0	977
6.6.1	mac	2023-01-01	17:23:49	17:28:21	271245	610071e2de637700bf0cd8fc	618683691	1	main_slash	7	main_slash	67	stimuli_target_squaretriangles.svg	stimuli_distractor_diamondtriangles.svg	7	yes	53	1	437
6.6.1	mac	2023-01-01	17:23:49	17:28:21	271245	610071e2de637700bf0cd8fc	618683691	1	main_slash	7	advance_on_keypress_SLASH	68	stimuli_target_squaretriangles.svg	stimuli_distractor_diamondtriangles.svg	7	yes	57	0	312
6.6.1	mac	2023-01-01	17:23:49	17:28:23	272588	610071e2de637700bf0cd8fc	618683691	1	main_slash	7	main_slash	69	stimuli_target_circletriangles.svg	stimuli_distractor_trianglediamonds.svg	1	yes	53	1	393
6.6.1	mac	2023-01-01	17:23:49	17:28:23	272588	610071e2de637700bf0cd8fc	618683691	1	main_slash	7	advance_on_keypress_SLASH	70	stimuli_target_circletriangles.svg	stimuli_distractor_trianglediamonds.svg	1	yes	57	0	229
6.6.1	mac	2023-01-01	17:23:49	17:28:24	273837	610071e2de637700bf0cd8fc	618683691	1	main_slash	7	main_slash	71	stimuli_distractor_trianglediamonds.svg	stimuli_target_circletriangles.svg	9	yes	53	1	371
6.6.1	mac	2023-01-01	17:23:49	17:28:24	273837	610071e2de637700bf0cd8fc	618683691	1	main_slash	7	advance_on_keypress_SLASH	72	stimuli_distractor_trianglediamonds.svg	stimuli_target_circletriangles.svg	9	yes	57	0	251
6.6.1	mac	2023-01-01	17:23:49	17:28:26	275306	610071e2de637700bf0cd8fc	618683691	1	main_slash	7	main_slash	73	stimuli_distractor_trianglediamonds.svg	stimuli_target_diamondsquares.svg	28	yes	53	1	586
6.6.1	mac	2023-01-01	17:23:49	17:28:26	275306	610071e2de637700bf0cd8fc	618683691	1	main_slash	7	advance_on_keypress_SLASH	74	stimuli_distractor_trianglediamonds.svg	stimuli_target_diamondsquares.svg	28	yes	57	0	201
6.6.1	mac	2023-01-01	17:23:49	17:28:27	276670	610071e2de637700bf0cd8fc	618683691	1	main_slash	7	main_slash	75	stimuli_distractor_trianglediamonds.svg	stimuli_target_diamondcircles.svg	27	yes	53	1	531
6.6.1	mac	2023-01-01	17:23:49	17:28:27	276670	610071e2de637700bf0cd8fc	618683691	1	main_slash	7	advance_on_keypress_SLASH	76	stimuli_distractor_trianglediamonds.svg	stimuli_target_diamondcircles.svg	27	yes	57	0	219
6.6.1	mac	2023-01-01	17:23:49	17:28:28	277970	610071e2de637700bf0cd8fc	618683691	1	main_slash	7	main_slash	77	stimuli_target_diamondcircles.svg	stimuli_distractor_trianglediamonds.svg	19	yes	53	1	445
6.6.1	mac	2023-01-01	17:23:49	17:28:28	277970	610071e2de637700bf0cd8fc	618683691	1	main_slash	7	advance_on_keypress_SLASH	78	stimuli_target_diamondcircles.svg	stimuli_distractor_trianglediamonds.svg	19	yes	57	0	299
6.6.1	mac	2023-01-01	17:23:49	17:28:30	279619	610071e2de637700bf0cd8fc	618683691	1	main_slash	7	main_slash	79	stimuli_target_trianglesquares.svg	stimuli_distractor_trianglediamonds.svg	18	yes	53	1	705
6.6.1	mac	2023-01-01	17:23:49	17:28:30	279619	610071e2de637700bf0cd8fc	618683691	1	main_slash	7	advance_on_keypress_SLASH	80	stimuli_target_trianglesquares.svg	stimuli_distractor_trianglediamonds.svg	18	yes	57	0	263
6.6.1	mac	2023-01-01	17:23:49	17:28:31	281236	610071e2de637700bf0cd8fc	618683691	1	main_slash	7	main_slash	81	stimuli_target_squarediamonds.svg	stimuli_distractor_diamondtriangles.svg	8	yes	53	1	718
6.6.1	mac	2023-01-01	17:23:49	17:28:31	281236	610071e2de637700bf0cd8fc	618683691	1	main_slash	7	advance_on_keypress_SLASH	82	stimuli_target_squarediamonds.svg	stimuli_distractor_diamondtriangles.svg	8	yes	57	0	212
6.6.1	mac	2023-01-01	17:23:49	17:28:34	284086	610071e2de637700bf0cd8fc	618683691	1	main_slash	7	main_slash	83	stimuli_distractor_trianglediamonds.svg	stimuli_distractor_diamondtriangles.svg	36	no	0	1	2000
6.6.1	mac	2023-01-01	17:23:49	17:28:34	284086	610071e2de637700bf0cd8fc	618683691	1	main_slash	7	advance_on_keypress_SLASH	84	stimuli_distractor_trianglediamonds.svg	stimuli_distractor_diamondtriangles.svg	36	no	57	0	702
6.6.1	mac	2023-01-01	17:23:49	17:28:36	286018	610071e2de637700bf0cd8fc	618683691	1	main_slash	7	main_slash	85	stimuli_target_diamondsquares.svg	stimuli_distractor_trianglediamonds.svg	20	yes	53	1	605
6.6.1	mac	2023-01-01	17:23:49	17:28:36	286018	610071e2de637700bf0cd8fc	618683691	1	main_slash	7	advance_on_keypress_SLASH	86	stimuli_target_diamondsquares.svg	stimuli_distractor_trianglediamonds.svg	20	yes	57	0	347
6.6.1	mac	2023-01-01	17:23:49	17:28:38	287447	610071e2de637700bf0cd8fc	618683691	1	main_slash	7	main_slash	87	stimuli_distractor_trianglediamonds.svg	stimuli_target_diamondsquares.svg	28	yes	53	1	445
6.6.1	mac	2023-01-01	17:23:49	17:28:38	287447	610071e2de637700bf0cd8fc	618683691	1	main_slash	7	advance_on_keypress_SLASH	88	stimuli_distractor_trianglediamonds.svg	stimuli_target_diamondsquares.svg	28	yes	57	0	271
6.6.1	mac	2023-01-01	17:23:49	17:28:39	288801	610071e2de637700bf0cd8fc	618683691	1	main_slash	7	main_slash	89	stimuli_target_circletriangles.svg	stimuli_distractor_trianglediamonds.svg	1	yes	53	1	446
6.6.1	mac	2023-01-01	17:23:49	17:28:39	288801	610071e2de637700bf0cd8fc	618683691	1	main_slash	7	advance_on_keypress_SLASH	90	stimuli_target_circletriangles.svg	stimuli_distractor_trianglediamonds.svg	1	yes	57	0	345
6.6.1	mac	2023-01-01	17:23:49	17:28:41	290313	610071e2de637700bf0cd8fc	618683691	1	main_slash	7	main_slash	91	stimuli_distractor_diamondtriangles.svg	stimuli_target_circletriangles.svg	13	yes	53	1	523
6.6.1	mac	2023-01-01	17:23:49	17:28:41	290313	610071e2de637700bf0cd8fc	618683691	1	main_slash	7	advance_on_keypress_SLASH	92	stimuli_distractor_diamondtriangles.svg	stimuli_target_circletriangles.svg	13	yes	57	0	234
6.6.1	mac	2023-01-01	17:23:49	17:28:42	291619	610071e2de637700bf0cd8fc	618683691	1	main_slash	7	main_slash	93	stimuli_target_trianglecircles.svg	stimuli_distractor_trianglediamonds.svg	17	yes	53	1	423
6.6.1	mac	2023-01-01	17:23:49	17:28:42	291619	610071e2de637700bf0cd8fc	618683691	1	main_slash	7	advance_on_keypress_SLASH	94	stimuli_target_trianglecircles.svg	stimuli_distractor_trianglediamonds.svg	17	yes	57	0	206
6.6.1	mac	2023-01-01	17:23:49	17:28:43	292747	610071e2de637700bf0cd8fc	618683691	1	main_slash	7	main_slash	95	stimuli_distractor_trianglediamonds.svg	stimuli_target_squarediamonds.svg	12	yes	53	1	281
6.6.1	mac	2023-01-01	17:23:49	17:28:43	292747	610071e2de637700bf0cd8fc	618683691	1	main_slash	7	advance_on_keypress_SLASH	96	stimuli_distractor_trianglediamonds.svg	stimuli_target_squarediamonds.svg	12	yes	57	0	176
6.6.1	mac	2023-01-01	17:23:49	17:28:44	293836	610071e2de637700bf0cd8fc	618683691	1	main_slash	7	main_slash	97	stimuli_distractor_diamondtriangles.svg	stimuli_target_circlediamonds.svg	14	yes	53	1	267
6.6.1	mac	2023-01-01	17:23:49	17:28:44	293836	610071e2de637700bf0cd8fc	618683691	1	main_slash	7	advance_on_keypress_SLASH	98	stimuli_distractor_diamondtriangles.svg	stimuli_target_circlediamonds.svg	14	yes	57	0	194
6.6.1	mac	2023-01-01	17:23:49	17:28:45	295056	610071e2de637700bf0cd8fc	618683691	1	main_slash	7	main_slash	99	stimuli_distractor_trianglediamonds.svg	stimuli_target_trianglecircles.svg	25	yes	53	1	385
6.6.1	mac	2023-01-01	17:23:49	17:28:45	295056	610071e2de637700bf0cd8fc	618683691	1	main_slash	7	advance_on_keypress_SLASH	100	stimuli_distractor_trianglediamonds.svg	stimuli_target_trianglecircles.svg	25	yes	57	0	578
6.6.1	mac	2023-01-01	17:23:49	17:28:47	296596	610071e2de637700bf0cd8fc	618683691	1	main_slash	7	main_slash	101	stimuli_distractor_trianglediamonds.svg	stimuli_target_trianglesquares.svg	26	yes	53	1	320
6.6.1	mac	2023-01-01	17:23:49	17:28:47	296596	610071e2de637700bf0cd8fc	618683691	1	main_slash	7	advance_on_keypress_SLASH	102	stimuli_distractor_trianglediamonds.svg	stimuli_target_trianglesquares.svg	26	yes	57	0	317
6.6.1	mac	2023-01-01	17:23:49	17:28:48	298107	610071e2de637700bf0cd8fc	618683691	1	main_slash	7	main_slash	103	stimuli_target_circlediamonds.svg	stimuli_distractor_diamondtriangles.svg	6	yes	53	1	561
6.6.1	mac	2023-01-01	17:23:49	17:28:48	298107	610071e2de637700bf0cd8fc	618683691	1	main_slash	7	advance_on_keypress_SLASH	104	stimuli_target_circlediamonds.svg	stimuli_distractor_diamondtriangles.svg	6	yes	57	0	272
6.6.1	mac	2023-01-01	17:23:49	17:28:50	299416	610071e2de637700bf0cd8fc	618683691	1	main_slash	7	main_slash	105	stimuli_target_diamondcircles.svg	stimuli_distractor_diamondtriangles.svg	23	yes	53	1	400
6.6.1	mac	2023-01-01	17:23:49	17:28:50	299416	610071e2de637700bf0cd8fc	618683691	1	main_slash	7	advance_on_keypress_SLASH	106	stimuli_target_diamondcircles.svg	stimuli_distractor_diamondtriangles.svg	23	yes	57	0	200
6.6.1	mac	2023-01-01	17:23:49	17:28:53	302251	610071e2de637700bf0cd8fc	618683691	1	main_slash	7	main_slash	107	stimuli_distractor_trianglediamonds.svg	stimuli_distractor_diamondtriangles.svg	35	no	0	1	2000
6.6.1	mac	2023-01-01	17:23:49	17:28:53	302251	610071e2de637700bf0cd8fc	618683691	1	main_slash	7	advance_on_keypress_SLASH	108	stimuli_distractor_trianglediamonds.svg	stimuli_distractor_diamondtriangles.svg	35	no	57	0	298
6.6.1	mac	2023-01-01	17:23:49	17:28:54	303466	610071e2de637700bf0cd8fc	618683691	1	main_slash	7	main_slash	109	stimuli_target_trianglesquares.svg	stimuli_distractor_trianglediamonds.svg	18	yes	53	1	287
6.6.1	mac	2023-01-01	17:23:49	17:28:54	303466	610071e2de637700bf0cd8fc	618683691	1	main_slash	7	advance_on_keypress_SLASH	110	stimuli_target_trianglesquares.svg	stimuli_distractor_trianglediamonds.svg	18	yes	57	0	460
6.6.1	mac	2023-01-01	17:23:49	17:28:55	304887	610071e2de637700bf0cd8fc	618683691	1	main_slash	7	main_slash	111	stimuli_distractor_trianglediamonds.svg	stimuli_target_circlediamonds.svg	10	yes	53	1	321
6.6.1	mac	2023-01-01	17:23:49	17:28:55	304887	610071e2de637700bf0cd8fc	618683691	1	main_slash	7	advance_on_keypress_SLASH	112	stimuli_distractor_trianglediamonds.svg	stimuli_target_circlediamonds.svg	10	yes	57	0	497
6.6.1	mac	2023-01-01	17:23:49	17:28:57	306455	610071e2de637700bf0cd8fc	618683691	1	main_slash	7	main_slash	113	stimuli_target_squaretriangles.svg	stimuli_distractor_trianglediamonds.svg	3	yes	53	1	436
6.6.1	mac	2023-01-01	17:23:49	17:28:57	306455	610071e2de637700bf0cd8fc	618683691	1	main_slash	7	advance_on_keypress_SLASH	114	stimuli_target_squaretriangles.svg	stimuli_distractor_trianglediamonds.svg	3	yes	57	0	276
6.6.1	mac	2023-01-01	17:23:49	17:29:00	309370	610071e2de637700bf0cd8fc	618683691	1	main_slash	7	main_slash	115	stimuli_distractor_trianglediamonds.svg	stimuli_distractor_trianglediamonds.svg	33	no	0	1	2000
6.6.1	mac	2023-01-01	17:23:49	17:29:00	309370	610071e2de637700bf0cd8fc	618683691	1	main_slash	7	advance_on_keypress_SLASH	116	stimuli_distractor_trianglediamonds.svg	stimuli_distractor_trianglediamonds.svg	33	no	57	0	283
6.6.1	mac	2023-01-01	17:23:49	17:29:01	310916	610071e2de637700bf0cd8fc	618683691	1	main_slash	7	main_slash	117	stimuli_distractor_diamondtriangles.svg	stimuli_target_diamondsquares.svg	32	yes	53	1	636
6.6.1	mac	2023-01-01	17:23:49	17:29:01	310916	610071e2de637700bf0cd8fc	618683691	1	main_slash	7	advance_on_keypress_SLASH	118	stimuli_distractor_diamondtriangles.svg	stimuli_target_diamondsquares.svg	32	yes	57	0	427
6.6.1	mac	2023-01-01	17:23:49	17:29:04	313981	610071e2de637700bf0cd8fc	618683691	1	main_slash	7	main_slash	119	stimuli_distractor_diamondtriangles.svg	stimuli_distractor_diamondtriangles.svg	40	no	0	1	2000
6.6.1	mac	2023-01-01	17:23:49	17:29:04	313981	610071e2de637700bf0cd8fc	618683691	1	main_slash	7	advance_on_keypress_SLASH	120	stimuli_distractor_diamondtriangles.svg	stimuli_distractor_diamondtriangles.svg	40	no	57	0	270
6.6.1	mac	2023-01-01	17:23:49	17:29:05	315210	610071e2de637700bf0cd8fc	618683691	1	main_slash	7	main_slash	121	stimuli_distractor_trianglediamonds.svg	stimuli_target_diamondcircles.svg	27	yes	53	1	334
6.6.1	mac	2023-01-01	17:23:49	17:29:05	315210	610071e2de637700bf0cd8fc	618683691	1	main_slash	7	advance_on_keypress_SLASH	122	stimuli_distractor_trianglediamonds.svg	stimuli_target_diamondcircles.svg	27	yes	57	0	324
6.6.1	mac	2023-01-01	17:23:49	17:29:07	316659	610071e2de637700bf0cd8fc	618683691	1	main_slash	7	main_slash	123	stimuli_target_squaretriangles.svg	stimuli_distractor_diamondtriangles.svg	7	yes	53	1	478
6.6.1	mac	2023-01-01	17:23:49	17:29:07	316659	610071e2de637700bf0cd8fc	618683691	1	main_slash	7	advance_on_keypress_SLASH	124	stimuli_target_squaretriangles.svg	stimuli_distractor_diamondtriangles.svg	7	yes	57	0	203
6.6.1	mac	2023-01-01	17:23:49	17:29:08	317930	610071e2de637700bf0cd8fc	618683691	1	main_slash	7	main_slash	125	stimuli_target_trianglecircles.svg	stimuli_distractor_diamondtriangles.svg	21	yes	53	1	430
6.6.1	mac	2023-01-01	17:23:49	17:29:08	317930	610071e2de637700bf0cd8fc	618683691	1	main_slash	7	advance_on_keypress_SLASH	126	stimuli_target_trianglecircles.svg	stimuli_distractor_diamondtriangles.svg	21	yes	57	0	334
6.6.1	mac	2023-01-01	17:23:49	17:29:10	320082	610071e2de637700bf0cd8fc	618683691	1	main_slash	7	main_slash	127	stimuli_target_squarediamonds.svg	stimuli_distractor_trianglediamonds.svg	4	yes	53	1	1177
6.6.1	mac	2023-01-01	17:23:49	17:29:10	320082	610071e2de637700bf0cd8fc	618683691	1	main_slash	7	advance_on_keypress_SLASH	128	stimuli_target_squarediamonds.svg	stimuli_distractor_trianglediamonds.svg	4	yes	57	0	195
6.6.1	mac	2023-01-01	17:23:49	17:29:13	322922	610071e2de637700bf0cd8fc	618683691	1	main_slash	7	main_slash	129	stimuli_distractor_diamondtriangles.svg	stimuli_distractor_diamondtriangles.svg	39	no	0	1	2000
6.6.1	mac	2023-01-01	17:23:49	17:29:13	322922	610071e2de637700bf0cd8fc	618683691	1	main_slash	7	advance_on_keypress_SLASH	130	stimuli_distractor_diamondtriangles.svg	stimuli_distractor_diamondtriangles.svg	39	no	57	0	323
6.6.1	mac	2023-01-01	17:23:49	17:29:15	324483	610071e2de637700bf0cd8fc	618683691	1	main_slash	7	main_slash	131	stimuli_distractor_trianglediamonds.svg	stimuli_target_circletriangles.svg	9	yes	53	1	583
6.6.1	mac	2023-01-01	17:23:49	17:29:15	324483	610071e2de637700bf0cd8fc	618683691	1	main_slash	7	advance_on_keypress_SLASH	132	stimuli_distractor_trianglediamonds.svg	stimuli_target_circletriangles.svg	9	yes	57	0	279
6.6.1	mac	2023-01-01	17:23:49	17:29:16	325966	610071e2de637700bf0cd8fc	618683691	1	main_slash	7	main_slash	133	stimuli_target_diamondsquares.svg	stimuli_distractor_diamondtriangles.svg	24	yes	53	1	561
6.6.1	mac	2023-01-01	17:23:49	17:29:16	325966	610071e2de637700bf0cd8fc	618683691	1	main_slash	7	advance_on_keypress_SLASH	134	stimuli_target_diamondsquares.svg	stimuli_distractor_diamondtriangles.svg	24	yes	57	0	201
6.6.1	mac	2023-01-01	17:23:49	17:29:19	328805	610071e2de637700bf0cd8fc	618683691	1	main_slash	7	main_slash	135	stimuli_distractor_trianglediamonds.svg	stimuli_distractor_trianglediamonds.svg	34	no	0	1	2000
6.6.1	mac	2023-01-01	17:23:49	17:29:19	328805	610071e2de637700bf0cd8fc	618683691	1	main_slash	7	advance_on_keypress_SLASH	136	stimuli_distractor_trianglediamonds.svg	stimuli_distractor_trianglediamonds.svg	34	no	57	0	692
6.6.1	mac	2023-01-01	17:23:49	17:29:21	330596	610071e2de637700bf0cd8fc	618683691	1	main_slash	7	main_slash	137	stimuli_distractor_diamondtriangles.svg	stimuli_target_trianglecircles.svg	29	yes	53	1	479
6.6.1	mac	2023-01-01	17:23:49	17:29:21	330596	610071e2de637700bf0cd8fc	618683691	1	main_slash	7	advance_on_keypress_SLASH	138	stimuli_distractor_diamondtriangles.svg	stimuli_target_trianglecircles.svg	29	yes	57	0	173
6.6.1	mac	2023-01-01	17:23:49	17:29:22	331917	610071e2de637700bf0cd8fc	618683691	1	main_slash	7	main_slash	139	stimuli_target_diamondcircles.svg	stimuli_distractor_trianglediamonds.svg	19	yes	53	1	496
6.6.1	mac	2023-01-01	17:23:49	17:29:22	331917	610071e2de637700bf0cd8fc	618683691	1	main_slash	7	advance_on_keypress_SLASH	140	stimuli_target_diamondcircles.svg	stimuli_distractor_trianglediamonds.svg	19	yes	57	0	172
6.6.1	mac	2023-01-01	17:23:49	17:29:23	333144	610071e2de637700bf0cd8fc	618683691	1	main_slash	7	main_slash	141	stimuli_distractor_diamondtriangles.svg	stimuli_target_squaretriangles.svg	15	yes	53	1	420
6.6.1	mac	2023-01-01	17:23:49	17:29:23	333144	610071e2de637700bf0cd8fc	618683691	1	main_slash	7	advance_on_keypress_SLASH	142	stimuli_distractor_diamondtriangles.svg	stimuli_target_squaretriangles.svg	15	yes	57	0	209
6.6.1	mac	2023-01-01	17:23:49	17:29:26	335991	610071e2de637700bf0cd8fc	618683691	1	main_slash	7	main_slash	143	stimuli_distractor_diamondtriangles.svg	stimuli_distractor_trianglediamonds.svg	38	no	0	1	2000
6.6.1	mac	2023-01-01	17:23:49	17:29:26	335991	610071e2de637700bf0cd8fc	618683691	1	main_slash	7	advance_on_keypress_SLASH	144	stimuli_distractor_diamondtriangles.svg	stimuli_distractor_trianglediamonds.svg	38	no	57	0	397
6.6.1	mac	2023-01-01	17:23:49	17:29:28	337340	610071e2de637700bf0cd8fc	618683691	1	main_slash	7	main_slash	145	stimuli_target_circletriangles.svg	stimuli_distractor_diamondtriangles.svg	5	yes	53	1	322
6.6.1	mac	2023-01-01	17:23:49	17:29:28	337340	610071e2de637700bf0cd8fc	618683691	1	main_slash	7	advance_on_keypress_SLASH	146	stimuli_target_circletriangles.svg	stimuli_distractor_diamondtriangles.svg	5	yes	57	0	239
6.6.1	mac	2023-01-01	17:23:49	17:29:29	338609	610071e2de637700bf0cd8fc	618683691	1	main_slash	7	main_slash	147	stimuli_distractor_diamondtriangles.svg	stimuli_target_trianglesquares.svg	30	yes	53	1	405
6.6.1	mac	2023-01-01	17:23:49	17:29:29	338609	610071e2de637700bf0cd8fc	618683691	1	main_slash	7	advance_on_keypress_SLASH	148	stimuli_distractor_diamondtriangles.svg	stimuli_target_trianglesquares.svg	30	yes	57	0	419
6.6.1	mac	2023-01-01	17:23:49	17:29:30	340137	610071e2de637700bf0cd8fc	618683691	1	main_slash	7	main_slash	149	stimuli_distractor_diamondtriangles.svg	stimuli_target_diamondcircles.svg	31	yes	53	1	461
6.6.1	mac	2023-01-01	17:23:49	17:29:30	340137	610071e2de637700bf0cd8fc	618683691	1	main_slash	7	advance_on_keypress_SLASH	150	stimuli_distractor_diamondtriangles.svg	stimuli_target_diamondcircles.svg	31	yes	57	0	433
6.6.1	mac	2023-01-01	17:23:49	17:29:32	342067	610071e2de637700bf0cd8fc	618683691	1	main_slash	7	main_slash	151	stimuli_distractor_diamondtriangles.svg	stimuli_distractor_trianglediamonds.svg	37	no	53	0	854
6.6.1	mac	2023-01-01	17:23:49	17:29:32	342067	610071e2de637700bf0cd8fc	618683691	1	main_slash	7	advance_on_keypress_SLASH	152	stimuli_distractor_diamondtriangles.svg	stimuli_distractor_trianglediamonds.svg	37	no	57	0	604
6.6.1	mac	2023-01-01	17:23:49	17:29:34	343871	610071e2de637700bf0cd8fc	618683691	1	main_slash	7	main_slash	153	stimuli_target_trianglesquares.svg	stimuli_distractor_diamondtriangles.svg	22	yes	53	1	568
6.6.1	mac	2023-01-01	17:23:49	17:29:34	343871	610071e2de637700bf0cd8fc	618683691	1	main_slash	7	advance_on_keypress_SLASH	154	stimuli_target_trianglesquares.svg	stimuli_distractor_diamondtriangles.svg	22	yes	57	0	215
6.6.1	mac	2023-01-01	17:23:49	17:29:36	345504	610071e2de637700bf0cd8fc	618683691	1	main_slash	7	main_slash	155	stimuli_distractor_diamondtriangles.svg	stimuli_target_squarediamonds.svg	16	yes	53	1	782
6.6.1	mac	2023-01-01	17:23:49	17:29:36	345504	610071e2de637700bf0cd8fc	618683691	1	main_slash	7	advance_on_keypress_SLASH	156	stimuli_distractor_diamondtriangles.svg	stimuli_target_squarediamonds.svg	16	yes	57	0	174
6.6.1	mac	2023-01-01	17:23:49	17:29:37	346906	610071e2de637700bf0cd8fc	618683691	1	main_slash	7	main_slash	157	stimuli_distractor_trianglediamonds.svg	stimuli_target_squaretriangles.svg	11	yes	53	1	578
6.6.1	mac	2023-01-01	17:23:49	17:29:37	346906	610071e2de637700bf0cd8fc	618683691	1	main_slash	7	advance_on_keypress_SLASH	158	stimuli_distractor_trianglediamonds.svg	stimuli_target_squaretriangles.svg	11	yes	57	0	157
6.6.1	mac	2023-01-01	17:23:49	17:29:38	348121	610071e2de637700bf0cd8fc	618683691	1	main_slash	7	main_slash	159	stimuli_target_circlediamonds.svg	stimuli_distractor_trianglediamonds.svg	2	yes	53	1	407
6.6.1	mac	2023-01-01	17:23:49	17:29:38	348121	610071e2de637700bf0cd8fc	618683691	1	main_slash	7	advance_on_keypress_SLASH	160	stimuli_target_circlediamonds.svg	stimuli_distractor_trianglediamonds.svg	2	yes	57	0	82
6.6.1	mac	2023-01-01	17:23:49	17:29:59	368976	610071e2de637700bf0cd8fc	618683691	1	practice_z	9	practice_z	1	stimuli_distractor_diamondtriangles.svg	stimuli_target_trianglecircles.svg	9	yes	44	1	392
6.6.1	mac	2023-01-01	17:23:49	17:29:59	368976	610071e2de637700bf0cd8fc	618683691	1	practice_z	9	advance_on_keypress_ZEE	2	stimuli_distractor_diamondtriangles.svg	stimuli_target_trianglecircles.svg	9	yes	57	0	1748
6.6.1	mac	2023-01-01	17:23:49	17:30:03	372806	610071e2de637700bf0cd8fc	618683691	1	practice_z	9	practice_z	3	stimuli_target_diamondsquares.svg	stimuli_distractor_diamondtriangles.svg	3	yes	44	1	445
6.6.1	mac	2023-01-01	17:23:49	17:30:03	372806	610071e2de637700bf0cd8fc	618683691	1	practice_z	9	advance_on_keypress_ZEE	4	stimuli_target_diamondsquares.svg	stimuli_distractor_diamondtriangles.svg	3	yes	57	0	390
6.6.1	mac	2023-01-01	17:23:49	17:30:06	375715	610071e2de637700bf0cd8fc	618683691	1	practice_z	9	practice_z	5	stimuli_distractor_diamondtriangles.svg	stimuli_distractor_diamondtriangles.svg	13	no	44	0	864
6.6.1	mac	2023-01-01	17:23:49	17:30:06	375715	610071e2de637700bf0cd8fc	618683691	1	practice_z	9	advance_on_keypress_ZEE	6	stimuli_distractor_diamondtriangles.svg	stimuli_distractor_diamondtriangles.svg	13	no	57	0	488
6.6.1	mac	2023-01-01	17:23:49	17:30:09	378416	610071e2de637700bf0cd8fc	618683691	1	practice_z	9	practice_z	7	stimuli_target_circlediamonds.svg	stimuli_distractor_trianglediamonds.svg	4	yes	44	1	557
6.6.1	mac	2023-01-01	17:23:49	17:30:09	378416	610071e2de637700bf0cd8fc	618683691	1	practice_z	9	advance_on_keypress_ZEE	8	stimuli_target_circlediamonds.svg	stimuli_distractor_trianglediamonds.svg	4	yes	57	0	455
6.6.1	mac	2023-01-01	17:23:49	17:30:13	382513	610071e2de637700bf0cd8fc	618683691	1	practice_z	9	practice_z	9	stimuli_distractor_trianglediamonds.svg	stimuli_distractor_trianglediamonds.svg	15	no	0	1	2000
6.6.1	mac	2023-01-01	17:23:49	17:30:13	382513	610071e2de637700bf0cd8fc	618683691	1	practice_z	9	advance_on_keypress_ZEE	10	stimuli_distractor_trianglediamonds.svg	stimuli_distractor_trianglediamonds.svg	15	no	57	0	715
6.6.1	mac	2023-01-01	17:23:49	17:30:16	385530	610071e2de637700bf0cd8fc	618683691	1	practice_z	9	practice_z	11	stimuli_distractor_diamondtriangles.svg	stimuli_distractor_trianglediamonds.svg	14	no	44	0	669
6.6.1	mac	2023-01-01	17:23:49	17:30:16	385530	610071e2de637700bf0cd8fc	618683691	1	practice_z	9	advance_on_keypress_ZEE	12	stimuli_distractor_diamondtriangles.svg	stimuli_distractor_trianglediamonds.svg	14	no	57	0	266
6.6.1	mac	2023-01-01	17:23:49	17:30:18	387983	610071e2de637700bf0cd8fc	618683691	1	practice_z	9	practice_z	13	stimuli_distractor_trianglediamonds.svg	stimuli_target_circlediamonds.svg	10	yes	44	1	549
6.6.1	mac	2023-01-01	17:23:49	17:30:18	387983	610071e2de637700bf0cd8fc	618683691	1	practice_z	9	advance_on_keypress_ZEE	14	stimuli_distractor_trianglediamonds.svg	stimuli_target_circlediamonds.svg	10	yes	57	0	266
6.6.1	mac	2023-01-01	17:23:49	17:30:21	390556	610071e2de637700bf0cd8fc	618683691	1	practice_z	9	practice_z	15	stimuli_target_squarediamonds.svg	stimuli_distractor_diamondtriangles.svg	2	yes	44	1	664
6.6.1	mac	2023-01-01	17:23:49	17:30:21	390556	610071e2de637700bf0cd8fc	618683691	1	practice_z	9	advance_on_keypress_ZEE	16	stimuli_target_squarediamonds.svg	stimuli_distractor_diamondtriangles.svg	2	yes	57	0	221
6.6.1	mac	2023-01-01	17:23:49	17:30:23	392866	610071e2de637700bf0cd8fc	618683691	1	practice_z	9	practice_z	17	stimuli_target_circlediamonds.svg	stimuli_distractor_diamondtriangles.svg	1	yes	44	1	451
6.6.1	mac	2023-01-01	17:23:49	17:30:23	392866	610071e2de637700bf0cd8fc	618683691	1	practice_z	9	advance_on_keypress_ZEE	18	stimuli_target_circlediamonds.svg	stimuli_distractor_diamondtriangles.svg	1	yes	57	0	237
6.6.1	mac	2023-01-01	17:23:49	17:30:26	395374	610071e2de637700bf0cd8fc	618683691	1	practice_z	9	practice_z	19	stimuli_distractor_diamondtriangles.svg	stimuli_target_diamondcircles.svg	8	yes	44	1	636
6.6.1	mac	2023-01-01	17:23:49	17:30:26	395374	610071e2de637700bf0cd8fc	618683691	1	practice_z	9	advance_on_keypress_ZEE	20	stimuli_distractor_diamondtriangles.svg	stimuli_target_diamondcircles.svg	8	yes	57	0	194
6.6.1	mac	2023-01-01	17:23:49	17:30:28	397817	610071e2de637700bf0cd8fc	618683691	1	practice_z	9	practice_z	21	stimuli_distractor_diamondtriangles.svg	stimuli_target_circletriangles.svg	7	yes	44	1	607
6.6.1	mac	2023-01-01	17:23:49	17:30:28	397817	610071e2de637700bf0cd8fc	618683691	1	practice_z	9	advance_on_keypress_ZEE	22	stimuli_distractor_diamondtriangles.svg	stimuli_target_circletriangles.svg	7	yes	57	0	77
6.6.1	mac	2023-01-01	17:23:49	17:30:32	401531	610071e2de637700bf0cd8fc	618683691	1	practice_z	9	practice_z	23	stimuli_target_diamondsquares.svg	stimuli_distractor_trianglediamonds.svg	6	yes	0	0	2000
6.6.1	mac	2023-01-01	17:23:49	17:30:32	401531	610071e2de637700bf0cd8fc	618683691	1	practice_z	9	advance_on_keypress_ZEE	24	stimuli_target_diamondsquares.svg	stimuli_distractor_trianglediamonds.svg	6	yes	57	0	133
6.6.1	mac	2023-01-01	17:23:49	17:30:34	403802	610071e2de637700bf0cd8fc	618683691	1	practice_z	9	practice_z	25	stimuli_distractor_trianglediamonds.svg	stimuli_target_squarediamonds.svg	11	yes	44	1	505
6.6.1	mac	2023-01-01	17:23:49	17:30:34	403802	610071e2de637700bf0cd8fc	618683691	1	practice_z	9	advance_on_keypress_ZEE	26	stimuli_distractor_trianglediamonds.svg	stimuli_target_squarediamonds.svg	11	yes	57	0	267
6.6.1	mac	2023-01-01	17:23:49	17:30:38	407697	610071e2de637700bf0cd8fc	618683691	1	practice_z	9	practice_z	27	stimuli_distractor_trianglediamonds.svg	stimuli_distractor_diamondtriangles.svg	16	no	0	1	2000
6.6.1	mac	2023-01-01	17:23:49	17:30:38	407697	610071e2de637700bf0cd8fc	618683691	1	practice_z	9	advance_on_keypress_ZEE	28	stimuli_distractor_trianglediamonds.svg	stimuli_distractor_diamondtriangles.svg	16	no	57	0	260
6.6.1	mac	2023-01-01	17:23:49	17:30:40	409979	610071e2de637700bf0cd8fc	618683691	1	practice_z	9	practice_z	29	stimuli_distractor_trianglediamonds.svg	stimuli_target_diamondcircles.svg	12	yes	44	1	386
6.6.1	mac	2023-01-01	17:23:49	17:30:40	409979	610071e2de637700bf0cd8fc	618683691	1	practice_z	9	advance_on_keypress_ZEE	30	stimuli_distractor_trianglediamonds.svg	stimuli_target_diamondcircles.svg	12	yes	57	0	219
6.6.1	mac	2023-01-01	17:23:49	17:30:43	412437	610071e2de637700bf0cd8fc	618683691	1	practice_z	9	practice_z	31	stimuli_target_squarediamonds.svg	stimuli_distractor_trianglediamonds.svg	5	yes	44	1	602
6.6.1	mac	2023-01-01	17:23:49	17:30:43	412437	610071e2de637700bf0cd8fc	618683691	1	practice_z	9	advance_on_keypress_ZEE	32	stimuli_target_squarediamonds.svg	stimuli_distractor_trianglediamonds.svg	5	yes	57	0	302
6.6.1	mac	2023-01-01	17:23:49	17:30:48	417308	610071e2de637700bf0cd8fc	618683691	1	main_z	11	main_z	1	stimuli_distractor_diamondtriangles.svg	stimuli_distractor_diamondtriangles.svg	39	no	0	1	2000
6.6.1	mac	2023-01-01	17:23:49	17:30:48	417308	610071e2de637700bf0cd8fc	618683691	1	main_z	11	advance_on_keypress_ZEE	2	stimuli_distractor_diamondtriangles.svg	stimuli_distractor_diamondtriangles.svg	39	no	57	0	544
6.6.1	mac	2023-01-01	17:23:49	17:30:49	419031	610071e2de637700bf0cd8fc	618683691	1	main_z	11	main_z	3	stimuli_target_squaretriangles.svg	stimuli_distractor_trianglediamonds.svg	3	yes	44	1	529
6.6.1	mac	2023-01-01	17:23:49	17:30:49	419031	610071e2de637700bf0cd8fc	618683691	1	main_z	11	advance_on_keypress_ZEE	4	stimuli_target_squaretriangles.svg	stimuli_distractor_trianglediamonds.svg	3	yes	57	0	387
6.6.1	mac	2023-01-01	17:23:49	17:30:51	420474	610071e2de637700bf0cd8fc	618683691	1	main_z	11	main_z	5	stimuli_distractor_diamondtriangles.svg	stimuli_target_squaretriangles.svg	15	yes	44	1	418
6.6.1	mac	2023-01-01	17:23:49	17:30:51	420474	610071e2de637700bf0cd8fc	618683691	1	main_z	11	advance_on_keypress_ZEE	6	stimuli_distractor_diamondtriangles.svg	stimuli_target_squaretriangles.svg	15	yes	57	0	289
6.6.1	mac	2023-01-01	17:23:49	17:30:52	421771	610071e2de637700bf0cd8fc	618683691	1	main_z	11	main_z	7	stimuli_target_squarediamonds.svg	stimuli_distractor_diamondtriangles.svg	8	yes	44	1	376
6.6.1	mac	2023-01-01	17:23:49	17:30:52	421771	610071e2de637700bf0cd8fc	618683691	1	main_z	11	advance_on_keypress_ZEE	8	stimuli_target_squarediamonds.svg	stimuli_distractor_diamondtriangles.svg	8	yes	57	0	242
6.6.1	mac	2023-01-01	17:23:49	17:30:53	422982	610071e2de637700bf0cd8fc	618683691	1	main_z	11	main_z	9	stimuli_target_circletriangles.svg	stimuli_distractor_trianglediamonds.svg	1	yes	44	1	318
6.6.1	mac	2023-01-01	17:23:49	17:30:53	422982	610071e2de637700bf0cd8fc	618683691	1	main_z	11	advance_on_keypress_ZEE	10	stimuli_target_circletriangles.svg	stimuli_distractor_trianglediamonds.svg	1	yes	57	0	276
6.6.1	mac	2023-01-01	17:23:49	17:30:56	425898	610071e2de637700bf0cd8fc	618683691	1	main_z	11	main_z	11	stimuli_distractor_diamondtriangles.svg	stimuli_distractor_diamondtriangles.svg	40	no	0	1	2000
6.6.1	mac	2023-01-01	17:23:49	17:30:56	425898	610071e2de637700bf0cd8fc	618683691	1	main_z	11	advance_on_keypress_ZEE	12	stimuli_distractor_diamondtriangles.svg	stimuli_distractor_diamondtriangles.svg	40	no	57	0	240
6.6.1	mac	2023-01-01	17:23:49	17:30:57	427140	610071e2de637700bf0cd8fc	618683691	1	main_z	11	main_z	13	stimuli_target_trianglesquares.svg	stimuli_distractor_diamondtriangles.svg	22	yes	44	1	384
6.6.1	mac	2023-01-01	17:23:49	17:30:57	427140	610071e2de637700bf0cd8fc	618683691	1	main_z	11	advance_on_keypress_ZEE	14	stimuli_target_trianglesquares.svg	stimuli_distractor_diamondtriangles.svg	22	yes	57	0	929
6.6.1	mac	2023-01-01	17:23:49	17:30:59	429003	610071e2de637700bf0cd8fc	618683691	1	main_z	11	main_z	15	stimuli_target_diamondcircles.svg	stimuli_distractor_diamondtriangles.svg	23	yes	44	1	289
6.6.1	mac	2023-01-01	17:23:49	17:30:59	429003	610071e2de637700bf0cd8fc	618683691	1	main_z	11	advance_on_keypress_ZEE	16	stimuli_target_diamondcircles.svg	stimuli_distractor_diamondtriangles.svg	23	yes	57	0	477
6.6.1	mac	2023-01-01	17:23:49	17:31:01	430497	610071e2de637700bf0cd8fc	618683691	1	main_z	11	main_z	17	stimuli_distractor_trianglediamonds.svg	stimuli_target_diamondsquares.svg	28	yes	44	1	379
6.6.1	mac	2023-01-01	17:23:49	17:31:01	430497	610071e2de637700bf0cd8fc	618683691	1	main_z	11	advance_on_keypress_ZEE	18	stimuli_distractor_trianglediamonds.svg	stimuli_target_diamondsquares.svg	28	yes	57	0	448
6.6.1	mac	2023-01-01	17:23:49	17:31:02	432020	610071e2de637700bf0cd8fc	618683691	1	main_z	11	main_z	19	stimuli_distractor_trianglediamonds.svg	stimuli_target_trianglecircles.svg	25	yes	44	1	433
6.6.1	mac	2023-01-01	17:23:49	17:31:02	432020	610071e2de637700bf0cd8fc	618683691	1	main_z	11	advance_on_keypress_ZEE	20	stimuli_distractor_trianglediamonds.svg	stimuli_target_trianglecircles.svg	25	yes	57	0	325
6.6.1	mac	2023-01-01	17:23:49	17:31:04	433448	610071e2de637700bf0cd8fc	618683691	1	main_z	11	main_z	21	stimuli_distractor_trianglediamonds.svg	stimuli_target_trianglesquares.svg	26	yes	44	1	457
6.6.1	mac	2023-01-01	17:23:49	17:31:04	433448	610071e2de637700bf0cd8fc	618683691	1	main_z	11	advance_on_keypress_ZEE	22	stimuli_distractor_trianglediamonds.svg	stimuli_target_trianglesquares.svg	26	yes	57	0	333
6.6.1	mac	2023-01-01	17:23:49	17:31:05	434795	610071e2de637700bf0cd8fc	618683691	1	main_z	11	main_z	23	stimuli_target_diamondcircles.svg	stimuli_distractor_trianglediamonds.svg	19	yes	44	1	382
6.6.1	mac	2023-01-01	17:23:49	17:31:05	434795	610071e2de637700bf0cd8fc	618683691	1	main_z	11	advance_on_keypress_ZEE	24	stimuli_target_diamondcircles.svg	stimuli_distractor_trianglediamonds.svg	19	yes	57	0	491
6.6.1	mac	2023-01-01	17:23:49	17:31:08	437929	610071e2de637700bf0cd8fc	618683691	1	main_z	11	main_z	25	stimuli_distractor_trianglediamonds.svg	stimuli_distractor_trianglediamonds.svg	34	no	0	1	2000
6.6.1	mac	2023-01-01	17:23:49	17:31:08	437929	610071e2de637700bf0cd8fc	618683691	1	main_z	11	advance_on_keypress_ZEE	26	stimuli_distractor_trianglediamonds.svg	stimuli_distractor_trianglediamonds.svg	34	no	57	0	457
6.6.1	mac	2023-01-01	17:23:49	17:31:10	439561	610071e2de637700bf0cd8fc	618683691	1	main_z	11	main_z	27	stimuli_target_diamondsquares.svg	stimuli_distractor_trianglediamonds.svg	20	yes	44	1	521
6.6.1	mac	2023-01-01	17:23:49	17:31:10	439561	610071e2de637700bf0cd8fc	618683691	1	main_z	11	advance_on_keypress_ZEE	28	stimuli_target_diamondsquares.svg	stimuli_distractor_trianglediamonds.svg	20	yes	57	0	594
6.6.1	mac	2023-01-01	17:23:49	17:31:12	441651	610071e2de637700bf0cd8fc	618683691	1	main_z	11	main_z	29	stimuli_distractor_diamondtriangles.svg	stimuli_target_circletriangles.svg	13	yes	44	1	854
6.6.1	mac	2023-01-01	17:23:49	17:31:12	441651	610071e2de637700bf0cd8fc	618683691	1	main_z	11	advance_on_keypress_ZEE	30	stimuli_distractor_diamondtriangles.svg	stimuli_target_circletriangles.svg	13	yes	57	0	295
6.6.1	mac	2023-01-01	17:23:49	17:31:13	443083	610071e2de637700bf0cd8fc	618683691	1	main_z	11	main_z	31	stimuli_target_circlediamonds.svg	stimuli_distractor_diamondtriangles.svg	6	yes	44	1	497
6.6.1	mac	2023-01-01	17:23:49	17:31:13	443083	610071e2de637700bf0cd8fc	618683691	1	main_z	11	advance_on_keypress_ZEE	32	stimuli_target_circlediamonds.svg	stimuli_distractor_diamondtriangles.svg	6	yes	57	0	270
6.6.1	mac	2023-01-01	17:23:49	17:31:15	444451	610071e2de637700bf0cd8fc	618683691	1	main_z	11	main_z	33	stimuli_distractor_diamondtriangles.svg	stimuli_target_diamondcircles.svg	31	yes	44	1	464
6.6.1	mac	2023-01-01	17:23:49	17:31:15	444451	610071e2de637700bf0cd8fc	618683691	1	main_z	11	advance_on_keypress_ZEE	34	stimuli_distractor_diamondtriangles.svg	stimuli_target_diamondcircles.svg	31	yes	57	0	345
6.6.1	mac	2023-01-01	17:23:49	17:31:16	445886	610071e2de637700bf0cd8fc	618683691	1	main_z	11	main_z	35	stimuli_target_trianglecircles.svg	stimuli_distractor_diamondtriangles.svg	21	yes	44	1	444
6.6.1	mac	2023-01-01	17:23:49	17:31:16	445886	610071e2de637700bf0cd8fc	618683691	1	main_z	11	advance_on_keypress_ZEE	36	stimuli_target_trianglecircles.svg	stimuli_distractor_diamondtriangles.svg	21	yes	57	0	367
6.6.1	mac	2023-01-01	17:23:49	17:31:17	447187	610071e2de637700bf0cd8fc	618683691	1	main_z	11	main_z	37	stimuli_distractor_diamondtriangles.svg	stimuli_distractor_trianglediamonds.svg	37	no	44	0	292
6.6.1	mac	2023-01-01	17:23:49	17:31:17	447187	610071e2de637700bf0cd8fc	618683691	1	main_z	11	advance_on_keypress_ZEE	38	stimuli_distractor_diamondtriangles.svg	stimuli_distractor_trianglediamonds.svg	37	no	57	0	574
6.6.1	mac	2023-01-01	17:23:49	17:31:19	448864	610071e2de637700bf0cd8fc	618683691	1	main_z	11	main_z	39	stimuli_distractor_trianglediamonds.svg	stimuli_target_diamondcircles.svg	27	yes	44	1	448
6.6.1	mac	2023-01-01	17:23:49	17:31:19	448864	610071e2de637700bf0cd8fc	618683691	1	main_z	11	advance_on_keypress_ZEE	40	stimuli_distractor_trianglediamonds.svg	stimuli_target_diamondcircles.svg	27	yes	57	0	454
6.6.1	mac	2023-01-01	17:23:49	17:31:21	450473	610071e2de637700bf0cd8fc	618683691	1	main_z	11	main_z	41	stimuli_target_trianglesquares.svg	stimuli_distractor_trianglediamonds.svg	18	yes	44	1	521
6.6.1	mac	2023-01-01	17:23:49	17:31:21	450473	610071e2de637700bf0cd8fc	618683691	1	main_z	11	advance_on_keypress_ZEE	42	stimuli_target_trianglesquares.svg	stimuli_distractor_trianglediamonds.svg	18	yes	57	0	323
6.6.1	mac	2023-01-01	17:23:49	17:31:23	452341	610071e2de637700bf0cd8fc	618683691	1	main_z	11	main_z	43	stimuli_target_squaretriangles.svg	stimuli_distractor_diamondtriangles.svg	7	yes	44	1	917
6.6.1	mac	2023-01-01	17:23:49	17:31:23	452341	610071e2de637700bf0cd8fc	618683691	1	main_z	11	advance_on_keypress_ZEE	44	stimuli_target_squaretriangles.svg	stimuli_distractor_diamondtriangles.svg	7	yes	57	0	247
6.6.1	mac	2023-01-01	17:23:49	17:31:24	453740	610071e2de637700bf0cd8fc	618683691	1	main_z	11	main_z	45	stimuli_distractor_trianglediamonds.svg	stimuli_target_squaretriangles.svg	11	yes	44	1	511
6.6.1	mac	2023-01-01	17:23:49	17:31:24	453740	610071e2de637700bf0cd8fc	618683691	1	main_z	11	advance_on_keypress_ZEE	46	stimuli_distractor_trianglediamonds.svg	stimuli_target_squaretriangles.svg	11	yes	57	0	662
6.6.1	mac	2023-01-01	17:23:49	17:31:26	455487	610071e2de637700bf0cd8fc	618683691	1	main_z	11	main_z	47	stimuli_distractor_diamondtriangles.svg	stimuli_target_squarediamonds.svg	16	yes	44	1	436
6.6.1	mac	2023-01-01	17:23:49	17:31:26	455487	610071e2de637700bf0cd8fc	618683691	1	main_z	11	advance_on_keypress_ZEE	48	stimuli_distractor_diamondtriangles.svg	stimuli_target_squarediamonds.svg	16	yes	57	0	596
6.6.1	mac	2023-01-01	17:23:49	17:31:28	457527	610071e2de637700bf0cd8fc	618683691	1	main_z	11	main_z	49	stimuli_target_squarediamonds.svg	stimuli_distractor_trianglediamonds.svg	4	yes	44	1	805
6.6.1	mac	2023-01-01	17:23:49	17:31:28	457527	610071e2de637700bf0cd8fc	618683691	1	main_z	11	advance_on_keypress_ZEE	50	stimuli_target_squarediamonds.svg	stimuli_distractor_trianglediamonds.svg	4	yes	57	0	234
6.6.1	mac	2023-01-01	17:23:49	17:31:30	459296	610071e2de637700bf0cd8fc	618683691	1	main_z	11	main_z	51	stimuli_distractor_diamondtriangles.svg	stimuli_target_diamondsquares.svg	32	yes	44	1	903
6.6.1	mac	2023-01-01	17:23:49	17:31:30	459296	610071e2de637700bf0cd8fc	618683691	1	main_z	11	advance_on_keypress_ZEE	52	stimuli_distractor_diamondtriangles.svg	stimuli_target_diamondsquares.svg	32	yes	57	0	299
6.6.1	mac	2023-01-01	17:23:49	17:31:31	460827	610071e2de637700bf0cd8fc	618683691	1	main_z	11	main_z	53	stimuli_distractor_trianglediamonds.svg	stimuli_target_circletriangles.svg	9	yes	44	1	596
6.6.1	mac	2023-01-01	17:23:49	17:31:31	460827	610071e2de637700bf0cd8fc	618683691	1	main_z	11	advance_on_keypress_ZEE	54	stimuli_distractor_trianglediamonds.svg	stimuli_target_circletriangles.svg	9	yes	57	0	222
6.6.1	mac	2023-01-01	17:23:49	17:31:32	462103	610071e2de637700bf0cd8fc	618683691	1	main_z	11	main_z	55	stimuli_target_circletriangles.svg	stimuli_distractor_diamondtriangles.svg	5	yes	44	1	401
6.6.1	mac	2023-01-01	17:23:49	17:31:32	462103	610071e2de637700bf0cd8fc	618683691	1	main_z	11	advance_on_keypress_ZEE	56	stimuli_target_circletriangles.svg	stimuli_distractor_diamondtriangles.svg	5	yes	57	0	237
6.6.1	mac	2023-01-01	17:23:49	17:31:35	464969	610071e2de637700bf0cd8fc	618683691	1	main_z	11	main_z	57	stimuli_distractor_trianglediamonds.svg	stimuli_distractor_diamondtriangles.svg	35	no	0	1	2000
6.6.1	mac	2023-01-01	17:23:49	17:31:35	464969	610071e2de637700bf0cd8fc	618683691	1	main_z	11	advance_on_keypress_ZEE	58	stimuli_distractor_trianglediamonds.svg	stimuli_distractor_diamondtriangles.svg	35	no	57	0	328
6.6.1	mac	2023-01-01	17:23:49	17:31:37	466414	610071e2de637700bf0cd8fc	618683691	1	main_z	11	main_z	59	stimuli_target_trianglecircles.svg	stimuli_distractor_trianglediamonds.svg	17	yes	44	1	468
6.6.1	mac	2023-01-01	17:23:49	17:31:37	466414	610071e2de637700bf0cd8fc	618683691	1	main_z	11	advance_on_keypress_ZEE	60	stimuli_target_trianglecircles.svg	stimuli_distractor_trianglediamonds.svg	17	yes	57	0	373
6.6.1	mac	2023-01-01	17:23:49	17:31:38	467902	610071e2de637700bf0cd8fc	618683691	1	main_z	11	main_z	61	stimuli_distractor_diamondtriangles.svg	stimuli_target_trianglecircles.svg	29	yes	44	1	468
6.6.1	mac	2023-01-01	17:23:49	17:31:38	467902	610071e2de637700bf0cd8fc	618683691	1	main_z	11	advance_on_keypress_ZEE	62	stimuli_distractor_diamondtriangles.svg	stimuli_target_trianglecircles.svg	29	yes	57	0	327
6.6.1	mac	2023-01-01	17:23:49	17:31:41	470867	610071e2de637700bf0cd8fc	618683691	1	main_z	11	main_z	63	stimuli_distractor_trianglediamonds.svg	stimuli_distractor_diamondtriangles.svg	36	no	0	1	2000
6.6.1	mac	2023-01-01	17:23:49	17:31:41	470867	610071e2de637700bf0cd8fc	618683691	1	main_z	11	advance_on_keypress_ZEE	64	stimuli_distractor_trianglediamonds.svg	stimuli_distractor_diamondtriangles.svg	36	no	57	0	313
6.6.1	mac	2023-01-01	17:23:49	17:31:42	472221	610071e2de637700bf0cd8fc	618683691	1	main_z	11	main_z	65	stimuli_target_circlediamonds.svg	stimuli_distractor_trianglediamonds.svg	2	yes	44	1	391
6.6.1	mac	2023-01-01	17:23:49	17:31:42	472221	610071e2de637700bf0cd8fc	618683691	1	main_z	11	advance_on_keypress_ZEE	66	stimuli_target_circlediamonds.svg	stimuli_distractor_trianglediamonds.svg	2	yes	57	0	248
6.6.1	mac	2023-01-01	17:23:49	17:31:44	473641	610071e2de637700bf0cd8fc	618683691	1	main_z	11	main_z	67	stimuli_target_diamondsquares.svg	stimuli_distractor_diamondtriangles.svg	24	yes	44	1	526
6.6.1	mac	2023-01-01	17:23:49	17:31:44	473641	610071e2de637700bf0cd8fc	618683691	1	main_z	11	advance_on_keypress_ZEE	68	stimuli_target_diamondsquares.svg	stimuli_distractor_diamondtriangles.svg	24	yes	57	0	223
6.6.1	mac	2023-01-01	17:23:49	17:31:45	474954	610071e2de637700bf0cd8fc	618683691	1	main_z	11	main_z	69	stimuli_distractor_diamondtriangles.svg	stimuli_target_circlediamonds.svg	14	yes	44	1	434
6.6.1	mac	2023-01-01	17:23:49	17:31:45	474954	610071e2de637700bf0cd8fc	618683691	1	main_z	11	advance_on_keypress_ZEE	70	stimuli_distractor_diamondtriangles.svg	stimuli_target_circlediamonds.svg	14	yes	57	0	333
6.6.1	mac	2023-01-01	17:23:49	17:31:47	476315	610071e2de637700bf0cd8fc	618683691	1	main_z	11	main_z	71	stimuli_distractor_trianglediamonds.svg	stimuli_target_circlediamonds.svg	10	yes	44	1	392
6.6.1	mac	2023-01-01	17:23:49	17:31:47	476315	610071e2de637700bf0cd8fc	618683691	1	main_z	11	advance_on_keypress_ZEE	72	stimuli_distractor_trianglediamonds.svg	stimuli_target_circlediamonds.svg	10	yes	57	0	250
6.6.1	mac	2023-01-01	17:23:49	17:31:48	477782	610071e2de637700bf0cd8fc	618683691	1	main_z	11	main_z	73	stimuli_distractor_diamondtriangles.svg	stimuli_target_trianglesquares.svg	30	yes	44	1	572
6.6.1	mac	2023-01-01	17:23:49	17:31:48	477782	610071e2de637700bf0cd8fc	618683691	1	main_z	11	advance_on_keypress_ZEE	74	stimuli_distractor_diamondtriangles.svg	stimuli_target_trianglesquares.svg	30	yes	57	0	180
6.6.1	mac	2023-01-01	17:23:49	17:31:51	480594	610071e2de637700bf0cd8fc	618683691	1	main_z	11	main_z	75	stimuli_distractor_diamondtriangles.svg	stimuli_distractor_trianglediamonds.svg	38	no	0	1	2000
6.6.1	mac	2023-01-01	17:23:49	17:31:51	480594	610071e2de637700bf0cd8fc	618683691	1	main_z	11	advance_on_keypress_ZEE	76	stimuli_distractor_diamondtriangles.svg	stimuli_distractor_trianglediamonds.svg	38	no	57	0	680
6.6.1	mac	2023-01-01	17:23:49	17:31:53	482408	610071e2de637700bf0cd8fc	618683691	1	main_z	11	main_z	77	stimuli_distractor_trianglediamonds.svg	stimuli_distractor_trianglediamonds.svg	33	no	44	0	485
6.6.1	mac	2023-01-01	17:23:49	17:31:53	482408	610071e2de637700bf0cd8fc	618683691	1	main_z	11	advance_on_keypress_ZEE	78	stimuli_distractor_trianglediamonds.svg	stimuli_distractor_trianglediamonds.svg	33	no	57	0	468
6.6.1	mac	2023-01-01	17:23:49	17:31:54	484157	610071e2de637700bf0cd8fc	618683691	1	main_z	11	main_z	79	stimuli_distractor_trianglediamonds.svg	stimuli_target_squarediamonds.svg	12	yes	44	1	648
6.6.1	mac	2023-01-01	17:23:49	17:31:54	484157	610071e2de637700bf0cd8fc	618683691	1	main_z	11	advance_on_keypress_ZEE	80	stimuli_distractor_trianglediamonds.svg	stimuli_target_squarediamonds.svg	12	yes	57	0	280
6.6.1	mac	2023-01-01	17:23:49	17:31:56	485721	610071e2de637700bf0cd8fc	618683691	1	main_z	11	main_z	81	stimuli_target_squaretriangles.svg	stimuli_distractor_diamondtriangles.svg	7	yes	44	1	640
6.6.1	mac	2023-01-01	17:23:49	17:31:56	485721	610071e2de637700bf0cd8fc	618683691	1	main_z	11	advance_on_keypress_ZEE	82	stimuli_target_squaretriangles.svg	stimuli_distractor_diamondtriangles.svg	7	yes	57	0	192
6.6.1	mac	2023-01-01	17:23:49	17:31:57	487182	610071e2de637700bf0cd8fc	618683691	1	main_z	11	main_z	83	stimuli_distractor_diamondtriangles.svg	stimuli_target_squaretriangles.svg	15	yes	44	1	631
6.6.1	mac	2023-01-01	17:23:49	17:31:57	487182	610071e2de637700bf0cd8fc	618683691	1	main_z	11	advance_on_keypress_ZEE	84	stimuli_distractor_diamondtriangles.svg	stimuli_target_squaretriangles.svg	15	yes	57	0	477
6.6.1	mac	2023-01-01	17:23:49	17:31:59	489189	610071e2de637700bf0cd8fc	618683691	1	main_z	11	main_z	85	stimuli_target_trianglecircles.svg	stimuli_distractor_trianglediamonds.svg	17	yes	44	1	883
6.6.1	mac	2023-01-01	17:23:49	17:31:59	489189	610071e2de637700bf0cd8fc	618683691	1	main_z	11	advance_on_keypress_ZEE	86	stimuli_target_trianglecircles.svg	stimuli_distractor_trianglediamonds.svg	17	yes	57	0	194
6.6.1	mac	2023-01-01	17:23:49	17:32:02	492024	610071e2de637700bf0cd8fc	618683691	1	main_z	11	main_z	87	stimuli_distractor_trianglediamonds.svg	stimuli_distractor_diamondtriangles.svg	36	no	0	1	2000
6.6.1	mac	2023-01-01	17:23:49	17:32:02	492024	610071e2de637700bf0cd8fc	618683691	1	main_z	11	advance_on_keypress_ZEE	88	stimuli_distractor_trianglediamonds.svg	stimuli_distractor_diamondtriangles.svg	36	no	57	0	243
6.6.1	mac	2023-01-01	17:23:49	17:32:04	493387	610071e2de637700bf0cd8fc	618683691	1	main_z	11	main_z	89	stimuli_target_squarediamonds.svg	stimuli_distractor_diamondtriangles.svg	8	yes	44	1	469
6.6.1	mac	2023-01-01	17:23:49	17:32:04	493387	610071e2de637700bf0cd8fc	618683691	1	main_z	11	advance_on_keypress_ZEE	90	stimuli_target_squarediamonds.svg	stimuli_distractor_diamondtriangles.svg	8	yes	57	0	219
6.6.1	mac	2023-01-01	17:23:49	17:32:06	496235	610071e2de637700bf0cd8fc	618683691	1	main_z	11	main_z	91	stimuli_distractor_trianglediamonds.svg	stimuli_distractor_diamondtriangles.svg	35	no	0	1	2000
6.6.1	mac	2023-01-01	17:23:49	17:32:06	496235	610071e2de637700bf0cd8fc	618683691	1	main_z	11	advance_on_keypress_ZEE	92	stimuli_distractor_trianglediamonds.svg	stimuli_distractor_diamondtriangles.svg	35	no	57	0	378
6.6.1	mac	2023-01-01	17:23:49	17:32:08	497684	610071e2de637700bf0cd8fc	618683691	1	main_z	11	main_z	93	stimuli_target_trianglesquares.svg	stimuli_distractor_trianglediamonds.svg	18	yes	44	1	437
6.6.1	mac	2023-01-01	17:23:49	17:32:08	497684	610071e2de637700bf0cd8fc	618683691	1	main_z	11	advance_on_keypress_ZEE	94	stimuli_target_trianglesquares.svg	stimuli_distractor_trianglediamonds.svg	18	yes	57	0	156
6.6.1	mac	2023-01-01	17:23:49	17:32:09	498897	610071e2de637700bf0cd8fc	618683691	1	main_z	11	main_z	95	stimuli_distractor_diamondtriangles.svg	stimuli_distractor_trianglediamonds.svg	37	no	44	0	413
6.6.1	mac	2023-01-01	17:23:49	17:32:09	498897	610071e2de637700bf0cd8fc	618683691	1	main_z	11	advance_on_keypress_ZEE	96	stimuli_distractor_diamondtriangles.svg	stimuli_distractor_trianglediamonds.svg	37	no	57	0	322
6.6.1	mac	2023-01-01	17:23:49	17:32:12	501850	610071e2de637700bf0cd8fc	618683691	1	main_z	11	main_z	97	stimuli_distractor_diamondtriangles.svg	stimuli_distractor_diamondtriangles.svg	40	no	0	1	2000
6.6.1	mac	2023-01-01	17:23:49	17:32:12	501850	610071e2de637700bf0cd8fc	618683691	1	main_z	11	advance_on_keypress_ZEE	98	stimuli_distractor_diamondtriangles.svg	stimuli_distractor_diamondtriangles.svg	40	no	57	0	286
6.6.1	mac	2023-01-01	17:23:49	17:32:14	503254	610071e2de637700bf0cd8fc	618683691	1	main_z	11	main_z	99	stimuli_distractor_trianglediamonds.svg	stimuli_target_squarediamonds.svg	12	yes	44	1	476
6.6.1	mac	2023-01-01	17:23:49	17:32:14	503254	610071e2de637700bf0cd8fc	618683691	1	main_z	11	advance_on_keypress_ZEE	100	stimuli_distractor_trianglediamonds.svg	stimuli_target_squarediamonds.svg	12	yes	57	0	209
6.6.1	mac	2023-01-01	17:23:49	17:32:15	504681	610071e2de637700bf0cd8fc	618683691	1	main_z	11	main_z	101	stimuli_distractor_diamondtriangles.svg	stimuli_target_trianglesquares.svg	30	yes	44	1	599
6.6.1	mac	2023-01-01	17:23:49	17:32:15	504681	610071e2de637700bf0cd8fc	618683691	1	main_z	11	advance_on_keypress_ZEE	102	stimuli_distractor_diamondtriangles.svg	stimuli_target_trianglesquares.svg	30	yes	57	0	217
6.6.1	mac	2023-01-01	17:23:49	17:32:16	505994	610071e2de637700bf0cd8fc	618683691	1	main_z	11	main_z	103	stimuli_distractor_diamondtriangles.svg	stimuli_target_diamondcircles.svg	31	yes	44	1	459
6.6.1	mac	2023-01-01	17:23:49	17:32:16	505994	610071e2de637700bf0cd8fc	618683691	1	main_z	11	advance_on_keypress_ZEE	104	stimuli_distractor_diamondtriangles.svg	stimuli_target_diamondcircles.svg	31	yes	57	0	168
6.6.1	mac	2023-01-01	17:23:49	17:32:18	507512	610071e2de637700bf0cd8fc	618683691	1	main_z	11	main_z	105	stimuli_distractor_trianglediamonds.svg	stimuli_target_circlediamonds.svg	10	yes	44	1	708
6.6.1	mac	2023-01-01	17:23:49	17:32:18	507512	610071e2de637700bf0cd8fc	618683691	1	main_z	11	advance_on_keypress_ZEE	106	stimuli_distractor_trianglediamonds.svg	stimuli_target_circlediamonds.svg	10	yes	57	0	174
6.6.1	mac	2023-01-01	17:23:49	17:32:19	508898	610071e2de637700bf0cd8fc	618683691	1	main_z	11	main_z	107	stimuli_distractor_trianglediamonds.svg	stimuli_target_trianglecircles.svg	25	yes	44	1	572
6.6.1	mac	2023-01-01	17:23:49	17:32:19	508898	610071e2de637700bf0cd8fc	618683691	1	main_z	11	advance_on_keypress_ZEE	108	stimuli_distractor_trianglediamonds.svg	stimuli_target_trianglecircles.svg	25	yes	57	0	180
6.6.1	mac	2023-01-01	17:23:49	17:32:22	511710	610071e2de637700bf0cd8fc	618683691	1	main_z	11	main_z	109	stimuli_distractor_trianglediamonds.svg	stimuli_target_diamondsquares.svg	28	yes	0	0	2000
6.6.1	mac	2023-01-01	17:23:49	17:32:22	511710	610071e2de637700bf0cd8fc	618683691	1	main_z	11	advance_on_keypress_ZEE	110	stimuli_distractor_trianglediamonds.svg	stimuli_target_diamondsquares.svg	28	yes	57	0	324
6.6.1	mac	2023-01-01	17:23:49	17:32:24	513258	610071e2de637700bf0cd8fc	618683691	1	main_z	11	main_z	111	stimuli_target_trianglesquares.svg	stimuli_distractor_diamondtriangles.svg	22	yes	44	1	569
6.6.1	mac	2023-01-01	17:23:49	17:32:24	513258	610071e2de637700bf0cd8fc	618683691	1	main_z	11	advance_on_keypress_ZEE	112	stimuli_target_trianglesquares.svg	stimuli_distractor_diamondtriangles.svg	22	yes	57	0	1070
6.6.1	mac	2023-01-01	17:23:49	17:32:26	515353	610071e2de637700bf0cd8fc	618683691	1	main_z	11	main_z	113	stimuli_target_circlediamonds.svg	stimuli_distractor_diamondtriangles.svg	6	yes	44	1	394
6.6.1	mac	2023-01-01	17:23:49	17:32:26	515353	610071e2de637700bf0cd8fc	618683691	1	main_z	11	advance_on_keypress_ZEE	114	stimuli_target_circlediamonds.svg	stimuli_distractor_diamondtriangles.svg	6	yes	57	0	479
6.6.1	mac	2023-01-01	17:23:49	17:32:27	517138	610071e2de637700bf0cd8fc	618683691	1	main_z	11	main_z	115	stimuli_distractor_diamondtriangles.svg	stimuli_target_circlediamonds.svg	14	yes	44	1	657
6.6.1	mac	2023-01-01	17:23:49	17:32:27	517138	610071e2de637700bf0cd8fc	618683691	1	main_z	11	advance_on_keypress_ZEE	116	stimuli_distractor_diamondtriangles.svg	stimuli_target_circlediamonds.svg	14	yes	57	0	421
6.6.1	mac	2023-01-01	17:23:49	17:32:29	518666	610071e2de637700bf0cd8fc	618683691	1	main_z	11	main_z	117	stimuli_distractor_diamondtriangles.svg	stimuli_target_squarediamonds.svg	16	yes	44	1	481
6.6.1	mac	2023-01-01	17:23:49	17:32:29	518666	610071e2de637700bf0cd8fc	618683691	1	main_z	11	advance_on_keypress_ZEE	118	stimuli_distractor_diamondtriangles.svg	stimuli_target_squarediamonds.svg	16	yes	57	0	203
6.6.1	mac	2023-01-01	17:23:49	17:32:30	520008	610071e2de637700bf0cd8fc	618683691	1	main_z	11	main_z	119	stimuli_target_diamondsquares.svg	stimuli_distractor_diamondtriangles.svg	24	yes	44	1	501
6.6.1	mac	2023-01-01	17:23:49	17:32:30	520008	610071e2de637700bf0cd8fc	618683691	1	main_z	11	advance_on_keypress_ZEE	120	stimuli_target_diamondsquares.svg	stimuli_distractor_diamondtriangles.svg	24	yes	57	0	238
6.6.1	mac	2023-01-01	17:23:49	17:32:31	521221	610071e2de637700bf0cd8fc	618683691	1	main_z	11	main_z	121	stimuli_target_circletriangles.svg	stimuli_distractor_trianglediamonds.svg	1	yes	44	1	345
6.6.1	mac	2023-01-01	17:23:49	17:32:31	521221	610071e2de637700bf0cd8fc	618683691	1	main_z	11	advance_on_keypress_ZEE	122	stimuli_target_circletriangles.svg	stimuli_distractor_trianglediamonds.svg	1	yes	57	0	233
6.6.1	mac	2023-01-01	17:23:49	17:32:33	522471	610071e2de637700bf0cd8fc	618683691	1	main_z	11	main_z	123	stimuli_target_diamondcircles.svg	stimuli_distractor_diamondtriangles.svg	23	yes	44	1	374
6.6.1	mac	2023-01-01	17:23:49	17:32:33	522471	610071e2de637700bf0cd8fc	618683691	1	main_z	11	advance_on_keypress_ZEE	124	stimuli_target_diamondcircles.svg	stimuli_distractor_diamondtriangles.svg	23	yes	57	0	201
6.6.1	mac	2023-01-01	17:23:49	17:32:34	523593	610071e2de637700bf0cd8fc	618683691	1	main_z	11	main_z	125	stimuli_target_circletriangles.svg	stimuli_distractor_diamondtriangles.svg	5	yes	44	1	294
6.6.1	mac	2023-01-01	17:23:49	17:32:34	523593	610071e2de637700bf0cd8fc	618683691	1	main_z	11	advance_on_keypress_ZEE	126	stimuli_target_circletriangles.svg	stimuli_distractor_diamondtriangles.svg	5	yes	57	0	131
6.6.1	mac	2023-01-01	17:23:49	17:32:35	524723	610071e2de637700bf0cd8fc	618683691	1	main_z	11	main_z	127	stimuli_target_diamondcircles.svg	stimuli_distractor_trianglediamonds.svg	19	yes	44	1	354
6.6.1	mac	2023-01-01	17:23:49	17:32:35	524723	610071e2de637700bf0cd8fc	618683691	1	main_z	11	advance_on_keypress_ZEE	128	stimuli_target_diamondcircles.svg	stimuli_distractor_trianglediamonds.svg	19	yes	57	0	130
6.6.1	mac	2023-01-01	17:23:49	17:32:36	525849	610071e2de637700bf0cd8fc	618683691	1	main_z	11	main_z	129	stimuli_distractor_trianglediamonds.svg	stimuli_distractor_trianglediamonds.svg	33	no	44	0	360
6.6.1	mac	2023-01-01	17:23:49	17:32:36	525849	610071e2de637700bf0cd8fc	618683691	1	main_z	11	advance_on_keypress_ZEE	130	stimuli_distractor_trianglediamonds.svg	stimuli_distractor_trianglediamonds.svg	33	no	57	0	737
6.6.1	mac	2023-01-01	17:23:49	17:32:38	527751	610071e2de637700bf0cd8fc	618683691	1	main_z	11	main_z	131	stimuli_target_circlediamonds.svg	stimuli_distractor_trianglediamonds.svg	2	yes	44	1	524
6.6.1	mac	2023-01-01	17:23:49	17:32:38	527751	610071e2de637700bf0cd8fc	618683691	1	main_z	11	advance_on_keypress_ZEE	132	stimuli_target_circlediamonds.svg	stimuli_distractor_trianglediamonds.svg	2	yes	57	0	523
6.6.1	mac	2023-01-01	17:23:49	17:32:40	529386	610071e2de637700bf0cd8fc	618683691	1	main_z	11	main_z	133	stimuli_distractor_diamondtriangles.svg	stimuli_target_diamondsquares.svg	32	yes	44	1	470
6.6.1	mac	2023-01-01	17:23:49	17:32:40	529386	610071e2de637700bf0cd8fc	618683691	1	main_z	11	advance_on_keypress_ZEE	134	stimuli_distractor_diamondtriangles.svg	stimuli_target_diamondsquares.svg	32	yes	57	0	210
6.6.1	mac	2023-01-01	17:23:49	17:32:41	530995	610071e2de637700bf0cd8fc	618683691	1	main_z	11	main_z	135	stimuli_distractor_trianglediamonds.svg	stimuli_target_squaretriangles.svg	11	yes	44	1	760
6.6.1	mac	2023-01-01	17:23:49	17:32:41	530995	610071e2de637700bf0cd8fc	618683691	1	main_z	11	advance_on_keypress_ZEE	136	stimuli_distractor_trianglediamonds.svg	stimuli_target_squaretriangles.svg	11	yes	57	0	75
6.6.1	mac	2023-01-01	17:23:49	17:32:43	532346	610071e2de637700bf0cd8fc	618683691	1	main_z	11	main_z	137	stimuli_target_squaretriangles.svg	stimuli_distractor_trianglediamonds.svg	3	yes	44	1	623
6.6.1	mac	2023-01-01	17:23:49	17:32:43	532346	610071e2de637700bf0cd8fc	618683691	1	main_z	11	advance_on_keypress_ZEE	138	stimuli_target_squaretriangles.svg	stimuli_distractor_trianglediamonds.svg	3	yes	57	0	78
6.6.1	mac	2023-01-01	17:23:49	17:32:45	535056	610071e2de637700bf0cd8fc	618683691	1	main_z	11	main_z	139	stimuli_distractor_trianglediamonds.svg	stimuli_distractor_trianglediamonds.svg	34	no	0	1	2000
6.6.1	mac	2023-01-01	17:23:49	17:32:45	535056	610071e2de637700bf0cd8fc	618683691	1	main_z	11	advance_on_keypress_ZEE	140	stimuli_distractor_trianglediamonds.svg	stimuli_distractor_trianglediamonds.svg	34	no	57	0	428
6.6.1	mac	2023-01-01	17:23:49	17:32:47	536457	610071e2de637700bf0cd8fc	618683691	1	main_z	11	main_z	141	stimuli_target_trianglecircles.svg	stimuli_distractor_diamondtriangles.svg	21	yes	44	1	339
6.6.1	mac	2023-01-01	17:23:49	17:32:47	536457	610071e2de637700bf0cd8fc	618683691	1	main_z	11	advance_on_keypress_ZEE	142	stimuli_target_trianglecircles.svg	stimuli_distractor_diamondtriangles.svg	21	yes	57	0	113
6.6.1	mac	2023-01-01	17:23:49	17:32:49	539200	610071e2de637700bf0cd8fc	618683691	1	main_z	11	main_z	143	stimuli_distractor_diamondtriangles.svg	stimuli_distractor_trianglediamonds.svg	38	no	0	1	2000
6.6.1	mac	2023-01-01	17:23:49	17:32:49	539200	610071e2de637700bf0cd8fc	618683691	1	main_z	11	advance_on_keypress_ZEE	144	stimuli_distractor_diamondtriangles.svg	stimuli_distractor_trianglediamonds.svg	38	no	57	0	221
6.6.1	mac	2023-01-01	17:23:49	17:32:51	540520	610071e2de637700bf0cd8fc	618683691	1	main_z	11	main_z	145	stimuli_distractor_trianglediamonds.svg	stimuli_target_diamondcircles.svg	27	yes	44	1	476
6.6.1	mac	2023-01-01	17:23:49	17:32:51	540520	610071e2de637700bf0cd8fc	618683691	1	main_z	11	advance_on_keypress_ZEE	146	stimuli_distractor_trianglediamonds.svg	stimuli_target_diamondcircles.svg	27	yes	57	0	105
6.6.1	mac	2023-01-01	17:23:49	17:32:52	541764	610071e2de637700bf0cd8fc	618683691	1	main_z	11	main_z	147	stimuli_distractor_trianglediamonds.svg	stimuli_target_circletriangles.svg	9	yes	44	1	515
6.6.1	mac	2023-01-01	17:23:49	17:32:52	541764	610071e2de637700bf0cd8fc	618683691	1	main_z	11	advance_on_keypress_ZEE	148	stimuli_distractor_trianglediamonds.svg	stimuli_target_circletriangles.svg	9	yes	57	0	93
6.6.1	mac	2023-01-01	17:23:49	17:32:53	542951	610071e2de637700bf0cd8fc	618683691	1	main_z	11	main_z	149	stimuli_distractor_diamondtriangles.svg	stimuli_target_trianglecircles.svg	29	yes	44	1	451
6.6.1	mac	2023-01-01	17:23:49	17:32:53	542951	610071e2de637700bf0cd8fc	618683691	1	main_z	11	advance_on_keypress_ZEE	150	stimuli_distractor_diamondtriangles.svg	stimuli_target_trianglecircles.svg	29	yes	57	0	75
6.6.1	mac	2023-01-01	17:23:49	17:32:54	544082	610071e2de637700bf0cd8fc	618683691	1	main_z	11	main_z	151	stimuli_distractor_trianglediamonds.svg	stimuli_target_trianglesquares.svg	26	yes	44	1	411
6.6.1	mac	2023-01-01	17:23:49	17:32:54	544082	610071e2de637700bf0cd8fc	618683691	1	main_z	11	advance_on_keypress_ZEE	152	stimuli_distractor_trianglediamonds.svg	stimuli_target_trianglesquares.svg	26	yes	57	0	97
6.6.1	mac	2023-01-01	17:23:49	17:32:57	546820	610071e2de637700bf0cd8fc	618683691	1	main_z	11	main_z	153	stimuli_distractor_diamondtriangles.svg	stimuli_distractor_diamondtriangles.svg	39	no	0	1	2000
6.6.1	mac	2023-01-01	17:23:49	17:32:57	546820	610071e2de637700bf0cd8fc	618683691	1	main_z	11	advance_on_keypress_ZEE	154	stimuli_distractor_diamondtriangles.svg	stimuli_distractor_diamondtriangles.svg	39	no	57	0	257
6.6.1	mac	2023-01-01	17:23:49	17:32:59	548280	610071e2de637700bf0cd8fc	618683691	1	main_z	11	main_z	155	stimuli_target_diamondsquares.svg	stimuli_distractor_trianglediamonds.svg	20	yes	44	1	583
6.6.1	mac	2023-01-01	17:23:49	17:32:59	548280	610071e2de637700bf0cd8fc	618683691	1	main_z	11	advance_on_keypress_ZEE	156	stimuli_target_diamondsquares.svg	stimuli_distractor_trianglediamonds.svg	20	yes	57	0	92
6.6.1	mac	2023-01-01	17:23:49	17:33:00	549609	610071e2de637700bf0cd8fc	618683691	1	main_z	11	main_z	157	stimuli_target_squarediamonds.svg	stimuli_distractor_trianglediamonds.svg	4	yes	44	1	591
6.6.1	mac	2023-01-01	17:23:49	17:33:00	549609	610071e2de637700bf0cd8fc	618683691	1	main_z	11	advance_on_keypress_ZEE	158	stimuli_target_squarediamonds.svg	stimuli_distractor_trianglediamonds.svg	4	yes	57	0	100
6.6.1	mac	2023-01-01	17:23:49	17:33:01	550879	610071e2de637700bf0cd8fc	618683691	1	main_z	11	main_z	159	stimuli_distractor_diamondtriangles.svg	stimuli_target_circletriangles.svg	13	yes	44	1	542
6.6.1	mac	2023-01-01	17:23:49	17:33:01	550879	610071e2de637700bf0cd8fc	618683691	1	main_z	11	advance_on_keypress_ZEE	160	stimuli_distractor_diamondtriangles.svg	stimuli_target_circletriangles.svg	13	yes	57	0	100