build	computer.platform	date	time	timestamp	time_elapsed_ms	subject	group	session	blockcode	blocknum	trialcode	trialnum	stimulus_left	stimulus_right	stim_index	target_present	response	correct	latency
6.6.1	win	2022-12-14	13:46:53	13:48:05	71779	61fa92f15719bc09cb834b86	383650035	1	practice_slash	5	practice_slash	1	stimuli_distractor_diamondtriangles.svg	stimuli_target_diamondcircles.svg	8	yes	53	1	1442
6.6.1	win	2022-12-14	13:46:53	13:48:05	71779	61fa92f15719bc09cb834b86	383650035	1	practice_slash	5	advance_on_keypress_SLASH	2	stimuli_distractor_diamondtriangles.svg	stimuli_target_diamondcircles.svg	8	yes	57	0	2008
6.6.1	win	2022-12-14	13:46:53	13:48:11	76977	61fa92f15719bc09cb834b86	383650035	1	practice_slash	5	practice_slash	3	stimuli_distractor_trianglediamonds.svg	stimuli_target_diamondcircles.svg	12	yes	53	1	1532
6.6.1	win	2022-12-14	13:46:53	13:48:11	76977	61fa92f15719bc09cb834b86	383650035	1	practice_slash	5	advance_on_keypress_SLASH	4	stimuli_distractor_trianglediamonds.svg	stimuli_target_diamondcircles.svg	12	yes	57	0	382
6.6.1	win	2022-12-14	13:46:53	13:48:14	79999	61fa92f15719bc09cb834b86	383650035	1	practice_slash	5	practice_slash	5	stimuli_target_diamondsquares.svg	stimuli_distractor_diamondtriangles.svg	3	yes	53	1	990
6.6.1	win	2022-12-14	13:46:53	13:48:14	79999	61fa92f15719bc09cb834b86	383650035	1	practice_slash	5	advance_on_keypress_SLASH	6	stimuli_target_diamondsquares.svg	stimuli_distractor_diamondtriangles.svg	3	yes	57	0	403
6.6.1	win	2022-12-14	13:46:53	13:48:17	83083	61fa92f15719bc09cb834b86	383650035	1	practice_slash	5	practice_slash	7	stimuli_target_squarediamonds.svg	stimuli_distractor_trianglediamonds.svg	5	yes	53	1	1026
6.6.1	win	2022-12-14	13:46:53	13:48:17	83083	61fa92f15719bc09cb834b86	383650035	1	practice_slash	5	advance_on_keypress_SLASH	8	stimuli_target_squarediamonds.svg	stimuli_distractor_trianglediamonds.svg	5	yes	57	0	345
6.6.1	win	2022-12-14	13:46:53	13:48:20	86077	61fa92f15719bc09cb834b86	383650035	1	practice_slash	5	practice_slash	9	stimuli_target_circlediamonds.svg	stimuli_distractor_diamondtriangles.svg	1	yes	53	1	986
6.6.1	win	2022-12-14	13:46:53	13:48:20	86077	61fa92f15719bc09cb834b86	383650035	1	practice_slash	5	advance_on_keypress_SLASH	10	stimuli_target_circlediamonds.svg	stimuli_distractor_diamondtriangles.svg	1	yes	57	0	390
6.6.1	win	2022-12-14	13:46:53	13:48:23	89242	61fa92f15719bc09cb834b86	383650035	1	practice_slash	5	practice_slash	11	stimuli_distractor_trianglediamonds.svg	stimuli_distractor_diamondtriangles.svg	16	no	53	0	1128
6.6.1	win	2022-12-14	13:46:53	13:48:23	89242	61fa92f15719bc09cb834b86	383650035	1	practice_slash	5	advance_on_keypress_SLASH	12	stimuli_distractor_trianglediamonds.svg	stimuli_distractor_diamondtriangles.svg	16	no	57	0	116
6.6.1	win	2022-12-14	13:46:53	13:48:25	91059	61fa92f15719bc09cb834b86	383650035	1	practice_slash	5	practice_slash	13	stimuli_target_squarediamonds.svg	stimuli_distractor_diamondtriangles.svg	2	yes	53	1	80
6.6.1	win	2022-12-14	13:46:53	13:48:25	91059	61fa92f15719bc09cb834b86	383650035	1	practice_slash	5	advance_on_keypress_SLASH	14	stimuli_target_squarediamonds.svg	stimuli_distractor_diamondtriangles.svg	2	yes	57	0	121
6.6.1	win	2022-12-14	13:46:53	13:48:26	92861	61fa92f15719bc09cb834b86	383650035	1	practice_slash	5	practice_slash	15	stimuli_distractor_trianglediamonds.svg	stimuli_target_squarediamonds.svg	11	yes	53	1	17
6.6.1	win	2022-12-14	13:46:53	13:48:26	92861	61fa92f15719bc09cb834b86	383650035	1	practice_slash	5	advance_on_keypress_SLASH	16	stimuli_distractor_trianglediamonds.svg	stimuli_target_squarediamonds.svg	11	yes	57	0	104
6.6.1	win	2022-12-14	13:46:53	13:48:29	94900	61fa92f15719bc09cb834b86	383650035	1	practice_slash	5	practice_slash	17	stimuli_distractor_trianglediamonds.svg	stimuli_distractor_trianglediamonds.svg	15	no	53	0	291
6.6.1	win	2022-12-14	13:46:53	13:48:29	94900	61fa92f15719bc09cb834b86	383650035	1	practice_slash	5	advance_on_keypress_SLASH	18	stimuli_distractor_trianglediamonds.svg	stimuli_distractor_trianglediamonds.svg	15	no	57	0	96
6.6.1	win	2022-12-14	13:46:53	13:48:30	96691	61fa92f15719bc09cb834b86	383650035	1	practice_slash	5	practice_slash	19	stimuli_distractor_diamondtriangles.svg	stimuli_distractor_trianglediamonds.svg	14	no	53	0	56
6.6.1	win	2022-12-14	13:46:53	13:48:30	96691	61fa92f15719bc09cb834b86	383650035	1	practice_slash	5	advance_on_keypress_SLASH	20	stimuli_distractor_diamondtriangles.svg	stimuli_distractor_trianglediamonds.svg	14	no	57	0	60
6.6.1	win	2022-12-14	13:46:53	13:48:32	98668	61fa92f15719bc09cb834b86	383650035	1	practice_slash	5	practice_slash	21	stimuli_distractor_diamondtriangles.svg	stimuli_target_trianglecircles.svg	9	yes	53	1	258
6.6.1	win	2022-12-14	13:46:53	13:48:32	98668	61fa92f15719bc09cb834b86	383650035	1	practice_slash	5	advance_on_keypress_SLASH	22	stimuli_distractor_diamondtriangles.svg	stimuli_target_trianglecircles.svg	9	yes	57	0	126
6.6.1	win	2022-12-14	13:46:53	13:48:34	100571	61fa92f15719bc09cb834b86	383650035	1	practice_slash	5	practice_slash	23	stimuli_distractor_diamondtriangles.svg	stimuli_target_circletriangles.svg	7	yes	53	1	137
6.6.1	win	2022-12-14	13:46:53	13:48:34	100571	61fa92f15719bc09cb834b86	383650035	1	practice_slash	5	advance_on_keypress_SLASH	24	stimuli_distractor_diamondtriangles.svg	stimuli_target_circletriangles.svg	7	yes	57	0	43
6.6.1	win	2022-12-14	13:46:53	13:48:36	102468	61fa92f15719bc09cb834b86	383650035	1	practice_slash	5	practice_slash	25	stimuli_distractor_trianglediamonds.svg	stimuli_target_circlediamonds.svg	10	yes	53	1	187
6.6.1	win	2022-12-14	13:46:53	13:48:36	102468	61fa92f15719bc09cb834b86	383650035	1	practice_slash	5	advance_on_keypress_SLASH	26	stimuli_distractor_trianglediamonds.svg	stimuli_target_circlediamonds.svg	10	yes	57	0	62
6.6.1	win	2022-12-14	13:46:53	13:48:38	104322	61fa92f15719bc09cb834b86	383650035	1	practice_slash	5	practice_slash	27	stimuli_distractor_diamondtriangles.svg	stimuli_distractor_diamondtriangles.svg	13	no	53	0	128
6.6.1	win	2022-12-14	13:46:53	13:48:38	104322	61fa92f15719bc09cb834b86	383650035	1	practice_slash	5	advance_on_keypress_SLASH	28	stimuli_distractor_diamondtriangles.svg	stimuli_distractor_diamondtriangles.svg	13	no	57	0	71
6.6.1	win	2022-12-14	13:46:53	13:48:42	108039	61fa92f15719bc09cb834b86	383650035	1	practice_slash	5	practice_slash	29	stimuli_target_diamondsquares.svg	stimuli_distractor_trianglediamonds.svg	6	yes	0	0	2000
6.6.1	win	2022-12-14	13:46:53	13:48:42	108039	61fa92f15719bc09cb834b86	383650035	1	practice_slash	5	advance_on_keypress_SLASH	30	stimuli_target_diamondsquares.svg	stimuli_distractor_trianglediamonds.svg	6	yes	57	0	373
6.6.1	win	2022-12-14	13:46:53	13:48:44	110360	61fa92f15719bc09cb834b86	383650035	1	practice_slash	5	practice_slash	31	stimuli_target_circlediamonds.svg	stimuli_distractor_trianglediamonds.svg	4	yes	53	1	292
6.6.1	win	2022-12-14	13:46:53	13:48:44	110360	61fa92f15719bc09cb834b86	383650035	1	practice_slash	5	advance_on_keypress_SLASH	32	stimuli_target_circlediamonds.svg	stimuli_distractor_trianglediamonds.svg	4	yes	57	0	276
6.6.1	win	2022-12-14	13:46:53	13:48:47	112897	61fa92f15719bc09cb834b86	383650035	1	main_slash	7	main_slash	1	stimuli_target_trianglecircles.svg	stimuli_distractor_diamondtriangles.svg	21	yes	53	1	364
6.6.1	win	2022-12-14	13:46:53	13:48:47	112897	61fa92f15719bc09cb834b86	383650035	1	main_slash	7	advance_on_keypress_SLASH	2	stimuli_target_trianglecircles.svg	stimuli_distractor_diamondtriangles.svg	21	yes	57	0	606
6.6.1	win	2022-12-14	13:46:53	13:48:48	114376	61fa92f15719bc09cb834b86	383650035	1	main_slash	7	main_slash	3	stimuli_distractor_trianglediamonds.svg	stimuli_target_trianglecircles.svg	25	yes	53	1	232
6.6.1	win	2022-12-14	13:46:53	13:48:48	114376	61fa92f15719bc09cb834b86	383650035	1	main_slash	7	advance_on_keypress_SLASH	4	stimuli_distractor_trianglediamonds.svg	stimuli_target_trianglecircles.svg	25	yes	57	0	470
6.6.1	win	2022-12-14	13:46:53	13:48:50	116153	61fa92f15719bc09cb834b86	383650035	1	main_slash	7	main_slash	5	stimuli_distractor_trianglediamonds.svg	stimuli_target_trianglesquares.svg	26	yes	53	1	659
6.6.1	win	2022-12-14	13:46:53	13:48:50	116153	61fa92f15719bc09cb834b86	383650035	1	main_slash	7	advance_on_keypress_SLASH	6	stimuli_distractor_trianglediamonds.svg	stimuli_target_trianglesquares.svg	26	yes	57	0	376
6.6.1	win	2022-12-14	13:46:53	13:48:51	117483	61fa92f15719bc09cb834b86	383650035	1	main_slash	7	main_slash	7	stimuli_distractor_trianglediamonds.svg	stimuli_target_circlediamonds.svg	10	yes	53	1	308
6.6.1	win	2022-12-14	13:46:53	13:48:51	117483	61fa92f15719bc09cb834b86	383650035	1	main_slash	7	advance_on_keypress_SLASH	8	stimuli_distractor_trianglediamonds.svg	stimuli_target_circlediamonds.svg	10	yes	57	0	2690
6.6.1	win	2022-12-14	13:46:53	13:48:55	121689	61fa92f15719bc09cb834b86	383650035	1	main_slash	7	main_slash	9	stimuli_target_squarediamonds.svg	stimuli_distractor_trianglediamonds.svg	4	yes	53	1	873
6.6.1	win	2022-12-14	13:46:53	13:48:55	121689	61fa92f15719bc09cb834b86	383650035	1	main_slash	7	advance_on_keypress_SLASH	10	stimuli_target_squarediamonds.svg	stimuli_distractor_trianglediamonds.svg	4	yes	57	0	808
6.6.1	win	2022-12-14	13:46:53	13:48:59	125124	61fa92f15719bc09cb834b86	383650035	1	main_slash	7	main_slash	11	stimuli_distractor_trianglediamonds.svg	stimuli_distractor_diamondtriangles.svg	36	no	0	1	2000
6.6.1	win	2022-12-14	13:46:53	13:48:59	125124	61fa92f15719bc09cb834b86	383650035	1	main_slash	7	advance_on_keypress_SLASH	12	stimuli_distractor_trianglediamonds.svg	stimuli_distractor_diamondtriangles.svg	36	no	57	0	671
6.6.1	win	2022-12-14	13:46:53	13:49:02	128432	61fa92f15719bc09cb834b86	383650035	1	main_slash	7	main_slash	13	stimuli_distractor_diamondtriangles.svg	stimuli_target_diamondsquares.svg	32	yes	0	0	2000
6.6.1	win	2022-12-14	13:46:53	13:49:02	128432	61fa92f15719bc09cb834b86	383650035	1	main_slash	7	advance_on_keypress_SLASH	14	stimuli_distractor_diamondtriangles.svg	stimuli_target_diamondsquares.svg	32	yes	57	0	643
6.6.1	win	2022-12-14	13:46:53	13:49:04	130578	61fa92f15719bc09cb834b86	383650035	1	main_slash	7	main_slash	15	stimuli_target_squaretriangles.svg	stimuli_distractor_trianglediamonds.svg	3	yes	53	1	864
6.6.1	win	2022-12-14	13:46:53	13:49:04	130578	61fa92f15719bc09cb834b86	383650035	1	main_slash	7	advance_on_keypress_SLASH	16	stimuli_target_squaretriangles.svg	stimuli_distractor_trianglediamonds.svg	3	yes	57	0	589
6.6.1	win	2022-12-14	13:46:53	13:49:05	131865	61fa92f15719bc09cb834b86	383650035	1	main_slash	7	main_slash	17	stimuli_distractor_trianglediamonds.svg	stimuli_target_squarediamonds.svg	12	yes	53	1	71
6.6.1	win	2022-12-14	13:46:53	13:49:05	131865	61fa92f15719bc09cb834b86	383650035	1	main_slash	7	advance_on_keypress_SLASH	18	stimuli_distractor_trianglediamonds.svg	stimuli_target_squarediamonds.svg	12	yes	57	0	183
6.6.1	win	2022-12-14	13:46:53	13:49:06	132819	61fa92f15719bc09cb834b86	383650035	1	main_slash	7	main_slash	19	stimuli_target_diamondcircles.svg	stimuli_distractor_trianglediamonds.svg	19	yes	53	1	132
6.6.1	win	2022-12-14	13:46:53	13:49:06	132819	61fa92f15719bc09cb834b86	383650035	1	main_slash	7	advance_on_keypress_SLASH	20	stimuli_target_diamondcircles.svg	stimuli_distractor_trianglediamonds.svg	19	yes	57	0	175
6.6.1	win	2022-12-14	13:46:53	13:49:07	133809	61fa92f15719bc09cb834b86	383650035	1	main_slash	7	main_slash	21	stimuli_distractor_diamondtriangles.svg	stimuli_distractor_trianglediamonds.svg	38	no	53	0	166
6.6.1	win	2022-12-14	13:46:53	13:49:07	133809	61fa92f15719bc09cb834b86	383650035	1	main_slash	7	advance_on_keypress_SLASH	22	stimuli_distractor_diamondtriangles.svg	stimuli_distractor_trianglediamonds.svg	38	no	57	0	180
6.6.1	win	2022-12-14	13:46:53	13:49:08	134849	61fa92f15719bc09cb834b86	383650035	1	main_slash	7	main_slash	23	stimuli_distractor_trianglediamonds.svg	stimuli_target_squaretriangles.svg	11	yes	53	1	214
6.6.1	win	2022-12-14	13:46:53	13:49:08	134849	61fa92f15719bc09cb834b86	383650035	1	main_slash	7	advance_on_keypress_SLASH	24	stimuli_distractor_trianglediamonds.svg	stimuli_target_squaretriangles.svg	11	yes	57	0	219
6.6.1	win	2022-12-14	13:46:53	13:49:10	136109	61fa92f15719bc09cb834b86	383650035	1	main_slash	7	main_slash	25	stimuli_target_squaretriangles.svg	stimuli_distractor_diamondtriangles.svg	7	yes	53	1	393
6.6.1	win	2022-12-14	13:46:53	13:49:10	136109	61fa92f15719bc09cb834b86	383650035	1	main_slash	7	advance_on_keypress_SLASH	26	stimuli_target_squaretriangles.svg	stimuli_distractor_diamondtriangles.svg	7	yes	57	0	254
6.6.1	win	2022-12-14	13:46:53	13:49:11	137314	61fa92f15719bc09cb834b86	383650035	1	main_slash	7	main_slash	27	stimuli_distractor_diamondtriangles.svg	stimuli_target_trianglesquares.svg	30	yes	53	1	296
6.6.1	win	2022-12-14	13:46:53	13:49:11	137314	61fa92f15719bc09cb834b86	383650035	1	main_slash	7	advance_on_keypress_SLASH	28	stimuli_distractor_diamondtriangles.svg	stimuli_target_trianglesquares.svg	30	yes	57	0	136
6.6.1	win	2022-12-14	13:46:53	13:49:12	138346	61fa92f15719bc09cb834b86	383650035	1	main_slash	7	main_slash	29	stimuli_distractor_diamondtriangles.svg	stimuli_target_circlediamonds.svg	14	yes	53	1	244
6.6.1	win	2022-12-14	13:46:53	13:49:12	138346	61fa92f15719bc09cb834b86	383650035	1	main_slash	7	advance_on_keypress_SLASH	30	stimuli_distractor_diamondtriangles.svg	stimuli_target_circlediamonds.svg	14	yes	57	0	197
6.6.1	win	2022-12-14	13:46:53	13:49:13	139417	61fa92f15719bc09cb834b86	383650035	1	main_slash	7	main_slash	31	stimuli_distractor_diamondtriangles.svg	stimuli_target_squarediamonds.svg	16	yes	53	1	221
6.6.1	win	2022-12-14	13:46:53	13:49:13	139417	61fa92f15719bc09cb834b86	383650035	1	main_slash	7	advance_on_keypress_SLASH	32	stimuli_distractor_diamondtriangles.svg	stimuli_target_squarediamonds.svg	16	yes	57	0	298
6.6.1	win	2022-12-14	13:46:53	13:49:14	140673	61fa92f15719bc09cb834b86	383650035	1	main_slash	7	main_slash	33	stimuli_distractor_diamondtriangles.svg	stimuli_target_trianglecircles.svg	29	yes	53	1	308
6.6.1	win	2022-12-14	13:46:53	13:49:14	140673	61fa92f15719bc09cb834b86	383650035	1	main_slash	7	advance_on_keypress_SLASH	34	stimuli_distractor_diamondtriangles.svg	stimuli_target_trianglecircles.svg	29	yes	57	0	14
6.6.1	win	2022-12-14	13:46:53	13:49:15	141631	61fa92f15719bc09cb834b86	383650035	1	main_slash	7	main_slash	35	stimuli_target_circletriangles.svg	stimuli_distractor_trianglediamonds.svg	1	yes	53	1	294
6.6.1	win	2022-12-14	13:46:53	13:49:15	141631	61fa92f15719bc09cb834b86	383650035	1	main_slash	7	advance_on_keypress_SLASH	36	stimuli_target_circletriangles.svg	stimuli_distractor_trianglediamonds.svg	1	yes	57	0	500
6.6.1	win	2022-12-14	13:46:53	13:49:17	143132	61fa92f15719bc09cb834b86	383650035	1	main_slash	7	main_slash	37	stimuli_distractor_trianglediamonds.svg	stimuli_distractor_diamondtriangles.svg	35	no	53	0	363
6.6.1	win	2022-12-14	13:46:53	13:49:17	143132	61fa92f15719bc09cb834b86	383650035	1	main_slash	7	advance_on_keypress_SLASH	38	stimuli_distractor_trianglediamonds.svg	stimuli_distractor_diamondtriangles.svg	35	no	57	0	344
6.6.1	win	2022-12-14	13:46:53	13:49:20	146133	61fa92f15719bc09cb834b86	383650035	1	main_slash	7	main_slash	39	stimuli_distractor_trianglediamonds.svg	stimuli_target_diamondsquares.svg	28	yes	0	0	2000
6.6.1	win	2022-12-14	13:46:53	13:49:20	146133	61fa92f15719bc09cb834b86	383650035	1	main_slash	7	advance_on_keypress_SLASH	40	stimuli_distractor_trianglediamonds.svg	stimuli_target_diamondsquares.svg	28	yes	57	0	303
6.6.1	win	2022-12-14	13:46:53	13:49:23	149107	61fa92f15719bc09cb834b86	383650035	1	main_slash	7	main_slash	41	stimuli_distractor_diamondtriangles.svg	stimuli_distractor_diamondtriangles.svg	40	no	0	1	2000
6.6.1	win	2022-12-14	13:46:53	13:49:23	149107	61fa92f15719bc09cb834b86	383650035	1	main_slash	7	advance_on_keypress_SLASH	42	stimuli_distractor_diamondtriangles.svg	stimuli_distractor_diamondtriangles.svg	40	no	57	0	273
6.6.1	win	2022-12-14	13:46:53	13:49:26	152014	61fa92f15719bc09cb834b86	383650035	1	main_slash	7	main_slash	43	stimuli_target_trianglesquares.svg	stimuli_distractor_trianglediamonds.svg	18	yes	0	0	2000
6.6.1	win	2022-12-14	13:46:53	13:49:26	152014	61fa92f15719bc09cb834b86	383650035	1	main_slash	7	advance_on_keypress_SLASH	44	stimuli_target_trianglesquares.svg	stimuli_distractor_trianglediamonds.svg	18	yes	57	0	85
6.6.1	win	2022-12-14	13:46:53	13:49:28	154758	61fa92f15719bc09cb834b86	383650035	1	main_slash	7	main_slash	45	stimuli_target_diamondcircles.svg	stimuli_distractor_diamondtriangles.svg	23	yes	0	0	2000
6.6.1	win	2022-12-14	13:46:53	13:49:28	154758	61fa92f15719bc09cb834b86	383650035	1	main_slash	7	advance_on_keypress_SLASH	46	stimuli_target_diamondcircles.svg	stimuli_distractor_diamondtriangles.svg	23	yes	57	0	239
6.6.1	win	2022-12-14	13:46:53	13:49:31	157631	61fa92f15719bc09cb834b86	383650035	1	main_slash	7	main_slash	47	stimuli_distractor_diamondtriangles.svg	stimuli_distractor_diamondtriangles.svg	39	no	0	1	2000
6.6.1	win	2022-12-14	13:46:53	13:49:31	157631	61fa92f15719bc09cb834b86	383650035	1	main_slash	7	advance_on_keypress_SLASH	48	stimuli_distractor_diamondtriangles.svg	stimuli_distractor_diamondtriangles.svg	39	no	57	0	29
6.6.1	win	2022-12-14	13:46:53	13:49:34	160297	61fa92f15719bc09cb834b86	383650035	1	main_slash	7	main_slash	49	stimuli_target_squarediamonds.svg	stimuli_distractor_diamondtriangles.svg	8	yes	0	0	2000
6.6.1	win	2022-12-14	13:46:53	13:49:34	160297	61fa92f15719bc09cb834b86	383650035	1	main_slash	7	advance_on_keypress_SLASH	50	stimuli_target_squarediamonds.svg	stimuli_distractor_diamondtriangles.svg	8	yes	57	0	18
6.6.1	win	2022-12-14	13:46:53	13:49:37	162978	61fa92f15719bc09cb834b86	383650035	1	main_slash	7	main_slash	51	stimuli_distractor_diamondtriangles.svg	stimuli_distractor_trianglediamonds.svg	37	no	0	1	2000
6.6.1	win	2022-12-14	13:46:53	13:49:37	162978	61fa92f15719bc09cb834b86	383650035	1	main_slash	7	advance_on_keypress_SLASH	52	stimuli_distractor_diamondtriangles.svg	stimuli_distractor_trianglediamonds.svg	37	no	57	0	433
6.6.1	win	2022-12-14	13:46:53	13:49:40	166059	61fa92f15719bc09cb834b86	383650035	1	main_slash	7	main_slash	53	stimuli_distractor_diamondtriangles.svg	stimuli_target_diamondcircles.svg	31	yes	0	0	2000
6.6.1	win	2022-12-14	13:46:53	13:49:40	166059	61fa92f15719bc09cb834b86	383650035	1	main_slash	7	advance_on_keypress_SLASH	54	stimuli_distractor_diamondtriangles.svg	stimuli_target_diamondcircles.svg	31	yes	57	0	344
6.6.1	win	2022-12-14	13:46:53	13:49:43	169047	61fa92f15719bc09cb834b86	383650035	1	main_slash	7	main_slash	55	stimuli_target_trianglecircles.svg	stimuli_distractor_trianglediamonds.svg	17	yes	0	0	2000
6.6.1	win	2022-12-14	13:46:53	13:49:43	169047	61fa92f15719bc09cb834b86	383650035	1	main_slash	7	advance_on_keypress_SLASH	56	stimuli_target_trianglecircles.svg	stimuli_distractor_trianglediamonds.svg	17	yes	57	0	2300
6.6.1	win	2022-12-14	13:46:53	13:49:48	173999	61fa92f15719bc09cb834b86	383650035	1	main_slash	7	main_slash	57	stimuli_target_diamondsquares.svg	stimuli_distractor_trianglediamonds.svg	20	yes	0	0	2000
6.6.1	win	2022-12-14	13:46:53	13:49:48	173999	61fa92f15719bc09cb834b86	383650035	1	main_slash	7	advance_on_keypress_SLASH	58	stimuli_target_diamondsquares.svg	stimuli_distractor_trianglediamonds.svg	20	yes	57	0	711
6.6.1	win	2022-12-14	13:46:53	13:49:51	177358	61fa92f15719bc09cb834b86	383650035	1	main_slash	7	main_slash	59	stimuli_target_diamondsquares.svg	stimuli_distractor_diamondtriangles.svg	24	yes	0	0	2000
6.6.1	win	2022-12-14	13:46:53	13:49:51	177358	61fa92f15719bc09cb834b86	383650035	1	main_slash	7	advance_on_keypress_SLASH	60	stimuli_target_diamondsquares.svg	stimuli_distractor_diamondtriangles.svg	24	yes	57	0	1398
6.6.1	win	2022-12-14	13:46:53	13:49:55	181398	61fa92f15719bc09cb834b86	383650035	1	main_slash	7	main_slash	61	stimuli_target_trianglesquares.svg	stimuli_distractor_diamondtriangles.svg	22	yes	0	0	2000
6.6.1	win	2022-12-14	13:46:53	13:49:55	181398	61fa92f15719bc09cb834b86	383650035	1	main_slash	7	advance_on_keypress_SLASH	62	stimuli_target_trianglesquares.svg	stimuli_distractor_diamondtriangles.svg	22	yes	57	0	684
6.6.1	win	2022-12-14	13:46:53	13:49:58	184733	61fa92f15719bc09cb834b86	383650035	1	main_slash	7	main_slash	63	stimuli_distractor_trianglediamonds.svg	stimuli_target_diamondcircles.svg	27	yes	0	0	2000
6.6.1	win	2022-12-14	13:46:53	13:49:58	184733	61fa92f15719bc09cb834b86	383650035	1	main_slash	7	advance_on_keypress_SLASH	64	stimuli_distractor_trianglediamonds.svg	stimuli_target_diamondcircles.svg	27	yes	57	0	262
6.6.1	win	2022-12-14	13:46:53	13:50:01	187649	61fa92f15719bc09cb834b86	383650035	1	main_slash	7	main_slash	65	stimuli_distractor_trianglediamonds.svg	stimuli_distractor_trianglediamonds.svg	34	no	0	1	2000
6.6.1	win	2022-12-14	13:46:53	13:50:01	187649	61fa92f15719bc09cb834b86	383650035	1	main_slash	7	advance_on_keypress_SLASH	66	stimuli_distractor_trianglediamonds.svg	stimuli_distractor_trianglediamonds.svg	34	no	57	0	202
6.6.1	win	2022-12-14	13:46:53	13:50:04	190510	61fa92f15719bc09cb834b86	383650035	1	main_slash	7	main_slash	67	stimuli_distractor_diamondtriangles.svg	stimuli_target_squaretriangles.svg	15	yes	0	0	2000
6.6.1	win	2022-12-14	13:46:53	13:50:04	190510	61fa92f15719bc09cb834b86	383650035	1	main_slash	7	advance_on_keypress_SLASH	68	stimuli_distractor_diamondtriangles.svg	stimuli_target_squaretriangles.svg	15	yes	57	0	23
6.6.1	win	2022-12-14	13:46:53	13:50:07	193176	61fa92f15719bc09cb834b86	383650035	1	main_slash	7	main_slash	69	stimuli_target_circletriangles.svg	stimuli_distractor_diamondtriangles.svg	5	yes	0	0	2000
6.6.1	win	2022-12-14	13:46:53	13:50:07	193176	61fa92f15719bc09cb834b86	383650035	1	main_slash	7	advance_on_keypress_SLASH	70	stimuli_target_circletriangles.svg	stimuli_distractor_diamondtriangles.svg	5	yes	57	0	27
6.6.1	win	2022-12-14	13:46:53	13:50:10	195867	61fa92f15719bc09cb834b86	383650035	1	main_slash	7	main_slash	71	stimuli_distractor_trianglediamonds.svg	stimuli_distractor_trianglediamonds.svg	33	no	0	1	2000
6.6.1	win	2022-12-14	13:46:53	13:50:10	195867	61fa92f15719bc09cb834b86	383650035	1	main_slash	7	advance_on_keypress_SLASH	72	stimuli_distractor_trianglediamonds.svg	stimuli_distractor_trianglediamonds.svg	33	no	57	0	34
6.6.1	win	2022-12-14	13:46:53	13:50:12	198548	61fa92f15719bc09cb834b86	383650035	1	main_slash	7	main_slash	73	stimuli_distractor_diamondtriangles.svg	stimuli_target_circletriangles.svg	13	yes	0	0	2000
6.6.1	win	2022-12-14	13:46:53	13:50:12	198548	61fa92f15719bc09cb834b86	383650035	1	main_slash	7	advance_on_keypress_SLASH	74	stimuli_distractor_diamondtriangles.svg	stimuli_target_circletriangles.svg	13	yes	57	0	505
6.6.1	win	2022-12-14	13:46:53	13:50:15	201692	61fa92f15719bc09cb834b86	383650035	1	main_slash	7	main_slash	75	stimuli_target_circlediamonds.svg	stimuli_distractor_diamondtriangles.svg	6	yes	0	0	2000
6.6.1	win	2022-12-14	13:46:53	13:50:15	201692	61fa92f15719bc09cb834b86	383650035	1	main_slash	7	advance_on_keypress_SLASH	76	stimuli_target_circlediamonds.svg	stimuli_distractor_diamondtriangles.svg	6	yes	57	0	149
6.6.1	win	2022-12-14	13:46:53	13:50:18	204487	61fa92f15719bc09cb834b86	383650035	1	main_slash	7	main_slash	77	stimuli_target_circlediamonds.svg	stimuli_distractor_trianglediamonds.svg	2	yes	0	0	2000
6.6.1	win	2022-12-14	13:46:53	13:50:18	204487	61fa92f15719bc09cb834b86	383650035	1	main_slash	7	advance_on_keypress_SLASH	78	stimuli_target_circlediamonds.svg	stimuli_distractor_trianglediamonds.svg	2	yes	57	0	116
6.6.1	win	2022-12-14	13:46:53	13:50:21	207248	61fa92f15719bc09cb834b86	383650035	1	main_slash	7	main_slash	79	stimuli_distractor_trianglediamonds.svg	stimuli_target_circletriangles.svg	9	yes	0	0	2000
6.6.1	win	2022-12-14	13:46:53	13:50:21	207248	61fa92f15719bc09cb834b86	383650035	1	main_slash	7	advance_on_keypress_SLASH	80	stimuli_distractor_trianglediamonds.svg	stimuli_target_circletriangles.svg	9	yes	57	0	602
6.6.1	win	2022-12-14	13:46:53	13:50:24	210493	61fa92f15719bc09cb834b86	383650035	1	main_slash	7	main_slash	81	stimuli_distractor_diamondtriangles.svg	stimuli_target_squarediamonds.svg	16	yes	0	0	2000
6.6.1	win	2022-12-14	13:46:53	13:50:24	210493	61fa92f15719bc09cb834b86	383650035	1	main_slash	7	advance_on_keypress_SLASH	82	stimuli_distractor_diamondtriangles.svg	stimuli_target_squarediamonds.svg	16	yes	57	0	522
6.6.1	win	2022-12-14	13:46:53	13:50:27	213666	61fa92f15719bc09cb834b86	383650035	1	main_slash	7	main_slash	83	stimuli_distractor_trianglediamonds.svg	stimuli_target_diamondsquares.svg	28	yes	0	0	2000
6.6.1	win	2022-12-14	13:46:53	13:50:27	213666	61fa92f15719bc09cb834b86	383650035	1	main_slash	7	advance_on_keypress_SLASH	84	stimuli_distractor_trianglediamonds.svg	stimuli_target_diamondsquares.svg	28	yes	57	0	411
6.6.1	win	2022-12-14	13:46:53	13:50:30	216718	61fa92f15719bc09cb834b86	383650035	1	main_slash	7	main_slash	85	stimuli_target_circletriangles.svg	stimuli_distractor_diamondtriangles.svg	5	yes	0	0	2000
6.6.1	win	2022-12-14	13:46:53	13:50:30	216718	61fa92f15719bc09cb834b86	383650035	1	main_slash	7	advance_on_keypress_SLASH	86	stimuli_target_circletriangles.svg	stimuli_distractor_diamondtriangles.svg	5	yes	57	0	1125
6.6.1	win	2022-12-14	13:46:53	13:50:34	220493	61fa92f15719bc09cb834b86	383650035	1	main_slash	7	main_slash	87	stimuli_target_circletriangles.svg	stimuli_distractor_trianglediamonds.svg	1	yes	0	0	2000
6.6.1	win	2022-12-14	13:46:53	13:50:34	220493	61fa92f15719bc09cb834b86	383650035	1	main_slash	7	advance_on_keypress_SLASH	88	stimuli_target_circletriangles.svg	stimuli_distractor_trianglediamonds.svg	1	yes	57	0	438
6.6.1	win	2022-12-14	13:46:53	13:50:37	223592	61fa92f15719bc09cb834b86	383650035	1	main_slash	7	main_slash	89	stimuli_distractor_diamondtriangles.svg	stimuli_target_diamondcircles.svg	31	yes	0	0	2000
6.6.1	win	2022-12-14	13:46:53	13:50:37	223592	61fa92f15719bc09cb834b86	383650035	1	main_slash	7	advance_on_keypress_SLASH	90	stimuli_distractor_diamondtriangles.svg	stimuli_target_diamondcircles.svg	31	yes	57	0	439
6.6.1	win	2022-12-14	13:46:53	13:50:40	226682	61fa92f15719bc09cb834b86	383650035	1	main_slash	7	main_slash	91	stimuli_target_diamondcircles.svg	stimuli_distractor_trianglediamonds.svg	19	yes	0	0	2000
6.6.1	win	2022-12-14	13:46:53	13:50:40	226682	61fa92f15719bc09cb834b86	383650035	1	main_slash	7	advance_on_keypress_SLASH	92	stimuli_target_diamondcircles.svg	stimuli_distractor_trianglediamonds.svg	19	yes	57	0	361
6.6.1	win	2022-12-14	13:46:53	13:50:43	229701	61fa92f15719bc09cb834b86	383650035	1	main_slash	7	main_slash	93	stimuli_distractor_trianglediamonds.svg	stimuli_distractor_trianglediamonds.svg	34	no	0	1	2000
6.6.1	win	2022-12-14	13:46:53	13:50:43	229701	61fa92f15719bc09cb834b86	383650035	1	main_slash	7	advance_on_keypress_SLASH	94	stimuli_distractor_trianglediamonds.svg	stimuli_distractor_trianglediamonds.svg	34	no	57	0	459
6.6.1	win	2022-12-14	13:46:53	13:50:46	232804	61fa92f15719bc09cb834b86	383650035	1	main_slash	7	main_slash	95	stimuli_distractor_diamondtriangles.svg	stimuli_target_squaretriangles.svg	15	yes	0	0	2000
6.6.1	win	2022-12-14	13:46:53	13:50:46	232804	61fa92f15719bc09cb834b86	383650035	1	main_slash	7	advance_on_keypress_SLASH	96	stimuli_distractor_diamondtriangles.svg	stimuli_target_squaretriangles.svg	15	yes	57	0	72
6.6.1	win	2022-12-14	13:46:53	13:50:49	235512	61fa92f15719bc09cb834b86	383650035	1	main_slash	7	main_slash	97	stimuli_distractor_diamondtriangles.svg	stimuli_distractor_trianglediamonds.svg	38	no	0	1	2000
6.6.1	win	2022-12-14	13:46:53	13:50:49	235512	61fa92f15719bc09cb834b86	383650035	1	main_slash	7	advance_on_keypress_SLASH	98	stimuli_distractor_diamondtriangles.svg	stimuli_distractor_trianglediamonds.svg	38	no	57	0	4
6.6.1	win	2022-12-14	13:46:53	13:50:52	238177	61fa92f15719bc09cb834b86	383650035	1	main_slash	7	main_slash	99	stimuli_target_trianglesquares.svg	stimuli_distractor_trianglediamonds.svg	18	yes	0	0	2000
6.6.1	win	2022-12-14	13:46:53	13:50:52	238177	61fa92f15719bc09cb834b86	383650035	1	main_slash	7	advance_on_keypress_SLASH	100	stimuli_target_trianglesquares.svg	stimuli_distractor_trianglediamonds.svg	18	yes	57	0	117
6.6.1	win	2022-12-14	13:46:53	13:50:55	240939	61fa92f15719bc09cb834b86	383650035	1	main_slash	7	main_slash	101	stimuli_distractor_trianglediamonds.svg	stimuli_target_diamondcircles.svg	27	yes	0	0	2000
6.6.1	win	2022-12-14	13:46:53	13:50:55	240939	61fa92f15719bc09cb834b86	383650035	1	main_slash	7	advance_on_keypress_SLASH	102	stimuli_distractor_trianglediamonds.svg	stimuli_target_diamondcircles.svg	27	yes	57	0	340
6.6.1	win	2022-12-14	13:46:53	13:50:58	243915	61fa92f15719bc09cb834b86	383650035	1	main_slash	7	main_slash	103	stimuli_target_squaretriangles.svg	stimuli_distractor_trianglediamonds.svg	3	yes	0	0	2000
6.6.1	win	2022-12-14	13:46:53	13:50:58	243915	61fa92f15719bc09cb834b86	383650035	1	main_slash	7	advance_on_keypress_SLASH	104	stimuli_target_squaretriangles.svg	stimuli_distractor_trianglediamonds.svg	3	yes	57	0	216
6.6.1	win	2022-12-14	13:46:53	13:51:00	246792	61fa92f15719bc09cb834b86	383650035	1	main_slash	7	main_slash	105	stimuli_distractor_diamondtriangles.svg	stimuli_target_circletriangles.svg	13	yes	0	0	2000
6.6.1	win	2022-12-14	13:46:53	13:51:00	246792	61fa92f15719bc09cb834b86	383650035	1	main_slash	7	advance_on_keypress_SLASH	106	stimuli_distractor_diamondtriangles.svg	stimuli_target_circletriangles.svg	13	yes	57	0	300
6.6.1	win	2022-12-14	13:46:53	13:51:03	249730	61fa92f15719bc09cb834b86	383650035	1	main_slash	7	main_slash	107	stimuli_distractor_trianglediamonds.svg	stimuli_target_trianglesquares.svg	26	yes	0	0	2000
6.6.1	win	2022-12-14	13:46:53	13:51:03	249730	61fa92f15719bc09cb834b86	383650035	1	main_slash	7	advance_on_keypress_SLASH	108	stimuli_distractor_trianglediamonds.svg	stimuli_target_trianglesquares.svg	26	yes	57	0	112
6.6.1	win	2022-12-14	13:46:53	13:51:06	252491	61fa92f15719bc09cb834b86	383650035	1	main_slash	7	main_slash	109	stimuli_distractor_trianglediamonds.svg	stimuli_distractor_trianglediamonds.svg	33	no	0	1	2000
6.6.1	win	2022-12-14	13:46:53	13:51:06	252491	61fa92f15719bc09cb834b86	383650035	1	main_slash	7	advance_on_keypress_SLASH	110	stimuli_distractor_trianglediamonds.svg	stimuli_distractor_trianglediamonds.svg	33	no	57	0	375
6.6.1	win	2022-12-14	13:46:53	13:51:09	255525	61fa92f15719bc09cb834b86	383650035	1	main_slash	7	main_slash	111	stimuli_target_diamondsquares.svg	stimuli_distractor_trianglediamonds.svg	20	yes	0	0	2000
6.6.1	win	2022-12-14	13:46:53	13:51:09	255525	61fa92f15719bc09cb834b86	383650035	1	main_slash	7	advance_on_keypress_SLASH	112	stimuli_target_diamondsquares.svg	stimuli_distractor_trianglediamonds.svg	20	yes	57	0	188
6.6.1	win	2022-12-14	13:46:53	13:51:12	258360	61fa92f15719bc09cb834b86	383650035	1	main_slash	7	main_slash	113	stimuli_target_squarediamonds.svg	stimuli_distractor_diamondtriangles.svg	8	yes	0	0	2000
6.6.1	win	2022-12-14	13:46:53	13:51:12	258360	61fa92f15719bc09cb834b86	383650035	1	main_slash	7	advance_on_keypress_SLASH	114	stimuli_target_squarediamonds.svg	stimuli_distractor_diamondtriangles.svg	8	yes	57	0	890
6.6.1	win	2022-12-14	13:46:53	13:51:16	261904	61fa92f15719bc09cb834b86	383650035	1	main_slash	7	main_slash	115	stimuli_target_squarediamonds.svg	stimuli_distractor_trianglediamonds.svg	4	yes	0	0	2000
6.6.1	win	2022-12-14	13:46:53	13:51:16	261904	61fa92f15719bc09cb834b86	383650035	1	main_slash	7	advance_on_keypress_SLASH	116	stimuli_target_squarediamonds.svg	stimuli_distractor_trianglediamonds.svg	4	yes	57	0	212
6.6.1	win	2022-12-14	13:46:53	13:51:18	264763	61fa92f15719bc09cb834b86	383650035	1	main_slash	7	main_slash	117	stimuli_target_trianglecircles.svg	stimuli_distractor_trianglediamonds.svg	17	yes	0	0	2000
6.6.1	win	2022-12-14	13:46:53	13:51:18	264763	61fa92f15719bc09cb834b86	383650035	1	main_slash	7	advance_on_keypress_SLASH	118	stimuli_target_trianglecircles.svg	stimuli_distractor_trianglediamonds.svg	17	yes	57	0	713
6.6.1	win	2022-12-14	13:46:53	13:51:22	268124	61fa92f15719bc09cb834b86	383650035	1	main_slash	7	main_slash	119	stimuli_distractor_trianglediamonds.svg	stimuli_target_squarediamonds.svg	12	yes	0	0	2000
6.6.1	win	2022-12-14	13:46:53	13:51:22	268124	61fa92f15719bc09cb834b86	383650035	1	main_slash	7	advance_on_keypress_SLASH	120	stimuli_distractor_trianglediamonds.svg	stimuli_target_squarediamonds.svg	12	yes	57	0	319
6.6.1	win	2022-12-14	13:46:53	13:51:25	271099	61fa92f15719bc09cb834b86	383650035	1	main_slash	7	main_slash	121	stimuli_target_diamondsquares.svg	stimuli_distractor_diamondtriangles.svg	24	yes	0	0	2000
6.6.1	win	2022-12-14	13:46:53	13:51:25	271099	61fa92f15719bc09cb834b86	383650035	1	main_slash	7	advance_on_keypress_SLASH	122	stimuli_target_diamondsquares.svg	stimuli_distractor_diamondtriangles.svg	24	yes	57	0	520
6.6.1	win	2022-12-14	13:46:53	13:51:28	274273	61fa92f15719bc09cb834b86	383650035	1	main_slash	7	main_slash	123	stimuli_distractor_trianglediamonds.svg	stimuli_distractor_diamondtriangles.svg	35	no	0	1	2000
6.6.1	win	2022-12-14	13:46:53	13:51:28	274273	61fa92f15719bc09cb834b86	383650035	1	main_slash	7	advance_on_keypress_SLASH	124	stimuli_distractor_trianglediamonds.svg	stimuli_distractor_diamondtriangles.svg	35	no	57	0	218
6.6.1	win	2022-12-14	13:46:53	13:51:31	277141	61fa92f15719bc09cb834b86	383650035	1	main_slash	7	main_slash	125	stimuli_distractor_diamondtriangles.svg	stimuli_target_trianglesquares.svg	30	yes	0	0	2000
6.6.1	win	2022-12-14	13:46:53	13:51:31	277141	61fa92f15719bc09cb834b86	383650035	1	main_slash	7	advance_on_keypress_SLASH	126	stimuli_distractor_diamondtriangles.svg	stimuli_target_trianglesquares.svg	30	yes	57	0	47
6.6.1	win	2022-12-14	13:46:53	13:51:33	279822	61fa92f15719bc09cb834b86	383650035	1	main_slash	7	main_slash	127	stimuli_target_squaretriangles.svg	stimuli_distractor_diamondtriangles.svg	7	yes	0	0	2000
6.6.1	win	2022-12-14	13:46:53	13:51:33	279822	61fa92f15719bc09cb834b86	383650035	1	main_slash	7	advance_on_keypress_SLASH	128	stimuli_target_squaretriangles.svg	stimuli_distractor_diamondtriangles.svg	7	yes	57	0	173
6.6.1	win	2022-12-14	13:46:53	13:51:36	282650	61fa92f15719bc09cb834b86	383650035	1	main_slash	7	main_slash	129	stimuli_distractor_diamondtriangles.svg	stimuli_target_trianglecircles.svg	29	yes	0	0	2000
6.6.1	win	2022-12-14	13:46:53	13:51:36	282650	61fa92f15719bc09cb834b86	383650035	1	main_slash	7	advance_on_keypress_SLASH	130	stimuli_distractor_diamondtriangles.svg	stimuli_target_trianglecircles.svg	29	yes	57	0	57
6.6.1	win	2022-12-14	13:46:53	13:51:39	285344	61fa92f15719bc09cb834b86	383650035	1	main_slash	7	main_slash	131	stimuli_distractor_diamondtriangles.svg	stimuli_distractor_diamondtriangles.svg	40	no	0	1	2000
6.6.1	win	2022-12-14	13:46:53	13:51:39	285344	61fa92f15719bc09cb834b86	383650035	1	main_slash	7	advance_on_keypress_SLASH	132	stimuli_distractor_diamondtriangles.svg	stimuli_distractor_diamondtriangles.svg	40	no	57	0	299
6.6.1	win	2022-12-14	13:46:53	13:51:42	288291	61fa92f15719bc09cb834b86	383650035	1	main_slash	7	main_slash	133	stimuli_distractor_diamondtriangles.svg	stimuli_target_circlediamonds.svg	14	yes	0	0	2000
6.6.1	win	2022-12-14	13:46:53	13:51:42	288291	61fa92f15719bc09cb834b86	383650035	1	main_slash	7	advance_on_keypress_SLASH	134	stimuli_distractor_diamondtriangles.svg	stimuli_target_circlediamonds.svg	14	yes	57	0	279
6.6.1	win	2022-12-14	13:46:53	13:51:45	291226	61fa92f15719bc09cb834b86	383650035	1	main_slash	7	main_slash	135	stimuli_distractor_trianglediamonds.svg	stimuli_target_trianglecircles.svg	25	yes	0	0	2000
6.6.1	win	2022-12-14	13:46:53	13:51:45	291226	61fa92f15719bc09cb834b86	383650035	1	main_slash	7	advance_on_keypress_SLASH	136	stimuli_distractor_trianglediamonds.svg	stimuli_target_trianglecircles.svg	25	yes	57	0	73
6.6.1	win	2022-12-14	13:46:53	13:51:48	293961	61fa92f15719bc09cb834b86	383650035	1	main_slash	7	main_slash	137	stimuli_target_trianglesquares.svg	stimuli_distractor_diamondtriangles.svg	22	yes	0	0	2000
6.6.1	win	2022-12-14	13:46:53	13:51:48	293961	61fa92f15719bc09cb834b86	383650035	1	main_slash	7	advance_on_keypress_SLASH	138	stimuli_target_trianglesquares.svg	stimuli_distractor_diamondtriangles.svg	22	yes	57	0	163
6.6.1	win	2022-12-14	13:46:53	13:51:50	296790	61fa92f15719bc09cb834b86	383650035	1	main_slash	7	main_slash	139	stimuli_distractor_diamondtriangles.svg	stimuli_distractor_diamondtriangles.svg	39	no	0	1	2000
6.6.1	win	2022-12-14	13:46:53	13:51:50	296790	61fa92f15719bc09cb834b86	383650035	1	main_slash	7	advance_on_keypress_SLASH	140	stimuli_distractor_diamondtriangles.svg	stimuli_distractor_diamondtriangles.svg	39	no	57	0	911
6.6.1	win	2022-12-14	13:46:53	13:51:54	300336	61fa92f15719bc09cb834b86	383650035	1	main_slash	7	main_slash	141	stimuli_target_circlediamonds.svg	stimuli_distractor_diamondtriangles.svg	6	yes	0	0	2000
6.6.1	win	2022-12-14	13:46:53	13:51:54	300336	61fa92f15719bc09cb834b86	383650035	1	main_slash	7	advance_on_keypress_SLASH	142	stimuli_target_circlediamonds.svg	stimuli_distractor_diamondtriangles.svg	6	yes	57	0	603
6.6.1	win	2022-12-14	13:46:53	13:51:57	303591	61fa92f15719bc09cb834b86	383650035	1	main_slash	7	main_slash	143	stimuli_distractor_trianglediamonds.svg	stimuli_target_squaretriangles.svg	11	yes	0	0	2000
6.6.1	win	2022-12-14	13:46:53	13:51:57	303591	61fa92f15719bc09cb834b86	383650035	1	main_slash	7	advance_on_keypress_SLASH	144	stimuli_distractor_trianglediamonds.svg	stimuli_target_squaretriangles.svg	11	yes	57	0	396
6.6.1	win	2022-12-14	13:46:53	13:51:59	305467	61fa92f15719bc09cb834b86	383650035	1	main_slash	7	main_slash	145	stimuli_distractor_trianglediamonds.svg	stimuli_target_circlediamonds.svg	10	yes	53	1	833
6.6.1	win	2022-12-14	13:46:53	13:51:59	305467	61fa92f15719bc09cb834b86	383650035	1	main_slash	7	advance_on_keypress_SLASH	146	stimuli_distractor_trianglediamonds.svg	stimuli_target_circlediamonds.svg	10	yes	57	0	649
6.6.1	win	2022-12-14	13:46:53	13:52:02	308741	61fa92f15719bc09cb834b86	383650035	1	main_slash	7	main_slash	147	stimuli_target_circlediamonds.svg	stimuli_distractor_trianglediamonds.svg	2	yes	0	0	2000
6.6.1	win	2022-12-14	13:46:53	13:52:02	308741	61fa92f15719bc09cb834b86	383650035	1	main_slash	7	advance_on_keypress_SLASH	148	stimuli_target_circlediamonds.svg	stimuli_distractor_trianglediamonds.svg	2	yes	57	0	480
6.6.1	win	2022-12-14	13:46:53	13:52:06	311869	61fa92f15719bc09cb834b86	383650035	1	main_slash	7	main_slash	149	stimuli_target_trianglecircles.svg	stimuli_distractor_diamondtriangles.svg	21	yes	0	0	2000
6.6.1	win	2022-12-14	13:46:53	13:52:06	311869	61fa92f15719bc09cb834b86	383650035	1	main_slash	7	advance_on_keypress_SLASH	150	stimuli_target_trianglecircles.svg	stimuli_distractor_diamondtriangles.svg	21	yes	57	0	646
6.6.1	win	2022-12-14	13:46:53	13:52:09	315141	61fa92f15719bc09cb834b86	383650035	1	main_slash	7	main_slash	151	stimuli_distractor_diamondtriangles.svg	stimuli_target_diamondsquares.svg	32	yes	0	0	2000
6.6.1	win	2022-12-14	13:46:53	13:52:09	315141	61fa92f15719bc09cb834b86	383650035	1	main_slash	7	advance_on_keypress_SLASH	152	stimuli_distractor_diamondtriangles.svg	stimuli_target_diamondsquares.svg	32	yes	57	0	1269
6.6.1	win	2022-12-14	13:46:53	13:52:13	319078	61fa92f15719bc09cb834b86	383650035	1	main_slash	7	main_slash	153	stimuli_distractor_diamondtriangles.svg	stimuli_distractor_trianglediamonds.svg	37	no	0	1	2000
6.6.1	win	2022-12-14	13:46:53	13:52:13	319078	61fa92f15719bc09cb834b86	383650035	1	main_slash	7	advance_on_keypress_SLASH	154	stimuli_distractor_diamondtriangles.svg	stimuli_distractor_trianglediamonds.svg	37	no	57	0	1358
6.6.1	win	2022-12-14	13:46:53	13:52:16	321876	61fa92f15719bc09cb834b86	383650035	1	main_slash	7	main_slash	155	stimuli_distractor_trianglediamonds.svg	stimuli_target_circletriangles.svg	9	yes	53	1	795
6.6.1	win	2022-12-14	13:46:53	13:52:16	321876	61fa92f15719bc09cb834b86	383650035	1	main_slash	7	advance_on_keypress_SLASH	156	stimuli_distractor_trianglediamonds.svg	stimuli_target_circletriangles.svg	9	yes	57	0	1379
6.6.1	win	2022-12-14	13:46:53	13:52:20	325883	61fa92f15719bc09cb834b86	383650035	1	main_slash	7	main_slash	157	stimuli_target_diamondcircles.svg	stimuli_distractor_diamondtriangles.svg	23	yes	0	0	2000
6.6.1	win	2022-12-14	13:46:53	13:52:20	325883	61fa92f15719bc09cb834b86	383650035	1	main_slash	7	advance_on_keypress_SLASH	158	stimuli_target_diamondcircles.svg	stimuli_distractor_diamondtriangles.svg	23	yes	57	0	804
6.6.1	win	2022-12-14	13:46:53	13:52:23	329348	61fa92f15719bc09cb834b86	383650035	1	main_slash	7	main_slash	159	stimuli_distractor_trianglediamonds.svg	stimuli_distractor_diamondtriangles.svg	36	no	0	1	2000
6.6.1	win	2022-12-14	13:46:53	13:52:23	329348	61fa92f15719bc09cb834b86	383650035	1	main_slash	7	advance_on_keypress_SLASH	160	stimuli_distractor_trianglediamonds.svg	stimuli_distractor_diamondtriangles.svg	36	no	57	0	2088
6.6.1	win	2022-12-14	13:46:53	13:52:47	352958	61fa92f15719bc09cb834b86	383650035	1	practice_z	9	practice_z	1	stimuli_distractor_trianglediamonds.svg	stimuli_target_circlediamonds.svg	10	yes	44	1	788
6.6.1	win	2022-12-14	13:46:53	13:52:47	352958	61fa92f15719bc09cb834b86	383650035	1	practice_z	9	advance_on_keypress_ZEE	2	stimuli_distractor_trianglediamonds.svg	stimuli_target_circlediamonds.svg	10	yes	57	0	487
6.6.1	win	2022-12-14	13:46:53	13:52:51	357091	61fa92f15719bc09cb834b86	383650035	1	practice_z	9	practice_z	3	stimuli_distractor_trianglediamonds.svg	stimuli_distractor_diamondtriangles.svg	16	no	0	1	2000
6.6.1	win	2022-12-14	13:46:53	13:52:51	357091	61fa92f15719bc09cb834b86	383650035	1	practice_z	9	advance_on_keypress_ZEE	4	stimuli_distractor_trianglediamonds.svg	stimuli_distractor_diamondtriangles.svg	16	no	57	0	232
6.6.1	win	2022-12-14	13:46:53	13:52:55	360972	61fa92f15719bc09cb834b86	383650035	1	practice_z	9	practice_z	5	stimuli_target_diamondsquares.svg	stimuli_distractor_diamondtriangles.svg	3	yes	0	0	2000
6.6.1	win	2022-12-14	13:46:53	13:52:55	360972	61fa92f15719bc09cb834b86	383650035	1	practice_z	9	advance_on_keypress_ZEE	6	stimuli_target_diamondsquares.svg	stimuli_distractor_diamondtriangles.svg	3	yes	57	0	3239
6.6.1	win	2022-12-14	13:46:53	13:53:01	367066	61fa92f15719bc09cb834b86	383650035	1	practice_z	9	practice_z	7	stimuli_distractor_diamondtriangles.svg	stimuli_target_circletriangles.svg	7	yes	44	1	1198
6.6.1	win	2022-12-14	13:46:53	13:53:01	367066	61fa92f15719bc09cb834b86	383650035	1	practice_z	9	advance_on_keypress_ZEE	8	stimuli_distractor_diamondtriangles.svg	stimuli_target_circletriangles.svg	7	yes	57	0	773
6.6.1	win	2022-12-14	13:46:53	13:53:05	371490	61fa92f15719bc09cb834b86	383650035	1	practice_z	9	practice_z	9	stimuli_distractor_diamondtriangles.svg	stimuli_distractor_trianglediamonds.svg	14	no	0	1	2000
6.6.1	win	2022-12-14	13:46:53	13:53:05	371490	61fa92f15719bc09cb834b86	383650035	1	practice_z	9	advance_on_keypress_ZEE	10	stimuli_distractor_diamondtriangles.svg	stimuli_distractor_trianglediamonds.svg	14	no	57	0	713
6.6.1	win	2022-12-14	13:46:53	13:53:08	374777	61fa92f15719bc09cb834b86	383650035	1	practice_z	9	practice_z	11	stimuli_target_circlediamonds.svg	stimuli_distractor_diamondtriangles.svg	1	yes	44	1	914
6.6.1	win	2022-12-14	13:46:53	13:53:08	374777	61fa92f15719bc09cb834b86	383650035	1	practice_z	9	advance_on_keypress_ZEE	12	stimuli_target_circlediamonds.svg	stimuli_distractor_diamondtriangles.svg	1	yes	57	0	530
6.6.1	win	2022-12-14	13:46:53	13:53:11	376994	61fa92f15719bc09cb834b86	383650035	1	practice_z	9	practice_z	13	stimuli_target_squarediamonds.svg	stimuli_distractor_trianglediamonds.svg	5	yes	44	1	20
6.6.1	win	2022-12-14	13:46:53	13:53:11	376994	61fa92f15719bc09cb834b86	383650035	1	practice_z	9	advance_on_keypress_ZEE	14	stimuli_target_squarediamonds.svg	stimuli_distractor_trianglediamonds.svg	5	yes	57	0	211
6.6.1	win	2022-12-14	13:46:53	13:53:13	379402	61fa92f15719bc09cb834b86	383650035	1	practice_z	9	practice_z	15	stimuli_target_diamondsquares.svg	stimuli_distractor_trianglediamonds.svg	6	yes	44	1	523
6.6.1	win	2022-12-14	13:46:53	13:53:13	379402	61fa92f15719bc09cb834b86	383650035	1	practice_z	9	advance_on_keypress_ZEE	16	stimuli_target_diamondsquares.svg	stimuli_distractor_trianglediamonds.svg	6	yes	57	0	195
6.6.1	win	2022-12-14	13:46:53	13:53:15	381334	61fa92f15719bc09cb834b86	383650035	1	practice_z	9	practice_z	17	stimuli_target_circlediamonds.svg	stimuli_distractor_trianglediamonds.svg	4	yes	44	1	88
6.6.1	win	2022-12-14	13:46:53	13:53:15	381334	61fa92f15719bc09cb834b86	383650035	1	practice_z	9	advance_on_keypress_ZEE	18	stimuli_target_circlediamonds.svg	stimuli_distractor_trianglediamonds.svg	4	yes	57	0	61
6.6.1	win	2022-12-14	13:46:53	13:53:17	383151	61fa92f15719bc09cb834b86	383650035	1	practice_z	9	practice_z	19	stimuli_distractor_diamondtriangles.svg	stimuli_target_diamondcircles.svg	8	yes	44	1	102
6.6.1	win	2022-12-14	13:46:53	13:53:17	383151	61fa92f15719bc09cb834b86	383650035	1	practice_z	9	advance_on_keypress_ZEE	20	stimuli_distractor_diamondtriangles.svg	stimuli_target_diamondcircles.svg	8	yes	57	0	671
6.6.1	win	2022-12-14	13:46:53	13:53:19	385601	61fa92f15719bc09cb834b86	383650035	1	practice_z	9	practice_z	21	stimuli_distractor_trianglediamonds.svg	stimuli_target_diamondcircles.svg	12	yes	44	1	117
6.6.1	win	2022-12-14	13:46:53	13:53:19	385601	61fa92f15719bc09cb834b86	383650035	1	practice_z	9	advance_on_keypress_ZEE	22	stimuli_distractor_trianglediamonds.svg	stimuli_target_diamondcircles.svg	12	yes	57	0	64
6.6.1	win	2022-12-14	13:46:53	13:53:21	387509	61fa92f15719bc09cb834b86	383650035	1	practice_z	9	practice_z	23	stimuli_distractor_diamondtriangles.svg	stimuli_target_trianglecircles.svg	9	yes	44	1	187
6.6.1	win	2022-12-14	13:46:53	13:53:21	387509	61fa92f15719bc09cb834b86	383650035	1	practice_z	9	advance_on_keypress_ZEE	24	stimuli_distractor_diamondtriangles.svg	stimuli_target_trianglecircles.svg	9	yes	57	0	389
6.6.1	win	2022-12-14	13:46:53	13:53:23	389797	61fa92f15719bc09cb834b86	383650035	1	practice_z	9	practice_z	25	stimuli_distractor_trianglediamonds.svg	stimuli_target_squarediamonds.svg	11	yes	44	1	247
6.6.1	win	2022-12-14	13:46:53	13:53:23	389797	61fa92f15719bc09cb834b86	383650035	1	practice_z	9	advance_on_keypress_ZEE	26	stimuli_distractor_trianglediamonds.svg	stimuli_target_squarediamonds.svg	11	yes	57	0	302
6.6.1	win	2022-12-14	13:46:53	13:53:25	391837	61fa92f15719bc09cb834b86	383650035	1	practice_z	9	practice_z	27	stimuli_distractor_diamondtriangles.svg	stimuli_distractor_diamondtriangles.svg	13	no	44	0	81
6.6.1	win	2022-12-14	13:46:53	13:53:25	391837	61fa92f15719bc09cb834b86	383650035	1	practice_z	9	advance_on_keypress_ZEE	28	stimuli_distractor_diamondtriangles.svg	stimuli_distractor_diamondtriangles.svg	13	no	57	0	166
6.6.1	win	2022-12-14	13:46:53	13:53:29	395671	61fa92f15719bc09cb834b86	383650035	1	practice_z	9	practice_z	29	stimuli_distractor_trianglediamonds.svg	stimuli_distractor_trianglediamonds.svg	15	no	0	1	2000
6.6.1	win	2022-12-14	13:46:53	13:53:29	395671	61fa92f15719bc09cb834b86	383650035	1	practice_z	9	advance_on_keypress_ZEE	30	stimuli_distractor_trianglediamonds.svg	stimuli_distractor_trianglediamonds.svg	15	no	57	0	938
6.6.1	win	2022-12-14	13:46:53	13:53:33	398898	61fa92f15719bc09cb834b86	383650035	1	practice_z	9	practice_z	31	stimuli_target_squarediamonds.svg	stimuli_distractor_diamondtriangles.svg	2	yes	44	1	644
6.6.1	win	2022-12-14	13:46:53	13:53:33	398898	61fa92f15719bc09cb834b86	383650035	1	practice_z	9	advance_on_keypress_ZEE	32	stimuli_target_squarediamonds.svg	stimuli_distractor_diamondtriangles.svg	2	yes	57	0	318
6.6.1	win	2022-12-14	13:46:53	13:53:37	403594	61fa92f15719bc09cb834b86	383650035	1	main_z	11	main_z	1	stimuli_distractor_trianglediamonds.svg	stimuli_target_trianglesquares.svg	26	yes	44	1	5
6.6.1	win	2022-12-14	13:46:53	13:53:37	403594	61fa92f15719bc09cb834b86	383650035	1	main_z	11	advance_on_keypress_ZEE	2	stimuli_distractor_trianglediamonds.svg	stimuli_target_trianglesquares.svg	26	yes	57	0	247
6.6.1	win	2022-12-14	13:46:53	13:53:38	404582	61fa92f15719bc09cb834b86	383650035	1	main_z	11	main_z	3	stimuli_target_diamondsquares.svg	stimuli_distractor_trianglediamonds.svg	20	yes	44	1	97
6.6.1	win	2022-12-14	13:46:53	13:53:38	404582	61fa92f15719bc09cb834b86	383650035	1	main_z	11	advance_on_keypress_ZEE	4	stimuli_target_diamondsquares.svg	stimuli_distractor_trianglediamonds.svg	20	yes	57	0	52
6.6.1	win	2022-12-14	13:46:53	13:53:39	405315	61fa92f15719bc09cb834b86	383650035	1	main_z	11	main_z	5	stimuli_target_circletriangles.svg	stimuli_distractor_trianglediamonds.svg	1	yes	44	1	44
6.6.1	win	2022-12-14	13:46:53	13:53:39	405315	61fa92f15719bc09cb834b86	383650035	1	main_z	11	advance_on_keypress_ZEE	6	stimuli_target_circletriangles.svg	stimuli_distractor_trianglediamonds.svg	1	yes	57	0	70
6.6.1	win	2022-12-14	13:46:53	13:53:40	406113	61fa92f15719bc09cb834b86	383650035	1	main_z	11	main_z	7	stimuli_target_trianglesquares.svg	stimuli_distractor_diamondtriangles.svg	22	yes	44	1	97
6.6.1	win	2022-12-14	13:46:53	13:53:40	406113	61fa92f15719bc09cb834b86	383650035	1	main_z	11	advance_on_keypress_ZEE	8	stimuli_target_trianglesquares.svg	stimuli_distractor_diamondtriangles.svg	22	yes	57	0	71
6.6.1	win	2022-12-14	13:46:53	13:53:41	406905	61fa92f15719bc09cb834b86	383650035	1	main_z	11	main_z	9	stimuli_target_squarediamonds.svg	stimuli_distractor_diamondtriangles.svg	8	yes	44	1	59
6.6.1	win	2022-12-14	13:46:53	13:53:41	406905	61fa92f15719bc09cb834b86	383650035	1	main_z	11	advance_on_keypress_ZEE	10	stimuli_target_squarediamonds.svg	stimuli_distractor_diamondtriangles.svg	8	yes	57	0	35
6.6.1	win	2022-12-14	13:46:53	13:53:41	407686	61fa92f15719bc09cb834b86	383650035	1	main_z	11	main_z	11	stimuli_distractor_diamondtriangles.svg	stimuli_distractor_diamondtriangles.svg	40	no	44	0	96
6.6.1	win	2022-12-14	13:46:53	13:53:41	407686	61fa92f15719bc09cb834b86	383650035	1	main_z	11	advance_on_keypress_ZEE	12	stimuli_distractor_diamondtriangles.svg	stimuli_distractor_diamondtriangles.svg	40	no	57	0	40
6.6.1	win	2022-12-14	13:46:53	13:53:42	408516	61fa92f15719bc09cb834b86	383650035	1	main_z	11	main_z	13	stimuli_distractor_trianglediamonds.svg	stimuli_distractor_trianglediamonds.svg	34	no	44	0	136
6.6.1	win	2022-12-14	13:46:53	13:53:42	408516	61fa92f15719bc09cb834b86	383650035	1	main_z	11	advance_on_keypress_ZEE	14	stimuli_distractor_trianglediamonds.svg	stimuli_distractor_trianglediamonds.svg	34	no	57	0	302
6.6.1	win	2022-12-14	13:46:53	13:53:43	409618	61fa92f15719bc09cb834b86	383650035	1	main_z	11	main_z	15	stimuli_distractor_diamondtriangles.svg	stimuli_target_circlediamonds.svg	14	yes	44	1	173
6.6.1	win	2022-12-14	13:46:53	13:53:43	409618	61fa92f15719bc09cb834b86	383650035	1	main_z	11	advance_on_keypress_ZEE	16	stimuli_distractor_diamondtriangles.svg	stimuli_target_circlediamonds.svg	14	yes	57	0	163
6.6.1	win	2022-12-14	13:46:53	13:53:46	412430	61fa92f15719bc09cb834b86	383650035	1	main_z	11	main_z	17	stimuli_target_squaretriangles.svg	stimuli_distractor_trianglediamonds.svg	3	yes	0	0	2000
6.6.1	win	2022-12-14	13:46:53	13:53:46	412430	61fa92f15719bc09cb834b86	383650035	1	main_z	11	advance_on_keypress_ZEE	18	stimuli_target_squaretriangles.svg	stimuli_distractor_trianglediamonds.svg	3	yes	57	0	113
6.6.1	win	2022-12-14	13:46:53	13:53:49	415188	61fa92f15719bc09cb834b86	383650035	1	main_z	11	main_z	19	stimuli_target_trianglecircles.svg	stimuli_distractor_diamondtriangles.svg	21	yes	0	0	2000
6.6.1	win	2022-12-14	13:46:53	13:53:49	415188	61fa92f15719bc09cb834b86	383650035	1	main_z	11	advance_on_keypress_ZEE	20	stimuli_target_trianglecircles.svg	stimuli_distractor_diamondtriangles.svg	21	yes	57	0	256
6.6.1	win	2022-12-14	13:46:53	13:53:52	418099	61fa92f15719bc09cb834b86	383650035	1	main_z	11	main_z	21	stimuli_distractor_diamondtriangles.svg	stimuli_distractor_trianglediamonds.svg	38	no	0	1	2000
6.6.1	win	2022-12-14	13:46:53	13:53:52	418099	61fa92f15719bc09cb834b86	383650035	1	main_z	11	advance_on_keypress_ZEE	22	stimuli_distractor_diamondtriangles.svg	stimuli_distractor_trianglediamonds.svg	38	no	57	0	95
6.6.1	win	2022-12-14	13:46:53	13:53:54	420849	61fa92f15719bc09cb834b86	383650035	1	main_z	11	main_z	23	stimuli_target_circlediamonds.svg	stimuli_distractor_trianglediamonds.svg	2	yes	0	0	2000
6.6.1	win	2022-12-14	13:46:53	13:53:54	420849	61fa92f15719bc09cb834b86	383650035	1	main_z	11	advance_on_keypress_ZEE	24	stimuli_target_circlediamonds.svg	stimuli_distractor_trianglediamonds.svg	2	yes	57	0	947
6.6.1	win	2022-12-14	13:46:53	13:53:58	424449	61fa92f15719bc09cb834b86	383650035	1	main_z	11	main_z	25	stimuli_target_diamondcircles.svg	stimuli_distractor_diamondtriangles.svg	23	yes	0	0	2000
6.6.1	win	2022-12-14	13:46:53	13:53:58	424449	61fa92f15719bc09cb834b86	383650035	1	main_z	11	advance_on_keypress_ZEE	26	stimuli_target_diamondcircles.svg	stimuli_distractor_diamondtriangles.svg	23	yes	57	0	114
6.6.1	win	2022-12-14	13:46:53	13:54:01	427223	61fa92f15719bc09cb834b86	383650035	1	main_z	11	main_z	27	stimuli_target_circlediamonds.svg	stimuli_distractor_diamondtriangles.svg	6	yes	0	0	2000
6.6.1	win	2022-12-14	13:46:53	13:54:01	427223	61fa92f15719bc09cb834b86	383650035	1	main_z	11	advance_on_keypress_ZEE	28	stimuli_target_circlediamonds.svg	stimuli_distractor_diamondtriangles.svg	6	yes	57	0	156
6.6.1	win	2022-12-14	13:46:53	13:54:04	430024	61fa92f15719bc09cb834b86	383650035	1	main_z	11	main_z	29	stimuli_distractor_trianglediamonds.svg	stimuli_distractor_trianglediamonds.svg	33	no	0	1	2000
6.6.1	win	2022-12-14	13:46:53	13:54:04	430024	61fa92f15719bc09cb834b86	383650035	1	main_z	11	advance_on_keypress_ZEE	30	stimuli_distractor_trianglediamonds.svg	stimuli_distractor_trianglediamonds.svg	33	no	57	0	50
6.6.1	win	2022-12-14	13:46:53	13:54:06	432734	61fa92f15719bc09cb834b86	383650035	1	main_z	11	main_z	31	stimuli_distractor_diamondtriangles.svg	stimuli_target_circletriangles.svg	13	yes	0	0	2000
6.6.1	win	2022-12-14	13:46:53	13:54:06	432734	61fa92f15719bc09cb834b86	383650035	1	main_z	11	advance_on_keypress_ZEE	32	stimuli_distractor_diamondtriangles.svg	stimuli_target_circletriangles.svg	13	yes	57	0	255
6.6.1	win	2022-12-14	13:46:53	13:54:08	434377	61fa92f15719bc09cb834b86	383650035	1	main_z	11	main_z	33	stimuli_distractor_trianglediamonds.svg	stimuli_target_trianglecircles.svg	25	yes	44	1	734
6.6.1	win	2022-12-14	13:46:53	13:54:08	434377	61fa92f15719bc09cb834b86	383650035	1	main_z	11	advance_on_keypress_ZEE	34	stimuli_distractor_trianglediamonds.svg	stimuli_target_trianglecircles.svg	25	yes	57	0	470
6.6.1	win	2022-12-14	13:46:53	13:54:09	435699	61fa92f15719bc09cb834b86	383650035	1	main_z	11	main_z	35	stimuli_target_diamondsquares.svg	stimuli_distractor_diamondtriangles.svg	24	yes	44	1	195
6.6.1	win	2022-12-14	13:46:53	13:54:09	435699	61fa92f15719bc09cb834b86	383650035	1	main_z	11	advance_on_keypress_ZEE	36	stimuli_target_diamondsquares.svg	stimuli_distractor_diamondtriangles.svg	24	yes	57	0	126
6.6.1	win	2022-12-14	13:46:53	13:54:10	436809	61fa92f15719bc09cb834b86	383650035	1	main_z	11	main_z	37	stimuli_target_squarediamonds.svg	stimuli_distractor_trianglediamonds.svg	4	yes	44	1	341
6.6.1	win	2022-12-14	13:46:53	13:54:10	436809	61fa92f15719bc09cb834b86	383650035	1	main_z	11	advance_on_keypress_ZEE	38	stimuli_target_squarediamonds.svg	stimuli_distractor_trianglediamonds.svg	4	yes	57	0	154
6.6.1	win	2022-12-14	13:46:53	13:54:12	438065	61fa92f15719bc09cb834b86	383650035	1	main_z	11	main_z	39	stimuli_distractor_diamondtriangles.svg	stimuli_target_trianglecircles.svg	29	yes	44	1	477
6.6.1	win	2022-12-14	13:46:53	13:54:12	438065	61fa92f15719bc09cb834b86	383650035	1	main_z	11	advance_on_keypress_ZEE	40	stimuli_distractor_diamondtriangles.svg	stimuli_target_trianglecircles.svg	29	yes	57	0	173
6.6.1	win	2022-12-14	13:46:53	13:54:13	438917	61fa92f15719bc09cb834b86	383650035	1	main_z	11	main_z	41	stimuli_distractor_diamondtriangles.svg	stimuli_target_diamondsquares.svg	32	yes	44	1	34
6.6.1	win	2022-12-14	13:46:53	13:54:13	438917	61fa92f15719bc09cb834b86	383650035	1	main_z	11	advance_on_keypress_ZEE	42	stimuli_distractor_diamondtriangles.svg	stimuli_target_diamondsquares.svg	32	yes	57	0	127
6.6.1	win	2022-12-14	13:46:53	13:54:14	439875	61fa92f15719bc09cb834b86	383650035	1	main_z	11	main_z	43	stimuli_distractor_trianglediamonds.svg	stimuli_target_circlediamonds.svg	10	yes	44	1	187
6.6.1	win	2022-12-14	13:46:53	13:54:14	439875	61fa92f15719bc09cb834b86	383650035	1	main_z	11	advance_on_keypress_ZEE	44	stimuli_distractor_trianglediamonds.svg	stimuli_target_circlediamonds.svg	10	yes	57	0	199
6.6.1	win	2022-12-14	13:46:53	13:54:15	441073	61fa92f15719bc09cb834b86	383650035	1	main_z	11	main_z	45	stimuli_distractor_trianglediamonds.svg	stimuli_distractor_diamondtriangles.svg	36	no	44	0	364
6.6.1	win	2022-12-14	13:46:53	13:54:15	441073	61fa92f15719bc09cb834b86	383650035	1	main_z	11	advance_on_keypress_ZEE	46	stimuli_distractor_trianglediamonds.svg	stimuli_distractor_diamondtriangles.svg	36	no	57	0	182
6.6.1	win	2022-12-14	13:46:53	13:54:16	442274	61fa92f15719bc09cb834b86	383650035	1	main_z	11	main_z	47	stimuli_distractor_diamondtriangles.svg	stimuli_target_squarediamonds.svg	16	yes	44	1	390
6.6.1	win	2022-12-14	13:46:53	13:54:16	442274	61fa92f15719bc09cb834b86	383650035	1	main_z	11	advance_on_keypress_ZEE	48	stimuli_distractor_diamondtriangles.svg	stimuli_target_squarediamonds.svg	16	yes	57	0	102
6.6.1	win	2022-12-14	13:46:53	13:54:17	443434	61fa92f15719bc09cb834b86	383650035	1	main_z	11	main_z	49	stimuli_distractor_trianglediamonds.svg	stimuli_target_circletriangles.svg	9	yes	44	1	426
6.6.1	win	2022-12-14	13:46:53	13:54:17	443434	61fa92f15719bc09cb834b86	383650035	1	main_z	11	advance_on_keypress_ZEE	50	stimuli_distractor_trianglediamonds.svg	stimuli_target_circletriangles.svg	9	yes	57	0	381
6.6.1	win	2022-12-14	13:46:53	13:54:19	444889	61fa92f15719bc09cb834b86	383650035	1	main_z	11	main_z	51	stimuli_distractor_trianglediamonds.svg	stimuli_distractor_diamondtriangles.svg	35	no	44	0	445
6.6.1	win	2022-12-14	13:46:53	13:54:19	444889	61fa92f15719bc09cb834b86	383650035	1	main_z	11	advance_on_keypress_ZEE	52	stimuli_distractor_trianglediamonds.svg	stimuli_distractor_diamondtriangles.svg	35	no	57	0	303
6.6.1	win	2022-12-14	13:46:53	13:54:19	445825	61fa92f15719bc09cb834b86	383650035	1	main_z	11	main_z	53	stimuli_distractor_trianglediamonds.svg	stimuli_target_diamondcircles.svg	27	yes	44	1	7
6.6.1	win	2022-12-14	13:46:53	13:54:19	445825	61fa92f15719bc09cb834b86	383650035	1	main_z	11	advance_on_keypress_ZEE	54	stimuli_distractor_trianglediamonds.svg	stimuli_target_diamondcircles.svg	27	yes	57	0	659
6.6.1	win	2022-12-14	13:46:53	13:54:21	447449	61fa92f15719bc09cb834b86	383650035	1	main_z	11	main_z	55	stimuli_distractor_diamondtriangles.svg	stimuli_distractor_diamondtriangles.svg	39	no	44	0	337
6.6.1	win	2022-12-14	13:46:53	13:54:21	447449	61fa92f15719bc09cb834b86	383650035	1	main_z	11	advance_on_keypress_ZEE	56	stimuli_distractor_diamondtriangles.svg	stimuli_distractor_diamondtriangles.svg	39	no	57	0	4
6.6.1	win	2022-12-14	13:46:53	13:54:22	448625	61fa92f15719bc09cb834b86	383650035	1	main_z	11	main_z	57	stimuli_distractor_diamondtriangles.svg	stimuli_target_squaretriangles.svg	15	yes	44	1	526
6.6.1	win	2022-12-14	13:46:53	13:54:22	448625	61fa92f15719bc09cb834b86	383650035	1	main_z	11	advance_on_keypress_ZEE	58	stimuli_distractor_diamondtriangles.svg	stimuli_target_squaretriangles.svg	15	yes	57	0	305
6.6.1	win	2022-12-14	13:46:53	13:54:24	450041	61fa92f15719bc09cb834b86	383650035	1	main_z	11	main_z	59	stimuli_target_squaretriangles.svg	stimuli_distractor_diamondtriangles.svg	7	yes	44	1	475
6.6.1	win	2022-12-14	13:46:53	13:54:24	450041	61fa92f15719bc09cb834b86	383650035	1	main_z	11	advance_on_keypress_ZEE	60	stimuli_target_squaretriangles.svg	stimuli_distractor_diamondtriangles.svg	7	yes	57	0	939
6.6.1	win	2022-12-14	13:46:53	13:54:27	453620	61fa92f15719bc09cb834b86	383650035	1	main_z	11	main_z	61	stimuli_target_trianglecircles.svg	stimuli_distractor_trianglediamonds.svg	17	yes	0	0	2000
6.6.1	win	2022-12-14	13:46:53	13:54:27	453620	61fa92f15719bc09cb834b86	383650035	1	main_z	11	advance_on_keypress_ZEE	62	stimuli_target_trianglecircles.svg	stimuli_distractor_trianglediamonds.svg	17	yes	57	0	640
6.6.1	win	2022-12-14	13:46:53	13:54:29	455572	61fa92f15719bc09cb834b86	383650035	1	main_z	11	main_z	63	stimuli_distractor_diamondtriangles.svg	stimuli_target_diamondcircles.svg	31	yes	44	1	658
6.6.1	win	2022-12-14	13:46:53	13:54:29	455572	61fa92f15719bc09cb834b86	383650035	1	main_z	11	advance_on_keypress_ZEE	64	stimuli_distractor_diamondtriangles.svg	stimuli_target_diamondcircles.svg	31	yes	57	0	307
6.6.1	win	2022-12-14	13:46:53	13:54:31	457168	61fa92f15719bc09cb834b86	383650035	1	main_z	11	main_z	65	stimuli_distractor_diamondtriangles.svg	stimuli_distractor_trianglediamonds.svg	37	no	44	0	636
6.6.1	win	2022-12-14	13:46:53	13:54:31	457168	61fa92f15719bc09cb834b86	383650035	1	main_z	11	advance_on_keypress_ZEE	66	stimuli_distractor_diamondtriangles.svg	stimuli_distractor_trianglediamonds.svg	37	no	57	0	355
6.6.1	win	2022-12-14	13:46:53	13:54:32	458186	61fa92f15719bc09cb834b86	383650035	1	main_z	11	main_z	67	stimuli_distractor_trianglediamonds.svg	stimuli_target_diamondsquares.svg	28	yes	44	1	5
6.6.1	win	2022-12-14	13:46:53	13:54:32	458186	61fa92f15719bc09cb834b86	383650035	1	main_z	11	advance_on_keypress_ZEE	68	stimuli_distractor_trianglediamonds.svg	stimuli_target_diamondsquares.svg	28	yes	57	0	493
6.6.1	win	2022-12-14	13:46:53	13:54:34	460834	61fa92f15719bc09cb834b86	383650035	1	main_z	11	main_z	69	stimuli_distractor_trianglediamonds.svg	stimuli_target_squaretriangles.svg	11	yes	44	1	1497
6.6.1	win	2022-12-14	13:46:53	13:54:34	460834	61fa92f15719bc09cb834b86	383650035	1	main_z	11	advance_on_keypress_ZEE	70	stimuli_distractor_trianglediamonds.svg	stimuli_target_squaretriangles.svg	11	yes	57	0	620
6.6.1	win	2022-12-14	13:46:53	13:54:36	462203	61fa92f15719bc09cb834b86	383650035	1	main_z	11	main_z	71	stimuli_distractor_trianglediamonds.svg	stimuli_target_squarediamonds.svg	12	yes	44	1	108
6.6.1	win	2022-12-14	13:46:53	13:54:36	462203	61fa92f15719bc09cb834b86	383650035	1	main_z	11	advance_on_keypress_ZEE	72	stimuli_distractor_trianglediamonds.svg	stimuli_target_squarediamonds.svg	12	yes	57	0	742
6.6.1	win	2022-12-14	13:46:53	13:54:38	464049	61fa92f15719bc09cb834b86	383650035	1	main_z	11	main_z	73	stimuli_distractor_diamondtriangles.svg	stimuli_target_trianglesquares.svg	30	yes	44	1	478
6.6.1	win	2022-12-14	13:46:53	13:54:38	464049	61fa92f15719bc09cb834b86	383650035	1	main_z	11	advance_on_keypress_ZEE	74	stimuli_distractor_diamondtriangles.svg	stimuli_target_trianglesquares.svg	30	yes	57	0	1272
6.6.1	win	2022-12-14	13:46:53	13:54:40	466681	61fa92f15719bc09cb834b86	383650035	1	main_z	11	main_z	75	stimuli_target_trianglesquares.svg	stimuli_distractor_trianglediamonds.svg	18	yes	44	1	708
6.6.1	win	2022-12-14	13:46:53	13:54:40	466681	61fa92f15719bc09cb834b86	383650035	1	main_z	11	advance_on_keypress_ZEE	76	stimuli_target_trianglesquares.svg	stimuli_distractor_trianglediamonds.svg	18	yes	57	0	133
6.6.1	win	2022-12-14	13:46:53	13:54:41	467707	61fa92f15719bc09cb834b86	383650035	1	main_z	11	main_z	77	stimuli_target_circletriangles.svg	stimuli_distractor_diamondtriangles.svg	5	yes	44	1	243
6.6.1	win	2022-12-14	13:46:53	13:54:41	467707	61fa92f15719bc09cb834b86	383650035	1	main_z	11	advance_on_keypress_ZEE	78	stimuli_target_circletriangles.svg	stimuli_distractor_diamondtriangles.svg	5	yes	57	0	722
6.6.1	win	2022-12-14	13:46:53	13:54:43	469689	61fa92f15719bc09cb834b86	383650035	1	main_z	11	main_z	79	stimuli_target_diamondcircles.svg	stimuli_distractor_trianglediamonds.svg	19	yes	44	1	606
6.6.1	win	2022-12-14	13:46:53	13:54:43	469689	61fa92f15719bc09cb834b86	383650035	1	main_z	11	advance_on_keypress_ZEE	80	stimuli_target_diamondcircles.svg	stimuli_distractor_trianglediamonds.svg	19	yes	57	0	211
6.6.1	win	2022-12-14	13:46:53	13:54:44	470759	61fa92f15719bc09cb834b86	383650035	1	main_z	11	main_z	81	stimuli_target_trianglecircles.svg	stimuli_distractor_diamondtriangles.svg	21	yes	44	1	208
6.6.1	win	2022-12-14	13:46:53	13:54:44	470759	61fa92f15719bc09cb834b86	383650035	1	main_z	11	advance_on_keypress_ZEE	82	stimuli_target_trianglecircles.svg	stimuli_distractor_diamondtriangles.svg	21	yes	57	0	1131
6.6.1	win	2022-12-14	13:46:53	13:54:47	473513	61fa92f15719bc09cb834b86	383650035	1	main_z	11	main_z	83	stimuli_distractor_diamondtriangles.svg	stimuli_target_diamondcircles.svg	31	yes	44	1	979
6.6.1	win	2022-12-14	13:46:53	13:54:47	473513	61fa92f15719bc09cb834b86	383650035	1	main_z	11	advance_on_keypress_ZEE	84	stimuli_distractor_diamondtriangles.svg	stimuli_target_diamondcircles.svg	31	yes	57	0	247
6.6.1	win	2022-12-14	13:46:53	13:54:48	474801	61fa92f15719bc09cb834b86	383650035	1	main_z	11	main_z	85	stimuli_distractor_trianglediamonds.svg	stimuli_target_diamondcircles.svg	27	yes	44	1	391
6.6.1	win	2022-12-14	13:46:53	13:54:48	474801	61fa92f15719bc09cb834b86	383650035	1	main_z	11	advance_on_keypress_ZEE	86	stimuli_distractor_trianglediamonds.svg	stimuli_target_diamondcircles.svg	27	yes	57	0	290
6.6.1	win	2022-12-14	13:46:53	13:54:51	476930	61fa92f15719bc09cb834b86	383650035	1	main_z	11	main_z	87	stimuli_distractor_diamondtriangles.svg	stimuli_distractor_diamondtriangles.svg	40	no	44	0	1194
6.6.1	win	2022-12-14	13:46:53	13:54:51	476930	61fa92f15719bc09cb834b86	383650035	1	main_z	11	advance_on_keypress_ZEE	88	stimuli_distractor_diamondtriangles.svg	stimuli_distractor_diamondtriangles.svg	40	no	57	0	890
6.6.1	win	2022-12-14	13:46:53	13:54:52	478713	61fa92f15719bc09cb834b86	383650035	1	main_z	11	main_z	89	stimuli_target_squarediamonds.svg	stimuli_distractor_trianglediamonds.svg	4	yes	44	1	257
6.6.1	win	2022-12-14	13:46:53	13:54:52	478713	61fa92f15719bc09cb834b86	383650035	1	main_z	11	advance_on_keypress_ZEE	90	stimuli_target_squarediamonds.svg	stimuli_distractor_trianglediamonds.svg	4	yes	57	0	702
6.6.1	win	2022-12-14	13:46:53	13:54:54	480098	61fa92f15719bc09cb834b86	383650035	1	main_z	11	main_z	91	stimuli_distractor_diamondtriangles.svg	stimuli_target_circletriangles.svg	13	yes	44	1	41
6.6.1	win	2022-12-14	13:46:53	13:54:54	480098	61fa92f15719bc09cb834b86	383650035	1	main_z	11	advance_on_keypress_ZEE	92	stimuli_distractor_diamondtriangles.svg	stimuli_target_circletriangles.svg	13	yes	57	0	226
6.6.1	win	2022-12-14	13:46:53	13:54:55	481218	61fa92f15719bc09cb834b86	383650035	1	main_z	11	main_z	93	stimuli_distractor_trianglediamonds.svg	stimuli_distractor_diamondtriangles.svg	36	no	44	0	254
6.6.1	win	2022-12-14	13:46:53	13:54:55	481218	61fa92f15719bc09cb834b86	383650035	1	main_z	11	advance_on_keypress_ZEE	94	stimuli_distractor_trianglediamonds.svg	stimuli_distractor_diamondtriangles.svg	36	no	57	0	210
6.6.1	win	2022-12-14	13:46:53	13:54:56	482201	61fa92f15719bc09cb834b86	383650035	1	main_z	11	main_z	95	stimuli_distractor_trianglediamonds.svg	stimuli_target_squarediamonds.svg	12	yes	44	1	143
6.6.1	win	2022-12-14	13:46:53	13:54:56	482201	61fa92f15719bc09cb834b86	383650035	1	main_z	11	advance_on_keypress_ZEE	96	stimuli_distractor_trianglediamonds.svg	stimuli_target_squarediamonds.svg	12	yes	57	0	332
6.6.1	win	2022-12-14	13:46:53	13:54:57	483457	61fa92f15719bc09cb834b86	383650035	1	main_z	11	main_z	97	stimuli_distractor_diamondtriangles.svg	stimuli_target_trianglesquares.svg	30	yes	44	1	292
6.6.1	win	2022-12-14	13:46:53	13:54:57	483457	61fa92f15719bc09cb834b86	383650035	1	main_z	11	advance_on_keypress_ZEE	98	stimuli_distractor_diamondtriangles.svg	stimuli_target_trianglesquares.svg	30	yes	57	0	129
6.6.1	win	2022-12-14	13:46:53	13:54:58	484833	61fa92f15719bc09cb834b86	383650035	1	main_z	11	main_z	99	stimuli_target_circletriangles.svg	stimuli_distractor_diamondtriangles.svg	5	yes	44	1	601
6.6.1	win	2022-12-14	13:46:53	13:54:58	484833	61fa92f15719bc09cb834b86	383650035	1	main_z	11	advance_on_keypress_ZEE	100	stimuli_target_circletriangles.svg	stimuli_distractor_diamondtriangles.svg	5	yes	57	0	203
6.6.1	win	2022-12-14	13:46:53	13:54:59	485839	61fa92f15719bc09cb834b86	383650035	1	main_z	11	main_z	101	stimuli_distractor_trianglediamonds.svg	stimuli_target_circletriangles.svg	9	yes	44	1	152
6.6.1	win	2022-12-14	13:46:53	13:54:59	485839	61fa92f15719bc09cb834b86	383650035	1	main_z	11	advance_on_keypress_ZEE	102	stimuli_distractor_trianglediamonds.svg	stimuli_target_circletriangles.svg	9	yes	57	0	203
6.6.1	win	2022-12-14	13:46:53	13:55:01	486943	61fa92f15719bc09cb834b86	383650035	1	main_z	11	main_z	103	stimuli_distractor_trianglediamonds.svg	stimuli_distractor_diamondtriangles.svg	35	no	44	0	248
6.6.1	win	2022-12-14	13:46:53	13:55:01	486943	61fa92f15719bc09cb834b86	383650035	1	main_z	11	advance_on_keypress_ZEE	104	stimuli_distractor_trianglediamonds.svg	stimuli_distractor_diamondtriangles.svg	35	no	57	0	201
6.6.1	win	2022-12-14	13:46:53	13:55:02	488057	61fa92f15719bc09cb834b86	383650035	1	main_z	11	main_z	105	stimuli_distractor_trianglediamonds.svg	stimuli_target_trianglecircles.svg	25	yes	44	1	256
6.6.1	win	2022-12-14	13:46:53	13:55:02	488057	61fa92f15719bc09cb834b86	383650035	1	main_z	11	advance_on_keypress_ZEE	106	stimuli_distractor_trianglediamonds.svg	stimuli_target_trianglecircles.svg	25	yes	57	0	893
6.6.1	win	2022-12-14	13:46:53	13:55:05	491166	61fa92f15719bc09cb834b86	383650035	1	main_z	11	main_z	107	stimuli_distractor_trianglediamonds.svg	stimuli_target_diamondsquares.svg	28	yes	44	1	1559
6.6.1	win	2022-12-14	13:46:53	13:55:05	491166	61fa92f15719bc09cb834b86	383650035	1	main_z	11	advance_on_keypress_ZEE	108	stimuli_distractor_trianglediamonds.svg	stimuli_target_diamondsquares.svg	28	yes	57	0	49
6.6.1	win	2022-12-14	13:46:53	13:55:06	491994	61fa92f15719bc09cb834b86	383650035	1	main_z	11	main_z	109	stimuli_target_diamondsquares.svg	stimuli_distractor_trianglediamonds.svg	20	yes	44	1	141
6.6.1	win	2022-12-14	13:46:53	13:55:06	491994	61fa92f15719bc09cb834b86	383650035	1	main_z	11	advance_on_keypress_ZEE	110	stimuli_target_diamondsquares.svg	stimuli_distractor_trianglediamonds.svg	20	yes	57	0	65
6.6.1	win	2022-12-14	13:46:53	13:55:07	493048	61fa92f15719bc09cb834b86	383650035	1	main_z	11	main_z	111	stimuli_distractor_diamondtriangles.svg	stimuli_target_squaretriangles.svg	15	yes	44	1	318
6.6.1	win	2022-12-14	13:46:53	13:55:07	493048	61fa92f15719bc09cb834b86	383650035	1	main_z	11	advance_on_keypress_ZEE	112	stimuli_distractor_diamondtriangles.svg	stimuli_target_squaretriangles.svg	15	yes	57	0	27
6.6.1	win	2022-12-14	13:46:53	13:55:08	494117	61fa92f15719bc09cb834b86	383650035	1	main_z	11	main_z	113	stimuli_target_squarediamonds.svg	stimuli_distractor_diamondtriangles.svg	8	yes	44	1	386
6.6.1	win	2022-12-14	13:46:53	13:55:08	494117	61fa92f15719bc09cb834b86	383650035	1	main_z	11	advance_on_keypress_ZEE	114	stimuli_target_squarediamonds.svg	stimuli_distractor_diamondtriangles.svg	8	yes	57	0	224
6.6.1	win	2022-12-14	13:46:53	13:55:09	495427	61fa92f15719bc09cb834b86	383650035	1	main_z	11	main_z	115	stimuli_target_squaretriangles.svg	stimuli_distractor_diamondtriangles.svg	7	yes	44	1	442
6.6.1	win	2022-12-14	13:46:53	13:55:09	495427	61fa92f15719bc09cb834b86	383650035	1	main_z	11	advance_on_keypress_ZEE	116	stimuli_target_squaretriangles.svg	stimuli_distractor_diamondtriangles.svg	7	yes	57	0	261
6.6.1	win	2022-12-14	13:46:53	13:55:11	497066	61fa92f15719bc09cb834b86	383650035	1	main_z	11	main_z	117	stimuli_distractor_diamondtriangles.svg	stimuli_distractor_diamondtriangles.svg	39	no	44	0	735
6.6.1	win	2022-12-14	13:46:53	13:55:11	497066	61fa92f15719bc09cb834b86	383650035	1	main_z	11	advance_on_keypress_ZEE	118	stimuli_distractor_diamondtriangles.svg	stimuli_distractor_diamondtriangles.svg	39	no	57	0	228
6.6.1	win	2022-12-14	13:46:53	13:55:12	498177	61fa92f15719bc09cb834b86	383650035	1	main_z	11	main_z	119	stimuli_distractor_trianglediamonds.svg	stimuli_target_circlediamonds.svg	10	yes	44	1	246
6.6.1	win	2022-12-14	13:46:53	13:55:12	498177	61fa92f15719bc09cb834b86	383650035	1	main_z	11	advance_on_keypress_ZEE	120	stimuli_distractor_trianglediamonds.svg	stimuli_target_circlediamonds.svg	10	yes	57	0	393
6.6.1	win	2022-12-14	13:46:53	13:55:13	499498	61fa92f15719bc09cb834b86	383650035	1	main_z	11	main_z	121	stimuli_target_trianglecircles.svg	stimuli_distractor_trianglediamonds.svg	17	yes	44	1	277
6.6.1	win	2022-12-14	13:46:53	13:55:13	499498	61fa92f15719bc09cb834b86	383650035	1	main_z	11	advance_on_keypress_ZEE	122	stimuli_target_trianglecircles.svg	stimuli_distractor_trianglediamonds.svg	17	yes	57	0	176
6.6.1	win	2022-12-14	13:46:53	13:55:14	500553	61fa92f15719bc09cb834b86	383650035	1	main_z	11	main_z	123	stimuli_target_circletriangles.svg	stimuli_distractor_trianglediamonds.svg	1	yes	44	1	248
6.6.1	win	2022-12-14	13:46:53	13:55:14	500553	61fa92f15719bc09cb834b86	383650035	1	main_z	11	advance_on_keypress_ZEE	124	stimuli_target_circletriangles.svg	stimuli_distractor_trianglediamonds.svg	1	yes	57	0	675
6.6.1	win	2022-12-14	13:46:53	13:55:16	501940	61fa92f15719bc09cb834b86	383650035	1	main_z	11	main_z	125	stimuli_target_diamondcircles.svg	stimuli_distractor_diamondtriangles.svg	23	yes	44	1	78
6.6.1	win	2022-12-14	13:46:53	13:55:16	501940	61fa92f15719bc09cb834b86	383650035	1	main_z	11	advance_on_keypress_ZEE	126	stimuli_target_diamondcircles.svg	stimuli_distractor_diamondtriangles.svg	23	yes	57	0	567
6.6.1	win	2022-12-14	13:46:53	13:55:17	503644	61fa92f15719bc09cb834b86	383650035	1	main_z	11	main_z	127	stimuli_target_trianglesquares.svg	stimuli_distractor_trianglediamonds.svg	18	yes	44	1	496
6.6.1	win	2022-12-14	13:46:53	13:55:17	503644	61fa92f15719bc09cb834b86	383650035	1	main_z	11	advance_on_keypress_ZEE	128	stimuli_target_trianglesquares.svg	stimuli_distractor_trianglediamonds.svg	18	yes	57	0	1221
6.6.1	win	2022-12-14	13:46:53	13:55:19	505736	61fa92f15719bc09cb834b86	383650035	1	main_z	11	main_z	129	stimuli_distractor_diamondtriangles.svg	stimuli_target_circlediamonds.svg	14	yes	44	1	214
6.6.1	win	2022-12-14	13:46:53	13:55:19	505736	61fa92f15719bc09cb834b86	383650035	1	main_z	11	advance_on_keypress_ZEE	130	stimuli_distractor_diamondtriangles.svg	stimuli_target_circlediamonds.svg	14	yes	57	0	14
6.6.1	win	2022-12-14	13:46:53	13:55:20	506816	61fa92f15719bc09cb834b86	383650035	1	main_z	11	main_z	131	stimuli_distractor_diamondtriangles.svg	stimuli_distractor_trianglediamonds.svg	38	no	44	0	414
6.6.1	win	2022-12-14	13:46:53	13:55:20	506816	61fa92f15719bc09cb834b86	383650035	1	main_z	11	advance_on_keypress_ZEE	132	stimuli_distractor_diamondtriangles.svg	stimuli_distractor_trianglediamonds.svg	38	no	57	0	246
6.6.1	win	2022-12-14	13:46:53	13:55:22	508059	61fa92f15719bc09cb834b86	383650035	1	main_z	11	main_z	133	stimuli_distractor_diamondtriangles.svg	stimuli_target_squarediamonds.svg	16	yes	44	1	346
6.6.1	win	2022-12-14	13:46:53	13:55:22	508059	61fa92f15719bc09cb834b86	383650035	1	main_z	11	advance_on_keypress_ZEE	134	stimuli_distractor_diamondtriangles.svg	stimuli_target_squarediamonds.svg	16	yes	57	0	246
6.6.1	win	2022-12-14	13:46:53	13:55:23	509068	61fa92f15719bc09cb834b86	383650035	1	main_z	11	main_z	135	stimuli_distractor_diamondtriangles.svg	stimuli_target_trianglecircles.svg	29	yes	44	1	122
6.6.1	win	2022-12-14	13:46:53	13:55:23	509068	61fa92f15719bc09cb834b86	383650035	1	main_z	11	advance_on_keypress_ZEE	136	stimuli_distractor_diamondtriangles.svg	stimuli_target_trianglecircles.svg	29	yes	57	0	295
6.6.1	win	2022-12-14	13:46:53	13:55:24	510017	61fa92f15719bc09cb834b86	383650035	1	main_z	11	main_z	137	stimuli_target_circlediamonds.svg	stimuli_distractor_diamondtriangles.svg	6	yes	44	1	7
6.6.1	win	2022-12-14	13:46:53	13:55:24	510017	61fa92f15719bc09cb834b86	383650035	1	main_z	11	advance_on_keypress_ZEE	138	stimuli_target_circlediamonds.svg	stimuli_distractor_diamondtriangles.svg	6	yes	57	0	101
6.6.1	win	2022-12-14	13:46:53	13:55:25	511677	61fa92f15719bc09cb834b86	383650035	1	main_z	11	main_z	139	stimuli_distractor_trianglediamonds.svg	stimuli_target_trianglesquares.svg	26	yes	44	1	903
6.6.1	win	2022-12-14	13:46:53	13:55:25	511677	61fa92f15719bc09cb834b86	383650035	1	main_z	11	advance_on_keypress_ZEE	140	stimuli_distractor_trianglediamonds.svg	stimuli_target_trianglesquares.svg	26	yes	57	0	286
6.6.1	win	2022-12-14	13:46:53	13:55:27	513434	61fa92f15719bc09cb834b86	383650035	1	main_z	11	main_z	141	stimuli_distractor_diamondtriangles.svg	stimuli_target_diamondsquares.svg	32	yes	44	1	820
6.6.1	win	2022-12-14	13:46:53	13:55:27	513434	61fa92f15719bc09cb834b86	383650035	1	main_z	11	advance_on_keypress_ZEE	142	stimuli_distractor_diamondtriangles.svg	stimuli_target_diamondsquares.svg	32	yes	57	0	238
6.6.1	win	2022-12-14	13:46:53	13:55:28	514630	61fa92f15719bc09cb834b86	383650035	1	main_z	11	main_z	143	stimuli_target_diamondsquares.svg	stimuli_distractor_diamondtriangles.svg	24	yes	44	1	304
6.6.1	win	2022-12-14	13:46:53	13:55:28	514630	61fa92f15719bc09cb834b86	383650035	1	main_z	11	advance_on_keypress_ZEE	144	stimuli_target_diamondsquares.svg	stimuli_distractor_diamondtriangles.svg	24	yes	57	0	454
6.6.1	win	2022-12-14	13:46:53	13:55:30	516466	61fa92f15719bc09cb834b86	383650035	1	main_z	11	main_z	145	stimuli_distractor_trianglediamonds.svg	stimuli_distractor_trianglediamonds.svg	34	no	44	0	720
6.6.1	win	2022-12-14	13:46:53	13:55:30	516466	61fa92f15719bc09cb834b86	383650035	1	main_z	11	advance_on_keypress_ZEE	146	stimuli_distractor_trianglediamonds.svg	stimuli_distractor_trianglediamonds.svg	34	no	57	0	106
6.6.1	win	2022-12-14	13:46:53	13:55:31	517753	61fa92f15719bc09cb834b86	383650035	1	main_z	11	main_z	147	stimuli_target_circlediamonds.svg	stimuli_distractor_trianglediamonds.svg	2	yes	44	1	536
6.6.1	win	2022-12-14	13:46:53	13:55:31	517753	61fa92f15719bc09cb834b86	383650035	1	main_z	11	advance_on_keypress_ZEE	148	stimuli_target_circlediamonds.svg	stimuli_distractor_trianglediamonds.svg	2	yes	57	0	381
6.6.1	win	2022-12-14	13:46:53	13:55:34	520777	61fa92f15719bc09cb834b86	383650035	1	main_z	11	main_z	149	stimuli_distractor_diamondtriangles.svg	stimuli_distractor_trianglediamonds.svg	37	no	0	1	2000
6.6.1	win	2022-12-14	13:46:53	13:55:34	520777	61fa92f15719bc09cb834b86	383650035	1	main_z	11	advance_on_keypress_ZEE	150	stimuli_distractor_diamondtriangles.svg	stimuli_distractor_trianglediamonds.svg	37	no	57	0	142
6.6.1	win	2022-12-14	13:46:53	13:55:36	521910	61fa92f15719bc09cb834b86	383650035	1	main_z	11	main_z	151	stimuli_distractor_trianglediamonds.svg	stimuli_target_squaretriangles.svg	11	yes	44	1	344
6.6.1	win	2022-12-14	13:46:53	13:55:36	521910	61fa92f15719bc09cb834b86	383650035	1	main_z	11	advance_on_keypress_ZEE	152	stimuli_distractor_trianglediamonds.svg	stimuli_target_squaretriangles.svg	11	yes	57	0	225
6.6.1	win	2022-12-14	13:46:53	13:55:37	523114	61fa92f15719bc09cb834b86	383650035	1	main_z	11	main_z	153	stimuli_target_diamondcircles.svg	stimuli_distractor_trianglediamonds.svg	19	yes	44	1	347
6.6.1	win	2022-12-14	13:46:53	13:55:37	523114	61fa92f15719bc09cb834b86	383650035	1	main_z	11	advance_on_keypress_ZEE	154	stimuli_target_diamondcircles.svg	stimuli_distractor_trianglediamonds.svg	19	yes	57	0	258
6.6.1	win	2022-12-14	13:46:53	13:55:38	524684	61fa92f15719bc09cb834b86	383650035	1	main_z	11	main_z	155	stimuli_target_trianglesquares.svg	stimuli_distractor_diamondtriangles.svg	22	yes	44	1	662
6.6.1	win	2022-12-14	13:46:53	13:55:38	524684	61fa92f15719bc09cb834b86	383650035	1	main_z	11	advance_on_keypress_ZEE	156	stimuli_target_trianglesquares.svg	stimuli_distractor_diamondtriangles.svg	22	yes	57	0	1699
6.6.1	win	2022-12-14	13:46:53	13:55:42	528609	61fa92f15719bc09cb834b86	383650035	1	main_z	11	main_z	157	stimuli_target_squaretriangles.svg	stimuli_distractor_trianglediamonds.svg	3	yes	44	1	1586
6.6.1	win	2022-12-14	13:46:53	13:55:42	528609	61fa92f15719bc09cb834b86	383650035	1	main_z	11	advance_on_keypress_ZEE	158	stimuli_target_squaretriangles.svg	stimuli_distractor_trianglediamonds.svg	3	yes	57	0	316
6.6.1	win	2022-12-14	13:46:53	13:55:44	529916	61fa92f15719bc09cb834b86	383650035	1	main_z	11	main_z	159	stimuli_distractor_trianglediamonds.svg	stimuli_distractor_trianglediamonds.svg	33	no	44	0	345
6.6.1	win	2022-12-14	13:46:53	13:55:44	529916	61fa92f15719bc09cb834b86	383650035	1	main_z	11	advance_on_keypress_ZEE	160	stimuli_distractor_trianglediamonds.svg	stimuli_distractor_trianglediamonds.svg	33	no	57	0	1104