build	computer.platform	date	time	timestamp	time_elapsed_ms	subject	group	session	blockcode	blocknum	trialcode	trialnum	stimulus_left	stimulus_right	stim_index	target_present	response	correct	latency
6.6.1	win	2022-12-29	10:12:10	10:14:59	165770	615102c62504c240ac52cb00	381771587	1	practice_slash	5	practice_slash	1	stimuli_target_diamondsquares.svg	stimuli_distractor_diamondtriangles.svg	3	yes	0	0	2000
6.6.1	win	2022-12-29	10:12:10	10:14:59	165770	615102c62504c240ac52cb00	381771587	1	practice_slash	5	advance_on_keypress_SLASH	2	stimuli_target_diamondsquares.svg	stimuli_distractor_diamondtriangles.svg	3	yes	57	0	2888
6.6.1	win	2022-12-29	10:12:10	10:15:04	170744	615102c62504c240ac52cb00	381771587	1	practice_slash	5	practice_slash	3	stimuli_distractor_trianglediamonds.svg	stimuli_target_circlediamonds.svg	10	yes	53	1	421
6.6.1	win	2022-12-29	10:12:10	10:15:04	170744	615102c62504c240ac52cb00	381771587	1	practice_slash	5	advance_on_keypress_SLASH	4	stimuli_distractor_trianglediamonds.svg	stimuli_target_circlediamonds.svg	10	yes	57	0	1354
6.6.1	win	2022-12-29	10:12:10	10:15:07	174154	615102c62504c240ac52cb00	381771587	1	practice_slash	5	practice_slash	5	stimuli_distractor_diamondtriangles.svg	stimuli_target_diamondcircles.svg	8	yes	53	1	392
6.6.1	win	2022-12-29	10:12:10	10:15:07	174154	615102c62504c240ac52cb00	381771587	1	practice_slash	5	advance_on_keypress_SLASH	6	stimuli_distractor_diamondtriangles.svg	stimuli_target_diamondcircles.svg	8	yes	57	0	1305
6.6.1	win	2022-12-29	10:12:10	10:15:11	177454	615102c62504c240ac52cb00	381771587	1	practice_slash	5	practice_slash	7	stimuli_distractor_trianglediamonds.svg	stimuli_target_diamondcircles.svg	12	yes	53	1	331
6.6.1	win	2022-12-29	10:12:10	10:15:11	177454	615102c62504c240ac52cb00	381771587	1	practice_slash	5	advance_on_keypress_SLASH	8	stimuli_distractor_trianglediamonds.svg	stimuli_target_diamondcircles.svg	12	yes	57	0	665
6.6.1	win	2022-12-29	10:12:10	10:15:15	181783	615102c62504c240ac52cb00	381771587	1	practice_slash	5	practice_slash	9	stimuli_distractor_diamondtriangles.svg	stimuli_distractor_diamondtriangles.svg	13	no	0	1	2000
6.6.1	win	2022-12-29	10:12:10	10:15:15	181783	615102c62504c240ac52cb00	381771587	1	practice_slash	5	advance_on_keypress_SLASH	10	stimuli_distractor_diamondtriangles.svg	stimuli_distractor_diamondtriangles.svg	13	no	57	0	845
6.6.1	win	2022-12-29	10:12:10	10:15:18	184785	615102c62504c240ac52cb00	381771587	1	practice_slash	5	practice_slash	11	stimuli_target_diamondsquares.svg	stimuli_distractor_trianglediamonds.svg	6	yes	53	1	492
6.6.1	win	2022-12-29	10:12:10	10:15:18	184785	615102c62504c240ac52cb00	381771587	1	practice_slash	5	advance_on_keypress_SLASH	12	stimuli_target_diamondsquares.svg	stimuli_distractor_trianglediamonds.svg	6	yes	57	0	914
6.6.1	win	2022-12-29	10:12:10	10:15:21	187752	615102c62504c240ac52cb00	381771587	1	practice_slash	5	practice_slash	13	stimuli_target_squarediamonds.svg	stimuli_distractor_trianglediamonds.svg	5	yes	53	1	391
6.6.1	win	2022-12-29	10:12:10	10:15:21	187752	615102c62504c240ac52cb00	381771587	1	practice_slash	5	advance_on_keypress_SLASH	14	stimuli_target_squarediamonds.svg	stimuli_distractor_trianglediamonds.svg	5	yes	57	0	486
6.6.1	win	2022-12-29	10:12:10	10:15:23	190264	615102c62504c240ac52cb00	381771587	1	practice_slash	5	practice_slash	15	stimuli_distractor_diamondtriangles.svg	stimuli_target_circletriangles.svg	7	yes	53	1	361
6.6.1	win	2022-12-29	10:12:10	10:15:23	190264	615102c62504c240ac52cb00	381771587	1	practice_slash	5	advance_on_keypress_SLASH	16	stimuli_distractor_diamondtriangles.svg	stimuli_target_circletriangles.svg	7	yes	57	0	774
6.6.1	win	2022-12-29	10:12:10	10:15:26	193133	615102c62504c240ac52cb00	381771587	1	practice_slash	5	practice_slash	17	stimuli_target_circlediamonds.svg	stimuli_distractor_diamondtriangles.svg	1	yes	53	1	427
6.6.1	win	2022-12-29	10:12:10	10:15:26	193133	615102c62504c240ac52cb00	381771587	1	practice_slash	5	advance_on_keypress_SLASH	18	stimuli_target_circlediamonds.svg	stimuli_distractor_diamondtriangles.svg	1	yes	57	0	502
6.6.1	win	2022-12-29	10:12:10	10:15:30	197291	615102c62504c240ac52cb00	381771587	1	practice_slash	5	practice_slash	19	stimuli_distractor_diamondtriangles.svg	stimuli_distractor_trianglediamonds.svg	14	no	0	1	2000
6.6.1	win	2022-12-29	10:12:10	10:15:30	197291	615102c62504c240ac52cb00	381771587	1	practice_slash	5	advance_on_keypress_SLASH	20	stimuli_distractor_diamondtriangles.svg	stimuli_distractor_trianglediamonds.svg	14	no	57	0	706
6.6.1	win	2022-12-29	10:12:10	10:15:33	200103	615102c62504c240ac52cb00	381771587	1	practice_slash	5	practice_slash	21	stimuli_distractor_trianglediamonds.svg	stimuli_target_squarediamonds.svg	11	yes	53	1	442
6.6.1	win	2022-12-29	10:12:10	10:15:33	200103	615102c62504c240ac52cb00	381771587	1	practice_slash	5	advance_on_keypress_SLASH	22	stimuli_distractor_trianglediamonds.svg	stimuli_target_squarediamonds.svg	11	yes	57	0	725
6.6.1	win	2022-12-29	10:12:10	10:15:38	204492	615102c62504c240ac52cb00	381771587	1	practice_slash	5	practice_slash	23	stimuli_distractor_trianglediamonds.svg	stimuli_distractor_diamondtriangles.svg	16	no	0	1	2000
6.6.1	win	2022-12-29	10:12:10	10:15:38	204492	615102c62504c240ac52cb00	381771587	1	practice_slash	5	advance_on_keypress_SLASH	24	stimuli_distractor_trianglediamonds.svg	stimuli_distractor_diamondtriangles.svg	16	no	57	0	456
6.6.1	win	2022-12-29	10:12:10	10:15:42	208612	615102c62504c240ac52cb00	381771587	1	practice_slash	5	practice_slash	25	stimuli_distractor_trianglediamonds.svg	stimuli_distractor_trianglediamonds.svg	15	no	0	1	2000
6.6.1	win	2022-12-29	10:12:10	10:15:42	208612	615102c62504c240ac52cb00	381771587	1	practice_slash	5	advance_on_keypress_SLASH	26	stimuli_distractor_trianglediamonds.svg	stimuli_distractor_trianglediamonds.svg	15	no	57	0	467
6.6.1	win	2022-12-29	10:12:10	10:15:44	211234	615102c62504c240ac52cb00	381771587	1	practice_slash	5	practice_slash	27	stimuli_target_squarediamonds.svg	stimuli_distractor_diamondtriangles.svg	2	yes	53	1	490
6.6.1	win	2022-12-29	10:12:10	10:15:44	211234	615102c62504c240ac52cb00	381771587	1	practice_slash	5	advance_on_keypress_SLASH	28	stimuli_target_squarediamonds.svg	stimuli_distractor_diamondtriangles.svg	2	yes	57	0	1654
6.6.1	win	2022-12-29	10:12:10	10:15:48	215042	615102c62504c240ac52cb00	381771587	1	practice_slash	5	practice_slash	29	stimuli_target_circlediamonds.svg	stimuli_distractor_trianglediamonds.svg	4	yes	53	1	491
6.6.1	win	2022-12-29	10:12:10	10:15:48	215042	615102c62504c240ac52cb00	381771587	1	practice_slash	5	advance_on_keypress_SLASH	30	stimuli_target_circlediamonds.svg	stimuli_distractor_trianglediamonds.svg	4	yes	57	0	655
6.6.1	win	2022-12-29	10:12:10	10:15:51	217763	615102c62504c240ac52cb00	381771587	1	practice_slash	5	practice_slash	31	stimuli_distractor_diamondtriangles.svg	stimuli_target_trianglecircles.svg	9	yes	53	1	402
6.6.1	win	2022-12-29	10:12:10	10:15:51	217763	615102c62504c240ac52cb00	381771587	1	practice_slash	5	advance_on_keypress_SLASH	32	stimuli_distractor_diamondtriangles.svg	stimuli_target_trianglecircles.svg	9	yes	57	0	535
6.6.1	win	2022-12-29	10:12:10	10:16:00	226497	615102c62504c240ac52cb00	381771587	1	main_slash	7	main_slash	1	stimuli_distractor_diamondtriangles.svg	stimuli_distractor_diamondtriangles.svg	39	no	0	1	2000
6.6.1	win	2022-12-29	10:12:10	10:16:00	226497	615102c62504c240ac52cb00	381771587	1	main_slash	7	advance_on_keypress_SLASH	2	stimuli_distractor_diamondtriangles.svg	stimuli_distractor_diamondtriangles.svg	39	no	57	0	1374
6.6.1	win	2022-12-29	10:12:10	10:16:02	228880	615102c62504c240ac52cb00	381771587	1	main_slash	7	main_slash	3	stimuli_distractor_trianglediamonds.svg	stimuli_target_squarediamonds.svg	12	yes	53	1	362
6.6.1	win	2022-12-29	10:12:10	10:16:02	228880	615102c62504c240ac52cb00	381771587	1	main_slash	7	advance_on_keypress_SLASH	4	stimuli_distractor_trianglediamonds.svg	stimuli_target_squarediamonds.svg	12	yes	57	0	2187
6.6.1	win	2022-12-29	10:12:10	10:16:05	232149	615102c62504c240ac52cb00	381771587	1	main_slash	7	main_slash	5	stimuli_target_squarediamonds.svg	stimuli_distractor_diamondtriangles.svg	8	yes	53	1	421
6.6.1	win	2022-12-29	10:12:10	10:16:05	232149	615102c62504c240ac52cb00	381771587	1	main_slash	7	advance_on_keypress_SLASH	6	stimuli_target_squarediamonds.svg	stimuli_distractor_diamondtriangles.svg	8	yes	57	0	893
6.6.1	win	2022-12-29	10:12:10	10:16:09	235698	615102c62504c240ac52cb00	381771587	1	main_slash	7	main_slash	7	stimuli_distractor_trianglediamonds.svg	stimuli_target_trianglecircles.svg	25	yes	0	0	2000
6.6.1	win	2022-12-29	10:12:10	10:16:09	235698	615102c62504c240ac52cb00	381771587	1	main_slash	7	advance_on_keypress_SLASH	8	stimuli_distractor_trianglediamonds.svg	stimuli_target_trianglecircles.svg	25	yes	57	0	1036
6.6.1	win	2022-12-29	10:12:10	10:16:11	237779	615102c62504c240ac52cb00	381771587	1	main_slash	7	main_slash	9	stimuli_distractor_diamondtriangles.svg	stimuli_target_diamondsquares.svg	32	yes	53	1	392
6.6.1	win	2022-12-29	10:12:10	10:16:11	237779	615102c62504c240ac52cb00	381771587	1	main_slash	7	advance_on_keypress_SLASH	10	stimuli_distractor_diamondtriangles.svg	stimuli_target_diamondsquares.svg	32	yes	57	0	1056
6.6.1	win	2022-12-29	10:12:10	10:16:15	241488	615102c62504c240ac52cb00	381771587	1	main_slash	7	main_slash	11	stimuli_distractor_trianglediamonds.svg	stimuli_target_trianglesquares.svg	26	yes	0	0	2000
6.6.1	win	2022-12-29	10:12:10	10:16:15	241488	615102c62504c240ac52cb00	381771587	1	main_slash	7	advance_on_keypress_SLASH	12	stimuli_distractor_trianglediamonds.svg	stimuli_target_trianglesquares.svg	26	yes	57	0	1040
6.6.1	win	2022-12-29	10:12:10	10:16:18	245188	615102c62504c240ac52cb00	381771587	1	main_slash	7	main_slash	13	stimuli_distractor_trianglediamonds.svg	stimuli_distractor_diamondtriangles.svg	36	no	0	1	2000
6.6.1	win	2022-12-29	10:12:10	10:16:18	245188	615102c62504c240ac52cb00	381771587	1	main_slash	7	advance_on_keypress_SLASH	14	stimuli_distractor_trianglediamonds.svg	stimuli_distractor_diamondtriangles.svg	36	no	57	0	865
6.6.1	win	2022-12-29	10:12:10	10:16:20	247159	615102c62504c240ac52cb00	381771587	1	main_slash	7	main_slash	15	stimuli_target_trianglecircles.svg	stimuli_distractor_diamondtriangles.svg	21	yes	53	1	451
6.6.1	win	2022-12-29	10:12:10	10:16:20	247159	615102c62504c240ac52cb00	381771587	1	main_slash	7	advance_on_keypress_SLASH	16	stimuli_target_trianglecircles.svg	stimuli_distractor_diamondtriangles.svg	21	yes	57	0	839
6.6.1	win	2022-12-29	10:12:10	10:16:22	249139	615102c62504c240ac52cb00	381771587	1	main_slash	7	main_slash	17	stimuli_target_diamondcircles.svg	stimuli_distractor_trianglediamonds.svg	19	yes	53	1	481
6.6.1	win	2022-12-29	10:12:10	10:16:22	249139	615102c62504c240ac52cb00	381771587	1	main_slash	7	advance_on_keypress_SLASH	18	stimuli_target_diamondcircles.svg	stimuli_distractor_trianglediamonds.svg	19	yes	57	0	842
6.6.1	win	2022-12-29	10:12:10	10:16:24	251019	615102c62504c240ac52cb00	381771587	1	main_slash	7	main_slash	19	stimuli_distractor_diamondtriangles.svg	stimuli_target_diamondcircles.svg	31	yes	53	1	391
6.6.1	win	2022-12-29	10:12:10	10:16:24	251019	615102c62504c240ac52cb00	381771587	1	main_slash	7	advance_on_keypress_SLASH	20	stimuli_distractor_diamondtriangles.svg	stimuli_target_diamondcircles.svg	31	yes	57	0	776
6.6.1	win	2022-12-29	10:12:10	10:16:26	252939	615102c62504c240ac52cb00	381771587	1	main_slash	7	main_slash	21	stimuli_target_diamondsquares.svg	stimuli_distractor_diamondtriangles.svg	24	yes	53	1	492
6.6.1	win	2022-12-29	10:12:10	10:16:26	252939	615102c62504c240ac52cb00	381771587	1	main_slash	7	advance_on_keypress_SLASH	22	stimuli_target_diamondsquares.svg	stimuli_distractor_diamondtriangles.svg	24	yes	57	0	726
6.6.1	win	2022-12-29	10:12:10	10:16:28	254749	615102c62504c240ac52cb00	381771587	1	main_slash	7	main_slash	23	stimuli_distractor_diamondtriangles.svg	stimuli_target_trianglecircles.svg	29	yes	53	1	431
6.6.1	win	2022-12-29	10:12:10	10:16:28	254749	615102c62504c240ac52cb00	381771587	1	main_slash	7	advance_on_keypress_SLASH	24	stimuli_distractor_diamondtriangles.svg	stimuli_target_trianglecircles.svg	29	yes	57	0	813
6.6.1	win	2022-12-29	10:12:10	10:16:30	256594	615102c62504c240ac52cb00	381771587	1	main_slash	7	main_slash	25	stimuli_distractor_trianglediamonds.svg	stimuli_target_circlediamonds.svg	10	yes	53	1	382
6.6.1	win	2022-12-29	10:12:10	10:16:30	256594	615102c62504c240ac52cb00	381771587	1	main_slash	7	advance_on_keypress_SLASH	26	stimuli_distractor_trianglediamonds.svg	stimuli_target_circlediamonds.svg	10	yes	57	0	686
6.6.1	win	2022-12-29	10:12:10	10:16:31	258349	615102c62504c240ac52cb00	381771587	1	main_slash	7	main_slash	27	stimuli_target_squaretriangles.svg	stimuli_distractor_trianglediamonds.svg	3	yes	53	1	411
6.6.1	win	2022-12-29	10:12:10	10:16:31	258349	615102c62504c240ac52cb00	381771587	1	main_slash	7	advance_on_keypress_SLASH	28	stimuli_target_squaretriangles.svg	stimuli_distractor_trianglediamonds.svg	3	yes	57	0	597
6.6.1	win	2022-12-29	10:12:10	10:16:33	260060	615102c62504c240ac52cb00	381771587	1	main_slash	7	main_slash	29	stimuli_distractor_diamondtriangles.svg	stimuli_target_trianglesquares.svg	30	yes	53	1	462
6.6.1	win	2022-12-29	10:12:10	10:16:33	260060	615102c62504c240ac52cb00	381771587	1	main_slash	7	advance_on_keypress_SLASH	30	stimuli_distractor_diamondtriangles.svg	stimuli_target_trianglesquares.svg	30	yes	57	0	700
6.6.1	win	2022-12-29	10:12:10	10:16:35	261849	615102c62504c240ac52cb00	381771587	1	main_slash	7	main_slash	31	stimuli_distractor_trianglediamonds.svg	stimuli_target_diamondcircles.svg	27	yes	53	1	441
6.6.1	win	2022-12-29	10:12:10	10:16:35	261849	615102c62504c240ac52cb00	381771587	1	main_slash	7	advance_on_keypress_SLASH	32	stimuli_distractor_trianglediamonds.svg	stimuli_target_diamondcircles.svg	27	yes	57	0	765
6.6.1	win	2022-12-29	10:12:10	10:16:37	264080	615102c62504c240ac52cb00	381771587	1	main_slash	7	main_slash	33	stimuli_target_circletriangles.svg	stimuli_distractor_trianglediamonds.svg	1	yes	53	1	811
6.6.1	win	2022-12-29	10:12:10	10:16:37	264080	615102c62504c240ac52cb00	381771587	1	main_slash	7	advance_on_keypress_SLASH	34	stimuli_target_circletriangles.svg	stimuli_distractor_trianglediamonds.svg	1	yes	57	0	1439
6.6.1	win	2022-12-29	10:12:10	10:16:40	266960	615102c62504c240ac52cb00	381771587	1	main_slash	7	main_slash	35	stimuli_target_diamondsquares.svg	stimuli_distractor_trianglediamonds.svg	20	yes	53	1	782
6.6.1	win	2022-12-29	10:12:10	10:16:40	266960	615102c62504c240ac52cb00	381771587	1	main_slash	7	advance_on_keypress_SLASH	36	stimuli_target_diamondsquares.svg	stimuli_distractor_trianglediamonds.svg	20	yes	57	0	787
6.6.1	win	2022-12-29	10:12:10	10:16:42	268869	615102c62504c240ac52cb00	381771587	1	main_slash	7	main_slash	37	stimuli_target_circlediamonds.svg	stimuli_distractor_trianglediamonds.svg	2	yes	53	1	461
6.6.1	win	2022-12-29	10:12:10	10:16:42	268869	615102c62504c240ac52cb00	381771587	1	main_slash	7	advance_on_keypress_SLASH	38	stimuli_target_circlediamonds.svg	stimuli_distractor_trianglediamonds.svg	2	yes	57	0	1569
6.6.1	win	2022-12-29	10:12:10	10:16:45	271469	615102c62504c240ac52cb00	381771587	1	main_slash	7	main_slash	39	stimuli_target_circlediamonds.svg	stimuli_distractor_diamondtriangles.svg	6	yes	53	1	371
6.6.1	win	2022-12-29	10:12:10	10:16:45	271469	615102c62504c240ac52cb00	381771587	1	main_slash	7	advance_on_keypress_SLASH	40	stimuli_target_circlediamonds.svg	stimuli_distractor_diamondtriangles.svg	6	yes	57	0	673
6.6.1	win	2022-12-29	10:12:10	10:16:48	274787	615102c62504c240ac52cb00	381771587	1	main_slash	7	main_slash	41	stimuli_distractor_trianglediamonds.svg	stimuli_distractor_trianglediamonds.svg	34	no	0	1	2000
6.6.1	win	2022-12-29	10:12:10	10:16:48	274787	615102c62504c240ac52cb00	381771587	1	main_slash	7	advance_on_keypress_SLASH	42	stimuli_distractor_trianglediamonds.svg	stimuli_distractor_trianglediamonds.svg	34	no	57	0	707
6.6.1	win	2022-12-29	10:12:10	10:16:50	276578	615102c62504c240ac52cb00	381771587	1	main_slash	7	main_slash	43	stimuli_target_squarediamonds.svg	stimuli_distractor_trianglediamonds.svg	4	yes	53	1	431
6.6.1	win	2022-12-29	10:12:10	10:16:50	276578	615102c62504c240ac52cb00	381771587	1	main_slash	7	advance_on_keypress_SLASH	44	stimuli_target_squarediamonds.svg	stimuli_distractor_trianglediamonds.svg	4	yes	57	0	673
6.6.1	win	2022-12-29	10:12:10	10:16:52	278528	615102c62504c240ac52cb00	381771587	1	main_slash	7	main_slash	45	stimuli_distractor_diamondtriangles.svg	stimuli_distractor_trianglediamonds.svg	37	no	53	0	631
6.6.1	win	2022-12-29	10:12:10	10:16:52	278528	615102c62504c240ac52cb00	381771587	1	main_slash	7	advance_on_keypress_SLASH	46	stimuli_distractor_diamondtriangles.svg	stimuli_distractor_trianglediamonds.svg	37	no	57	0	762
6.6.1	win	2022-12-29	10:12:10	10:16:53	280319	615102c62504c240ac52cb00	381771587	1	main_slash	7	main_slash	47	stimuli_target_circletriangles.svg	stimuli_distractor_diamondtriangles.svg	5	yes	53	1	372
6.6.1	win	2022-12-29	10:12:10	10:16:53	280319	615102c62504c240ac52cb00	381771587	1	main_slash	7	advance_on_keypress_SLASH	48	stimuli_target_circletriangles.svg	stimuli_distractor_diamondtriangles.svg	5	yes	57	0	573
6.6.1	win	2022-12-29	10:12:10	10:16:55	281938	615102c62504c240ac52cb00	381771587	1	main_slash	7	main_slash	49	stimuli_distractor_diamondtriangles.svg	stimuli_distractor_trianglediamonds.svg	38	no	53	0	401
6.6.1	win	2022-12-29	10:12:10	10:16:55	281938	615102c62504c240ac52cb00	381771587	1	main_slash	7	advance_on_keypress_SLASH	50	stimuli_distractor_diamondtriangles.svg	stimuli_distractor_trianglediamonds.svg	38	no	57	0	560
6.6.1	win	2022-12-29	10:12:10	10:16:57	283649	615102c62504c240ac52cb00	381771587	1	main_slash	7	main_slash	51	stimuli_distractor_trianglediamonds.svg	stimuli_target_circletriangles.svg	9	yes	53	1	491
6.6.1	win	2022-12-29	10:12:10	10:16:57	283649	615102c62504c240ac52cb00	381771587	1	main_slash	7	advance_on_keypress_SLASH	52	stimuli_distractor_trianglediamonds.svg	stimuli_target_circletriangles.svg	9	yes	57	0	546
6.6.1	win	2022-12-29	10:12:10	10:16:58	285099	615102c62504c240ac52cb00	381771587	1	main_slash	7	main_slash	53	stimuli_distractor_diamondtriangles.svg	stimuli_distractor_diamondtriangles.svg	40	no	53	0	252
6.6.1	win	2022-12-29	10:12:10	10:16:58	285099	615102c62504c240ac52cb00	381771587	1	main_slash	7	advance_on_keypress_SLASH	54	stimuli_distractor_diamondtriangles.svg	stimuli_distractor_diamondtriangles.svg	40	no	57	0	570
6.6.1	win	2022-12-29	10:12:10	10:17:00	286748	615102c62504c240ac52cb00	381771587	1	main_slash	7	main_slash	55	stimuli_target_trianglesquares.svg	stimuli_distractor_diamondtriangles.svg	22	yes	53	1	422
6.6.1	win	2022-12-29	10:12:10	10:17:00	286748	615102c62504c240ac52cb00	381771587	1	main_slash	7	advance_on_keypress_SLASH	56	stimuli_target_trianglesquares.svg	stimuli_distractor_diamondtriangles.svg	22	yes	57	0	594
6.6.1	win	2022-12-29	10:12:10	10:17:01	288279	615102c62504c240ac52cb00	381771587	1	main_slash	7	main_slash	57	stimuli_distractor_diamondtriangles.svg	stimuli_target_squarediamonds.svg	16	yes	53	1	282
6.6.1	win	2022-12-29	10:12:10	10:17:01	288279	615102c62504c240ac52cb00	381771587	1	main_slash	7	advance_on_keypress_SLASH	58	stimuli_distractor_diamondtriangles.svg	stimuli_target_squarediamonds.svg	16	yes	57	0	537
6.6.1	win	2022-12-29	10:12:10	10:17:03	289839	615102c62504c240ac52cb00	381771587	1	main_slash	7	main_slash	59	stimuli_distractor_trianglediamonds.svg	stimuli_distractor_trianglediamonds.svg	33	no	53	0	362
6.6.1	win	2022-12-29	10:12:10	10:17:03	289839	615102c62504c240ac52cb00	381771587	1	main_slash	7	advance_on_keypress_SLASH	60	stimuli_distractor_trianglediamonds.svg	stimuli_distractor_trianglediamonds.svg	33	no	57	0	518
6.6.1	win	2022-12-29	10:12:10	10:17:04	291349	615102c62504c240ac52cb00	381771587	1	main_slash	7	main_slash	61	stimuli_distractor_diamondtriangles.svg	stimuli_target_circlediamonds.svg	14	yes	53	1	331
6.6.1	win	2022-12-29	10:12:10	10:17:04	291349	615102c62504c240ac52cb00	381771587	1	main_slash	7	advance_on_keypress_SLASH	62	stimuli_distractor_diamondtriangles.svg	stimuli_target_circlediamonds.svg	14	yes	57	0	479
6.6.1	win	2022-12-29	10:12:10	10:17:08	294487	615102c62504c240ac52cb00	381771587	1	main_slash	7	main_slash	63	stimuli_distractor_trianglediamonds.svg	stimuli_distractor_diamondtriangles.svg	35	no	0	1	2000
6.6.1	win	2022-12-29	10:12:10	10:17:08	294487	615102c62504c240ac52cb00	381771587	1	main_slash	7	advance_on_keypress_SLASH	64	stimuli_distractor_trianglediamonds.svg	stimuli_distractor_diamondtriangles.svg	35	no	57	0	572
6.6.1	win	2022-12-29	10:12:10	10:17:09	296129	615102c62504c240ac52cb00	381771587	1	main_slash	7	main_slash	65	stimuli_target_diamondcircles.svg	stimuli_distractor_diamondtriangles.svg	23	yes	53	1	422
6.6.1	win	2022-12-29	10:12:10	10:17:09	296129	615102c62504c240ac52cb00	381771587	1	main_slash	7	advance_on_keypress_SLASH	66	stimuli_target_diamondcircles.svg	stimuli_distractor_diamondtriangles.svg	23	yes	57	0	683
6.6.1	win	2022-12-29	10:12:10	10:17:11	297888	615102c62504c240ac52cb00	381771587	1	main_slash	7	main_slash	67	stimuli_distractor_trianglediamonds.svg	stimuli_target_squaretriangles.svg	11	yes	53	1	421
6.6.1	win	2022-12-29	10:12:10	10:17:11	297888	615102c62504c240ac52cb00	381771587	1	main_slash	7	advance_on_keypress_SLASH	68	stimuli_distractor_trianglediamonds.svg	stimuli_target_squaretriangles.svg	11	yes	57	0	543
6.6.1	win	2022-12-29	10:12:10	10:17:13	299489	615102c62504c240ac52cb00	381771587	1	main_slash	7	main_slash	69	stimuli_distractor_trianglediamonds.svg	stimuli_target_diamondsquares.svg	28	yes	53	1	402
6.6.1	win	2022-12-29	10:12:10	10:17:13	299489	615102c62504c240ac52cb00	381771587	1	main_slash	7	advance_on_keypress_SLASH	70	stimuli_distractor_trianglediamonds.svg	stimuli_target_diamondsquares.svg	28	yes	57	0	690
6.6.1	win	2022-12-29	10:12:10	10:17:14	301179	615102c62504c240ac52cb00	381771587	1	main_slash	7	main_slash	71	stimuli_distractor_diamondtriangles.svg	stimuli_target_circletriangles.svg	13	yes	53	1	342
6.6.1	win	2022-12-29	10:12:10	10:17:14	301179	615102c62504c240ac52cb00	381771587	1	main_slash	7	advance_on_keypress_SLASH	72	stimuli_distractor_diamondtriangles.svg	stimuli_target_circletriangles.svg	13	yes	57	0	448
6.6.1	win	2022-12-29	10:12:10	10:17:16	302649	615102c62504c240ac52cb00	381771587	1	main_slash	7	main_slash	73	stimuli_target_squaretriangles.svg	stimuli_distractor_diamondtriangles.svg	7	yes	53	1	362
6.6.1	win	2022-12-29	10:12:10	10:17:16	302649	615102c62504c240ac52cb00	381771587	1	main_slash	7	advance_on_keypress_SLASH	74	stimuli_target_squaretriangles.svg	stimuli_distractor_diamondtriangles.svg	7	yes	57	0	538
6.6.1	win	2022-12-29	10:12:10	10:17:17	304199	615102c62504c240ac52cb00	381771587	1	main_slash	7	main_slash	75	stimuli_target_trianglesquares.svg	stimuli_distractor_trianglediamonds.svg	18	yes	53	1	351
6.6.1	win	2022-12-29	10:12:10	10:17:17	304199	615102c62504c240ac52cb00	381771587	1	main_slash	7	advance_on_keypress_SLASH	76	stimuli_target_trianglesquares.svg	stimuli_distractor_trianglediamonds.svg	18	yes	57	0	528
6.6.1	win	2022-12-29	10:12:10	10:17:19	305769	615102c62504c240ac52cb00	381771587	1	main_slash	7	main_slash	77	stimuli_distractor_diamondtriangles.svg	stimuli_target_squaretriangles.svg	15	yes	53	1	381
6.6.1	win	2022-12-29	10:12:10	10:17:19	305769	615102c62504c240ac52cb00	381771587	1	main_slash	7	advance_on_keypress_SLASH	78	stimuli_distractor_diamondtriangles.svg	stimuli_target_squaretriangles.svg	15	yes	57	0	486
6.6.1	win	2022-12-29	10:12:10	10:17:20	307298	615102c62504c240ac52cb00	381771587	1	main_slash	7	main_slash	79	stimuli_target_trianglecircles.svg	stimuli_distractor_trianglediamonds.svg	17	yes	53	1	372
6.6.1	win	2022-12-29	10:12:10	10:17:20	307298	615102c62504c240ac52cb00	381771587	1	main_slash	7	advance_on_keypress_SLASH	80	stimuli_target_trianglecircles.svg	stimuli_distractor_trianglediamonds.svg	17	yes	57	0	583
6.6.1	win	2022-12-29	10:12:10	10:17:22	308889	615102c62504c240ac52cb00	381771587	1	main_slash	7	main_slash	81	stimuli_distractor_trianglediamonds.svg	stimuli_target_trianglecircles.svg	25	yes	53	1	361
6.6.1	win	2022-12-29	10:12:10	10:17:22	308889	615102c62504c240ac52cb00	381771587	1	main_slash	7	advance_on_keypress_SLASH	82	stimuli_distractor_trianglediamonds.svg	stimuli_target_trianglecircles.svg	25	yes	57	0	519
6.6.1	win	2022-12-29	10:12:10	10:17:24	310459	615102c62504c240ac52cb00	381771587	1	main_slash	7	main_slash	83	stimuli_distractor_trianglediamonds.svg	stimuli_target_squaretriangles.svg	11	yes	53	1	392
6.6.1	win	2022-12-29	10:12:10	10:17:24	310459	615102c62504c240ac52cb00	381771587	1	main_slash	7	advance_on_keypress_SLASH	84	stimuli_distractor_trianglediamonds.svg	stimuli_target_squaretriangles.svg	11	yes	57	0	647
6.6.1	win	2022-12-29	10:12:10	10:17:25	312142	615102c62504c240ac52cb00	381771587	1	main_slash	7	main_slash	85	stimuli_distractor_diamondtriangles.svg	stimuli_target_diamondcircles.svg	31	yes	53	1	376
6.6.1	win	2022-12-29	10:12:10	10:17:25	312142	615102c62504c240ac52cb00	381771587	1	main_slash	7	advance_on_keypress_SLASH	86	stimuli_distractor_diamondtriangles.svg	stimuli_target_diamondcircles.svg	31	yes	57	0	490
6.6.1	win	2022-12-29	10:12:10	10:17:27	313638	615102c62504c240ac52cb00	381771587	1	main_slash	7	main_slash	87	stimuli_target_squaretriangles.svg	stimuli_distractor_diamondtriangles.svg	7	yes	53	1	361
6.6.1	win	2022-12-29	10:12:10	10:17:27	313638	615102c62504c240ac52cb00	381771587	1	main_slash	7	advance_on_keypress_SLASH	88	stimuli_target_squaretriangles.svg	stimuli_distractor_diamondtriangles.svg	7	yes	57	0	1098
6.6.1	win	2022-12-29	10:12:10	10:17:29	315759	615102c62504c240ac52cb00	381771587	1	main_slash	7	main_slash	89	stimuli_target_squarediamonds.svg	stimuli_distractor_diamondtriangles.svg	8	yes	53	1	362
6.6.1	win	2022-12-29	10:12:10	10:17:29	315759	615102c62504c240ac52cb00	381771587	1	main_slash	7	advance_on_keypress_SLASH	90	stimuli_target_squarediamonds.svg	stimuli_distractor_diamondtriangles.svg	8	yes	57	0	498
6.6.1	win	2022-12-29	10:12:10	10:17:32	318917	615102c62504c240ac52cb00	381771587	1	main_slash	7	main_slash	91	stimuli_distractor_trianglediamonds.svg	stimuli_distractor_diamondtriangles.svg	35	no	0	1	2000
6.6.1	win	2022-12-29	10:12:10	10:17:32	318917	615102c62504c240ac52cb00	381771587	1	main_slash	7	advance_on_keypress_SLASH	92	stimuli_distractor_trianglediamonds.svg	stimuli_distractor_diamondtriangles.svg	35	no	57	0	540
6.6.1	win	2022-12-29	10:12:10	10:17:34	320509	615102c62504c240ac52cb00	381771587	1	main_slash	7	main_slash	93	stimuli_distractor_diamondtriangles.svg	stimuli_target_diamondsquares.svg	32	yes	53	1	402
6.6.1	win	2022-12-29	10:12:10	10:17:34	320509	615102c62504c240ac52cb00	381771587	1	main_slash	7	advance_on_keypress_SLASH	94	stimuli_distractor_diamondtriangles.svg	stimuli_target_diamondsquares.svg	32	yes	57	0	510
6.6.1	win	2022-12-29	10:12:10	10:17:35	322119	615102c62504c240ac52cb00	381771587	1	main_slash	7	main_slash	95	stimuli_target_diamondcircles.svg	stimuli_distractor_trianglediamonds.svg	19	yes	53	1	439
6.6.1	win	2022-12-29	10:12:10	10:17:35	322119	615102c62504c240ac52cb00	381771587	1	main_slash	7	advance_on_keypress_SLASH	96	stimuli_target_diamondcircles.svg	stimuli_distractor_trianglediamonds.svg	19	yes	57	0	466
6.6.1	win	2022-12-29	10:12:10	10:17:37	323919	615102c62504c240ac52cb00	381771587	1	main_slash	7	main_slash	97	stimuli_distractor_trianglediamonds.svg	stimuli_distractor_trianglediamonds.svg	33	no	53	0	682
6.6.1	win	2022-12-29	10:12:10	10:17:37	323919	615102c62504c240ac52cb00	381771587	1	main_slash	7	advance_on_keypress_SLASH	98	stimuli_distractor_trianglediamonds.svg	stimuli_distractor_trianglediamonds.svg	33	no	57	0	598
6.6.1	win	2022-12-29	10:12:10	10:17:40	327177	615102c62504c240ac52cb00	381771587	1	main_slash	7	main_slash	99	stimuli_target_trianglesquares.svg	stimuli_distractor_diamondtriangles.svg	22	yes	0	0	2000
6.6.1	win	2022-12-29	10:12:10	10:17:40	327177	615102c62504c240ac52cb00	381771587	1	main_slash	7	advance_on_keypress_SLASH	100	stimuli_target_trianglesquares.svg	stimuli_distractor_diamondtriangles.svg	22	yes	57	0	633
6.6.1	win	2022-12-29	10:12:10	10:17:42	328839	615102c62504c240ac52cb00	381771587	1	main_slash	7	main_slash	101	stimuli_target_circlediamonds.svg	stimuli_distractor_diamondtriangles.svg	6	yes	53	1	372
6.6.1	win	2022-12-29	10:12:10	10:17:42	328839	615102c62504c240ac52cb00	381771587	1	main_slash	7	advance_on_keypress_SLASH	102	stimuli_target_circlediamonds.svg	stimuli_distractor_diamondtriangles.svg	6	yes	57	0	493
6.6.1	win	2022-12-29	10:12:10	10:17:44	330608	615102c62504c240ac52cb00	381771587	1	main_slash	7	main_slash	103	stimuli_target_diamondsquares.svg	stimuli_distractor_diamondtriangles.svg	24	yes	53	1	631
6.6.1	win	2022-12-29	10:12:10	10:17:44	330608	615102c62504c240ac52cb00	381771587	1	main_slash	7	advance_on_keypress_SLASH	104	stimuli_target_diamondsquares.svg	stimuli_distractor_diamondtriangles.svg	24	yes	57	0	743
6.6.1	win	2022-12-29	10:12:10	10:17:46	332428	615102c62504c240ac52cb00	381771587	1	main_slash	7	main_slash	105	stimuli_distractor_trianglediamonds.svg	stimuli_target_circletriangles.svg	9	yes	53	1	432
6.6.1	win	2022-12-29	10:12:10	10:17:46	332428	615102c62504c240ac52cb00	381771587	1	main_slash	7	advance_on_keypress_SLASH	106	stimuli_distractor_trianglediamonds.svg	stimuli_target_circletriangles.svg	9	yes	57	0	503
6.6.1	win	2022-12-29	10:12:10	10:17:47	334369	615102c62504c240ac52cb00	381771587	1	main_slash	7	main_slash	107	stimuli_distractor_diamondtriangles.svg	stimuli_distractor_trianglediamonds.svg	37	no	53	0	792
6.6.1	win	2022-12-29	10:12:10	10:17:47	334369	615102c62504c240ac52cb00	381771587	1	main_slash	7	advance_on_keypress_SLASH	108	stimuli_distractor_diamondtriangles.svg	stimuli_distractor_trianglediamonds.svg	37	no	57	0	518
6.6.1	win	2022-12-29	10:12:10	10:17:49	335979	615102c62504c240ac52cb00	381771587	1	main_slash	7	main_slash	109	stimuli_distractor_trianglediamonds.svg	stimuli_target_trianglesquares.svg	26	yes	53	1	432
6.6.1	win	2022-12-29	10:12:10	10:17:49	335979	615102c62504c240ac52cb00	381771587	1	main_slash	7	advance_on_keypress_SLASH	110	stimuli_distractor_trianglediamonds.svg	stimuli_target_trianglesquares.svg	26	yes	57	0	483
6.6.1	win	2022-12-29	10:12:10	10:17:51	337622	615102c62504c240ac52cb00	381771587	1	main_slash	7	main_slash	111	stimuli_distractor_diamondtriangles.svg	stimuli_target_squaretriangles.svg	15	yes	53	1	505
6.6.1	win	2022-12-29	10:12:10	10:17:51	337622	615102c62504c240ac52cb00	381771587	1	main_slash	7	advance_on_keypress_SLASH	112	stimuli_distractor_diamondtriangles.svg	stimuli_target_squaretriangles.svg	15	yes	57	0	608
6.6.1	win	2022-12-29	10:12:10	10:17:53	339468	615102c62504c240ac52cb00	381771587	1	main_slash	7	main_slash	113	stimuli_target_circlediamonds.svg	stimuli_distractor_trianglediamonds.svg	2	yes	53	1	592
6.6.1	win	2022-12-29	10:12:10	10:17:53	339468	615102c62504c240ac52cb00	381771587	1	main_slash	7	advance_on_keypress_SLASH	114	stimuli_target_circlediamonds.svg	stimuli_distractor_trianglediamonds.svg	2	yes	57	0	547
6.6.1	win	2022-12-29	10:12:10	10:17:54	341279	615102c62504c240ac52cb00	381771587	1	main_slash	7	main_slash	115	stimuli_distractor_diamondtriangles.svg	stimuli_distractor_diamondtriangles.svg	39	no	53	0	612
6.6.1	win	2022-12-29	10:12:10	10:17:54	341279	615102c62504c240ac52cb00	381771587	1	main_slash	7	advance_on_keypress_SLASH	116	stimuli_distractor_diamondtriangles.svg	stimuli_distractor_diamondtriangles.svg	39	no	57	0	500
6.6.1	win	2022-12-29	10:12:10	10:17:56	342948	615102c62504c240ac52cb00	381771587	1	main_slash	7	main_slash	117	stimuli_target_squarediamonds.svg	stimuli_distractor_trianglediamonds.svg	4	yes	53	1	520
6.6.1	win	2022-12-29	10:12:10	10:17:56	342948	615102c62504c240ac52cb00	381771587	1	main_slash	7	advance_on_keypress_SLASH	118	stimuli_target_squarediamonds.svg	stimuli_distractor_trianglediamonds.svg	4	yes	57	0	452
6.6.1	win	2022-12-29	10:12:10	10:17:58	344659	615102c62504c240ac52cb00	381771587	1	main_slash	7	main_slash	119	stimuli_target_circletriangles.svg	stimuli_distractor_trianglediamonds.svg	1	yes	53	1	602
6.6.1	win	2022-12-29	10:12:10	10:17:58	344659	615102c62504c240ac52cb00	381771587	1	main_slash	7	advance_on_keypress_SLASH	120	stimuli_target_circletriangles.svg	stimuli_distractor_trianglediamonds.svg	1	yes	57	0	462
6.6.1	win	2022-12-29	10:12:10	10:17:59	346349	615102c62504c240ac52cb00	381771587	1	main_slash	7	main_slash	121	stimuli_target_trianglesquares.svg	stimuli_distractor_trianglediamonds.svg	18	yes	53	1	569
6.6.1	win	2022-12-29	10:12:10	10:17:59	346349	615102c62504c240ac52cb00	381771587	1	main_slash	7	advance_on_keypress_SLASH	122	stimuli_target_trianglesquares.svg	stimuli_distractor_trianglediamonds.svg	18	yes	57	0	741
6.6.1	win	2022-12-29	10:12:10	10:18:01	348289	615102c62504c240ac52cb00	381771587	1	main_slash	7	main_slash	123	stimuli_distractor_diamondtriangles.svg	stimuli_target_trianglecircles.svg	29	yes	53	1	555
6.6.1	win	2022-12-29	10:12:10	10:18:01	348289	615102c62504c240ac52cb00	381771587	1	main_slash	7	advance_on_keypress_SLASH	124	stimuli_distractor_diamondtriangles.svg	stimuli_target_trianglecircles.svg	29	yes	57	0	523
6.6.1	win	2022-12-29	10:12:10	10:18:03	349878	615102c62504c240ac52cb00	381771587	1	main_slash	7	main_slash	125	stimuli_distractor_trianglediamonds.svg	stimuli_target_squarediamonds.svg	12	yes	53	1	410
6.6.1	win	2022-12-29	10:12:10	10:18:03	349878	615102c62504c240ac52cb00	381771587	1	main_slash	7	advance_on_keypress_SLASH	126	stimuli_distractor_trianglediamonds.svg	stimuli_target_squarediamonds.svg	12	yes	57	0	390
6.6.1	win	2022-12-29	10:12:10	10:18:05	351432	615102c62504c240ac52cb00	381771587	1	main_slash	7	main_slash	127	stimuli_distractor_diamondtriangles.svg	stimuli_target_circlediamonds.svg	14	yes	53	1	505
6.6.1	win	2022-12-29	10:12:10	10:18:05	351432	615102c62504c240ac52cb00	381771587	1	main_slash	7	advance_on_keypress_SLASH	128	stimuli_distractor_diamondtriangles.svg	stimuli_target_circlediamonds.svg	14	yes	57	0	183
6.6.1	win	2022-12-29	10:12:10	10:18:06	352728	615102c62504c240ac52cb00	381771587	1	main_slash	7	main_slash	129	stimuli_distractor_diamondtriangles.svg	stimuli_target_squarediamonds.svg	16	yes	53	1	451
6.6.1	win	2022-12-29	10:12:10	10:18:06	352728	615102c62504c240ac52cb00	381771587	1	main_slash	7	advance_on_keypress_SLASH	130	stimuli_distractor_diamondtriangles.svg	stimuli_target_squarediamonds.svg	16	yes	57	0	460
6.6.1	win	2022-12-29	10:12:10	10:18:07	354269	615102c62504c240ac52cb00	381771587	1	main_slash	7	main_slash	131	stimuli_target_squaretriangles.svg	stimuli_distractor_trianglediamonds.svg	3	yes	53	1	422
6.6.1	win	2022-12-29	10:12:10	10:18:07	354269	615102c62504c240ac52cb00	381771587	1	main_slash	7	advance_on_keypress_SLASH	132	stimuli_target_squaretriangles.svg	stimuli_distractor_trianglediamonds.svg	3	yes	57	0	394
6.6.1	win	2022-12-29	10:12:10	10:18:09	355738	615102c62504c240ac52cb00	381771587	1	main_slash	7	main_slash	133	stimuli_distractor_diamondtriangles.svg	stimuli_target_circletriangles.svg	13	yes	53	1	421
6.6.1	win	2022-12-29	10:12:10	10:18:09	355738	615102c62504c240ac52cb00	381771587	1	main_slash	7	advance_on_keypress_SLASH	134	stimuli_distractor_diamondtriangles.svg	stimuli_target_circletriangles.svg	13	yes	57	0	392
6.6.1	win	2022-12-29	10:12:10	10:18:11	357428	615102c62504c240ac52cb00	381771587	1	main_slash	7	main_slash	135	stimuli_distractor_trianglediamonds.svg	stimuli_target_diamondcircles.svg	27	yes	53	1	641
6.6.1	win	2022-12-29	10:12:10	10:18:11	357428	615102c62504c240ac52cb00	381771587	1	main_slash	7	advance_on_keypress_SLASH	136	stimuli_distractor_trianglediamonds.svg	stimuli_target_diamondcircles.svg	27	yes	57	0	517
6.6.1	win	2022-12-29	10:12:10	10:18:12	359018	615102c62504c240ac52cb00	381771587	1	main_slash	7	main_slash	137	stimuli_distractor_trianglediamonds.svg	stimuli_distractor_trianglediamonds.svg	34	no	53	0	421
6.6.1	win	2022-12-29	10:12:10	10:18:12	359018	615102c62504c240ac52cb00	381771587	1	main_slash	7	advance_on_keypress_SLASH	138	stimuli_distractor_trianglediamonds.svg	stimuli_distractor_trianglediamonds.svg	34	no	57	0	392
6.6.1	win	2022-12-29	10:12:10	10:18:14	360519	615102c62504c240ac52cb00	381771587	1	main_slash	7	main_slash	139	stimuli_distractor_diamondtriangles.svg	stimuli_distractor_trianglediamonds.svg	38	no	53	0	452
6.6.1	win	2022-12-29	10:12:10	10:18:14	360519	615102c62504c240ac52cb00	381771587	1	main_slash	7	advance_on_keypress_SLASH	140	stimuli_distractor_diamondtriangles.svg	stimuli_distractor_trianglediamonds.svg	38	no	57	0	419
6.6.1	win	2022-12-29	10:12:10	10:18:15	362068	615102c62504c240ac52cb00	381771587	1	main_slash	7	main_slash	141	stimuli_distractor_trianglediamonds.svg	stimuli_target_diamondsquares.svg	28	yes	53	1	471
6.6.1	win	2022-12-29	10:12:10	10:18:15	362068	615102c62504c240ac52cb00	381771587	1	main_slash	7	advance_on_keypress_SLASH	142	stimuli_distractor_trianglediamonds.svg	stimuli_target_diamondsquares.svg	28	yes	57	0	454
6.6.1	win	2022-12-29	10:12:10	10:18:17	363588	615102c62504c240ac52cb00	381771587	1	main_slash	7	main_slash	143	stimuli_distractor_trianglediamonds.svg	stimuli_target_circlediamonds.svg	10	yes	53	1	412
6.6.1	win	2022-12-29	10:12:10	10:18:17	363588	615102c62504c240ac52cb00	381771587	1	main_slash	7	advance_on_keypress_SLASH	144	stimuli_distractor_trianglediamonds.svg	stimuli_target_circlediamonds.svg	10	yes	57	0	431
6.6.1	win	2022-12-29	10:12:10	10:18:18	365108	615102c62504c240ac52cb00	381771587	1	main_slash	7	main_slash	145	stimuli_distractor_diamondtriangles.svg	stimuli_target_trianglesquares.svg	30	yes	53	1	440
6.6.1	win	2022-12-29	10:12:10	10:18:18	365108	615102c62504c240ac52cb00	381771587	1	main_slash	7	advance_on_keypress_SLASH	146	stimuli_distractor_diamondtriangles.svg	stimuli_target_trianglesquares.svg	30	yes	57	0	476
6.6.1	win	2022-12-29	10:12:10	10:18:20	366668	615102c62504c240ac52cb00	381771587	1	main_slash	7	main_slash	147	stimuli_target_circletriangles.svg	stimuli_distractor_diamondtriangles.svg	5	yes	53	1	432
6.6.1	win	2022-12-29	10:12:10	10:18:20	366668	615102c62504c240ac52cb00	381771587	1	main_slash	7	advance_on_keypress_SLASH	148	stimuli_target_circletriangles.svg	stimuli_distractor_diamondtriangles.svg	5	yes	57	0	444
6.6.1	win	2022-12-29	10:12:10	10:18:21	368188	615102c62504c240ac52cb00	381771587	1	main_slash	7	main_slash	149	stimuli_target_diamondcircles.svg	stimuli_distractor_diamondtriangles.svg	23	yes	53	1	432
6.6.1	win	2022-12-29	10:12:10	10:18:21	368188	615102c62504c240ac52cb00	381771587	1	main_slash	7	advance_on_keypress_SLASH	150	stimuli_target_diamondcircles.svg	stimuli_distractor_diamondtriangles.svg	23	yes	57	0	432
6.6.1	win	2022-12-29	10:12:10	10:18:23	369658	615102c62504c240ac52cb00	381771587	1	main_slash	7	main_slash	151	stimuli_target_trianglecircles.svg	stimuli_distractor_trianglediamonds.svg	17	yes	53	1	391
6.6.1	win	2022-12-29	10:12:10	10:18:23	369658	615102c62504c240ac52cb00	381771587	1	main_slash	7	advance_on_keypress_SLASH	152	stimuli_target_trianglecircles.svg	stimuli_distractor_trianglediamonds.svg	17	yes	57	0	416
6.6.1	win	2022-12-29	10:12:10	10:18:24	371169	615102c62504c240ac52cb00	381771587	1	main_slash	7	main_slash	153	stimuli_target_trianglecircles.svg	stimuli_distractor_diamondtriangles.svg	21	yes	53	1	440
6.6.1	win	2022-12-29	10:12:10	10:18:24	371169	615102c62504c240ac52cb00	381771587	1	main_slash	7	advance_on_keypress_SLASH	154	stimuli_target_trianglecircles.svg	stimuli_distractor_diamondtriangles.svg	21	yes	57	0	415
6.6.1	win	2022-12-29	10:12:10	10:18:26	372628	615102c62504c240ac52cb00	381771587	1	main_slash	7	main_slash	155	stimuli_distractor_diamondtriangles.svg	stimuli_distractor_diamondtriangles.svg	40	no	53	0	391
6.6.1	win	2022-12-29	10:12:10	10:18:26	372628	615102c62504c240ac52cb00	381771587	1	main_slash	7	advance_on_keypress_SLASH	156	stimuli_distractor_diamondtriangles.svg	stimuli_distractor_diamondtriangles.svg	40	no	57	0	437
6.6.1	win	2022-12-29	10:12:10	10:18:27	374338	615102c62504c240ac52cb00	381771587	1	main_slash	7	main_slash	157	stimuli_target_diamondsquares.svg	stimuli_distractor_trianglediamonds.svg	20	yes	53	1	621
6.6.1	win	2022-12-29	10:12:10	10:18:27	374338	615102c62504c240ac52cb00	381771587	1	main_slash	7	advance_on_keypress_SLASH	158	stimuli_target_diamondsquares.svg	stimuli_distractor_trianglediamonds.svg	20	yes	57	0	495
6.6.1	win	2022-12-29	10:12:10	10:18:29	376098	615102c62504c240ac52cb00	381771587	1	main_slash	7	main_slash	159	stimuli_distractor_trianglediamonds.svg	stimuli_distractor_diamondtriangles.svg	36	no	53	0	610
6.6.1	win	2022-12-29	10:12:10	10:18:29	376098	615102c62504c240ac52cb00	381771587	1	main_slash	7	advance_on_keypress_SLASH	160	stimuli_distractor_trianglediamonds.svg	stimuli_distractor_diamondtriangles.svg	36	no	57	0	447
6.6.1	win	2022-12-29	10:12:10	10:18:49	395852	615102c62504c240ac52cb00	381771587	1	practice_z	9	practice_z	1	stimuli_distractor_trianglediamonds.svg	stimuli_distractor_trianglediamonds.svg	15	no	44	0	685
6.6.1	win	2022-12-29	10:12:10	10:18:49	395852	615102c62504c240ac52cb00	381771587	1	practice_z	9	advance_on_keypress_ZEE	2	stimuli_distractor_trianglediamonds.svg	stimuli_distractor_trianglediamonds.svg	15	no	57	0	1324
6.6.1	win	2022-12-29	10:12:10	10:18:52	399203	615102c62504c240ac52cb00	381771587	1	practice_z	9	practice_z	3	stimuli_distractor_trianglediamonds.svg	stimuli_distractor_diamondtriangles.svg	16	no	44	0	362
6.6.1	win	2022-12-29	10:12:10	10:18:52	399203	615102c62504c240ac52cb00	381771587	1	practice_z	9	advance_on_keypress_ZEE	4	stimuli_distractor_trianglediamonds.svg	stimuli_distractor_diamondtriangles.svg	16	no	57	0	884
6.6.1	win	2022-12-29	10:12:10	10:18:57	403750	615102c62504c240ac52cb00	381771587	1	practice_z	9	practice_z	5	stimuli_distractor_diamondtriangles.svg	stimuli_distractor_diamondtriangles.svg	13	no	0	1	2000
6.6.1	win	2022-12-29	10:12:10	10:18:57	403750	615102c62504c240ac52cb00	381771587	1	practice_z	9	advance_on_keypress_ZEE	6	stimuli_distractor_diamondtriangles.svg	stimuli_distractor_diamondtriangles.svg	13	no	57	0	657
6.6.1	win	2022-12-29	10:12:10	10:19:00	406471	615102c62504c240ac52cb00	381771587	1	practice_z	9	practice_z	7	stimuli_distractor_trianglediamonds.svg	stimuli_target_diamondcircles.svg	12	yes	44	1	401
6.6.1	win	2022-12-29	10:12:10	10:19:00	406471	615102c62504c240ac52cb00	381771587	1	practice_z	9	advance_on_keypress_ZEE	8	stimuli_distractor_trianglediamonds.svg	stimuli_target_diamondcircles.svg	12	yes	57	0	575
6.6.1	win	2022-12-29	10:12:10	10:19:02	409097	615102c62504c240ac52cb00	381771587	1	practice_z	9	practice_z	9	stimuli_distractor_diamondtriangles.svg	stimuli_target_diamondcircles.svg	8	yes	44	1	366
6.6.1	win	2022-12-29	10:12:10	10:19:02	409097	615102c62504c240ac52cb00	381771587	1	practice_z	9	advance_on_keypress_ZEE	10	stimuli_distractor_diamondtriangles.svg	stimuli_target_diamondcircles.svg	8	yes	57	0	601
6.6.1	win	2022-12-29	10:12:10	10:19:05	411722	615102c62504c240ac52cb00	381771587	1	practice_z	9	practice_z	11	stimuli_distractor_trianglediamonds.svg	stimuli_target_circlediamonds.svg	10	yes	44	1	361
6.6.1	win	2022-12-29	10:12:10	10:19:05	411722	615102c62504c240ac52cb00	381771587	1	practice_z	9	advance_on_keypress_ZEE	12	stimuli_distractor_trianglediamonds.svg	stimuli_target_circlediamonds.svg	10	yes	57	0	904
6.6.1	win	2022-12-29	10:12:10	10:19:08	414652	615102c62504c240ac52cb00	381771587	1	practice_z	9	practice_z	13	stimuli_target_circlediamonds.svg	stimuli_distractor_trianglediamonds.svg	4	yes	44	1	361
6.6.1	win	2022-12-29	10:12:10	10:19:08	414652	615102c62504c240ac52cb00	381771587	1	practice_z	9	advance_on_keypress_ZEE	14	stimuli_target_circlediamonds.svg	stimuli_distractor_trianglediamonds.svg	4	yes	57	0	335
6.6.1	win	2022-12-29	10:12:10	10:19:10	417063	615102c62504c240ac52cb00	381771587	1	practice_z	9	practice_z	15	stimuli_target_diamondsquares.svg	stimuli_distractor_trianglediamonds.svg	6	yes	44	1	412
6.6.1	win	2022-12-29	10:12:10	10:19:10	417063	615102c62504c240ac52cb00	381771587	1	practice_z	9	advance_on_keypress_ZEE	16	stimuli_target_diamondsquares.svg	stimuli_distractor_trianglediamonds.svg	6	yes	57	0	384
6.6.1	win	2022-12-29	10:12:10	10:19:13	419423	615102c62504c240ac52cb00	381771587	1	practice_z	9	practice_z	17	stimuli_distractor_diamondtriangles.svg	stimuli_target_trianglecircles.svg	9	yes	44	1	311
6.6.1	win	2022-12-29	10:12:10	10:19:13	419423	615102c62504c240ac52cb00	381771587	1	practice_z	9	advance_on_keypress_ZEE	18	stimuli_distractor_diamondtriangles.svg	stimuli_target_trianglecircles.svg	9	yes	57	0	473
6.6.1	win	2022-12-29	10:12:10	10:19:15	421893	615102c62504c240ac52cb00	381771587	1	practice_z	9	practice_z	19	stimuli_target_squarediamonds.svg	stimuli_distractor_trianglediamonds.svg	5	yes	44	1	331
6.6.1	win	2022-12-29	10:12:10	10:19:15	421893	615102c62504c240ac52cb00	381771587	1	practice_z	9	advance_on_keypress_ZEE	20	stimuli_target_squarediamonds.svg	stimuli_distractor_trianglediamonds.svg	5	yes	57	0	324
6.6.1	win	2022-12-29	10:12:10	10:19:17	424193	615102c62504c240ac52cb00	381771587	1	practice_z	9	practice_z	21	stimuli_distractor_trianglediamonds.svg	stimuli_target_squarediamonds.svg	11	yes	44	1	311
6.6.1	win	2022-12-29	10:12:10	10:19:17	424193	615102c62504c240ac52cb00	381771587	1	practice_z	9	advance_on_keypress_ZEE	22	stimuli_distractor_trianglediamonds.svg	stimuli_target_squarediamonds.svg	11	yes	57	0	403
6.6.1	win	2022-12-29	10:12:10	10:19:20	426572	615102c62504c240ac52cb00	381771587	1	practice_z	9	practice_z	23	stimuli_target_squarediamonds.svg	stimuli_distractor_diamondtriangles.svg	2	yes	44	1	311
6.6.1	win	2022-12-29	10:12:10	10:19:20	426572	615102c62504c240ac52cb00	381771587	1	practice_z	9	advance_on_keypress_ZEE	24	stimuli_target_squarediamonds.svg	stimuli_distractor_diamondtriangles.svg	2	yes	57	0	444
6.6.1	win	2022-12-29	10:12:10	10:19:22	428963	615102c62504c240ac52cb00	381771587	1	practice_z	9	practice_z	25	stimuli_target_diamondsquares.svg	stimuli_distractor_diamondtriangles.svg	3	yes	44	1	281
6.6.1	win	2022-12-29	10:12:10	10:19:22	428963	615102c62504c240ac52cb00	381771587	1	practice_z	9	advance_on_keypress_ZEE	26	stimuli_target_diamondsquares.svg	stimuli_distractor_diamondtriangles.svg	3	yes	57	0	434
6.6.1	win	2022-12-29	10:12:10	10:19:24	431323	615102c62504c240ac52cb00	381771587	1	practice_z	9	practice_z	27	stimuli_target_circlediamonds.svg	stimuli_distractor_diamondtriangles.svg	1	yes	44	1	261
6.6.1	win	2022-12-29	10:12:10	10:19:24	431323	615102c62504c240ac52cb00	381771587	1	practice_z	9	advance_on_keypress_ZEE	28	stimuli_target_circlediamonds.svg	stimuli_distractor_diamondtriangles.svg	1	yes	57	0	264
6.6.1	win	2022-12-29	10:12:10	10:19:27	433562	615102c62504c240ac52cb00	381771587	1	practice_z	9	practice_z	29	stimuli_distractor_diamondtriangles.svg	stimuli_target_circletriangles.svg	7	yes	44	1	311
6.6.1	win	2022-12-29	10:12:10	10:19:27	433562	615102c62504c240ac52cb00	381771587	1	practice_z	9	advance_on_keypress_ZEE	30	stimuli_distractor_diamondtriangles.svg	stimuli_target_circletriangles.svg	7	yes	57	0	324
6.6.1	win	2022-12-29	10:12:10	10:19:29	435833	615102c62504c240ac52cb00	381771587	1	practice_z	9	practice_z	31	stimuli_distractor_diamondtriangles.svg	stimuli_distractor_trianglediamonds.svg	14	no	44	0	281
6.6.1	win	2022-12-29	10:12:10	10:19:29	435833	615102c62504c240ac52cb00	381771587	1	practice_z	9	advance_on_keypress_ZEE	32	stimuli_distractor_diamondtriangles.svg	stimuli_distractor_trianglediamonds.svg	14	no	57	0	433
6.6.1	win	2022-12-29	10:12:10	10:19:34	440478	615102c62504c240ac52cb00	381771587	1	main_z	11	main_z	1	stimuli_distractor_diamondtriangles.svg	stimuli_target_circlediamonds.svg	14	yes	44	1	571
6.6.1	win	2022-12-29	10:12:10	10:19:34	440478	615102c62504c240ac52cb00	381771587	1	main_z	11	advance_on_keypress_ZEE	2	stimuli_distractor_diamondtriangles.svg	stimuli_target_circlediamonds.svg	14	yes	57	0	2170
6.6.1	win	2022-12-29	10:12:10	10:19:37	443608	615102c62504c240ac52cb00	381771587	1	main_z	11	main_z	3	stimuli_target_trianglecircles.svg	stimuli_distractor_trianglediamonds.svg	17	yes	44	1	302
6.6.1	win	2022-12-29	10:12:10	10:19:37	443608	615102c62504c240ac52cb00	381771587	1	main_z	11	advance_on_keypress_ZEE	4	stimuli_target_trianglecircles.svg	stimuli_distractor_trianglediamonds.svg	17	yes	57	0	748
6.6.1	win	2022-12-29	10:12:10	10:19:38	445268	615102c62504c240ac52cb00	381771587	1	main_z	11	main_z	5	stimuli_distractor_diamondtriangles.svg	stimuli_target_trianglecircles.svg	29	yes	44	1	251
6.6.1	win	2022-12-29	10:12:10	10:19:38	445268	615102c62504c240ac52cb00	381771587	1	main_z	11	advance_on_keypress_ZEE	6	stimuli_distractor_diamondtriangles.svg	stimuli_target_trianglecircles.svg	29	yes	57	0	829
6.6.1	win	2022-12-29	10:12:10	10:19:40	447048	615102c62504c240ac52cb00	381771587	1	main_z	11	main_z	7	stimuli_target_circlediamonds.svg	stimuli_distractor_diamondtriangles.svg	6	yes	44	1	291
6.6.1	win	2022-12-29	10:12:10	10:19:40	447048	615102c62504c240ac52cb00	381771587	1	main_z	11	advance_on_keypress_ZEE	8	stimuli_target_circlediamonds.svg	stimuli_distractor_diamondtriangles.svg	6	yes	57	0	498
6.6.1	win	2022-12-29	10:12:10	10:19:42	448508	615102c62504c240ac52cb00	381771587	1	main_z	11	main_z	9	stimuli_target_trianglesquares.svg	stimuli_distractor_trianglediamonds.svg	18	yes	44	1	301
6.6.1	win	2022-12-29	10:12:10	10:19:42	448508	615102c62504c240ac52cb00	381771587	1	main_z	11	advance_on_keypress_ZEE	10	stimuli_target_trianglesquares.svg	stimuli_distractor_trianglediamonds.svg	18	yes	57	0	638
6.6.1	win	2022-12-29	10:12:10	10:19:43	450098	615102c62504c240ac52cb00	381771587	1	main_z	11	main_z	11	stimuli_distractor_diamondtriangles.svg	stimuli_target_circletriangles.svg	13	yes	44	1	291
6.6.1	win	2022-12-29	10:12:10	10:19:43	450098	615102c62504c240ac52cb00	381771587	1	main_z	11	advance_on_keypress_ZEE	12	stimuli_distractor_diamondtriangles.svg	stimuli_target_circletriangles.svg	13	yes	57	0	678
6.6.1	win	2022-12-29	10:12:10	10:19:45	451729	615102c62504c240ac52cb00	381771587	1	main_z	11	main_z	13	stimuli_distractor_trianglediamonds.svg	stimuli_target_circletriangles.svg	9	yes	44	1	291
6.6.1	win	2022-12-29	10:12:10	10:19:45	451729	615102c62504c240ac52cb00	381771587	1	main_z	11	advance_on_keypress_ZEE	14	stimuli_distractor_trianglediamonds.svg	stimuli_target_circletriangles.svg	9	yes	57	0	957
6.6.1	win	2022-12-29	10:12:10	10:19:47	453608	615102c62504c240ac52cb00	381771587	1	main_z	11	main_z	15	stimuli_target_diamondsquares.svg	stimuli_distractor_diamondtriangles.svg	24	yes	44	1	261
6.6.1	win	2022-12-29	10:12:10	10:19:47	453608	615102c62504c240ac52cb00	381771587	1	main_z	11	advance_on_keypress_ZEE	16	stimuli_target_diamondsquares.svg	stimuli_distractor_diamondtriangles.svg	24	yes	57	0	459
6.6.1	win	2022-12-29	10:12:10	10:19:48	454968	615102c62504c240ac52cb00	381771587	1	main_z	11	main_z	17	stimuli_distractor_diamondtriangles.svg	stimuli_target_squaretriangles.svg	15	yes	44	1	251
6.6.1	win	2022-12-29	10:12:10	10:19:48	454968	615102c62504c240ac52cb00	381771587	1	main_z	11	advance_on_keypress_ZEE	18	stimuli_distractor_diamondtriangles.svg	stimuli_target_squaretriangles.svg	15	yes	57	0	599
6.6.1	win	2022-12-29	10:12:10	10:19:50	456498	615102c62504c240ac52cb00	381771587	1	main_z	11	main_z	19	stimuli_distractor_diamondtriangles.svg	stimuli_target_diamondcircles.svg	31	yes	44	1	271
6.6.1	win	2022-12-29	10:12:10	10:19:50	456498	615102c62504c240ac52cb00	381771587	1	main_z	11	advance_on_keypress_ZEE	20	stimuli_distractor_diamondtriangles.svg	stimuli_target_diamondcircles.svg	31	yes	57	0	508
6.6.1	win	2022-12-29	10:12:10	10:19:51	457928	615102c62504c240ac52cb00	381771587	1	main_z	11	main_z	21	stimuli_distractor_diamondtriangles.svg	stimuli_target_trianglesquares.svg	30	yes	44	1	261
6.6.1	win	2022-12-29	10:12:10	10:19:51	457928	615102c62504c240ac52cb00	381771587	1	main_z	11	advance_on_keypress_ZEE	22	stimuli_distractor_diamondtriangles.svg	stimuli_target_trianglesquares.svg	30	yes	57	0	750
6.6.1	win	2022-12-29	10:12:10	10:19:53	459588	615102c62504c240ac52cb00	381771587	1	main_z	11	main_z	23	stimuli_distractor_diamondtriangles.svg	stimuli_distractor_diamondtriangles.svg	40	no	44	0	261
6.6.1	win	2022-12-29	10:12:10	10:19:53	459588	615102c62504c240ac52cb00	381771587	1	main_z	11	advance_on_keypress_ZEE	24	stimuli_distractor_diamondtriangles.svg	stimuli_distractor_diamondtriangles.svg	40	no	57	0	739
6.6.1	win	2022-12-29	10:12:10	10:19:56	462976	615102c62504c240ac52cb00	381771587	1	main_z	11	main_z	25	stimuli_distractor_diamondtriangles.svg	stimuli_distractor_trianglediamonds.svg	38	no	0	1	2000
6.6.1	win	2022-12-29	10:12:10	10:19:56	462976	615102c62504c240ac52cb00	381771587	1	main_z	11	advance_on_keypress_ZEE	26	stimuli_distractor_diamondtriangles.svg	stimuli_distractor_trianglediamonds.svg	38	no	57	0	556
6.6.1	win	2022-12-29	10:12:10	10:19:58	464520	615102c62504c240ac52cb00	381771587	1	main_z	11	main_z	27	stimuli_target_diamondsquares.svg	stimuli_distractor_trianglediamonds.svg	20	yes	44	1	342
6.6.1	win	2022-12-29	10:12:10	10:19:58	464520	615102c62504c240ac52cb00	381771587	1	main_z	11	advance_on_keypress_ZEE	28	stimuli_target_diamondsquares.svg	stimuli_distractor_trianglediamonds.svg	20	yes	57	0	507
6.6.1	win	2022-12-29	10:12:10	10:19:59	466088	615102c62504c240ac52cb00	381771587	1	main_z	11	main_z	29	stimuli_distractor_trianglediamonds.svg	stimuli_target_trianglecircles.svg	25	yes	44	1	402
6.6.1	win	2022-12-29	10:12:10	10:19:59	466088	615102c62504c240ac52cb00	381771587	1	main_z	11	advance_on_keypress_ZEE	30	stimuli_distractor_trianglediamonds.svg	stimuli_target_trianglecircles.svg	25	yes	57	0	451
6.6.1	win	2022-12-29	10:12:10	10:20:01	467588	615102c62504c240ac52cb00	381771587	1	main_z	11	main_z	31	stimuli_distractor_trianglediamonds.svg	stimuli_target_diamondsquares.svg	28	yes	44	1	389
6.6.1	win	2022-12-29	10:12:10	10:20:01	467588	615102c62504c240ac52cb00	381771587	1	main_z	11	advance_on_keypress_ZEE	32	stimuli_distractor_trianglediamonds.svg	stimuli_target_diamondsquares.svg	28	yes	57	0	644
6.6.1	win	2022-12-29	10:12:10	10:20:02	469239	615102c62504c240ac52cb00	381771587	1	main_z	11	main_z	33	stimuli_distractor_diamondtriangles.svg	stimuli_distractor_diamondtriangles.svg	39	no	44	0	352
6.6.1	win	2022-12-29	10:12:10	10:20:02	469239	615102c62504c240ac52cb00	381771587	1	main_z	11	advance_on_keypress_ZEE	34	stimuli_distractor_diamondtriangles.svg	stimuli_distractor_diamondtriangles.svg	39	no	57	0	779
6.6.1	win	2022-12-29	10:12:10	10:20:06	472678	615102c62504c240ac52cb00	381771587	1	main_z	11	main_z	35	stimuli_target_circletriangles.svg	stimuli_distractor_trianglediamonds.svg	1	yes	0	0	2000
6.6.1	win	2022-12-29	10:12:10	10:20:06	472678	615102c62504c240ac52cb00	381771587	1	main_z	11	advance_on_keypress_ZEE	36	stimuli_target_circletriangles.svg	stimuli_distractor_trianglediamonds.svg	1	yes	57	0	518
6.6.1	win	2022-12-29	10:12:10	10:20:07	474259	615102c62504c240ac52cb00	381771587	1	main_z	11	main_z	37	stimuli_target_circlediamonds.svg	stimuli_distractor_trianglediamonds.svg	2	yes	44	1	412
6.6.1	win	2022-12-29	10:12:10	10:20:07	474259	615102c62504c240ac52cb00	381771587	1	main_z	11	advance_on_keypress_ZEE	38	stimuli_target_circlediamonds.svg	stimuli_distractor_trianglediamonds.svg	2	yes	57	0	531
6.6.1	win	2022-12-29	10:12:10	10:20:09	475848	615102c62504c240ac52cb00	381771587	1	main_z	11	main_z	39	stimuli_target_squaretriangles.svg	stimuli_distractor_trianglediamonds.svg	3	yes	44	1	411
6.6.1	win	2022-12-29	10:12:10	10:20:09	475848	615102c62504c240ac52cb00	381771587	1	main_z	11	advance_on_keypress_ZEE	40	stimuli_target_squaretriangles.svg	stimuli_distractor_trianglediamonds.svg	3	yes	57	0	480
6.6.1	win	2022-12-29	10:12:10	10:20:10	477379	615102c62504c240ac52cb00	381771587	1	main_z	11	main_z	41	stimuli_target_trianglesquares.svg	stimuli_distractor_diamondtriangles.svg	22	yes	44	1	401
6.6.1	win	2022-12-29	10:12:10	10:20:10	477379	615102c62504c240ac52cb00	381771587	1	main_z	11	advance_on_keypress_ZEE	42	stimuli_target_trianglesquares.svg	stimuli_distractor_diamondtriangles.svg	22	yes	57	0	508
6.6.1	win	2022-12-29	10:12:10	10:20:14	480547	615102c62504c240ac52cb00	381771587	1	main_z	11	main_z	43	stimuli_distractor_trianglediamonds.svg	stimuli_distractor_trianglediamonds.svg	33	no	0	1	2000
6.6.1	win	2022-12-29	10:12:10	10:20:14	480547	615102c62504c240ac52cb00	381771587	1	main_z	11	advance_on_keypress_ZEE	44	stimuli_distractor_trianglediamonds.svg	stimuli_distractor_trianglediamonds.svg	33	no	57	0	367
6.6.1	win	2022-12-29	10:12:10	10:20:15	481969	615102c62504c240ac52cb00	381771587	1	main_z	11	main_z	45	stimuli_distractor_trianglediamonds.svg	stimuli_target_circlediamonds.svg	10	yes	44	1	402
6.6.1	win	2022-12-29	10:12:10	10:20:15	481969	615102c62504c240ac52cb00	381771587	1	main_z	11	advance_on_keypress_ZEE	46	stimuli_distractor_trianglediamonds.svg	stimuli_target_circlediamonds.svg	10	yes	57	0	791
6.6.1	win	2022-12-29	10:12:10	10:20:17	483859	615102c62504c240ac52cb00	381771587	1	main_z	11	main_z	47	stimuli_distractor_trianglediamonds.svg	stimuli_target_squaretriangles.svg	11	yes	44	1	442
6.6.1	win	2022-12-29	10:12:10	10:20:17	483859	615102c62504c240ac52cb00	381771587	1	main_z	11	advance_on_keypress_ZEE	48	stimuli_distractor_trianglediamonds.svg	stimuli_target_squaretriangles.svg	11	yes	57	0	756
6.6.1	win	2022-12-29	10:12:10	10:20:20	487267	615102c62504c240ac52cb00	381771587	1	main_z	11	main_z	49	stimuli_distractor_trianglediamonds.svg	stimuli_distractor_diamondtriangles.svg	35	no	0	1	2000
6.6.1	win	2022-12-29	10:12:10	10:20:20	487267	615102c62504c240ac52cb00	381771587	1	main_z	11	advance_on_keypress_ZEE	50	stimuli_distractor_trianglediamonds.svg	stimuli_distractor_diamondtriangles.svg	35	no	57	0	299
6.6.1	win	2022-12-29	10:12:10	10:20:22	488648	615102c62504c240ac52cb00	381771587	1	main_z	11	main_z	51	stimuli_target_diamondcircles.svg	stimuli_distractor_diamondtriangles.svg	23	yes	44	1	430
6.6.1	win	2022-12-29	10:12:10	10:20:22	488648	615102c62504c240ac52cb00	381771587	1	main_z	11	advance_on_keypress_ZEE	52	stimuli_target_diamondcircles.svg	stimuli_distractor_diamondtriangles.svg	23	yes	57	0	472
6.6.1	win	2022-12-29	10:12:10	10:20:25	491767	615102c62504c240ac52cb00	381771587	1	main_z	11	main_z	53	stimuli_distractor_diamondtriangles.svg	stimuli_distractor_trianglediamonds.svg	37	no	0	1	2000
6.6.1	win	2022-12-29	10:12:10	10:20:25	491767	615102c62504c240ac52cb00	381771587	1	main_z	11	advance_on_keypress_ZEE	54	stimuli_distractor_diamondtriangles.svg	stimuli_distractor_trianglediamonds.svg	37	no	57	0	394
6.6.1	win	2022-12-29	10:12:10	10:20:26	493248	615102c62504c240ac52cb00	381771587	1	main_z	11	main_z	55	stimuli_target_squarediamonds.svg	stimuli_distractor_trianglediamonds.svg	4	yes	44	1	430
6.6.1	win	2022-12-29	10:12:10	10:20:26	493248	615102c62504c240ac52cb00	381771587	1	main_z	11	advance_on_keypress_ZEE	56	stimuli_target_squarediamonds.svg	stimuli_distractor_trianglediamonds.svg	4	yes	57	0	1503
6.6.1	win	2022-12-29	10:12:10	10:20:29	495773	615102c62504c240ac52cb00	381771587	1	main_z	11	main_z	57	stimuli_distractor_trianglediamonds.svg	stimuli_target_diamondcircles.svg	27	yes	44	1	376
6.6.1	win	2022-12-29	10:12:10	10:20:29	495773	615102c62504c240ac52cb00	381771587	1	main_z	11	advance_on_keypress_ZEE	58	stimuli_distractor_trianglediamonds.svg	stimuli_target_diamondcircles.svg	27	yes	57	0	692
6.6.1	win	2022-12-29	10:12:10	10:20:31	497470	615102c62504c240ac52cb00	381771587	1	main_z	11	main_z	59	stimuli_distractor_trianglediamonds.svg	stimuli_target_trianglesquares.svg	26	yes	44	1	358
6.6.1	win	2022-12-29	10:12:10	10:20:31	497470	615102c62504c240ac52cb00	381771587	1	main_z	11	advance_on_keypress_ZEE	60	stimuli_distractor_trianglediamonds.svg	stimuli_target_trianglesquares.svg	26	yes	57	0	658
6.6.1	win	2022-12-29	10:12:10	10:20:34	500788	615102c62504c240ac52cb00	381771587	1	main_z	11	main_z	61	stimuli_distractor_trianglediamonds.svg	stimuli_target_squarediamonds.svg	12	yes	0	0	2000
6.6.1	win	2022-12-29	10:12:10	10:20:34	500788	615102c62504c240ac52cb00	381771587	1	main_z	11	advance_on_keypress_ZEE	62	stimuli_distractor_trianglediamonds.svg	stimuli_target_squarediamonds.svg	12	yes	57	0	321
6.6.1	win	2022-12-29	10:12:10	10:20:35	502159	615102c62504c240ac52cb00	381771587	1	main_z	11	main_z	63	stimuli_target_squarediamonds.svg	stimuli_distractor_diamondtriangles.svg	8	yes	44	1	391
6.6.1	win	2022-12-29	10:12:10	10:20:35	502159	615102c62504c240ac52cb00	381771587	1	main_z	11	advance_on_keypress_ZEE	64	stimuli_target_squarediamonds.svg	stimuli_distractor_diamondtriangles.svg	8	yes	57	0	2286
6.6.1	win	2022-12-29	10:12:10	10:20:40	507098	615102c62504c240ac52cb00	381771587	1	main_z	11	main_z	65	stimuli_distractor_trianglediamonds.svg	stimuli_distractor_diamondtriangles.svg	36	no	0	1	2000
6.6.1	win	2022-12-29	10:12:10	10:20:40	507098	615102c62504c240ac52cb00	381771587	1	main_z	11	advance_on_keypress_ZEE	66	stimuli_distractor_trianglediamonds.svg	stimuli_distractor_diamondtriangles.svg	36	no	57	0	304
6.6.1	win	2022-12-29	10:12:10	10:20:43	510057	615102c62504c240ac52cb00	381771587	1	main_z	11	main_z	67	stimuli_distractor_trianglediamonds.svg	stimuli_distractor_trianglediamonds.svg	34	no	0	1	2000
6.6.1	win	2022-12-29	10:12:10	10:20:43	510057	615102c62504c240ac52cb00	381771587	1	main_z	11	advance_on_keypress_ZEE	68	stimuli_distractor_trianglediamonds.svg	stimuli_distractor_trianglediamonds.svg	34	no	57	0	374
6.6.1	win	2022-12-29	10:12:10	10:20:45	511469	615102c62504c240ac52cb00	381771587	1	main_z	11	main_z	69	stimuli_target_squaretriangles.svg	stimuli_distractor_diamondtriangles.svg	7	yes	44	1	391
6.6.1	win	2022-12-29	10:12:10	10:20:45	511469	615102c62504c240ac52cb00	381771587	1	main_z	11	advance_on_keypress_ZEE	70	stimuli_target_squaretriangles.svg	stimuli_distractor_diamondtriangles.svg	7	yes	57	0	966
6.6.1	win	2022-12-29	10:12:10	10:20:47	513499	615102c62504c240ac52cb00	381771587	1	main_z	11	main_z	71	stimuli_distractor_diamondtriangles.svg	stimuli_target_squarediamonds.svg	16	yes	44	1	411
6.6.1	win	2022-12-29	10:12:10	10:20:47	513499	615102c62504c240ac52cb00	381771587	1	main_z	11	advance_on_keypress_ZEE	72	stimuli_distractor_diamondtriangles.svg	stimuli_target_squarediamonds.svg	16	yes	57	0	1039
6.6.1	win	2022-12-29	10:12:10	10:20:49	515679	615102c62504c240ac52cb00	381771587	1	main_z	11	main_z	73	stimuli_target_diamondcircles.svg	stimuli_distractor_trianglediamonds.svg	19	yes	44	1	491
6.6.1	win	2022-12-29	10:12:10	10:20:49	515679	615102c62504c240ac52cb00	381771587	1	main_z	11	advance_on_keypress_ZEE	74	stimuli_target_diamondcircles.svg	stimuli_distractor_trianglediamonds.svg	19	yes	57	0	1696
6.6.1	win	2022-12-29	10:12:10	10:20:52	518419	615102c62504c240ac52cb00	381771587	1	main_z	11	main_z	75	stimuli_target_circletriangles.svg	stimuli_distractor_diamondtriangles.svg	5	yes	44	1	391
6.6.1	win	2022-12-29	10:12:10	10:20:52	518419	615102c62504c240ac52cb00	381771587	1	main_z	11	advance_on_keypress_ZEE	76	stimuli_target_circletriangles.svg	stimuli_distractor_diamondtriangles.svg	5	yes	57	0	586
6.6.1	win	2022-12-29	10:12:10	10:20:53	520149	615102c62504c240ac52cb00	381771587	1	main_z	11	main_z	77	stimuli_target_trianglecircles.svg	stimuli_distractor_diamondtriangles.svg	21	yes	44	1	492
6.6.1	win	2022-12-29	10:12:10	10:20:53	520149	615102c62504c240ac52cb00	381771587	1	main_z	11	advance_on_keypress_ZEE	78	stimuli_target_trianglecircles.svg	stimuli_distractor_diamondtriangles.svg	21	yes	57	0	926
6.6.1	win	2022-12-29	10:12:10	10:20:55	522189	615102c62504c240ac52cb00	381771587	1	main_z	11	main_z	79	stimuli_distractor_diamondtriangles.svg	stimuli_target_diamondsquares.svg	32	yes	44	1	461
6.6.1	win	2022-12-29	10:12:10	10:20:55	522189	615102c62504c240ac52cb00	381771587	1	main_z	11	advance_on_keypress_ZEE	80	stimuli_distractor_diamondtriangles.svg	stimuli_target_diamondsquares.svg	32	yes	57	0	799
6.6.1	win	2022-12-29	10:12:10	10:20:57	524060	615102c62504c240ac52cb00	381771587	1	main_z	11	main_z	81	stimuli_distractor_trianglediamonds.svg	stimuli_target_circletriangles.svg	9	yes	44	1	422
6.6.1	win	2022-12-29	10:12:10	10:20:57	524060	615102c62504c240ac52cb00	381771587	1	main_z	11	advance_on_keypress_ZEE	82	stimuli_distractor_trianglediamonds.svg	stimuli_target_circletriangles.svg	9	yes	57	0	613
6.6.1	win	2022-12-29	10:12:10	10:20:59	525739	615102c62504c240ac52cb00	381771587	1	main_z	11	main_z	83	stimuli_distractor_trianglediamonds.svg	stimuli_target_squarediamonds.svg	12	yes	44	1	411
6.6.1	win	2022-12-29	10:12:10	10:20:59	525739	615102c62504c240ac52cb00	381771587	1	main_z	11	advance_on_keypress_ZEE	84	stimuli_distractor_trianglediamonds.svg	stimuli_target_squarediamonds.svg	12	yes	57	0	1050
6.6.1	win	2022-12-29	10:12:10	10:21:03	529437	615102c62504c240ac52cb00	381771587	1	main_z	11	main_z	85	stimuli_distractor_trianglediamonds.svg	stimuli_distractor_diamondtriangles.svg	36	no	0	1	2000
6.6.1	win	2022-12-29	10:12:10	10:21:03	529437	615102c62504c240ac52cb00	381771587	1	main_z	11	advance_on_keypress_ZEE	86	stimuli_distractor_trianglediamonds.svg	stimuli_distractor_diamondtriangles.svg	36	no	57	0	464
6.6.1	win	2022-12-29	10:12:10	10:21:04	531150	615102c62504c240ac52cb00	381771587	1	main_z	11	main_z	87	stimuli_distractor_trianglediamonds.svg	stimuli_target_trianglecircles.svg	25	yes	44	1	602
6.6.1	win	2022-12-29	10:12:10	10:21:04	531150	615102c62504c240ac52cb00	381771587	1	main_z	11	advance_on_keypress_ZEE	88	stimuli_distractor_trianglediamonds.svg	stimuli_target_trianglecircles.svg	25	yes	57	0	770
6.6.1	win	2022-12-29	10:12:10	10:21:06	532989	615102c62504c240ac52cb00	381771587	1	main_z	11	main_z	89	stimuli_target_diamondcircles.svg	stimuli_distractor_trianglediamonds.svg	19	yes	44	1	411
6.6.1	win	2022-12-29	10:12:10	10:21:06	532989	615102c62504c240ac52cb00	381771587	1	main_z	11	advance_on_keypress_ZEE	90	stimuli_target_diamondcircles.svg	stimuli_distractor_trianglediamonds.svg	19	yes	57	0	719
6.6.1	win	2022-12-29	10:12:10	10:21:08	534872	615102c62504c240ac52cb00	381771587	1	main_z	11	main_z	91	stimuli_target_trianglesquares.svg	stimuli_distractor_trianglediamonds.svg	18	yes	44	1	511
6.6.1	win	2022-12-29	10:12:10	10:21:08	534872	615102c62504c240ac52cb00	381771587	1	main_z	11	advance_on_keypress_ZEE	92	stimuli_target_trianglesquares.svg	stimuli_distractor_trianglediamonds.svg	18	yes	57	0	710
6.6.1	win	2022-12-29	10:12:10	10:21:10	536609	615102c62504c240ac52cb00	381771587	1	main_z	11	main_z	93	stimuli_distractor_diamondtriangles.svg	stimuli_distractor_trianglediamonds.svg	37	no	44	0	372
6.6.1	win	2022-12-29	10:12:10	10:21:10	536609	615102c62504c240ac52cb00	381771587	1	main_z	11	advance_on_keypress_ZEE	94	stimuli_distractor_diamondtriangles.svg	stimuli_distractor_trianglediamonds.svg	37	no	57	0	553
6.6.1	win	2022-12-29	10:12:10	10:21:13	539808	615102c62504c240ac52cb00	381771587	1	main_z	11	main_z	95	stimuli_target_diamondsquares.svg	stimuli_distractor_diamondtriangles.svg	24	yes	0	0	2000
6.6.1	win	2022-12-29	10:12:10	10:21:13	539808	615102c62504c240ac52cb00	381771587	1	main_z	11	advance_on_keypress_ZEE	96	stimuli_target_diamondsquares.svg	stimuli_distractor_diamondtriangles.svg	24	yes	57	0	339
6.6.1	win	2022-12-29	10:12:10	10:21:14	541199	615102c62504c240ac52cb00	381771587	1	main_z	11	main_z	97	stimuli_distractor_trianglediamonds.svg	stimuli_target_squaretriangles.svg	11	yes	44	1	392
6.6.1	win	2022-12-29	10:12:10	10:21:14	541199	615102c62504c240ac52cb00	381771587	1	main_z	11	advance_on_keypress_ZEE	98	stimuli_distractor_trianglediamonds.svg	stimuli_target_squaretriangles.svg	11	yes	57	0	687
6.6.1	win	2022-12-29	10:12:10	10:21:16	542918	615102c62504c240ac52cb00	381771587	1	main_z	11	main_z	99	stimuli_distractor_diamondtriangles.svg	stimuli_target_trianglecircles.svg	29	yes	44	1	373
6.6.1	win	2022-12-29	10:12:10	10:21:16	542918	615102c62504c240ac52cb00	381771587	1	main_z	11	advance_on_keypress_ZEE	100	stimuli_distractor_diamondtriangles.svg	stimuli_target_trianglecircles.svg	29	yes	57	0	643
6.6.1	win	2022-12-29	10:12:10	10:21:18	544539	615102c62504c240ac52cb00	381771587	1	main_z	11	main_z	101	stimuli_target_squarediamonds.svg	stimuli_distractor_diamondtriangles.svg	8	yes	44	1	331
6.6.1	win	2022-12-29	10:12:10	10:21:18	544539	615102c62504c240ac52cb00	381771587	1	main_z	11	advance_on_keypress_ZEE	102	stimuli_target_squarediamonds.svg	stimuli_distractor_diamondtriangles.svg	8	yes	57	0	518
6.6.1	win	2022-12-29	10:12:10	10:21:19	545968	615102c62504c240ac52cb00	381771587	1	main_z	11	main_z	103	stimuli_target_squaretriangles.svg	stimuli_distractor_trianglediamonds.svg	3	yes	44	1	251
6.6.1	win	2022-12-29	10:12:10	10:21:19	545968	615102c62504c240ac52cb00	381771587	1	main_z	11	advance_on_keypress_ZEE	104	stimuli_target_squaretriangles.svg	stimuli_distractor_trianglediamonds.svg	3	yes	57	0	580
6.6.1	win	2022-12-29	10:12:10	10:21:21	547489	615102c62504c240ac52cb00	381771587	1	main_z	11	main_z	105	stimuli_distractor_diamondtriangles.svg	stimuli_target_diamondcircles.svg	31	yes	44	1	281
6.6.1	win	2022-12-29	10:12:10	10:21:21	547489	615102c62504c240ac52cb00	381771587	1	main_z	11	advance_on_keypress_ZEE	106	stimuli_distractor_diamondtriangles.svg	stimuli_target_diamondcircles.svg	31	yes	57	0	698
6.6.1	win	2022-12-29	10:12:10	10:21:22	549229	615102c62504c240ac52cb00	381771587	1	main_z	11	main_z	107	stimuli_target_squaretriangles.svg	stimuli_distractor_diamondtriangles.svg	7	yes	44	1	373
6.6.1	win	2022-12-29	10:12:10	10:21:22	549229	615102c62504c240ac52cb00	381771587	1	main_z	11	advance_on_keypress_ZEE	108	stimuli_target_squaretriangles.svg	stimuli_distractor_diamondtriangles.svg	7	yes	57	0	523
6.6.1	win	2022-12-29	10:12:10	10:21:25	552397	615102c62504c240ac52cb00	381771587	1	main_z	11	main_z	109	stimuli_distractor_trianglediamonds.svg	stimuli_distractor_trianglediamonds.svg	34	no	0	1	2000
6.6.1	win	2022-12-29	10:12:10	10:21:25	552397	615102c62504c240ac52cb00	381771587	1	main_z	11	advance_on_keypress_ZEE	110	stimuli_distractor_trianglediamonds.svg	stimuli_distractor_trianglediamonds.svg	34	no	57	0	605
6.6.1	win	2022-12-29	10:12:10	10:21:27	554044	615102c62504c240ac52cb00	381771587	1	main_z	11	main_z	111	stimuli_distractor_diamondtriangles.svg	stimuli_target_diamondsquares.svg	32	yes	44	1	382
6.6.1	win	2022-12-29	10:12:10	10:21:27	554044	615102c62504c240ac52cb00	381771587	1	main_z	11	advance_on_keypress_ZEE	112	stimuli_distractor_diamondtriangles.svg	stimuli_target_diamondsquares.svg	32	yes	57	0	636
6.6.1	win	2022-12-29	10:12:10	10:21:29	555739	615102c62504c240ac52cb00	381771587	1	main_z	11	main_z	113	stimuli_target_trianglesquares.svg	stimuli_distractor_diamondtriangles.svg	22	yes	44	1	401
6.6.1	win	2022-12-29	10:12:10	10:21:29	555739	615102c62504c240ac52cb00	381771587	1	main_z	11	advance_on_keypress_ZEE	114	stimuli_target_trianglesquares.svg	stimuli_distractor_diamondtriangles.svg	22	yes	57	0	770
6.6.1	win	2022-12-29	10:12:10	10:21:31	557529	615102c62504c240ac52cb00	381771587	1	main_z	11	main_z	115	stimuli_distractor_trianglediamonds.svg	stimuli_distractor_trianglediamonds.svg	33	no	44	0	361
6.6.1	win	2022-12-29	10:12:10	10:21:31	557529	615102c62504c240ac52cb00	381771587	1	main_z	11	advance_on_keypress_ZEE	116	stimuli_distractor_trianglediamonds.svg	stimuli_distractor_trianglediamonds.svg	33	no	57	0	618
6.6.1	win	2022-12-29	10:12:10	10:21:32	559298	615102c62504c240ac52cb00	381771587	1	main_z	11	main_z	117	stimuli_target_squarediamonds.svg	stimuli_distractor_trianglediamonds.svg	4	yes	44	1	491
6.6.1	win	2022-12-29	10:12:10	10:21:32	559298	615102c62504c240ac52cb00	381771587	1	main_z	11	advance_on_keypress_ZEE	118	stimuli_target_squarediamonds.svg	stimuli_distractor_trianglediamonds.svg	4	yes	57	0	1016
6.6.1	win	2022-12-29	10:12:10	10:21:34	561239	615102c62504c240ac52cb00	381771587	1	main_z	11	main_z	119	stimuli_distractor_diamondtriangles.svg	stimuli_distractor_diamondtriangles.svg	39	no	44	0	272
6.6.1	win	2022-12-29	10:12:10	10:21:34	561239	615102c62504c240ac52cb00	381771587	1	main_z	11	advance_on_keypress_ZEE	120	stimuli_distractor_diamondtriangles.svg	stimuli_distractor_diamondtriangles.svg	39	no	57	0	598
6.6.1	win	2022-12-29	10:12:10	10:21:36	562780	615102c62504c240ac52cb00	381771587	1	main_z	11	main_z	121	stimuli_distractor_diamondtriangles.svg	stimuli_target_trianglesquares.svg	30	yes	44	1	282
6.6.1	win	2022-12-29	10:12:10	10:21:36	562780	615102c62504c240ac52cb00	381771587	1	main_z	11	advance_on_keypress_ZEE	122	stimuli_distractor_diamondtriangles.svg	stimuli_target_trianglesquares.svg	30	yes	57	0	1038
6.6.1	win	2022-12-29	10:12:10	10:21:38	564969	615102c62504c240ac52cb00	381771587	1	main_z	11	main_z	123	stimuli_distractor_trianglediamonds.svg	stimuli_distractor_diamondtriangles.svg	35	no	44	0	492
6.6.1	win	2022-12-29	10:12:10	10:21:38	564969	615102c62504c240ac52cb00	381771587	1	main_z	11	advance_on_keypress_ZEE	124	stimuli_distractor_trianglediamonds.svg	stimuli_distractor_diamondtriangles.svg	35	no	57	0	627
6.6.1	win	2022-12-29	10:12:10	10:21:40	566609	615102c62504c240ac52cb00	381771587	1	main_z	11	main_z	125	stimuli_distractor_diamondtriangles.svg	stimuli_target_squarediamonds.svg	16	yes	44	1	361
6.6.1	win	2022-12-29	10:12:10	10:21:40	566609	615102c62504c240ac52cb00	381771587	1	main_z	11	advance_on_keypress_ZEE	126	stimuli_distractor_diamondtriangles.svg	stimuli_target_squarediamonds.svg	16	yes	57	0	578
6.6.1	win	2022-12-29	10:12:10	10:21:41	568179	615102c62504c240ac52cb00	381771587	1	main_z	11	main_z	127	stimuli_target_trianglecircles.svg	stimuli_distractor_trianglediamonds.svg	17	yes	44	1	331
6.6.1	win	2022-12-29	10:12:10	10:21:41	568179	615102c62504c240ac52cb00	381771587	1	main_z	11	advance_on_keypress_ZEE	128	stimuli_target_trianglecircles.svg	stimuli_distractor_trianglediamonds.svg	17	yes	57	0	578
6.6.1	win	2022-12-29	10:12:10	10:21:43	569690	615102c62504c240ac52cb00	381771587	1	main_z	11	main_z	129	stimuli_distractor_diamondtriangles.svg	stimuli_distractor_trianglediamonds.svg	38	no	44	0	271
6.6.1	win	2022-12-29	10:12:10	10:21:43	569690	615102c62504c240ac52cb00	381771587	1	main_z	11	advance_on_keypress_ZEE	130	stimuli_distractor_diamondtriangles.svg	stimuli_distractor_trianglediamonds.svg	38	no	57	0	627
6.6.1	win	2022-12-29	10:12:10	10:21:44	571389	615102c62504c240ac52cb00	381771587	1	main_z	11	main_z	131	stimuli_distractor_diamondtriangles.svg	stimuli_target_circlediamonds.svg	14	yes	44	1	411
6.6.1	win	2022-12-29	10:12:10	10:21:44	571389	615102c62504c240ac52cb00	381771587	1	main_z	11	advance_on_keypress_ZEE	132	stimuli_distractor_diamondtriangles.svg	stimuli_target_circlediamonds.svg	14	yes	57	0	420
6.6.1	win	2022-12-29	10:12:10	10:21:46	572819	615102c62504c240ac52cb00	381771587	1	main_z	11	main_z	133	stimuli_target_diamondcircles.svg	stimuli_distractor_diamondtriangles.svg	23	yes	44	1	361
6.6.1	win	2022-12-29	10:12:10	10:21:46	572819	615102c62504c240ac52cb00	381771587	1	main_z	11	advance_on_keypress_ZEE	134	stimuli_target_diamondcircles.svg	stimuli_distractor_diamondtriangles.svg	23	yes	57	0	478
6.6.1	win	2022-12-29	10:12:10	10:21:47	574319	615102c62504c240ac52cb00	381771587	1	main_z	11	main_z	135	stimuli_target_circlediamonds.svg	stimuli_distractor_diamondtriangles.svg	6	yes	44	1	361
6.6.1	win	2022-12-29	10:12:10	10:21:47	574319	615102c62504c240ac52cb00	381771587	1	main_z	11	advance_on_keypress_ZEE	136	stimuli_target_circlediamonds.svg	stimuli_distractor_diamondtriangles.svg	6	yes	57	0	488
6.6.1	win	2022-12-29	10:12:10	10:21:49	575820	615102c62504c240ac52cb00	381771587	1	main_z	11	main_z	137	stimuli_distractor_diamondtriangles.svg	stimuli_target_circletriangles.svg	13	yes	44	1	351
6.6.1	win	2022-12-29	10:12:10	10:21:49	575820	615102c62504c240ac52cb00	381771587	1	main_z	11	advance_on_keypress_ZEE	138	stimuli_distractor_diamondtriangles.svg	stimuli_target_circletriangles.svg	13	yes	57	0	427
6.6.1	win	2022-12-29	10:12:10	10:21:50	577249	615102c62504c240ac52cb00	381771587	1	main_z	11	main_z	139	stimuli_target_trianglecircles.svg	stimuli_distractor_diamondtriangles.svg	21	yes	44	1	341
6.6.1	win	2022-12-29	10:12:10	10:21:50	577249	615102c62504c240ac52cb00	381771587	1	main_z	11	advance_on_keypress_ZEE	140	stimuli_target_trianglecircles.svg	stimuli_distractor_diamondtriangles.svg	21	yes	57	0	438
6.6.1	win	2022-12-29	10:12:10	10:21:52	578588	615102c62504c240ac52cb00	381771587	1	main_z	11	main_z	141	stimuli_distractor_trianglediamonds.svg	stimuli_target_diamondsquares.svg	28	yes	44	1	242
6.6.1	win	2022-12-29	10:12:10	10:21:52	578588	615102c62504c240ac52cb00	381771587	1	main_z	11	advance_on_keypress_ZEE	142	stimuli_distractor_trianglediamonds.svg	stimuli_target_diamondsquares.svg	28	yes	57	0	446
6.6.1	win	2022-12-29	10:12:10	10:21:53	579969	615102c62504c240ac52cb00	381771587	1	main_z	11	main_z	143	stimuli_target_circletriangles.svg	stimuli_distractor_diamondtriangles.svg	5	yes	44	1	281
6.6.1	win	2022-12-29	10:12:10	10:21:53	579969	615102c62504c240ac52cb00	381771587	1	main_z	11	advance_on_keypress_ZEE	144	stimuli_target_circletriangles.svg	stimuli_distractor_diamondtriangles.svg	5	yes	57	0	318
6.6.1	win	2022-12-29	10:12:10	10:21:54	581189	615102c62504c240ac52cb00	381771587	1	main_z	11	main_z	145	stimuli_distractor_trianglediamonds.svg	stimuli_target_circlediamonds.svg	10	yes	44	1	242
6.6.1	win	2022-12-29	10:12:10	10:21:54	581189	615102c62504c240ac52cb00	381771587	1	main_z	11	advance_on_keypress_ZEE	146	stimuli_distractor_trianglediamonds.svg	stimuli_target_circlediamonds.svg	10	yes	57	0	386
6.6.1	win	2022-12-29	10:12:10	10:21:56	582479	615102c62504c240ac52cb00	381771587	1	main_z	11	main_z	147	stimuli_target_diamondsquares.svg	stimuli_distractor_trianglediamonds.svg	20	yes	44	1	251
6.6.1	win	2022-12-29	10:12:10	10:21:56	582479	615102c62504c240ac52cb00	381771587	1	main_z	11	advance_on_keypress_ZEE	148	stimuli_target_diamondsquares.svg	stimuli_distractor_trianglediamonds.svg	20	yes	57	0	430
6.6.1	win	2022-12-29	10:12:10	10:21:57	583929	615102c62504c240ac52cb00	381771587	1	main_z	11	main_z	149	stimuli_target_circletriangles.svg	stimuli_distractor_trianglediamonds.svg	1	yes	44	1	361
6.6.1	win	2022-12-29	10:12:10	10:21:57	583929	615102c62504c240ac52cb00	381771587	1	main_z	11	advance_on_keypress_ZEE	150	stimuli_target_circletriangles.svg	stimuli_distractor_trianglediamonds.svg	1	yes	57	0	628
6.6.1	win	2022-12-29	10:12:10	10:21:59	585489	615102c62504c240ac52cb00	381771587	1	main_z	11	main_z	151	stimuli_target_circlediamonds.svg	stimuli_distractor_trianglediamonds.svg	2	yes	44	1	271
6.6.1	win	2022-12-29	10:12:10	10:21:59	585489	615102c62504c240ac52cb00	381771587	1	main_z	11	advance_on_keypress_ZEE	152	stimuli_target_circlediamonds.svg	stimuli_distractor_trianglediamonds.svg	2	yes	57	0	318
6.6.1	win	2022-12-29	10:12:10	10:22:00	586849	615102c62504c240ac52cb00	381771587	1	main_z	11	main_z	153	stimuli_distractor_diamondtriangles.svg	stimuli_distractor_diamondtriangles.svg	40	no	44	0	372
6.6.1	win	2022-12-29	10:12:10	10:22:00	586849	615102c62504c240ac52cb00	381771587	1	main_z	11	advance_on_keypress_ZEE	154	stimuli_distractor_diamondtriangles.svg	stimuli_distractor_diamondtriangles.svg	40	no	57	0	393
6.6.1	win	2022-12-29	10:12:10	10:22:01	588139	615102c62504c240ac52cb00	381771587	1	main_z	11	main_z	155	stimuli_distractor_diamondtriangles.svg	stimuli_target_squaretriangles.svg	15	yes	44	1	252
6.6.1	win	2022-12-29	10:12:10	10:22:01	588139	615102c62504c240ac52cb00	381771587	1	main_z	11	advance_on_keypress_ZEE	156	stimuli_distractor_diamondtriangles.svg	stimuli_target_squaretriangles.svg	15	yes	57	0	260
6.6.1	win	2022-12-29	10:12:10	10:22:02	589329	615102c62504c240ac52cb00	381771587	1	main_z	11	main_z	157	stimuli_distractor_trianglediamonds.svg	stimuli_target_diamondcircles.svg	27	yes	44	1	272
6.6.1	win	2022-12-29	10:12:10	10:22:02	589329	615102c62504c240ac52cb00	381771587	1	main_z	11	advance_on_keypress_ZEE	158	stimuli_distractor_trianglediamonds.svg	stimuli_target_diamondcircles.svg	27	yes	57	0	298
6.6.1	win	2022-12-29	10:12:10	10:22:04	590802	615102c62504c240ac52cb00	381771587	1	main_z	11	main_z	159	stimuli_distractor_trianglediamonds.svg	stimuli_target_trianglesquares.svg	26	yes	44	1	513
6.6.1	win	2022-12-29	10:12:10	10:22:04	590802	615102c62504c240ac52cb00	381771587	1	main_z	11	advance_on_keypress_ZEE	160	stimuli_distractor_trianglediamonds.svg	stimuli_target_trianglesquares.svg	26	yes	57	0	2429