build	computer.platform	date	time	timestamp	time_elapsed_ms	subject	group	session	blockcode	blocknum	trialcode	trialnum	stimulus_left	stimulus_right	stim_index	target_present	response	correct	latency
6.6.1	win	2023-01-02	13:49:49	13:54:40	289890	5e76ea9839c4412605dd2070	901713780	1	practice_z	5	practice_z	1	stimuli_distractor_diamondtriangles.svg	stimuli_distractor_diamondtriangles.svg	13	no	0	1	2000
6.6.1	win	2023-01-02	13:49:49	13:54:40	289890	5e76ea9839c4412605dd2070	901713780	1	practice_z	5	advance_on_keypress_ZEE	2	stimuli_distractor_diamondtriangles.svg	stimuli_distractor_diamondtriangles.svg	13	no	57	0	1493
6.6.1	win	2023-01-02	13:49:49	13:54:46	295021	5e76ea9839c4412605dd2070	901713780	1	practice_z	5	practice_z	3	stimuli_distractor_trianglediamonds.svg	stimuli_distractor_diamondtriangles.svg	16	no	0	1	2000
6.6.1	win	2023-01-02	13:49:49	13:54:46	295021	5e76ea9839c4412605dd2070	901713780	1	practice_z	5	advance_on_keypress_ZEE	4	stimuli_distractor_trianglediamonds.svg	stimuli_distractor_diamondtriangles.svg	16	no	57	0	497
6.6.1	win	2023-01-02	13:49:49	13:54:49	298048	5e76ea9839c4412605dd2070	901713780	1	practice_z	5	practice_z	5	stimuli_distractor_trianglediamonds.svg	stimuli_target_circlediamonds.svg	10	yes	44	1	880
6.6.1	win	2023-01-02	13:49:49	13:54:49	298048	5e76ea9839c4412605dd2070	901713780	1	practice_z	5	advance_on_keypress_ZEE	6	stimuli_distractor_trianglediamonds.svg	stimuli_target_circlediamonds.svg	10	yes	57	0	498
6.6.1	win	2023-01-02	13:49:49	13:54:51	300919	5e76ea9839c4412605dd2070	901713780	1	practice_z	5	practice_z	7	stimuli_target_circlediamonds.svg	stimuli_distractor_trianglediamonds.svg	4	yes	44	1	718
6.6.1	win	2023-01-02	13:49:49	13:54:51	300919	5e76ea9839c4412605dd2070	901713780	1	practice_z	5	advance_on_keypress_ZEE	8	stimuli_target_circlediamonds.svg	stimuli_distractor_trianglediamonds.svg	4	yes	57	0	547
6.6.1	win	2023-01-02	13:49:49	13:54:55	303971	5e76ea9839c4412605dd2070	901713780	1	practice_z	5	practice_z	9	stimuli_distractor_trianglediamonds.svg	stimuli_target_squarediamonds.svg	11	yes	44	1	856
6.6.1	win	2023-01-02	13:49:49	13:54:55	303971	5e76ea9839c4412605dd2070	901713780	1	practice_z	5	advance_on_keypress_ZEE	10	stimuli_distractor_trianglediamonds.svg	stimuli_target_squarediamonds.svg	11	yes	57	0	573
6.6.1	win	2023-01-02	13:49:49	13:54:58	307015	5e76ea9839c4412605dd2070	901713780	1	practice_z	5	practice_z	11	stimuli_target_squarediamonds.svg	stimuli_distractor_trianglediamonds.svg	5	yes	44	1	834
6.6.1	win	2023-01-02	13:49:49	13:54:58	307015	5e76ea9839c4412605dd2070	901713780	1	practice_z	5	advance_on_keypress_ZEE	12	stimuli_target_squarediamonds.svg	stimuli_distractor_trianglediamonds.svg	5	yes	57	0	553
6.6.1	win	2023-01-02	13:49:49	13:55:02	311212	5e76ea9839c4412605dd2070	901713780	1	practice_z	5	practice_z	13	stimuli_distractor_trianglediamonds.svg	stimuli_distractor_trianglediamonds.svg	15	no	0	1	2000
6.6.1	win	2023-01-02	13:49:49	13:55:02	311212	5e76ea9839c4412605dd2070	901713780	1	practice_z	5	advance_on_keypress_ZEE	14	stimuli_distractor_trianglediamonds.svg	stimuli_distractor_trianglediamonds.svg	15	no	57	0	1207
6.6.1	win	2023-01-02	13:49:49	13:55:05	314944	5e76ea9839c4412605dd2070	901713780	1	practice_z	5	practice_z	15	stimuli_target_circlediamonds.svg	stimuli_distractor_diamondtriangles.svg	1	yes	44	1	883
6.6.1	win	2023-01-02	13:49:49	13:55:05	314944	5e76ea9839c4412605dd2070	901713780	1	practice_z	5	advance_on_keypress_ZEE	16	stimuli_target_circlediamonds.svg	stimuli_distractor_diamondtriangles.svg	1	yes	57	0	1062
6.6.1	win	2023-01-02	13:49:49	13:55:09	318518	5e76ea9839c4412605dd2070	901713780	1	practice_z	5	practice_z	17	stimuli_target_squarediamonds.svg	stimuli_distractor_diamondtriangles.svg	2	yes	44	1	860
6.6.1	win	2023-01-02	13:49:49	13:55:09	318518	5e76ea9839c4412605dd2070	901713780	1	practice_z	5	advance_on_keypress_ZEE	18	stimuli_target_squarediamonds.svg	stimuli_distractor_diamondtriangles.svg	2	yes	57	0	604
6.6.1	win	2023-01-02	13:49:49	13:55:12	321563	5e76ea9839c4412605dd2070	901713780	1	practice_z	5	practice_z	19	stimuli_distractor_trianglediamonds.svg	stimuli_target_diamondcircles.svg	12	yes	44	1	806
6.6.1	win	2023-01-02	13:49:49	13:55:12	321563	5e76ea9839c4412605dd2070	901713780	1	practice_z	5	advance_on_keypress_ZEE	20	stimuli_distractor_trianglediamonds.svg	stimuli_target_diamondcircles.svg	12	yes	57	0	574
6.6.1	win	2023-01-02	13:49:49	13:55:15	324651	5e76ea9839c4412605dd2070	901713780	1	practice_z	5	practice_z	21	stimuli_target_diamondsquares.svg	stimuli_distractor_diamondtriangles.svg	3	yes	44	1	879
6.6.1	win	2023-01-02	13:49:49	13:55:15	324651	5e76ea9839c4412605dd2070	901713780	1	practice_z	5	advance_on_keypress_ZEE	22	stimuli_target_diamondsquares.svg	stimuli_distractor_diamondtriangles.svg	3	yes	57	0	332
6.6.1	win	2023-01-02	13:49:49	13:55:18	327620	5e76ea9839c4412605dd2070	901713780	1	practice_z	5	practice_z	23	stimuli_distractor_diamondtriangles.svg	stimuli_target_diamondcircles.svg	8	yes	44	1	983
6.6.1	win	2023-01-02	13:49:49	13:55:18	327620	5e76ea9839c4412605dd2070	901713780	1	practice_z	5	advance_on_keypress_ZEE	24	stimuli_distractor_diamondtriangles.svg	stimuli_target_diamondcircles.svg	8	yes	57	0	447
6.6.1	win	2023-01-02	13:49:49	13:55:22	331719	5e76ea9839c4412605dd2070	901713780	1	practice_z	5	practice_z	25	stimuli_distractor_diamondtriangles.svg	stimuli_distractor_trianglediamonds.svg	14	no	0	1	2000
6.6.1	win	2023-01-02	13:49:49	13:55:22	331719	5e76ea9839c4412605dd2070	901713780	1	practice_z	5	advance_on_keypress_ZEE	26	stimuli_distractor_diamondtriangles.svg	stimuli_distractor_trianglediamonds.svg	14	no	57	0	507
6.6.1	win	2023-01-02	13:49:49	13:55:25	334655	5e76ea9839c4412605dd2070	901713780	1	practice_z	5	practice_z	27	stimuli_distractor_diamondtriangles.svg	stimuli_target_circletriangles.svg	7	yes	44	1	788
6.6.1	win	2023-01-02	13:49:49	13:55:25	334655	5e76ea9839c4412605dd2070	901713780	1	practice_z	5	advance_on_keypress_ZEE	28	stimuli_distractor_diamondtriangles.svg	stimuli_target_circletriangles.svg	7	yes	57	0	431
6.6.1	win	2023-01-02	13:49:49	13:55:28	337724	5e76ea9839c4412605dd2070	901713780	1	practice_z	5	practice_z	29	stimuli_target_diamondsquares.svg	stimuli_distractor_trianglediamonds.svg	6	yes	44	1	993
6.6.1	win	2023-01-02	13:49:49	13:55:28	337724	5e76ea9839c4412605dd2070	901713780	1	practice_z	5	advance_on_keypress_ZEE	30	stimuli_target_diamondsquares.svg	stimuli_distractor_trianglediamonds.svg	6	yes	57	0	345
6.6.1	win	2023-01-02	13:49:49	13:55:31	340527	5e76ea9839c4412605dd2070	901713780	1	practice_z	5	practice_z	31	stimuli_distractor_diamondtriangles.svg	stimuli_target_trianglecircles.svg	9	yes	44	1	813
6.6.1	win	2023-01-02	13:49:49	13:55:31	340527	5e76ea9839c4412605dd2070	901713780	1	practice_z	5	advance_on_keypress_ZEE	32	stimuli_distractor_diamondtriangles.svg	stimuli_target_trianglecircles.svg	9	yes	57	0	484
6.6.1	win	2023-01-02	13:49:49	13:55:41	350943	5e76ea9839c4412605dd2070	901713780	1	main_z	7	main_z	1	stimuli_distractor_trianglediamonds.svg	stimuli_target_diamondcircles.svg	27	yes	44	1	853
6.6.1	win	2023-01-02	13:49:49	13:55:41	350943	5e76ea9839c4412605dd2070	901713780	1	main_z	7	advance_on_keypress_ZEE	2	stimuli_distractor_trianglediamonds.svg	stimuli_target_diamondcircles.svg	27	yes	57	0	1615
6.6.1	win	2023-01-02	13:49:49	13:55:46	355205	5e76ea9839c4412605dd2070	901713780	1	main_z	7	main_z	3	stimuli_distractor_trianglediamonds.svg	stimuli_distractor_diamondtriangles.svg	36	no	0	1	2000
6.6.1	win	2023-01-02	13:49:49	13:55:46	355205	5e76ea9839c4412605dd2070	901713780	1	main_z	7	advance_on_keypress_ZEE	4	stimuli_distractor_trianglediamonds.svg	stimuli_distractor_diamondtriangles.svg	36	no	57	0	499
6.6.1	win	2023-01-02	13:49:49	13:55:48	357141	5e76ea9839c4412605dd2070	901713780	1	main_z	7	main_z	5	stimuli_distractor_trianglediamonds.svg	stimuli_target_squaretriangles.svg	11	yes	44	1	788
6.6.1	win	2023-01-02	13:49:49	13:55:48	357141	5e76ea9839c4412605dd2070	901713780	1	main_z	7	advance_on_keypress_ZEE	6	stimuli_distractor_trianglediamonds.svg	stimuli_target_squaretriangles.svg	11	yes	57	0	796
6.6.1	win	2023-01-02	13:49:49	13:55:51	360569	5e76ea9839c4412605dd2070	901713780	1	main_z	7	main_z	7	stimuli_distractor_diamondtriangles.svg	stimuli_distractor_diamondtriangles.svg	39	no	0	1	2000
6.6.1	win	2023-01-02	13:49:49	13:55:51	360569	5e76ea9839c4412605dd2070	901713780	1	main_z	7	advance_on_keypress_ZEE	8	stimuli_distractor_diamondtriangles.svg	stimuli_distractor_diamondtriangles.svg	39	no	57	0	369
6.6.1	win	2023-01-02	13:49:49	13:55:53	362448	5e76ea9839c4412605dd2070	901713780	1	main_z	7	main_z	9	stimuli_target_squaretriangles.svg	stimuli_distractor_diamondtriangles.svg	7	yes	44	1	864
6.6.1	win	2023-01-02	13:49:49	13:55:53	362448	5e76ea9839c4412605dd2070	901713780	1	main_z	7	advance_on_keypress_ZEE	10	stimuli_target_squaretriangles.svg	stimuli_distractor_diamondtriangles.svg	7	yes	57	0	750
6.6.1	win	2023-01-02	13:49:49	13:55:56	365850	5e76ea9839c4412605dd2070	901713780	1	main_z	7	main_z	11	stimuli_distractor_diamondtriangles.svg	stimuli_distractor_diamondtriangles.svg	40	no	0	1	2000
6.6.1	win	2023-01-02	13:49:49	13:55:56	365850	5e76ea9839c4412605dd2070	901713780	1	main_z	7	advance_on_keypress_ZEE	12	stimuli_distractor_diamondtriangles.svg	stimuli_distractor_diamondtriangles.svg	40	no	57	0	469
6.6.1	win	2023-01-02	13:49:49	13:56:00	368965	5e76ea9839c4412605dd2070	901713780	1	main_z	7	main_z	13	stimuli_distractor_trianglediamonds.svg	stimuli_distractor_trianglediamonds.svg	33	no	0	1	2000
6.6.1	win	2023-01-02	13:49:49	13:56:00	368965	5e76ea9839c4412605dd2070	901713780	1	main_z	7	advance_on_keypress_ZEE	14	stimuli_distractor_trianglediamonds.svg	stimuli_distractor_trianglediamonds.svg	33	no	57	0	302
6.6.1	win	2023-01-02	13:49:49	13:56:01	370690	5e76ea9839c4412605dd2070	901713780	1	main_z	7	main_z	15	stimuli_target_diamondcircles.svg	stimuli_distractor_diamondtriangles.svg	23	yes	44	1	777
6.6.1	win	2023-01-02	13:49:49	13:56:01	370690	5e76ea9839c4412605dd2070	901713780	1	main_z	7	advance_on_keypress_ZEE	16	stimuli_target_diamondcircles.svg	stimuli_distractor_diamondtriangles.svg	23	yes	57	0	708
6.6.1	win	2023-01-02	13:49:49	13:56:04	372971	5e76ea9839c4412605dd2070	901713780	1	main_z	7	main_z	17	stimuli_target_circletriangles.svg	stimuli_distractor_diamondtriangles.svg	5	yes	44	1	942
6.6.1	win	2023-01-02	13:49:49	13:56:04	372971	5e76ea9839c4412605dd2070	901713780	1	main_z	7	advance_on_keypress_ZEE	18	stimuli_target_circletriangles.svg	stimuli_distractor_diamondtriangles.svg	5	yes	57	0	674
6.6.1	win	2023-01-02	13:49:49	13:56:06	375128	5e76ea9839c4412605dd2070	901713780	1	main_z	7	main_z	19	stimuli_target_trianglecircles.svg	stimuli_distractor_diamondtriangles.svg	21	yes	44	1	850
6.6.1	win	2023-01-02	13:49:49	13:56:06	375128	5e76ea9839c4412605dd2070	901713780	1	main_z	7	advance_on_keypress_ZEE	20	stimuli_target_trianglecircles.svg	stimuli_distractor_diamondtriangles.svg	21	yes	57	0	556
6.6.1	win	2023-01-02	13:49:49	13:56:08	377257	5e76ea9839c4412605dd2070	901713780	1	main_z	7	main_z	21	stimuli_distractor_diamondtriangles.svg	stimuli_target_circlediamonds.svg	14	yes	44	1	930
6.6.1	win	2023-01-02	13:49:49	13:56:08	377257	5e76ea9839c4412605dd2070	901713780	1	main_z	7	advance_on_keypress_ZEE	22	stimuli_distractor_diamondtriangles.svg	stimuli_target_circlediamonds.svg	14	yes	57	0	481
6.6.1	win	2023-01-02	13:49:49	13:56:10	379648	5e76ea9839c4412605dd2070	901713780	1	main_z	7	main_z	23	stimuli_distractor_diamondtriangles.svg	stimuli_distractor_trianglediamonds.svg	38	no	44	0	1255
6.6.1	win	2023-01-02	13:49:49	13:56:10	379648	5e76ea9839c4412605dd2070	901713780	1	main_z	7	advance_on_keypress_ZEE	24	stimuli_distractor_diamondtriangles.svg	stimuli_distractor_trianglediamonds.svg	38	no	57	0	514
6.6.1	win	2023-01-02	13:49:49	13:56:12	381695	5e76ea9839c4412605dd2070	901713780	1	main_z	7	main_z	25	stimuli_target_circlediamonds.svg	stimuli_distractor_diamondtriangles.svg	6	yes	44	1	887
6.6.1	win	2023-01-02	13:49:49	13:56:12	381695	5e76ea9839c4412605dd2070	901713780	1	main_z	7	advance_on_keypress_ZEE	26	stimuli_target_circlediamonds.svg	stimuli_distractor_diamondtriangles.svg	6	yes	57	0	543
6.6.1	win	2023-01-02	13:49:49	13:56:14	383767	5e76ea9839c4412605dd2070	901713780	1	main_z	7	main_z	27	stimuli_target_squarediamonds.svg	stimuli_distractor_diamondtriangles.svg	8	yes	44	1	893
6.6.1	win	2023-01-02	13:49:49	13:56:14	383767	5e76ea9839c4412605dd2070	901713780	1	main_z	7	advance_on_keypress_ZEE	28	stimuli_target_squarediamonds.svg	stimuli_distractor_diamondtriangles.svg	8	yes	57	0	467
6.6.1	win	2023-01-02	13:49:49	13:56:17	386873	5e76ea9839c4412605dd2070	901713780	1	main_z	7	main_z	29	stimuli_distractor_trianglediamonds.svg	stimuli_target_circlediamonds.svg	10	yes	0	0	2000
6.6.1	win	2023-01-02	13:49:49	13:56:17	386873	5e76ea9839c4412605dd2070	901713780	1	main_z	7	advance_on_keypress_ZEE	30	stimuli_distractor_trianglediamonds.svg	stimuli_target_circlediamonds.svg	10	yes	57	0	349
6.6.1	win	2023-01-02	13:49:49	13:56:19	388688	5e76ea9839c4412605dd2070	901713780	1	main_z	7	main_z	31	stimuli_distractor_diamondtriangles.svg	stimuli_target_trianglecircles.svg	29	yes	44	1	816
6.6.1	win	2023-01-02	13:49:49	13:56:19	388688	5e76ea9839c4412605dd2070	901713780	1	main_z	7	advance_on_keypress_ZEE	32	stimuli_distractor_diamondtriangles.svg	stimuli_target_trianglecircles.svg	29	yes	57	0	703
6.6.1	win	2023-01-02	13:49:49	13:56:23	392037	5e76ea9839c4412605dd2070	901713780	1	main_z	7	main_z	33	stimuli_target_squaretriangles.svg	stimuli_distractor_trianglediamonds.svg	3	yes	0	0	2000
6.6.1	win	2023-01-02	13:49:49	13:56:23	392037	5e76ea9839c4412605dd2070	901713780	1	main_z	7	advance_on_keypress_ZEE	34	stimuli_target_squaretriangles.svg	stimuli_distractor_trianglediamonds.svg	3	yes	57	0	332
6.6.1	win	2023-01-02	13:49:49	13:56:25	394097	5e76ea9839c4412605dd2070	901713780	1	main_z	7	main_z	35	stimuli_target_trianglesquares.svg	stimuli_distractor_trianglediamonds.svg	18	yes	44	1	1078
6.6.1	win	2023-01-02	13:49:49	13:56:25	394097	5e76ea9839c4412605dd2070	901713780	1	main_z	7	advance_on_keypress_ZEE	36	stimuli_target_trianglesquares.svg	stimuli_distractor_trianglediamonds.svg	18	yes	57	0	662
6.6.1	win	2023-01-02	13:49:49	13:56:27	396221	5e76ea9839c4412605dd2070	901713780	1	main_z	7	main_z	37	stimuli_target_diamondcircles.svg	stimuli_distractor_trianglediamonds.svg	19	yes	44	1	837
6.6.1	win	2023-01-02	13:49:49	13:56:27	396221	5e76ea9839c4412605dd2070	901713780	1	main_z	7	advance_on_keypress_ZEE	38	stimuli_target_diamondcircles.svg	stimuli_distractor_trianglediamonds.svg	19	yes	57	0	641
6.6.1	win	2023-01-02	13:49:49	13:56:30	399500	5e76ea9839c4412605dd2070	901713780	1	main_z	7	main_z	39	stimuli_distractor_diamondtriangles.svg	stimuli_distractor_trianglediamonds.svg	37	no	0	1	2000
6.6.1	win	2023-01-02	13:49:49	13:56:30	399500	5e76ea9839c4412605dd2070	901713780	1	main_z	7	advance_on_keypress_ZEE	40	stimuli_distractor_diamondtriangles.svg	stimuli_distractor_trianglediamonds.svg	37	no	57	0	394
6.6.1	win	2023-01-02	13:49:49	13:56:32	401402	5e76ea9839c4412605dd2070	901713780	1	main_z	7	main_z	41	stimuli_distractor_trianglediamonds.svg	stimuli_target_trianglecircles.svg	25	yes	44	1	870
6.6.1	win	2023-01-02	13:49:49	13:56:32	401402	5e76ea9839c4412605dd2070	901713780	1	main_z	7	advance_on_keypress_ZEE	42	stimuli_distractor_trianglediamonds.svg	stimuli_target_trianglecircles.svg	25	yes	57	0	612
6.6.1	win	2023-01-02	13:49:49	13:56:35	404061	5e76ea9839c4412605dd2070	901713780	1	main_z	7	main_z	43	stimuli_target_diamondsquares.svg	stimuli_distractor_trianglediamonds.svg	20	yes	44	1	1414
6.6.1	win	2023-01-02	13:49:49	13:56:35	404061	5e76ea9839c4412605dd2070	901713780	1	main_z	7	advance_on_keypress_ZEE	44	stimuli_target_diamondsquares.svg	stimuli_distractor_trianglediamonds.svg	20	yes	57	0	410
6.6.1	win	2023-01-02	13:49:49	13:56:37	406212	5e76ea9839c4412605dd2070	901713780	1	main_z	7	main_z	45	stimuli_target_squarediamonds.svg	stimuli_distractor_trianglediamonds.svg	4	yes	44	1	1099
6.6.1	win	2023-01-02	13:49:49	13:56:37	406212	5e76ea9839c4412605dd2070	901713780	1	main_z	7	advance_on_keypress_ZEE	46	stimuli_target_squarediamonds.svg	stimuli_distractor_trianglediamonds.svg	4	yes	57	0	469
6.6.1	win	2023-01-02	13:49:49	13:56:39	408259	5e76ea9839c4412605dd2070	901713780	1	main_z	7	main_z	47	stimuli_distractor_diamondtriangles.svg	stimuli_target_diamondcircles.svg	31	yes	44	1	931
6.6.1	win	2023-01-02	13:49:49	13:56:39	408259	5e76ea9839c4412605dd2070	901713780	1	main_z	7	advance_on_keypress_ZEE	48	stimuli_distractor_diamondtriangles.svg	stimuli_target_diamondcircles.svg	31	yes	57	0	901
6.6.1	win	2023-01-02	13:49:49	13:56:41	410668	5e76ea9839c4412605dd2070	901713780	1	main_z	7	main_z	49	stimuli_distractor_diamondtriangles.svg	stimuli_target_circletriangles.svg	13	yes	44	1	858
6.6.1	win	2023-01-02	13:49:49	13:56:41	410668	5e76ea9839c4412605dd2070	901713780	1	main_z	7	advance_on_keypress_ZEE	50	stimuli_distractor_diamondtriangles.svg	stimuli_target_circletriangles.svg	13	yes	57	0	429
6.6.1	win	2023-01-02	13:49:49	13:56:43	412732	5e76ea9839c4412605dd2070	901713780	1	main_z	7	main_z	51	stimuli_target_diamondsquares.svg	stimuli_distractor_diamondtriangles.svg	24	yes	44	1	1006
6.6.1	win	2023-01-02	13:49:49	13:56:43	412732	5e76ea9839c4412605dd2070	901713780	1	main_z	7	advance_on_keypress_ZEE	52	stimuli_target_diamondsquares.svg	stimuli_distractor_diamondtriangles.svg	24	yes	57	0	2005
6.6.1	win	2023-01-02	13:49:49	13:56:47	416295	5e76ea9839c4412605dd2070	901713780	1	main_z	7	main_z	53	stimuli_target_trianglesquares.svg	stimuli_distractor_diamondtriangles.svg	22	yes	44	1	921
6.6.1	win	2023-01-02	13:49:49	13:56:47	416295	5e76ea9839c4412605dd2070	901713780	1	main_z	7	advance_on_keypress_ZEE	54	stimuli_target_trianglesquares.svg	stimuli_distractor_diamondtriangles.svg	22	yes	57	0	573
6.6.1	win	2023-01-02	13:49:49	13:56:50	419507	5e76ea9839c4412605dd2070	901713780	1	main_z	7	main_z	55	stimuli_distractor_trianglediamonds.svg	stimuli_distractor_diamondtriangles.svg	35	no	0	1	2000
6.6.1	win	2023-01-02	13:49:49	13:56:50	419507	5e76ea9839c4412605dd2070	901713780	1	main_z	7	advance_on_keypress_ZEE	56	stimuli_distractor_trianglediamonds.svg	stimuli_distractor_diamondtriangles.svg	35	no	57	0	308
6.6.1	win	2023-01-02	13:49:49	13:56:53	422174	5e76ea9839c4412605dd2070	901713780	1	main_z	7	main_z	57	stimuli_distractor_diamondtriangles.svg	stimuli_target_squarediamonds.svg	16	yes	44	1	1719
6.6.1	win	2023-01-02	13:49:49	13:56:53	422174	5e76ea9839c4412605dd2070	901713780	1	main_z	7	advance_on_keypress_ZEE	58	stimuli_distractor_diamondtriangles.svg	stimuli_target_squarediamonds.svg	16	yes	57	0	832
6.6.1	win	2023-01-02	13:49:49	13:56:55	424650	5e76ea9839c4412605dd2070	901713780	1	main_z	7	main_z	59	stimuli_distractor_trianglediamonds.svg	stimuli_target_trianglesquares.svg	26	yes	44	1	995
6.6.1	win	2023-01-02	13:49:49	13:56:55	424650	5e76ea9839c4412605dd2070	901713780	1	main_z	7	advance_on_keypress_ZEE	60	stimuli_distractor_trianglediamonds.svg	stimuli_target_trianglesquares.svg	26	yes	57	0	666
6.6.1	win	2023-01-02	13:49:49	13:56:57	426897	5e76ea9839c4412605dd2070	901713780	1	main_z	7	main_z	61	stimuli_distractor_diamondtriangles.svg	stimuli_target_squaretriangles.svg	15	yes	44	1	945
6.6.1	win	2023-01-02	13:49:49	13:56:57	426897	5e76ea9839c4412605dd2070	901713780	1	main_z	7	advance_on_keypress_ZEE	62	stimuli_distractor_diamondtriangles.svg	stimuli_target_squaretriangles.svg	15	yes	57	0	754
6.6.1	win	2023-01-02	13:49:49	13:57:00	429384	5e76ea9839c4412605dd2070	901713780	1	main_z	7	main_z	63	stimuli_target_circlediamonds.svg	stimuli_distractor_trianglediamonds.svg	2	yes	44	1	1099
6.6.1	win	2023-01-02	13:49:49	13:57:00	429384	5e76ea9839c4412605dd2070	901713780	1	main_z	7	advance_on_keypress_ZEE	64	stimuli_target_circlediamonds.svg	stimuli_distractor_trianglediamonds.svg	2	yes	57	0	781
6.6.1	win	2023-01-02	13:49:49	13:57:03	432817	5e76ea9839c4412605dd2070	901713780	1	main_z	7	main_z	65	stimuli_distractor_trianglediamonds.svg	stimuli_target_diamondsquares.svg	28	yes	0	0	2000
6.6.1	win	2023-01-02	13:49:49	13:57:03	432817	5e76ea9839c4412605dd2070	901713780	1	main_z	7	advance_on_keypress_ZEE	66	stimuli_distractor_trianglediamonds.svg	stimuli_target_diamondsquares.svg	28	yes	57	0	419
6.6.1	win	2023-01-02	13:49:49	13:57:06	435882	5e76ea9839c4412605dd2070	901713780	1	main_z	7	main_z	67	stimuli_distractor_trianglediamonds.svg	stimuli_distractor_trianglediamonds.svg	34	no	0	1	2000
6.6.1	win	2023-01-02	13:49:49	13:57:06	435882	5e76ea9839c4412605dd2070	901713780	1	main_z	7	advance_on_keypress_ZEE	68	stimuli_distractor_trianglediamonds.svg	stimuli_distractor_trianglediamonds.svg	34	no	57	0	713
6.6.1	win	2023-01-02	13:49:49	13:57:09	438378	5e76ea9839c4412605dd2070	901713780	1	main_z	7	main_z	69	stimuli_target_circletriangles.svg	stimuli_distractor_trianglediamonds.svg	1	yes	44	1	1148
6.6.1	win	2023-01-02	13:49:49	13:57:09	438378	5e76ea9839c4412605dd2070	901713780	1	main_z	7	advance_on_keypress_ZEE	70	stimuli_target_circletriangles.svg	stimuli_distractor_trianglediamonds.svg	1	yes	57	0	765
6.6.1	win	2023-01-02	13:49:49	13:57:11	440870	5e76ea9839c4412605dd2070	901713780	1	main_z	7	main_z	71	stimuli_distractor_trianglediamonds.svg	stimuli_target_circletriangles.svg	9	yes	44	1	1074
6.6.1	win	2023-01-02	13:49:49	13:57:11	440870	5e76ea9839c4412605dd2070	901713780	1	main_z	7	advance_on_keypress_ZEE	72	stimuli_distractor_trianglediamonds.svg	stimuli_target_circletriangles.svg	9	yes	57	0	704
6.6.1	win	2023-01-02	13:49:49	13:57:14	443163	5e76ea9839c4412605dd2070	901713780	1	main_z	7	main_z	73	stimuli_target_trianglecircles.svg	stimuli_distractor_trianglediamonds.svg	17	yes	44	1	951
6.6.1	win	2023-01-02	13:49:49	13:57:14	443163	5e76ea9839c4412605dd2070	901713780	1	main_z	7	advance_on_keypress_ZEE	74	stimuli_target_trianglecircles.svg	stimuli_distractor_trianglediamonds.svg	17	yes	57	0	617
6.6.1	win	2023-01-02	13:49:49	13:57:16	445478	5e76ea9839c4412605dd2070	901713780	1	main_z	7	main_z	75	stimuli_distractor_diamondtriangles.svg	stimuli_target_diamondsquares.svg	32	yes	44	1	1051
6.6.1	win	2023-01-02	13:49:49	13:57:16	445478	5e76ea9839c4412605dd2070	901713780	1	main_z	7	advance_on_keypress_ZEE	76	stimuli_distractor_diamondtriangles.svg	stimuli_target_diamondsquares.svg	32	yes	57	0	1658
6.6.1	win	2023-01-02	13:49:49	13:57:19	448716	5e76ea9839c4412605dd2070	901713780	1	main_z	7	main_z	77	stimuli_distractor_diamondtriangles.svg	stimuli_target_trianglesquares.svg	30	yes	44	1	941
6.6.1	win	2023-01-02	13:49:49	13:57:19	448716	5e76ea9839c4412605dd2070	901713780	1	main_z	7	advance_on_keypress_ZEE	78	stimuli_distractor_diamondtriangles.svg	stimuli_target_trianglesquares.svg	30	yes	57	0	676
6.6.1	win	2023-01-02	13:49:49	13:57:21	450896	5e76ea9839c4412605dd2070	901713780	1	main_z	7	main_z	79	stimuli_distractor_trianglediamonds.svg	stimuli_target_squarediamonds.svg	12	yes	44	1	872
6.6.1	win	2023-01-02	13:49:49	13:57:21	450896	5e76ea9839c4412605dd2070	901713780	1	main_z	7	advance_on_keypress_ZEE	80	stimuli_distractor_trianglediamonds.svg	stimuli_target_squarediamonds.svg	12	yes	57	0	755
6.6.1	win	2023-01-02	13:49:49	13:57:24	453240	5e76ea9839c4412605dd2070	901713780	1	main_z	7	main_z	81	stimuli_target_squaretriangles.svg	stimuli_distractor_trianglediamonds.svg	3	yes	44	1	951
6.6.1	win	2023-01-02	13:49:49	13:57:24	453240	5e76ea9839c4412605dd2070	901713780	1	main_z	7	advance_on_keypress_ZEE	82	stimuli_target_squaretriangles.svg	stimuli_distractor_trianglediamonds.svg	3	yes	57	0	1315
6.6.1	win	2023-01-02	13:49:49	13:57:27	456016	5e76ea9839c4412605dd2070	901713780	1	main_z	7	main_z	83	stimuli_distractor_diamondtriangles.svg	stimuli_target_diamondcircles.svg	31	yes	44	1	811
6.6.1	win	2023-01-02	13:49:49	13:57:27	456016	5e76ea9839c4412605dd2070	901713780	1	main_z	7	advance_on_keypress_ZEE	84	stimuli_distractor_diamondtriangles.svg	stimuli_target_diamondcircles.svg	31	yes	57	0	778
6.6.1	win	2023-01-02	13:49:49	13:57:30	459420	5e76ea9839c4412605dd2070	901713780	1	main_z	7	main_z	85	stimuli_distractor_trianglediamonds.svg	stimuli_distractor_trianglediamonds.svg	33	no	0	1	2000
6.6.1	win	2023-01-02	13:49:49	13:57:30	459420	5e76ea9839c4412605dd2070	901713780	1	main_z	7	advance_on_keypress_ZEE	86	stimuli_distractor_trianglediamonds.svg	stimuli_distractor_trianglediamonds.svg	33	no	57	0	445
6.6.1	win	2023-01-02	13:49:49	13:57:33	462502	5e76ea9839c4412605dd2070	901713780	1	main_z	7	main_z	87	stimuli_distractor_trianglediamonds.svg	stimuli_distractor_diamondtriangles.svg	35	no	0	1	2000
6.6.1	win	2023-01-02	13:49:49	13:57:33	462502	5e76ea9839c4412605dd2070	901713780	1	main_z	7	advance_on_keypress_ZEE	88	stimuli_distractor_trianglediamonds.svg	stimuli_distractor_diamondtriangles.svg	35	no	57	0	390
6.6.1	win	2023-01-02	13:49:49	13:57:36	465534	5e76ea9839c4412605dd2070	901713780	1	main_z	7	main_z	89	stimuli_distractor_diamondtriangles.svg	stimuli_distractor_trianglediamonds.svg	38	no	0	1	2000
6.6.1	win	2023-01-02	13:49:49	13:57:36	465534	5e76ea9839c4412605dd2070	901713780	1	main_z	7	advance_on_keypress_ZEE	90	stimuli_distractor_diamondtriangles.svg	stimuli_distractor_trianglediamonds.svg	38	no	57	0	543
6.6.1	win	2023-01-02	13:49:49	13:57:38	467535	5e76ea9839c4412605dd2070	901713780	1	main_z	7	main_z	91	stimuli_distractor_trianglediamonds.svg	stimuli_target_circlediamonds.svg	10	yes	44	1	819
6.6.1	win	2023-01-02	13:49:49	13:57:38	467535	5e76ea9839c4412605dd2070	901713780	1	main_z	7	advance_on_keypress_ZEE	92	stimuli_distractor_trianglediamonds.svg	stimuli_target_circlediamonds.svg	10	yes	57	0	629
6.6.1	win	2023-01-02	13:49:49	13:57:40	469732	5e76ea9839c4412605dd2070	901713780	1	main_z	7	main_z	93	stimuli_target_diamondsquares.svg	stimuli_distractor_diamondtriangles.svg	24	yes	44	1	933
6.6.1	win	2023-01-02	13:49:49	13:57:40	469732	5e76ea9839c4412605dd2070	901713780	1	main_z	7	advance_on_keypress_ZEE	94	stimuli_target_diamondsquares.svg	stimuli_distractor_diamondtriangles.svg	24	yes	57	0	540
6.6.1	win	2023-01-02	13:49:49	13:57:43	472914	5e76ea9839c4412605dd2070	901713780	1	main_z	7	main_z	95	stimuli_distractor_trianglediamonds.svg	stimuli_distractor_trianglediamonds.svg	34	no	0	1	2000
6.6.1	win	2023-01-02	13:49:49	13:57:43	472914	5e76ea9839c4412605dd2070	901713780	1	main_z	7	advance_on_keypress_ZEE	96	stimuli_distractor_trianglediamonds.svg	stimuli_distractor_trianglediamonds.svg	34	no	57	0	457
6.6.1	win	2023-01-02	13:49:49	13:57:45	474878	5e76ea9839c4412605dd2070	901713780	1	main_z	7	main_z	97	stimuli_distractor_diamondtriangles.svg	stimuli_target_diamondsquares.svg	32	yes	44	1	866
6.6.1	win	2023-01-02	13:49:49	13:57:45	474878	5e76ea9839c4412605dd2070	901713780	1	main_z	7	advance_on_keypress_ZEE	98	stimuli_distractor_diamondtriangles.svg	stimuli_target_diamondsquares.svg	32	yes	57	0	688
6.6.1	win	2023-01-02	13:49:49	13:57:48	477139	5e76ea9839c4412605dd2070	901713780	1	main_z	7	main_z	99	stimuli_target_diamondcircles.svg	stimuli_distractor_trianglediamonds.svg	19	yes	44	1	928
6.6.1	win	2023-01-02	13:49:49	13:57:48	477139	5e76ea9839c4412605dd2070	901713780	1	main_z	7	advance_on_keypress_ZEE	100	stimuli_target_diamondcircles.svg	stimuli_distractor_trianglediamonds.svg	19	yes	57	0	504
6.6.1	win	2023-01-02	13:49:49	13:57:50	479309	5e76ea9839c4412605dd2070	901713780	1	main_z	7	main_z	101	stimuli_distractor_diamondtriangles.svg	stimuli_target_trianglecircles.svg	29	yes	44	1	1032
6.6.1	win	2023-01-02	13:49:49	13:57:50	479309	5e76ea9839c4412605dd2070	901713780	1	main_z	7	advance_on_keypress_ZEE	102	stimuli_distractor_diamondtriangles.svg	stimuli_target_trianglecircles.svg	29	yes	57	0	668
6.6.1	win	2023-01-02	13:49:49	13:57:52	481434	5e76ea9839c4412605dd2070	901713780	1	main_z	7	main_z	103	stimuli_distractor_trianglediamonds.svg	stimuli_target_trianglesquares.svg	26	yes	44	1	809
6.6.1	win	2023-01-02	13:49:49	13:57:52	481434	5e76ea9839c4412605dd2070	901713780	1	main_z	7	advance_on_keypress_ZEE	104	stimuli_distractor_trianglediamonds.svg	stimuli_target_trianglesquares.svg	26	yes	57	0	465
6.6.1	win	2023-01-02	13:49:49	13:57:55	484542	5e76ea9839c4412605dd2070	901713780	1	main_z	7	main_z	105	stimuli_distractor_diamondtriangles.svg	stimuli_distractor_diamondtriangles.svg	40	no	0	1	2000
6.6.1	win	2023-01-02	13:49:49	13:57:55	484542	5e76ea9839c4412605dd2070	901713780	1	main_z	7	advance_on_keypress_ZEE	106	stimuli_distractor_diamondtriangles.svg	stimuli_distractor_diamondtriangles.svg	40	no	57	0	330
6.6.1	win	2023-01-02	13:49:49	13:57:57	486293	5e76ea9839c4412605dd2070	901713780	1	main_z	7	main_z	107	stimuli_target_squaretriangles.svg	stimuli_distractor_diamondtriangles.svg	7	yes	44	1	769
6.6.1	win	2023-01-02	13:49:49	13:57:57	486293	5e76ea9839c4412605dd2070	901713780	1	main_z	7	advance_on_keypress_ZEE	108	stimuli_target_squaretriangles.svg	stimuli_distractor_diamondtriangles.svg	7	yes	57	0	610
6.6.1	win	2023-01-02	13:49:49	13:57:59	488311	5e76ea9839c4412605dd2070	901713780	1	main_z	7	main_z	109	stimuli_distractor_diamondtriangles.svg	stimuli_target_squaretriangles.svg	15	yes	44	1	772
6.6.1	win	2023-01-02	13:49:49	13:57:59	488311	5e76ea9839c4412605dd2070	901713780	1	main_z	7	advance_on_keypress_ZEE	110	stimuli_distractor_diamondtriangles.svg	stimuli_target_squaretriangles.svg	15	yes	57	0	580
6.6.1	win	2023-01-02	13:49:49	13:58:01	490356	5e76ea9839c4412605dd2070	901713780	1	main_z	7	main_z	111	stimuli_distractor_trianglediamonds.svg	stimuli_target_squarediamonds.svg	12	yes	44	1	823
6.6.1	win	2023-01-02	13:49:49	13:58:01	490356	5e76ea9839c4412605dd2070	901713780	1	main_z	7	advance_on_keypress_ZEE	112	stimuli_distractor_trianglediamonds.svg	stimuli_target_squarediamonds.svg	12	yes	57	0	621
6.6.1	win	2023-01-02	13:49:49	13:58:03	492537	5e76ea9839c4412605dd2070	901713780	1	main_z	7	main_z	113	stimuli_target_diamondsquares.svg	stimuli_distractor_trianglediamonds.svg	20	yes	44	1	917
6.6.1	win	2023-01-02	13:49:49	13:58:03	492537	5e76ea9839c4412605dd2070	901713780	1	main_z	7	advance_on_keypress_ZEE	114	stimuli_target_diamondsquares.svg	stimuli_distractor_trianglediamonds.svg	20	yes	57	0	557
6.6.1	win	2023-01-02	13:49:49	13:58:05	494483	5e76ea9839c4412605dd2070	901713780	1	main_z	7	main_z	115	stimuli_target_circletriangles.svg	stimuli_distractor_diamondtriangles.svg	5	yes	44	1	747
6.6.1	win	2023-01-02	13:49:49	13:58:05	494483	5e76ea9839c4412605dd2070	901713780	1	main_z	7	advance_on_keypress_ZEE	116	stimuli_target_circletriangles.svg	stimuli_distractor_diamondtriangles.svg	5	yes	57	0	597
6.6.1	win	2023-01-02	13:49:49	13:58:07	496479	5e76ea9839c4412605dd2070	901713780	1	main_z	7	main_z	117	stimuli_distractor_trianglediamonds.svg	stimuli_target_trianglecircles.svg	25	yes	44	1	744
6.6.1	win	2023-01-02	13:49:49	13:58:07	496479	5e76ea9839c4412605dd2070	901713780	1	main_z	7	advance_on_keypress_ZEE	118	stimuli_distractor_trianglediamonds.svg	stimuli_target_trianglecircles.svg	25	yes	57	0	585
6.6.1	win	2023-01-02	13:49:49	13:58:09	498385	5e76ea9839c4412605dd2070	901713780	1	main_z	7	main_z	119	stimuli_target_circlediamonds.svg	stimuli_distractor_diamondtriangles.svg	6	yes	44	1	685
6.6.1	win	2023-01-02	13:49:49	13:58:09	498385	5e76ea9839c4412605dd2070	901713780	1	main_z	7	advance_on_keypress_ZEE	120	stimuli_target_circlediamonds.svg	stimuli_distractor_diamondtriangles.svg	6	yes	57	0	462
6.6.1	win	2023-01-02	13:49:49	13:58:11	500133	5e76ea9839c4412605dd2070	901713780	1	main_z	7	main_z	121	stimuli_distractor_diamondtriangles.svg	stimuli_target_circlediamonds.svg	14	yes	44	1	649
6.6.1	win	2023-01-02	13:49:49	13:58:11	500133	5e76ea9839c4412605dd2070	901713780	1	main_z	7	advance_on_keypress_ZEE	122	stimuli_distractor_diamondtriangles.svg	stimuli_target_circlediamonds.svg	14	yes	57	0	490
6.6.1	win	2023-01-02	13:49:49	13:58:12	501900	5e76ea9839c4412605dd2070	901713780	1	main_z	7	main_z	123	stimuli_distractor_trianglediamonds.svg	stimuli_target_circletriangles.svg	9	yes	44	1	634
6.6.1	win	2023-01-02	13:49:49	13:58:12	501900	5e76ea9839c4412605dd2070	901713780	1	main_z	7	advance_on_keypress_ZEE	124	stimuli_distractor_trianglediamonds.svg	stimuli_target_circletriangles.svg	9	yes	57	0	523
6.6.1	win	2023-01-02	13:49:49	13:58:14	503808	5e76ea9839c4412605dd2070	901713780	1	main_z	7	main_z	125	stimuli_target_squarediamonds.svg	stimuli_distractor_diamondtriangles.svg	8	yes	44	1	744
6.6.1	win	2023-01-02	13:49:49	13:58:14	503808	5e76ea9839c4412605dd2070	901713780	1	main_z	7	advance_on_keypress_ZEE	126	stimuli_target_squarediamonds.svg	stimuli_distractor_diamondtriangles.svg	8	yes	57	0	435
6.6.1	win	2023-01-02	13:49:49	13:58:16	505572	5e76ea9839c4412605dd2070	901713780	1	main_z	7	main_z	127	stimuli_target_trianglecircles.svg	stimuli_distractor_diamondtriangles.svg	21	yes	44	1	692
6.6.1	win	2023-01-02	13:49:49	13:58:16	505572	5e76ea9839c4412605dd2070	901713780	1	main_z	7	advance_on_keypress_ZEE	128	stimuli_target_trianglecircles.svg	stimuli_distractor_diamondtriangles.svg	21	yes	57	0	439
6.6.1	win	2023-01-02	13:49:49	13:58:18	507350	5e76ea9839c4412605dd2070	901713780	1	main_z	7	main_z	129	stimuli_target_circletriangles.svg	stimuli_distractor_trianglediamonds.svg	1	yes	44	1	704
6.6.1	win	2023-01-02	13:49:49	13:58:18	507350	5e76ea9839c4412605dd2070	901713780	1	main_z	7	advance_on_keypress_ZEE	130	stimuli_target_circletriangles.svg	stimuli_distractor_trianglediamonds.svg	1	yes	57	0	691
6.6.1	win	2023-01-02	13:49:49	13:58:20	509333	5e76ea9839c4412605dd2070	901713780	1	main_z	7	main_z	131	stimuli_distractor_diamondtriangles.svg	stimuli_target_circletriangles.svg	13	yes	44	1	655
6.6.1	win	2023-01-02	13:49:49	13:58:20	509333	5e76ea9839c4412605dd2070	901713780	1	main_z	7	advance_on_keypress_ZEE	132	stimuli_distractor_diamondtriangles.svg	stimuli_target_circletriangles.svg	13	yes	57	0	499
6.6.1	win	2023-01-02	13:49:49	13:58:23	512478	5e76ea9839c4412605dd2070	901713780	1	main_z	7	main_z	133	stimuli_distractor_diamondtriangles.svg	stimuli_distractor_diamondtriangles.svg	39	no	0	1	2000
6.6.1	win	2023-01-02	13:49:49	13:58:23	512478	5e76ea9839c4412605dd2070	901713780	1	main_z	7	advance_on_keypress_ZEE	134	stimuli_distractor_diamondtriangles.svg	stimuli_distractor_diamondtriangles.svg	39	no	57	0	318
6.6.1	win	2023-01-02	13:49:49	13:58:26	515443	5e76ea9839c4412605dd2070	901713780	1	main_z	7	main_z	135	stimuli_distractor_trianglediamonds.svg	stimuli_distractor_diamondtriangles.svg	36	no	0	1	2000
6.6.1	win	2023-01-02	13:49:49	13:58:26	515443	5e76ea9839c4412605dd2070	901713780	1	main_z	7	advance_on_keypress_ZEE	136	stimuli_distractor_trianglediamonds.svg	stimuli_distractor_diamondtriangles.svg	36	no	57	0	350
6.6.1	win	2023-01-02	13:49:49	13:58:28	517457	5e76ea9839c4412605dd2070	901713780	1	main_z	7	main_z	137	stimuli_target_trianglecircles.svg	stimuli_distractor_trianglediamonds.svg	17	yes	44	1	1016
6.6.1	win	2023-01-02	13:49:49	13:58:28	517457	5e76ea9839c4412605dd2070	901713780	1	main_z	7	advance_on_keypress_ZEE	138	stimuli_target_trianglecircles.svg	stimuli_distractor_trianglediamonds.svg	17	yes	57	0	547
6.6.1	win	2023-01-02	13:49:49	13:58:30	519409	5e76ea9839c4412605dd2070	901713780	1	main_z	7	main_z	139	stimuli_distractor_trianglediamonds.svg	stimuli_target_diamondcircles.svg	27	yes	44	1	752
6.6.1	win	2023-01-02	13:49:49	13:58:30	519409	5e76ea9839c4412605dd2070	901713780	1	main_z	7	advance_on_keypress_ZEE	140	stimuli_distractor_trianglediamonds.svg	stimuli_target_diamondcircles.svg	27	yes	57	0	496
6.6.1	win	2023-01-02	13:49:49	13:58:32	521290	5e76ea9839c4412605dd2070	901713780	1	main_z	7	main_z	141	stimuli_target_diamondcircles.svg	stimuli_distractor_diamondtriangles.svg	23	yes	44	1	733
6.6.1	win	2023-01-02	13:49:49	13:58:32	521290	5e76ea9839c4412605dd2070	901713780	1	main_z	7	advance_on_keypress_ZEE	142	stimuli_target_diamondcircles.svg	stimuli_distractor_diamondtriangles.svg	23	yes	57	0	791
6.6.1	win	2023-01-02	13:49:49	13:58:35	524722	5e76ea9839c4412605dd2070	901713780	1	main_z	7	main_z	143	stimuli_distractor_diamondtriangles.svg	stimuli_target_squarediamonds.svg	16	yes	0	0	2000
6.6.1	win	2023-01-02	13:49:49	13:58:35	524722	5e76ea9839c4412605dd2070	901713780	1	main_z	7	advance_on_keypress_ZEE	144	stimuli_distractor_diamondtriangles.svg	stimuli_target_squarediamonds.svg	16	yes	57	0	831
6.6.1	win	2023-01-02	13:49:49	13:58:38	526998	5e76ea9839c4412605dd2070	901713780	1	main_z	7	main_z	145	stimuli_distractor_trianglediamonds.svg	stimuli_target_squaretriangles.svg	11	yes	44	1	794
6.6.1	win	2023-01-02	13:49:49	13:58:38	526998	5e76ea9839c4412605dd2070	901713780	1	main_z	7	advance_on_keypress_ZEE	146	stimuli_distractor_trianglediamonds.svg	stimuli_target_squaretriangles.svg	11	yes	57	0	540
6.6.1	win	2023-01-02	13:49:49	13:58:40	529531	5e76ea9839c4412605dd2070	901713780	1	main_z	7	main_z	147	stimuli_distractor_trianglediamonds.svg	stimuli_target_diamondsquares.svg	28	yes	44	1	1362
6.6.1	win	2023-01-02	13:49:49	13:58:40	529531	5e76ea9839c4412605dd2070	901713780	1	main_z	7	advance_on_keypress_ZEE	148	stimuli_distractor_trianglediamonds.svg	stimuli_target_diamondsquares.svg	28	yes	57	0	512
6.6.1	win	2023-01-02	13:49:49	13:58:42	531533	5e76ea9839c4412605dd2070	901713780	1	main_z	7	main_z	149	stimuli_target_trianglesquares.svg	stimuli_distractor_diamondtriangles.svg	22	yes	44	1	832
6.6.1	win	2023-01-02	13:49:49	13:58:42	531533	5e76ea9839c4412605dd2070	901713780	1	main_z	7	advance_on_keypress_ZEE	150	stimuli_target_trianglesquares.svg	stimuli_distractor_diamondtriangles.svg	22	yes	57	0	594
6.6.1	win	2023-01-02	13:49:49	13:58:45	534787	5e76ea9839c4412605dd2070	901713780	1	main_z	7	main_z	151	stimuli_distractor_diamondtriangles.svg	stimuli_distractor_trianglediamonds.svg	37	no	0	1	2000
6.6.1	win	2023-01-02	13:49:49	13:58:45	534787	5e76ea9839c4412605dd2070	901713780	1	main_z	7	advance_on_keypress_ZEE	152	stimuli_distractor_diamondtriangles.svg	stimuli_distractor_trianglediamonds.svg	37	no	57	0	302
6.6.1	win	2023-01-02	13:49:49	13:58:47	536518	5e76ea9839c4412605dd2070	901713780	1	main_z	7	main_z	153	stimuli_target_circlediamonds.svg	stimuli_distractor_trianglediamonds.svg	2	yes	44	1	769
6.6.1	win	2023-01-02	13:49:49	13:58:47	536518	5e76ea9839c4412605dd2070	901713780	1	main_z	7	advance_on_keypress_ZEE	154	stimuli_target_circlediamonds.svg	stimuli_distractor_trianglediamonds.svg	2	yes	57	0	450
6.6.1	win	2023-01-02	13:49:49	13:58:49	538440	5e76ea9839c4412605dd2070	901713780	1	main_z	7	main_z	155	stimuli_target_trianglesquares.svg	stimuli_distractor_trianglediamonds.svg	18	yes	44	1	825
6.6.1	win	2023-01-02	13:49:49	13:58:49	538440	5e76ea9839c4412605dd2070	901713780	1	main_z	7	advance_on_keypress_ZEE	156	stimuli_target_trianglesquares.svg	stimuli_distractor_trianglediamonds.svg	18	yes	57	0	445
6.6.1	win	2023-01-02	13:49:49	13:58:52	541513	5e76ea9839c4412605dd2070	901713780	1	main_z	7	main_z	157	stimuli_target_squarediamonds.svg	stimuli_distractor_trianglediamonds.svg	4	yes	0	0	2000
6.6.1	win	2023-01-02	13:49:49	13:58:52	541513	5e76ea9839c4412605dd2070	901713780	1	main_z	7	advance_on_keypress_ZEE	158	stimuli_target_squarediamonds.svg	stimuli_distractor_trianglediamonds.svg	4	yes	57	0	299
6.6.1	win	2023-01-02	13:49:49	13:58:54	543253	5e76ea9839c4412605dd2070	901713780	1	main_z	7	main_z	159	stimuli_distractor_diamondtriangles.svg	stimuli_target_trianglesquares.svg	30	yes	44	1	791
6.6.1	win	2023-01-02	13:49:49	13:58:54	543253	5e76ea9839c4412605dd2070	901713780	1	main_z	7	advance_on_keypress_ZEE	160	stimuli_distractor_diamondtriangles.svg	stimuli_target_trianglesquares.svg	30	yes	57	0	398
6.6.1	win	2023-01-02	13:49:49	13:59:35	584078	5e76ea9839c4412605dd2070	901713780	1	practice_slash	9	practice_slash	1	stimuli_distractor_diamondtriangles.svg	stimuli_distractor_trianglediamonds.svg	14	no	0	1	2000
6.6.1	win	2023-01-02	13:49:49	13:59:35	584078	5e76ea9839c4412605dd2070	901713780	1	practice_slash	9	advance_on_keypress_SLASH	2	stimuli_distractor_diamondtriangles.svg	stimuli_distractor_trianglediamonds.svg	14	no	57	0	431
6.6.1	win	2023-01-02	13:49:49	13:59:37	586955	5e76ea9839c4412605dd2070	901713780	1	practice_slash	9	practice_slash	3	stimuli_target_circlediamonds.svg	stimuli_distractor_trianglediamonds.svg	4	yes	53	1	796
6.6.1	win	2023-01-02	13:49:49	13:59:37	586955	5e76ea9839c4412605dd2070	901713780	1	practice_slash	9	advance_on_keypress_SLASH	4	stimuli_target_circlediamonds.svg	stimuli_distractor_trianglediamonds.svg	4	yes	57	0	341
6.6.1	win	2023-01-02	13:49:49	13:59:40	589758	5e76ea9839c4412605dd2070	901713780	1	practice_slash	9	practice_slash	5	stimuli_distractor_diamondtriangles.svg	stimuli_target_trianglecircles.svg	9	yes	53	1	818
6.6.1	win	2023-01-02	13:49:49	13:59:40	589758	5e76ea9839c4412605dd2070	901713780	1	practice_slash	9	advance_on_keypress_SLASH	6	stimuli_distractor_diamondtriangles.svg	stimuli_target_trianglecircles.svg	9	yes	57	0	600
6.6.1	win	2023-01-02	13:49:49	13:59:43	592823	5e76ea9839c4412605dd2070	901713780	1	practice_slash	9	practice_slash	7	stimuli_target_squarediamonds.svg	stimuli_distractor_diamondtriangles.svg	2	yes	53	1	817
6.6.1	win	2023-01-02	13:49:49	13:59:43	592823	5e76ea9839c4412605dd2070	901713780	1	practice_slash	9	advance_on_keypress_SLASH	8	stimuli_target_squarediamonds.svg	stimuli_distractor_diamondtriangles.svg	2	yes	57	0	396
6.6.1	win	2023-01-02	13:49:49	13:59:47	596872	5e76ea9839c4412605dd2070	901713780	1	practice_slash	9	practice_slash	9	stimuli_distractor_trianglediamonds.svg	stimuli_distractor_trianglediamonds.svg	15	no	0	1	2000
6.6.1	win	2023-01-02	13:49:49	13:59:47	596872	5e76ea9839c4412605dd2070	901713780	1	practice_slash	9	advance_on_keypress_SLASH	10	stimuli_distractor_trianglediamonds.svg	stimuli_distractor_trianglediamonds.svg	15	no	57	0	391
6.6.1	win	2023-01-02	13:49:49	13:59:50	599699	5e76ea9839c4412605dd2070	901713780	1	practice_slash	9	practice_slash	11	stimuli_target_circlediamonds.svg	stimuli_distractor_diamondtriangles.svg	1	yes	53	1	797
6.6.1	win	2023-01-02	13:49:49	13:59:50	599699	5e76ea9839c4412605dd2070	901713780	1	practice_slash	9	advance_on_keypress_SLASH	12	stimuli_target_circlediamonds.svg	stimuli_distractor_diamondtriangles.svg	1	yes	57	0	426
6.6.1	win	2023-01-02	13:49:49	13:59:54	603768	5e76ea9839c4412605dd2070	901713780	1	practice_slash	9	practice_slash	13	stimuli_distractor_trianglediamonds.svg	stimuli_distractor_diamondtriangles.svg	16	no	0	1	2000
6.6.1	win	2023-01-02	13:49:49	13:59:54	603768	5e76ea9839c4412605dd2070	901713780	1	practice_slash	9	advance_on_keypress_SLASH	14	stimuli_distractor_trianglediamonds.svg	stimuli_distractor_diamondtriangles.svg	16	no	57	0	338
6.6.1	win	2023-01-02	13:49:49	13:59:58	607511	5e76ea9839c4412605dd2070	901713780	1	practice_slash	9	practice_slash	15	stimuli_distractor_trianglediamonds.svg	stimuli_target_squarediamonds.svg	11	yes	53	1	1761
6.6.1	win	2023-01-02	13:49:49	13:59:58	607511	5e76ea9839c4412605dd2070	901713780	1	practice_slash	9	advance_on_keypress_SLASH	16	stimuli_distractor_trianglediamonds.svg	stimuli_target_squarediamonds.svg	11	yes	57	0	424
6.6.1	win	2023-01-02	13:49:49	14:00:01	610374	5e76ea9839c4412605dd2070	901713780	1	practice_slash	9	practice_slash	17	stimuli_distractor_diamondtriangles.svg	stimuli_target_diamondcircles.svg	8	yes	53	1	794
6.6.1	win	2023-01-02	13:49:49	14:00:01	610374	5e76ea9839c4412605dd2070	901713780	1	practice_slash	9	advance_on_keypress_SLASH	18	stimuli_distractor_diamondtriangles.svg	stimuli_target_diamondcircles.svg	8	yes	57	0	487
6.6.1	win	2023-01-02	13:49:49	14:00:05	614513	5e76ea9839c4412605dd2070	901713780	1	practice_slash	9	practice_slash	19	stimuli_distractor_diamondtriangles.svg	stimuli_distractor_diamondtriangles.svg	13	no	0	1	2000
6.6.1	win	2023-01-02	13:49:49	14:00:05	614513	5e76ea9839c4412605dd2070	901713780	1	practice_slash	9	advance_on_keypress_SLASH	20	stimuli_distractor_diamondtriangles.svg	stimuli_distractor_diamondtriangles.svg	13	no	57	0	412
6.6.1	win	2023-01-02	13:49:49	14:00:08	617398	5e76ea9839c4412605dd2070	901713780	1	practice_slash	9	practice_slash	21	stimuli_distractor_trianglediamonds.svg	stimuli_target_circlediamonds.svg	10	yes	53	1	837
6.6.1	win	2023-01-02	13:49:49	14:00:08	617398	5e76ea9839c4412605dd2070	901713780	1	practice_slash	9	advance_on_keypress_SLASH	22	stimuli_distractor_trianglediamonds.svg	stimuli_target_circlediamonds.svg	10	yes	57	0	656
6.6.1	win	2023-01-02	13:49:49	14:00:12	621693	5e76ea9839c4412605dd2070	901713780	1	practice_slash	9	practice_slash	23	stimuli_target_diamondsquares.svg	stimuli_distractor_trianglediamonds.svg	6	yes	0	0	2000
6.6.1	win	2023-01-02	13:49:49	14:00:12	621693	5e76ea9839c4412605dd2070	901713780	1	practice_slash	9	advance_on_keypress_SLASH	24	stimuli_target_diamondsquares.svg	stimuli_distractor_trianglediamonds.svg	6	yes	57	0	468
6.6.1	win	2023-01-02	13:49:49	14:00:15	624657	5e76ea9839c4412605dd2070	901713780	1	practice_slash	9	practice_slash	25	stimuli_target_squarediamonds.svg	stimuli_distractor_trianglediamonds.svg	5	yes	53	1	850
6.6.1	win	2023-01-02	13:49:49	14:00:15	624657	5e76ea9839c4412605dd2070	901713780	1	practice_slash	9	advance_on_keypress_SLASH	26	stimuli_target_squarediamonds.svg	stimuli_distractor_trianglediamonds.svg	5	yes	57	0	440
6.6.1	win	2023-01-02	13:49:49	14:00:18	627563	5e76ea9839c4412605dd2070	901713780	1	practice_slash	9	practice_slash	27	stimuli_distractor_trianglediamonds.svg	stimuli_target_diamondcircles.svg	12	yes	53	1	825
6.6.1	win	2023-01-02	13:49:49	14:00:18	627563	5e76ea9839c4412605dd2070	901713780	1	practice_slash	9	advance_on_keypress_SLASH	28	stimuli_distractor_trianglediamonds.svg	stimuli_target_diamondcircles.svg	12	yes	57	0	416
6.6.1	win	2023-01-02	13:49:49	14:00:21	630241	5e76ea9839c4412605dd2070	901713780	1	practice_slash	9	practice_slash	29	stimuli_distractor_diamondtriangles.svg	stimuli_target_circletriangles.svg	7	yes	53	1	621
6.6.1	win	2023-01-02	13:49:49	14:00:21	630241	5e76ea9839c4412605dd2070	901713780	1	practice_slash	9	advance_on_keypress_SLASH	30	stimuli_distractor_diamondtriangles.svg	stimuli_target_circletriangles.svg	7	yes	57	0	563
6.6.1	win	2023-01-02	13:49:49	14:00:24	633333	5e76ea9839c4412605dd2070	901713780	1	practice_slash	9	practice_slash	31	stimuli_target_diamondsquares.svg	stimuli_distractor_diamondtriangles.svg	3	yes	53	1	881
6.6.1	win	2023-01-02	13:49:49	14:00:24	633333	5e76ea9839c4412605dd2070	901713780	1	practice_slash	9	advance_on_keypress_SLASH	32	stimuli_target_diamondsquares.svg	stimuli_distractor_diamondtriangles.svg	3	yes	57	0	354
6.6.1	win	2023-01-02	13:49:49	14:00:37	646012	5e76ea9839c4412605dd2070	901713780	1	main_slash	11	main_slash	1	stimuli_distractor_trianglediamonds.svg	stimuli_distractor_trianglediamonds.svg	33	no	0	1	2000
6.6.1	win	2023-01-02	13:49:49	14:00:37	646012	5e76ea9839c4412605dd2070	901713780	1	main_slash	11	advance_on_keypress_SLASH	2	stimuli_distractor_trianglediamonds.svg	stimuli_distractor_trianglediamonds.svg	33	no	57	0	343
6.6.1	win	2023-01-02	13:49:49	14:00:38	647775	5e76ea9839c4412605dd2070	901713780	1	main_slash	11	main_slash	3	stimuli_target_trianglecircles.svg	stimuli_distractor_diamondtriangles.svg	21	yes	53	1	781
6.6.1	win	2023-01-02	13:49:49	14:00:38	647775	5e76ea9839c4412605dd2070	901713780	1	main_slash	11	advance_on_keypress_SLASH	4	stimuli_target_trianglecircles.svg	stimuli_distractor_diamondtriangles.svg	21	yes	57	0	529
6.6.1	win	2023-01-02	13:49:49	14:00:41	650943	5e76ea9839c4412605dd2070	901713780	1	main_slash	11	main_slash	5	stimuli_distractor_diamondtriangles.svg	stimuli_distractor_diamondtriangles.svg	39	no	0	1	2000
6.6.1	win	2023-01-02	13:49:49	14:00:41	650943	5e76ea9839c4412605dd2070	901713780	1	main_slash	11	advance_on_keypress_SLASH	6	stimuli_distractor_diamondtriangles.svg	stimuli_distractor_diamondtriangles.svg	39	no	57	0	290
6.6.1	win	2023-01-02	13:49:49	14:00:43	652652	5e76ea9839c4412605dd2070	901713780	1	main_slash	11	main_slash	7	stimuli_distractor_diamondtriangles.svg	stimuli_target_squaretriangles.svg	15	yes	53	1	778
6.6.1	win	2023-01-02	13:49:49	14:00:43	652652	5e76ea9839c4412605dd2070	901713780	1	main_slash	11	advance_on_keypress_SLASH	8	stimuli_distractor_diamondtriangles.svg	stimuli_target_squaretriangles.svg	15	yes	57	0	504
6.6.1	win	2023-01-02	13:49:49	14:00:45	654520	5e76ea9839c4412605dd2070	901713780	1	main_slash	11	main_slash	9	stimuli_target_squaretriangles.svg	stimuli_distractor_diamondtriangles.svg	7	yes	53	1	730
6.6.1	win	2023-01-02	13:49:49	14:00:45	654520	5e76ea9839c4412605dd2070	901713780	1	main_slash	11	advance_on_keypress_SLASH	10	stimuli_target_squaretriangles.svg	stimuli_distractor_diamondtriangles.svg	7	yes	57	0	448
6.6.1	win	2023-01-02	13:49:49	14:00:47	656382	5e76ea9839c4412605dd2070	901713780	1	main_slash	11	main_slash	11	stimuli_distractor_diamondtriangles.svg	stimuli_target_diamondcircles.svg	31	yes	53	1	776
6.6.1	win	2023-01-02	13:49:49	14:00:47	656382	5e76ea9839c4412605dd2070	901713780	1	main_slash	11	advance_on_keypress_SLASH	12	stimuli_distractor_diamondtriangles.svg	stimuli_target_diamondcircles.svg	31	yes	57	0	510
6.6.1	win	2023-01-02	13:49:49	14:00:49	658289	5e76ea9839c4412605dd2070	901713780	1	main_slash	11	main_slash	13	stimuli_distractor_diamondtriangles.svg	stimuli_target_trianglecircles.svg	29	yes	53	1	767
6.6.1	win	2023-01-02	13:49:49	14:00:49	658289	5e76ea9839c4412605dd2070	901713780	1	main_slash	11	advance_on_keypress_SLASH	14	stimuli_distractor_diamondtriangles.svg	stimuli_target_trianglecircles.svg	29	yes	57	0	390
6.6.1	win	2023-01-02	13:49:49	14:00:52	661321	5e76ea9839c4412605dd2070	901713780	1	main_slash	11	main_slash	15	stimuli_distractor_trianglediamonds.svg	stimuli_distractor_trianglediamonds.svg	34	no	0	1	2000
6.6.1	win	2023-01-02	13:49:49	14:00:52	661321	5e76ea9839c4412605dd2070	901713780	1	main_slash	11	advance_on_keypress_SLASH	16	stimuli_distractor_trianglediamonds.svg	stimuli_distractor_trianglediamonds.svg	34	no	57	0	342
6.6.1	win	2023-01-02	13:49:49	14:00:54	663147	5e76ea9839c4412605dd2070	901713780	1	main_slash	11	main_slash	17	stimuli_target_circletriangles.svg	stimuli_distractor_diamondtriangles.svg	5	yes	53	1	844
6.6.1	win	2023-01-02	13:49:49	14:00:54	663147	5e76ea9839c4412605dd2070	901713780	1	main_slash	11	advance_on_keypress_SLASH	18	stimuli_target_circletriangles.svg	stimuli_distractor_diamondtriangles.svg	5	yes	57	0	432
6.6.1	win	2023-01-02	13:49:49	14:00:56	664993	5e76ea9839c4412605dd2070	901713780	1	main_slash	11	main_slash	19	stimuli_distractor_diamondtriangles.svg	stimuli_target_squarediamonds.svg	16	yes	53	1	775
6.6.1	win	2023-01-02	13:49:49	14:00:56	664993	5e76ea9839c4412605dd2070	901713780	1	main_slash	11	advance_on_keypress_SLASH	20	stimuli_distractor_diamondtriangles.svg	stimuli_target_squarediamonds.svg	16	yes	57	0	359
6.6.1	win	2023-01-02	13:49:49	14:00:57	666785	5e76ea9839c4412605dd2070	901713780	1	main_slash	11	main_slash	21	stimuli_distractor_trianglediamonds.svg	stimuli_target_trianglecircles.svg	25	yes	53	1	801
6.6.1	win	2023-01-02	13:49:49	14:00:57	666785	5e76ea9839c4412605dd2070	901713780	1	main_slash	11	advance_on_keypress_SLASH	22	stimuli_distractor_trianglediamonds.svg	stimuli_target_trianglecircles.svg	25	yes	57	0	429
6.6.1	win	2023-01-02	13:49:49	14:00:59	668617	5e76ea9839c4412605dd2070	901713780	1	main_slash	11	main_slash	23	stimuli_distractor_trianglediamonds.svg	stimuli_target_diamondcircles.svg	27	yes	53	1	767
6.6.1	win	2023-01-02	13:49:49	14:00:59	668617	5e76ea9839c4412605dd2070	901713780	1	main_slash	11	advance_on_keypress_SLASH	24	stimuli_distractor_trianglediamonds.svg	stimuli_target_diamondcircles.svg	27	yes	57	0	482
6.6.1	win	2023-01-02	13:49:49	14:01:01	670549	5e76ea9839c4412605dd2070	901713780	1	main_slash	11	main_slash	25	stimuli_distractor_trianglediamonds.svg	stimuli_target_trianglesquares.svg	26	yes	53	1	800
6.6.1	win	2023-01-02	13:49:49	14:01:01	670549	5e76ea9839c4412605dd2070	901713780	1	main_slash	11	advance_on_keypress_SLASH	26	stimuli_distractor_trianglediamonds.svg	stimuli_target_trianglesquares.svg	26	yes	57	0	387
6.6.1	win	2023-01-02	13:49:49	14:01:03	672465	5e76ea9839c4412605dd2070	901713780	1	main_slash	11	main_slash	27	stimuli_target_squaretriangles.svg	stimuli_distractor_trianglediamonds.svg	3	yes	53	1	884
6.6.1	win	2023-01-02	13:49:49	14:01:03	672465	5e76ea9839c4412605dd2070	901713780	1	main_slash	11	advance_on_keypress_SLASH	28	stimuli_target_squaretriangles.svg	stimuli_distractor_trianglediamonds.svg	3	yes	57	0	348
6.6.1	win	2023-01-02	13:49:49	14:01:05	674060	5e76ea9839c4412605dd2070	901713780	1	main_slash	11	main_slash	29	stimuli_target_diamondcircles.svg	stimuli_distractor_diamondtriangles.svg	23	yes	53	1	595
6.6.1	win	2023-01-02	13:49:49	14:01:05	674060	5e76ea9839c4412605dd2070	901713780	1	main_slash	11	advance_on_keypress_SLASH	30	stimuli_target_diamondcircles.svg	stimuli_distractor_diamondtriangles.svg	23	yes	57	0	611
6.6.1	win	2023-01-02	13:49:49	14:01:07	676031	5e76ea9839c4412605dd2070	901713780	1	main_slash	11	main_slash	31	stimuli_distractor_trianglediamonds.svg	stimuli_target_squarediamonds.svg	12	yes	53	1	734
6.6.1	win	2023-01-02	13:49:49	14:01:07	676031	5e76ea9839c4412605dd2070	901713780	1	main_slash	11	advance_on_keypress_SLASH	32	stimuli_distractor_trianglediamonds.svg	stimuli_target_squarediamonds.svg	12	yes	57	0	403
6.6.1	win	2023-01-02	13:49:49	14:01:10	679079	5e76ea9839c4412605dd2070	901713780	1	main_slash	11	main_slash	33	stimuli_distractor_diamondtriangles.svg	stimuli_distractor_diamondtriangles.svg	40	no	0	1	2000
6.6.1	win	2023-01-02	13:49:49	14:01:10	679079	5e76ea9839c4412605dd2070	901713780	1	main_slash	11	advance_on_keypress_SLASH	34	stimuli_distractor_diamondtriangles.svg	stimuli_distractor_diamondtriangles.svg	40	no	57	0	303
6.6.1	win	2023-01-02	13:49:49	14:01:11	680752	5e76ea9839c4412605dd2070	901713780	1	main_slash	11	main_slash	35	stimuli_target_trianglecircles.svg	stimuli_distractor_trianglediamonds.svg	17	yes	53	1	725
6.6.1	win	2023-01-02	13:49:49	14:01:11	680752	5e76ea9839c4412605dd2070	901713780	1	main_slash	11	advance_on_keypress_SLASH	36	stimuli_target_trianglecircles.svg	stimuli_distractor_trianglediamonds.svg	17	yes	57	0	349
6.6.1	win	2023-01-02	13:49:49	14:01:13	682814	5e76ea9839c4412605dd2070	901713780	1	main_slash	11	main_slash	37	stimuli_distractor_trianglediamonds.svg	stimuli_target_diamondsquares.svg	28	yes	53	1	1071
6.6.1	win	2023-01-02	13:49:49	14:01:13	682814	5e76ea9839c4412605dd2070	901713780	1	main_slash	11	advance_on_keypress_SLASH	38	stimuli_distractor_trianglediamonds.svg	stimuli_target_diamondsquares.svg	28	yes	57	0	441
6.6.1	win	2023-01-02	13:49:49	14:01:15	684672	5e76ea9839c4412605dd2070	901713780	1	main_slash	11	main_slash	39	stimuli_distractor_diamondtriangles.svg	stimuli_target_diamondsquares.svg	32	yes	53	1	780
6.6.1	win	2023-01-02	13:49:49	14:01:15	684672	5e76ea9839c4412605dd2070	901713780	1	main_slash	11	advance_on_keypress_SLASH	40	stimuli_distractor_diamondtriangles.svg	stimuli_target_diamondsquares.svg	32	yes	57	0	334
6.6.1	win	2023-01-02	13:49:49	14:01:17	686616	5e76ea9839c4412605dd2070	901713780	1	main_slash	11	main_slash	41	stimuli_target_squarediamonds.svg	stimuli_distractor_trianglediamonds.svg	4	yes	53	1	957
6.6.1	win	2023-01-02	13:49:49	14:01:17	686616	5e76ea9839c4412605dd2070	901713780	1	main_slash	11	advance_on_keypress_SLASH	42	stimuli_target_squarediamonds.svg	stimuli_distractor_trianglediamonds.svg	4	yes	57	0	362
6.6.1	win	2023-01-02	13:49:49	14:01:19	688950	5e76ea9839c4412605dd2070	901713780	1	main_slash	11	main_slash	43	stimuli_distractor_trianglediamonds.svg	stimuli_target_circletriangles.svg	9	yes	53	1	1343
6.6.1	win	2023-01-02	13:49:49	14:01:19	688950	5e76ea9839c4412605dd2070	901713780	1	main_slash	11	advance_on_keypress_SLASH	44	stimuli_distractor_trianglediamonds.svg	stimuli_target_circletriangles.svg	9	yes	57	0	459
6.6.1	win	2023-01-02	13:49:49	14:01:21	690771	5e76ea9839c4412605dd2070	901713780	1	main_slash	11	main_slash	45	stimuli_target_trianglesquares.svg	stimuli_distractor_trianglediamonds.svg	18	yes	53	1	732
6.6.1	win	2023-01-02	13:49:49	14:01:21	690771	5e76ea9839c4412605dd2070	901713780	1	main_slash	11	advance_on_keypress_SLASH	46	stimuli_target_trianglesquares.svg	stimuli_distractor_trianglediamonds.svg	18	yes	57	0	306
6.6.1	win	2023-01-02	13:49:49	14:01:24	693722	5e76ea9839c4412605dd2070	901713780	1	main_slash	11	main_slash	47	stimuli_distractor_trianglediamonds.svg	stimuli_distractor_diamondtriangles.svg	36	no	0	1	2000
6.6.1	win	2023-01-02	13:49:49	14:01:24	693722	5e76ea9839c4412605dd2070	901713780	1	main_slash	11	advance_on_keypress_SLASH	48	stimuli_distractor_trianglediamonds.svg	stimuli_distractor_diamondtriangles.svg	36	no	57	0	370
6.6.1	win	2023-01-02	13:49:49	14:01:26	695606	5e76ea9839c4412605dd2070	901713780	1	main_slash	11	main_slash	49	stimuli_distractor_diamondtriangles.svg	stimuli_target_circlediamonds.svg	14	yes	53	1	868
6.6.1	win	2023-01-02	13:49:49	14:01:26	695606	5e76ea9839c4412605dd2070	901713780	1	main_slash	11	advance_on_keypress_SLASH	50	stimuli_distractor_diamondtriangles.svg	stimuli_target_circlediamonds.svg	14	yes	57	0	318
6.6.1	win	2023-01-02	13:49:49	14:01:28	697819	5e76ea9839c4412605dd2070	901713780	1	main_slash	11	main_slash	51	stimuli_distractor_diamondtriangles.svg	stimuli_target_circletriangles.svg	13	yes	53	1	1250
6.6.1	win	2023-01-02	13:49:49	14:01:28	697819	5e76ea9839c4412605dd2070	901713780	1	main_slash	11	advance_on_keypress_SLASH	52	stimuli_distractor_diamondtriangles.svg	stimuli_target_circletriangles.svg	13	yes	57	0	394
6.6.1	win	2023-01-02	13:49:49	14:01:31	700024	5e76ea9839c4412605dd2070	901713780	1	main_slash	11	main_slash	53	stimuli_distractor_diamondtriangles.svg	stimuli_distractor_trianglediamonds.svg	38	no	53	0	1173
6.6.1	win	2023-01-02	13:49:49	14:01:31	700024	5e76ea9839c4412605dd2070	901713780	1	main_slash	11	advance_on_keypress_SLASH	54	stimuli_distractor_diamondtriangles.svg	stimuli_distractor_trianglediamonds.svg	38	no	57	0	345
6.6.1	win	2023-01-02	13:49:49	14:01:32	701809	5e76ea9839c4412605dd2070	901713780	1	main_slash	11	main_slash	55	stimuli_distractor_diamondtriangles.svg	stimuli_target_trianglesquares.svg	30	yes	53	1	809
6.6.1	win	2023-01-02	13:49:49	14:01:32	701809	5e76ea9839c4412605dd2070	901713780	1	main_slash	11	advance_on_keypress_SLASH	56	stimuli_distractor_diamondtriangles.svg	stimuli_target_trianglesquares.svg	30	yes	57	0	311
6.6.1	win	2023-01-02	13:49:49	14:01:35	704750	5e76ea9839c4412605dd2070	901713780	1	main_slash	11	main_slash	57	stimuli_distractor_diamondtriangles.svg	stimuli_distractor_trianglediamonds.svg	37	no	0	1	2000
6.6.1	win	2023-01-02	13:49:49	14:01:35	704750	5e76ea9839c4412605dd2070	901713780	1	main_slash	11	advance_on_keypress_SLASH	58	stimuli_distractor_diamondtriangles.svg	stimuli_distractor_trianglediamonds.svg	37	no	57	0	424
6.6.1	win	2023-01-02	13:49:49	14:01:37	706586	5e76ea9839c4412605dd2070	901713780	1	main_slash	11	main_slash	59	stimuli_distractor_trianglediamonds.svg	stimuli_target_circlediamonds.svg	10	yes	53	1	772
6.6.1	win	2023-01-02	13:49:49	14:01:37	706586	5e76ea9839c4412605dd2070	901713780	1	main_slash	11	advance_on_keypress_SLASH	60	stimuli_distractor_trianglediamonds.svg	stimuli_target_circlediamonds.svg	10	yes	57	0	316
6.6.1	win	2023-01-02	13:49:49	14:01:39	708438	5e76ea9839c4412605dd2070	901713780	1	main_slash	11	main_slash	61	stimuli_target_diamondsquares.svg	stimuli_distractor_trianglediamonds.svg	20	yes	53	1	890
6.6.1	win	2023-01-02	13:49:49	14:01:39	708438	5e76ea9839c4412605dd2070	901713780	1	main_slash	11	advance_on_keypress_SLASH	62	stimuli_target_diamondsquares.svg	stimuli_distractor_trianglediamonds.svg	20	yes	57	0	339
6.6.1	win	2023-01-02	13:49:49	14:01:41	710292	5e76ea9839c4412605dd2070	901713780	1	main_slash	11	main_slash	63	stimuli_distractor_trianglediamonds.svg	stimuli_target_squaretriangles.svg	11	yes	53	1	879
6.6.1	win	2023-01-02	13:49:49	14:01:41	710292	5e76ea9839c4412605dd2070	901713780	1	main_slash	11	advance_on_keypress_SLASH	64	stimuli_distractor_trianglediamonds.svg	stimuli_target_squaretriangles.svg	11	yes	57	0	350
6.6.1	win	2023-01-02	13:49:49	14:01:43	712135	5e76ea9839c4412605dd2070	901713780	1	main_slash	11	main_slash	65	stimuli_target_diamondsquares.svg	stimuli_distractor_diamondtriangles.svg	24	yes	53	1	853
6.6.1	win	2023-01-02	13:49:49	14:01:43	712135	5e76ea9839c4412605dd2070	901713780	1	main_slash	11	advance_on_keypress_SLASH	66	stimuli_target_diamondsquares.svg	stimuli_distractor_diamondtriangles.svg	24	yes	57	0	294
6.6.1	win	2023-01-02	13:49:49	14:01:44	713906	5e76ea9839c4412605dd2070	901713780	1	main_slash	11	main_slash	67	stimuli_target_trianglesquares.svg	stimuli_distractor_diamondtriangles.svg	22	yes	53	1	845
6.6.1	win	2023-01-02	13:49:49	14:01:44	713906	5e76ea9839c4412605dd2070	901713780	1	main_slash	11	advance_on_keypress_SLASH	68	stimuli_target_trianglesquares.svg	stimuli_distractor_diamondtriangles.svg	22	yes	57	0	330
6.6.1	win	2023-01-02	13:49:49	14:01:47	716860	5e76ea9839c4412605dd2070	901713780	1	main_slash	11	main_slash	69	stimuli_distractor_trianglediamonds.svg	stimuli_distractor_diamondtriangles.svg	35	no	0	1	2000
6.6.1	win	2023-01-02	13:49:49	14:01:47	716860	5e76ea9839c4412605dd2070	901713780	1	main_slash	11	advance_on_keypress_SLASH	70	stimuli_distractor_trianglediamonds.svg	stimuli_distractor_diamondtriangles.svg	35	no	57	0	314
6.6.1	win	2023-01-02	13:49:49	14:01:49	718647	5e76ea9839c4412605dd2070	901713780	1	main_slash	11	main_slash	71	stimuli_target_circlediamonds.svg	stimuli_distractor_trianglediamonds.svg	2	yes	53	1	822
6.6.1	win	2023-01-02	13:49:49	14:01:49	718647	5e76ea9839c4412605dd2070	901713780	1	main_slash	11	advance_on_keypress_SLASH	72	stimuli_target_circlediamonds.svg	stimuli_distractor_trianglediamonds.svg	2	yes	57	0	298
6.6.1	win	2023-01-02	13:49:49	14:01:51	720326	5e76ea9839c4412605dd2070	901713780	1	main_slash	11	main_slash	73	stimuli_target_squarediamonds.svg	stimuli_distractor_diamondtriangles.svg	8	yes	53	1	735
6.6.1	win	2023-01-02	13:49:49	14:01:51	720326	5e76ea9839c4412605dd2070	901713780	1	main_slash	11	advance_on_keypress_SLASH	74	stimuli_target_squarediamonds.svg	stimuli_distractor_diamondtriangles.svg	8	yes	57	0	303
6.6.1	win	2023-01-02	13:49:49	14:01:53	722077	5e76ea9839c4412605dd2070	901713780	1	main_slash	11	main_slash	75	stimuli_target_diamondcircles.svg	stimuli_distractor_trianglediamonds.svg	19	yes	53	1	802
6.6.1	win	2023-01-02	13:49:49	14:01:53	722077	5e76ea9839c4412605dd2070	901713780	1	main_slash	11	advance_on_keypress_SLASH	76	stimuli_target_diamondcircles.svg	stimuli_distractor_trianglediamonds.svg	19	yes	57	0	343
6.6.1	win	2023-01-02	13:49:49	14:01:54	723842	5e76ea9839c4412605dd2070	901713780	1	main_slash	11	main_slash	77	stimuli_target_circletriangles.svg	stimuli_distractor_trianglediamonds.svg	1	yes	53	1	785
6.6.1	win	2023-01-02	13:49:49	14:01:54	723842	5e76ea9839c4412605dd2070	901713780	1	main_slash	11	advance_on_keypress_SLASH	78	stimuli_target_circletriangles.svg	stimuli_distractor_trianglediamonds.svg	1	yes	57	0	251
6.6.1	win	2023-01-02	13:49:49	14:01:56	725489	5e76ea9839c4412605dd2070	901713780	1	main_slash	11	main_slash	79	stimuli_target_circlediamonds.svg	stimuli_distractor_diamondtriangles.svg	6	yes	53	1	751
6.6.1	win	2023-01-02	13:49:49	14:01:56	725489	5e76ea9839c4412605dd2070	901713780	1	main_slash	11	advance_on_keypress_SLASH	80	stimuli_target_circlediamonds.svg	stimuli_distractor_diamondtriangles.svg	6	yes	57	0	293
6.6.1	win	2023-01-02	13:49:49	14:01:58	727198	5e76ea9839c4412605dd2070	901713780	1	main_slash	11	main_slash	81	stimuli_distractor_diamondtriangles.svg	stimuli_target_squaretriangles.svg	15	yes	53	1	777
6.6.1	win	2023-01-02	13:49:49	14:01:58	727198	5e76ea9839c4412605dd2070	901713780	1	main_slash	11	advance_on_keypress_SLASH	82	stimuli_distractor_diamondtriangles.svg	stimuli_target_squaretriangles.svg	15	yes	57	0	294
6.6.1	win	2023-01-02	13:49:49	14:02:00	729050	5e76ea9839c4412605dd2070	901713780	1	main_slash	11	main_slash	83	stimuli_distractor_trianglediamonds.svg	stimuli_target_circletriangles.svg	9	yes	53	1	929
6.6.1	win	2023-01-02	13:49:49	14:02:00	729050	5e76ea9839c4412605dd2070	901713780	1	main_slash	11	advance_on_keypress_SLASH	84	stimuli_distractor_trianglediamonds.svg	stimuli_target_circletriangles.svg	9	yes	57	0	322
6.6.1	win	2023-01-02	13:49:49	14:02:01	730856	5e76ea9839c4412605dd2070	901713780	1	main_slash	11	main_slash	85	stimuli_target_trianglecircles.svg	stimuli_distractor_diamondtriangles.svg	21	yes	53	1	837
6.6.1	win	2023-01-02	13:49:49	14:02:01	730856	5e76ea9839c4412605dd2070	901713780	1	main_slash	11	advance_on_keypress_SLASH	86	stimuli_target_trianglecircles.svg	stimuli_distractor_diamondtriangles.svg	21	yes	57	0	313
6.6.1	win	2023-01-02	13:49:49	14:02:03	732632	5e76ea9839c4412605dd2070	901713780	1	main_slash	11	main_slash	87	stimuli_distractor_diamondtriangles.svg	stimuli_target_circlediamonds.svg	14	yes	53	1	813
6.6.1	win	2023-01-02	13:49:49	14:02:03	732632	5e76ea9839c4412605dd2070	901713780	1	main_slash	11	advance_on_keypress_SLASH	88	stimuli_distractor_diamondtriangles.svg	stimuli_target_circlediamonds.svg	14	yes	57	0	262
6.6.1	win	2023-01-02	13:49:49	14:02:05	734379	5e76ea9839c4412605dd2070	901713780	1	main_slash	11	main_slash	89	stimuli_target_squaretriangles.svg	stimuli_distractor_diamondtriangles.svg	7	yes	53	1	845
6.6.1	win	2023-01-02	13:49:49	14:02:05	734379	5e76ea9839c4412605dd2070	901713780	1	main_slash	11	advance_on_keypress_SLASH	90	stimuli_target_squaretriangles.svg	stimuli_distractor_diamondtriangles.svg	7	yes	57	0	494
6.6.1	win	2023-01-02	13:49:49	14:02:08	736985	5e76ea9839c4412605dd2070	901713780	1	main_slash	11	main_slash	91	stimuli_distractor_trianglediamonds.svg	stimuli_target_circlediamonds.svg	10	yes	53	1	1485
6.6.1	win	2023-01-02	13:49:49	14:02:08	736985	5e76ea9839c4412605dd2070	901713780	1	main_slash	11	advance_on_keypress_SLASH	92	stimuli_distractor_trianglediamonds.svg	stimuli_target_circlediamonds.svg	10	yes	57	0	331
6.6.1	win	2023-01-02	13:49:49	14:02:11	739966	5e76ea9839c4412605dd2070	901713780	1	main_slash	11	main_slash	93	stimuli_distractor_trianglediamonds.svg	stimuli_distractor_diamondtriangles.svg	35	no	0	1	2000
6.6.1	win	2023-01-02	13:49:49	14:02:11	739966	5e76ea9839c4412605dd2070	901713780	1	main_slash	11	advance_on_keypress_SLASH	94	stimuli_distractor_trianglediamonds.svg	stimuli_distractor_diamondtriangles.svg	35	no	57	0	297
6.6.1	win	2023-01-02	13:49:49	14:02:12	741731	5e76ea9839c4412605dd2070	901713780	1	main_slash	11	main_slash	95	stimuli_distractor_diamondtriangles.svg	stimuli_target_trianglesquares.svg	30	yes	53	1	817
6.6.1	win	2023-01-02	13:49:49	14:02:12	741731	5e76ea9839c4412605dd2070	901713780	1	main_slash	11	advance_on_keypress_SLASH	96	stimuli_distractor_diamondtriangles.svg	stimuli_target_trianglesquares.svg	30	yes	57	0	227
6.6.1	win	2023-01-02	13:49:49	14:02:14	743450	5e76ea9839c4412605dd2070	901713780	1	main_slash	11	main_slash	97	stimuli_distractor_trianglediamonds.svg	stimuli_target_trianglecircles.svg	25	yes	53	1	854
6.6.1	win	2023-01-02	13:49:49	14:02:14	743450	5e76ea9839c4412605dd2070	901713780	1	main_slash	11	advance_on_keypress_SLASH	98	stimuli_distractor_trianglediamonds.svg	stimuli_target_trianglecircles.svg	25	yes	57	0	259
6.6.1	win	2023-01-02	13:49:49	14:02:16	745631	5e76ea9839c4412605dd2070	901713780	1	main_slash	11	main_slash	99	stimuli_distractor_diamondtriangles.svg	stimuli_target_diamondsquares.svg	32	yes	53	1	1286
6.6.1	win	2023-01-02	13:49:49	14:02:16	745631	5e76ea9839c4412605dd2070	901713780	1	main_slash	11	advance_on_keypress_SLASH	100	stimuli_distractor_diamondtriangles.svg	stimuli_target_diamondsquares.svg	32	yes	57	0	290
6.6.1	win	2023-01-02	13:49:49	14:02:18	747459	5e76ea9839c4412605dd2070	901713780	1	main_slash	11	main_slash	101	stimuli_target_squaretriangles.svg	stimuli_distractor_trianglediamonds.svg	3	yes	53	1	897
6.6.1	win	2023-01-02	13:49:49	14:02:18	747459	5e76ea9839c4412605dd2070	901713780	1	main_slash	11	advance_on_keypress_SLASH	102	stimuli_target_squaretriangles.svg	stimuli_distractor_trianglediamonds.svg	3	yes	57	0	295
6.6.1	win	2023-01-02	13:49:49	14:02:20	749176	5e76ea9839c4412605dd2070	901713780	1	main_slash	11	main_slash	103	stimuli_target_diamondcircles.svg	stimuli_distractor_trianglediamonds.svg	19	yes	53	1	782
6.6.1	win	2023-01-02	13:49:49	14:02:20	749176	5e76ea9839c4412605dd2070	901713780	1	main_slash	11	advance_on_keypress_SLASH	104	stimuli_target_diamondcircles.svg	stimuli_distractor_trianglediamonds.svg	19	yes	57	0	258
6.6.1	win	2023-01-02	13:49:49	14:02:23	752077	5e76ea9839c4412605dd2070	901713780	1	main_slash	11	main_slash	105	stimuli_distractor_diamondtriangles.svg	stimuli_distractor_diamondtriangles.svg	40	no	0	1	2000
6.6.1	win	2023-01-02	13:49:49	14:02:23	752077	5e76ea9839c4412605dd2070	901713780	1	main_slash	11	advance_on_keypress_SLASH	106	stimuli_distractor_diamondtriangles.svg	stimuli_distractor_diamondtriangles.svg	40	no	57	0	347
6.6.1	win	2023-01-02	13:49:49	14:02:26	755075	5e76ea9839c4412605dd2070	901713780	1	main_slash	11	main_slash	107	stimuli_distractor_diamondtriangles.svg	stimuli_distractor_trianglediamonds.svg	38	no	0	1	2000
6.6.1	win	2023-01-02	13:49:49	14:02:26	755075	5e76ea9839c4412605dd2070	901713780	1	main_slash	11	advance_on_keypress_SLASH	108	stimuli_distractor_diamondtriangles.svg	stimuli_distractor_trianglediamonds.svg	38	no	57	0	286
6.6.1	win	2023-01-02	13:49:49	14:02:27	756857	5e76ea9839c4412605dd2070	901713780	1	main_slash	11	main_slash	109	stimuli_distractor_trianglediamonds.svg	stimuli_target_squaretriangles.svg	11	yes	53	1	851
6.6.1	win	2023-01-02	13:49:49	14:02:27	756857	5e76ea9839c4412605dd2070	901713780	1	main_slash	11	advance_on_keypress_SLASH	110	stimuli_distractor_trianglediamonds.svg	stimuli_target_squaretriangles.svg	11	yes	57	0	248
6.6.1	win	2023-01-02	13:49:49	14:02:29	758488	5e76ea9839c4412605dd2070	901713780	1	main_slash	11	main_slash	111	stimuli_target_squarediamonds.svg	stimuli_distractor_diamondtriangles.svg	8	yes	53	1	732
6.6.1	win	2023-01-02	13:49:49	14:02:29	758488	5e76ea9839c4412605dd2070	901713780	1	main_slash	11	advance_on_keypress_SLASH	112	stimuli_target_squarediamonds.svg	stimuli_distractor_diamondtriangles.svg	8	yes	57	0	248
6.6.1	win	2023-01-02	13:49:49	14:02:31	760378	5e76ea9839c4412605dd2070	901713780	1	main_slash	11	main_slash	113	stimuli_distractor_trianglediamonds.svg	stimuli_target_squarediamonds.svg	12	yes	53	1	989
6.6.1	win	2023-01-02	13:49:49	14:02:31	760378	5e76ea9839c4412605dd2070	901713780	1	main_slash	11	advance_on_keypress_SLASH	114	stimuli_distractor_trianglediamonds.svg	stimuli_target_squarediamonds.svg	12	yes	57	0	303
6.6.1	win	2023-01-02	13:49:49	14:02:33	762185	5e76ea9839c4412605dd2070	901713780	1	main_slash	11	main_slash	115	stimuli_distractor_diamondtriangles.svg	stimuli_target_squarediamonds.svg	16	yes	53	1	864
6.6.1	win	2023-01-02	13:49:49	14:02:33	762185	5e76ea9839c4412605dd2070	901713780	1	main_slash	11	advance_on_keypress_SLASH	116	stimuli_distractor_diamondtriangles.svg	stimuli_target_squarediamonds.svg	16	yes	57	0	246
6.6.1	win	2023-01-02	13:49:49	14:02:36	765070	5e76ea9839c4412605dd2070	901713780	1	main_slash	11	main_slash	117	stimuli_distractor_trianglediamonds.svg	stimuli_distractor_trianglediamonds.svg	33	no	0	1	2000
6.6.1	win	2023-01-02	13:49:49	14:02:36	765070	5e76ea9839c4412605dd2070	901713780	1	main_slash	11	advance_on_keypress_SLASH	118	stimuli_distractor_trianglediamonds.svg	stimuli_distractor_trianglediamonds.svg	33	no	57	0	354
6.6.1	win	2023-01-02	13:49:49	14:02:37	766820	5e76ea9839c4412605dd2070	901713780	1	main_slash	11	main_slash	119	stimuli_distractor_diamondtriangles.svg	stimuli_target_diamondcircles.svg	31	yes	53	1	752
6.6.1	win	2023-01-02	13:49:49	14:02:37	766820	5e76ea9839c4412605dd2070	901713780	1	main_slash	11	advance_on_keypress_SLASH	120	stimuli_distractor_diamondtriangles.svg	stimuli_target_diamondcircles.svg	31	yes	57	0	245
6.6.1	win	2023-01-02	13:49:49	14:02:39	768710	5e76ea9839c4412605dd2070	901713780	1	main_slash	11	main_slash	121	stimuli_target_squarediamonds.svg	stimuli_distractor_trianglediamonds.svg	4	yes	53	1	1008
6.6.1	win	2023-01-02	13:49:49	14:02:39	768710	5e76ea9839c4412605dd2070	901713780	1	main_slash	11	advance_on_keypress_SLASH	122	stimuli_target_squarediamonds.svg	stimuli_distractor_trianglediamonds.svg	4	yes	57	0	218
6.6.1	win	2023-01-02	13:49:49	14:02:42	771567	5e76ea9839c4412605dd2070	901713780	1	main_slash	11	main_slash	123	stimuli_distractor_trianglediamonds.svg	stimuli_distractor_diamondtriangles.svg	36	no	0	1	2000
6.6.1	win	2023-01-02	13:49:49	14:02:42	771567	5e76ea9839c4412605dd2070	901713780	1	main_slash	11	advance_on_keypress_SLASH	124	stimuli_distractor_trianglediamonds.svg	stimuli_distractor_diamondtriangles.svg	36	no	57	0	531
6.6.1	win	2023-01-02	13:49:49	14:02:44	773445	5e76ea9839c4412605dd2070	901713780	1	main_slash	11	main_slash	125	stimuli_target_circletriangles.svg	stimuli_distractor_trianglediamonds.svg	1	yes	53	1	697
6.6.1	win	2023-01-02	13:49:49	14:02:44	773445	5e76ea9839c4412605dd2070	901713780	1	main_slash	11	advance_on_keypress_SLASH	126	stimuli_target_circletriangles.svg	stimuli_distractor_trianglediamonds.svg	1	yes	57	0	254
6.6.1	win	2023-01-02	13:49:49	14:02:46	775116	5e76ea9839c4412605dd2070	901713780	1	main_slash	11	main_slash	127	stimuli_target_circletriangles.svg	stimuli_distractor_diamondtriangles.svg	5	yes	53	1	769
6.6.1	win	2023-01-02	13:49:49	14:02:46	775116	5e76ea9839c4412605dd2070	901713780	1	main_slash	11	advance_on_keypress_SLASH	128	stimuli_target_circletriangles.svg	stimuli_distractor_diamondtriangles.svg	5	yes	57	0	248
6.6.1	win	2023-01-02	13:49:49	14:02:48	776958	5e76ea9839c4412605dd2070	901713780	1	main_slash	11	main_slash	129	stimuli_distractor_diamondtriangles.svg	stimuli_target_trianglecircles.svg	29	yes	53	1	945
6.6.1	win	2023-01-02	13:49:49	14:02:48	776958	5e76ea9839c4412605dd2070	901713780	1	main_slash	11	advance_on_keypress_SLASH	130	stimuli_distractor_diamondtriangles.svg	stimuli_target_trianglecircles.svg	29	yes	57	0	247
6.6.1	win	2023-01-02	13:49:49	14:02:49	778550	5e76ea9839c4412605dd2070	901713780	1	main_slash	11	main_slash	131	stimuli_distractor_diamondtriangles.svg	stimuli_target_circletriangles.svg	13	yes	53	1	721
6.6.1	win	2023-01-02	13:49:49	14:02:49	778550	5e76ea9839c4412605dd2070	901713780	1	main_slash	11	advance_on_keypress_SLASH	132	stimuli_distractor_diamondtriangles.svg	stimuli_target_circletriangles.svg	13	yes	57	0	313
6.6.1	win	2023-01-02	13:49:49	14:02:52	781512	5e76ea9839c4412605dd2070	901713780	1	main_slash	11	main_slash	133	stimuli_distractor_trianglediamonds.svg	stimuli_distractor_trianglediamonds.svg	34	no	0	1	2000
6.6.1	win	2023-01-02	13:49:49	14:02:52	781512	5e76ea9839c4412605dd2070	901713780	1	main_slash	11	advance_on_keypress_SLASH	134	stimuli_distractor_trianglediamonds.svg	stimuli_distractor_trianglediamonds.svg	34	no	57	0	328
6.6.1	win	2023-01-02	13:49:49	14:02:54	783296	5e76ea9839c4412605dd2070	901713780	1	main_slash	11	main_slash	135	stimuli_target_diamondcircles.svg	stimuli_distractor_diamondtriangles.svg	23	yes	53	1	819
6.6.1	win	2023-01-02	13:49:49	14:02:54	783296	5e76ea9839c4412605dd2070	901713780	1	main_slash	11	advance_on_keypress_SLASH	136	stimuli_target_diamondcircles.svg	stimuli_distractor_diamondtriangles.svg	23	yes	57	0	272
6.6.1	win	2023-01-02	13:49:49	14:02:56	785033	5e76ea9839c4412605dd2070	901713780	1	main_slash	11	main_slash	137	stimuli_target_circlediamonds.svg	stimuli_distractor_trianglediamonds.svg	2	yes	53	1	823
6.6.1	win	2023-01-02	13:49:49	14:02:56	785033	5e76ea9839c4412605dd2070	901713780	1	main_slash	11	advance_on_keypress_SLASH	138	stimuli_target_circlediamonds.svg	stimuli_distractor_trianglediamonds.svg	2	yes	57	0	347
6.6.1	win	2023-01-02	13:49:49	14:02:58	787292	5e76ea9839c4412605dd2070	901713780	1	main_slash	11	main_slash	139	stimuli_target_diamondsquares.svg	stimuli_distractor_trianglediamonds.svg	20	yes	53	1	1267
6.6.1	win	2023-01-02	13:49:49	14:02:58	787292	5e76ea9839c4412605dd2070	901713780	1	main_slash	11	advance_on_keypress_SLASH	140	stimuli_target_diamondsquares.svg	stimuli_distractor_trianglediamonds.svg	20	yes	57	0	230
6.6.1	win	2023-01-02	13:49:49	14:03:00	789025	5e76ea9839c4412605dd2070	901713780	1	main_slash	11	main_slash	141	stimuli_distractor_trianglediamonds.svg	stimuli_target_trianglesquares.svg	26	yes	53	1	868
6.6.1	win	2023-01-02	13:49:49	14:03:00	789025	5e76ea9839c4412605dd2070	901713780	1	main_slash	11	advance_on_keypress_SLASH	142	stimuli_distractor_trianglediamonds.svg	stimuli_target_trianglesquares.svg	26	yes	57	0	1146
6.6.1	win	2023-01-02	13:49:49	14:03:03	792807	5e76ea9839c4412605dd2070	901713780	1	main_slash	11	main_slash	143	stimuli_distractor_diamondtriangles.svg	stimuli_distractor_trianglediamonds.svg	37	no	0	1	2000
6.6.1	win	2023-01-02	13:49:49	14:03:03	792807	5e76ea9839c4412605dd2070	901713780	1	main_slash	11	advance_on_keypress_SLASH	144	stimuli_distractor_diamondtriangles.svg	stimuli_distractor_trianglediamonds.svg	37	no	57	0	336
6.6.1	win	2023-01-02	13:49:49	14:03:06	794963	5e76ea9839c4412605dd2070	901713780	1	main_slash	11	main_slash	145	stimuli_target_trianglesquares.svg	stimuli_distractor_trianglediamonds.svg	18	yes	53	1	1174
6.6.1	win	2023-01-02	13:49:49	14:03:06	794963	5e76ea9839c4412605dd2070	901713780	1	main_slash	11	advance_on_keypress_SLASH	146	stimuli_target_trianglesquares.svg	stimuli_distractor_trianglediamonds.svg	18	yes	57	0	246
6.6.1	win	2023-01-02	13:49:49	14:03:07	796596	5e76ea9839c4412605dd2070	901713780	1	main_slash	11	main_slash	147	stimuli_target_circlediamonds.svg	stimuli_distractor_diamondtriangles.svg	6	yes	53	1	759
6.6.1	win	2023-01-02	13:49:49	14:03:07	796596	5e76ea9839c4412605dd2070	901713780	1	main_slash	11	advance_on_keypress_SLASH	148	stimuli_target_circlediamonds.svg	stimuli_distractor_diamondtriangles.svg	6	yes	57	0	229
6.6.1	win	2023-01-02	13:49:49	14:03:10	799453	5e76ea9839c4412605dd2070	901713780	1	main_slash	11	main_slash	149	stimuli_distractor_diamondtriangles.svg	stimuli_distractor_diamondtriangles.svg	39	no	0	1	2000
6.6.1	win	2023-01-02	13:49:49	14:03:10	799453	5e76ea9839c4412605dd2070	901713780	1	main_slash	11	advance_on_keypress_SLASH	150	stimuli_distractor_diamondtriangles.svg	stimuli_distractor_diamondtriangles.svg	39	no	57	0	368
6.6.1	win	2023-01-02	13:49:49	14:03:12	801254	5e76ea9839c4412605dd2070	901713780	1	main_slash	11	main_slash	151	stimuli_distractor_trianglediamonds.svg	stimuli_target_diamondsquares.svg	28	yes	53	1	786
6.6.1	win	2023-01-02	13:49:49	14:03:12	801254	5e76ea9839c4412605dd2070	901713780	1	main_slash	11	advance_on_keypress_SLASH	152	stimuli_distractor_trianglediamonds.svg	stimuli_target_diamondsquares.svg	28	yes	57	0	160
6.6.1	win	2023-01-02	13:49:49	14:03:13	802810	5e76ea9839c4412605dd2070	901713780	1	main_slash	11	main_slash	153	stimuli_target_trianglesquares.svg	stimuli_distractor_diamondtriangles.svg	22	yes	53	1	760
6.6.1	win	2023-01-02	13:49:49	14:03:13	802810	5e76ea9839c4412605dd2070	901713780	1	main_slash	11	advance_on_keypress_SLASH	154	stimuli_target_trianglesquares.svg	stimuli_distractor_diamondtriangles.svg	22	yes	57	0	264
6.6.1	win	2023-01-02	13:49:49	14:03:15	804519	5e76ea9839c4412605dd2070	901713780	1	main_slash	11	main_slash	155	stimuli_target_diamondsquares.svg	stimuli_distractor_diamondtriangles.svg	24	yes	53	1	803
6.6.1	win	2023-01-02	13:49:49	14:03:15	804519	5e76ea9839c4412605dd2070	901713780	1	main_slash	11	advance_on_keypress_SLASH	156	stimuli_target_diamondsquares.svg	stimuli_distractor_diamondtriangles.svg	24	yes	57	0	280
6.6.1	win	2023-01-02	13:49:49	14:03:17	806588	5e76ea9839c4412605dd2070	901713780	1	main_slash	11	main_slash	157	stimuli_distractor_trianglediamonds.svg	stimuli_target_diamondcircles.svg	27	yes	53	1	1156
6.6.1	win	2023-01-02	13:49:49	14:03:17	806588	5e76ea9839c4412605dd2070	901713780	1	main_slash	11	advance_on_keypress_SLASH	158	stimuli_distractor_trianglediamonds.svg	stimuli_target_diamondcircles.svg	27	yes	57	0	267
6.6.1	win	2023-01-02	13:49:49	14:03:19	808234	5e76ea9839c4412605dd2070	901713780	1	main_slash	11	main_slash	159	stimuli_target_trianglecircles.svg	stimuli_distractor_trianglediamonds.svg	17	yes	53	1	736
6.6.1	win	2023-01-02	13:49:49	14:03:19	808234	5e76ea9839c4412605dd2070	901713780	1	main_slash	11	advance_on_keypress_SLASH	160	stimuli_target_trianglecircles.svg	stimuli_distractor_trianglediamonds.svg	17	yes	57	0	370