build	computer.platform	date	time	timestamp	time_elapsed_ms	subject	group	session	blockcode	blocknum	trialcode	trialnum	stimulus_left	stimulus_right	stim_index	target_present	response	correct	latency
6.6.1	and	2022-12-14	19:52:05	19:54:28	119020	6068f61c52d7168e0c8b049f	800897715	1	practice_slash	5	practice_slash	1	stimuli_distractor_trianglediamonds.svg	stimuli_distractor_diamondtriangles.svg	16	no	0	1	2000
6.6.1	and	2022-12-14	19:52:05	19:54:28	119020	6068f61c52d7168e0c8b049f	800897715	1	practice_slash	5	advance_on_keypress_SLASH	2	stimuli_distractor_trianglediamonds.svg	stimuli_distractor_diamondtriangles.svg	16	no	57	0	1750
6.6.1	and	2022-12-14	19:52:05	19:54:32	123464	6068f61c52d7168e0c8b049f	800897715	1	practice_slash	5	practice_slash	3	stimuli_target_diamondsquares.svg	stimuli_distractor_diamondtriangles.svg	3	yes	53	1	1024
6.6.1	and	2022-12-14	19:52:05	19:54:32	123464	6068f61c52d7168e0c8b049f	800897715	1	practice_slash	5	advance_on_keypress_SLASH	4	stimuli_target_diamondsquares.svg	stimuli_distractor_diamondtriangles.svg	3	yes	57	0	739
6.6.1	and	2022-12-14	19:52:05	19:54:36	126809	6068f61c52d7168e0c8b049f	800897715	1	practice_slash	5	practice_slash	5	stimuli_distractor_diamondtriangles.svg	stimuli_target_circletriangles.svg	7	yes	53	1	957
6.6.1	and	2022-12-14	19:52:05	19:54:36	126809	6068f61c52d7168e0c8b049f	800897715	1	practice_slash	5	advance_on_keypress_SLASH	6	stimuli_distractor_diamondtriangles.svg	stimuli_target_circletriangles.svg	7	yes	57	0	726
6.6.1	and	2022-12-14	19:52:05	19:54:39	129909	6068f61c52d7168e0c8b049f	800897715	1	practice_slash	5	practice_slash	7	stimuli_target_diamondsquares.svg	stimuli_distractor_trianglediamonds.svg	6	yes	53	1	724
6.6.1	and	2022-12-14	19:52:05	19:54:39	129909	6068f61c52d7168e0c8b049f	800897715	1	practice_slash	5	advance_on_keypress_SLASH	8	stimuli_target_diamondsquares.svg	stimuli_distractor_trianglediamonds.svg	6	yes	57	0	1350
6.6.1	and	2022-12-14	19:52:05	19:54:44	134715	6068f61c52d7168e0c8b049f	800897715	1	practice_slash	5	practice_slash	9	stimuli_target_squarediamonds.svg	stimuli_distractor_trianglediamonds.svg	5	yes	53	1	1813
6.6.1	and	2022-12-14	19:52:05	19:54:44	134715	6068f61c52d7168e0c8b049f	800897715	1	practice_slash	5	advance_on_keypress_SLASH	10	stimuli_target_squarediamonds.svg	stimuli_distractor_trianglediamonds.svg	5	yes	57	0	639
6.6.1	and	2022-12-14	19:52:05	19:54:47	138065	6068f61c52d7168e0c8b049f	800897715	1	practice_slash	5	practice_slash	11	stimuli_distractor_diamondtriangles.svg	stimuli_target_trianglecircles.svg	9	yes	53	1	1065
6.6.1	and	2022-12-14	19:52:05	19:54:47	138065	6068f61c52d7168e0c8b049f	800897715	1	practice_slash	5	advance_on_keypress_SLASH	12	stimuli_distractor_diamondtriangles.svg	stimuli_target_trianglecircles.svg	9	yes	57	0	459
6.6.1	and	2022-12-14	19:52:05	19:54:51	142169	6068f61c52d7168e0c8b049f	800897715	1	practice_slash	5	practice_slash	13	stimuli_distractor_diamondtriangles.svg	stimuli_distractor_trianglediamonds.svg	14	no	0	1	2000
6.6.1	and	2022-12-14	19:52:05	19:54:51	142169	6068f61c52d7168e0c8b049f	800897715	1	practice_slash	5	advance_on_keypress_SLASH	14	stimuli_distractor_diamondtriangles.svg	stimuli_distractor_trianglediamonds.svg	14	no	57	0	427
6.6.1	and	2022-12-14	19:52:05	19:54:55	145968	6068f61c52d7168e0c8b049f	800897715	1	practice_slash	5	practice_slash	15	stimuli_distractor_diamondtriangles.svg	stimuli_target_diamondcircles.svg	8	yes	53	1	1735
6.6.1	and	2022-12-14	19:52:05	19:54:55	145968	6068f61c52d7168e0c8b049f	800897715	1	practice_slash	5	advance_on_keypress_SLASH	16	stimuli_distractor_diamondtriangles.svg	stimuli_target_diamondcircles.svg	8	yes	57	0	456
6.6.1	and	2022-12-14	19:52:05	19:54:58	148982	6068f61c52d7168e0c8b049f	800897715	1	practice_slash	5	practice_slash	17	stimuli_distractor_trianglediamonds.svg	stimuli_target_squarediamonds.svg	11	yes	53	1	929
6.6.1	and	2022-12-14	19:52:05	19:54:58	148982	6068f61c52d7168e0c8b049f	800897715	1	practice_slash	5	advance_on_keypress_SLASH	18	stimuli_distractor_trianglediamonds.svg	stimuli_target_squarediamonds.svg	11	yes	57	0	512
6.6.1	and	2022-12-14	19:52:05	19:55:01	151988	6068f61c52d7168e0c8b049f	800897715	1	practice_slash	5	practice_slash	19	stimuli_distractor_trianglediamonds.svg	stimuli_target_diamondcircles.svg	12	yes	53	1	855
6.6.1	and	2022-12-14	19:52:05	19:55:01	151988	6068f61c52d7168e0c8b049f	800897715	1	practice_slash	5	advance_on_keypress_SLASH	20	stimuli_distractor_trianglediamonds.svg	stimuli_target_diamondcircles.svg	12	yes	57	0	139
6.6.1	and	2022-12-14	19:52:05	19:55:03	154520	6068f61c52d7168e0c8b049f	800897715	1	practice_slash	5	practice_slash	21	stimuli_distractor_trianglediamonds.svg	stimuli_target_circlediamonds.svg	10	yes	53	1	748
6.6.1	and	2022-12-14	19:52:05	19:55:03	154520	6068f61c52d7168e0c8b049f	800897715	1	practice_slash	5	advance_on_keypress_SLASH	22	stimuli_distractor_trianglediamonds.svg	stimuli_target_circlediamonds.svg	10	yes	57	0	398
6.6.1	and	2022-12-14	19:52:05	19:55:06	157275	6068f61c52d7168e0c8b049f	800897715	1	practice_slash	5	practice_slash	23	stimuli_target_circlediamonds.svg	stimuli_distractor_trianglediamonds.svg	4	yes	53	1	727
6.6.1	and	2022-12-14	19:52:05	19:55:06	157275	6068f61c52d7168e0c8b049f	800897715	1	practice_slash	5	advance_on_keypress_SLASH	24	stimuli_target_circlediamonds.svg	stimuli_distractor_trianglediamonds.svg	4	yes	57	0	2996
6.6.1	and	2022-12-14	19:52:05	19:55:12	162825	6068f61c52d7168e0c8b049f	800897715	1	practice_slash	5	practice_slash	25	stimuli_target_squarediamonds.svg	stimuli_distractor_diamondtriangles.svg	2	yes	53	1	908
6.6.1	and	2022-12-14	19:52:05	19:55:12	162825	6068f61c52d7168e0c8b049f	800897715	1	practice_slash	5	advance_on_keypress_SLASH	26	stimuli_target_squarediamonds.svg	stimuli_distractor_diamondtriangles.svg	2	yes	57	0	684
6.6.1	and	2022-12-14	19:52:05	19:55:16	167149	6068f61c52d7168e0c8b049f	800897715	1	practice_slash	5	practice_slash	27	stimuli_distractor_trianglediamonds.svg	stimuli_distractor_trianglediamonds.svg	15	no	0	1	2000
6.6.1	and	2022-12-14	19:52:05	19:55:16	167149	6068f61c52d7168e0c8b049f	800897715	1	practice_slash	5	advance_on_keypress_SLASH	28	stimuli_distractor_trianglediamonds.svg	stimuli_distractor_trianglediamonds.svg	15	no	57	0	575
6.6.1	and	2022-12-14	19:52:05	19:55:19	170023	6068f61c52d7168e0c8b049f	800897715	1	practice_slash	5	practice_slash	29	stimuli_target_circlediamonds.svg	stimuli_distractor_diamondtriangles.svg	1	yes	53	1	657
6.6.1	and	2022-12-14	19:52:05	19:55:19	170023	6068f61c52d7168e0c8b049f	800897715	1	practice_slash	5	advance_on_keypress_SLASH	30	stimuli_target_circlediamonds.svg	stimuli_distractor_diamondtriangles.svg	1	yes	57	0	376
6.6.1	and	2022-12-14	19:52:05	19:55:23	174049	6068f61c52d7168e0c8b049f	800897715	1	practice_slash	5	practice_slash	31	stimuli_distractor_diamondtriangles.svg	stimuli_distractor_diamondtriangles.svg	13	no	0	1	2000
6.6.1	and	2022-12-14	19:52:05	19:55:23	174049	6068f61c52d7168e0c8b049f	800897715	1	practice_slash	5	advance_on_keypress_SLASH	32	stimuli_distractor_diamondtriangles.svg	stimuli_distractor_diamondtriangles.svg	13	no	57	0	509
6.6.1	and	2022-12-14	19:52:05	19:55:36	186744	6068f61c52d7168e0c8b049f	800897715	1	main_slash	7	main_slash	1	stimuli_distractor_trianglediamonds.svg	stimuli_target_circletriangles.svg	9	yes	53	1	681
6.6.1	and	2022-12-14	19:52:05	19:55:36	186744	6068f61c52d7168e0c8b049f	800897715	1	main_slash	7	advance_on_keypress_SLASH	2	stimuli_distractor_trianglediamonds.svg	stimuli_target_circletriangles.svg	9	yes	57	0	616
6.6.1	and	2022-12-14	19:52:05	19:55:38	188650	6068f61c52d7168e0c8b049f	800897715	1	main_slash	7	main_slash	3	stimuli_target_trianglesquares.svg	stimuli_distractor_trianglediamonds.svg	18	yes	53	1	653
6.6.1	and	2022-12-14	19:52:05	19:55:38	188650	6068f61c52d7168e0c8b049f	800897715	1	main_slash	7	advance_on_keypress_SLASH	4	stimuli_target_trianglesquares.svg	stimuli_distractor_trianglediamonds.svg	18	yes	57	0	708
6.6.1	and	2022-12-14	19:52:05	19:55:40	190947	6068f61c52d7168e0c8b049f	800897715	1	main_slash	7	main_slash	5	stimuli_target_trianglecircles.svg	stimuli_distractor_diamondtriangles.svg	21	yes	53	1	966
6.6.1	and	2022-12-14	19:52:05	19:55:40	190947	6068f61c52d7168e0c8b049f	800897715	1	main_slash	7	advance_on_keypress_SLASH	6	stimuli_target_trianglecircles.svg	stimuli_distractor_diamondtriangles.svg	21	yes	57	0	647
6.6.1	and	2022-12-14	19:52:05	19:55:42	192935	6068f61c52d7168e0c8b049f	800897715	1	main_slash	7	main_slash	7	stimuli_distractor_diamondtriangles.svg	stimuli_target_trianglesquares.svg	30	yes	53	1	706
6.6.1	and	2022-12-14	19:52:05	19:55:42	192935	6068f61c52d7168e0c8b049f	800897715	1	main_slash	7	advance_on_keypress_SLASH	8	stimuli_distractor_diamondtriangles.svg	stimuli_target_trianglesquares.svg	30	yes	57	0	643
6.6.1	and	2022-12-14	19:52:05	19:55:45	196213	6068f61c52d7168e0c8b049f	800897715	1	main_slash	7	main_slash	9	stimuli_distractor_trianglediamonds.svg	stimuli_distractor_diamondtriangles.svg	35	no	0	1	2000
6.6.1	and	2022-12-14	19:52:05	19:55:45	196213	6068f61c52d7168e0c8b049f	800897715	1	main_slash	7	advance_on_keypress_SLASH	10	stimuli_distractor_trianglediamonds.svg	stimuli_distractor_diamondtriangles.svg	35	no	57	0	357
6.6.1	and	2022-12-14	19:52:05	19:55:47	197940	6068f61c52d7168e0c8b049f	800897715	1	main_slash	7	main_slash	11	stimuli_distractor_diamondtriangles.svg	stimuli_target_diamondcircles.svg	31	yes	53	1	742
6.6.1	and	2022-12-14	19:52:05	19:55:47	197940	6068f61c52d7168e0c8b049f	800897715	1	main_slash	7	advance_on_keypress_SLASH	12	stimuli_distractor_diamondtriangles.svg	stimuli_target_diamondcircles.svg	31	yes	57	0	606
6.6.1	and	2022-12-14	19:52:05	19:55:49	200048	6068f61c52d7168e0c8b049f	800897715	1	main_slash	7	main_slash	13	stimuli_target_squaretriangles.svg	stimuli_distractor_diamondtriangles.svg	7	yes	53	1	852
6.6.1	and	2022-12-14	19:52:05	19:55:49	200048	6068f61c52d7168e0c8b049f	800897715	1	main_slash	7	advance_on_keypress_SLASH	14	stimuli_target_squaretriangles.svg	stimuli_distractor_diamondtriangles.svg	7	yes	57	0	554
6.6.1	and	2022-12-14	19:52:05	19:55:51	201845	6068f61c52d7168e0c8b049f	800897715	1	main_slash	7	main_slash	15	stimuli_distractor_diamondtriangles.svg	stimuli_target_squarediamonds.svg	16	yes	53	1	615
6.6.1	and	2022-12-14	19:52:05	19:55:51	201845	6068f61c52d7168e0c8b049f	800897715	1	main_slash	7	advance_on_keypress_SLASH	16	stimuli_distractor_diamondtriangles.svg	stimuli_target_squarediamonds.svg	16	yes	57	0	1045
6.6.1	and	2022-12-14	19:52:05	19:55:54	205530	6068f61c52d7168e0c8b049f	800897715	1	main_slash	7	main_slash	17	stimuli_target_circlediamonds.svg	stimuli_distractor_diamondtriangles.svg	6	yes	0	0	2000
6.6.1	and	2022-12-14	19:52:05	19:55:54	205530	6068f61c52d7168e0c8b049f	800897715	1	main_slash	7	advance_on_keypress_SLASH	18	stimuli_target_circlediamonds.svg	stimuli_distractor_diamondtriangles.svg	6	yes	57	0	702
6.6.1	and	2022-12-14	19:52:05	19:55:57	207876	6068f61c52d7168e0c8b049f	800897715	1	main_slash	7	main_slash	19	stimuli_distractor_diamondtriangles.svg	stimuli_target_diamondsquares.svg	32	yes	53	1	1015
6.6.1	and	2022-12-14	19:52:05	19:55:57	207876	6068f61c52d7168e0c8b049f	800897715	1	main_slash	7	advance_on_keypress_SLASH	20	stimuli_distractor_diamondtriangles.svg	stimuli_target_diamondsquares.svg	32	yes	57	0	508
6.6.1	and	2022-12-14	19:52:05	19:55:59	210022	6068f61c52d7168e0c8b049f	800897715	1	main_slash	7	main_slash	21	stimuli_distractor_diamondtriangles.svg	stimuli_target_trianglecircles.svg	29	yes	53	1	1010
6.6.1	and	2022-12-14	19:52:05	19:55:59	210022	6068f61c52d7168e0c8b049f	800897715	1	main_slash	7	advance_on_keypress_SLASH	22	stimuli_distractor_diamondtriangles.svg	stimuli_target_trianglecircles.svg	29	yes	57	0	575
6.6.1	and	2022-12-14	19:52:05	19:56:01	212184	6068f61c52d7168e0c8b049f	800897715	1	main_slash	7	main_slash	23	stimuli_target_diamondcircles.svg	stimuli_distractor_diamondtriangles.svg	23	yes	53	1	954
6.6.1	and	2022-12-14	19:52:05	19:56:01	212184	6068f61c52d7168e0c8b049f	800897715	1	main_slash	7	advance_on_keypress_SLASH	24	stimuli_target_diamondcircles.svg	stimuli_distractor_diamondtriangles.svg	23	yes	57	0	806
6.6.1	and	2022-12-14	19:52:05	19:56:04	214748	6068f61c52d7168e0c8b049f	800897715	1	main_slash	7	main_slash	25	stimuli_distractor_trianglediamonds.svg	stimuli_target_diamondcircles.svg	27	yes	53	1	1135
6.6.1	and	2022-12-14	19:52:05	19:56:04	214748	6068f61c52d7168e0c8b049f	800897715	1	main_slash	7	advance_on_keypress_SLASH	26	stimuli_distractor_trianglediamonds.svg	stimuli_target_diamondcircles.svg	27	yes	57	0	428
6.6.1	and	2022-12-14	19:52:05	19:56:06	216917	6068f61c52d7168e0c8b049f	800897715	1	main_slash	7	main_slash	27	stimuli_target_diamondcircles.svg	stimuli_distractor_trianglediamonds.svg	19	yes	53	1	1105
6.6.1	and	2022-12-14	19:52:05	19:56:06	216917	6068f61c52d7168e0c8b049f	800897715	1	main_slash	7	advance_on_keypress_SLASH	28	stimuli_target_diamondcircles.svg	stimuli_distractor_trianglediamonds.svg	19	yes	57	0	1151
6.6.1	and	2022-12-14	19:52:05	19:56:10	220695	6068f61c52d7168e0c8b049f	800897715	1	main_slash	7	main_slash	29	stimuli_distractor_diamondtriangles.svg	stimuli_distractor_trianglediamonds.svg	37	no	0	1	2000
6.6.1	and	2022-12-14	19:52:05	19:56:10	220695	6068f61c52d7168e0c8b049f	800897715	1	main_slash	7	advance_on_keypress_SLASH	30	stimuli_distractor_diamondtriangles.svg	stimuli_distractor_trianglediamonds.svg	37	no	57	0	694
6.6.1	and	2022-12-14	19:52:05	19:56:12	223066	6068f61c52d7168e0c8b049f	800897715	1	main_slash	7	main_slash	31	stimuli_distractor_trianglediamonds.svg	stimuli_distractor_trianglediamonds.svg	33	no	53	0	1038
6.6.1	and	2022-12-14	19:52:05	19:56:12	223066	6068f61c52d7168e0c8b049f	800897715	1	main_slash	7	advance_on_keypress_SLASH	32	stimuli_distractor_trianglediamonds.svg	stimuli_distractor_trianglediamonds.svg	33	no	57	0	446
6.6.1	and	2022-12-14	19:52:05	19:56:15	226145	6068f61c52d7168e0c8b049f	800897715	1	main_slash	7	main_slash	33	stimuli_distractor_trianglediamonds.svg	stimuli_target_circlediamonds.svg	10	yes	0	0	2000
6.6.1	and	2022-12-14	19:52:05	19:56:15	226145	6068f61c52d7168e0c8b049f	800897715	1	main_slash	7	advance_on_keypress_SLASH	34	stimuli_distractor_trianglediamonds.svg	stimuli_target_circlediamonds.svg	10	yes	57	0	629
6.6.1	and	2022-12-14	19:52:05	19:56:18	229411	6068f61c52d7168e0c8b049f	800897715	1	main_slash	7	main_slash	35	stimuli_distractor_diamondtriangles.svg	stimuli_distractor_diamondtriangles.svg	40	no	0	1	2000
6.6.1	and	2022-12-14	19:52:05	19:56:18	229411	6068f61c52d7168e0c8b049f	800897715	1	main_slash	7	advance_on_keypress_SLASH	36	stimuli_distractor_diamondtriangles.svg	stimuli_distractor_diamondtriangles.svg	40	no	57	0	573
6.6.1	and	2022-12-14	19:52:05	19:56:20	231586	6068f61c52d7168e0c8b049f	800897715	1	main_slash	7	main_slash	37	stimuli_target_circlediamonds.svg	stimuli_distractor_trianglediamonds.svg	2	yes	53	1	976
6.6.1	and	2022-12-14	19:52:05	19:56:20	231586	6068f61c52d7168e0c8b049f	800897715	1	main_slash	7	advance_on_keypress_SLASH	38	stimuli_target_circlediamonds.svg	stimuli_distractor_trianglediamonds.svg	2	yes	57	0	1495
6.6.1	and	2022-12-14	19:52:05	19:56:24	234848	6068f61c52d7168e0c8b049f	800897715	1	main_slash	7	main_slash	39	stimuli_distractor_trianglediamonds.svg	stimuli_target_diamondsquares.svg	28	yes	53	1	1138
6.6.1	and	2022-12-14	19:52:05	19:56:24	234848	6068f61c52d7168e0c8b049f	800897715	1	main_slash	7	advance_on_keypress_SLASH	40	stimuli_distractor_trianglediamonds.svg	stimuli_target_diamondsquares.svg	28	yes	57	0	1371
6.6.1	and	2022-12-14	19:52:05	19:56:28	238844	6068f61c52d7168e0c8b049f	800897715	1	main_slash	7	main_slash	41	stimuli_distractor_trianglediamonds.svg	stimuli_target_squarediamonds.svg	12	yes	0	0	2000
6.6.1	and	2022-12-14	19:52:05	19:56:28	238844	6068f61c52d7168e0c8b049f	800897715	1	main_slash	7	advance_on_keypress_SLASH	42	stimuli_distractor_trianglediamonds.svg	stimuli_target_squarediamonds.svg	12	yes	57	0	747
6.6.1	and	2022-12-14	19:52:05	19:56:30	240922	6068f61c52d7168e0c8b049f	800897715	1	main_slash	7	main_slash	43	stimuli_target_trianglesquares.svg	stimuli_distractor_diamondtriangles.svg	22	yes	53	1	695
6.6.1	and	2022-12-14	19:52:05	19:56:30	240922	6068f61c52d7168e0c8b049f	800897715	1	main_slash	7	advance_on_keypress_SLASH	44	stimuli_target_trianglesquares.svg	stimuli_distractor_diamondtriangles.svg	22	yes	57	0	837
6.6.1	and	2022-12-14	19:52:05	19:56:32	243313	6068f61c52d7168e0c8b049f	800897715	1	main_slash	7	main_slash	45	stimuli_distractor_trianglediamonds.svg	stimuli_target_trianglesquares.svg	26	yes	53	1	920
6.6.1	and	2022-12-14	19:52:05	19:56:32	243313	6068f61c52d7168e0c8b049f	800897715	1	main_slash	7	advance_on_keypress_SLASH	46	stimuli_distractor_trianglediamonds.svg	stimuli_target_trianglesquares.svg	26	yes	57	0	645
6.6.1	and	2022-12-14	19:52:05	19:56:35	245624	6068f61c52d7168e0c8b049f	800897715	1	main_slash	7	main_slash	47	stimuli_distractor_trianglediamonds.svg	stimuli_target_trianglecircles.svg	25	yes	53	1	1030
6.6.1	and	2022-12-14	19:52:05	19:56:35	245624	6068f61c52d7168e0c8b049f	800897715	1	main_slash	7	advance_on_keypress_SLASH	48	stimuli_distractor_trianglediamonds.svg	stimuli_target_trianglecircles.svg	25	yes	57	0	608
6.6.1	and	2022-12-14	19:52:05	19:56:38	248861	6068f61c52d7168e0c8b049f	800897715	1	main_slash	7	main_slash	49	stimuli_distractor_trianglediamonds.svg	stimuli_target_squaretriangles.svg	11	yes	0	0	2000
6.6.1	and	2022-12-14	19:52:05	19:56:38	248861	6068f61c52d7168e0c8b049f	800897715	1	main_slash	7	advance_on_keypress_SLASH	50	stimuli_distractor_trianglediamonds.svg	stimuli_target_squaretriangles.svg	11	yes	57	0	586
6.6.1	and	2022-12-14	19:52:05	19:56:41	252080	6068f61c52d7168e0c8b049f	800897715	1	main_slash	7	main_slash	51	stimuli_distractor_diamondtriangles.svg	stimuli_target_circlediamonds.svg	14	yes	0	0	2000
6.6.1	and	2022-12-14	19:52:05	19:56:41	252080	6068f61c52d7168e0c8b049f	800897715	1	main_slash	7	advance_on_keypress_SLASH	52	stimuli_distractor_diamondtriangles.svg	stimuli_target_circlediamonds.svg	14	yes	57	0	470
6.6.1	and	2022-12-14	19:52:05	19:56:43	254373	6068f61c52d7168e0c8b049f	800897715	1	main_slash	7	main_slash	53	stimuli_target_squarediamonds.svg	stimuli_distractor_trianglediamonds.svg	4	yes	53	1	1196
6.6.1	and	2022-12-14	19:52:05	19:56:43	254373	6068f61c52d7168e0c8b049f	800897715	1	main_slash	7	advance_on_keypress_SLASH	54	stimuli_target_squarediamonds.svg	stimuli_distractor_trianglediamonds.svg	4	yes	57	0	587
6.6.1	and	2022-12-14	19:52:05	19:56:46	256829	6068f61c52d7168e0c8b049f	800897715	1	main_slash	7	main_slash	55	stimuli_target_circletriangles.svg	stimuli_distractor_trianglediamonds.svg	1	yes	53	1	1230
6.6.1	and	2022-12-14	19:52:05	19:56:46	256829	6068f61c52d7168e0c8b049f	800897715	1	main_slash	7	advance_on_keypress_SLASH	56	stimuli_target_circletriangles.svg	stimuli_distractor_trianglediamonds.svg	1	yes	57	0	247
6.6.1	and	2022-12-14	19:52:05	19:56:47	258399	6068f61c52d7168e0c8b049f	800897715	1	main_slash	7	main_slash	57	stimuli_target_trianglecircles.svg	stimuli_distractor_trianglediamonds.svg	17	yes	53	1	690
6.6.1	and	2022-12-14	19:52:05	19:56:47	258399	6068f61c52d7168e0c8b049f	800897715	1	main_slash	7	advance_on_keypress_SLASH	58	stimuli_target_trianglecircles.svg	stimuli_distractor_trianglediamonds.svg	17	yes	57	0	351
6.6.1	and	2022-12-14	19:52:05	19:56:50	261376	6068f61c52d7168e0c8b049f	800897715	1	main_slash	7	main_slash	59	stimuli_distractor_diamondtriangles.svg	stimuli_target_squaretriangles.svg	15	yes	0	0	2000
6.6.1	and	2022-12-14	19:52:05	19:56:50	261376	6068f61c52d7168e0c8b049f	800897715	1	main_slash	7	advance_on_keypress_SLASH	60	stimuli_distractor_diamondtriangles.svg	stimuli_target_squaretriangles.svg	15	yes	57	0	331
6.6.1	and	2022-12-14	19:52:05	19:56:52	263305	6068f61c52d7168e0c8b049f	800897715	1	main_slash	7	main_slash	61	stimuli_target_diamondsquares.svg	stimuli_distractor_diamondtriangles.svg	24	yes	53	1	962
6.6.1	and	2022-12-14	19:52:05	19:56:52	263305	6068f61c52d7168e0c8b049f	800897715	1	main_slash	7	advance_on_keypress_SLASH	62	stimuli_target_diamondsquares.svg	stimuli_distractor_diamondtriangles.svg	24	yes	57	0	439
6.6.1	and	2022-12-14	19:52:05	19:56:54	265056	6068f61c52d7168e0c8b049f	800897715	1	main_slash	7	main_slash	63	stimuli_target_diamondsquares.svg	stimuli_distractor_trianglediamonds.svg	20	yes	53	1	680
6.6.1	and	2022-12-14	19:52:05	19:56:54	265056	6068f61c52d7168e0c8b049f	800897715	1	main_slash	7	advance_on_keypress_SLASH	64	stimuli_target_diamondsquares.svg	stimuli_distractor_trianglediamonds.svg	20	yes	57	0	895
6.6.1	and	2022-12-14	19:52:05	19:56:58	268594	6068f61c52d7168e0c8b049f	800897715	1	main_slash	7	main_slash	65	stimuli_target_squarediamonds.svg	stimuli_distractor_diamondtriangles.svg	8	yes	0	0	2000
6.6.1	and	2022-12-14	19:52:05	19:56:58	268594	6068f61c52d7168e0c8b049f	800897715	1	main_slash	7	advance_on_keypress_SLASH	66	stimuli_target_squarediamonds.svg	stimuli_distractor_diamondtriangles.svg	8	yes	57	0	680
6.6.1	and	2022-12-14	19:52:05	19:57:00	270640	6068f61c52d7168e0c8b049f	800897715	1	main_slash	7	main_slash	67	stimuli_distractor_diamondtriangles.svg	stimuli_target_circletriangles.svg	13	yes	53	1	729
6.6.1	and	2022-12-14	19:52:05	19:57:00	270640	6068f61c52d7168e0c8b049f	800897715	1	main_slash	7	advance_on_keypress_SLASH	68	stimuli_distractor_diamondtriangles.svg	stimuli_target_circletriangles.svg	13	yes	57	0	892
6.6.1	and	2022-12-14	19:52:05	19:57:03	274160	6068f61c52d7168e0c8b049f	800897715	1	main_slash	7	main_slash	69	stimuli_distractor_trianglediamonds.svg	stimuli_distractor_trianglediamonds.svg	34	no	0	1	2000
6.6.1	and	2022-12-14	19:52:05	19:57:03	274160	6068f61c52d7168e0c8b049f	800897715	1	main_slash	7	advance_on_keypress_SLASH	70	stimuli_distractor_trianglediamonds.svg	stimuli_distractor_trianglediamonds.svg	34	no	57	0	772
6.6.1	and	2022-12-14	19:52:05	19:57:06	276720	6068f61c52d7168e0c8b049f	800897715	1	main_slash	7	main_slash	71	stimuli_target_circletriangles.svg	stimuli_distractor_diamondtriangles.svg	5	yes	53	1	1161
6.6.1	and	2022-12-14	19:52:05	19:57:06	276720	6068f61c52d7168e0c8b049f	800897715	1	main_slash	7	advance_on_keypress_SLASH	72	stimuli_target_circletriangles.svg	stimuli_distractor_diamondtriangles.svg	5	yes	57	0	383
6.6.1	and	2022-12-14	19:52:05	19:57:09	279744	6068f61c52d7168e0c8b049f	800897715	1	main_slash	7	main_slash	73	stimuli_target_squaretriangles.svg	stimuli_distractor_trianglediamonds.svg	3	yes	0	0	2000
6.6.1	and	2022-12-14	19:52:05	19:57:09	279744	6068f61c52d7168e0c8b049f	800897715	1	main_slash	7	advance_on_keypress_SLASH	74	stimuli_target_squaretriangles.svg	stimuli_distractor_trianglediamonds.svg	3	yes	57	0	948
6.6.1	and	2022-12-14	19:52:05	19:57:12	283325	6068f61c52d7168e0c8b049f	800897715	1	main_slash	7	main_slash	75	stimuli_distractor_diamondtriangles.svg	stimuli_distractor_diamondtriangles.svg	39	no	0	1	2000
6.6.1	and	2022-12-14	19:52:05	19:57:12	283325	6068f61c52d7168e0c8b049f	800897715	1	main_slash	7	advance_on_keypress_SLASH	76	stimuli_distractor_diamondtriangles.svg	stimuli_distractor_diamondtriangles.svg	39	no	57	0	343
6.6.1	and	2022-12-14	19:52:05	19:57:15	286311	6068f61c52d7168e0c8b049f	800897715	1	main_slash	7	main_slash	77	stimuli_distractor_trianglediamonds.svg	stimuli_distractor_diamondtriangles.svg	36	no	0	1	2000
6.6.1	and	2022-12-14	19:52:05	19:57:15	286311	6068f61c52d7168e0c8b049f	800897715	1	main_slash	7	advance_on_keypress_SLASH	78	stimuli_distractor_trianglediamonds.svg	stimuli_distractor_diamondtriangles.svg	36	no	57	0	511
6.6.1	and	2022-12-14	19:52:05	19:57:18	289458	6068f61c52d7168e0c8b049f	800897715	1	main_slash	7	main_slash	79	stimuli_distractor_diamondtriangles.svg	stimuli_distractor_trianglediamonds.svg	38	no	0	1	2000
6.6.1	and	2022-12-14	19:52:05	19:57:18	289458	6068f61c52d7168e0c8b049f	800897715	1	main_slash	7	advance_on_keypress_SLASH	80	stimuli_distractor_diamondtriangles.svg	stimuli_distractor_trianglediamonds.svg	38	no	57	0	342
6.6.1	and	2022-12-14	19:52:05	19:57:20	291101	6068f61c52d7168e0c8b049f	800897715	1	main_slash	7	main_slash	81	stimuli_target_trianglecircles.svg	stimuli_distractor_diamondtriangles.svg	21	yes	53	1	676
6.6.1	and	2022-12-14	19:52:05	19:57:20	291101	6068f61c52d7168e0c8b049f	800897715	1	main_slash	7	advance_on_keypress_SLASH	82	stimuli_target_trianglecircles.svg	stimuli_distractor_diamondtriangles.svg	21	yes	57	0	768
6.6.1	and	2022-12-14	19:52:05	19:57:22	293344	6068f61c52d7168e0c8b049f	800897715	1	main_slash	7	main_slash	83	stimuli_distractor_diamondtriangles.svg	stimuli_target_diamondsquares.svg	32	yes	53	1	853
6.6.1	and	2022-12-14	19:52:05	19:57:22	293344	6068f61c52d7168e0c8b049f	800897715	1	main_slash	7	advance_on_keypress_SLASH	84	stimuli_distractor_diamondtriangles.svg	stimuli_target_diamondsquares.svg	32	yes	57	0	732
6.6.1	and	2022-12-14	19:52:05	19:57:25	295765	6068f61c52d7168e0c8b049f	800897715	1	main_slash	7	main_slash	85	stimuli_distractor_diamondtriangles.svg	stimuli_target_trianglecircles.svg	29	yes	53	1	1057
6.6.1	and	2022-12-14	19:52:05	19:57:25	295765	6068f61c52d7168e0c8b049f	800897715	1	main_slash	7	advance_on_keypress_SLASH	86	stimuli_distractor_diamondtriangles.svg	stimuli_target_trianglecircles.svg	29	yes	57	0	649
6.6.1	and	2022-12-14	19:52:05	19:57:27	298357	6068f61c52d7168e0c8b049f	800897715	1	main_slash	7	main_slash	87	stimuli_target_squarediamonds.svg	stimuli_distractor_trianglediamonds.svg	4	yes	53	1	1316
6.6.1	and	2022-12-14	19:52:05	19:57:27	298357	6068f61c52d7168e0c8b049f	800897715	1	main_slash	7	advance_on_keypress_SLASH	88	stimuli_target_squarediamonds.svg	stimuli_distractor_trianglediamonds.svg	4	yes	57	0	572
6.6.1	and	2022-12-14	19:52:05	19:57:31	301561	6068f61c52d7168e0c8b049f	800897715	1	main_slash	7	main_slash	89	stimuli_target_diamondsquares.svg	stimuli_distractor_trianglediamonds.svg	20	yes	0	0	2000
6.6.1	and	2022-12-14	19:52:05	19:57:31	301561	6068f61c52d7168e0c8b049f	800897715	1	main_slash	7	advance_on_keypress_SLASH	90	stimuli_target_diamondsquares.svg	stimuli_distractor_trianglediamonds.svg	20	yes	57	0	395
6.6.1	and	2022-12-14	19:52:05	19:57:33	304546	6068f61c52d7168e0c8b049f	800897715	1	main_slash	7	main_slash	91	stimuli_distractor_trianglediamonds.svg	stimuli_target_circletriangles.svg	9	yes	53	1	1954
6.6.1	and	2022-12-14	19:52:05	19:57:33	304546	6068f61c52d7168e0c8b049f	800897715	1	main_slash	7	advance_on_keypress_SLASH	92	stimuli_distractor_trianglediamonds.svg	stimuli_target_circletriangles.svg	9	yes	57	0	480
6.6.1	and	2022-12-14	19:52:05	19:57:35	306329	6068f61c52d7168e0c8b049f	800897715	1	main_slash	7	main_slash	93	stimuli_target_diamondcircles.svg	stimuli_distractor_trianglediamonds.svg	19	yes	53	1	672
6.6.1	and	2022-12-14	19:52:05	19:57:35	306329	6068f61c52d7168e0c8b049f	800897715	1	main_slash	7	advance_on_keypress_SLASH	94	stimuli_target_diamondcircles.svg	stimuli_distractor_trianglediamonds.svg	19	yes	57	0	530
6.6.1	and	2022-12-14	19:52:05	19:57:38	309497	6068f61c52d7168e0c8b049f	800897715	1	main_slash	7	main_slash	95	stimuli_distractor_trianglediamonds.svg	stimuli_target_squarediamonds.svg	12	yes	0	0	2000
6.6.1	and	2022-12-14	19:52:05	19:57:38	309497	6068f61c52d7168e0c8b049f	800897715	1	main_slash	7	advance_on_keypress_SLASH	96	stimuli_distractor_trianglediamonds.svg	stimuli_target_squarediamonds.svg	12	yes	57	0	588
6.6.1	and	2022-12-14	19:52:05	19:57:42	312709	6068f61c52d7168e0c8b049f	800897715	1	main_slash	7	main_slash	97	stimuli_distractor_diamondtriangles.svg	stimuli_target_squarediamonds.svg	16	yes	0	0	2000
6.6.1	and	2022-12-14	19:52:05	19:57:42	312709	6068f61c52d7168e0c8b049f	800897715	1	main_slash	7	advance_on_keypress_SLASH	98	stimuli_distractor_diamondtriangles.svg	stimuli_target_squarediamonds.svg	16	yes	57	0	984
6.6.1	and	2022-12-14	19:52:05	19:57:44	315281	6068f61c52d7168e0c8b049f	800897715	1	main_slash	7	main_slash	99	stimuli_target_trianglecircles.svg	stimuli_distractor_trianglediamonds.svg	17	yes	53	1	956
6.6.1	and	2022-12-14	19:52:05	19:57:44	315281	6068f61c52d7168e0c8b049f	800897715	1	main_slash	7	advance_on_keypress_SLASH	100	stimuli_target_trianglecircles.svg	stimuli_distractor_trianglediamonds.svg	17	yes	57	0	478
6.6.1	and	2022-12-14	19:52:05	19:57:46	317381	6068f61c52d7168e0c8b049f	800897715	1	main_slash	7	main_slash	101	stimuli_target_trianglesquares.svg	stimuli_distractor_diamondtriangles.svg	22	yes	53	1	988
6.6.1	and	2022-12-14	19:52:05	19:57:46	317381	6068f61c52d7168e0c8b049f	800897715	1	main_slash	7	advance_on_keypress_SLASH	102	stimuli_target_trianglesquares.svg	stimuli_distractor_diamondtriangles.svg	22	yes	57	0	558
6.6.1	and	2022-12-14	19:52:05	19:57:49	319678	6068f61c52d7168e0c8b049f	800897715	1	main_slash	7	main_slash	103	stimuli_distractor_diamondtriangles.svg	stimuli_target_squaretriangles.svg	15	yes	53	1	1119
6.6.1	and	2022-12-14	19:52:05	19:57:49	319678	6068f61c52d7168e0c8b049f	800897715	1	main_slash	7	advance_on_keypress_SLASH	104	stimuli_distractor_diamondtriangles.svg	stimuli_target_squaretriangles.svg	15	yes	57	0	459
6.6.1	and	2022-12-14	19:52:05	19:57:51	321711	6068f61c52d7168e0c8b049f	800897715	1	main_slash	7	main_slash	105	stimuli_distractor_diamondtriangles.svg	stimuli_target_trianglesquares.svg	30	yes	53	1	937
6.6.1	and	2022-12-14	19:52:05	19:57:51	321711	6068f61c52d7168e0c8b049f	800897715	1	main_slash	7	advance_on_keypress_SLASH	106	stimuli_distractor_diamondtriangles.svg	stimuli_target_trianglesquares.svg	30	yes	57	0	483
6.6.1	and	2022-12-14	19:52:05	19:57:54	324824	6068f61c52d7168e0c8b049f	800897715	1	main_slash	7	main_slash	107	stimuli_distractor_diamondtriangles.svg	stimuli_distractor_diamondtriangles.svg	39	no	0	1	2000
6.6.1	and	2022-12-14	19:52:05	19:57:54	324824	6068f61c52d7168e0c8b049f	800897715	1	main_slash	7	advance_on_keypress_SLASH	108	stimuli_distractor_diamondtriangles.svg	stimuli_distractor_diamondtriangles.svg	39	no	57	0	702
6.6.1	and	2022-12-14	19:52:05	19:57:57	327581	6068f61c52d7168e0c8b049f	800897715	1	main_slash	7	main_slash	109	stimuli_target_squarediamonds.svg	stimuli_distractor_diamondtriangles.svg	8	yes	53	1	1427
6.6.1	and	2022-12-14	19:52:05	19:57:57	327581	6068f61c52d7168e0c8b049f	800897715	1	main_slash	7	advance_on_keypress_SLASH	110	stimuli_target_squarediamonds.svg	stimuli_distractor_diamondtriangles.svg	8	yes	57	0	449
6.6.1	and	2022-12-14	19:52:05	19:57:59	330067	6068f61c52d7168e0c8b049f	800897715	1	main_slash	7	main_slash	111	stimuli_distractor_trianglediamonds.svg	stimuli_target_squaretriangles.svg	11	yes	53	1	1407
6.6.1	and	2022-12-14	19:52:05	19:57:59	330067	6068f61c52d7168e0c8b049f	800897715	1	main_slash	7	advance_on_keypress_SLASH	112	stimuli_distractor_trianglediamonds.svg	stimuli_target_squaretriangles.svg	11	yes	57	0	328
6.6.1	and	2022-12-14	19:52:05	19:58:01	331767	6068f61c52d7168e0c8b049f	800897715	1	main_slash	7	main_slash	113	stimuli_distractor_trianglediamonds.svg	stimuli_target_circlediamonds.svg	10	yes	53	1	721
6.6.1	and	2022-12-14	19:52:05	19:58:01	331767	6068f61c52d7168e0c8b049f	800897715	1	main_slash	7	advance_on_keypress_SLASH	114	stimuli_distractor_trianglediamonds.svg	stimuli_target_circlediamonds.svg	10	yes	57	0	332
6.6.1	and	2022-12-14	19:52:05	19:58:04	334741	6068f61c52d7168e0c8b049f	800897715	1	main_slash	7	main_slash	115	stimuli_distractor_trianglediamonds.svg	stimuli_distractor_trianglediamonds.svg	34	no	0	1	2000
6.6.1	and	2022-12-14	19:52:05	19:58:04	334741	6068f61c52d7168e0c8b049f	800897715	1	main_slash	7	advance_on_keypress_SLASH	116	stimuli_distractor_trianglediamonds.svg	stimuli_distractor_trianglediamonds.svg	34	no	57	0	633
6.6.1	and	2022-12-14	19:52:05	19:58:06	336776	6068f61c52d7168e0c8b049f	800897715	1	main_slash	7	main_slash	117	stimuli_target_trianglesquares.svg	stimuli_distractor_trianglediamonds.svg	18	yes	53	1	770
6.6.1	and	2022-12-14	19:52:05	19:58:06	336776	6068f61c52d7168e0c8b049f	800897715	1	main_slash	7	advance_on_keypress_SLASH	118	stimuli_target_trianglesquares.svg	stimuli_distractor_trianglediamonds.svg	18	yes	57	0	305
6.6.1	and	2022-12-14	19:52:05	19:58:08	338698	6068f61c52d7168e0c8b049f	800897715	1	main_slash	7	main_slash	119	stimuli_distractor_trianglediamonds.svg	stimuli_target_diamondsquares.svg	28	yes	53	1	990
6.6.1	and	2022-12-14	19:52:05	19:58:08	338698	6068f61c52d7168e0c8b049f	800897715	1	main_slash	7	advance_on_keypress_SLASH	120	stimuli_distractor_trianglediamonds.svg	stimuli_target_diamondsquares.svg	28	yes	57	0	464
6.6.1	and	2022-12-14	19:52:05	19:58:09	340487	6068f61c52d7168e0c8b049f	800897715	1	main_slash	7	main_slash	121	stimuli_target_circletriangles.svg	stimuli_distractor_trianglediamonds.svg	1	yes	53	1	697
6.6.1	and	2022-12-14	19:52:05	19:58:09	340487	6068f61c52d7168e0c8b049f	800897715	1	main_slash	7	advance_on_keypress_SLASH	122	stimuli_target_circletriangles.svg	stimuli_distractor_trianglediamonds.svg	1	yes	57	0	297
6.6.1	and	2022-12-14	19:52:05	19:58:11	341970	6068f61c52d7168e0c8b049f	800897715	1	main_slash	7	main_slash	123	stimuli_distractor_trianglediamonds.svg	stimuli_target_trianglecircles.svg	25	yes	53	1	547
6.6.1	and	2022-12-14	19:52:05	19:58:11	341970	6068f61c52d7168e0c8b049f	800897715	1	main_slash	7	advance_on_keypress_SLASH	124	stimuli_distractor_trianglediamonds.svg	stimuli_target_trianglecircles.svg	25	yes	57	0	2356
6.6.1	and	2022-12-14	19:52:05	19:58:15	345536	6068f61c52d7168e0c8b049f	800897715	1	main_slash	7	main_slash	125	stimuli_target_diamondsquares.svg	stimuli_distractor_diamondtriangles.svg	24	yes	53	1	581
6.6.1	and	2022-12-14	19:52:05	19:58:15	345536	6068f61c52d7168e0c8b049f	800897715	1	main_slash	7	advance_on_keypress_SLASH	126	stimuli_target_diamondsquares.svg	stimuli_distractor_diamondtriangles.svg	24	yes	57	0	328
6.6.1	and	2022-12-14	19:52:05	19:58:16	347292	6068f61c52d7168e0c8b049f	800897715	1	main_slash	7	main_slash	127	stimuli_distractor_trianglediamonds.svg	stimuli_target_diamondcircles.svg	27	yes	53	1	786
6.6.1	and	2022-12-14	19:52:05	19:58:16	347292	6068f61c52d7168e0c8b049f	800897715	1	main_slash	7	advance_on_keypress_SLASH	128	stimuli_distractor_trianglediamonds.svg	stimuli_target_diamondcircles.svg	27	yes	57	0	334
6.6.1	and	2022-12-14	19:52:05	19:58:18	349244	6068f61c52d7168e0c8b049f	800897715	1	main_slash	7	main_slash	129	stimuli_target_circlediamonds.svg	stimuli_distractor_trianglediamonds.svg	2	yes	53	1	988
6.6.1	and	2022-12-14	19:52:05	19:58:18	349244	6068f61c52d7168e0c8b049f	800897715	1	main_slash	7	advance_on_keypress_SLASH	130	stimuli_target_circlediamonds.svg	stimuli_distractor_trianglediamonds.svg	2	yes	57	0	350
6.6.1	and	2022-12-14	19:52:05	19:58:20	350825	6068f61c52d7168e0c8b049f	800897715	1	main_slash	7	main_slash	131	stimuli_target_diamondcircles.svg	stimuli_distractor_diamondtriangles.svg	23	yes	53	1	604
6.6.1	and	2022-12-14	19:52:05	19:58:20	350825	6068f61c52d7168e0c8b049f	800897715	1	main_slash	7	advance_on_keypress_SLASH	132	stimuli_target_diamondcircles.svg	stimuli_distractor_diamondtriangles.svg	23	yes	57	0	649
6.6.1	and	2022-12-14	19:52:05	19:58:23	354106	6068f61c52d7168e0c8b049f	800897715	1	main_slash	7	main_slash	133	stimuli_distractor_trianglediamonds.svg	stimuli_distractor_diamondtriangles.svg	36	no	0	1	2000
6.6.1	and	2022-12-14	19:52:05	19:58:23	354106	6068f61c52d7168e0c8b049f	800897715	1	main_slash	7	advance_on_keypress_SLASH	134	stimuli_distractor_trianglediamonds.svg	stimuli_distractor_diamondtriangles.svg	36	no	57	0	358
6.6.1	and	2022-12-14	19:52:05	19:58:26	357089	6068f61c52d7168e0c8b049f	800897715	1	main_slash	7	main_slash	135	stimuli_distractor_diamondtriangles.svg	stimuli_distractor_trianglediamonds.svg	37	no	0	1	2000
6.6.1	and	2022-12-14	19:52:05	19:58:26	357089	6068f61c52d7168e0c8b049f	800897715	1	main_slash	7	advance_on_keypress_SLASH	136	stimuli_distractor_diamondtriangles.svg	stimuli_distractor_trianglediamonds.svg	37	no	57	0	542
6.6.1	and	2022-12-14	19:52:05	19:58:29	359867	6068f61c52d7168e0c8b049f	800897715	1	main_slash	7	main_slash	137	stimuli_target_squaretriangles.svg	stimuli_distractor_diamondtriangles.svg	7	yes	53	1	1612
6.6.1	and	2022-12-14	19:52:05	19:58:29	359867	6068f61c52d7168e0c8b049f	800897715	1	main_slash	7	advance_on_keypress_SLASH	138	stimuli_target_squaretriangles.svg	stimuli_distractor_diamondtriangles.svg	7	yes	57	0	518
6.6.1	and	2022-12-14	19:52:05	19:58:31	361705	6068f61c52d7168e0c8b049f	800897715	1	main_slash	7	main_slash	139	stimuli_target_squaretriangles.svg	stimuli_distractor_trianglediamonds.svg	3	yes	53	1	684
6.6.1	and	2022-12-14	19:52:05	19:58:31	361705	6068f61c52d7168e0c8b049f	800897715	1	main_slash	7	advance_on_keypress_SLASH	140	stimuli_target_squaretriangles.svg	stimuli_distractor_trianglediamonds.svg	3	yes	57	0	389
6.6.1	and	2022-12-14	19:52:05	19:58:34	364722	6068f61c52d7168e0c8b049f	800897715	1	main_slash	7	main_slash	141	stimuli_distractor_trianglediamonds.svg	stimuli_distractor_trianglediamonds.svg	33	no	0	1	2000
6.6.1	and	2022-12-14	19:52:05	19:58:34	364722	6068f61c52d7168e0c8b049f	800897715	1	main_slash	7	advance_on_keypress_SLASH	142	stimuli_distractor_trianglediamonds.svg	stimuli_distractor_trianglediamonds.svg	33	no	57	0	38908
6.6.1	and	2022-12-14	19:52:05	19:59:15	405843	6068f61c52d7168e0c8b049f	800897715	1	main_slash	7	main_slash	143	stimuli_distractor_diamondtriangles.svg	stimuli_distractor_trianglediamonds.svg	38	no	53	0	1595
6.6.1	and	2022-12-14	19:52:05	19:59:15	405843	6068f61c52d7168e0c8b049f	800897715	1	main_slash	7	advance_on_keypress_SLASH	144	stimuli_distractor_diamondtriangles.svg	stimuli_distractor_trianglediamonds.svg	38	no	57	0	1373
6.6.1	and	2022-12-14	19:52:05	19:59:17	408414	6068f61c52d7168e0c8b049f	800897715	1	main_slash	7	main_slash	145	stimuli_distractor_diamondtriangles.svg	stimuli_target_diamondcircles.svg	31	yes	53	1	577
6.6.1	and	2022-12-14	19:52:05	19:59:17	408414	6068f61c52d7168e0c8b049f	800897715	1	main_slash	7	advance_on_keypress_SLASH	146	stimuli_distractor_diamondtriangles.svg	stimuli_target_diamondcircles.svg	31	yes	57	0	308
6.6.1	and	2022-12-14	19:52:05	19:59:19	410033	6068f61c52d7168e0c8b049f	800897715	1	main_slash	7	main_slash	147	stimuli_distractor_trianglediamonds.svg	stimuli_target_trianglesquares.svg	26	yes	53	1	680
6.6.1	and	2022-12-14	19:52:05	19:59:19	410033	6068f61c52d7168e0c8b049f	800897715	1	main_slash	7	advance_on_keypress_SLASH	148	stimuli_distractor_trianglediamonds.svg	stimuli_target_trianglesquares.svg	26	yes	57	0	272
6.6.1	and	2022-12-14	19:52:05	19:59:22	412937	6068f61c52d7168e0c8b049f	800897715	1	main_slash	7	main_slash	149	stimuli_distractor_trianglediamonds.svg	stimuli_distractor_diamondtriangles.svg	35	no	0	1	2000
6.6.1	and	2022-12-14	19:52:05	19:59:22	412937	6068f61c52d7168e0c8b049f	800897715	1	main_slash	7	advance_on_keypress_SLASH	150	stimuli_distractor_trianglediamonds.svg	stimuli_distractor_diamondtriangles.svg	35	no	57	0	246
6.6.1	and	2022-12-14	19:52:05	19:59:24	414503	6068f61c52d7168e0c8b049f	800897715	1	main_slash	7	main_slash	151	stimuli_distractor_diamondtriangles.svg	stimuli_target_circlediamonds.svg	14	yes	53	1	683
6.6.1	and	2022-12-14	19:52:05	19:59:24	414503	6068f61c52d7168e0c8b049f	800897715	1	main_slash	7	advance_on_keypress_SLASH	152	stimuli_distractor_diamondtriangles.svg	stimuli_target_circlediamonds.svg	14	yes	57	0	1040
6.6.1	and	2022-12-14	19:52:05	19:59:26	416783	6068f61c52d7168e0c8b049f	800897715	1	main_slash	7	main_slash	153	stimuli_distractor_diamondtriangles.svg	stimuli_target_circletriangles.svg	13	yes	53	1	612
6.6.1	and	2022-12-14	19:52:05	19:59:26	416783	6068f61c52d7168e0c8b049f	800897715	1	main_slash	7	advance_on_keypress_SLASH	154	stimuli_distractor_diamondtriangles.svg	stimuli_target_circletriangles.svg	13	yes	57	0	373
6.6.1	and	2022-12-14	19:52:05	19:59:29	419788	6068f61c52d7168e0c8b049f	800897715	1	main_slash	7	main_slash	155	stimuli_target_circletriangles.svg	stimuli_distractor_diamondtriangles.svg	5	yes	0	0	2000
6.6.1	and	2022-12-14	19:52:05	19:59:29	419788	6068f61c52d7168e0c8b049f	800897715	1	main_slash	7	advance_on_keypress_SLASH	156	stimuli_target_circletriangles.svg	stimuli_distractor_diamondtriangles.svg	5	yes	57	0	313
6.6.1	and	2022-12-14	19:52:05	19:59:32	422737	6068f61c52d7168e0c8b049f	800897715	1	main_slash	7	main_slash	157	stimuli_distractor_diamondtriangles.svg	stimuli_distractor_diamondtriangles.svg	40	no	0	1	2000
6.6.1	and	2022-12-14	19:52:05	19:59:32	422737	6068f61c52d7168e0c8b049f	800897715	1	main_slash	7	advance_on_keypress_SLASH	158	stimuli_distractor_diamondtriangles.svg	stimuli_distractor_diamondtriangles.svg	40	no	57	0	348
6.6.1	and	2022-12-14	19:52:05	19:59:33	424475	6068f61c52d7168e0c8b049f	800897715	1	main_slash	7	main_slash	159	stimuli_target_circlediamonds.svg	stimuli_distractor_diamondtriangles.svg	6	yes	53	1	755
6.6.1	and	2022-12-14	19:52:05	19:59:33	424475	6068f61c52d7168e0c8b049f	800897715	1	main_slash	7	advance_on_keypress_SLASH	160	stimuli_target_circlediamonds.svg	stimuli_distractor_diamondtriangles.svg	6	yes	57	0	271
6.6.1	and	2022-12-14	19:52:05	19:59:57	448253	6068f61c52d7168e0c8b049f	800897715	1	practice_z	9	practice_z	1	stimuli_target_diamondsquares.svg	stimuli_distractor_diamondtriangles.svg	3	yes	44	1	1164
6.6.1	and	2022-12-14	19:52:05	19:59:57	448253	6068f61c52d7168e0c8b049f	800897715	1	practice_z	9	advance_on_keypress_ZEE	2	stimuli_target_diamondsquares.svg	stimuli_distractor_diamondtriangles.svg	3	yes	57	0	612
6.6.1	and	2022-12-14	19:52:05	20:00:00	451161	6068f61c52d7168e0c8b049f	800897715	1	practice_z	9	practice_z	3	stimuli_distractor_trianglediamonds.svg	stimuli_target_squarediamonds.svg	11	yes	44	1	657
6.6.1	and	2022-12-14	19:52:05	20:00:00	451161	6068f61c52d7168e0c8b049f	800897715	1	practice_z	9	advance_on_keypress_ZEE	4	stimuli_distractor_trianglediamonds.svg	stimuli_target_squarediamonds.svg	11	yes	57	0	400
6.6.1	and	2022-12-14	19:52:05	20:00:03	454100	6068f61c52d7168e0c8b049f	800897715	1	practice_z	9	practice_z	5	stimuli_target_squarediamonds.svg	stimuli_distractor_diamondtriangles.svg	2	yes	44	1	893
6.6.1	and	2022-12-14	19:52:05	20:00:03	454100	6068f61c52d7168e0c8b049f	800897715	1	practice_z	9	advance_on_keypress_ZEE	6	stimuli_target_squarediamonds.svg	stimuli_distractor_diamondtriangles.svg	2	yes	57	0	454
6.6.1	and	2022-12-14	19:52:05	20:00:06	456941	6068f61c52d7168e0c8b049f	800897715	1	practice_z	9	practice_z	7	stimuli_distractor_trianglediamonds.svg	stimuli_target_diamondcircles.svg	12	yes	44	1	755
6.6.1	and	2022-12-14	19:52:05	20:00:06	456941	6068f61c52d7168e0c8b049f	800897715	1	practice_z	9	advance_on_keypress_ZEE	8	stimuli_distractor_trianglediamonds.svg	stimuli_target_diamondcircles.svg	12	yes	57	0	432
6.6.1	and	2022-12-14	19:52:05	20:00:09	459628	6068f61c52d7168e0c8b049f	800897715	1	practice_z	9	practice_z	9	stimuli_target_circlediamonds.svg	stimuli_distractor_diamondtriangles.svg	1	yes	44	1	627
6.6.1	and	2022-12-14	19:52:05	20:00:09	459628	6068f61c52d7168e0c8b049f	800897715	1	practice_z	9	advance_on_keypress_ZEE	10	stimuli_target_circlediamonds.svg	stimuli_distractor_diamondtriangles.svg	1	yes	57	0	652
6.6.1	and	2022-12-14	19:52:05	20:00:12	462787	6068f61c52d7168e0c8b049f	800897715	1	practice_z	9	practice_z	11	stimuli_distractor_diamondtriangles.svg	stimuli_target_diamondcircles.svg	8	yes	44	1	867
6.6.1	and	2022-12-14	19:52:05	20:00:12	462787	6068f61c52d7168e0c8b049f	800897715	1	practice_z	9	advance_on_keypress_ZEE	12	stimuli_distractor_diamondtriangles.svg	stimuli_target_diamondcircles.svg	8	yes	57	0	349
6.6.1	and	2022-12-14	19:52:05	20:00:15	465556	6068f61c52d7168e0c8b049f	800897715	1	practice_z	9	practice_z	13	stimuli_distractor_diamondtriangles.svg	stimuli_target_circletriangles.svg	7	yes	44	1	788
6.6.1	and	2022-12-14	19:52:05	20:00:15	465556	6068f61c52d7168e0c8b049f	800897715	1	practice_z	9	advance_on_keypress_ZEE	14	stimuli_distractor_diamondtriangles.svg	stimuli_target_circletriangles.svg	7	yes	57	0	456
6.6.1	and	2022-12-14	19:52:05	20:00:19	469636	6068f61c52d7168e0c8b049f	800897715	1	practice_z	9	practice_z	15	stimuli_distractor_diamondtriangles.svg	stimuli_distractor_trianglediamonds.svg	14	no	0	1	2000
6.6.1	and	2022-12-14	19:52:05	20:00:19	469636	6068f61c52d7168e0c8b049f	800897715	1	practice_z	9	advance_on_keypress_ZEE	16	stimuli_distractor_diamondtriangles.svg	stimuli_distractor_trianglediamonds.svg	14	no	57	0	333
6.6.1	and	2022-12-14	19:52:05	20:00:22	472664	6068f61c52d7168e0c8b049f	800897715	1	practice_z	9	practice_z	17	stimuli_distractor_diamondtriangles.svg	stimuli_target_trianglecircles.svg	9	yes	44	1	1062
6.6.1	and	2022-12-14	19:52:05	20:00:22	472664	6068f61c52d7168e0c8b049f	800897715	1	practice_z	9	advance_on_keypress_ZEE	18	stimuli_distractor_diamondtriangles.svg	stimuli_target_trianglecircles.svg	9	yes	57	0	514
6.6.1	and	2022-12-14	19:52:05	20:00:26	476820	6068f61c52d7168e0c8b049f	800897715	1	practice_z	9	practice_z	19	stimuli_distractor_trianglediamonds.svg	stimuli_distractor_trianglediamonds.svg	15	no	0	1	2000
6.6.1	and	2022-12-14	19:52:05	20:00:26	476820	6068f61c52d7168e0c8b049f	800897715	1	practice_z	9	advance_on_keypress_ZEE	20	stimuli_distractor_trianglediamonds.svg	stimuli_distractor_trianglediamonds.svg	15	no	57	0	453
6.6.1	and	2022-12-14	19:52:05	20:00:29	479878	6068f61c52d7168e0c8b049f	800897715	1	practice_z	9	practice_z	21	stimuli_distractor_trianglediamonds.svg	stimuli_target_circlediamonds.svg	10	yes	44	1	975
6.6.1	and	2022-12-14	19:52:05	20:00:29	479878	6068f61c52d7168e0c8b049f	800897715	1	practice_z	9	advance_on_keypress_ZEE	22	stimuli_distractor_trianglediamonds.svg	stimuli_target_circlediamonds.svg	10	yes	57	0	364
6.6.1	and	2022-12-14	19:52:05	20:00:33	483886	6068f61c52d7168e0c8b049f	800897715	1	practice_z	9	practice_z	23	stimuli_distractor_diamondtriangles.svg	stimuli_distractor_diamondtriangles.svg	13	no	0	1	2000
6.6.1	and	2022-12-14	19:52:05	20:00:33	483886	6068f61c52d7168e0c8b049f	800897715	1	practice_z	9	advance_on_keypress_ZEE	24	stimuli_distractor_diamondtriangles.svg	stimuli_distractor_diamondtriangles.svg	13	no	57	0	742
6.6.1	and	2022-12-14	19:52:05	20:00:36	486999	6068f61c52d7168e0c8b049f	800897715	1	practice_z	9	practice_z	25	stimuli_target_squarediamonds.svg	stimuli_distractor_trianglediamonds.svg	5	yes	44	1	748
6.6.1	and	2022-12-14	19:52:05	20:00:36	486999	6068f61c52d7168e0c8b049f	800897715	1	practice_z	9	advance_on_keypress_ZEE	26	stimuli_target_squarediamonds.svg	stimuli_distractor_trianglediamonds.svg	5	yes	57	0	526
6.6.1	and	2022-12-14	19:52:05	20:00:39	490248	6068f61c52d7168e0c8b049f	800897715	1	practice_z	9	practice_z	27	stimuli_target_circlediamonds.svg	stimuli_distractor_trianglediamonds.svg	4	yes	44	1	1081
6.6.1	and	2022-12-14	19:52:05	20:00:39	490248	6068f61c52d7168e0c8b049f	800897715	1	practice_z	9	advance_on_keypress_ZEE	28	stimuli_target_circlediamonds.svg	stimuli_distractor_trianglediamonds.svg	4	yes	57	0	506
6.6.1	and	2022-12-14	19:52:05	20:00:43	494385	6068f61c52d7168e0c8b049f	800897715	1	practice_z	9	practice_z	29	stimuli_distractor_trianglediamonds.svg	stimuli_distractor_diamondtriangles.svg	16	no	0	1	2000
6.6.1	and	2022-12-14	19:52:05	20:00:43	494385	6068f61c52d7168e0c8b049f	800897715	1	practice_z	9	advance_on_keypress_ZEE	30	stimuli_distractor_trianglediamonds.svg	stimuli_distractor_diamondtriangles.svg	16	no	57	0	266
6.6.1	and	2022-12-14	19:52:05	20:00:46	497337	6068f61c52d7168e0c8b049f	800897715	1	practice_z	9	practice_z	31	stimuli_target_diamondsquares.svg	stimuli_distractor_trianglediamonds.svg	6	yes	44	1	1053
6.6.1	and	2022-12-14	19:52:05	20:00:46	497337	6068f61c52d7168e0c8b049f	800897715	1	practice_z	9	advance_on_keypress_ZEE	32	stimuli_target_diamondsquares.svg	stimuli_distractor_trianglediamonds.svg	6	yes	57	0	818
6.6.1	and	2022-12-14	19:52:05	20:00:52	503393	6068f61c52d7168e0c8b049f	800897715	1	main_z	11	main_z	1	stimuli_distractor_diamondtriangles.svg	stimuli_distractor_diamondtriangles.svg	39	no	0	1	2000
6.6.1	and	2022-12-14	19:52:05	20:00:52	503393	6068f61c52d7168e0c8b049f	800897715	1	main_z	11	advance_on_keypress_ZEE	2	stimuli_distractor_diamondtriangles.svg	stimuli_distractor_diamondtriangles.svg	39	no	57	0	563
6.6.1	and	2022-12-14	19:52:05	20:00:55	505601	6068f61c52d7168e0c8b049f	800897715	1	main_z	11	main_z	3	stimuli_distractor_trianglediamonds.svg	stimuli_target_trianglecircles.svg	25	yes	44	1	1012
6.6.1	and	2022-12-14	19:52:05	20:00:55	505601	6068f61c52d7168e0c8b049f	800897715	1	main_z	11	advance_on_keypress_ZEE	4	stimuli_distractor_trianglediamonds.svg	stimuli_target_trianglecircles.svg	25	yes	57	0	362
6.6.1	and	2022-12-14	19:52:05	20:00:58	508600	6068f61c52d7168e0c8b049f	800897715	1	main_z	11	main_z	5	stimuli_distractor_diamondtriangles.svg	stimuli_target_diamondsquares.svg	32	yes	0	0	2000
6.6.1	and	2022-12-14	19:52:05	20:00:58	508600	6068f61c52d7168e0c8b049f	800897715	1	main_z	11	advance_on_keypress_ZEE	6	stimuli_distractor_diamondtriangles.svg	stimuli_target_diamondsquares.svg	32	yes	57	0	455
6.6.1	and	2022-12-14	19:52:05	20:01:01	511683	6068f61c52d7168e0c8b049f	800897715	1	main_z	11	main_z	7	stimuli_distractor_trianglediamonds.svg	stimuli_distractor_trianglediamonds.svg	34	no	0	1	2000
6.6.1	and	2022-12-14	19:52:05	20:01:01	511683	6068f61c52d7168e0c8b049f	800897715	1	main_z	11	advance_on_keypress_ZEE	8	stimuli_distractor_trianglediamonds.svg	stimuli_distractor_trianglediamonds.svg	34	no	57	0	365
6.6.1	and	2022-12-14	19:52:05	20:01:02	513309	6068f61c52d7168e0c8b049f	800897715	1	main_z	11	main_z	9	stimuli_target_trianglecircles.svg	stimuli_distractor_diamondtriangles.svg	21	yes	44	1	628
6.6.1	and	2022-12-14	19:52:05	20:01:02	513309	6068f61c52d7168e0c8b049f	800897715	1	main_z	11	advance_on_keypress_ZEE	10	stimuli_target_trianglecircles.svg	stimuli_distractor_diamondtriangles.svg	21	yes	57	0	332
6.6.1	and	2022-12-14	19:52:05	20:01:04	514900	6068f61c52d7168e0c8b049f	800897715	1	main_z	11	main_z	11	stimuli_distractor_diamondtriangles.svg	stimuli_target_trianglesquares.svg	30	yes	44	1	616
6.6.1	and	2022-12-14	19:52:05	20:01:04	514900	6068f61c52d7168e0c8b049f	800897715	1	main_z	11	advance_on_keypress_ZEE	12	stimuli_distractor_diamondtriangles.svg	stimuli_target_trianglesquares.svg	30	yes	57	0	621
6.6.1	and	2022-12-14	19:52:05	20:01:06	517066	6068f61c52d7168e0c8b049f	800897715	1	main_z	11	main_z	13	stimuli_distractor_trianglediamonds.svg	stimuli_target_trianglesquares.svg	26	yes	44	1	918
6.6.1	and	2022-12-14	19:52:05	20:01:06	517066	6068f61c52d7168e0c8b049f	800897715	1	main_z	11	advance_on_keypress_ZEE	14	stimuli_distractor_trianglediamonds.svg	stimuli_target_trianglesquares.svg	26	yes	57	0	293
6.6.1	and	2022-12-14	19:52:05	20:01:09	519502	6068f61c52d7168e0c8b049f	800897715	1	main_z	11	main_z	15	stimuli_distractor_diamondtriangles.svg	stimuli_target_circlediamonds.svg	14	yes	44	1	1519
6.6.1	and	2022-12-14	19:52:05	20:01:09	519502	6068f61c52d7168e0c8b049f	800897715	1	main_z	11	advance_on_keypress_ZEE	16	stimuli_distractor_diamondtriangles.svg	stimuli_target_circlediamonds.svg	14	yes	57	0	157
6.6.1	and	2022-12-14	19:52:05	20:01:10	521010	6068f61c52d7168e0c8b049f	800897715	1	main_z	11	main_z	17	stimuli_target_circletriangles.svg	stimuli_distractor_trianglediamonds.svg	1	yes	44	1	725
6.6.1	and	2022-12-14	19:52:05	20:01:10	521010	6068f61c52d7168e0c8b049f	800897715	1	main_z	11	advance_on_keypress_ZEE	18	stimuli_target_circletriangles.svg	stimuli_distractor_trianglediamonds.svg	1	yes	57	0	630
6.6.1	and	2022-12-14	19:52:05	20:01:12	523321	6068f61c52d7168e0c8b049f	800897715	1	main_z	11	main_z	19	stimuli_distractor_trianglediamonds.svg	stimuli_target_squaretriangles.svg	11	yes	44	1	1041
6.6.1	and	2022-12-14	19:52:05	20:01:12	523321	6068f61c52d7168e0c8b049f	800897715	1	main_z	11	advance_on_keypress_ZEE	20	stimuli_distractor_trianglediamonds.svg	stimuli_target_squaretriangles.svg	11	yes	57	0	222
6.6.1	and	2022-12-14	19:52:05	20:01:15	526165	6068f61c52d7168e0c8b049f	800897715	1	main_z	11	main_z	21	stimuli_distractor_diamondtriangles.svg	stimuli_distractor_trianglediamonds.svg	37	no	0	1	2000
6.6.1	and	2022-12-14	19:52:05	20:01:15	526165	6068f61c52d7168e0c8b049f	800897715	1	main_z	11	advance_on_keypress_ZEE	22	stimuli_distractor_diamondtriangles.svg	stimuli_distractor_trianglediamonds.svg	37	no	57	0	682
6.6.1	and	2022-12-14	19:52:05	20:01:18	528813	6068f61c52d7168e0c8b049f	800897715	1	main_z	11	main_z	23	stimuli_target_diamondcircles.svg	stimuli_distractor_trianglediamonds.svg	19	yes	44	1	1333
6.6.1	and	2022-12-14	19:52:05	20:01:18	528813	6068f61c52d7168e0c8b049f	800897715	1	main_z	11	advance_on_keypress_ZEE	24	stimuli_target_diamondcircles.svg	stimuli_distractor_trianglediamonds.svg	19	yes	57	0	584
6.6.1	and	2022-12-14	19:52:05	20:01:21	532031	6068f61c52d7168e0c8b049f	800897715	1	main_z	11	main_z	25	stimuli_distractor_diamondtriangles.svg	stimuli_distractor_diamondtriangles.svg	40	no	0	1	2000
6.6.1	and	2022-12-14	19:52:05	20:01:21	532031	6068f61c52d7168e0c8b049f	800897715	1	main_z	11	advance_on_keypress_ZEE	26	stimuli_distractor_diamondtriangles.svg	stimuli_distractor_diamondtriangles.svg	40	no	57	0	363
6.6.1	and	2022-12-14	19:52:05	20:01:24	535030	6068f61c52d7168e0c8b049f	800897715	1	main_z	11	main_z	27	stimuli_distractor_trianglediamonds.svg	stimuli_distractor_diamondtriangles.svg	35	no	0	1	2000
6.6.1	and	2022-12-14	19:52:05	20:01:24	535030	6068f61c52d7168e0c8b049f	800897715	1	main_z	11	advance_on_keypress_ZEE	28	stimuli_distractor_trianglediamonds.svg	stimuli_distractor_diamondtriangles.svg	35	no	57	0	299
6.6.1	and	2022-12-14	19:52:05	20:01:26	536867	6068f61c52d7168e0c8b049f	800897715	1	main_z	11	main_z	29	stimuli_target_circlediamonds.svg	stimuli_distractor_trianglediamonds.svg	2	yes	44	1	902
6.6.1	and	2022-12-14	19:52:05	20:01:26	536867	6068f61c52d7168e0c8b049f	800897715	1	main_z	11	advance_on_keypress_ZEE	30	stimuli_target_circlediamonds.svg	stimuli_distractor_trianglediamonds.svg	2	yes	57	0	1048
6.6.1	and	2022-12-14	19:52:05	20:01:30	540548	6068f61c52d7168e0c8b049f	800897715	1	main_z	11	main_z	31	stimuli_distractor_trianglediamonds.svg	stimuli_distractor_diamondtriangles.svg	36	no	0	1	2000
6.6.1	and	2022-12-14	19:52:05	20:01:30	540548	6068f61c52d7168e0c8b049f	800897715	1	main_z	11	advance_on_keypress_ZEE	32	stimuli_distractor_trianglediamonds.svg	stimuli_distractor_diamondtriangles.svg	36	no	57	0	446
6.6.1	and	2022-12-14	19:52:05	20:01:32	542665	6068f61c52d7168e0c8b049f	800897715	1	main_z	11	main_z	33	stimuli_distractor_trianglediamonds.svg	stimuli_target_circletriangles.svg	9	yes	44	1	1035
6.6.1	and	2022-12-14	19:52:05	20:01:32	542665	6068f61c52d7168e0c8b049f	800897715	1	main_z	11	advance_on_keypress_ZEE	34	stimuli_distractor_trianglediamonds.svg	stimuli_target_circletriangles.svg	9	yes	57	0	474
6.6.1	and	2022-12-14	19:52:05	20:01:34	545086	6068f61c52d7168e0c8b049f	800897715	1	main_z	11	main_z	35	stimuli_distractor_diamondtriangles.svg	stimuli_target_trianglecircles.svg	29	yes	44	1	1323
6.6.1	and	2022-12-14	19:52:05	20:01:34	545086	6068f61c52d7168e0c8b049f	800897715	1	main_z	11	advance_on_keypress_ZEE	36	stimuli_distractor_diamondtriangles.svg	stimuli_target_trianglecircles.svg	29	yes	57	0	242
6.6.1	and	2022-12-14	19:52:05	20:01:36	546660	6068f61c52d7168e0c8b049f	800897715	1	main_z	11	main_z	37	stimuli_target_diamondsquares.svg	stimuli_distractor_diamondtriangles.svg	24	yes	44	1	712
6.6.1	and	2022-12-14	19:52:05	20:01:36	546660	6068f61c52d7168e0c8b049f	800897715	1	main_z	11	advance_on_keypress_ZEE	38	stimuli_target_diamondsquares.svg	stimuli_distractor_diamondtriangles.svg	24	yes	57	0	1371
6.6.1	and	2022-12-14	19:52:05	20:01:39	549955	6068f61c52d7168e0c8b049f	800897715	1	main_z	11	main_z	39	stimuli_distractor_trianglediamonds.svg	stimuli_target_diamondsquares.svg	28	yes	44	1	1291
6.6.1	and	2022-12-14	19:52:05	20:01:39	549955	6068f61c52d7168e0c8b049f	800897715	1	main_z	11	advance_on_keypress_ZEE	40	stimuli_distractor_trianglediamonds.svg	stimuli_target_diamondsquares.svg	28	yes	57	0	368
6.6.1	and	2022-12-14	19:52:05	20:01:42	552949	6068f61c52d7168e0c8b049f	800897715	1	main_z	11	main_z	41	stimuli_distractor_trianglediamonds.svg	stimuli_distractor_trianglediamonds.svg	33	no	0	1	2000
6.6.1	and	2022-12-14	19:52:05	20:01:42	552949	6068f61c52d7168e0c8b049f	800897715	1	main_z	11	advance_on_keypress_ZEE	42	stimuli_distractor_trianglediamonds.svg	stimuli_distractor_trianglediamonds.svg	33	no	57	0	326
6.6.1	and	2022-12-14	19:52:05	20:01:44	554810	6068f61c52d7168e0c8b049f	800897715	1	main_z	11	main_z	43	stimuli_target_diamondcircles.svg	stimuli_distractor_diamondtriangles.svg	23	yes	44	1	896
6.6.1	and	2022-12-14	19:52:05	20:01:44	554810	6068f61c52d7168e0c8b049f	800897715	1	main_z	11	advance_on_keypress_ZEE	44	stimuli_target_diamondcircles.svg	stimuli_distractor_diamondtriangles.svg	23	yes	57	0	257
6.6.1	and	2022-12-14	19:52:05	20:01:46	557002	6068f61c52d7168e0c8b049f	800897715	1	main_z	11	main_z	45	stimuli_distractor_diamondtriangles.svg	stimuli_target_squaretriangles.svg	15	yes	44	1	1305
6.6.1	and	2022-12-14	19:52:05	20:01:46	557002	6068f61c52d7168e0c8b049f	800897715	1	main_z	11	advance_on_keypress_ZEE	46	stimuli_distractor_diamondtriangles.svg	stimuli_target_squaretriangles.svg	15	yes	57	0	158
6.6.1	and	2022-12-14	19:52:05	20:01:47	558364	6068f61c52d7168e0c8b049f	800897715	1	main_z	11	main_z	47	stimuli_target_squarediamonds.svg	stimuli_distractor_trianglediamonds.svg	4	yes	44	1	585
6.6.1	and	2022-12-14	19:52:05	20:01:47	558364	6068f61c52d7168e0c8b049f	800897715	1	main_z	11	advance_on_keypress_ZEE	48	stimuli_target_squarediamonds.svg	stimuli_distractor_trianglediamonds.svg	4	yes	57	0	4000
6.6.1	and	2022-12-14	19:52:05	20:01:53	563639	6068f61c52d7168e0c8b049f	800897715	1	main_z	11	main_z	49	stimuli_target_circletriangles.svg	stimuli_distractor_diamondtriangles.svg	5	yes	44	1	644
6.6.1	and	2022-12-14	19:52:05	20:01:53	563639	6068f61c52d7168e0c8b049f	800897715	1	main_z	11	advance_on_keypress_ZEE	50	stimuli_target_circletriangles.svg	stimuli_distractor_diamondtriangles.svg	5	yes	57	0	375
6.6.1	and	2022-12-14	19:52:05	20:01:55	565640	6068f61c52d7168e0c8b049f	800897715	1	main_z	11	main_z	51	stimuli_distractor_diamondtriangles.svg	stimuli_target_squarediamonds.svg	16	yes	44	1	995
6.6.1	and	2022-12-14	19:52:05	20:01:55	565640	6068f61c52d7168e0c8b049f	800897715	1	main_z	11	advance_on_keypress_ZEE	52	stimuli_distractor_diamondtriangles.svg	stimuli_target_squarediamonds.svg	16	yes	57	0	300
6.6.1	and	2022-12-14	19:52:05	20:01:57	567485	6068f61c52d7168e0c8b049f	800897715	1	main_z	11	main_z	53	stimuli_target_squarediamonds.svg	stimuli_distractor_diamondtriangles.svg	8	yes	44	1	906
6.6.1	and	2022-12-14	19:52:05	20:01:57	567485	6068f61c52d7168e0c8b049f	800897715	1	main_z	11	advance_on_keypress_ZEE	54	stimuli_target_squarediamonds.svg	stimuli_distractor_diamondtriangles.svg	8	yes	57	0	255
6.6.1	and	2022-12-14	19:52:05	20:01:58	568991	6068f61c52d7168e0c8b049f	800897715	1	main_z	11	main_z	55	stimuli_target_squaretriangles.svg	stimuli_distractor_trianglediamonds.svg	3	yes	44	1	629
6.6.1	and	2022-12-14	19:52:05	20:01:58	568991	6068f61c52d7168e0c8b049f	800897715	1	main_z	11	advance_on_keypress_ZEE	56	stimuli_target_squaretriangles.svg	stimuli_distractor_trianglediamonds.svg	3	yes	57	0	379
6.6.1	and	2022-12-14	19:52:05	20:02:00	571006	6068f61c52d7168e0c8b049f	800897715	1	main_z	11	main_z	57	stimuli_distractor_trianglediamonds.svg	stimuli_target_diamondcircles.svg	27	yes	44	1	994
6.6.1	and	2022-12-14	19:52:05	20:02:00	571006	6068f61c52d7168e0c8b049f	800897715	1	main_z	11	advance_on_keypress_ZEE	58	stimuli_distractor_trianglediamonds.svg	stimuli_target_diamondcircles.svg	27	yes	57	0	308
6.6.1	and	2022-12-14	19:52:05	20:02:02	572636	6068f61c52d7168e0c8b049f	800897715	1	main_z	11	main_z	59	stimuli_target_trianglecircles.svg	stimuli_distractor_trianglediamonds.svg	17	yes	44	1	691
6.6.1	and	2022-12-14	19:52:05	20:02:02	572636	6068f61c52d7168e0c8b049f	800897715	1	main_z	11	advance_on_keypress_ZEE	60	stimuli_target_trianglecircles.svg	stimuli_distractor_trianglediamonds.svg	17	yes	57	0	367
6.6.1	and	2022-12-14	19:52:05	20:02:03	574392	6068f61c52d7168e0c8b049f	800897715	1	main_z	11	main_z	61	stimuli_distractor_trianglediamonds.svg	stimuli_target_circlediamonds.svg	10	yes	44	1	762
6.6.1	and	2022-12-14	19:52:05	20:02:03	574392	6068f61c52d7168e0c8b049f	800897715	1	main_z	11	advance_on_keypress_ZEE	62	stimuli_distractor_trianglediamonds.svg	stimuli_target_circlediamonds.svg	10	yes	57	0	278
6.6.1	and	2022-12-14	19:52:05	20:02:05	576085	6068f61c52d7168e0c8b049f	800897715	1	main_z	11	main_z	63	stimuli_target_diamondsquares.svg	stimuli_distractor_trianglediamonds.svg	20	yes	44	1	773
6.6.1	and	2022-12-14	19:52:05	20:02:05	576085	6068f61c52d7168e0c8b049f	800897715	1	main_z	11	advance_on_keypress_ZEE	64	stimuli_target_diamondsquares.svg	stimuli_distractor_trianglediamonds.svg	20	yes	57	0	258
6.6.1	and	2022-12-14	19:52:05	20:02:07	577756	6068f61c52d7168e0c8b049f	800897715	1	main_z	11	main_z	65	stimuli_distractor_trianglediamonds.svg	stimuli_target_squarediamonds.svg	12	yes	44	1	791
6.6.1	and	2022-12-14	19:52:05	20:02:07	577756	6068f61c52d7168e0c8b049f	800897715	1	main_z	11	advance_on_keypress_ZEE	66	stimuli_distractor_trianglediamonds.svg	stimuli_target_squarediamonds.svg	12	yes	57	0	240
6.6.1	and	2022-12-14	19:52:05	20:02:08	579415	6068f61c52d7168e0c8b049f	800897715	1	main_z	11	main_z	67	stimuli_distractor_diamondtriangles.svg	stimuli_target_diamondcircles.svg	31	yes	44	1	784
6.6.1	and	2022-12-14	19:52:05	20:02:08	579415	6068f61c52d7168e0c8b049f	800897715	1	main_z	11	advance_on_keypress_ZEE	68	stimuli_distractor_diamondtriangles.svg	stimuli_target_diamondcircles.svg	31	yes	57	0	256
6.6.1	and	2022-12-14	19:52:05	20:02:10	580940	6068f61c52d7168e0c8b049f	800897715	1	main_z	11	main_z	69	stimuli_target_trianglesquares.svg	stimuli_distractor_diamondtriangles.svg	22	yes	44	1	643
6.6.1	and	2022-12-14	19:52:05	20:02:10	580940	6068f61c52d7168e0c8b049f	800897715	1	main_z	11	advance_on_keypress_ZEE	70	stimuli_target_trianglesquares.svg	stimuli_distractor_diamondtriangles.svg	22	yes	57	0	209
6.6.1	and	2022-12-14	19:52:05	20:02:12	582654	6068f61c52d7168e0c8b049f	800897715	1	main_z	11	main_z	71	stimuli_target_squaretriangles.svg	stimuli_distractor_diamondtriangles.svg	7	yes	44	1	875
6.6.1	and	2022-12-14	19:52:05	20:02:12	582654	6068f61c52d7168e0c8b049f	800897715	1	main_z	11	advance_on_keypress_ZEE	72	stimuli_target_squaretriangles.svg	stimuli_distractor_diamondtriangles.svg	7	yes	57	0	213
6.6.1	and	2022-12-14	19:52:05	20:02:13	584069	6068f61c52d7168e0c8b049f	800897715	1	main_z	11	main_z	73	stimuli_target_circlediamonds.svg	stimuli_distractor_diamondtriangles.svg	6	yes	44	1	556
6.6.1	and	2022-12-14	19:52:05	20:02:13	584069	6068f61c52d7168e0c8b049f	800897715	1	main_z	11	advance_on_keypress_ZEE	74	stimuli_target_circlediamonds.svg	stimuli_distractor_diamondtriangles.svg	6	yes	57	0	466
6.6.1	and	2022-12-14	19:52:05	20:02:15	585786	6068f61c52d7168e0c8b049f	800897715	1	main_z	11	main_z	75	stimuli_distractor_diamondtriangles.svg	stimuli_target_circletriangles.svg	13	yes	44	1	625
6.6.1	and	2022-12-14	19:52:05	20:02:15	585786	6068f61c52d7168e0c8b049f	800897715	1	main_z	11	advance_on_keypress_ZEE	76	stimuli_distractor_diamondtriangles.svg	stimuli_target_circletriangles.svg	13	yes	57	0	317
6.6.1	and	2022-12-14	19:52:05	20:02:16	587364	6068f61c52d7168e0c8b049f	800897715	1	main_z	11	main_z	77	stimuli_target_trianglesquares.svg	stimuli_distractor_trianglediamonds.svg	18	yes	44	1	630
6.6.1	and	2022-12-14	19:52:05	20:02:16	587364	6068f61c52d7168e0c8b049f	800897715	1	main_z	11	advance_on_keypress_ZEE	78	stimuli_target_trianglesquares.svg	stimuli_distractor_trianglediamonds.svg	18	yes	57	0	406
6.6.1	and	2022-12-14	19:52:05	20:02:19	590397	6068f61c52d7168e0c8b049f	800897715	1	main_z	11	main_z	79	stimuli_distractor_diamondtriangles.svg	stimuli_distractor_trianglediamonds.svg	38	no	0	1	2000
6.6.1	and	2022-12-14	19:52:05	20:02:19	590397	6068f61c52d7168e0c8b049f	800897715	1	main_z	11	advance_on_keypress_ZEE	80	stimuli_distractor_diamondtriangles.svg	stimuli_distractor_trianglediamonds.svg	38	no	57	0	785
6.6.1	and	2022-12-14	19:52:05	20:02:22	592425	6068f61c52d7168e0c8b049f	800897715	1	main_z	11	main_z	81	stimuli_distractor_trianglediamonds.svg	stimuli_target_circletriangles.svg	9	yes	44	1	615
6.6.1	and	2022-12-14	19:52:05	20:02:22	592425	6068f61c52d7168e0c8b049f	800897715	1	main_z	11	advance_on_keypress_ZEE	82	stimuli_distractor_trianglediamonds.svg	stimuli_target_circletriangles.svg	9	yes	57	0	282
6.6.1	and	2022-12-14	19:52:05	20:02:23	594035	6068f61c52d7168e0c8b049f	800897715	1	main_z	11	main_z	83	stimuli_distractor_diamondtriangles.svg	stimuli_target_circlediamonds.svg	14	yes	44	1	690
6.6.1	and	2022-12-14	19:52:05	20:02:23	594035	6068f61c52d7168e0c8b049f	800897715	1	main_z	11	advance_on_keypress_ZEE	84	stimuli_distractor_diamondtriangles.svg	stimuli_target_circlediamonds.svg	14	yes	57	0	246
6.6.1	and	2022-12-14	19:52:05	20:02:25	595481	6068f61c52d7168e0c8b049f	800897715	1	main_z	11	main_z	85	stimuli_distractor_diamondtriangles.svg	stimuli_target_trianglecircles.svg	29	yes	44	1	567
6.6.1	and	2022-12-14	19:52:05	20:02:25	595481	6068f61c52d7168e0c8b049f	800897715	1	main_z	11	advance_on_keypress_ZEE	86	stimuli_distractor_diamondtriangles.svg	stimuli_target_trianglecircles.svg	29	yes	57	0	282
6.6.1	and	2022-12-14	19:52:05	20:02:26	596948	6068f61c52d7168e0c8b049f	800897715	1	main_z	11	main_z	87	stimuli_distractor_diamondtriangles.svg	stimuli_target_circletriangles.svg	13	yes	44	1	554
6.6.1	and	2022-12-14	19:52:05	20:02:26	596948	6068f61c52d7168e0c8b049f	800897715	1	main_z	11	advance_on_keypress_ZEE	88	stimuli_distractor_diamondtriangles.svg	stimuli_target_circletriangles.svg	13	yes	57	0	222
6.6.1	and	2022-12-14	19:52:05	20:02:27	598243	6068f61c52d7168e0c8b049f	800897715	1	main_z	11	main_z	89	stimuli_target_squarediamonds.svg	stimuli_distractor_diamondtriangles.svg	8	yes	44	1	448
6.6.1	and	2022-12-14	19:52:05	20:02:27	598243	6068f61c52d7168e0c8b049f	800897715	1	main_z	11	advance_on_keypress_ZEE	90	stimuli_target_squarediamonds.svg	stimuli_distractor_diamondtriangles.svg	8	yes	57	0	226
6.6.1	and	2022-12-14	19:52:05	20:02:30	601094	6068f61c52d7168e0c8b049f	800897715	1	main_z	11	main_z	91	stimuli_distractor_diamondtriangles.svg	stimuli_distractor_diamondtriangles.svg	40	no	0	1	2000
6.6.1	and	2022-12-14	19:52:05	20:02:30	601094	6068f61c52d7168e0c8b049f	800897715	1	main_z	11	advance_on_keypress_ZEE	92	stimuli_distractor_diamondtriangles.svg	stimuli_distractor_diamondtriangles.svg	40	no	57	0	321
6.6.1	and	2022-12-14	19:52:05	20:02:32	602530	6068f61c52d7168e0c8b049f	800897715	1	main_z	11	main_z	93	stimuli_target_circlediamonds.svg	stimuli_distractor_diamondtriangles.svg	6	yes	44	1	486
6.6.1	and	2022-12-14	19:52:05	20:02:32	602530	6068f61c52d7168e0c8b049f	800897715	1	main_z	11	advance_on_keypress_ZEE	94	stimuli_target_circlediamonds.svg	stimuli_distractor_diamondtriangles.svg	6	yes	57	0	175
6.6.1	and	2022-12-14	19:52:05	20:02:33	604049	6068f61c52d7168e0c8b049f	800897715	1	main_z	11	main_z	95	stimuli_distractor_diamondtriangles.svg	stimuli_distractor_trianglediamonds.svg	37	no	44	0	722
6.6.1	and	2022-12-14	19:52:05	20:02:33	604049	6068f61c52d7168e0c8b049f	800897715	1	main_z	11	advance_on_keypress_ZEE	96	stimuli_distractor_diamondtriangles.svg	stimuli_distractor_trianglediamonds.svg	37	no	57	0	309
6.6.1	and	2022-12-14	19:52:05	20:02:35	605578	6068f61c52d7168e0c8b049f	800897715	1	main_z	11	main_z	97	stimuli_target_trianglecircles.svg	stimuli_distractor_diamondtriangles.svg	21	yes	44	1	602
6.6.1	and	2022-12-14	19:52:05	20:02:35	605578	6068f61c52d7168e0c8b049f	800897715	1	main_z	11	advance_on_keypress_ZEE	98	stimuli_target_trianglecircles.svg	stimuli_distractor_diamondtriangles.svg	21	yes	57	0	287
6.6.1	and	2022-12-14	19:52:05	20:02:36	606951	6068f61c52d7168e0c8b049f	800897715	1	main_z	11	main_z	99	stimuli_target_trianglesquares.svg	stimuli_distractor_diamondtriangles.svg	22	yes	44	1	457
6.6.1	and	2022-12-14	19:52:05	20:02:36	606951	6068f61c52d7168e0c8b049f	800897715	1	main_z	11	advance_on_keypress_ZEE	100	stimuli_target_trianglesquares.svg	stimuli_distractor_diamondtriangles.svg	22	yes	57	0	535
6.6.1	and	2022-12-14	19:52:05	20:02:39	610112	6068f61c52d7168e0c8b049f	800897715	1	main_z	11	main_z	101	stimuli_distractor_trianglediamonds.svg	stimuli_distractor_trianglediamonds.svg	34	no	0	1	2000
6.6.1	and	2022-12-14	19:52:05	20:02:39	610112	6068f61c52d7168e0c8b049f	800897715	1	main_z	11	advance_on_keypress_ZEE	102	stimuli_distractor_trianglediamonds.svg	stimuli_distractor_trianglediamonds.svg	34	no	57	0	2409
6.6.1	and	2022-12-14	19:52:05	20:02:43	613861	6068f61c52d7168e0c8b049f	800897715	1	main_z	11	main_z	103	stimuli_distractor_trianglediamonds.svg	stimuli_target_squaretriangles.svg	11	yes	44	1	699
6.6.1	and	2022-12-14	19:52:05	20:02:43	613861	6068f61c52d7168e0c8b049f	800897715	1	main_z	11	advance_on_keypress_ZEE	104	stimuli_distractor_trianglediamonds.svg	stimuli_target_squaretriangles.svg	11	yes	57	0	257
6.6.1	and	2022-12-14	19:52:05	20:02:45	615452	6068f61c52d7168e0c8b049f	800897715	1	main_z	11	main_z	105	stimuli_distractor_diamondtriangles.svg	stimuli_target_squarediamonds.svg	16	yes	44	1	708
6.6.1	and	2022-12-14	19:52:05	20:02:45	615452	6068f61c52d7168e0c8b049f	800897715	1	main_z	11	advance_on_keypress_ZEE	106	stimuli_distractor_diamondtriangles.svg	stimuli_target_squarediamonds.svg	16	yes	57	0	241
6.6.1	and	2022-12-14	19:52:05	20:02:47	618327	6068f61c52d7168e0c8b049f	800897715	1	main_z	11	main_z	107	stimuli_distractor_trianglediamonds.svg	stimuli_distractor_diamondtriangles.svg	36	no	0	1	2000
6.6.1	and	2022-12-14	19:52:05	20:02:47	618327	6068f61c52d7168e0c8b049f	800897715	1	main_z	11	advance_on_keypress_ZEE	108	stimuli_distractor_trianglediamonds.svg	stimuli_distractor_diamondtriangles.svg	36	no	57	0	480
6.6.1	and	2022-12-14	19:52:05	20:02:49	620038	6068f61c52d7168e0c8b049f	800897715	1	main_z	11	main_z	109	stimuli_target_trianglesquares.svg	stimuli_distractor_trianglediamonds.svg	18	yes	44	1	594
6.6.1	and	2022-12-14	19:52:05	20:02:49	620038	6068f61c52d7168e0c8b049f	800897715	1	main_z	11	advance_on_keypress_ZEE	110	stimuli_target_trianglesquares.svg	stimuli_distractor_trianglediamonds.svg	18	yes	57	0	229
6.6.1	and	2022-12-14	19:52:05	20:02:51	621793	6068f61c52d7168e0c8b049f	800897715	1	main_z	11	main_z	111	stimuli_target_circlediamonds.svg	stimuli_distractor_trianglediamonds.svg	2	yes	44	1	883
6.6.1	and	2022-12-14	19:52:05	20:02:51	621793	6068f61c52d7168e0c8b049f	800897715	1	main_z	11	advance_on_keypress_ZEE	112	stimuli_target_circlediamonds.svg	stimuli_distractor_trianglediamonds.svg	2	yes	57	0	256
6.6.1	and	2022-12-14	19:52:05	20:02:52	623291	6068f61c52d7168e0c8b049f	800897715	1	main_z	11	main_z	113	stimuli_target_diamondsquares.svg	stimuli_distractor_trianglediamonds.svg	20	yes	44	1	614
6.6.1	and	2022-12-14	19:52:05	20:02:52	623291	6068f61c52d7168e0c8b049f	800897715	1	main_z	11	advance_on_keypress_ZEE	114	stimuli_target_diamondsquares.svg	stimuli_distractor_trianglediamonds.svg	20	yes	57	0	240
6.6.1	and	2022-12-14	19:52:05	20:02:54	624740	6068f61c52d7168e0c8b049f	800897715	1	main_z	11	main_z	115	stimuli_distractor_trianglediamonds.svg	stimuli_target_trianglesquares.svg	26	yes	44	1	579
6.6.1	and	2022-12-14	19:52:05	20:02:54	624740	6068f61c52d7168e0c8b049f	800897715	1	main_z	11	advance_on_keypress_ZEE	116	stimuli_distractor_trianglediamonds.svg	stimuli_target_trianglesquares.svg	26	yes	57	0	215
6.6.1	and	2022-12-14	19:52:05	20:02:55	626080	6068f61c52d7168e0c8b049f	800897715	1	main_z	11	main_z	117	stimuli_target_trianglecircles.svg	stimuli_distractor_trianglediamonds.svg	17	yes	44	1	487
6.6.1	and	2022-12-14	19:52:05	20:02:55	626080	6068f61c52d7168e0c8b049f	800897715	1	main_z	11	advance_on_keypress_ZEE	118	stimuli_target_trianglecircles.svg	stimuli_distractor_trianglediamonds.svg	17	yes	57	0	207
6.6.1	and	2022-12-14	19:52:05	20:02:57	627438	6068f61c52d7168e0c8b049f	800897715	1	main_z	11	main_z	119	stimuli_target_diamondcircles.svg	stimuli_distractor_diamondtriangles.svg	23	yes	44	1	530
6.6.1	and	2022-12-14	19:52:05	20:02:57	627438	6068f61c52d7168e0c8b049f	800897715	1	main_z	11	advance_on_keypress_ZEE	120	stimuli_target_diamondcircles.svg	stimuli_distractor_diamondtriangles.svg	23	yes	57	0	244
6.6.1	and	2022-12-14	19:52:05	20:02:58	628996	6068f61c52d7168e0c8b049f	800897715	1	main_z	11	main_z	121	stimuli_distractor_trianglediamonds.svg	stimuli_target_diamondsquares.svg	28	yes	44	1	669
6.6.1	and	2022-12-14	19:52:05	20:02:58	628996	6068f61c52d7168e0c8b049f	800897715	1	main_z	11	advance_on_keypress_ZEE	122	stimuli_distractor_trianglediamonds.svg	stimuli_target_diamondsquares.svg	28	yes	57	0	226
6.6.1	and	2022-12-14	19:52:05	20:03:00	630535	6068f61c52d7168e0c8b049f	800897715	1	main_z	11	main_z	123	stimuli_distractor_trianglediamonds.svg	stimuli_target_squarediamonds.svg	12	yes	44	1	690
6.6.1	and	2022-12-14	19:52:05	20:03:00	630535	6068f61c52d7168e0c8b049f	800897715	1	main_z	11	advance_on_keypress_ZEE	124	stimuli_distractor_trianglediamonds.svg	stimuli_target_squarediamonds.svg	12	yes	57	0	232
6.6.1	and	2022-12-14	19:52:05	20:03:01	631851	6068f61c52d7168e0c8b049f	800897715	1	main_z	11	main_z	125	stimuli_distractor_diamondtriangles.svg	stimuli_target_diamondcircles.svg	31	yes	44	1	455
6.6.1	and	2022-12-14	19:52:05	20:03:01	631851	6068f61c52d7168e0c8b049f	800897715	1	main_z	11	advance_on_keypress_ZEE	126	stimuli_distractor_diamondtriangles.svg	stimuli_target_diamondcircles.svg	31	yes	57	0	150
6.6.1	and	2022-12-14	19:52:05	20:03:04	634628	6068f61c52d7168e0c8b049f	800897715	1	main_z	11	main_z	127	stimuli_distractor_diamondtriangles.svg	stimuli_distractor_diamondtriangles.svg	39	no	0	1	2000
6.6.1	and	2022-12-14	19:52:05	20:03:04	634628	6068f61c52d7168e0c8b049f	800897715	1	main_z	11	advance_on_keypress_ZEE	128	stimuli_distractor_diamondtriangles.svg	stimuli_distractor_diamondtriangles.svg	39	no	57	0	301
6.6.1	and	2022-12-14	19:52:05	20:03:05	636157	6068f61c52d7168e0c8b049f	800897715	1	main_z	11	main_z	129	stimuli_distractor_diamondtriangles.svg	stimuli_target_squaretriangles.svg	15	yes	44	1	598
6.6.1	and	2022-12-14	19:52:05	20:03:05	636157	6068f61c52d7168e0c8b049f	800897715	1	main_z	11	advance_on_keypress_ZEE	130	stimuli_distractor_diamondtriangles.svg	stimuli_target_squaretriangles.svg	15	yes	57	0	161
6.6.1	and	2022-12-14	19:52:05	20:03:07	637688	6068f61c52d7168e0c8b049f	800897715	1	main_z	11	main_z	131	stimuli_target_diamondsquares.svg	stimuli_distractor_diamondtriangles.svg	24	yes	44	1	728
6.6.1	and	2022-12-14	19:52:05	20:03:07	637688	6068f61c52d7168e0c8b049f	800897715	1	main_z	11	advance_on_keypress_ZEE	132	stimuli_target_diamondsquares.svg	stimuli_distractor_diamondtriangles.svg	24	yes	57	0	166
6.6.1	and	2022-12-14	19:52:05	20:03:10	640493	6068f61c52d7168e0c8b049f	800897715	1	main_z	11	main_z	133	stimuli_target_squarediamonds.svg	stimuli_distractor_trianglediamonds.svg	4	yes	0	0	2000
6.6.1	and	2022-12-14	19:52:05	20:03:10	640493	6068f61c52d7168e0c8b049f	800897715	1	main_z	11	advance_on_keypress_ZEE	134	stimuli_target_squarediamonds.svg	stimuli_distractor_trianglediamonds.svg	4	yes	57	0	909
6.6.1	and	2022-12-14	19:52:05	20:03:13	644025	6068f61c52d7168e0c8b049f	800897715	1	main_z	11	main_z	135	stimuli_distractor_trianglediamonds.svg	stimuli_distractor_diamondtriangles.svg	35	no	0	1	2000
6.6.1	and	2022-12-14	19:52:05	20:03:13	644025	6068f61c52d7168e0c8b049f	800897715	1	main_z	11	advance_on_keypress_ZEE	136	stimuli_distractor_trianglediamonds.svg	stimuli_distractor_diamondtriangles.svg	35	no	57	0	735
6.6.1	and	2022-12-14	19:52:05	20:03:15	645898	6068f61c52d7168e0c8b049f	800897715	1	main_z	11	main_z	137	stimuli_target_squaretriangles.svg	stimuli_distractor_trianglediamonds.svg	3	yes	44	1	506
6.6.1	and	2022-12-14	19:52:05	20:03:15	645898	6068f61c52d7168e0c8b049f	800897715	1	main_z	11	advance_on_keypress_ZEE	138	stimuli_target_squaretriangles.svg	stimuli_distractor_trianglediamonds.svg	3	yes	57	0	189
6.6.1	and	2022-12-14	19:52:05	20:03:18	648727	6068f61c52d7168e0c8b049f	800897715	1	main_z	11	main_z	139	stimuli_target_diamondcircles.svg	stimuli_distractor_trianglediamonds.svg	19	yes	0	0	2000
6.6.1	and	2022-12-14	19:52:05	20:03:18	648727	6068f61c52d7168e0c8b049f	800897715	1	main_z	11	advance_on_keypress_ZEE	140	stimuli_target_diamondcircles.svg	stimuli_distractor_trianglediamonds.svg	19	yes	57	0	295
6.6.1	and	2022-12-14	19:52:05	20:03:21	651660	6068f61c52d7168e0c8b049f	800897715	1	main_z	11	main_z	141	stimuli_distractor_trianglediamonds.svg	stimuli_distractor_trianglediamonds.svg	33	no	0	1	2000
6.6.1	and	2022-12-14	19:52:05	20:03:21	651660	6068f61c52d7168e0c8b049f	800897715	1	main_z	11	advance_on_keypress_ZEE	142	stimuli_distractor_trianglediamonds.svg	stimuli_distractor_trianglediamonds.svg	33	no	57	0	435
6.6.1	and	2022-12-14	19:52:05	20:03:23	653469	6068f61c52d7168e0c8b049f	800897715	1	main_z	11	main_z	143	stimuli_distractor_trianglediamonds.svg	stimuli_target_circlediamonds.svg	10	yes	44	1	746
6.6.1	and	2022-12-14	19:52:05	20:03:23	653469	6068f61c52d7168e0c8b049f	800897715	1	main_z	11	advance_on_keypress_ZEE	144	stimuli_distractor_trianglediamonds.svg	stimuli_target_circlediamonds.svg	10	yes	57	0	209
6.6.1	and	2022-12-14	19:52:05	20:03:24	655151	6068f61c52d7168e0c8b049f	800897715	1	main_z	11	main_z	145	stimuli_distractor_diamondtriangles.svg	stimuli_target_diamondsquares.svg	32	yes	44	1	825
6.6.1	and	2022-12-14	19:52:05	20:03:24	655151	6068f61c52d7168e0c8b049f	800897715	1	main_z	11	advance_on_keypress_ZEE	146	stimuli_distractor_diamondtriangles.svg	stimuli_target_diamondsquares.svg	32	yes	57	0	148
6.6.1	and	2022-12-14	19:52:05	20:03:26	656516	6068f61c52d7168e0c8b049f	800897715	1	main_z	11	main_z	147	stimuli_distractor_trianglediamonds.svg	stimuli_target_trianglecircles.svg	25	yes	44	1	589
6.6.1	and	2022-12-14	19:52:05	20:03:26	656516	6068f61c52d7168e0c8b049f	800897715	1	main_z	11	advance_on_keypress_ZEE	148	stimuli_distractor_trianglediamonds.svg	stimuli_target_trianglecircles.svg	25	yes	57	0	214
6.6.1	and	2022-12-14	19:52:05	20:03:27	658069	6068f61c52d7168e0c8b049f	800897715	1	main_z	11	main_z	149	stimuli_target_squaretriangles.svg	stimuli_distractor_diamondtriangles.svg	7	yes	44	1	711
6.6.1	and	2022-12-14	19:52:05	20:03:27	658069	6068f61c52d7168e0c8b049f	800897715	1	main_z	11	advance_on_keypress_ZEE	150	stimuli_target_squaretriangles.svg	stimuli_distractor_diamondtriangles.svg	7	yes	57	0	191
6.6.1	and	2022-12-14	19:52:05	20:03:29	659509	6068f61c52d7168e0c8b049f	800897715	1	main_z	11	main_z	151	stimuli_target_circletriangles.svg	stimuli_distractor_trianglediamonds.svg	1	yes	44	1	616
6.6.1	and	2022-12-14	19:52:05	20:03:29	659509	6068f61c52d7168e0c8b049f	800897715	1	main_z	11	advance_on_keypress_ZEE	152	stimuli_target_circletriangles.svg	stimuli_distractor_trianglediamonds.svg	1	yes	57	0	266
6.6.1	and	2022-12-14	19:52:05	20:03:31	661687	6068f61c52d7168e0c8b049f	800897715	1	main_z	11	main_z	153	stimuli_distractor_trianglediamonds.svg	stimuli_target_diamondcircles.svg	27	yes	44	1	1279
6.6.1	and	2022-12-14	19:52:05	20:03:31	661687	6068f61c52d7168e0c8b049f	800897715	1	main_z	11	advance_on_keypress_ZEE	154	stimuli_distractor_trianglediamonds.svg	stimuli_target_diamondcircles.svg	27	yes	57	0	112
6.6.1	and	2022-12-14	19:52:05	20:03:33	663488	6068f61c52d7168e0c8b049f	800897715	1	main_z	11	main_z	155	stimuli_distractor_diamondtriangles.svg	stimuli_distractor_trianglediamonds.svg	38	no	44	0	1046
6.6.1	and	2022-12-14	19:52:05	20:03:33	663488	6068f61c52d7168e0c8b049f	800897715	1	main_z	11	advance_on_keypress_ZEE	156	stimuli_distractor_diamondtriangles.svg	stimuli_distractor_trianglediamonds.svg	38	no	57	0	132
6.6.1	and	2022-12-14	19:52:05	20:03:34	664833	6068f61c52d7168e0c8b049f	800897715	1	main_z	11	main_z	157	stimuli_target_circletriangles.svg	stimuli_distractor_diamondtriangles.svg	5	yes	44	1	573
6.6.1	and	2022-12-14	19:52:05	20:03:34	664833	6068f61c52d7168e0c8b049f	800897715	1	main_z	11	advance_on_keypress_ZEE	158	stimuli_target_circletriangles.svg	stimuli_distractor_diamondtriangles.svg	5	yes	57	0	133
6.6.1	and	2022-12-14	19:52:05	20:03:36	666484	6068f61c52d7168e0c8b049f	800897715	1	main_z	11	main_z	159	stimuli_distractor_diamondtriangles.svg	stimuli_target_trianglesquares.svg	30	yes	44	1	892
6.6.1	and	2022-12-14	19:52:05	20:03:36	666484	6068f61c52d7168e0c8b049f	800897715	1	main_z	11	advance_on_keypress_ZEE	160	stimuli_distractor_diamondtriangles.svg	stimuli_target_trianglesquares.svg	30	yes	57	0	120