build	computer.platform	date	time	timestamp	time_elapsed_ms	subject	group	session	blockcode	blocknum	trialcode	trialnum	stimulus_left	stimulus_right	stim_index	target_present	response	correct	latency
6.6.1	win	2022-12-14	11:26:11	11:30:49	277129	5dee896cf87f5552d3cd6502	899467267	1	practice_slash	5	practice_slash	1	stimuli_distractor_trianglediamonds.svg	stimuli_target_circlediamonds.svg	10	yes	53	1	950
6.6.1	win	2022-12-14	11:26:11	11:30:49	277129	5dee896cf87f5552d3cd6502	899467267	1	practice_slash	5	advance_on_keypress_SLASH	2	stimuli_distractor_trianglediamonds.svg	stimuli_target_circlediamonds.svg	10	yes	57	0	1973
6.6.1	win	2022-12-14	11:26:11	11:30:54	282724	5dee896cf87f5552d3cd6502	899467267	1	practice_slash	5	practice_slash	3	stimuli_distractor_diamondtriangles.svg	stimuli_distractor_trianglediamonds.svg	14	no	0	1	2003
6.6.1	win	2022-12-14	11:26:11	11:30:54	282724	5dee896cf87f5552d3cd6502	899467267	1	practice_slash	5	advance_on_keypress_SLASH	4	stimuli_distractor_diamondtriangles.svg	stimuli_distractor_trianglediamonds.svg	14	no	57	0	909
6.6.1	win	2022-12-14	11:26:11	11:30:58	286424	5dee896cf87f5552d3cd6502	899467267	1	practice_slash	5	practice_slash	5	stimuli_target_circlediamonds.svg	stimuli_distractor_diamondtriangles.svg	1	yes	53	1	1174
6.6.1	win	2022-12-14	11:26:11	11:30:58	286424	5dee896cf87f5552d3cd6502	899467267	1	practice_slash	5	advance_on_keypress_SLASH	6	stimuli_target_circlediamonds.svg	stimuli_distractor_diamondtriangles.svg	1	yes	57	0	705
6.6.1	win	2022-12-14	11:26:11	11:31:01	289770	5dee896cf87f5552d3cd6502	899467267	1	practice_slash	5	practice_slash	7	stimuli_distractor_diamondtriangles.svg	stimuli_target_trianglecircles.svg	9	yes	53	1	1027
6.6.1	win	2022-12-14	11:26:11	11:31:01	289770	5dee896cf87f5552d3cd6502	899467267	1	practice_slash	5	advance_on_keypress_SLASH	8	stimuli_distractor_diamondtriangles.svg	stimuli_target_trianglecircles.svg	9	yes	57	0	767
6.6.1	win	2022-12-14	11:26:11	11:31:05	293048	5dee896cf87f5552d3cd6502	899467267	1	practice_slash	5	practice_slash	9	stimuli_distractor_diamondtriangles.svg	stimuli_target_diamondcircles.svg	8	yes	53	1	889
6.6.1	win	2022-12-14	11:26:11	11:31:05	293048	5dee896cf87f5552d3cd6502	899467267	1	practice_slash	5	advance_on_keypress_SLASH	10	stimuli_distractor_diamondtriangles.svg	stimuli_target_diamondcircles.svg	8	yes	57	0	805
6.6.1	win	2022-12-14	11:26:11	11:31:08	296669	5dee896cf87f5552d3cd6502	899467267	1	practice_slash	5	practice_slash	11	stimuli_target_squarediamonds.svg	stimuli_distractor_diamondtriangles.svg	2	yes	53	1	1197
6.6.1	win	2022-12-14	11:26:11	11:31:08	296669	5dee896cf87f5552d3cd6502	899467267	1	practice_slash	5	advance_on_keypress_SLASH	12	stimuli_target_squarediamonds.svg	stimuli_distractor_diamondtriangles.svg	2	yes	57	0	682
6.6.1	win	2022-12-14	11:26:11	11:31:12	300192	5dee896cf87f5552d3cd6502	899467267	1	practice_slash	5	practice_slash	13	stimuli_distractor_trianglediamonds.svg	stimuli_target_diamondcircles.svg	12	yes	53	1	1227
6.6.1	win	2022-12-14	11:26:11	11:31:12	300192	5dee896cf87f5552d3cd6502	899467267	1	practice_slash	5	advance_on_keypress_SLASH	14	stimuli_distractor_trianglediamonds.svg	stimuli_target_diamondcircles.svg	12	yes	57	0	551
6.6.1	win	2022-12-14	11:26:11	11:31:16	304356	5dee896cf87f5552d3cd6502	899467267	1	practice_slash	5	practice_slash	15	stimuli_distractor_trianglediamonds.svg	stimuli_distractor_trianglediamonds.svg	15	no	0	1	2003
6.6.1	win	2022-12-14	11:26:11	11:31:16	304356	5dee896cf87f5552d3cd6502	899467267	1	practice_slash	5	advance_on_keypress_SLASH	16	stimuli_distractor_trianglediamonds.svg	stimuli_distractor_trianglediamonds.svg	15	no	57	0	436
6.6.1	win	2022-12-14	11:26:11	11:31:19	307533	5dee896cf87f5552d3cd6502	899467267	1	practice_slash	5	practice_slash	17	stimuli_target_diamondsquares.svg	stimuli_distractor_trianglediamonds.svg	6	yes	53	1	1125
6.6.1	win	2022-12-14	11:26:11	11:31:19	307533	5dee896cf87f5552d3cd6502	899467267	1	practice_slash	5	advance_on_keypress_SLASH	18	stimuli_target_diamondsquares.svg	stimuli_distractor_trianglediamonds.svg	6	yes	57	0	607
6.6.1	win	2022-12-14	11:26:11	11:31:22	310680	5dee896cf87f5552d3cd6502	899467267	1	practice_slash	5	practice_slash	19	stimuli_target_circlediamonds.svg	stimuli_distractor_trianglediamonds.svg	4	yes	53	1	923
6.6.1	win	2022-12-14	11:26:11	11:31:22	310680	5dee896cf87f5552d3cd6502	899467267	1	practice_slash	5	advance_on_keypress_SLASH	20	stimuli_target_circlediamonds.svg	stimuli_distractor_trianglediamonds.svg	4	yes	57	0	641
6.6.1	win	2022-12-14	11:26:11	11:31:26	314939	5dee896cf87f5552d3cd6502	899467267	1	practice_slash	5	practice_slash	21	stimuli_distractor_diamondtriangles.svg	stimuli_distractor_diamondtriangles.svg	13	no	0	1	2003
6.6.1	win	2022-12-14	11:26:11	11:31:26	314939	5dee896cf87f5552d3cd6502	899467267	1	practice_slash	5	advance_on_keypress_SLASH	22	stimuli_distractor_diamondtriangles.svg	stimuli_distractor_diamondtriangles.svg	13	no	57	0	304
6.6.1	win	2022-12-14	11:26:11	11:31:29	317717	5dee896cf87f5552d3cd6502	899467267	1	practice_slash	5	practice_slash	23	stimuli_target_squarediamonds.svg	stimuli_distractor_trianglediamonds.svg	5	yes	53	1	856
6.6.1	win	2022-12-14	11:26:11	11:31:29	317717	5dee896cf87f5552d3cd6502	899467267	1	practice_slash	5	advance_on_keypress_SLASH	24	stimuli_target_squarediamonds.svg	stimuli_distractor_trianglediamonds.svg	5	yes	57	0	388
6.6.1	win	2022-12-14	11:26:11	11:31:33	321724	5dee896cf87f5552d3cd6502	899467267	1	practice_slash	5	practice_slash	25	stimuli_distractor_trianglediamonds.svg	stimuli_distractor_diamondtriangles.svg	16	no	0	1	2003
6.6.1	win	2022-12-14	11:26:11	11:31:33	321724	5dee896cf87f5552d3cd6502	899467267	1	practice_slash	5	advance_on_keypress_SLASH	26	stimuli_distractor_trianglediamonds.svg	stimuli_distractor_diamondtriangles.svg	16	no	57	0	272
6.6.1	win	2022-12-14	11:26:11	11:31:36	324526	5dee896cf87f5552d3cd6502	899467267	1	practice_slash	5	practice_slash	27	stimuli_distractor_diamondtriangles.svg	stimuli_target_circletriangles.svg	7	yes	53	1	915
6.6.1	win	2022-12-14	11:26:11	11:31:36	324526	5dee896cf87f5552d3cd6502	899467267	1	practice_slash	5	advance_on_keypress_SLASH	28	stimuli_distractor_diamondtriangles.svg	stimuli_target_circletriangles.svg	7	yes	57	0	390
6.6.1	win	2022-12-14	11:26:11	11:31:39	327468	5dee896cf87f5552d3cd6502	899467267	1	practice_slash	5	practice_slash	29	stimuli_distractor_trianglediamonds.svg	stimuli_target_squarediamonds.svg	11	yes	53	1	935
6.6.1	win	2022-12-14	11:26:11	11:31:39	327468	5dee896cf87f5552d3cd6502	899467267	1	practice_slash	5	advance_on_keypress_SLASH	30	stimuli_distractor_trianglediamonds.svg	stimuli_target_squarediamonds.svg	11	yes	57	0	324
6.6.1	win	2022-12-14	11:26:11	11:31:42	330803	5dee896cf87f5552d3cd6502	899467267	1	practice_slash	5	practice_slash	31	stimuli_target_diamondsquares.svg	stimuli_distractor_diamondtriangles.svg	3	yes	53	1	1395
6.6.1	win	2022-12-14	11:26:11	11:31:42	330803	5dee896cf87f5552d3cd6502	899467267	1	practice_slash	5	advance_on_keypress_SLASH	32	stimuli_target_diamondsquares.svg	stimuli_distractor_diamondtriangles.svg	3	yes	57	0	683
6.6.1	win	2022-12-14	11:26:11	11:31:54	342081	5dee896cf87f5552d3cd6502	899467267	1	main_slash	7	main_slash	1	stimuli_distractor_trianglediamonds.svg	stimuli_target_circletriangles.svg	9	yes	53	1	1200
6.6.1	win	2022-12-14	11:26:11	11:31:54	342081	5dee896cf87f5552d3cd6502	899467267	1	main_slash	7	advance_on_keypress_SLASH	2	stimuli_distractor_trianglediamonds.svg	stimuli_target_circletriangles.svg	9	yes	57	0	687
6.6.1	win	2022-12-14	11:26:11	11:31:56	344291	5dee896cf87f5552d3cd6502	899467267	1	main_slash	7	main_slash	3	stimuli_distractor_trianglediamonds.svg	stimuli_target_trianglecircles.svg	25	yes	53	1	903
6.6.1	win	2022-12-14	11:26:11	11:31:56	344291	5dee896cf87f5552d3cd6502	899467267	1	main_slash	7	advance_on_keypress_SLASH	4	stimuli_distractor_trianglediamonds.svg	stimuli_target_trianglecircles.svg	25	yes	57	0	391
6.6.1	win	2022-12-14	11:26:11	11:31:58	346446	5dee896cf87f5552d3cd6502	899467267	1	main_slash	7	main_slash	5	stimuli_target_diamondsquares.svg	stimuli_distractor_diamondtriangles.svg	24	yes	53	1	1148
6.6.1	win	2022-12-14	11:26:11	11:31:58	346446	5dee896cf87f5552d3cd6502	899467267	1	main_slash	7	advance_on_keypress_SLASH	6	stimuli_target_diamondsquares.svg	stimuli_distractor_diamondtriangles.svg	24	yes	57	0	519
6.6.1	win	2022-12-14	11:26:11	11:32:00	348428	5dee896cf87f5552d3cd6502	899467267	1	main_slash	7	main_slash	7	stimuli_distractor_trianglediamonds.svg	stimuli_target_squarediamonds.svg	12	yes	53	1	845
6.6.1	win	2022-12-14	11:26:11	11:32:00	348428	5dee896cf87f5552d3cd6502	899467267	1	main_slash	7	advance_on_keypress_SLASH	8	stimuli_distractor_trianglediamonds.svg	stimuli_target_squarediamonds.svg	12	yes	57	0	416
6.6.1	win	2022-12-14	11:26:11	11:32:02	350181	5dee896cf87f5552d3cd6502	899467267	1	main_slash	7	main_slash	9	stimuli_distractor_trianglediamonds.svg	stimuli_target_squaretriangles.svg	11	yes	53	1	723
6.6.1	win	2022-12-14	11:26:11	11:32:02	350181	5dee896cf87f5552d3cd6502	899467267	1	main_slash	7	advance_on_keypress_SLASH	10	stimuli_distractor_trianglediamonds.svg	stimuli_target_squaretriangles.svg	11	yes	57	0	362
6.6.1	win	2022-12-14	11:26:11	11:32:03	351918	5dee896cf87f5552d3cd6502	899467267	1	main_slash	7	main_slash	11	stimuli_distractor_diamondtriangles.svg	stimuli_target_squaretriangles.svg	15	yes	53	1	759
6.6.1	win	2022-12-14	11:26:11	11:32:03	351918	5dee896cf87f5552d3cd6502	899467267	1	main_slash	7	advance_on_keypress_SLASH	12	stimuli_distractor_diamondtriangles.svg	stimuli_target_squaretriangles.svg	15	yes	57	0	311
6.6.1	win	2022-12-14	11:26:11	11:32:05	353665	5dee896cf87f5552d3cd6502	899467267	1	main_slash	7	main_slash	13	stimuli_target_circlediamonds.svg	stimuli_distractor_trianglediamonds.svg	2	yes	53	1	818
6.6.1	win	2022-12-14	11:26:11	11:32:05	353665	5dee896cf87f5552d3cd6502	899467267	1	main_slash	7	advance_on_keypress_SLASH	14	stimuli_target_circlediamonds.svg	stimuli_distractor_trianglediamonds.svg	2	yes	57	0	344
6.6.1	win	2022-12-14	11:26:11	11:32:08	356627	5dee896cf87f5552d3cd6502	899467267	1	main_slash	7	main_slash	15	stimuli_distractor_diamondtriangles.svg	stimuli_target_diamondsquares.svg	32	yes	0	0	2003
6.6.1	win	2022-12-14	11:26:11	11:32:08	356627	5dee896cf87f5552d3cd6502	899467267	1	main_slash	7	advance_on_keypress_SLASH	16	stimuli_distractor_diamondtriangles.svg	stimuli_target_diamondsquares.svg	32	yes	57	0	325
6.6.1	win	2022-12-14	11:26:11	11:32:10	358283	5dee896cf87f5552d3cd6502	899467267	1	main_slash	7	main_slash	17	stimuli_target_diamondcircles.svg	stimuli_distractor_diamondtriangles.svg	23	yes	53	1	721
6.6.1	win	2022-12-14	11:26:11	11:32:10	358283	5dee896cf87f5552d3cd6502	899467267	1	main_slash	7	advance_on_keypress_SLASH	18	stimuli_target_diamondcircles.svg	stimuli_distractor_diamondtriangles.svg	23	yes	57	0	469
6.6.1	win	2022-12-14	11:26:11	11:32:12	360182	5dee896cf87f5552d3cd6502	899467267	1	main_slash	7	main_slash	19	stimuli_distractor_trianglediamonds.svg	stimuli_target_diamondcircles.svg	27	yes	53	1	815
6.6.1	win	2022-12-14	11:26:11	11:32:12	360182	5dee896cf87f5552d3cd6502	899467267	1	main_slash	7	advance_on_keypress_SLASH	20	stimuli_distractor_trianglediamonds.svg	stimuli_target_diamondcircles.svg	27	yes	57	0	372
6.6.1	win	2022-12-14	11:26:11	11:32:14	362166	5dee896cf87f5552d3cd6502	899467267	1	main_slash	7	main_slash	21	stimuli_distractor_trianglediamonds.svg	stimuli_target_trianglesquares.svg	26	yes	53	1	1000
6.6.1	win	2022-12-14	11:26:11	11:32:14	362166	5dee896cf87f5552d3cd6502	899467267	1	main_slash	7	advance_on_keypress_SLASH	22	stimuli_distractor_trianglediamonds.svg	stimuli_target_trianglesquares.svg	26	yes	57	0	369
6.6.1	win	2022-12-14	11:26:11	11:32:17	365154	5dee896cf87f5552d3cd6502	899467267	1	main_slash	7	main_slash	23	stimuli_distractor_diamondtriangles.svg	stimuli_distractor_trianglediamonds.svg	37	no	0	1	2003
6.6.1	win	2022-12-14	11:26:11	11:32:17	365154	5dee896cf87f5552d3cd6502	899467267	1	main_slash	7	advance_on_keypress_SLASH	24	stimuli_distractor_diamondtriangles.svg	stimuli_distractor_trianglediamonds.svg	37	no	57	0	333
6.6.1	win	2022-12-14	11:26:11	11:32:19	367105	5dee896cf87f5552d3cd6502	899467267	1	main_slash	7	main_slash	25	stimuli_distractor_diamondtriangles.svg	stimuli_target_squarediamonds.svg	16	yes	53	1	1002
6.6.1	win	2022-12-14	11:26:11	11:32:19	367105	5dee896cf87f5552d3cd6502	899467267	1	main_slash	7	advance_on_keypress_SLASH	26	stimuli_distractor_diamondtriangles.svg	stimuli_target_squarediamonds.svg	16	yes	57	0	375
6.6.1	win	2022-12-14	11:26:11	11:32:22	370099	5dee896cf87f5552d3cd6502	899467267	1	main_slash	7	main_slash	27	stimuli_distractor_diamondtriangles.svg	stimuli_target_circletriangles.svg	13	yes	0	0	2003
6.6.1	win	2022-12-14	11:26:11	11:32:22	370099	5dee896cf87f5552d3cd6502	899467267	1	main_slash	7	advance_on_keypress_SLASH	28	stimuli_distractor_diamondtriangles.svg	stimuli_target_circletriangles.svg	13	yes	57	0	471
6.6.1	win	2022-12-14	11:26:11	11:32:23	371854	5dee896cf87f5552d3cd6502	899467267	1	main_slash	7	main_slash	29	stimuli_target_trianglecircles.svg	stimuli_distractor_trianglediamonds.svg	17	yes	53	1	674
6.6.1	win	2022-12-14	11:26:11	11:32:23	371854	5dee896cf87f5552d3cd6502	899467267	1	main_slash	7	advance_on_keypress_SLASH	30	stimuli_target_trianglecircles.svg	stimuli_distractor_trianglediamonds.svg	17	yes	57	0	367
6.6.1	win	2022-12-14	11:26:11	11:32:25	373652	5dee896cf87f5552d3cd6502	899467267	1	main_slash	7	main_slash	31	stimuli_target_squarediamonds.svg	stimuli_distractor_diamondtriangles.svg	8	yes	53	1	812
6.6.1	win	2022-12-14	11:26:11	11:32:25	373652	5dee896cf87f5552d3cd6502	899467267	1	main_slash	7	advance_on_keypress_SLASH	32	stimuli_target_squarediamonds.svg	stimuli_distractor_diamondtriangles.svg	8	yes	57	0	353
6.6.1	win	2022-12-14	11:26:11	11:32:27	375446	5dee896cf87f5552d3cd6502	899467267	1	main_slash	7	main_slash	33	stimuli_target_circletriangles.svg	stimuli_distractor_trianglediamonds.svg	1	yes	53	1	822
6.6.1	win	2022-12-14	11:26:11	11:32:27	375446	5dee896cf87f5552d3cd6502	899467267	1	main_slash	7	advance_on_keypress_SLASH	34	stimuli_target_circletriangles.svg	stimuli_distractor_trianglediamonds.svg	1	yes	57	0	348
6.6.1	win	2022-12-14	11:26:11	11:32:29	377213	5dee896cf87f5552d3cd6502	899467267	1	main_slash	7	main_slash	35	stimuli_target_squaretriangles.svg	stimuli_distractor_diamondtriangles.svg	7	yes	53	1	804
6.6.1	win	2022-12-14	11:26:11	11:32:29	377213	5dee896cf87f5552d3cd6502	899467267	1	main_slash	7	advance_on_keypress_SLASH	36	stimuli_target_squaretriangles.svg	stimuli_distractor_diamondtriangles.svg	7	yes	57	0	292
6.6.1	win	2022-12-14	11:26:11	11:32:31	379012	5dee896cf87f5552d3cd6502	899467267	1	main_slash	7	main_slash	37	stimuli_target_trianglecircles.svg	stimuli_distractor_diamondtriangles.svg	21	yes	53	1	888
6.6.1	win	2022-12-14	11:26:11	11:32:31	379012	5dee896cf87f5552d3cd6502	899467267	1	main_slash	7	advance_on_keypress_SLASH	38	stimuli_target_trianglecircles.svg	stimuli_distractor_diamondtriangles.svg	21	yes	57	0	288
6.6.1	win	2022-12-14	11:26:11	11:32:33	381171	5dee896cf87f5552d3cd6502	899467267	1	main_slash	7	main_slash	39	stimuli_target_trianglesquares.svg	stimuli_distractor_diamondtriangles.svg	22	yes	53	1	1255
6.6.1	win	2022-12-14	11:26:11	11:32:33	381171	5dee896cf87f5552d3cd6502	899467267	1	main_slash	7	advance_on_keypress_SLASH	40	stimuli_target_trianglesquares.svg	stimuli_distractor_diamondtriangles.svg	22	yes	57	0	354
6.6.1	win	2022-12-14	11:26:11	11:32:36	384140	5dee896cf87f5552d3cd6502	899467267	1	main_slash	7	main_slash	41	stimuli_distractor_diamondtriangles.svg	stimuli_distractor_trianglediamonds.svg	38	no	0	1	2003
6.6.1	win	2022-12-14	11:26:11	11:32:36	384140	5dee896cf87f5552d3cd6502	899467267	1	main_slash	7	advance_on_keypress_SLASH	42	stimuli_distractor_diamondtriangles.svg	stimuli_distractor_trianglediamonds.svg	38	no	57	0	277
6.6.1	win	2022-12-14	11:26:11	11:32:39	387036	5dee896cf87f5552d3cd6502	899467267	1	main_slash	7	main_slash	43	stimuli_target_diamondsquares.svg	stimuli_distractor_trianglediamonds.svg	20	yes	0	0	2003
6.6.1	win	2022-12-14	11:26:11	11:32:39	387036	5dee896cf87f5552d3cd6502	899467267	1	main_slash	7	advance_on_keypress_SLASH	44	stimuli_target_diamondsquares.svg	stimuli_distractor_trianglediamonds.svg	20	yes	57	0	574
6.6.1	win	2022-12-14	11:26:11	11:32:42	390224	5dee896cf87f5552d3cd6502	899467267	1	main_slash	7	main_slash	45	stimuli_distractor_trianglediamonds.svg	stimuli_distractor_trianglediamonds.svg	33	no	0	1	2003
6.6.1	win	2022-12-14	11:26:11	11:32:42	390224	5dee896cf87f5552d3cd6502	899467267	1	main_slash	7	advance_on_keypress_SLASH	46	stimuli_distractor_trianglediamonds.svg	stimuli_distractor_trianglediamonds.svg	33	no	57	0	480
6.6.1	win	2022-12-14	11:26:11	11:32:44	392189	5dee896cf87f5552d3cd6502	899467267	1	main_slash	7	main_slash	47	stimuli_target_circlediamonds.svg	stimuli_distractor_diamondtriangles.svg	6	yes	53	1	870
6.6.1	win	2022-12-14	11:26:11	11:32:44	392189	5dee896cf87f5552d3cd6502	899467267	1	main_slash	7	advance_on_keypress_SLASH	48	stimuli_target_circlediamonds.svg	stimuli_distractor_diamondtriangles.svg	6	yes	57	0	357
6.6.1	win	2022-12-14	11:26:11	11:32:47	395161	5dee896cf87f5552d3cd6502	899467267	1	main_slash	7	main_slash	49	stimuli_distractor_diamondtriangles.svg	stimuli_distractor_diamondtriangles.svg	40	no	0	1	2003
6.6.1	win	2022-12-14	11:26:11	11:32:47	395161	5dee896cf87f5552d3cd6502	899467267	1	main_slash	7	advance_on_keypress_SLASH	50	stimuli_distractor_diamondtriangles.svg	stimuli_distractor_diamondtriangles.svg	40	no	57	0	385
6.6.1	win	2022-12-14	11:26:11	11:32:50	398161	5dee896cf87f5552d3cd6502	899467267	1	main_slash	7	main_slash	51	stimuli_distractor_trianglediamonds.svg	stimuli_distractor_diamondtriangles.svg	36	no	0	1	2003
6.6.1	win	2022-12-14	11:26:11	11:32:50	398161	5dee896cf87f5552d3cd6502	899467267	1	main_slash	7	advance_on_keypress_SLASH	52	stimuli_distractor_trianglediamonds.svg	stimuli_distractor_diamondtriangles.svg	36	no	57	0	620
6.6.1	win	2022-12-14	11:26:11	11:32:53	401397	5dee896cf87f5552d3cd6502	899467267	1	main_slash	7	main_slash	53	stimuli_distractor_diamondtriangles.svg	stimuli_distractor_diamondtriangles.svg	39	no	0	1	2003
6.6.1	win	2022-12-14	11:26:11	11:32:53	401397	5dee896cf87f5552d3cd6502	899467267	1	main_slash	7	advance_on_keypress_SLASH	54	stimuli_distractor_diamondtriangles.svg	stimuli_distractor_diamondtriangles.svg	39	no	57	0	310
6.6.1	win	2022-12-14	11:26:11	11:32:55	403631	5dee896cf87f5552d3cd6502	899467267	1	main_slash	7	main_slash	55	stimuli_distractor_trianglediamonds.svg	stimuli_distractor_trianglediamonds.svg	34	no	53	0	1313
6.6.1	win	2022-12-14	11:26:11	11:32:55	403631	5dee896cf87f5552d3cd6502	899467267	1	main_slash	7	advance_on_keypress_SLASH	56	stimuli_distractor_trianglediamonds.svg	stimuli_distractor_trianglediamonds.svg	34	no	57	0	374
6.6.1	win	2022-12-14	11:26:11	11:32:57	405665	5dee896cf87f5552d3cd6502	899467267	1	main_slash	7	main_slash	57	stimuli_distractor_diamondtriangles.svg	stimuli_target_trianglecircles.svg	29	yes	53	1	1041
6.6.1	win	2022-12-14	11:26:11	11:32:57	405665	5dee896cf87f5552d3cd6502	899467267	1	main_slash	7	advance_on_keypress_SLASH	58	stimuli_distractor_diamondtriangles.svg	stimuli_target_trianglecircles.svg	29	yes	57	0	396
6.6.1	win	2022-12-14	11:26:11	11:32:59	407862	5dee896cf87f5552d3cd6502	899467267	1	main_slash	7	main_slash	59	stimuli_target_squarediamonds.svg	stimuli_distractor_trianglediamonds.svg	4	yes	53	1	1182
6.6.1	win	2022-12-14	11:26:11	11:32:59	407862	5dee896cf87f5552d3cd6502	899467267	1	main_slash	7	advance_on_keypress_SLASH	60	stimuli_target_squarediamonds.svg	stimuli_distractor_trianglediamonds.svg	4	yes	57	0	342
6.6.1	win	2022-12-14	11:26:11	11:33:02	410007	5dee896cf87f5552d3cd6502	899467267	1	main_slash	7	main_slash	61	stimuli_distractor_trianglediamonds.svg	stimuli_target_diamondsquares.svg	28	yes	53	1	1189
6.6.1	win	2022-12-14	11:26:11	11:33:02	410007	5dee896cf87f5552d3cd6502	899467267	1	main_slash	7	advance_on_keypress_SLASH	62	stimuli_distractor_trianglediamonds.svg	stimuli_target_diamondsquares.svg	28	yes	57	0	346
6.6.1	win	2022-12-14	11:26:11	11:33:04	412511	5dee896cf87f5552d3cd6502	899467267	1	main_slash	7	main_slash	63	stimuli_target_circletriangles.svg	stimuli_distractor_diamondtriangles.svg	5	yes	53	1	1540
6.6.1	win	2022-12-14	11:26:11	11:33:04	412511	5dee896cf87f5552d3cd6502	899467267	1	main_slash	7	advance_on_keypress_SLASH	64	stimuli_target_circletriangles.svg	stimuli_distractor_diamondtriangles.svg	5	yes	57	0	382
6.6.1	win	2022-12-14	11:26:11	11:33:06	414520	5dee896cf87f5552d3cd6502	899467267	1	main_slash	7	main_slash	65	stimuli_distractor_trianglediamonds.svg	stimuli_target_circlediamonds.svg	10	yes	53	1	1014
6.6.1	win	2022-12-14	11:26:11	11:33:06	414520	5dee896cf87f5552d3cd6502	899467267	1	main_slash	7	advance_on_keypress_SLASH	66	stimuli_distractor_trianglediamonds.svg	stimuli_target_circlediamonds.svg	10	yes	57	0	296
6.6.1	win	2022-12-14	11:26:11	11:33:08	416414	5dee896cf87f5552d3cd6502	899467267	1	main_slash	7	main_slash	67	stimuli_distractor_diamondtriangles.svg	stimuli_target_circlediamonds.svg	14	yes	53	1	984
6.6.1	win	2022-12-14	11:26:11	11:33:08	416414	5dee896cf87f5552d3cd6502	899467267	1	main_slash	7	advance_on_keypress_SLASH	68	stimuli_distractor_diamondtriangles.svg	stimuli_target_circlediamonds.svg	14	yes	57	0	318
6.6.1	win	2022-12-14	11:26:11	11:33:10	418640	5dee896cf87f5552d3cd6502	899467267	1	main_slash	7	main_slash	69	stimuli_distractor_trianglediamonds.svg	stimuli_distractor_diamondtriangles.svg	35	no	53	0	1294
6.6.1	win	2022-12-14	11:26:11	11:33:10	418640	5dee896cf87f5552d3cd6502	899467267	1	main_slash	7	advance_on_keypress_SLASH	70	stimuli_distractor_trianglediamonds.svg	stimuli_distractor_diamondtriangles.svg	35	no	57	0	326
6.6.1	win	2022-12-14	11:26:11	11:33:12	420581	5dee896cf87f5552d3cd6502	899467267	1	main_slash	7	main_slash	71	stimuli_distractor_diamondtriangles.svg	stimuli_target_diamondcircles.svg	31	yes	53	1	999
6.6.1	win	2022-12-14	11:26:11	11:33:12	420581	5dee896cf87f5552d3cd6502	899467267	1	main_slash	7	advance_on_keypress_SLASH	72	stimuli_distractor_diamondtriangles.svg	stimuli_target_diamondcircles.svg	31	yes	57	0	375
6.6.1	win	2022-12-14	11:26:11	11:33:14	422661	5dee896cf87f5552d3cd6502	899467267	1	main_slash	7	main_slash	73	stimuli_distractor_diamondtriangles.svg	stimuli_target_trianglesquares.svg	30	yes	53	1	1086
6.6.1	win	2022-12-14	11:26:11	11:33:14	422661	5dee896cf87f5552d3cd6502	899467267	1	main_slash	7	advance_on_keypress_SLASH	74	stimuli_distractor_diamondtriangles.svg	stimuli_target_trianglesquares.svg	30	yes	57	0	339
6.6.1	win	2022-12-14	11:26:11	11:33:16	424679	5dee896cf87f5552d3cd6502	899467267	1	main_slash	7	main_slash	75	stimuli_target_squaretriangles.svg	stimuli_distractor_trianglediamonds.svg	3	yes	53	1	1062
6.6.1	win	2022-12-14	11:26:11	11:33:16	424679	5dee896cf87f5552d3cd6502	899467267	1	main_slash	7	advance_on_keypress_SLASH	76	stimuli_target_squaretriangles.svg	stimuli_distractor_trianglediamonds.svg	3	yes	57	0	344
6.6.1	win	2022-12-14	11:26:11	11:33:18	426571	5dee896cf87f5552d3cd6502	899467267	1	main_slash	7	main_slash	77	stimuli_target_trianglesquares.svg	stimuli_distractor_trianglediamonds.svg	18	yes	53	1	933
6.6.1	win	2022-12-14	11:26:11	11:33:18	426571	5dee896cf87f5552d3cd6502	899467267	1	main_slash	7	advance_on_keypress_SLASH	78	stimuli_target_trianglesquares.svg	stimuli_distractor_trianglediamonds.svg	18	yes	57	0	292
6.6.1	win	2022-12-14	11:26:11	11:33:20	428518	5dee896cf87f5552d3cd6502	899467267	1	main_slash	7	main_slash	79	stimuli_target_diamondcircles.svg	stimuli_distractor_trianglediamonds.svg	19	yes	53	1	1040
6.6.1	win	2022-12-14	11:26:11	11:33:20	428518	5dee896cf87f5552d3cd6502	899467267	1	main_slash	7	advance_on_keypress_SLASH	80	stimuli_target_diamondcircles.svg	stimuli_distractor_trianglediamonds.svg	19	yes	57	0	320
6.6.1	win	2022-12-14	11:26:11	11:33:22	430510	5dee896cf87f5552d3cd6502	899467267	1	main_slash	7	main_slash	81	stimuli_target_circletriangles.svg	stimuli_distractor_trianglediamonds.svg	1	yes	53	1	1060
6.6.1	win	2022-12-14	11:26:11	11:33:22	430510	5dee896cf87f5552d3cd6502	899467267	1	main_slash	7	advance_on_keypress_SLASH	82	stimuli_target_circletriangles.svg	stimuli_distractor_trianglediamonds.svg	1	yes	57	0	444
6.6.1	win	2022-12-14	11:26:11	11:33:24	432717	5dee896cf87f5552d3cd6502	899467267	1	main_slash	7	main_slash	83	stimuli_distractor_trianglediamonds.svg	stimuli_target_circletriangles.svg	9	yes	53	1	1149
6.6.1	win	2022-12-14	11:26:11	11:33:24	432717	5dee896cf87f5552d3cd6502	899467267	1	main_slash	7	advance_on_keypress_SLASH	84	stimuli_distractor_trianglediamonds.svg	stimuli_target_circletriangles.svg	9	yes	57	0	316
6.6.1	win	2022-12-14	11:26:11	11:33:26	434634	5dee896cf87f5552d3cd6502	899467267	1	main_slash	7	main_slash	85	stimuli_target_diamondcircles.svg	stimuli_distractor_diamondtriangles.svg	23	yes	53	1	989
6.6.1	win	2022-12-14	11:26:11	11:33:26	434634	5dee896cf87f5552d3cd6502	899467267	1	main_slash	7	advance_on_keypress_SLASH	86	stimuli_target_diamondcircles.svg	stimuli_distractor_diamondtriangles.svg	23	yes	57	0	305
6.6.1	win	2022-12-14	11:26:11	11:33:28	436684	5dee896cf87f5552d3cd6502	899467267	1	main_slash	7	main_slash	87	stimuli_distractor_diamondtriangles.svg	stimuli_target_diamondcircles.svg	31	yes	53	1	1131
6.6.1	win	2022-12-14	11:26:11	11:33:28	436684	5dee896cf87f5552d3cd6502	899467267	1	main_slash	7	advance_on_keypress_SLASH	88	stimuli_distractor_diamondtriangles.svg	stimuli_target_diamondcircles.svg	31	yes	57	0	307
6.6.1	win	2022-12-14	11:26:11	11:33:30	438643	5dee896cf87f5552d3cd6502	899467267	1	main_slash	7	main_slash	89	stimuli_distractor_diamondtriangles.svg	stimuli_target_squaretriangles.svg	15	yes	53	1	1034
6.6.1	win	2022-12-14	11:26:11	11:33:30	438643	5dee896cf87f5552d3cd6502	899467267	1	main_slash	7	advance_on_keypress_SLASH	90	stimuli_distractor_diamondtriangles.svg	stimuli_target_squaretriangles.svg	15	yes	57	0	280
6.6.1	win	2022-12-14	11:26:11	11:33:32	440613	5dee896cf87f5552d3cd6502	899467267	1	main_slash	7	main_slash	91	stimuli_distractor_trianglediamonds.svg	stimuli_target_trianglecircles.svg	25	yes	53	1	1074
6.6.1	win	2022-12-14	11:26:11	11:33:32	440613	5dee896cf87f5552d3cd6502	899467267	1	main_slash	7	advance_on_keypress_SLASH	92	stimuli_distractor_trianglediamonds.svg	stimuli_target_trianglecircles.svg	25	yes	57	0	269
6.6.1	win	2022-12-14	11:26:11	11:33:34	442438	5dee896cf87f5552d3cd6502	899467267	1	main_slash	7	main_slash	93	stimuli_distractor_trianglediamonds.svg	stimuli_target_circlediamonds.svg	10	yes	53	1	946
6.6.1	win	2022-12-14	11:26:11	11:33:34	442438	5dee896cf87f5552d3cd6502	899467267	1	main_slash	7	advance_on_keypress_SLASH	94	stimuli_distractor_trianglediamonds.svg	stimuli_target_circlediamonds.svg	10	yes	57	0	300
6.6.1	win	2022-12-14	11:26:11	11:33:36	444389	5dee896cf87f5552d3cd6502	899467267	1	main_slash	7	main_slash	95	stimuli_target_trianglesquares.svg	stimuli_distractor_trianglediamonds.svg	18	yes	53	1	1036
6.6.1	win	2022-12-14	11:26:11	11:33:36	444389	5dee896cf87f5552d3cd6502	899467267	1	main_slash	7	advance_on_keypress_SLASH	96	stimuli_target_trianglesquares.svg	stimuli_distractor_trianglediamonds.svg	18	yes	57	0	271
6.6.1	win	2022-12-14	11:26:11	11:33:38	446391	5dee896cf87f5552d3cd6502	899467267	1	main_slash	7	main_slash	97	stimuli_target_squaretriangles.svg	stimuli_distractor_trianglediamonds.svg	3	yes	53	1	1114
6.6.1	win	2022-12-14	11:26:11	11:33:38	446391	5dee896cf87f5552d3cd6502	899467267	1	main_slash	7	advance_on_keypress_SLASH	98	stimuli_target_squaretriangles.svg	stimuli_distractor_trianglediamonds.svg	3	yes	57	0	333
6.6.1	win	2022-12-14	11:26:11	11:33:40	448367	5dee896cf87f5552d3cd6502	899467267	1	main_slash	7	main_slash	99	stimuli_target_squarediamonds.svg	stimuli_distractor_trianglediamonds.svg	4	yes	53	1	1028
6.6.1	win	2022-12-14	11:26:11	11:33:40	448367	5dee896cf87f5552d3cd6502	899467267	1	main_slash	7	advance_on_keypress_SLASH	100	stimuli_target_squarediamonds.svg	stimuli_distractor_trianglediamonds.svg	4	yes	57	0	295
6.6.1	win	2022-12-14	11:26:11	11:33:42	450319	5dee896cf87f5552d3cd6502	899467267	1	main_slash	7	main_slash	101	stimuli_distractor_diamondtriangles.svg	stimuli_target_diamondsquares.svg	32	yes	53	1	1042
6.6.1	win	2022-12-14	11:26:11	11:33:42	450319	5dee896cf87f5552d3cd6502	899467267	1	main_slash	7	advance_on_keypress_SLASH	102	stimuli_distractor_diamondtriangles.svg	stimuli_target_diamondsquares.svg	32	yes	57	0	276
6.6.1	win	2022-12-14	11:26:11	11:33:44	452115	5dee896cf87f5552d3cd6502	899467267	1	main_slash	7	main_slash	103	stimuli_target_circlediamonds.svg	stimuli_distractor_diamondtriangles.svg	6	yes	53	1	908
6.6.1	win	2022-12-14	11:26:11	11:33:44	452115	5dee896cf87f5552d3cd6502	899467267	1	main_slash	7	advance_on_keypress_SLASH	104	stimuli_target_circlediamonds.svg	stimuli_distractor_diamondtriangles.svg	6	yes	57	0	276
6.6.1	win	2022-12-14	11:26:11	11:33:46	453981	5dee896cf87f5552d3cd6502	899467267	1	main_slash	7	main_slash	105	stimuli_distractor_trianglediamonds.svg	stimuli_target_diamondsquares.svg	28	yes	53	1	982
6.6.1	win	2022-12-14	11:26:11	11:33:46	453981	5dee896cf87f5552d3cd6502	899467267	1	main_slash	7	advance_on_keypress_SLASH	106	stimuli_distractor_trianglediamonds.svg	stimuli_target_diamondsquares.svg	28	yes	57	0	271
6.6.1	win	2022-12-14	11:26:11	11:33:47	455878	5dee896cf87f5552d3cd6502	899467267	1	main_slash	7	main_slash	107	stimuli_distractor_trianglediamonds.svg	stimuli_target_trianglesquares.svg	26	yes	53	1	1011
6.6.1	win	2022-12-14	11:26:11	11:33:47	455878	5dee896cf87f5552d3cd6502	899467267	1	main_slash	7	advance_on_keypress_SLASH	108	stimuli_distractor_trianglediamonds.svg	stimuli_target_trianglesquares.svg	26	yes	57	0	290
6.6.1	win	2022-12-14	11:26:11	11:33:49	457734	5dee896cf87f5552d3cd6502	899467267	1	main_slash	7	main_slash	109	stimuli_target_circletriangles.svg	stimuli_distractor_diamondtriangles.svg	5	yes	53	1	951
6.6.1	win	2022-12-14	11:26:11	11:33:49	457734	5dee896cf87f5552d3cd6502	899467267	1	main_slash	7	advance_on_keypress_SLASH	110	stimuli_target_circletriangles.svg	stimuli_distractor_diamondtriangles.svg	5	yes	57	0	282
6.6.1	win	2022-12-14	11:26:11	11:33:52	460633	5dee896cf87f5552d3cd6502	899467267	1	main_slash	7	main_slash	111	stimuli_distractor_diamondtriangles.svg	stimuli_distractor_trianglediamonds.svg	38	no	0	1	2003
6.6.1	win	2022-12-14	11:26:11	11:33:52	460633	5dee896cf87f5552d3cd6502	899467267	1	main_slash	7	advance_on_keypress_SLASH	112	stimuli_distractor_diamondtriangles.svg	stimuli_distractor_trianglediamonds.svg	38	no	57	0	864
6.6.1	win	2022-12-14	11:26:11	11:33:56	464112	5dee896cf87f5552d3cd6502	899467267	1	main_slash	7	main_slash	113	stimuli_target_diamondsquares.svg	stimuli_distractor_trianglediamonds.svg	20	yes	0	0	2003
6.6.1	win	2022-12-14	11:26:11	11:33:56	464112	5dee896cf87f5552d3cd6502	899467267	1	main_slash	7	advance_on_keypress_SLASH	114	stimuli_target_diamondsquares.svg	stimuli_distractor_trianglediamonds.svg	20	yes	57	0	1107
6.6.1	win	2022-12-14	11:26:11	11:33:58	466689	5dee896cf87f5552d3cd6502	899467267	1	main_slash	7	main_slash	115	stimuli_distractor_trianglediamonds.svg	stimuli_target_squaretriangles.svg	11	yes	53	1	858
6.6.1	win	2022-12-14	11:26:11	11:33:58	466689	5dee896cf87f5552d3cd6502	899467267	1	main_slash	7	advance_on_keypress_SLASH	116	stimuli_distractor_trianglediamonds.svg	stimuli_target_squaretriangles.svg	11	yes	57	0	348
6.6.1	win	2022-12-14	11:26:11	11:34:01	469654	5dee896cf87f5552d3cd6502	899467267	1	main_slash	7	main_slash	117	stimuli_distractor_trianglediamonds.svg	stimuli_distractor_trianglediamonds.svg	34	no	0	1	2003
6.6.1	win	2022-12-14	11:26:11	11:34:01	469654	5dee896cf87f5552d3cd6502	899467267	1	main_slash	7	advance_on_keypress_SLASH	118	stimuli_distractor_trianglediamonds.svg	stimuli_distractor_trianglediamonds.svg	34	no	57	0	664
6.6.1	win	2022-12-14	11:26:11	11:34:04	472931	5dee896cf87f5552d3cd6502	899467267	1	main_slash	7	main_slash	119	stimuli_distractor_diamondtriangles.svg	stimuli_distractor_diamondtriangles.svg	39	no	0	1	2003
6.6.1	win	2022-12-14	11:26:11	11:34:04	472931	5dee896cf87f5552d3cd6502	899467267	1	main_slash	7	advance_on_keypress_SLASH	120	stimuli_distractor_diamondtriangles.svg	stimuli_distractor_diamondtriangles.svg	39	no	57	0	768
6.6.1	win	2022-12-14	11:26:11	11:34:07	475034	5dee896cf87f5552d3cd6502	899467267	1	main_slash	7	main_slash	121	stimuli_distractor_diamondtriangles.svg	stimuli_target_trianglecircles.svg	29	yes	53	1	724
6.6.1	win	2022-12-14	11:26:11	11:34:07	475034	5dee896cf87f5552d3cd6502	899467267	1	main_slash	7	advance_on_keypress_SLASH	122	stimuli_distractor_diamondtriangles.svg	stimuli_target_trianglecircles.svg	29	yes	57	0	375
6.6.1	win	2022-12-14	11:26:11	11:34:09	477321	5dee896cf87f5552d3cd6502	899467267	1	main_slash	7	main_slash	123	stimuli_target_trianglesquares.svg	stimuli_distractor_diamondtriangles.svg	22	yes	53	1	1295
6.6.1	win	2022-12-14	11:26:11	11:34:09	477321	5dee896cf87f5552d3cd6502	899467267	1	main_slash	7	advance_on_keypress_SLASH	124	stimuli_target_trianglesquares.svg	stimuli_distractor_diamondtriangles.svg	22	yes	57	0	339
6.6.1	win	2022-12-14	11:26:11	11:34:12	480279	5dee896cf87f5552d3cd6502	899467267	1	main_slash	7	main_slash	125	stimuli_distractor_trianglediamonds.svg	stimuli_distractor_trianglediamonds.svg	33	no	0	1	2003
6.6.1	win	2022-12-14	11:26:11	11:34:12	480279	5dee896cf87f5552d3cd6502	899467267	1	main_slash	7	advance_on_keypress_SLASH	126	stimuli_distractor_trianglediamonds.svg	stimuli_distractor_trianglediamonds.svg	33	no	57	0	450
6.6.1	win	2022-12-14	11:26:11	11:34:15	483341	5dee896cf87f5552d3cd6502	899467267	1	main_slash	7	main_slash	127	stimuli_distractor_trianglediamonds.svg	stimuli_distractor_diamondtriangles.svg	35	no	0	1	2003
6.6.1	win	2022-12-14	11:26:11	11:34:15	483341	5dee896cf87f5552d3cd6502	899467267	1	main_slash	7	advance_on_keypress_SLASH	128	stimuli_distractor_trianglediamonds.svg	stimuli_distractor_diamondtriangles.svg	35	no	57	0	530
6.6.1	win	2022-12-14	11:26:11	11:34:17	485347	5dee896cf87f5552d3cd6502	899467267	1	main_slash	7	main_slash	129	stimuli_target_diamondcircles.svg	stimuli_distractor_trianglediamonds.svg	19	yes	53	1	863
6.6.1	win	2022-12-14	11:26:11	11:34:17	485347	5dee896cf87f5552d3cd6502	899467267	1	main_slash	7	advance_on_keypress_SLASH	130	stimuli_target_diamondcircles.svg	stimuli_distractor_trianglediamonds.svg	19	yes	57	0	318
6.6.1	win	2022-12-14	11:26:11	11:34:19	487533	5dee896cf87f5552d3cd6502	899467267	1	main_slash	7	main_slash	131	stimuli_distractor_trianglediamonds.svg	stimuli_distractor_diamondtriangles.svg	36	no	53	0	1251
6.6.1	win	2022-12-14	11:26:11	11:34:19	487533	5dee896cf87f5552d3cd6502	899467267	1	main_slash	7	advance_on_keypress_SLASH	132	stimuli_distractor_trianglediamonds.svg	stimuli_distractor_diamondtriangles.svg	36	no	57	0	274
6.6.1	win	2022-12-14	11:26:11	11:34:21	489323	5dee896cf87f5552d3cd6502	899467267	1	main_slash	7	main_slash	133	stimuli_target_trianglecircles.svg	stimuli_distractor_diamondtriangles.svg	21	yes	53	1	902
6.6.1	win	2022-12-14	11:26:11	11:34:21	489323	5dee896cf87f5552d3cd6502	899467267	1	main_slash	7	advance_on_keypress_SLASH	134	stimuli_target_trianglecircles.svg	stimuli_distractor_diamondtriangles.svg	21	yes	57	0	297
6.6.1	win	2022-12-14	11:26:11	11:34:24	492244	5dee896cf87f5552d3cd6502	899467267	1	main_slash	7	main_slash	135	stimuli_distractor_diamondtriangles.svg	stimuli_distractor_diamondtriangles.svg	40	no	0	1	2003
6.6.1	win	2022-12-14	11:26:11	11:34:24	492244	5dee896cf87f5552d3cd6502	899467267	1	main_slash	7	advance_on_keypress_SLASH	136	stimuli_distractor_diamondtriangles.svg	stimuli_distractor_diamondtriangles.svg	40	no	57	0	826
6.6.1	win	2022-12-14	11:26:11	11:34:26	494495	5dee896cf87f5552d3cd6502	899467267	1	main_slash	7	main_slash	137	stimuli_target_squarediamonds.svg	stimuli_distractor_diamondtriangles.svg	8	yes	53	1	810
6.6.1	win	2022-12-14	11:26:11	11:34:26	494495	5dee896cf87f5552d3cd6502	899467267	1	main_slash	7	advance_on_keypress_SLASH	138	stimuli_target_squarediamonds.svg	stimuli_distractor_diamondtriangles.svg	8	yes	57	0	316
6.6.1	win	2022-12-14	11:26:11	11:34:28	496512	5dee896cf87f5552d3cd6502	899467267	1	main_slash	7	main_slash	139	stimuli_distractor_diamondtriangles.svg	stimuli_target_trianglesquares.svg	30	yes	53	1	1091
6.6.1	win	2022-12-14	11:26:11	11:34:28	496512	5dee896cf87f5552d3cd6502	899467267	1	main_slash	7	advance_on_keypress_SLASH	140	stimuli_distractor_diamondtriangles.svg	stimuli_target_trianglesquares.svg	30	yes	57	0	309
6.6.1	win	2022-12-14	11:26:11	11:34:30	498412	5dee896cf87f5552d3cd6502	899467267	1	main_slash	7	main_slash	141	stimuli_target_trianglecircles.svg	stimuli_distractor_trianglediamonds.svg	17	yes	53	1	976
6.6.1	win	2022-12-14	11:26:11	11:34:30	498412	5dee896cf87f5552d3cd6502	899467267	1	main_slash	7	advance_on_keypress_SLASH	142	stimuli_target_trianglecircles.svg	stimuli_distractor_trianglediamonds.svg	17	yes	57	0	341
6.6.1	win	2022-12-14	11:26:11	11:34:32	500211	5dee896cf87f5552d3cd6502	899467267	1	main_slash	7	main_slash	143	stimuli_target_circlediamonds.svg	stimuli_distractor_trianglediamonds.svg	2	yes	53	1	846
6.6.1	win	2022-12-14	11:26:11	11:34:32	500211	5dee896cf87f5552d3cd6502	899467267	1	main_slash	7	advance_on_keypress_SLASH	144	stimuli_target_circlediamonds.svg	stimuli_distractor_trianglediamonds.svg	2	yes	57	0	298
6.6.1	win	2022-12-14	11:26:11	11:34:34	501996	5dee896cf87f5552d3cd6502	899467267	1	main_slash	7	main_slash	145	stimuli_distractor_trianglediamonds.svg	stimuli_target_diamondcircles.svg	27	yes	53	1	874
6.6.1	win	2022-12-14	11:26:11	11:34:34	501996	5dee896cf87f5552d3cd6502	899467267	1	main_slash	7	advance_on_keypress_SLASH	146	stimuli_distractor_trianglediamonds.svg	stimuli_target_diamondcircles.svg	27	yes	57	0	346
6.6.1	win	2022-12-14	11:26:11	11:34:36	503978	5dee896cf87f5552d3cd6502	899467267	1	main_slash	7	main_slash	147	stimuli_distractor_diamondtriangles.svg	stimuli_target_circletriangles.svg	13	yes	53	1	1021
6.6.1	win	2022-12-14	11:26:11	11:34:36	503978	5dee896cf87f5552d3cd6502	899467267	1	main_slash	7	advance_on_keypress_SLASH	148	stimuli_distractor_diamondtriangles.svg	stimuli_target_circletriangles.svg	13	yes	57	0	318
6.6.1	win	2022-12-14	11:26:11	11:34:37	505805	5dee896cf87f5552d3cd6502	899467267	1	main_slash	7	main_slash	149	stimuli_distractor_trianglediamonds.svg	stimuli_target_squarediamonds.svg	12	yes	53	1	897
6.6.1	win	2022-12-14	11:26:11	11:34:37	505805	5dee896cf87f5552d3cd6502	899467267	1	main_slash	7	advance_on_keypress_SLASH	150	stimuli_distractor_trianglediamonds.svg	stimuli_target_squarediamonds.svg	12	yes	57	0	306
6.6.1	win	2022-12-14	11:26:11	11:34:39	507533	5dee896cf87f5552d3cd6502	899467267	1	main_slash	7	main_slash	151	stimuli_target_squaretriangles.svg	stimuli_distractor_diamondtriangles.svg	7	yes	53	1	807
6.6.1	win	2022-12-14	11:26:11	11:34:39	507533	5dee896cf87f5552d3cd6502	899467267	1	main_slash	7	advance_on_keypress_SLASH	152	stimuli_target_squaretriangles.svg	stimuli_distractor_diamondtriangles.svg	7	yes	57	0	277
6.6.1	win	2022-12-14	11:26:11	11:34:42	510431	5dee896cf87f5552d3cd6502	899467267	1	main_slash	7	main_slash	153	stimuli_distractor_diamondtriangles.svg	stimuli_distractor_trianglediamonds.svg	37	no	0	1	2003
6.6.1	win	2022-12-14	11:26:11	11:34:42	510431	5dee896cf87f5552d3cd6502	899467267	1	main_slash	7	advance_on_keypress_SLASH	154	stimuli_distractor_diamondtriangles.svg	stimuli_distractor_trianglediamonds.svg	37	no	57	0	501
6.6.1	win	2022-12-14	11:26:11	11:34:45	513324	5dee896cf87f5552d3cd6502	899467267	1	main_slash	7	main_slash	155	stimuli_target_diamondsquares.svg	stimuli_distractor_diamondtriangles.svg	24	yes	53	1	1778
6.6.1	win	2022-12-14	11:26:11	11:34:45	513324	5dee896cf87f5552d3cd6502	899467267	1	main_slash	7	advance_on_keypress_SLASH	156	stimuli_target_diamondsquares.svg	stimuli_distractor_diamondtriangles.svg	24	yes	57	0	364
6.6.1	win	2022-12-14	11:26:11	11:34:47	515590	5dee896cf87f5552d3cd6502	899467267	1	main_slash	7	main_slash	157	stimuli_distractor_diamondtriangles.svg	stimuli_target_circlediamonds.svg	14	yes	53	1	1287
6.6.1	win	2022-12-14	11:26:11	11:34:47	515590	5dee896cf87f5552d3cd6502	899467267	1	main_slash	7	advance_on_keypress_SLASH	158	stimuli_distractor_diamondtriangles.svg	stimuli_target_circlediamonds.svg	14	yes	57	0	563
6.6.1	win	2022-12-14	11:26:11	11:34:49	517657	5dee896cf87f5552d3cd6502	899467267	1	main_slash	7	main_slash	159	stimuli_distractor_diamondtriangles.svg	stimuli_target_squarediamonds.svg	16	yes	53	1	889
6.6.1	win	2022-12-14	11:26:11	11:34:49	517657	5dee896cf87f5552d3cd6502	899467267	1	main_slash	7	advance_on_keypress_SLASH	160	stimuli_distractor_diamondtriangles.svg	stimuli_target_squarediamonds.svg	16	yes	57	0	274
6.6.1	win	2022-12-14	11:26:11	11:35:15	543177	5dee896cf87f5552d3cd6502	899467267	1	practice_z	9	practice_z	1	stimuli_target_diamondsquares.svg	stimuli_distractor_diamondtriangles.svg	3	yes	44	1	1276
6.6.1	win	2022-12-14	11:26:11	11:35:15	543177	5dee896cf87f5552d3cd6502	899467267	1	practice_z	9	advance_on_keypress_ZEE	2	stimuli_target_diamondsquares.svg	stimuli_distractor_diamondtriangles.svg	3	yes	57	0	364
6.6.1	win	2022-12-14	11:26:11	11:35:18	546105	5dee896cf87f5552d3cd6502	899467267	1	practice_z	9	practice_z	3	stimuli_distractor_diamondtriangles.svg	stimuli_target_trianglecircles.svg	9	yes	44	1	947
6.6.1	win	2022-12-14	11:26:11	11:35:18	546105	5dee896cf87f5552d3cd6502	899467267	1	practice_z	9	advance_on_keypress_ZEE	4	stimuli_distractor_diamondtriangles.svg	stimuli_target_trianglecircles.svg	9	yes	57	0	269
6.6.1	win	2022-12-14	11:26:11	11:35:22	549993	5dee896cf87f5552d3cd6502	899467267	1	practice_z	9	practice_z	5	stimuli_distractor_trianglediamonds.svg	stimuli_distractor_diamondtriangles.svg	16	no	0	1	2003
6.6.1	win	2022-12-14	11:26:11	11:35:22	549993	5dee896cf87f5552d3cd6502	899467267	1	practice_z	9	advance_on_keypress_ZEE	6	stimuli_distractor_trianglediamonds.svg	stimuli_distractor_diamondtriangles.svg	16	no	57	0	255
6.6.1	win	2022-12-14	11:26:11	11:35:24	552720	5dee896cf87f5552d3cd6502	899467267	1	practice_z	9	practice_z	7	stimuli_distractor_trianglediamonds.svg	stimuli_target_diamondcircles.svg	12	yes	44	1	862
6.6.1	win	2022-12-14	11:26:11	11:35:24	552720	5dee896cf87f5552d3cd6502	899467267	1	practice_z	9	advance_on_keypress_ZEE	8	stimuli_distractor_trianglediamonds.svg	stimuli_target_diamondcircles.svg	12	yes	57	0	759
6.6.1	win	2022-12-14	11:26:11	11:35:28	556553	5dee896cf87f5552d3cd6502	899467267	1	practice_z	9	practice_z	9	stimuli_distractor_diamondtriangles.svg	stimuli_target_circletriangles.svg	7	yes	44	1	1459
6.6.1	win	2022-12-14	11:26:11	11:35:28	556553	5dee896cf87f5552d3cd6502	899467267	1	practice_z	9	advance_on_keypress_ZEE	10	stimuli_distractor_diamondtriangles.svg	stimuli_target_circletriangles.svg	7	yes	57	0	396
6.6.1	win	2022-12-14	11:26:11	11:35:31	559517	5dee896cf87f5552d3cd6502	899467267	1	practice_z	9	practice_z	11	stimuli_distractor_diamondtriangles.svg	stimuli_target_diamondcircles.svg	8	yes	44	1	951
6.6.1	win	2022-12-14	11:26:11	11:35:31	559517	5dee896cf87f5552d3cd6502	899467267	1	practice_z	9	advance_on_keypress_ZEE	12	stimuli_distractor_diamondtriangles.svg	stimuli_target_diamondcircles.svg	8	yes	57	0	44
6.6.1	win	2022-12-14	11:26:11	11:35:35	563180	5dee896cf87f5552d3cd6502	899467267	1	practice_z	9	practice_z	13	stimuli_distractor_diamondtriangles.svg	stimuli_distractor_trianglediamonds.svg	14	no	0	1	2003
6.6.1	win	2022-12-14	11:26:11	11:35:35	563180	5dee896cf87f5552d3cd6502	899467267	1	practice_z	9	advance_on_keypress_ZEE	14	stimuli_distractor_diamondtriangles.svg	stimuli_distractor_trianglediamonds.svg	14	no	57	0	414
6.6.1	win	2022-12-14	11:26:11	11:35:39	567208	5dee896cf87f5552d3cd6502	899467267	1	practice_z	9	practice_z	15	stimuli_distractor_trianglediamonds.svg	stimuli_distractor_trianglediamonds.svg	15	no	0	1	2003
6.6.1	win	2022-12-14	11:26:11	11:35:39	567208	5dee896cf87f5552d3cd6502	899467267	1	practice_z	9	advance_on_keypress_ZEE	16	stimuli_distractor_trianglediamonds.svg	stimuli_distractor_trianglediamonds.svg	15	no	57	0	579
6.6.1	win	2022-12-14	11:26:11	11:35:42	570259	5dee896cf87f5552d3cd6502	899467267	1	practice_z	9	practice_z	17	stimuli_target_circlediamonds.svg	stimuli_distractor_diamondtriangles.svg	1	yes	44	1	858
6.6.1	win	2022-12-14	11:26:11	11:35:42	570259	5dee896cf87f5552d3cd6502	899467267	1	practice_z	9	advance_on_keypress_ZEE	18	stimuli_target_circlediamonds.svg	stimuli_distractor_diamondtriangles.svg	1	yes	57	0	735
6.6.1	win	2022-12-14	11:26:11	11:35:45	573494	5dee896cf87f5552d3cd6502	899467267	1	practice_z	9	practice_z	19	stimuli_target_squarediamonds.svg	stimuli_distractor_diamondtriangles.svg	2	yes	44	1	885
6.6.1	win	2022-12-14	11:26:11	11:35:45	573494	5dee896cf87f5552d3cd6502	899467267	1	practice_z	9	advance_on_keypress_ZEE	20	stimuli_target_squarediamonds.svg	stimuli_distractor_diamondtriangles.svg	2	yes	57	0	495
6.6.1	win	2022-12-14	11:26:11	11:35:49	577604	5dee896cf87f5552d3cd6502	899467267	1	practice_z	9	practice_z	21	stimuli_distractor_diamondtriangles.svg	stimuli_distractor_diamondtriangles.svg	13	no	0	1	2003
6.6.1	win	2022-12-14	11:26:11	11:35:49	577604	5dee896cf87f5552d3cd6502	899467267	1	practice_z	9	advance_on_keypress_ZEE	22	stimuli_distractor_diamondtriangles.svg	stimuli_distractor_diamondtriangles.svg	13	no	57	0	776
6.6.1	win	2022-12-14	11:26:11	11:35:53	580973	5dee896cf87f5552d3cd6502	899467267	1	practice_z	9	practice_z	23	stimuli_target_circlediamonds.svg	stimuli_distractor_trianglediamonds.svg	4	yes	44	1	975
6.6.1	win	2022-12-14	11:26:11	11:35:53	580973	5dee896cf87f5552d3cd6502	899467267	1	practice_z	9	advance_on_keypress_ZEE	24	stimuli_target_circlediamonds.svg	stimuli_distractor_trianglediamonds.svg	4	yes	57	0	483
6.6.1	win	2022-12-14	11:26:11	11:35:55	583745	5dee896cf87f5552d3cd6502	899467267	1	practice_z	9	practice_z	25	stimuli_target_squarediamonds.svg	stimuli_distractor_trianglediamonds.svg	5	yes	44	1	679
6.6.1	win	2022-12-14	11:26:11	11:35:55	583745	5dee896cf87f5552d3cd6502	899467267	1	practice_z	9	advance_on_keypress_ZEE	26	stimuli_target_squarediamonds.svg	stimuli_distractor_trianglediamonds.svg	5	yes	57	0	452
6.6.1	win	2022-12-14	11:26:11	11:35:58	586664	5dee896cf87f5552d3cd6502	899467267	1	practice_z	9	practice_z	27	stimuli_distractor_trianglediamonds.svg	stimuli_target_squarediamonds.svg	11	yes	44	1	854
6.6.1	win	2022-12-14	11:26:11	11:35:58	586664	5dee896cf87f5552d3cd6502	899467267	1	practice_z	9	advance_on_keypress_ZEE	28	stimuli_distractor_trianglediamonds.svg	stimuli_target_squarediamonds.svg	11	yes	57	0	579
6.6.1	win	2022-12-14	11:26:11	11:36:01	589806	5dee896cf87f5552d3cd6502	899467267	1	practice_z	9	practice_z	29	stimuli_distractor_trianglediamonds.svg	stimuli_target_circlediamonds.svg	10	yes	44	1	947
6.6.1	win	2022-12-14	11:26:11	11:36:01	589806	5dee896cf87f5552d3cd6502	899467267	1	practice_z	9	advance_on_keypress_ZEE	30	stimuli_distractor_trianglediamonds.svg	stimuli_target_circlediamonds.svg	10	yes	57	0	416
6.6.1	win	2022-12-14	11:26:11	11:36:05	593099	5dee896cf87f5552d3cd6502	899467267	1	practice_z	9	practice_z	31	stimuli_target_diamondsquares.svg	stimuli_distractor_trianglediamonds.svg	6	yes	44	1	1261
6.6.1	win	2022-12-14	11:26:11	11:36:05	593099	5dee896cf87f5552d3cd6502	899467267	1	practice_z	9	advance_on_keypress_ZEE	32	stimuli_target_diamondsquares.svg	stimuli_distractor_trianglediamonds.svg	6	yes	57	0	464
6.6.1	win	2022-12-14	11:26:11	11:36:09	597373	5dee896cf87f5552d3cd6502	899467267	1	main_z	11	main_z	1	stimuli_target_diamondcircles.svg	stimuli_distractor_diamondtriangles.svg	23	yes	44	1	974
6.6.1	win	2022-12-14	11:26:11	11:36:09	597373	5dee896cf87f5552d3cd6502	899467267	1	main_z	11	advance_on_keypress_ZEE	2	stimuli_target_diamondcircles.svg	stimuli_distractor_diamondtriangles.svg	23	yes	57	0	371
6.6.1	win	2022-12-14	11:26:11	11:36:11	599297	5dee896cf87f5552d3cd6502	899467267	1	main_z	11	main_z	3	stimuli_target_trianglesquares.svg	stimuli_distractor_diamondtriangles.svg	22	yes	44	1	939
6.6.1	win	2022-12-14	11:26:11	11:36:11	599297	5dee896cf87f5552d3cd6502	899467267	1	main_z	11	advance_on_keypress_ZEE	4	stimuli_target_trianglesquares.svg	stimuli_distractor_diamondtriangles.svg	22	yes	57	0	354
6.6.1	win	2022-12-14	11:26:11	11:36:13	601167	5dee896cf87f5552d3cd6502	899467267	1	main_z	11	main_z	5	stimuli_distractor_diamondtriangles.svg	stimuli_target_diamondcircles.svg	31	yes	44	1	899
6.6.1	win	2022-12-14	11:26:11	11:36:13	601167	5dee896cf87f5552d3cd6502	899467267	1	main_z	11	advance_on_keypress_ZEE	6	stimuli_distractor_diamondtriangles.svg	stimuli_target_diamondcircles.svg	31	yes	57	0	348
6.6.1	win	2022-12-14	11:26:11	11:36:14	602944	5dee896cf87f5552d3cd6502	899467267	1	main_z	11	main_z	7	stimuli_target_trianglesquares.svg	stimuli_distractor_trianglediamonds.svg	18	yes	44	1	815
6.6.1	win	2022-12-14	11:26:11	11:36:14	602944	5dee896cf87f5552d3cd6502	899467267	1	main_z	11	advance_on_keypress_ZEE	8	stimuli_target_trianglesquares.svg	stimuli_distractor_trianglediamonds.svg	18	yes	57	0	415
6.6.1	win	2022-12-14	11:26:11	11:36:17	605384	5dee896cf87f5552d3cd6502	899467267	1	main_z	11	main_z	9	stimuli_distractor_trianglediamonds.svg	stimuli_target_circletriangles.svg	9	yes	44	1	1415
6.6.1	win	2022-12-14	11:26:11	11:36:17	605384	5dee896cf87f5552d3cd6502	899467267	1	main_z	11	advance_on_keypress_ZEE	10	stimuli_distractor_trianglediamonds.svg	stimuli_target_circletriangles.svg	9	yes	57	0	536
6.6.1	win	2022-12-14	11:26:11	11:36:19	607471	5dee896cf87f5552d3cd6502	899467267	1	main_z	11	main_z	11	stimuli_distractor_trianglediamonds.svg	stimuli_target_trianglecircles.svg	25	yes	44	1	940
6.6.1	win	2022-12-14	11:26:11	11:36:19	607471	5dee896cf87f5552d3cd6502	899467267	1	main_z	11	advance_on_keypress_ZEE	12	stimuli_distractor_trianglediamonds.svg	stimuli_target_trianglecircles.svg	25	yes	57	0	296
6.6.1	win	2022-12-14	11:26:11	11:36:21	609233	5dee896cf87f5552d3cd6502	899467267	1	main_z	11	main_z	13	stimuli_distractor_diamondtriangles.svg	stimuli_target_circletriangles.svg	13	yes	44	1	854
6.6.1	win	2022-12-14	11:26:11	11:36:21	609233	5dee896cf87f5552d3cd6502	899467267	1	main_z	11	advance_on_keypress_ZEE	14	stimuli_distractor_diamondtriangles.svg	stimuli_target_circletriangles.svg	13	yes	57	0	347
6.6.1	win	2022-12-14	11:26:11	11:36:23	611157	5dee896cf87f5552d3cd6502	899467267	1	main_z	11	main_z	15	stimuli_distractor_diamondtriangles.svg	stimuli_target_trianglesquares.svg	30	yes	44	1	958
6.6.1	win	2022-12-14	11:26:11	11:36:23	611157	5dee896cf87f5552d3cd6502	899467267	1	main_z	11	advance_on_keypress_ZEE	16	stimuli_distractor_diamondtriangles.svg	stimuli_target_trianglesquares.svg	30	yes	57	0	376
6.6.1	win	2022-12-14	11:26:11	11:36:26	614152	5dee896cf87f5552d3cd6502	899467267	1	main_z	11	main_z	17	stimuli_distractor_trianglediamonds.svg	stimuli_distractor_trianglediamonds.svg	33	no	0	1	2003
6.6.1	win	2022-12-14	11:26:11	11:36:26	614152	5dee896cf87f5552d3cd6502	899467267	1	main_z	11	advance_on_keypress_ZEE	18	stimuli_distractor_trianglediamonds.svg	stimuli_distractor_trianglediamonds.svg	33	no	57	0	578
6.6.1	win	2022-12-14	11:26:11	11:36:28	616226	5dee896cf87f5552d3cd6502	899467267	1	main_z	11	main_z	19	stimuli_distractor_trianglediamonds.svg	stimuli_target_squaretriangles.svg	11	yes	44	1	882
6.6.1	win	2022-12-14	11:26:11	11:36:28	616226	5dee896cf87f5552d3cd6502	899467267	1	main_z	11	advance_on_keypress_ZEE	20	stimuli_distractor_trianglediamonds.svg	stimuli_target_squaretriangles.svg	11	yes	57	0	322
6.6.1	win	2022-12-14	11:26:11	11:36:30	618699	5dee896cf87f5552d3cd6502	899467267	1	main_z	11	main_z	21	stimuli_distractor_diamondtriangles.svg	stimuli_distractor_trianglediamonds.svg	38	no	44	0	1536
6.6.1	win	2022-12-14	11:26:11	11:36:30	618699	5dee896cf87f5552d3cd6502	899467267	1	main_z	11	advance_on_keypress_ZEE	22	stimuli_distractor_diamondtriangles.svg	stimuli_distractor_trianglediamonds.svg	38	no	57	0	354
6.6.1	win	2022-12-14	11:26:11	11:36:32	620556	5dee896cf87f5552d3cd6502	899467267	1	main_z	11	main_z	23	stimuli_distractor_trianglediamonds.svg	stimuli_target_diamondsquares.svg	28	yes	44	1	885
6.6.1	win	2022-12-14	11:26:11	11:36:32	620556	5dee896cf87f5552d3cd6502	899467267	1	main_z	11	advance_on_keypress_ZEE	24	stimuli_distractor_trianglediamonds.svg	stimuli_target_diamondsquares.svg	28	yes	57	0	346
6.6.1	win	2022-12-14	11:26:11	11:36:34	622511	5dee896cf87f5552d3cd6502	899467267	1	main_z	11	main_z	25	stimuli_target_diamondsquares.svg	stimuli_distractor_trianglediamonds.svg	20	yes	44	1	993
6.6.1	win	2022-12-14	11:26:11	11:36:34	622511	5dee896cf87f5552d3cd6502	899467267	1	main_z	11	advance_on_keypress_ZEE	26	stimuli_target_diamondsquares.svg	stimuli_distractor_trianglediamonds.svg	20	yes	57	0	353
6.6.1	win	2022-12-14	11:26:11	11:36:36	624588	5dee896cf87f5552d3cd6502	899467267	1	main_z	11	main_z	27	stimuli_distractor_trianglediamonds.svg	stimuli_target_squarediamonds.svg	12	yes	44	1	1112
6.6.1	win	2022-12-14	11:26:11	11:36:36	624588	5dee896cf87f5552d3cd6502	899467267	1	main_z	11	advance_on_keypress_ZEE	28	stimuli_distractor_trianglediamonds.svg	stimuli_target_squarediamonds.svg	12	yes	57	0	347
6.6.1	win	2022-12-14	11:26:11	11:36:39	627555	5dee896cf87f5552d3cd6502	899467267	1	main_z	11	main_z	29	stimuli_distractor_trianglediamonds.svg	stimuli_distractor_diamondtriangles.svg	36	no	0	1	2003
6.6.1	win	2022-12-14	11:26:11	11:36:39	627555	5dee896cf87f5552d3cd6502	899467267	1	main_z	11	advance_on_keypress_ZEE	30	stimuli_distractor_trianglediamonds.svg	stimuli_distractor_diamondtriangles.svg	36	no	57	0	722
6.6.1	win	2022-12-14	11:26:11	11:36:42	630895	5dee896cf87f5552d3cd6502	899467267	1	main_z	11	main_z	31	stimuli_distractor_diamondtriangles.svg	stimuli_distractor_diamondtriangles.svg	40	no	0	1	2003
6.6.1	win	2022-12-14	11:26:11	11:36:42	630895	5dee896cf87f5552d3cd6502	899467267	1	main_z	11	advance_on_keypress_ZEE	32	stimuli_distractor_diamondtriangles.svg	stimuli_distractor_diamondtriangles.svg	40	no	57	0	331
6.6.1	win	2022-12-14	11:26:11	11:36:44	632627	5dee896cf87f5552d3cd6502	899467267	1	main_z	11	main_z	33	stimuli_target_squarediamonds.svg	stimuli_distractor_diamondtriangles.svg	8	yes	44	1	790
6.6.1	win	2022-12-14	11:26:11	11:36:44	632627	5dee896cf87f5552d3cd6502	899467267	1	main_z	11	advance_on_keypress_ZEE	34	stimuli_target_squarediamonds.svg	stimuli_distractor_diamondtriangles.svg	8	yes	57	0	409
6.6.1	win	2022-12-14	11:26:11	11:36:46	634414	5dee896cf87f5552d3cd6502	899467267	1	main_z	11	main_z	35	stimuli_target_circlediamonds.svg	stimuli_distractor_trianglediamonds.svg	2	yes	44	1	758
6.6.1	win	2022-12-14	11:26:11	11:36:46	634414	5dee896cf87f5552d3cd6502	899467267	1	main_z	11	advance_on_keypress_ZEE	36	stimuli_target_circlediamonds.svg	stimuli_distractor_trianglediamonds.svg	2	yes	57	0	390
6.6.1	win	2022-12-14	11:26:11	11:36:48	636625	5dee896cf87f5552d3cd6502	899467267	1	main_z	11	main_z	37	stimuli_distractor_diamondtriangles.svg	stimuli_target_squarediamonds.svg	16	yes	44	1	1205
6.6.1	win	2022-12-14	11:26:11	11:36:48	636625	5dee896cf87f5552d3cd6502	899467267	1	main_z	11	advance_on_keypress_ZEE	38	stimuli_distractor_diamondtriangles.svg	stimuli_target_squarediamonds.svg	16	yes	57	0	364
6.6.1	win	2022-12-14	11:26:11	11:36:50	638526	5dee896cf87f5552d3cd6502	899467267	1	main_z	11	main_z	39	stimuli_distractor_diamondtriangles.svg	stimuli_target_circlediamonds.svg	14	yes	44	1	925
6.6.1	win	2022-12-14	11:26:11	11:36:50	638526	5dee896cf87f5552d3cd6502	899467267	1	main_z	11	advance_on_keypress_ZEE	40	stimuli_distractor_diamondtriangles.svg	stimuli_target_circlediamonds.svg	14	yes	57	0	396
6.6.1	win	2022-12-14	11:26:11	11:36:52	640365	5dee896cf87f5552d3cd6502	899467267	1	main_z	11	main_z	41	stimuli_target_trianglecircles.svg	stimuli_distractor_diamondtriangles.svg	21	yes	44	1	826
6.6.1	win	2022-12-14	11:26:11	11:36:52	640365	5dee896cf87f5552d3cd6502	899467267	1	main_z	11	advance_on_keypress_ZEE	42	stimuli_target_trianglecircles.svg	stimuli_distractor_diamondtriangles.svg	21	yes	57	0	531
6.6.1	win	2022-12-14	11:26:11	11:36:54	642644	5dee896cf87f5552d3cd6502	899467267	1	main_z	11	main_z	43	stimuli_distractor_diamondtriangles.svg	stimuli_distractor_trianglediamonds.svg	37	no	44	0	1134
6.6.1	win	2022-12-14	11:26:11	11:36:54	642644	5dee896cf87f5552d3cd6502	899467267	1	main_z	11	advance_on_keypress_ZEE	44	stimuli_distractor_diamondtriangles.svg	stimuli_distractor_trianglediamonds.svg	37	no	57	0	344
6.6.1	win	2022-12-14	11:26:11	11:36:56	644475	5dee896cf87f5552d3cd6502	899467267	1	main_z	11	main_z	45	stimuli_distractor_diamondtriangles.svg	stimuli_target_trianglecircles.svg	29	yes	44	1	874
6.6.1	win	2022-12-14	11:26:11	11:36:56	644475	5dee896cf87f5552d3cd6502	899467267	1	main_z	11	advance_on_keypress_ZEE	46	stimuli_distractor_diamondtriangles.svg	stimuli_target_trianglecircles.svg	29	yes	57	0	348
6.6.1	win	2022-12-14	11:26:11	11:36:58	646373	5dee896cf87f5552d3cd6502	899467267	1	main_z	11	main_z	47	stimuli_target_diamondcircles.svg	stimuli_distractor_trianglediamonds.svg	19	yes	44	1	932
6.6.1	win	2022-12-14	11:26:11	11:36:58	646373	5dee896cf87f5552d3cd6502	899467267	1	main_z	11	advance_on_keypress_ZEE	48	stimuli_target_diamondcircles.svg	stimuli_distractor_trianglediamonds.svg	19	yes	57	0	306
6.6.1	win	2022-12-14	11:26:11	11:37:00	648188	5dee896cf87f5552d3cd6502	899467267	1	main_z	11	main_z	49	stimuli_target_squarediamonds.svg	stimuli_distractor_trianglediamonds.svg	4	yes	44	1	893
6.6.1	win	2022-12-14	11:26:11	11:37:00	648188	5dee896cf87f5552d3cd6502	899467267	1	main_z	11	advance_on_keypress_ZEE	50	stimuli_target_squarediamonds.svg	stimuli_distractor_trianglediamonds.svg	4	yes	57	0	304
6.6.1	win	2022-12-14	11:26:11	11:37:02	650012	5dee896cf87f5552d3cd6502	899467267	1	main_z	11	main_z	51	stimuli_distractor_trianglediamonds.svg	stimuli_target_trianglesquares.svg	26	yes	44	1	911
6.6.1	win	2022-12-14	11:26:11	11:37:02	650012	5dee896cf87f5552d3cd6502	899467267	1	main_z	11	advance_on_keypress_ZEE	52	stimuli_distractor_trianglediamonds.svg	stimuli_target_trianglesquares.svg	26	yes	57	0	313
6.6.1	win	2022-12-14	11:26:11	11:37:04	652113	5dee896cf87f5552d3cd6502	899467267	1	main_z	11	main_z	53	stimuli_target_diamondsquares.svg	stimuli_distractor_diamondtriangles.svg	24	yes	44	1	1172
6.6.1	win	2022-12-14	11:26:11	11:37:04	652113	5dee896cf87f5552d3cd6502	899467267	1	main_z	11	advance_on_keypress_ZEE	54	stimuli_target_diamondsquares.svg	stimuli_distractor_diamondtriangles.svg	24	yes	57	0	267
6.6.1	win	2022-12-14	11:26:11	11:37:05	653941	5dee896cf87f5552d3cd6502	899467267	1	main_z	11	main_z	55	stimuli_target_squaretriangles.svg	stimuli_distractor_diamondtriangles.svg	7	yes	44	1	945
6.6.1	win	2022-12-14	11:26:11	11:37:05	653941	5dee896cf87f5552d3cd6502	899467267	1	main_z	11	advance_on_keypress_ZEE	56	stimuli_target_squaretriangles.svg	stimuli_distractor_diamondtriangles.svg	7	yes	57	0	288
6.6.1	win	2022-12-14	11:26:11	11:37:08	656847	5dee896cf87f5552d3cd6502	899467267	1	main_z	11	main_z	57	stimuli_distractor_trianglediamonds.svg	stimuli_distractor_trianglediamonds.svg	34	no	0	1	2003
6.6.1	win	2022-12-14	11:26:11	11:37:08	656847	5dee896cf87f5552d3cd6502	899467267	1	main_z	11	advance_on_keypress_ZEE	58	stimuli_distractor_trianglediamonds.svg	stimuli_distractor_trianglediamonds.svg	34	no	57	0	1027
6.6.1	win	2022-12-14	11:26:11	11:37:11	659209	5dee896cf87f5552d3cd6502	899467267	1	main_z	11	main_z	59	stimuli_target_circlediamonds.svg	stimuli_distractor_diamondtriangles.svg	6	yes	44	1	720
6.6.1	win	2022-12-14	11:26:11	11:37:11	659209	5dee896cf87f5552d3cd6502	899467267	1	main_z	11	advance_on_keypress_ZEE	60	stimuli_target_circlediamonds.svg	stimuli_distractor_diamondtriangles.svg	6	yes	57	0	376
6.6.1	win	2022-12-14	11:26:11	11:37:13	660997	5dee896cf87f5552d3cd6502	899467267	1	main_z	11	main_z	61	stimuli_target_trianglecircles.svg	stimuli_distractor_trianglediamonds.svg	17	yes	44	1	798
6.6.1	win	2022-12-14	11:26:11	11:37:13	660997	5dee896cf87f5552d3cd6502	899467267	1	main_z	11	advance_on_keypress_ZEE	62	stimuli_target_trianglecircles.svg	stimuli_distractor_trianglediamonds.svg	17	yes	57	0	303
6.6.1	win	2022-12-14	11:26:11	11:37:15	663045	5dee896cf87f5552d3cd6502	899467267	1	main_z	11	main_z	63	stimuli_distractor_diamondtriangles.svg	stimuli_target_diamondsquares.svg	32	yes	44	1	1132
6.6.1	win	2022-12-14	11:26:11	11:37:15	663045	5dee896cf87f5552d3cd6502	899467267	1	main_z	11	advance_on_keypress_ZEE	64	stimuli_distractor_diamondtriangles.svg	stimuli_target_diamondsquares.svg	32	yes	57	0	779
6.6.1	win	2022-12-14	11:26:11	11:37:18	666444	5dee896cf87f5552d3cd6502	899467267	1	main_z	11	main_z	65	stimuli_distractor_trianglediamonds.svg	stimuli_distractor_diamondtriangles.svg	35	no	0	1	2003
6.6.1	win	2022-12-14	11:26:11	11:37:18	666444	5dee896cf87f5552d3cd6502	899467267	1	main_z	11	advance_on_keypress_ZEE	66	stimuli_distractor_trianglediamonds.svg	stimuli_distractor_diamondtriangles.svg	35	no	57	0	726
6.6.1	win	2022-12-14	11:26:11	11:37:20	668678	5dee896cf87f5552d3cd6502	899467267	1	main_z	11	main_z	67	stimuli_target_circletriangles.svg	stimuli_distractor_diamondtriangles.svg	5	yes	44	1	897
6.6.1	win	2022-12-14	11:26:11	11:37:20	668678	5dee896cf87f5552d3cd6502	899467267	1	main_z	11	advance_on_keypress_ZEE	68	stimuli_target_circletriangles.svg	stimuli_distractor_diamondtriangles.svg	5	yes	57	0	324
6.6.1	win	2022-12-14	11:26:11	11:37:22	670491	5dee896cf87f5552d3cd6502	899467267	1	main_z	11	main_z	69	stimuli_target_circletriangles.svg	stimuli_distractor_trianglediamonds.svg	1	yes	44	1	877
6.6.1	win	2022-12-14	11:26:11	11:37:22	670491	5dee896cf87f5552d3cd6502	899467267	1	main_z	11	advance_on_keypress_ZEE	70	stimuli_target_circletriangles.svg	stimuli_distractor_trianglediamonds.svg	1	yes	57	0	355
6.6.1	win	2022-12-14	11:26:11	11:37:24	672378	5dee896cf87f5552d3cd6502	899467267	1	main_z	11	main_z	71	stimuli_target_squaretriangles.svg	stimuli_distractor_trianglediamonds.svg	3	yes	44	1	917
6.6.1	win	2022-12-14	11:26:11	11:37:24	672378	5dee896cf87f5552d3cd6502	899467267	1	main_z	11	advance_on_keypress_ZEE	72	stimuli_target_squaretriangles.svg	stimuli_distractor_trianglediamonds.svg	3	yes	57	0	355
6.6.1	win	2022-12-14	11:26:11	11:37:26	674226	5dee896cf87f5552d3cd6502	899467267	1	main_z	11	main_z	73	stimuli_distractor_trianglediamonds.svg	stimuli_target_circlediamonds.svg	10	yes	44	1	875
6.6.1	win	2022-12-14	11:26:11	11:37:26	674226	5dee896cf87f5552d3cd6502	899467267	1	main_z	11	advance_on_keypress_ZEE	74	stimuli_distractor_trianglediamonds.svg	stimuli_target_circlediamonds.svg	10	yes	57	0	424
6.6.1	win	2022-12-14	11:26:11	11:37:28	676270	5dee896cf87f5552d3cd6502	899467267	1	main_z	11	main_z	75	stimuli_distractor_diamondtriangles.svg	stimuli_target_squaretriangles.svg	15	yes	44	1	1003
6.6.1	win	2022-12-14	11:26:11	11:37:28	676270	5dee896cf87f5552d3cd6502	899467267	1	main_z	11	advance_on_keypress_ZEE	76	stimuli_distractor_diamondtriangles.svg	stimuli_target_squaretriangles.svg	15	yes	57	0	313
6.6.1	win	2022-12-14	11:26:11	11:37:31	679201	5dee896cf87f5552d3cd6502	899467267	1	main_z	11	main_z	77	stimuli_distractor_diamondtriangles.svg	stimuli_distractor_diamondtriangles.svg	39	no	0	1	2003
6.6.1	win	2022-12-14	11:26:11	11:37:31	679201	5dee896cf87f5552d3cd6502	899467267	1	main_z	11	advance_on_keypress_ZEE	78	stimuli_distractor_diamondtriangles.svg	stimuli_distractor_diamondtriangles.svg	39	no	57	0	647
6.6.1	win	2022-12-14	11:26:11	11:37:33	681312	5dee896cf87f5552d3cd6502	899467267	1	main_z	11	main_z	79	stimuli_distractor_trianglediamonds.svg	stimuli_target_diamondcircles.svg	27	yes	44	1	851
6.6.1	win	2022-12-14	11:26:11	11:37:33	681312	5dee896cf87f5552d3cd6502	899467267	1	main_z	11	advance_on_keypress_ZEE	80	stimuli_distractor_trianglediamonds.svg	stimuli_target_diamondcircles.svg	27	yes	57	0	359
6.6.1	win	2022-12-14	11:26:11	11:37:35	683231	5dee896cf87f5552d3cd6502	899467267	1	main_z	11	main_z	81	stimuli_target_squarediamonds.svg	stimuli_distractor_trianglediamonds.svg	4	yes	44	1	950
6.6.1	win	2022-12-14	11:26:11	11:37:35	683231	5dee896cf87f5552d3cd6502	899467267	1	main_z	11	advance_on_keypress_ZEE	82	stimuli_target_squarediamonds.svg	stimuli_distractor_trianglediamonds.svg	4	yes	57	0	336
6.6.1	win	2022-12-14	11:26:11	11:37:37	685669	5dee896cf87f5552d3cd6502	899467267	1	main_z	11	main_z	83	stimuli_distractor_trianglediamonds.svg	stimuli_distractor_diamondtriangles.svg	36	no	44	0	1485
6.6.1	win	2022-12-14	11:26:11	11:37:37	685669	5dee896cf87f5552d3cd6502	899467267	1	main_z	11	advance_on_keypress_ZEE	84	stimuli_distractor_trianglediamonds.svg	stimuli_distractor_diamondtriangles.svg	36	no	57	0	452
6.6.1	win	2022-12-14	11:26:11	11:37:39	687782	5dee896cf87f5552d3cd6502	899467267	1	main_z	11	main_z	85	stimuli_target_trianglesquares.svg	stimuli_distractor_trianglediamonds.svg	18	yes	44	1	1042
6.6.1	win	2022-12-14	11:26:11	11:37:39	687782	5dee896cf87f5552d3cd6502	899467267	1	main_z	11	advance_on_keypress_ZEE	86	stimuli_target_trianglesquares.svg	stimuli_distractor_trianglediamonds.svg	18	yes	57	0	350
6.6.1	win	2022-12-14	11:26:11	11:37:41	689857	5dee896cf87f5552d3cd6502	899467267	1	main_z	11	main_z	87	stimuli_distractor_trianglediamonds.svg	stimuli_target_circlediamonds.svg	10	yes	44	1	1111
6.6.1	win	2022-12-14	11:26:11	11:37:41	689857	5dee896cf87f5552d3cd6502	899467267	1	main_z	11	advance_on_keypress_ZEE	88	stimuli_distractor_trianglediamonds.svg	stimuli_target_circlediamonds.svg	10	yes	57	0	416
6.6.1	win	2022-12-14	11:26:11	11:37:43	691772	5dee896cf87f5552d3cd6502	899467267	1	main_z	11	main_z	89	stimuli_target_trianglecircles.svg	stimuli_distractor_trianglediamonds.svg	17	yes	44	1	880
6.6.1	win	2022-12-14	11:26:11	11:37:43	691772	5dee896cf87f5552d3cd6502	899467267	1	main_z	11	advance_on_keypress_ZEE	90	stimuli_target_trianglecircles.svg	stimuli_distractor_trianglediamonds.svg	17	yes	57	0	342
6.6.1	win	2022-12-14	11:26:11	11:37:46	694728	5dee896cf87f5552d3cd6502	899467267	1	main_z	11	main_z	91	stimuli_target_circletriangles.svg	stimuli_distractor_diamondtriangles.svg	5	yes	0	0	2003
6.6.1	win	2022-12-14	11:26:11	11:37:46	694728	5dee896cf87f5552d3cd6502	899467267	1	main_z	11	advance_on_keypress_ZEE	92	stimuli_target_circletriangles.svg	stimuli_distractor_diamondtriangles.svg	5	yes	57	0	597
6.6.1	win	2022-12-14	11:26:11	11:37:48	696780	5dee896cf87f5552d3cd6502	899467267	1	main_z	11	main_z	93	stimuli_distractor_trianglediamonds.svg	stimuli_target_trianglesquares.svg	26	yes	44	1	840
6.6.1	win	2022-12-14	11:26:11	11:37:48	696780	5dee896cf87f5552d3cd6502	899467267	1	main_z	11	advance_on_keypress_ZEE	94	stimuli_distractor_trianglediamonds.svg	stimuli_target_trianglesquares.svg	26	yes	57	0	344
6.6.1	win	2022-12-14	11:26:11	11:37:50	698748	5dee896cf87f5552d3cd6502	899467267	1	main_z	11	main_z	95	stimuli_distractor_diamondtriangles.svg	stimuli_target_squaretriangles.svg	15	yes	44	1	1009
6.6.1	win	2022-12-14	11:26:11	11:37:50	698748	5dee896cf87f5552d3cd6502	899467267	1	main_z	11	advance_on_keypress_ZEE	96	stimuli_distractor_diamondtriangles.svg	stimuli_target_squaretriangles.svg	15	yes	57	0	388
6.6.1	win	2022-12-14	11:26:11	11:37:52	700723	5dee896cf87f5552d3cd6502	899467267	1	main_z	11	main_z	97	stimuli_distractor_diamondtriangles.svg	stimuli_target_diamondcircles.svg	31	yes	44	1	969
6.6.1	win	2022-12-14	11:26:11	11:37:52	700723	5dee896cf87f5552d3cd6502	899467267	1	main_z	11	advance_on_keypress_ZEE	98	stimuli_distractor_diamondtriangles.svg	stimuli_target_diamondcircles.svg	31	yes	57	0	310
6.6.1	win	2022-12-14	11:26:11	11:37:54	702624	5dee896cf87f5552d3cd6502	899467267	1	main_z	11	main_z	99	stimuli_target_squaretriangles.svg	stimuli_distractor_trianglediamonds.svg	3	yes	44	1	982
6.6.1	win	2022-12-14	11:26:11	11:37:54	702624	5dee896cf87f5552d3cd6502	899467267	1	main_z	11	advance_on_keypress_ZEE	100	stimuli_target_squaretriangles.svg	stimuli_distractor_trianglediamonds.svg	3	yes	57	0	359
6.6.1	win	2022-12-14	11:26:11	11:37:56	704482	5dee896cf87f5552d3cd6502	899467267	1	main_z	11	main_z	101	stimuli_target_squarediamonds.svg	stimuli_distractor_diamondtriangles.svg	8	yes	44	1	889
6.6.1	win	2022-12-14	11:26:11	11:37:56	704482	5dee896cf87f5552d3cd6502	899467267	1	main_z	11	advance_on_keypress_ZEE	102	stimuli_target_squarediamonds.svg	stimuli_distractor_diamondtriangles.svg	8	yes	57	0	311
6.6.1	win	2022-12-14	11:26:11	11:37:58	706290	5dee896cf87f5552d3cd6502	899467267	1	main_z	11	main_z	103	stimuli_distractor_diamondtriangles.svg	stimuli_target_trianglesquares.svg	30	yes	44	1	877
6.6.1	win	2022-12-14	11:26:11	11:37:58	706290	5dee896cf87f5552d3cd6502	899467267	1	main_z	11	advance_on_keypress_ZEE	104	stimuli_distractor_diamondtriangles.svg	stimuli_target_trianglesquares.svg	30	yes	57	0	439
6.6.1	win	2022-12-14	11:26:11	11:38:00	708261	5dee896cf87f5552d3cd6502	899467267	1	main_z	11	main_z	105	stimuli_target_trianglesquares.svg	stimuli_distractor_diamondtriangles.svg	22	yes	44	1	918
6.6.1	win	2022-12-14	11:26:11	11:38:00	708261	5dee896cf87f5552d3cd6502	899467267	1	main_z	11	advance_on_keypress_ZEE	106	stimuli_target_trianglesquares.svg	stimuli_distractor_diamondtriangles.svg	22	yes	57	0	337
6.6.1	win	2022-12-14	11:26:11	11:38:02	710179	5dee896cf87f5552d3cd6502	899467267	1	main_z	11	main_z	107	stimuli_distractor_trianglediamonds.svg	stimuli_target_diamondsquares.svg	28	yes	44	1	968
6.6.1	win	2022-12-14	11:26:11	11:38:02	710179	5dee896cf87f5552d3cd6502	899467267	1	main_z	11	advance_on_keypress_ZEE	108	stimuli_distractor_trianglediamonds.svg	stimuli_target_diamondsquares.svg	28	yes	57	0	345
6.6.1	win	2022-12-14	11:26:11	11:38:04	712047	5dee896cf87f5552d3cd6502	899467267	1	main_z	11	main_z	109	stimuli_distractor_diamondtriangles.svg	stimuli_target_squarediamonds.svg	16	yes	44	1	912
6.6.1	win	2022-12-14	11:26:11	11:38:04	712047	5dee896cf87f5552d3cd6502	899467267	1	main_z	11	advance_on_keypress_ZEE	110	stimuli_distractor_diamondtriangles.svg	stimuli_target_squarediamonds.svg	16	yes	57	0	305
6.6.1	win	2022-12-14	11:26:11	11:38:06	714298	5dee896cf87f5552d3cd6502	899467267	1	main_z	11	main_z	111	stimuli_distractor_trianglediamonds.svg	stimuli_target_circletriangles.svg	9	yes	44	1	1330
6.6.1	win	2022-12-14	11:26:11	11:38:06	714298	5dee896cf87f5552d3cd6502	899467267	1	main_z	11	advance_on_keypress_ZEE	112	stimuli_distractor_trianglediamonds.svg	stimuli_target_circletriangles.svg	9	yes	57	0	268
6.6.1	win	2022-12-14	11:26:11	11:38:08	716606	5dee896cf87f5552d3cd6502	899467267	1	main_z	11	main_z	113	stimuli_target_diamondsquares.svg	stimuli_distractor_diamondtriangles.svg	24	yes	44	1	1430
6.6.1	win	2022-12-14	11:26:11	11:38:08	716606	5dee896cf87f5552d3cd6502	899467267	1	main_z	11	advance_on_keypress_ZEE	114	stimuli_target_diamondsquares.svg	stimuli_distractor_diamondtriangles.svg	24	yes	57	0	380
6.6.1	win	2022-12-14	11:26:11	11:38:10	718434	5dee896cf87f5552d3cd6502	899467267	1	main_z	11	main_z	115	stimuli_distractor_trianglediamonds.svg	stimuli_target_squarediamonds.svg	12	yes	44	1	834
6.6.1	win	2022-12-14	11:26:11	11:38:10	718434	5dee896cf87f5552d3cd6502	899467267	1	main_z	11	advance_on_keypress_ZEE	116	stimuli_distractor_trianglediamonds.svg	stimuli_target_squarediamonds.svg	12	yes	57	0	364
6.6.1	win	2022-12-14	11:26:11	11:38:13	721416	5dee896cf87f5552d3cd6502	899467267	1	main_z	11	main_z	117	stimuli_distractor_trianglediamonds.svg	stimuli_distractor_diamondtriangles.svg	35	no	0	1	2003
6.6.1	win	2022-12-14	11:26:11	11:38:13	721416	5dee896cf87f5552d3cd6502	899467267	1	main_z	11	advance_on_keypress_ZEE	118	stimuli_distractor_trianglediamonds.svg	stimuli_distractor_diamondtriangles.svg	35	no	57	0	924
6.6.1	win	2022-12-14	11:26:11	11:38:16	724338	5dee896cf87f5552d3cd6502	899467267	1	main_z	11	main_z	119	stimuli_target_diamondsquares.svg	stimuli_distractor_trianglediamonds.svg	20	yes	44	1	1384
6.6.1	win	2022-12-14	11:26:11	11:38:16	724338	5dee896cf87f5552d3cd6502	899467267	1	main_z	11	advance_on_keypress_ZEE	120	stimuli_target_diamondsquares.svg	stimuli_distractor_trianglediamonds.svg	20	yes	57	0	359
6.6.1	win	2022-12-14	11:26:11	11:38:18	726222	5dee896cf87f5552d3cd6502	899467267	1	main_z	11	main_z	121	stimuli_target_diamondcircles.svg	stimuli_distractor_trianglediamonds.svg	19	yes	44	1	914
6.6.1	win	2022-12-14	11:26:11	11:38:18	726222	5dee896cf87f5552d3cd6502	899467267	1	main_z	11	advance_on_keypress_ZEE	122	stimuli_target_diamondcircles.svg	stimuli_distractor_trianglediamonds.svg	19	yes	57	0	334
6.6.1	win	2022-12-14	11:26:11	11:38:21	729173	5dee896cf87f5552d3cd6502	899467267	1	main_z	11	main_z	123	stimuli_distractor_trianglediamonds.svg	stimuli_distractor_trianglediamonds.svg	34	no	0	1	2003
6.6.1	win	2022-12-14	11:26:11	11:38:21	729173	5dee896cf87f5552d3cd6502	899467267	1	main_z	11	advance_on_keypress_ZEE	124	stimuli_distractor_trianglediamonds.svg	stimuli_distractor_trianglediamonds.svg	34	no	57	0	379
6.6.1	win	2022-12-14	11:26:11	11:38:23	731018	5dee896cf87f5552d3cd6502	899467267	1	main_z	11	main_z	125	stimuli_distractor_diamondtriangles.svg	stimuli_target_diamondsquares.svg	32	yes	44	1	856
6.6.1	win	2022-12-14	11:26:11	11:38:23	731018	5dee896cf87f5552d3cd6502	899467267	1	main_z	11	advance_on_keypress_ZEE	126	stimuli_distractor_diamondtriangles.svg	stimuli_target_diamondsquares.svg	32	yes	57	0	298
6.6.1	win	2022-12-14	11:26:11	11:38:24	732761	5dee896cf87f5552d3cd6502	899467267	1	main_z	11	main_z	127	stimuli_distractor_diamondtriangles.svg	stimuli_target_trianglecircles.svg	29	yes	44	1	828
6.6.1	win	2022-12-14	11:26:11	11:38:24	732761	5dee896cf87f5552d3cd6502	899467267	1	main_z	11	advance_on_keypress_ZEE	128	stimuli_distractor_diamondtriangles.svg	stimuli_target_trianglecircles.svg	29	yes	57	0	285
6.6.1	win	2022-12-14	11:26:11	11:38:27	735666	5dee896cf87f5552d3cd6502	899467267	1	main_z	11	main_z	129	stimuli_distractor_diamondtriangles.svg	stimuli_distractor_diamondtriangles.svg	40	no	0	1	2003
6.6.1	win	2022-12-14	11:26:11	11:38:27	735666	5dee896cf87f5552d3cd6502	899467267	1	main_z	11	advance_on_keypress_ZEE	130	stimuli_distractor_diamondtriangles.svg	stimuli_distractor_diamondtriangles.svg	40	no	57	0	319
6.6.1	win	2022-12-14	11:26:11	11:38:29	737425	5dee896cf87f5552d3cd6502	899467267	1	main_z	11	main_z	131	stimuli_distractor_diamondtriangles.svg	stimuli_target_circlediamonds.svg	14	yes	44	1	825
6.6.1	win	2022-12-14	11:26:11	11:38:29	737425	5dee896cf87f5552d3cd6502	899467267	1	main_z	11	advance_on_keypress_ZEE	132	stimuli_distractor_diamondtriangles.svg	stimuli_target_circlediamonds.svg	14	yes	57	0	332
6.6.1	win	2022-12-14	11:26:11	11:38:31	739258	5dee896cf87f5552d3cd6502	899467267	1	main_z	11	main_z	133	stimuli_distractor_diamondtriangles.svg	stimuli_target_circletriangles.svg	13	yes	44	1	887
6.6.1	win	2022-12-14	11:26:11	11:38:31	739258	5dee896cf87f5552d3cd6502	899467267	1	main_z	11	advance_on_keypress_ZEE	134	stimuli_distractor_diamondtriangles.svg	stimuli_target_circletriangles.svg	13	yes	57	0	302
6.6.1	win	2022-12-14	11:26:11	11:38:34	742172	5dee896cf87f5552d3cd6502	899467267	1	main_z	11	main_z	135	stimuli_distractor_diamondtriangles.svg	stimuli_distractor_trianglediamonds.svg	38	no	0	1	2003
6.6.1	win	2022-12-14	11:26:11	11:38:34	742172	5dee896cf87f5552d3cd6502	899467267	1	main_z	11	advance_on_keypress_ZEE	136	stimuli_distractor_diamondtriangles.svg	stimuli_distractor_trianglediamonds.svg	38	no	57	0	1077
6.6.1	win	2022-12-14	11:26:11	11:38:36	744751	5dee896cf87f5552d3cd6502	899467267	1	main_z	11	main_z	137	stimuli_target_circletriangles.svg	stimuli_distractor_trianglediamonds.svg	1	yes	44	1	887
6.6.1	win	2022-12-14	11:26:11	11:38:36	744751	5dee896cf87f5552d3cd6502	899467267	1	main_z	11	advance_on_keypress_ZEE	138	stimuli_target_circletriangles.svg	stimuli_distractor_trianglediamonds.svg	1	yes	57	0	347
6.6.1	win	2022-12-14	11:26:11	11:38:38	746472	5dee896cf87f5552d3cd6502	899467267	1	main_z	11	main_z	139	stimuli_target_diamondcircles.svg	stimuli_distractor_diamondtriangles.svg	23	yes	44	1	761
6.6.1	win	2022-12-14	11:26:11	11:38:38	746472	5dee896cf87f5552d3cd6502	899467267	1	main_z	11	advance_on_keypress_ZEE	140	stimuli_target_diamondcircles.svg	stimuli_distractor_diamondtriangles.svg	23	yes	57	0	350
6.6.1	win	2022-12-14	11:26:11	11:38:41	749436	5dee896cf87f5552d3cd6502	899467267	1	main_z	11	main_z	141	stimuli_distractor_diamondtriangles.svg	stimuli_distractor_trianglediamonds.svg	37	no	0	1	2003
6.6.1	win	2022-12-14	11:26:11	11:38:41	749436	5dee896cf87f5552d3cd6502	899467267	1	main_z	11	advance_on_keypress_ZEE	142	stimuli_distractor_diamondtriangles.svg	stimuli_distractor_trianglediamonds.svg	37	no	57	0	437
6.6.1	win	2022-12-14	11:26:11	11:38:43	751361	5dee896cf87f5552d3cd6502	899467267	1	main_z	11	main_z	143	stimuli_target_circlediamonds.svg	stimuli_distractor_diamondtriangles.svg	6	yes	44	1	871
6.6.1	win	2022-12-14	11:26:11	11:38:43	751361	5dee896cf87f5552d3cd6502	899467267	1	main_z	11	advance_on_keypress_ZEE	144	stimuli_target_circlediamonds.svg	stimuli_distractor_diamondtriangles.svg	6	yes	57	0	563
6.6.1	win	2022-12-14	11:26:11	11:38:46	754197	5dee896cf87f5552d3cd6502	899467267	1	main_z	11	main_z	145	stimuli_distractor_trianglediamonds.svg	stimuli_target_trianglecircles.svg	25	yes	44	1	1660
6.6.1	win	2022-12-14	11:26:11	11:38:46	754197	5dee896cf87f5552d3cd6502	899467267	1	main_z	11	advance_on_keypress_ZEE	146	stimuli_distractor_trianglediamonds.svg	stimuli_target_trianglecircles.svg	25	yes	57	0	569
6.6.1	win	2022-12-14	11:26:11	11:38:48	756366	5dee896cf87f5552d3cd6502	899467267	1	main_z	11	main_z	147	stimuli_distractor_trianglediamonds.svg	stimuli_target_squaretriangles.svg	11	yes	44	1	982
6.6.1	win	2022-12-14	11:26:11	11:38:48	756366	5dee896cf87f5552d3cd6502	899467267	1	main_z	11	advance_on_keypress_ZEE	148	stimuli_distractor_trianglediamonds.svg	stimuli_target_squaretriangles.svg	11	yes	57	0	571
6.6.1	win	2022-12-14	11:26:11	11:38:50	758456	5dee896cf87f5552d3cd6502	899467267	1	main_z	11	main_z	149	stimuli_target_squaretriangles.svg	stimuli_distractor_diamondtriangles.svg	7	yes	44	1	905
6.6.1	win	2022-12-14	11:26:11	11:38:50	758456	5dee896cf87f5552d3cd6502	899467267	1	main_z	11	advance_on_keypress_ZEE	150	stimuli_target_squaretriangles.svg	stimuli_distractor_diamondtriangles.svg	7	yes	57	0	353
6.6.1	win	2022-12-14	11:26:11	11:38:53	761429	5dee896cf87f5552d3cd6502	899467267	1	main_z	11	main_z	151	stimuli_distractor_trianglediamonds.svg	stimuli_distractor_trianglediamonds.svg	33	no	0	1	2003
6.6.1	win	2022-12-14	11:26:11	11:38:53	761429	5dee896cf87f5552d3cd6502	899467267	1	main_z	11	advance_on_keypress_ZEE	152	stimuli_distractor_trianglediamonds.svg	stimuli_distractor_trianglediamonds.svg	33	no	57	0	914
6.6.1	win	2022-12-14	11:26:11	11:38:57	764957	5dee896cf87f5552d3cd6502	899467267	1	main_z	11	main_z	153	stimuli_distractor_diamondtriangles.svg	stimuli_distractor_diamondtriangles.svg	39	no	0	1	2003
6.6.1	win	2022-12-14	11:26:11	11:38:57	764957	5dee896cf87f5552d3cd6502	899467267	1	main_z	11	advance_on_keypress_ZEE	154	stimuli_distractor_diamondtriangles.svg	stimuli_distractor_diamondtriangles.svg	39	no	57	0	458
6.6.1	win	2022-12-14	11:26:11	11:38:58	766910	5dee896cf87f5552d3cd6502	899467267	1	main_z	11	main_z	155	stimuli_target_trianglecircles.svg	stimuli_distractor_diamondtriangles.svg	21	yes	44	1	880
6.6.1	win	2022-12-14	11:26:11	11:38:58	766910	5dee896cf87f5552d3cd6502	899467267	1	main_z	11	advance_on_keypress_ZEE	156	stimuli_target_trianglecircles.svg	stimuli_distractor_diamondtriangles.svg	21	yes	57	0	385
6.6.1	win	2022-12-14	11:26:11	11:39:01	769124	5dee896cf87f5552d3cd6502	899467267	1	main_z	11	main_z	157	stimuli_target_circlediamonds.svg	stimuli_distractor_trianglediamonds.svg	2	yes	44	1	1219
6.6.1	win	2022-12-14	11:26:11	11:39:01	769124	5dee896cf87f5552d3cd6502	899467267	1	main_z	11	advance_on_keypress_ZEE	158	stimuli_target_circlediamonds.svg	stimuli_distractor_trianglediamonds.svg	2	yes	57	0	371
6.6.1	win	2022-12-14	11:26:11	11:39:03	771035	5dee896cf87f5552d3cd6502	899467267	1	main_z	11	main_z	159	stimuli_distractor_trianglediamonds.svg	stimuli_target_diamondcircles.svg	27	yes	44	1	928
6.6.1	win	2022-12-14	11:26:11	11:39:03	771035	5dee896cf87f5552d3cd6502	899467267	1	main_z	11	advance_on_keypress_ZEE	160	stimuli_distractor_trianglediamonds.svg	stimuli_target_diamondcircles.svg	27	yes	57	0	301