build	computer.platform	date	time	timestamp	time_elapsed_ms	subject	group	session	blockcode	blocknum	trialcode	trialnum	stimulus_left	stimulus_right	stim_index	target_present	response	correct	latency
6.6.0	win	2022-12-15	14:31:54	14:34:02	125550	5d158f6419d2ed0001e2120c	723524778	1	practice_z	5	practice_z	1	stimuli_target_squarediamonds.svg	stimuli_distractor_trianglediamonds.svg	5	yes	44	1	554
6.6.0	win	2022-12-15	14:31:54	14:34:02	125550	5d158f6419d2ed0001e2120c	723524778	1	practice_z	5	advance_on_keypress_ZEE	2	stimuli_target_squarediamonds.svg	stimuli_distractor_trianglediamonds.svg	5	yes	57	0	1217
6.6.0	win	2022-12-15	14:31:54	14:34:05	129038	5d158f6419d2ed0001e2120c	723524778	1	practice_z	5	practice_z	3	stimuli_target_circlediamonds.svg	stimuli_distractor_trianglediamonds.svg	4	yes	44	1	592
6.6.0	win	2022-12-15	14:31:54	14:34:05	129038	5d158f6419d2ed0001e2120c	723524778	1	practice_z	5	advance_on_keypress_ZEE	4	stimuli_target_circlediamonds.svg	stimuli_distractor_trianglediamonds.svg	4	yes	57	0	538
6.6.0	win	2022-12-15	14:31:54	14:34:08	131823	5d158f6419d2ed0001e2120c	723524778	1	practice_z	5	practice_z	5	stimuli_distractor_trianglediamonds.svg	stimuli_target_circlediamonds.svg	10	yes	44	1	596
6.6.0	win	2022-12-15	14:31:54	14:34:08	131823	5d158f6419d2ed0001e2120c	723524778	1	practice_z	5	advance_on_keypress_ZEE	6	stimuli_distractor_trianglediamonds.svg	stimuli_target_circlediamonds.svg	10	yes	57	0	629
6.6.0	win	2022-12-15	14:31:54	14:34:11	134664	5d158f6419d2ed0001e2120c	723524778	1	practice_z	5	practice_z	7	stimuli_target_squarediamonds.svg	stimuli_distractor_diamondtriangles.svg	2	yes	44	1	553
6.6.0	win	2022-12-15	14:31:54	14:34:11	134664	5d158f6419d2ed0001e2120c	723524778	1	practice_z	5	advance_on_keypress_ZEE	8	stimuli_target_squarediamonds.svg	stimuli_distractor_diamondtriangles.svg	2	yes	57	0	379
6.6.0	win	2022-12-15	14:31:54	14:34:15	138692	5d158f6419d2ed0001e2120c	723524778	1	practice_z	5	practice_z	9	stimuli_distractor_trianglediamonds.svg	stimuli_distractor_diamondtriangles.svg	16	no	0	1	2000
6.6.0	win	2022-12-15	14:31:54	14:34:15	138692	5d158f6419d2ed0001e2120c	723524778	1	practice_z	5	advance_on_keypress_ZEE	10	stimuli_distractor_trianglediamonds.svg	stimuli_distractor_diamondtriangles.svg	16	no	57	0	936
6.6.0	win	2022-12-15	14:31:54	14:34:18	141849	5d158f6419d2ed0001e2120c	723524778	1	practice_z	5	practice_z	11	stimuli_distractor_diamondtriangles.svg	stimuli_target_circletriangles.svg	7	yes	44	1	574
6.6.0	win	2022-12-15	14:31:54	14:34:18	141849	5d158f6419d2ed0001e2120c	723524778	1	practice_z	5	advance_on_keypress_ZEE	12	stimuli_distractor_diamondtriangles.svg	stimuli_target_circletriangles.svg	7	yes	57	0	495
6.6.0	win	2022-12-15	14:31:54	14:34:21	144582	5d158f6419d2ed0001e2120c	723524778	1	practice_z	5	practice_z	13	stimuli_target_circlediamonds.svg	stimuli_distractor_diamondtriangles.svg	1	yes	44	1	591
6.6.0	win	2022-12-15	14:31:54	14:34:21	144582	5d158f6419d2ed0001e2120c	723524778	1	practice_z	5	advance_on_keypress_ZEE	14	stimuli_target_circlediamonds.svg	stimuli_distractor_diamondtriangles.svg	1	yes	57	0	626
6.6.0	win	2022-12-15	14:31:54	14:34:24	147505	5d158f6419d2ed0001e2120c	723524778	1	practice_z	5	practice_z	15	stimuli_distractor_trianglediamonds.svg	stimuli_target_squarediamonds.svg	11	yes	44	1	647
6.6.0	win	2022-12-15	14:31:54	14:34:24	147505	5d158f6419d2ed0001e2120c	723524778	1	practice_z	5	advance_on_keypress_ZEE	16	stimuli_distractor_trianglediamonds.svg	stimuli_target_squarediamonds.svg	11	yes	57	0	804
6.6.0	win	2022-12-15	14:31:54	14:34:28	151957	5d158f6419d2ed0001e2120c	723524778	1	practice_z	5	practice_z	17	stimuli_distractor_diamondtriangles.svg	stimuli_distractor_trianglediamonds.svg	14	no	0	1	2000
6.6.0	win	2022-12-15	14:31:54	14:34:28	151957	5d158f6419d2ed0001e2120c	723524778	1	practice_z	5	advance_on_keypress_ZEE	18	stimuli_distractor_diamondtriangles.svg	stimuli_distractor_trianglediamonds.svg	14	no	57	0	537
6.6.0	win	2022-12-15	14:31:54	14:34:31	154655	5d158f6419d2ed0001e2120c	723524778	1	practice_z	5	practice_z	19	stimuli_distractor_diamondtriangles.svg	stimuli_target_diamondcircles.svg	8	yes	44	1	517
6.6.0	win	2022-12-15	14:31:54	14:34:31	154655	5d158f6419d2ed0001e2120c	723524778	1	practice_z	5	advance_on_keypress_ZEE	20	stimuli_distractor_diamondtriangles.svg	stimuli_target_diamondcircles.svg	8	yes	57	0	401
6.6.0	win	2022-12-15	14:31:54	14:34:35	158498	5d158f6419d2ed0001e2120c	723524778	1	practice_z	5	practice_z	21	stimuli_target_diamondsquares.svg	stimuli_distractor_diamondtriangles.svg	3	yes	44	1	1794
6.6.0	win	2022-12-15	14:31:54	14:34:35	158498	5d158f6419d2ed0001e2120c	723524778	1	practice_z	5	advance_on_keypress_ZEE	22	stimuli_target_diamondsquares.svg	stimuli_distractor_diamondtriangles.svg	3	yes	57	0	380
6.6.0	win	2022-12-15	14:31:54	14:34:39	162537	5d158f6419d2ed0001e2120c	723524778	1	practice_z	5	practice_z	23	stimuli_distractor_diamondtriangles.svg	stimuli_distractor_diamondtriangles.svg	13	no	0	1	2000
6.6.0	win	2022-12-15	14:31:54	14:34:39	162537	5d158f6419d2ed0001e2120c	723524778	1	practice_z	5	advance_on_keypress_ZEE	24	stimuli_distractor_diamondtriangles.svg	stimuli_distractor_diamondtriangles.svg	13	no	57	0	469
6.6.0	win	2022-12-15	14:31:54	14:34:43	166652	5d158f6419d2ed0001e2120c	723524778	1	practice_z	5	practice_z	25	stimuli_distractor_trianglediamonds.svg	stimuli_distractor_trianglediamonds.svg	15	no	0	1	2000
6.6.0	win	2022-12-15	14:31:54	14:34:43	166652	5d158f6419d2ed0001e2120c	723524778	1	practice_z	5	advance_on_keypress_ZEE	26	stimuli_distractor_trianglediamonds.svg	stimuli_distractor_trianglediamonds.svg	15	no	57	0	442
6.6.0	win	2022-12-15	14:31:54	14:34:46	169612	5d158f6419d2ed0001e2120c	723524778	1	practice_z	5	practice_z	27	stimuli_distractor_trianglediamonds.svg	stimuli_target_diamondcircles.svg	12	yes	44	1	878
6.6.0	win	2022-12-15	14:31:54	14:34:46	169612	5d158f6419d2ed0001e2120c	723524778	1	practice_z	5	advance_on_keypress_ZEE	28	stimuli_distractor_trianglediamonds.svg	stimuli_target_diamondcircles.svg	12	yes	57	0	2428
6.6.0	win	2022-12-15	14:31:54	14:34:51	174309	5d158f6419d2ed0001e2120c	723524778	1	practice_z	5	practice_z	29	stimuli_distractor_diamondtriangles.svg	stimuli_target_trianglecircles.svg	9	yes	44	1	609
6.6.0	win	2022-12-15	14:31:54	14:34:51	174309	5d158f6419d2ed0001e2120c	723524778	1	practice_z	5	advance_on_keypress_ZEE	30	stimuli_distractor_diamondtriangles.svg	stimuli_target_trianglecircles.svg	9	yes	57	0	885
6.6.0	win	2022-12-15	14:31:54	14:34:55	178849	5d158f6419d2ed0001e2120c	723524778	1	practice_z	5	practice_z	31	stimuli_target_diamondsquares.svg	stimuli_distractor_trianglediamonds.svg	6	yes	0	0	2000
6.6.0	win	2022-12-15	14:31:54	14:34:55	178849	5d158f6419d2ed0001e2120c	723524778	1	practice_z	5	advance_on_keypress_ZEE	32	stimuli_target_diamondsquares.svg	stimuli_distractor_trianglediamonds.svg	6	yes	57	0	385
6.6.0	win	2022-12-15	14:31:54	14:35:04	188060	5d158f6419d2ed0001e2120c	723524778	1	main_z	7	main_z	1	stimuli_target_squaretriangles.svg	stimuli_distractor_diamondtriangles.svg	7	yes	44	1	566
6.6.0	win	2022-12-15	14:31:54	14:35:04	188060	5d158f6419d2ed0001e2120c	723524778	1	main_z	7	advance_on_keypress_ZEE	2	stimuli_target_squaretriangles.svg	stimuli_distractor_diamondtriangles.svg	7	yes	57	0	987
6.6.0	win	2022-12-15	14:31:54	14:35:06	190182	5d158f6419d2ed0001e2120c	723524778	1	main_z	7	main_z	3	stimuli_distractor_trianglediamonds.svg	stimuli_target_squaretriangles.svg	11	yes	44	1	490
6.6.0	win	2022-12-15	14:31:54	14:35:06	190182	5d158f6419d2ed0001e2120c	723524778	1	main_z	7	advance_on_keypress_ZEE	4	stimuli_distractor_trianglediamonds.svg	stimuli_target_squaretriangles.svg	11	yes	57	0	637
6.6.0	win	2022-12-15	14:31:54	14:35:08	191948	5d158f6419d2ed0001e2120c	723524778	1	main_z	7	main_z	5	stimuli_distractor_trianglediamonds.svg	stimuli_target_circletriangles.svg	9	yes	44	1	490
6.6.0	win	2022-12-15	14:31:54	14:35:08	191948	5d158f6419d2ed0001e2120c	723524778	1	main_z	7	advance_on_keypress_ZEE	6	stimuli_distractor_trianglediamonds.svg	stimuli_target_circletriangles.svg	9	yes	57	0	661
6.6.0	win	2022-12-15	14:31:54	14:35:10	193786	5d158f6419d2ed0001e2120c	723524778	1	main_z	7	main_z	7	stimuli_distractor_trianglediamonds.svg	stimuli_target_trianglecircles.svg	25	yes	44	1	544
6.6.0	win	2022-12-15	14:31:54	14:35:10	193786	5d158f6419d2ed0001e2120c	723524778	1	main_z	7	advance_on_keypress_ZEE	8	stimuli_distractor_trianglediamonds.svg	stimuli_target_trianglecircles.svg	25	yes	57	0	507
6.6.0	win	2022-12-15	14:31:54	14:35:12	195895	5d158f6419d2ed0001e2120c	723524778	1	main_z	7	main_z	9	stimuli_distractor_diamondtriangles.svg	stimuli_target_trianglesquares.svg	30	yes	44	1	954
6.6.0	win	2022-12-15	14:31:54	14:35:12	195895	5d158f6419d2ed0001e2120c	723524778	1	main_z	7	advance_on_keypress_ZEE	10	stimuli_distractor_diamondtriangles.svg	stimuli_target_trianglesquares.svg	30	yes	57	0	508
6.6.0	win	2022-12-15	14:31:54	14:35:14	197559	5d158f6419d2ed0001e2120c	723524778	1	main_z	7	main_z	11	stimuli_target_diamondsquares.svg	stimuli_distractor_diamondtriangles.svg	24	yes	44	1	519
6.6.0	win	2022-12-15	14:31:54	14:35:14	197559	5d158f6419d2ed0001e2120c	723524778	1	main_z	7	advance_on_keypress_ZEE	12	stimuli_target_diamondsquares.svg	stimuli_distractor_diamondtriangles.svg	24	yes	57	0	519
6.6.0	win	2022-12-15	14:31:54	14:35:16	199599	5d158f6419d2ed0001e2120c	723524778	1	main_z	7	main_z	13	stimuli_distractor_trianglediamonds.svg	stimuli_target_squarediamonds.svg	12	yes	44	1	875
6.6.0	win	2022-12-15	14:31:54	14:35:16	199599	5d158f6419d2ed0001e2120c	723524778	1	main_z	7	advance_on_keypress_ZEE	14	stimuli_distractor_trianglediamonds.svg	stimuli_target_squarediamonds.svg	12	yes	57	0	461
6.6.0	win	2022-12-15	14:31:54	14:35:18	201453	5d158f6419d2ed0001e2120c	723524778	1	main_z	7	main_z	15	stimuli_distractor_trianglediamonds.svg	stimuli_target_trianglesquares.svg	26	yes	44	1	730
6.6.0	win	2022-12-15	14:31:54	14:35:18	201453	5d158f6419d2ed0001e2120c	723524778	1	main_z	7	advance_on_keypress_ZEE	16	stimuli_distractor_trianglediamonds.svg	stimuli_target_trianglesquares.svg	26	yes	57	0	447
6.6.0	win	2022-12-15	14:31:54	14:35:20	203771	5d158f6419d2ed0001e2120c	723524778	1	main_z	7	main_z	17	stimuli_target_squarediamonds.svg	stimuli_distractor_trianglediamonds.svg	4	yes	44	1	1215
6.6.0	win	2022-12-15	14:31:54	14:35:20	203771	5d158f6419d2ed0001e2120c	723524778	1	main_z	7	advance_on_keypress_ZEE	18	stimuli_target_squarediamonds.svg	stimuli_distractor_trianglediamonds.svg	4	yes	57	0	543
6.6.0	win	2022-12-15	14:31:54	14:35:22	205533	5d158f6419d2ed0001e2120c	723524778	1	main_z	7	main_z	19	stimuli_target_squaretriangles.svg	stimuli_distractor_trianglediamonds.svg	3	yes	44	1	578
6.6.0	win	2022-12-15	14:31:54	14:35:22	205533	5d158f6419d2ed0001e2120c	723524778	1	main_z	7	advance_on_keypress_ZEE	20	stimuli_target_squaretriangles.svg	stimuli_distractor_trianglediamonds.svg	3	yes	57	0	605
6.6.0	win	2022-12-15	14:31:54	14:35:24	207463	5d158f6419d2ed0001e2120c	723524778	1	main_z	7	main_z	21	stimuli_target_trianglecircles.svg	stimuli_distractor_trianglediamonds.svg	17	yes	44	1	676
6.6.0	win	2022-12-15	14:31:54	14:35:24	207463	5d158f6419d2ed0001e2120c	723524778	1	main_z	7	advance_on_keypress_ZEE	22	stimuli_target_trianglecircles.svg	stimuli_distractor_trianglediamonds.svg	17	yes	57	0	413
6.6.0	win	2022-12-15	14:31:54	14:35:25	209162	5d158f6419d2ed0001e2120c	723524778	1	main_z	7	main_z	23	stimuli_distractor_diamondtriangles.svg	stimuli_target_diamondsquares.svg	32	yes	44	1	642
6.6.0	win	2022-12-15	14:31:54	14:35:25	209162	5d158f6419d2ed0001e2120c	723524778	1	main_z	7	advance_on_keypress_ZEE	24	stimuli_distractor_diamondtriangles.svg	stimuli_target_diamondsquares.svg	32	yes	57	0	453
6.6.0	win	2022-12-15	14:31:54	14:35:27	210882	5d158f6419d2ed0001e2120c	723524778	1	main_z	7	main_z	25	stimuli_target_circlediamonds.svg	stimuli_distractor_diamondtriangles.svg	6	yes	44	1	629
6.6.0	win	2022-12-15	14:31:54	14:35:27	210882	5d158f6419d2ed0001e2120c	723524778	1	main_z	7	advance_on_keypress_ZEE	26	stimuli_target_circlediamonds.svg	stimuli_distractor_diamondtriangles.svg	6	yes	57	0	349
6.6.0	win	2022-12-15	14:31:54	14:35:29	212594	5d158f6419d2ed0001e2120c	723524778	1	main_z	7	main_z	27	stimuli_distractor_diamondtriangles.svg	stimuli_target_circlediamonds.svg	14	yes	44	1	708
6.6.0	win	2022-12-15	14:31:54	14:35:29	212594	5d158f6419d2ed0001e2120c	723524778	1	main_z	7	advance_on_keypress_ZEE	28	stimuli_distractor_diamondtriangles.svg	stimuli_target_circlediamonds.svg	14	yes	57	0	436
6.6.0	win	2022-12-15	14:31:54	14:35:31	214640	5d158f6419d2ed0001e2120c	723524778	1	main_z	7	main_z	29	stimuli_distractor_trianglediamonds.svg	stimuli_distractor_trianglediamonds.svg	34	no	44	0	970
6.6.0	win	2022-12-15	14:31:54	14:35:31	214640	5d158f6419d2ed0001e2120c	723524778	1	main_z	7	advance_on_keypress_ZEE	30	stimuli_distractor_trianglediamonds.svg	stimuli_distractor_trianglediamonds.svg	34	no	57	0	442
6.6.0	win	2022-12-15	14:31:54	14:35:33	216487	5d158f6419d2ed0001e2120c	723524778	1	main_z	7	main_z	31	stimuli_distractor_trianglediamonds.svg	stimuli_target_diamondcircles.svg	27	yes	44	1	769
6.6.0	win	2022-12-15	14:31:54	14:35:33	216487	5d158f6419d2ed0001e2120c	723524778	1	main_z	7	advance_on_keypress_ZEE	32	stimuli_distractor_trianglediamonds.svg	stimuli_target_diamondcircles.svg	27	yes	57	0	425
6.6.0	win	2022-12-15	14:31:54	14:35:35	218296	5d158f6419d2ed0001e2120c	723524778	1	main_z	7	main_z	33	stimuli_distractor_diamondtriangles.svg	stimuli_target_trianglecircles.svg	29	yes	44	1	745
6.6.0	win	2022-12-15	14:31:54	14:35:35	218296	5d158f6419d2ed0001e2120c	723524778	1	main_z	7	advance_on_keypress_ZEE	34	stimuli_distractor_diamondtriangles.svg	stimuli_target_trianglecircles.svg	29	yes	57	0	385
6.6.0	win	2022-12-15	14:31:54	14:35:38	221334	5d158f6419d2ed0001e2120c	723524778	1	main_z	7	main_z	35	stimuli_distractor_trianglediamonds.svg	stimuli_distractor_diamondtriangles.svg	36	no	0	1	2000
6.6.0	win	2022-12-15	14:31:54	14:35:38	221334	5d158f6419d2ed0001e2120c	723524778	1	main_z	7	advance_on_keypress_ZEE	36	stimuli_distractor_trianglediamonds.svg	stimuli_distractor_diamondtriangles.svg	36	no	57	0	488
6.6.0	win	2022-12-15	14:31:54	14:35:39	223087	5d158f6419d2ed0001e2120c	723524778	1	main_z	7	main_z	37	stimuli_target_circlediamonds.svg	stimuli_distractor_trianglediamonds.svg	2	yes	44	1	621
6.6.0	win	2022-12-15	14:31:54	14:35:39	223087	5d158f6419d2ed0001e2120c	723524778	1	main_z	7	advance_on_keypress_ZEE	38	stimuli_target_circlediamonds.svg	stimuli_distractor_trianglediamonds.svg	2	yes	57	0	466
6.6.0	win	2022-12-15	14:31:54	14:35:41	224941	5d158f6419d2ed0001e2120c	723524778	1	main_z	7	main_z	39	stimuli_target_trianglesquares.svg	stimuli_distractor_diamondtriangles.svg	22	yes	44	1	742
6.6.0	win	2022-12-15	14:31:54	14:35:41	224941	5d158f6419d2ed0001e2120c	723524778	1	main_z	7	advance_on_keypress_ZEE	40	stimuli_target_trianglesquares.svg	stimuli_distractor_diamondtriangles.svg	22	yes	57	0	326
6.6.0	win	2022-12-15	14:31:54	14:35:43	226619	5d158f6419d2ed0001e2120c	723524778	1	main_z	7	main_z	41	stimuli_target_diamondcircles.svg	stimuli_distractor_trianglediamonds.svg	19	yes	44	1	720
6.6.0	win	2022-12-15	14:31:54	14:35:43	226619	5d158f6419d2ed0001e2120c	723524778	1	main_z	7	advance_on_keypress_ZEE	42	stimuli_target_diamondcircles.svg	stimuli_distractor_trianglediamonds.svg	19	yes	57	0	285
6.6.0	win	2022-12-15	14:31:54	14:35:45	228565	5d158f6419d2ed0001e2120c	723524778	1	main_z	7	main_z	43	stimuli_target_circletriangles.svg	stimuli_distractor_trianglediamonds.svg	1	yes	44	1	1016
6.6.0	win	2022-12-15	14:31:54	14:35:45	228565	5d158f6419d2ed0001e2120c	723524778	1	main_z	7	advance_on_keypress_ZEE	44	stimuli_target_circletriangles.svg	stimuli_distractor_trianglediamonds.svg	1	yes	57	0	380
6.6.0	win	2022-12-15	14:31:54	14:35:48	231598	5d158f6419d2ed0001e2120c	723524778	1	main_z	7	main_z	45	stimuli_distractor_trianglediamonds.svg	stimuli_distractor_diamondtriangles.svg	35	no	0	1	2000
6.6.0	win	2022-12-15	14:31:54	14:35:48	231598	5d158f6419d2ed0001e2120c	723524778	1	main_z	7	advance_on_keypress_ZEE	46	stimuli_distractor_trianglediamonds.svg	stimuli_distractor_diamondtriangles.svg	35	no	57	0	1210
6.6.0	win	2022-12-15	14:31:54	14:35:52	235464	5d158f6419d2ed0001e2120c	723524778	1	main_z	7	main_z	47	stimuli_distractor_diamondtriangles.svg	stimuli_distractor_trianglediamonds.svg	37	no	0	1	2000
6.6.0	win	2022-12-15	14:31:54	14:35:52	235464	5d158f6419d2ed0001e2120c	723524778	1	main_z	7	advance_on_keypress_ZEE	48	stimuli_distractor_diamondtriangles.svg	stimuli_distractor_trianglediamonds.svg	37	no	57	0	512
6.6.0	win	2022-12-15	14:31:54	14:35:54	237589	5d158f6419d2ed0001e2120c	723524778	1	main_z	7	main_z	49	stimuli_distractor_diamondtriangles.svg	stimuli_target_squaretriangles.svg	15	yes	44	1	959
6.6.0	win	2022-12-15	14:31:54	14:35:54	237589	5d158f6419d2ed0001e2120c	723524778	1	main_z	7	advance_on_keypress_ZEE	50	stimuli_distractor_diamondtriangles.svg	stimuli_target_squaretriangles.svg	15	yes	57	0	406
6.6.0	win	2022-12-15	14:31:54	14:35:57	240646	5d158f6419d2ed0001e2120c	723524778	1	main_z	7	main_z	51	stimuli_distractor_diamondtriangles.svg	stimuli_distractor_trianglediamonds.svg	38	no	0	1	2000
6.6.0	win	2022-12-15	14:31:54	14:35:57	240646	5d158f6419d2ed0001e2120c	723524778	1	main_z	7	advance_on_keypress_ZEE	52	stimuli_distractor_diamondtriangles.svg	stimuli_distractor_trianglediamonds.svg	38	no	57	0	441
6.6.0	win	2022-12-15	14:31:54	14:35:59	242382	5d158f6419d2ed0001e2120c	723524778	1	main_z	7	main_z	53	stimuli_target_diamondcircles.svg	stimuli_distractor_diamondtriangles.svg	23	yes	44	1	654
6.6.0	win	2022-12-15	14:31:54	14:35:59	242382	5d158f6419d2ed0001e2120c	723524778	1	main_z	7	advance_on_keypress_ZEE	54	stimuli_target_diamondcircles.svg	stimuli_distractor_diamondtriangles.svg	23	yes	57	0	279
6.6.0	win	2022-12-15	14:31:54	14:36:00	243904	5d158f6419d2ed0001e2120c	723524778	1	main_z	7	main_z	55	stimuli_distractor_diamondtriangles.svg	stimuli_target_squarediamonds.svg	16	yes	44	1	593
6.6.0	win	2022-12-15	14:31:54	14:36:00	243904	5d158f6419d2ed0001e2120c	723524778	1	main_z	7	advance_on_keypress_ZEE	56	stimuli_distractor_diamondtriangles.svg	stimuli_target_squarediamonds.svg	16	yes	57	0	347
6.6.0	win	2022-12-15	14:31:54	14:36:03	246894	5d158f6419d2ed0001e2120c	723524778	1	main_z	7	main_z	57	stimuli_distractor_trianglediamonds.svg	stimuli_distractor_trianglediamonds.svg	33	no	0	1	2000
6.6.0	win	2022-12-15	14:31:54	14:36:03	246894	5d158f6419d2ed0001e2120c	723524778	1	main_z	7	advance_on_keypress_ZEE	58	stimuli_distractor_trianglediamonds.svg	stimuli_distractor_trianglediamonds.svg	33	no	57	0	421
6.6.0	win	2022-12-15	14:31:54	14:36:06	249960	5d158f6419d2ed0001e2120c	723524778	1	main_z	7	main_z	59	stimuli_distractor_diamondtriangles.svg	stimuli_distractor_diamondtriangles.svg	40	no	0	1	2000
6.6.0	win	2022-12-15	14:31:54	14:36:06	249960	5d158f6419d2ed0001e2120c	723524778	1	main_z	7	advance_on_keypress_ZEE	60	stimuli_distractor_diamondtriangles.svg	stimuli_distractor_diamondtriangles.svg	40	no	57	0	485
6.6.0	win	2022-12-15	14:31:54	14:36:08	251765	5d158f6419d2ed0001e2120c	723524778	1	main_z	7	main_z	61	stimuli_target_circletriangles.svg	stimuli_distractor_diamondtriangles.svg	5	yes	44	1	672
6.6.0	win	2022-12-15	14:31:54	14:36:08	251765	5d158f6419d2ed0001e2120c	723524778	1	main_z	7	advance_on_keypress_ZEE	62	stimuli_target_circletriangles.svg	stimuli_distractor_diamondtriangles.svg	5	yes	57	0	396
6.6.0	win	2022-12-15	14:31:54	14:36:11	254808	5d158f6419d2ed0001e2120c	723524778	1	main_z	7	main_z	63	stimuli_distractor_trianglediamonds.svg	stimuli_target_circlediamonds.svg	10	yes	0	0	2000
6.6.0	win	2022-12-15	14:31:54	14:36:11	254808	5d158f6419d2ed0001e2120c	723524778	1	main_z	7	advance_on_keypress_ZEE	64	stimuli_distractor_trianglediamonds.svg	stimuli_target_circlediamonds.svg	10	yes	57	0	401
6.6.0	win	2022-12-15	14:31:54	14:36:13	256623	5d158f6419d2ed0001e2120c	723524778	1	main_z	7	main_z	65	stimuli_distractor_diamondtriangles.svg	stimuli_target_diamondcircles.svg	31	yes	44	1	765
6.6.0	win	2022-12-15	14:31:54	14:36:13	256623	5d158f6419d2ed0001e2120c	723524778	1	main_z	7	advance_on_keypress_ZEE	66	stimuli_distractor_diamondtriangles.svg	stimuli_target_diamondcircles.svg	31	yes	57	0	288
6.6.0	win	2022-12-15	14:31:54	14:36:15	258354	5d158f6419d2ed0001e2120c	723524778	1	main_z	7	main_z	67	stimuli_distractor_trianglediamonds.svg	stimuli_target_diamondsquares.svg	28	yes	44	1	797
6.6.0	win	2022-12-15	14:31:54	14:36:15	258354	5d158f6419d2ed0001e2120c	723524778	1	main_z	7	advance_on_keypress_ZEE	68	stimuli_distractor_trianglediamonds.svg	stimuli_target_diamondsquares.svg	28	yes	57	0	277
6.6.0	win	2022-12-15	14:31:54	14:36:16	260075	5d158f6419d2ed0001e2120c	723524778	1	main_z	7	main_z	69	stimuli_distractor_diamondtriangles.svg	stimuli_target_circletriangles.svg	13	yes	44	1	801
6.6.0	win	2022-12-15	14:31:54	14:36:16	260075	5d158f6419d2ed0001e2120c	723524778	1	main_z	7	advance_on_keypress_ZEE	70	stimuli_distractor_diamondtriangles.svg	stimuli_target_circletriangles.svg	13	yes	57	0	296
6.6.0	win	2022-12-15	14:31:54	14:36:18	261743	5d158f6419d2ed0001e2120c	723524778	1	main_z	7	main_z	71	stimuli_target_squarediamonds.svg	stimuli_distractor_diamondtriangles.svg	8	yes	44	1	720
6.6.0	win	2022-12-15	14:31:54	14:36:18	261743	5d158f6419d2ed0001e2120c	723524778	1	main_z	7	advance_on_keypress_ZEE	72	stimuli_target_squarediamonds.svg	stimuli_distractor_diamondtriangles.svg	8	yes	57	0	258
6.6.0	win	2022-12-15	14:31:54	14:36:21	264639	5d158f6419d2ed0001e2120c	723524778	1	main_z	7	main_z	73	stimuli_distractor_diamondtriangles.svg	stimuli_distractor_diamondtriangles.svg	39	no	0	1	2000
6.6.0	win	2022-12-15	14:31:54	14:36:21	264639	5d158f6419d2ed0001e2120c	723524778	1	main_z	7	advance_on_keypress_ZEE	74	stimuli_distractor_diamondtriangles.svg	stimuli_distractor_diamondtriangles.svg	39	no	57	0	434
6.6.0	win	2022-12-15	14:31:54	14:36:23	266411	5d158f6419d2ed0001e2120c	723524778	1	main_z	7	main_z	75	stimuli_target_trianglecircles.svg	stimuli_distractor_diamondtriangles.svg	21	yes	44	1	690
6.6.0	win	2022-12-15	14:31:54	14:36:23	266411	5d158f6419d2ed0001e2120c	723524778	1	main_z	7	advance_on_keypress_ZEE	76	stimuli_target_trianglecircles.svg	stimuli_distractor_diamondtriangles.svg	21	yes	57	0	247
6.6.0	win	2022-12-15	14:31:54	14:36:24	268007	5d158f6419d2ed0001e2120c	723524778	1	main_z	7	main_z	77	stimuli_target_trianglesquares.svg	stimuli_distractor_trianglediamonds.svg	18	yes	44	1	703
6.6.0	win	2022-12-15	14:31:54	14:36:24	268007	5d158f6419d2ed0001e2120c	723524778	1	main_z	7	advance_on_keypress_ZEE	78	stimuli_target_trianglesquares.svg	stimuli_distractor_trianglediamonds.svg	18	yes	57	0	212
6.6.0	win	2022-12-15	14:31:54	14:36:26	269744	5d158f6419d2ed0001e2120c	723524778	1	main_z	7	main_z	79	stimuli_target_diamondsquares.svg	stimuli_distractor_trianglediamonds.svg	20	yes	44	1	874
6.6.0	win	2022-12-15	14:31:54	14:36:26	269744	5d158f6419d2ed0001e2120c	723524778	1	main_z	7	advance_on_keypress_ZEE	80	stimuli_target_diamondsquares.svg	stimuli_distractor_trianglediamonds.svg	20	yes	57	0	268
6.6.0	win	2022-12-15	14:31:54	14:36:28	271604	5d158f6419d2ed0001e2120c	723524778	1	main_z	7	main_z	81	stimuli_distractor_diamondtriangles.svg	stimuli_distractor_trianglediamonds.svg	37	no	44	0	950
6.6.0	win	2022-12-15	14:31:54	14:36:28	271604	5d158f6419d2ed0001e2120c	723524778	1	main_z	7	advance_on_keypress_ZEE	82	stimuli_distractor_diamondtriangles.svg	stimuli_distractor_trianglediamonds.svg	37	no	57	0	367
6.6.0	win	2022-12-15	14:31:54	14:36:31	274620	5d158f6419d2ed0001e2120c	723524778	1	main_z	7	main_z	83	stimuli_distractor_trianglediamonds.svg	stimuli_distractor_diamondtriangles.svg	36	no	0	1	2000
6.6.0	win	2022-12-15	14:31:54	14:36:31	274620	5d158f6419d2ed0001e2120c	723524778	1	main_z	7	advance_on_keypress_ZEE	84	stimuli_distractor_trianglediamonds.svg	stimuli_distractor_diamondtriangles.svg	36	no	57	0	721
6.6.0	win	2022-12-15	14:31:54	14:36:33	276605	5d158f6419d2ed0001e2120c	723524778	1	main_z	7	main_z	85	stimuli_target_squaretriangles.svg	stimuli_distractor_trianglediamonds.svg	3	yes	44	1	620
6.6.0	win	2022-12-15	14:31:54	14:36:33	276605	5d158f6419d2ed0001e2120c	723524778	1	main_z	7	advance_on_keypress_ZEE	86	stimuli_target_squaretriangles.svg	stimuli_distractor_trianglediamonds.svg	3	yes	57	0	309
6.6.0	win	2022-12-15	14:31:54	14:36:35	278341	5d158f6419d2ed0001e2120c	723524778	1	main_z	7	main_z	87	stimuli_target_squarediamonds.svg	stimuli_distractor_trianglediamonds.svg	4	yes	44	1	790
6.6.0	win	2022-12-15	14:31:54	14:36:35	278341	5d158f6419d2ed0001e2120c	723524778	1	main_z	7	advance_on_keypress_ZEE	88	stimuli_target_squarediamonds.svg	stimuli_distractor_trianglediamonds.svg	4	yes	57	0	210
6.6.0	win	2022-12-15	14:31:54	14:36:36	279970	5d158f6419d2ed0001e2120c	723524778	1	main_z	7	main_z	89	stimuli_distractor_diamondtriangles.svg	stimuli_target_trianglesquares.svg	30	yes	44	1	786
6.6.0	win	2022-12-15	14:31:54	14:36:36	279970	5d158f6419d2ed0001e2120c	723524778	1	main_z	7	advance_on_keypress_ZEE	90	stimuli_distractor_diamondtriangles.svg	stimuli_target_trianglesquares.svg	30	yes	57	0	256
6.6.0	win	2022-12-15	14:31:54	14:36:38	281680	5d158f6419d2ed0001e2120c	723524778	1	main_z	7	main_z	91	stimuli_target_diamondsquares.svg	stimuli_distractor_diamondtriangles.svg	24	yes	44	1	813
6.6.0	win	2022-12-15	14:31:54	14:36:38	281680	5d158f6419d2ed0001e2120c	723524778	1	main_z	7	advance_on_keypress_ZEE	92	stimuli_target_diamondsquares.svg	stimuli_distractor_diamondtriangles.svg	24	yes	57	0	165
6.6.0	win	2022-12-15	14:31:54	14:36:41	284500	5d158f6419d2ed0001e2120c	723524778	1	main_z	7	main_z	93	stimuli_distractor_trianglediamonds.svg	stimuli_distractor_diamondtriangles.svg	35	no	0	1	2000
6.6.0	win	2022-12-15	14:31:54	14:36:41	284500	5d158f6419d2ed0001e2120c	723524778	1	main_z	7	advance_on_keypress_ZEE	94	stimuli_distractor_trianglediamonds.svg	stimuli_distractor_diamondtriangles.svg	35	no	57	0	493
6.6.0	win	2022-12-15	14:31:54	14:36:43	286358	5d158f6419d2ed0001e2120c	723524778	1	main_z	7	main_z	95	stimuli_distractor_diamondtriangles.svg	stimuli_target_diamondcircles.svg	31	yes	44	1	726
6.6.0	win	2022-12-15	14:31:54	14:36:43	286358	5d158f6419d2ed0001e2120c	723524778	1	main_z	7	advance_on_keypress_ZEE	96	stimuli_distractor_diamondtriangles.svg	stimuli_target_diamondcircles.svg	31	yes	57	0	208
6.6.0	win	2022-12-15	14:31:54	14:36:44	287931	5d158f6419d2ed0001e2120c	723524778	1	main_z	7	main_z	97	stimuli_target_trianglecircles.svg	stimuli_distractor_diamondtriangles.svg	21	yes	44	1	732
6.6.0	win	2022-12-15	14:31:54	14:36:44	287931	5d158f6419d2ed0001e2120c	723524778	1	main_z	7	advance_on_keypress_ZEE	98	stimuli_target_trianglecircles.svg	stimuli_distractor_diamondtriangles.svg	21	yes	57	0	178
6.6.0	win	2022-12-15	14:31:54	14:36:47	290748	5d158f6419d2ed0001e2120c	723524778	1	main_z	7	main_z	99	stimuli_distractor_diamondtriangles.svg	stimuli_distractor_trianglediamonds.svg	38	no	0	1	2000
6.6.0	win	2022-12-15	14:31:54	14:36:47	290748	5d158f6419d2ed0001e2120c	723524778	1	main_z	7	advance_on_keypress_ZEE	100	stimuli_distractor_diamondtriangles.svg	stimuli_distractor_trianglediamonds.svg	38	no	57	0	887
6.6.0	win	2022-12-15	14:31:54	14:36:51	294281	5d158f6419d2ed0001e2120c	723524778	1	main_z	7	main_z	101	stimuli_distractor_diamondtriangles.svg	stimuli_target_circlediamonds.svg	14	yes	0	0	2000
6.6.0	win	2022-12-15	14:31:54	14:36:51	294281	5d158f6419d2ed0001e2120c	723524778	1	main_z	7	advance_on_keypress_ZEE	102	stimuli_distractor_diamondtriangles.svg	stimuli_target_circlediamonds.svg	14	yes	57	0	931
6.6.0	win	2022-12-15	14:31:54	14:36:53	296551	5d158f6419d2ed0001e2120c	723524778	1	main_z	7	main_z	103	stimuli_target_diamondsquares.svg	stimuli_distractor_trianglediamonds.svg	20	yes	44	1	688
6.6.0	win	2022-12-15	14:31:54	14:36:53	296551	5d158f6419d2ed0001e2120c	723524778	1	main_z	7	advance_on_keypress_ZEE	104	stimuli_target_diamondsquares.svg	stimuli_distractor_trianglediamonds.svg	20	yes	57	0	235
6.6.0	win	2022-12-15	14:31:54	14:36:54	298209	5d158f6419d2ed0001e2120c	723524778	1	main_z	7	main_z	105	stimuli_distractor_trianglediamonds.svg	stimuli_target_circletriangles.svg	9	yes	44	1	780
6.6.0	win	2022-12-15	14:31:54	14:36:54	298209	5d158f6419d2ed0001e2120c	723524778	1	main_z	7	advance_on_keypress_ZEE	106	stimuli_distractor_trianglediamonds.svg	stimuli_target_circletriangles.svg	9	yes	57	0	161
6.6.0	win	2022-12-15	14:31:54	14:36:56	299791	5d158f6419d2ed0001e2120c	723524778	1	main_z	7	main_z	107	stimuli_target_circlediamonds.svg	stimuli_distractor_trianglediamonds.svg	2	yes	44	1	762
6.6.0	win	2022-12-15	14:31:54	14:36:56	299791	5d158f6419d2ed0001e2120c	723524778	1	main_z	7	advance_on_keypress_ZEE	108	stimuli_target_circlediamonds.svg	stimuli_distractor_trianglediamonds.svg	2	yes	57	0	200
6.6.0	win	2022-12-15	14:31:54	14:36:58	301389	5d158f6419d2ed0001e2120c	723524778	1	main_z	7	main_z	109	stimuli_distractor_trianglediamonds.svg	stimuli_target_diamondcircles.svg	27	yes	44	1	744
6.6.0	win	2022-12-15	14:31:54	14:36:58	301389	5d158f6419d2ed0001e2120c	723524778	1	main_z	7	advance_on_keypress_ZEE	110	stimuli_distractor_trianglediamonds.svg	stimuli_target_diamondcircles.svg	27	yes	57	0	232
6.6.0	win	2022-12-15	14:31:54	14:36:59	302977	5d158f6419d2ed0001e2120c	723524778	1	main_z	7	main_z	111	stimuli_target_trianglecircles.svg	stimuli_distractor_trianglediamonds.svg	17	yes	44	1	716
6.6.0	win	2022-12-15	14:31:54	14:36:59	302977	5d158f6419d2ed0001e2120c	723524778	1	main_z	7	advance_on_keypress_ZEE	112	stimuli_target_trianglecircles.svg	stimuli_distractor_trianglediamonds.svg	17	yes	57	0	126
6.6.0	win	2022-12-15	14:31:54	14:37:01	304994	5d158f6419d2ed0001e2120c	723524778	1	main_z	7	main_z	113	stimuli_distractor_trianglediamonds.svg	stimuli_target_squarediamonds.svg	12	yes	44	1	1250
6.6.0	win	2022-12-15	14:31:54	14:37:01	304994	5d158f6419d2ed0001e2120c	723524778	1	main_z	7	advance_on_keypress_ZEE	114	stimuli_distractor_trianglediamonds.svg	stimuli_target_squarediamonds.svg	12	yes	57	0	237
6.6.0	win	2022-12-15	14:31:54	14:37:03	306696	5d158f6419d2ed0001e2120c	723524778	1	main_z	7	main_z	115	stimuli_target_circlediamonds.svg	stimuli_distractor_diamondtriangles.svg	6	yes	44	1	819
6.6.0	win	2022-12-15	14:31:54	14:37:03	306696	5d158f6419d2ed0001e2120c	723524778	1	main_z	7	advance_on_keypress_ZEE	116	stimuli_target_circlediamonds.svg	stimuli_distractor_diamondtriangles.svg	6	yes	57	0	186
6.6.0	win	2022-12-15	14:31:54	14:37:05	308301	5d158f6419d2ed0001e2120c	723524778	1	main_z	7	main_z	117	stimuli_distractor_diamondtriangles.svg	stimuli_target_circletriangles.svg	13	yes	44	1	775
6.6.0	win	2022-12-15	14:31:54	14:37:05	308301	5d158f6419d2ed0001e2120c	723524778	1	main_z	7	advance_on_keypress_ZEE	118	stimuli_distractor_diamondtriangles.svg	stimuli_target_circletriangles.svg	13	yes	57	0	230
6.6.0	win	2022-12-15	14:31:54	14:37:06	310028	5d158f6419d2ed0001e2120c	723524778	1	main_z	7	main_z	119	stimuli_distractor_diamondtriangles.svg	stimuli_target_diamondsquares.svg	32	yes	44	1	852
6.6.0	win	2022-12-15	14:31:54	14:37:06	310028	5d158f6419d2ed0001e2120c	723524778	1	main_z	7	advance_on_keypress_ZEE	120	stimuli_distractor_diamondtriangles.svg	stimuli_target_diamondsquares.svg	32	yes	57	0	204
6.6.0	win	2022-12-15	14:31:54	14:37:08	311687	5d158f6419d2ed0001e2120c	723524778	1	main_z	7	main_z	121	stimuli_distractor_trianglediamonds.svg	stimuli_target_trianglesquares.svg	26	yes	44	1	810
6.6.0	win	2022-12-15	14:31:54	14:37:08	311687	5d158f6419d2ed0001e2120c	723524778	1	main_z	7	advance_on_keypress_ZEE	122	stimuli_distractor_trianglediamonds.svg	stimuli_target_trianglesquares.svg	26	yes	57	0	174
6.6.0	win	2022-12-15	14:31:54	14:37:10	313313	5d158f6419d2ed0001e2120c	723524778	1	main_z	7	main_z	123	stimuli_distractor_trianglediamonds.svg	stimuli_target_trianglecircles.svg	25	yes	44	1	805
6.6.0	win	2022-12-15	14:31:54	14:37:10	313313	5d158f6419d2ed0001e2120c	723524778	1	main_z	7	advance_on_keypress_ZEE	124	stimuli_distractor_trianglediamonds.svg	stimuli_target_trianglecircles.svg	25	yes	57	0	233
6.6.0	win	2022-12-15	14:31:54	14:37:11	315030	5d158f6419d2ed0001e2120c	723524778	1	main_z	7	main_z	125	stimuli_target_diamondcircles.svg	stimuli_distractor_trianglediamonds.svg	19	yes	44	1	839
6.6.0	win	2022-12-15	14:31:54	14:37:11	315030	5d158f6419d2ed0001e2120c	723524778	1	main_z	7	advance_on_keypress_ZEE	126	stimuli_target_diamondcircles.svg	stimuli_distractor_trianglediamonds.svg	19	yes	57	0	232
6.6.0	win	2022-12-15	14:31:54	14:37:13	316751	5d158f6419d2ed0001e2120c	723524778	1	main_z	7	main_z	127	stimuli_target_circletriangles.svg	stimuli_distractor_diamondtriangles.svg	5	yes	44	1	844
6.6.0	win	2022-12-15	14:31:54	14:37:13	316751	5d158f6419d2ed0001e2120c	723524778	1	main_z	7	advance_on_keypress_ZEE	128	stimuli_target_circletriangles.svg	stimuli_distractor_diamondtriangles.svg	5	yes	57	0	170
6.6.0	win	2022-12-15	14:31:54	14:37:15	318372	5d158f6419d2ed0001e2120c	723524778	1	main_z	7	main_z	129	stimuli_distractor_trianglediamonds.svg	stimuli_target_squaretriangles.svg	11	yes	44	1	815
6.6.0	win	2022-12-15	14:31:54	14:37:15	318372	5d158f6419d2ed0001e2120c	723524778	1	main_z	7	advance_on_keypress_ZEE	130	stimuli_distractor_trianglediamonds.svg	stimuli_target_squaretriangles.svg	11	yes	57	0	136
6.6.0	win	2022-12-15	14:31:54	14:37:17	321157	5d158f6419d2ed0001e2120c	723524778	1	main_z	7	main_z	131	stimuli_distractor_diamondtriangles.svg	stimuli_distractor_diamondtriangles.svg	39	no	0	1	2000
6.6.0	win	2022-12-15	14:31:54	14:37:17	321157	5d158f6419d2ed0001e2120c	723524778	1	main_z	7	advance_on_keypress_ZEE	132	stimuli_distractor_diamondtriangles.svg	stimuli_distractor_diamondtriangles.svg	39	no	57	0	950
6.6.0	win	2022-12-15	14:31:54	14:37:21	324756	5d158f6419d2ed0001e2120c	723524778	1	main_z	7	main_z	133	stimuli_distractor_trianglediamonds.svg	stimuli_distractor_trianglediamonds.svg	34	no	0	1	2000
6.6.0	win	2022-12-15	14:31:54	14:37:21	324756	5d158f6419d2ed0001e2120c	723524778	1	main_z	7	advance_on_keypress_ZEE	134	stimuli_distractor_trianglediamonds.svg	stimuli_distractor_trianglediamonds.svg	34	no	57	0	374
6.6.0	win	2022-12-15	14:31:54	14:37:23	326556	5d158f6419d2ed0001e2120c	723524778	1	main_z	7	main_z	135	stimuli_target_circletriangles.svg	stimuli_distractor_trianglediamonds.svg	1	yes	44	1	785
6.6.0	win	2022-12-15	14:31:54	14:37:23	326556	5d158f6419d2ed0001e2120c	723524778	1	main_z	7	advance_on_keypress_ZEE	136	stimuli_target_circletriangles.svg	stimuli_distractor_trianglediamonds.svg	1	yes	57	0	174
6.6.0	win	2022-12-15	14:31:54	14:37:24	328191	5d158f6419d2ed0001e2120c	723524778	1	main_z	7	main_z	137	stimuli_target_trianglesquares.svg	stimuli_distractor_diamondtriangles.svg	22	yes	44	1	820
6.6.0	win	2022-12-15	14:31:54	14:37:24	328191	5d158f6419d2ed0001e2120c	723524778	1	main_z	7	advance_on_keypress_ZEE	138	stimuli_target_trianglesquares.svg	stimuli_distractor_diamondtriangles.svg	22	yes	57	0	256
6.6.0	win	2022-12-15	14:31:54	14:37:26	329981	5d158f6419d2ed0001e2120c	723524778	1	main_z	7	main_z	139	stimuli_distractor_diamondtriangles.svg	stimuli_target_squarediamonds.svg	16	yes	44	1	894
6.6.0	win	2022-12-15	14:31:54	14:37:26	329981	5d158f6419d2ed0001e2120c	723524778	1	main_z	7	advance_on_keypress_ZEE	140	stimuli_distractor_diamondtriangles.svg	stimuli_target_squarediamonds.svg	16	yes	57	0	240
6.6.0	win	2022-12-15	14:31:54	14:37:28	331773	5d158f6419d2ed0001e2120c	723524778	1	main_z	7	main_z	141	stimuli_target_trianglesquares.svg	stimuli_distractor_trianglediamonds.svg	18	yes	44	1	920
6.6.0	win	2022-12-15	14:31:54	14:37:28	331773	5d158f6419d2ed0001e2120c	723524778	1	main_z	7	advance_on_keypress_ZEE	142	stimuli_target_trianglesquares.svg	stimuli_distractor_trianglediamonds.svg	18	yes	57	0	220
6.6.0	win	2022-12-15	14:31:54	14:37:31	334637	5d158f6419d2ed0001e2120c	723524778	1	main_z	7	main_z	143	stimuli_distractor_diamondtriangles.svg	stimuli_distractor_diamondtriangles.svg	40	no	0	1	2000
6.6.0	win	2022-12-15	14:31:54	14:37:31	334637	5d158f6419d2ed0001e2120c	723524778	1	main_z	7	advance_on_keypress_ZEE	144	stimuli_distractor_diamondtriangles.svg	stimuli_distractor_diamondtriangles.svg	40	no	57	0	448
6.6.0	win	2022-12-15	14:31:54	14:37:33	336521	5d158f6419d2ed0001e2120c	723524778	1	main_z	7	main_z	145	stimuli_distractor_diamondtriangles.svg	stimuli_target_trianglecircles.svg	29	yes	44	1	786
6.6.0	win	2022-12-15	14:31:54	14:37:33	336521	5d158f6419d2ed0001e2120c	723524778	1	main_z	7	advance_on_keypress_ZEE	146	stimuli_distractor_diamondtriangles.svg	stimuli_target_trianglecircles.svg	29	yes	57	0	188
6.6.0	win	2022-12-15	14:31:54	14:37:35	338588	5d158f6419d2ed0001e2120c	723524778	1	main_z	7	main_z	147	stimuli_target_squaretriangles.svg	stimuli_distractor_diamondtriangles.svg	7	yes	44	1	1236
6.6.0	win	2022-12-15	14:31:54	14:37:35	338588	5d158f6419d2ed0001e2120c	723524778	1	main_z	7	advance_on_keypress_ZEE	148	stimuli_target_squaretriangles.svg	stimuli_distractor_diamondtriangles.svg	7	yes	57	0	459
6.6.0	win	2022-12-15	14:31:54	14:37:37	340473	5d158f6419d2ed0001e2120c	723524778	1	main_z	7	main_z	149	stimuli_distractor_diamondtriangles.svg	stimuli_target_squaretriangles.svg	15	yes	44	1	789
6.6.0	win	2022-12-15	14:31:54	14:37:37	340473	5d158f6419d2ed0001e2120c	723524778	1	main_z	7	advance_on_keypress_ZEE	150	stimuli_distractor_diamondtriangles.svg	stimuli_target_squaretriangles.svg	15	yes	57	0	169
6.6.0	win	2022-12-15	14:31:54	14:37:38	342025	5d158f6419d2ed0001e2120c	723524778	1	main_z	7	main_z	151	stimuli_target_diamondcircles.svg	stimuli_distractor_diamondtriangles.svg	23	yes	44	1	741
6.6.0	win	2022-12-15	14:31:54	14:37:38	342025	5d158f6419d2ed0001e2120c	723524778	1	main_z	7	advance_on_keypress_ZEE	152	stimuli_target_diamondcircles.svg	stimuli_distractor_diamondtriangles.svg	23	yes	57	0	224
6.6.0	win	2022-12-15	14:31:54	14:37:41	344884	5d158f6419d2ed0001e2120c	723524778	1	main_z	7	main_z	153	stimuli_distractor_trianglediamonds.svg	stimuli_distractor_trianglediamonds.svg	33	no	0	1	2000
6.6.0	win	2022-12-15	14:31:54	14:37:41	344884	5d158f6419d2ed0001e2120c	723524778	1	main_z	7	advance_on_keypress_ZEE	154	stimuli_distractor_trianglediamonds.svg	stimuli_distractor_trianglediamonds.svg	33	no	57	0	492
6.6.0	win	2022-12-15	14:31:54	14:37:43	346720	5d158f6419d2ed0001e2120c	723524778	1	main_z	7	main_z	155	stimuli_distractor_trianglediamonds.svg	stimuli_target_circlediamonds.svg	10	yes	44	1	704
6.6.0	win	2022-12-15	14:31:54	14:37:43	346720	5d158f6419d2ed0001e2120c	723524778	1	main_z	7	advance_on_keypress_ZEE	156	stimuli_distractor_trianglediamonds.svg	stimuli_target_circlediamonds.svg	10	yes	57	0	261
6.6.0	win	2022-12-15	14:31:54	14:37:46	349615	5d158f6419d2ed0001e2120c	723524778	1	main_z	7	main_z	157	stimuli_distractor_trianglediamonds.svg	stimuli_target_diamondsquares.svg	28	yes	0	0	2000
6.6.0	win	2022-12-15	14:31:54	14:37:46	349615	5d158f6419d2ed0001e2120c	723524778	1	main_z	7	advance_on_keypress_ZEE	158	stimuli_distractor_trianglediamonds.svg	stimuli_target_diamondsquares.svg	28	yes	57	0	371
6.6.0	win	2022-12-15	14:31:54	14:37:48	351486	5d158f6419d2ed0001e2120c	723524778	1	main_z	7	main_z	159	stimuli_target_squarediamonds.svg	stimuli_distractor_diamondtriangles.svg	8	yes	44	1	855
6.6.0	win	2022-12-15	14:31:54	14:37:48	351486	5d158f6419d2ed0001e2120c	723524778	1	main_z	7	advance_on_keypress_ZEE	160	stimuli_target_squarediamonds.svg	stimuli_distractor_diamondtriangles.svg	8	yes	57	0	200
6.6.0	win	2022-12-15	14:31:54	14:38:07	370813	5d158f6419d2ed0001e2120c	723524778	1	practice_slash	9	practice_slash	1	stimuli_distractor_diamondtriangles.svg	stimuli_target_diamondcircles.svg	8	yes	53	1	516
6.6.0	win	2022-12-15	14:31:54	14:38:07	370813	5d158f6419d2ed0001e2120c	723524778	1	practice_slash	9	advance_on_keypress_SLASH	2	stimuli_distractor_diamondtriangles.svg	stimuli_target_diamondcircles.svg	8	yes	57	0	1100
6.6.0	win	2022-12-15	14:31:54	14:38:11	374275	5d158f6419d2ed0001e2120c	723524778	1	practice_slash	9	practice_slash	3	stimuli_target_diamondsquares.svg	stimuli_distractor_diamondtriangles.svg	3	yes	53	1	713
6.6.0	win	2022-12-15	14:31:54	14:38:11	374275	5d158f6419d2ed0001e2120c	723524778	1	practice_slash	9	advance_on_keypress_SLASH	4	stimuli_target_diamondsquares.svg	stimuli_distractor_diamondtriangles.svg	3	yes	57	0	417
6.6.0	win	2022-12-15	14:31:54	14:38:15	378343	5d158f6419d2ed0001e2120c	723524778	1	practice_slash	9	practice_slash	5	stimuli_distractor_diamondtriangles.svg	stimuli_distractor_diamondtriangles.svg	13	no	0	1	2000
6.6.0	win	2022-12-15	14:31:54	14:38:15	378343	5d158f6419d2ed0001e2120c	723524778	1	practice_slash	9	advance_on_keypress_SLASH	6	stimuli_distractor_diamondtriangles.svg	stimuli_distractor_diamondtriangles.svg	13	no	57	0	436
6.6.0	win	2022-12-15	14:31:54	14:38:18	381414	5d158f6419d2ed0001e2120c	723524778	1	practice_slash	9	practice_slash	7	stimuli_distractor_diamondtriangles.svg	stimuli_target_circletriangles.svg	7	yes	53	1	989
6.6.0	win	2022-12-15	14:31:54	14:38:18	381414	5d158f6419d2ed0001e2120c	723524778	1	practice_slash	9	advance_on_keypress_SLASH	8	stimuli_distractor_diamondtriangles.svg	stimuli_target_circletriangles.svg	7	yes	57	0	415
6.6.0	win	2022-12-15	14:31:54	14:38:21	384302	5d158f6419d2ed0001e2120c	723524778	1	practice_slash	9	practice_slash	9	stimuli_distractor_diamondtriangles.svg	stimuli_target_trianglecircles.svg	9	yes	53	1	826
6.6.0	win	2022-12-15	14:31:54	14:38:21	384302	5d158f6419d2ed0001e2120c	723524778	1	practice_slash	9	advance_on_keypress_SLASH	10	stimuli_distractor_diamondtriangles.svg	stimuli_target_trianglecircles.svg	9	yes	57	0	428
6.6.0	win	2022-12-15	14:31:54	14:38:25	388391	5d158f6419d2ed0001e2120c	723524778	1	practice_slash	9	practice_slash	11	stimuli_distractor_diamondtriangles.svg	stimuli_distractor_trianglediamonds.svg	14	no	0	1	2000
6.6.0	win	2022-12-15	14:31:54	14:38:25	388391	5d158f6419d2ed0001e2120c	723524778	1	practice_slash	9	advance_on_keypress_SLASH	12	stimuli_distractor_diamondtriangles.svg	stimuli_distractor_trianglediamonds.svg	14	no	57	0	369
6.6.0	win	2022-12-15	14:31:54	14:38:28	391252	5d158f6419d2ed0001e2120c	723524778	1	practice_slash	9	practice_slash	13	stimuli_target_squarediamonds.svg	stimuli_distractor_trianglediamonds.svg	5	yes	53	1	845
6.6.0	win	2022-12-15	14:31:54	14:38:28	391252	5d158f6419d2ed0001e2120c	723524778	1	practice_slash	9	advance_on_keypress_SLASH	14	stimuli_target_squarediamonds.svg	stimuli_distractor_trianglediamonds.svg	5	yes	57	0	400
6.6.0	win	2022-12-15	14:31:54	14:38:30	394160	5d158f6419d2ed0001e2120c	723524778	1	practice_slash	9	practice_slash	15	stimuli_target_diamondsquares.svg	stimuli_distractor_trianglediamonds.svg	6	yes	53	1	855
6.6.0	win	2022-12-15	14:31:54	14:38:30	394160	5d158f6419d2ed0001e2120c	723524778	1	practice_slash	9	advance_on_keypress_SLASH	16	stimuli_target_diamondsquares.svg	stimuli_distractor_trianglediamonds.svg	6	yes	57	0	306
6.6.0	win	2022-12-15	14:31:54	14:38:33	396967	5d158f6419d2ed0001e2120c	723524778	1	practice_slash	9	practice_slash	17	stimuli_distractor_trianglediamonds.svg	stimuli_target_circlediamonds.svg	10	yes	53	1	862
6.6.0	win	2022-12-15	14:31:54	14:38:33	396967	5d158f6419d2ed0001e2120c	723524778	1	practice_slash	9	advance_on_keypress_SLASH	18	stimuli_distractor_trianglediamonds.svg	stimuli_target_circlediamonds.svg	10	yes	57	0	389
6.6.0	win	2022-12-15	14:31:54	14:38:37	401005	5d158f6419d2ed0001e2120c	723524778	1	practice_slash	9	practice_slash	19	stimuli_distractor_trianglediamonds.svg	stimuli_distractor_trianglediamonds.svg	15	no	0	1	2000
6.6.0	win	2022-12-15	14:31:54	14:38:37	401005	5d158f6419d2ed0001e2120c	723524778	1	practice_slash	9	advance_on_keypress_SLASH	20	stimuli_distractor_trianglediamonds.svg	stimuli_distractor_trianglediamonds.svg	15	no	57	0	399
6.6.0	win	2022-12-15	14:31:54	14:38:40	403863	5d158f6419d2ed0001e2120c	723524778	1	practice_slash	9	practice_slash	21	stimuli_target_circlediamonds.svg	stimuli_distractor_diamondtriangles.svg	1	yes	53	1	810
6.6.0	win	2022-12-15	14:31:54	14:38:40	403863	5d158f6419d2ed0001e2120c	723524778	1	practice_slash	9	advance_on_keypress_SLASH	22	stimuli_target_circlediamonds.svg	stimuli_distractor_diamondtriangles.svg	1	yes	57	0	327
6.6.0	win	2022-12-15	14:31:54	14:38:43	406635	5d158f6419d2ed0001e2120c	723524778	1	practice_slash	9	practice_slash	23	stimuli_target_circlediamonds.svg	stimuli_distractor_trianglediamonds.svg	4	yes	53	1	782
6.6.0	win	2022-12-15	14:31:54	14:38:43	406635	5d158f6419d2ed0001e2120c	723524778	1	practice_slash	9	advance_on_keypress_SLASH	24	stimuli_target_circlediamonds.svg	stimuli_distractor_trianglediamonds.svg	4	yes	57	0	494
6.6.0	win	2022-12-15	14:31:54	14:38:46	409618	5d158f6419d2ed0001e2120c	723524778	1	practice_slash	9	practice_slash	25	stimuli_target_squarediamonds.svg	stimuli_distractor_diamondtriangles.svg	2	yes	53	1	833
6.6.0	win	2022-12-15	14:31:54	14:38:46	409618	5d158f6419d2ed0001e2120c	723524778	1	practice_slash	9	advance_on_keypress_SLASH	26	stimuli_target_squarediamonds.svg	stimuli_distractor_diamondtriangles.svg	2	yes	57	0	1046
6.6.0	win	2022-12-15	14:31:54	14:38:49	412982	5d158f6419d2ed0001e2120c	723524778	1	practice_slash	9	practice_slash	27	stimuli_distractor_trianglediamonds.svg	stimuli_target_diamondcircles.svg	12	yes	53	1	664
6.6.0	win	2022-12-15	14:31:54	14:38:49	412982	5d158f6419d2ed0001e2120c	723524778	1	practice_slash	9	advance_on_keypress_SLASH	28	stimuli_distractor_trianglediamonds.svg	stimuli_target_diamondcircles.svg	12	yes	57	0	426
6.6.0	win	2022-12-15	14:31:54	14:38:53	417050	5d158f6419d2ed0001e2120c	723524778	1	practice_slash	9	practice_slash	29	stimuli_distractor_trianglediamonds.svg	stimuli_distractor_diamondtriangles.svg	16	no	0	1	2000
6.6.0	win	2022-12-15	14:31:54	14:38:53	417050	5d158f6419d2ed0001e2120c	723524778	1	practice_slash	9	advance_on_keypress_SLASH	30	stimuli_distractor_trianglediamonds.svg	stimuli_distractor_diamondtriangles.svg	16	no	57	0	409
6.6.0	win	2022-12-15	14:31:54	14:38:56	419883	5d158f6419d2ed0001e2120c	723524778	1	practice_slash	9	practice_slash	31	stimuli_distractor_trianglediamonds.svg	stimuli_target_squarediamonds.svg	11	yes	53	1	784
6.6.0	win	2022-12-15	14:31:54	14:38:56	419883	5d158f6419d2ed0001e2120c	723524778	1	practice_slash	9	advance_on_keypress_SLASH	32	stimuli_distractor_trianglediamonds.svg	stimuli_target_squarediamonds.svg	11	yes	57	0	761
6.6.0	win	2022-12-15	14:31:54	14:39:05	428549	5d158f6419d2ed0001e2120c	723524778	1	main_slash	11	main_slash	1	stimuli_distractor_diamondtriangles.svg	stimuli_target_circlediamonds.svg	14	yes	53	1	639
6.6.0	win	2022-12-15	14:31:54	14:39:05	428549	5d158f6419d2ed0001e2120c	723524778	1	main_slash	11	advance_on_keypress_SLASH	2	stimuli_distractor_diamondtriangles.svg	stimuli_target_circlediamonds.svg	14	yes	57	0	622
6.6.0	win	2022-12-15	14:31:54	14:39:07	430525	5d158f6419d2ed0001e2120c	723524778	1	main_slash	11	main_slash	3	stimuli_target_diamondcircles.svg	stimuli_distractor_trianglediamonds.svg	19	yes	53	1	715
6.6.0	win	2022-12-15	14:31:54	14:39:07	430525	5d158f6419d2ed0001e2120c	723524778	1	main_slash	11	advance_on_keypress_SLASH	4	stimuli_target_diamondcircles.svg	stimuli_distractor_trianglediamonds.svg	19	yes	57	0	361
6.6.0	win	2022-12-15	14:31:54	14:39:08	432196	5d158f6419d2ed0001e2120c	723524778	1	main_slash	11	main_slash	5	stimuli_distractor_diamondtriangles.svg	stimuli_target_trianglecircles.svg	29	yes	53	1	654
6.6.0	win	2022-12-15	14:31:54	14:39:08	432196	5d158f6419d2ed0001e2120c	723524778	1	main_slash	11	advance_on_keypress_SLASH	6	stimuli_distractor_diamondtriangles.svg	stimuli_target_trianglecircles.svg	29	yes	57	0	383
6.6.0	win	2022-12-15	14:31:54	14:39:10	433841	5d158f6419d2ed0001e2120c	723524778	1	main_slash	11	main_slash	7	stimuli_target_trianglesquares.svg	stimuli_distractor_trianglediamonds.svg	18	yes	53	1	615
6.6.0	win	2022-12-15	14:31:54	14:39:10	433841	5d158f6419d2ed0001e2120c	723524778	1	main_slash	11	advance_on_keypress_SLASH	8	stimuli_target_trianglesquares.svg	stimuli_distractor_trianglediamonds.svg	18	yes	57	0	283
6.6.0	win	2022-12-15	14:31:54	14:39:13	436775	5d158f6419d2ed0001e2120c	723524778	1	main_slash	11	main_slash	9	stimuli_distractor_diamondtriangles.svg	stimuli_distractor_diamondtriangles.svg	39	no	0	1	2000
6.6.0	win	2022-12-15	14:31:54	14:39:13	436775	5d158f6419d2ed0001e2120c	723524778	1	main_slash	11	advance_on_keypress_SLASH	10	stimuli_distractor_diamondtriangles.svg	stimuli_distractor_diamondtriangles.svg	39	no	57	0	528
6.6.0	win	2022-12-15	14:31:54	14:39:15	438424	5d158f6419d2ed0001e2120c	723524778	1	main_slash	11	main_slash	11	stimuli_target_trianglecircles.svg	stimuli_distractor_trianglediamonds.svg	17	yes	53	1	467
6.6.0	win	2022-12-15	14:31:54	14:39:15	438424	5d158f6419d2ed0001e2120c	723524778	1	main_slash	11	advance_on_keypress_SLASH	12	stimuli_target_trianglecircles.svg	stimuli_distractor_trianglediamonds.svg	17	yes	57	0	445
6.6.0	win	2022-12-15	14:31:54	14:39:18	441523	5d158f6419d2ed0001e2120c	723524778	1	main_slash	11	main_slash	13	stimuli_distractor_diamondtriangles.svg	stimuli_distractor_diamondtriangles.svg	40	no	0	1	2000
6.6.0	win	2022-12-15	14:31:54	14:39:18	441523	5d158f6419d2ed0001e2120c	723524778	1	main_slash	11	advance_on_keypress_SLASH	14	stimuli_distractor_diamondtriangles.svg	stimuli_distractor_diamondtriangles.svg	40	no	57	0	469
6.6.0	win	2022-12-15	14:31:54	14:39:20	443264	5d158f6419d2ed0001e2120c	723524778	1	main_slash	11	main_slash	15	stimuli_target_squarediamonds.svg	stimuli_distractor_trianglediamonds.svg	4	yes	53	1	625
6.6.0	win	2022-12-15	14:31:54	14:39:20	443264	5d158f6419d2ed0001e2120c	723524778	1	main_slash	11	advance_on_keypress_SLASH	16	stimuli_target_squarediamonds.svg	stimuli_distractor_trianglediamonds.svg	4	yes	57	0	398
6.6.0	win	2022-12-15	14:31:54	14:39:21	444850	5d158f6419d2ed0001e2120c	723524778	1	main_slash	11	main_slash	17	stimuli_target_diamondsquares.svg	stimuli_distractor_trianglediamonds.svg	20	yes	53	1	543
6.6.0	win	2022-12-15	14:31:54	14:39:21	444850	5d158f6419d2ed0001e2120c	723524778	1	main_slash	11	advance_on_keypress_SLASH	18	stimuli_target_diamondsquares.svg	stimuli_distractor_trianglediamonds.svg	20	yes	57	0	460
6.6.0	win	2022-12-15	14:31:54	14:39:23	446762	5d158f6419d2ed0001e2120c	723524778	1	main_slash	11	main_slash	19	stimuli_distractor_trianglediamonds.svg	stimuli_target_squaretriangles.svg	11	yes	53	1	807
6.6.0	win	2022-12-15	14:31:54	14:39:23	446762	5d158f6419d2ed0001e2120c	723524778	1	main_slash	11	advance_on_keypress_SLASH	20	stimuli_distractor_trianglediamonds.svg	stimuli_target_squaretriangles.svg	11	yes	57	0	290
6.6.0	win	2022-12-15	14:31:54	14:39:26	449688	5d158f6419d2ed0001e2120c	723524778	1	main_slash	11	main_slash	21	stimuli_distractor_trianglediamonds.svg	stimuli_distractor_trianglediamonds.svg	33	no	0	1	2000
6.6.0	win	2022-12-15	14:31:54	14:39:26	449688	5d158f6419d2ed0001e2120c	723524778	1	main_slash	11	advance_on_keypress_SLASH	22	stimuli_distractor_trianglediamonds.svg	stimuli_distractor_trianglediamonds.svg	33	no	57	0	386
6.6.0	win	2022-12-15	14:31:54	14:39:28	451248	5d158f6419d2ed0001e2120c	723524778	1	main_slash	11	main_slash	23	stimuli_distractor_diamondtriangles.svg	stimuli_target_trianglesquares.svg	30	yes	53	1	527
6.6.0	win	2022-12-15	14:31:54	14:39:28	451248	5d158f6419d2ed0001e2120c	723524778	1	main_slash	11	advance_on_keypress_SLASH	24	stimuli_distractor_diamondtriangles.svg	stimuli_target_trianglesquares.svg	30	yes	57	0	482
6.6.0	win	2022-12-15	14:31:54	14:39:29	452835	5d158f6419d2ed0001e2120c	723524778	1	main_slash	11	main_slash	25	stimuli_distractor_diamondtriangles.svg	stimuli_target_diamondcircles.svg	31	yes	53	1	464
6.6.0	win	2022-12-15	14:31:54	14:39:29	452835	5d158f6419d2ed0001e2120c	723524778	1	main_slash	11	advance_on_keypress_SLASH	26	stimuli_distractor_diamondtriangles.svg	stimuli_target_diamondcircles.svg	31	yes	57	0	333
6.6.0	win	2022-12-15	14:31:54	14:39:31	454312	5d158f6419d2ed0001e2120c	723524778	1	main_slash	11	main_slash	27	stimuli_target_diamondcircles.svg	stimuli_distractor_diamondtriangles.svg	23	yes	53	1	492
6.6.0	win	2022-12-15	14:31:54	14:39:31	454312	5d158f6419d2ed0001e2120c	723524778	1	main_slash	11	advance_on_keypress_SLASH	28	stimuli_target_diamondcircles.svg	stimuli_distractor_diamondtriangles.svg	23	yes	57	0	207
6.6.0	win	2022-12-15	14:31:54	14:39:32	455559	5d158f6419d2ed0001e2120c	723524778	1	main_slash	11	main_slash	29	stimuli_distractor_diamondtriangles.svg	stimuli_target_diamondsquares.svg	32	yes	53	1	407
6.6.0	win	2022-12-15	14:31:54	14:39:32	455559	5d158f6419d2ed0001e2120c	723524778	1	main_slash	11	advance_on_keypress_SLASH	30	stimuli_distractor_diamondtriangles.svg	stimuli_target_diamondsquares.svg	32	yes	57	0	317
6.6.0	win	2022-12-15	14:31:54	14:39:33	457089	5d158f6419d2ed0001e2120c	723524778	1	main_slash	11	main_slash	31	stimuli_target_circletriangles.svg	stimuli_distractor_diamondtriangles.svg	5	yes	53	1	570
6.6.0	win	2022-12-15	14:31:54	14:39:33	457089	5d158f6419d2ed0001e2120c	723524778	1	main_slash	11	advance_on_keypress_SLASH	32	stimuli_target_circletriangles.svg	stimuli_distractor_diamondtriangles.svg	5	yes	57	0	353
6.6.0	win	2022-12-15	14:31:54	14:39:35	458600	5d158f6419d2ed0001e2120c	723524778	1	main_slash	11	main_slash	33	stimuli_target_squarediamonds.svg	stimuli_distractor_diamondtriangles.svg	8	yes	53	1	510
6.6.0	win	2022-12-15	14:31:54	14:39:35	458600	5d158f6419d2ed0001e2120c	723524778	1	main_slash	11	advance_on_keypress_SLASH	34	stimuli_target_squarediamonds.svg	stimuli_distractor_diamondtriangles.svg	8	yes	57	0	291
6.6.0	win	2022-12-15	14:31:54	14:39:36	459925	5d158f6419d2ed0001e2120c	723524778	1	main_slash	11	main_slash	35	stimuli_distractor_trianglediamonds.svg	stimuli_target_trianglecircles.svg	25	yes	53	1	390
6.6.0	win	2022-12-15	14:31:54	14:39:36	459925	5d158f6419d2ed0001e2120c	723524778	1	main_slash	11	advance_on_keypress_SLASH	36	stimuli_distractor_trianglediamonds.svg	stimuli_target_trianglecircles.svg	25	yes	57	0	440
6.6.0	win	2022-12-15	14:31:54	14:39:38	461521	5d158f6419d2ed0001e2120c	723524778	1	main_slash	11	main_slash	37	stimuli_distractor_trianglediamonds.svg	stimuli_target_circlediamonds.svg	10	yes	53	1	519
6.6.0	win	2022-12-15	14:31:54	14:39:38	461521	5d158f6419d2ed0001e2120c	723524778	1	main_slash	11	advance_on_keypress_SLASH	38	stimuli_distractor_trianglediamonds.svg	stimuli_target_circlediamonds.svg	10	yes	57	0	340
6.6.0	win	2022-12-15	14:31:54	14:39:41	464501	5d158f6419d2ed0001e2120c	723524778	1	main_slash	11	main_slash	39	stimuli_distractor_trianglediamonds.svg	stimuli_distractor_diamondtriangles.svg	35	no	0	1	2000
6.6.0	win	2022-12-15	14:31:54	14:39:41	464501	5d158f6419d2ed0001e2120c	723524778	1	main_slash	11	advance_on_keypress_SLASH	40	stimuli_distractor_trianglediamonds.svg	stimuli_distractor_diamondtriangles.svg	35	no	57	0	813
6.6.0	win	2022-12-15	14:31:54	14:39:43	466703	5d158f6419d2ed0001e2120c	723524778	1	main_slash	11	main_slash	41	stimuli_distractor_trianglediamonds.svg	stimuli_target_squarediamonds.svg	12	yes	53	1	737
6.6.0	win	2022-12-15	14:31:54	14:39:43	466703	5d158f6419d2ed0001e2120c	723524778	1	main_slash	11	advance_on_keypress_SLASH	42	stimuli_distractor_trianglediamonds.svg	stimuli_target_squarediamonds.svg	12	yes	57	0	343
6.6.0	win	2022-12-15	14:31:54	14:39:45	468369	5d158f6419d2ed0001e2120c	723524778	1	main_slash	11	main_slash	43	stimuli_target_squaretriangles.svg	stimuli_distractor_diamondtriangles.svg	7	yes	53	1	687
6.6.0	win	2022-12-15	14:31:54	14:39:45	468369	5d158f6419d2ed0001e2120c	723524778	1	main_slash	11	advance_on_keypress_SLASH	44	stimuli_target_squaretriangles.svg	stimuli_distractor_diamondtriangles.svg	7	yes	57	0	274
6.6.0	win	2022-12-15	14:31:54	14:39:46	469750	5d158f6419d2ed0001e2120c	723524778	1	main_slash	11	main_slash	45	stimuli_distractor_trianglediamonds.svg	stimuli_target_diamondcircles.svg	27	yes	53	1	468
6.6.0	win	2022-12-15	14:31:54	14:39:46	469750	5d158f6419d2ed0001e2120c	723524778	1	main_slash	11	advance_on_keypress_SLASH	46	stimuli_distractor_trianglediamonds.svg	stimuli_target_diamondcircles.svg	27	yes	57	0	333
6.6.0	win	2022-12-15	14:31:54	14:39:47	471192	5d158f6419d2ed0001e2120c	723524778	1	main_slash	11	main_slash	47	stimuli_distractor_trianglediamonds.svg	stimuli_target_diamondsquares.svg	28	yes	53	1	460
6.6.0	win	2022-12-15	14:31:54	14:39:47	471192	5d158f6419d2ed0001e2120c	723524778	1	main_slash	11	advance_on_keypress_SLASH	48	stimuli_distractor_trianglediamonds.svg	stimuli_target_diamondsquares.svg	28	yes	57	0	300
6.6.0	win	2022-12-15	14:31:54	14:39:50	474132	5d158f6419d2ed0001e2120c	723524778	1	main_slash	11	main_slash	49	stimuli_distractor_diamondtriangles.svg	stimuli_distractor_trianglediamonds.svg	37	no	0	1	2000
6.6.0	win	2022-12-15	14:31:54	14:39:50	474132	5d158f6419d2ed0001e2120c	723524778	1	main_slash	11	advance_on_keypress_SLASH	50	stimuli_distractor_diamondtriangles.svg	stimuli_distractor_trianglediamonds.svg	37	no	57	0	521
6.6.0	win	2022-12-15	14:31:54	14:39:52	475763	5d158f6419d2ed0001e2120c	723524778	1	main_slash	11	main_slash	51	stimuli_distractor_diamondtriangles.svg	stimuli_target_circletriangles.svg	13	yes	53	1	466
6.6.0	win	2022-12-15	14:31:54	14:39:52	475763	5d158f6419d2ed0001e2120c	723524778	1	main_slash	11	advance_on_keypress_SLASH	52	stimuli_distractor_diamondtriangles.svg	stimuli_target_circletriangles.svg	13	yes	57	0	290
6.6.0	win	2022-12-15	14:31:54	14:39:54	477259	5d158f6419d2ed0001e2120c	723524778	1	main_slash	11	main_slash	53	stimuli_target_circletriangles.svg	stimuli_distractor_trianglediamonds.svg	1	yes	53	1	562
6.6.0	win	2022-12-15	14:31:54	14:39:54	477259	5d158f6419d2ed0001e2120c	723524778	1	main_slash	11	advance_on_keypress_SLASH	54	stimuli_target_circletriangles.svg	stimuli_distractor_trianglediamonds.svg	1	yes	57	0	365
6.6.0	win	2022-12-15	14:31:54	14:39:57	480280	5d158f6419d2ed0001e2120c	723524778	1	main_slash	11	main_slash	55	stimuli_distractor_trianglediamonds.svg	stimuli_distractor_trianglediamonds.svg	34	no	0	1	2000
6.6.0	win	2022-12-15	14:31:54	14:39:57	480280	5d158f6419d2ed0001e2120c	723524778	1	main_slash	11	advance_on_keypress_SLASH	56	stimuli_distractor_trianglediamonds.svg	stimuli_distractor_trianglediamonds.svg	34	no	57	0	417
6.6.0	win	2022-12-15	14:31:54	14:40:00	483346	5d158f6419d2ed0001e2120c	723524778	1	main_slash	11	main_slash	57	stimuli_distractor_diamondtriangles.svg	stimuli_distractor_trianglediamonds.svg	38	no	0	1	2000
6.6.0	win	2022-12-15	14:31:54	14:40:00	483346	5d158f6419d2ed0001e2120c	723524778	1	main_slash	11	advance_on_keypress_SLASH	58	stimuli_distractor_diamondtriangles.svg	stimuli_distractor_trianglediamonds.svg	38	no	57	0	311
6.6.0	win	2022-12-15	14:31:54	14:40:01	484834	5d158f6419d2ed0001e2120c	723524778	1	main_slash	11	main_slash	59	stimuli_target_trianglesquares.svg	stimuli_distractor_diamondtriangles.svg	22	yes	53	1	523
6.6.0	win	2022-12-15	14:31:54	14:40:01	484834	5d158f6419d2ed0001e2120c	723524778	1	main_slash	11	advance_on_keypress_SLASH	60	stimuli_target_trianglesquares.svg	stimuli_distractor_diamondtriangles.svg	22	yes	57	0	355
6.6.0	win	2022-12-15	14:31:54	14:40:03	486280	5d158f6419d2ed0001e2120c	723524778	1	main_slash	11	main_slash	61	stimuli_distractor_trianglediamonds.svg	stimuli_target_trianglesquares.svg	26	yes	53	1	453
6.6.0	win	2022-12-15	14:31:54	14:40:03	486280	5d158f6419d2ed0001e2120c	723524778	1	main_slash	11	advance_on_keypress_SLASH	62	stimuli_distractor_trianglediamonds.svg	stimuli_target_trianglesquares.svg	26	yes	57	0	321
6.6.0	win	2022-12-15	14:31:54	14:40:04	487625	5d158f6419d2ed0001e2120c	723524778	1	main_slash	11	main_slash	63	stimuli_distractor_diamondtriangles.svg	stimuli_target_squarediamonds.svg	16	yes	53	1	375
6.6.0	win	2022-12-15	14:31:54	14:40:04	487625	5d158f6419d2ed0001e2120c	723524778	1	main_slash	11	advance_on_keypress_SLASH	64	stimuli_distractor_diamondtriangles.svg	stimuli_target_squarediamonds.svg	16	yes	57	0	383
6.6.0	win	2022-12-15	14:31:54	14:40:05	489189	5d158f6419d2ed0001e2120c	723524778	1	main_slash	11	main_slash	65	stimuli_distractor_trianglediamonds.svg	stimuli_distractor_diamondtriangles.svg	36	no	53	0	529
6.6.0	win	2022-12-15	14:31:54	14:40:05	489189	5d158f6419d2ed0001e2120c	723524778	1	main_slash	11	advance_on_keypress_SLASH	66	stimuli_distractor_trianglediamonds.svg	stimuli_distractor_diamondtriangles.svg	36	no	57	0	449
6.6.0	win	2022-12-15	14:31:54	14:40:07	490770	5d158f6419d2ed0001e2120c	723524778	1	main_slash	11	main_slash	67	stimuli_target_circlediamonds.svg	stimuli_distractor_diamondtriangles.svg	6	yes	53	1	477
6.6.0	win	2022-12-15	14:31:54	14:40:07	490770	5d158f6419d2ed0001e2120c	723524778	1	main_slash	11	advance_on_keypress_SLASH	68	stimuli_target_circlediamonds.svg	stimuli_distractor_diamondtriangles.svg	6	yes	57	0	307
6.6.0	win	2022-12-15	14:31:54	14:40:09	492358	5d158f6419d2ed0001e2120c	723524778	1	main_slash	11	main_slash	69	stimuli_distractor_trianglediamonds.svg	stimuli_target_circletriangles.svg	9	yes	53	1	648
6.6.0	win	2022-12-15	14:31:54	14:40:09	492358	5d158f6419d2ed0001e2120c	723524778	1	main_slash	11	advance_on_keypress_SLASH	70	stimuli_distractor_trianglediamonds.svg	stimuli_target_circletriangles.svg	9	yes	57	0	254
6.6.0	win	2022-12-15	14:31:54	14:40:10	493647	5d158f6419d2ed0001e2120c	723524778	1	main_slash	11	main_slash	71	stimuli_target_circlediamonds.svg	stimuli_distractor_trianglediamonds.svg	2	yes	53	1	388
6.6.0	win	2022-12-15	14:31:54	14:40:10	493647	5d158f6419d2ed0001e2120c	723524778	1	main_slash	11	advance_on_keypress_SLASH	72	stimuli_target_circlediamonds.svg	stimuli_distractor_trianglediamonds.svg	2	yes	57	0	362
6.6.0	win	2022-12-15	14:31:54	14:40:11	495076	5d158f6419d2ed0001e2120c	723524778	1	main_slash	11	main_slash	73	stimuli_distractor_diamondtriangles.svg	stimuli_target_squaretriangles.svg	15	yes	53	1	417
6.6.0	win	2022-12-15	14:31:54	14:40:11	495076	5d158f6419d2ed0001e2120c	723524778	1	main_slash	11	advance_on_keypress_SLASH	74	stimuli_distractor_diamondtriangles.svg	stimuli_target_squaretriangles.svg	15	yes	57	0	260
6.6.0	win	2022-12-15	14:31:54	14:40:13	496360	5d158f6419d2ed0001e2120c	723524778	1	main_slash	11	main_slash	75	stimuli_target_squaretriangles.svg	stimuli_distractor_trianglediamonds.svg	3	yes	53	1	384
6.6.0	win	2022-12-15	14:31:54	14:40:13	496360	5d158f6419d2ed0001e2120c	723524778	1	main_slash	11	advance_on_keypress_SLASH	76	stimuli_target_squaretriangles.svg	stimuli_distractor_trianglediamonds.svg	3	yes	57	0	389
6.6.0	win	2022-12-15	14:31:54	14:40:14	497628	5d158f6419d2ed0001e2120c	723524778	1	main_slash	11	main_slash	77	stimuli_target_trianglecircles.svg	stimuli_distractor_diamondtriangles.svg	21	yes	53	1	237
6.6.0	win	2022-12-15	14:31:54	14:40:14	497628	5d158f6419d2ed0001e2120c	723524778	1	main_slash	11	advance_on_keypress_SLASH	78	stimuli_target_trianglecircles.svg	stimuli_distractor_diamondtriangles.svg	21	yes	57	0	446
6.6.0	win	2022-12-15	14:31:54	14:40:16	499239	5d158f6419d2ed0001e2120c	723524778	1	main_slash	11	main_slash	79	stimuli_target_diamondsquares.svg	stimuli_distractor_diamondtriangles.svg	24	yes	53	1	511
6.6.0	win	2022-12-15	14:31:54	14:40:16	499239	5d158f6419d2ed0001e2120c	723524778	1	main_slash	11	advance_on_keypress_SLASH	80	stimuli_target_diamondsquares.svg	stimuli_distractor_diamondtriangles.svg	24	yes	57	0	371
6.6.0	win	2022-12-15	14:31:54	14:40:17	500785	5d158f6419d2ed0001e2120c	723524778	1	main_slash	11	main_slash	81	stimuli_target_trianglesquares.svg	stimuli_distractor_diamondtriangles.svg	22	yes	53	1	528
6.6.0	win	2022-12-15	14:31:54	14:40:17	500785	5d158f6419d2ed0001e2120c	723524778	1	main_slash	11	advance_on_keypress_SLASH	82	stimuli_target_trianglesquares.svg	stimuli_distractor_diamondtriangles.svg	22	yes	57	0	1808
6.6.0	win	2022-12-15	14:31:54	14:40:22	505239	5d158f6419d2ed0001e2120c	723524778	1	main_slash	11	main_slash	83	stimuli_distractor_diamondtriangles.svg	stimuli_distractor_trianglediamonds.svg	38	no	0	1	2000
6.6.0	win	2022-12-15	14:31:54	14:40:22	505239	5d158f6419d2ed0001e2120c	723524778	1	main_slash	11	advance_on_keypress_SLASH	84	stimuli_distractor_diamondtriangles.svg	stimuli_distractor_trianglediamonds.svg	38	no	57	0	536
6.6.0	win	2022-12-15	14:31:54	14:40:23	506914	5d158f6419d2ed0001e2120c	723524778	1	main_slash	11	main_slash	85	stimuli_target_circletriangles.svg	stimuli_distractor_diamondtriangles.svg	5	yes	53	1	492
6.6.0	win	2022-12-15	14:31:54	14:40:23	506914	5d158f6419d2ed0001e2120c	723524778	1	main_slash	11	advance_on_keypress_SLASH	86	stimuli_target_circletriangles.svg	stimuli_distractor_diamondtriangles.svg	5	yes	57	0	327
6.6.0	win	2022-12-15	14:31:54	14:40:25	508324	5d158f6419d2ed0001e2120c	723524778	1	main_slash	11	main_slash	87	stimuli_target_diamondsquares.svg	stimuli_distractor_trianglediamonds.svg	20	yes	53	1	453
6.6.0	win	2022-12-15	14:31:54	14:40:25	508324	5d158f6419d2ed0001e2120c	723524778	1	main_slash	11	advance_on_keypress_SLASH	88	stimuli_target_diamondsquares.svg	stimuli_distractor_trianglediamonds.svg	20	yes	57	0	252
6.6.0	win	2022-12-15	14:31:54	14:40:26	509612	5d158f6419d2ed0001e2120c	723524778	1	main_slash	11	main_slash	89	stimuli_distractor_trianglediamonds.svg	stimuli_target_trianglesquares.svg	26	yes	53	1	391
6.6.0	win	2022-12-15	14:31:54	14:40:26	509612	5d158f6419d2ed0001e2120c	723524778	1	main_slash	11	advance_on_keypress_SLASH	90	stimuli_distractor_trianglediamonds.svg	stimuli_target_trianglesquares.svg	26	yes	57	0	414
6.6.0	win	2022-12-15	14:31:54	14:40:27	511099	5d158f6419d2ed0001e2120c	723524778	1	main_slash	11	main_slash	91	stimuli_distractor_trianglediamonds.svg	stimuli_target_trianglecircles.svg	25	yes	53	1	428
6.6.0	win	2022-12-15	14:31:54	14:40:27	511099	5d158f6419d2ed0001e2120c	723524778	1	main_slash	11	advance_on_keypress_SLASH	92	stimuli_distractor_trianglediamonds.svg	stimuli_target_trianglecircles.svg	25	yes	57	0	392
6.6.0	win	2022-12-15	14:31:54	14:40:29	512519	5d158f6419d2ed0001e2120c	723524778	1	main_slash	11	main_slash	93	stimuli_target_squaretriangles.svg	stimuli_distractor_diamondtriangles.svg	7	yes	53	1	381
6.6.0	win	2022-12-15	14:31:54	14:40:29	512519	5d158f6419d2ed0001e2120c	723524778	1	main_slash	11	advance_on_keypress_SLASH	94	stimuli_target_squaretriangles.svg	stimuli_distractor_diamondtriangles.svg	7	yes	57	0	428
6.6.0	win	2022-12-15	14:31:54	14:40:30	514078	5d158f6419d2ed0001e2120c	723524778	1	main_slash	11	main_slash	95	stimuli_target_diamondcircles.svg	stimuli_distractor_trianglediamonds.svg	19	yes	53	1	475
6.6.0	win	2022-12-15	14:31:54	14:40:30	514078	5d158f6419d2ed0001e2120c	723524778	1	main_slash	11	advance_on_keypress_SLASH	96	stimuli_target_diamondcircles.svg	stimuli_distractor_trianglediamonds.svg	19	yes	57	0	239
6.6.0	win	2022-12-15	14:31:54	14:40:33	516953	5d158f6419d2ed0001e2120c	723524778	1	main_slash	11	main_slash	97	stimuli_distractor_diamondtriangles.svg	stimuli_distractor_diamondtriangles.svg	40	no	0	1	2000
6.6.0	win	2022-12-15	14:31:54	14:40:33	516953	5d158f6419d2ed0001e2120c	723524778	1	main_slash	11	advance_on_keypress_SLASH	98	stimuli_distractor_diamondtriangles.svg	stimuli_distractor_diamondtriangles.svg	40	no	57	0	541
6.6.0	win	2022-12-15	14:31:54	14:40:36	520136	5d158f6419d2ed0001e2120c	723524778	1	main_slash	11	main_slash	99	stimuli_distractor_trianglediamonds.svg	stimuli_distractor_trianglediamonds.svg	33	no	0	1	2000
6.6.0	win	2022-12-15	14:31:54	14:40:36	520136	5d158f6419d2ed0001e2120c	723524778	1	main_slash	11	advance_on_keypress_SLASH	100	stimuli_distractor_trianglediamonds.svg	stimuli_distractor_trianglediamonds.svg	33	no	57	0	479
6.6.0	win	2022-12-15	14:31:54	14:40:38	521818	5d158f6419d2ed0001e2120c	723524778	1	main_slash	11	main_slash	101	stimuli_distractor_trianglediamonds.svg	stimuli_target_squaretriangles.svg	11	yes	53	1	549
6.6.0	win	2022-12-15	14:31:54	14:40:38	521818	5d158f6419d2ed0001e2120c	723524778	1	main_slash	11	advance_on_keypress_SLASH	102	stimuli_distractor_trianglediamonds.svg	stimuli_target_squaretriangles.svg	11	yes	57	0	324
6.6.0	win	2022-12-15	14:31:54	14:40:39	523184	5d158f6419d2ed0001e2120c	723524778	1	main_slash	11	main_slash	103	stimuli_distractor_trianglediamonds.svg	stimuli_target_squarediamonds.svg	12	yes	53	1	400
6.6.0	win	2022-12-15	14:31:54	14:40:39	523184	5d158f6419d2ed0001e2120c	723524778	1	main_slash	11	advance_on_keypress_SLASH	104	stimuli_distractor_trianglediamonds.svg	stimuli_target_squarediamonds.svg	12	yes	57	0	314
6.6.0	win	2022-12-15	14:31:54	14:40:41	524638	5d158f6419d2ed0001e2120c	723524778	1	main_slash	11	main_slash	105	stimuli_target_squarediamonds.svg	stimuli_distractor_trianglediamonds.svg	4	yes	53	1	488
6.6.0	win	2022-12-15	14:31:54	14:40:41	524638	5d158f6419d2ed0001e2120c	723524778	1	main_slash	11	advance_on_keypress_SLASH	106	stimuli_target_squarediamonds.svg	stimuli_distractor_trianglediamonds.svg	4	yes	57	0	234
6.6.0	win	2022-12-15	14:31:54	14:40:44	527517	5d158f6419d2ed0001e2120c	723524778	1	main_slash	11	main_slash	107	stimuli_distractor_diamondtriangles.svg	stimuli_distractor_diamondtriangles.svg	39	no	0	1	2000
6.6.0	win	2022-12-15	14:31:54	14:40:44	527517	5d158f6419d2ed0001e2120c	723524778	1	main_slash	11	advance_on_keypress_SLASH	108	stimuli_distractor_diamondtriangles.svg	stimuli_distractor_diamondtriangles.svg	39	no	57	0	334
6.6.0	win	2022-12-15	14:31:54	14:40:45	529019	5d158f6419d2ed0001e2120c	723524778	1	main_slash	11	main_slash	109	stimuli_target_diamondsquares.svg	stimuli_distractor_diamondtriangles.svg	24	yes	53	1	520
6.6.0	win	2022-12-15	14:31:54	14:40:45	529019	5d158f6419d2ed0001e2120c	723524778	1	main_slash	11	advance_on_keypress_SLASH	110	stimuli_target_diamondsquares.svg	stimuli_distractor_diamondtriangles.svg	24	yes	57	0	293
6.6.0	win	2022-12-15	14:31:54	14:40:47	530369	5d158f6419d2ed0001e2120c	723524778	1	main_slash	11	main_slash	111	stimuli_distractor_diamondtriangles.svg	stimuli_target_trianglecircles.svg	29	yes	53	1	420
6.6.0	win	2022-12-15	14:31:54	14:40:47	530369	5d158f6419d2ed0001e2120c	723524778	1	main_slash	11	advance_on_keypress_SLASH	112	stimuli_distractor_diamondtriangles.svg	stimuli_target_trianglecircles.svg	29	yes	57	0	365
6.6.0	win	2022-12-15	14:31:54	14:40:48	531804	5d158f6419d2ed0001e2120c	723524778	1	main_slash	11	main_slash	113	stimuli_distractor_diamondtriangles.svg	stimuli_target_squarediamonds.svg	16	yes	53	1	422
6.6.0	win	2022-12-15	14:31:54	14:40:48	531804	5d158f6419d2ed0001e2120c	723524778	1	main_slash	11	advance_on_keypress_SLASH	114	stimuli_distractor_diamondtriangles.svg	stimuli_target_squarediamonds.svg	16	yes	57	0	307
6.6.0	win	2022-12-15	14:31:54	14:40:49	533084	5d158f6419d2ed0001e2120c	723524778	1	main_slash	11	main_slash	115	stimuli_target_circletriangles.svg	stimuli_distractor_trianglediamonds.svg	1	yes	53	1	336
6.6.0	win	2022-12-15	14:31:54	14:40:49	533084	5d158f6419d2ed0001e2120c	723524778	1	main_slash	11	advance_on_keypress_SLASH	116	stimuli_target_circletriangles.svg	stimuli_distractor_trianglediamonds.svg	1	yes	57	0	337
6.6.0	win	2022-12-15	14:31:54	14:40:51	534387	5d158f6419d2ed0001e2120c	723524778	1	main_slash	11	main_slash	117	stimuli_target_circlediamonds.svg	stimuli_distractor_trianglediamonds.svg	2	yes	53	1	323
6.6.0	win	2022-12-15	14:31:54	14:40:51	534387	5d158f6419d2ed0001e2120c	723524778	1	main_slash	11	advance_on_keypress_SLASH	118	stimuli_target_circlediamonds.svg	stimuli_distractor_trianglediamonds.svg	2	yes	57	0	352
6.6.0	win	2022-12-15	14:31:54	14:40:54	537381	5d158f6419d2ed0001e2120c	723524778	1	main_slash	11	main_slash	119	stimuli_distractor_trianglediamonds.svg	stimuli_distractor_trianglediamonds.svg	34	no	0	1	2000
6.6.0	win	2022-12-15	14:31:54	14:40:54	537381	5d158f6419d2ed0001e2120c	723524778	1	main_slash	11	advance_on_keypress_SLASH	120	stimuli_distractor_trianglediamonds.svg	stimuli_distractor_trianglediamonds.svg	34	no	57	0	415
6.6.0	win	2022-12-15	14:31:54	14:40:55	538841	5d158f6419d2ed0001e2120c	723524778	1	main_slash	11	main_slash	121	stimuli_distractor_diamondtriangles.svg	stimuli_target_diamondcircles.svg	31	yes	53	1	395
6.6.0	win	2022-12-15	14:31:54	14:40:55	538841	5d158f6419d2ed0001e2120c	723524778	1	main_slash	11	advance_on_keypress_SLASH	122	stimuli_distractor_diamondtriangles.svg	stimuli_target_diamondcircles.svg	31	yes	57	0	352
6.6.0	win	2022-12-15	14:31:54	14:40:57	540296	5d158f6419d2ed0001e2120c	723524778	1	main_slash	11	main_slash	123	stimuli_target_trianglesquares.svg	stimuli_distractor_trianglediamonds.svg	18	yes	53	1	467
6.6.0	win	2022-12-15	14:31:54	14:40:57	540296	5d158f6419d2ed0001e2120c	723524778	1	main_slash	11	advance_on_keypress_SLASH	124	stimuli_target_trianglesquares.svg	stimuli_distractor_trianglediamonds.svg	18	yes	57	0	426
6.6.0	win	2022-12-15	14:31:54	14:40:58	541763	5d158f6419d2ed0001e2120c	723524778	1	main_slash	11	main_slash	125	stimuli_target_circlediamonds.svg	stimuli_distractor_diamondtriangles.svg	6	yes	53	1	400
6.6.0	win	2022-12-15	14:31:54	14:40:58	541763	5d158f6419d2ed0001e2120c	723524778	1	main_slash	11	advance_on_keypress_SLASH	126	stimuli_target_circlediamonds.svg	stimuli_distractor_diamondtriangles.svg	6	yes	57	0	340
6.6.0	win	2022-12-15	14:31:54	14:40:59	543043	5d158f6419d2ed0001e2120c	723524778	1	main_slash	11	main_slash	127	stimuli_distractor_diamondtriangles.svg	stimuli_target_squaretriangles.svg	15	yes	53	1	298
6.6.0	win	2022-12-15	14:31:54	14:40:59	543043	5d158f6419d2ed0001e2120c	723524778	1	main_slash	11	advance_on_keypress_SLASH	128	stimuli_distractor_diamondtriangles.svg	stimuli_target_squaretriangles.svg	15	yes	57	0	363
6.6.0	win	2022-12-15	14:31:54	14:41:01	544397	5d158f6419d2ed0001e2120c	723524778	1	main_slash	11	main_slash	129	stimuli_distractor_trianglediamonds.svg	stimuli_distractor_diamondtriangles.svg	36	no	53	0	336
6.6.0	win	2022-12-15	14:31:54	14:41:01	544397	5d158f6419d2ed0001e2120c	723524778	1	main_slash	11	advance_on_keypress_SLASH	130	stimuli_distractor_trianglediamonds.svg	stimuli_distractor_diamondtriangles.svg	36	no	57	0	588
6.6.0	win	2022-12-15	14:31:54	14:41:02	545994	5d158f6419d2ed0001e2120c	723524778	1	main_slash	11	main_slash	131	stimuli_target_squaretriangles.svg	stimuli_distractor_trianglediamonds.svg	3	yes	53	1	366
6.6.0	win	2022-12-15	14:31:54	14:41:02	545994	5d158f6419d2ed0001e2120c	723524778	1	main_slash	11	advance_on_keypress_SLASH	132	stimuli_target_squaretriangles.svg	stimuli_distractor_trianglediamonds.svg	3	yes	57	0	353
6.6.0	win	2022-12-15	14:31:54	14:41:05	548995	5d158f6419d2ed0001e2120c	723524778	1	main_slash	11	main_slash	133	stimuli_distractor_diamondtriangles.svg	stimuli_distractor_trianglediamonds.svg	37	no	0	1	2000
6.6.0	win	2022-12-15	14:31:54	14:41:05	548995	5d158f6419d2ed0001e2120c	723524778	1	main_slash	11	advance_on_keypress_SLASH	134	stimuli_distractor_diamondtriangles.svg	stimuli_distractor_trianglediamonds.svg	37	no	57	0	423
6.6.0	win	2022-12-15	14:31:54	14:41:07	550547	5d158f6419d2ed0001e2120c	723524778	1	main_slash	11	main_slash	135	stimuli_distractor_trianglediamonds.svg	stimuli_target_circlediamonds.svg	10	yes	53	1	487
6.6.0	win	2022-12-15	14:31:54	14:41:07	550547	5d158f6419d2ed0001e2120c	723524778	1	main_slash	11	advance_on_keypress_SLASH	136	stimuli_distractor_trianglediamonds.svg	stimuli_target_circlediamonds.svg	10	yes	57	0	316
6.6.0	win	2022-12-15	14:31:54	14:41:08	552007	5d158f6419d2ed0001e2120c	723524778	1	main_slash	11	main_slash	137	stimuli_distractor_trianglediamonds.svg	stimuli_target_diamondsquares.svg	28	yes	53	1	498
6.6.0	win	2022-12-15	14:31:54	14:41:08	552007	5d158f6419d2ed0001e2120c	723524778	1	main_slash	11	advance_on_keypress_SLASH	138	stimuli_distractor_trianglediamonds.svg	stimuli_target_diamondsquares.svg	28	yes	57	0	258
6.6.0	win	2022-12-15	14:31:54	14:41:10	553757	5d158f6419d2ed0001e2120c	723524778	1	main_slash	11	main_slash	139	stimuli_target_squarediamonds.svg	stimuli_distractor_diamondtriangles.svg	8	yes	53	1	847
6.6.0	win	2022-12-15	14:31:54	14:41:10	553757	5d158f6419d2ed0001e2120c	723524778	1	main_slash	11	advance_on_keypress_SLASH	140	stimuli_target_squarediamonds.svg	stimuli_distractor_diamondtriangles.svg	8	yes	57	0	221
6.6.0	win	2022-12-15	14:31:54	14:41:11	555009	5d158f6419d2ed0001e2120c	723524778	1	main_slash	11	main_slash	141	stimuli_distractor_diamondtriangles.svg	stimuli_target_circletriangles.svg	13	yes	53	1	382
6.6.0	win	2022-12-15	14:31:54	14:41:11	555009	5d158f6419d2ed0001e2120c	723524778	1	main_slash	11	advance_on_keypress_SLASH	142	stimuli_distractor_diamondtriangles.svg	stimuli_target_circletriangles.svg	13	yes	57	0	262
6.6.0	win	2022-12-15	14:31:54	14:41:13	556377	5d158f6419d2ed0001e2120c	723524778	1	main_slash	11	main_slash	143	stimuli_distractor_trianglediamonds.svg	stimuli_distractor_diamondtriangles.svg	35	no	53	0	452
6.6.0	win	2022-12-15	14:31:54	14:41:13	556377	5d158f6419d2ed0001e2120c	723524778	1	main_slash	11	advance_on_keypress_SLASH	144	stimuli_distractor_trianglediamonds.svg	stimuli_distractor_diamondtriangles.svg	35	no	57	0	409
6.6.0	win	2022-12-15	14:31:54	14:41:14	558175	5d158f6419d2ed0001e2120c	723524778	1	main_slash	11	main_slash	145	stimuli_distractor_diamondtriangles.svg	stimuli_target_circlediamonds.svg	14	yes	53	1	750
6.6.0	win	2022-12-15	14:31:54	14:41:14	558175	5d158f6419d2ed0001e2120c	723524778	1	main_slash	11	advance_on_keypress_SLASH	146	stimuli_distractor_diamondtriangles.svg	stimuli_target_circlediamonds.svg	14	yes	57	0	242
6.6.0	win	2022-12-15	14:31:54	14:41:16	559587	5d158f6419d2ed0001e2120c	723524778	1	main_slash	11	main_slash	147	stimuli_target_diamondcircles.svg	stimuli_distractor_diamondtriangles.svg	23	yes	53	1	529
6.6.0	win	2022-12-15	14:31:54	14:41:16	559587	5d158f6419d2ed0001e2120c	723524778	1	main_slash	11	advance_on_keypress_SLASH	148	stimuli_target_diamondcircles.svg	stimuli_distractor_diamondtriangles.svg	23	yes	57	0	282
6.6.0	win	2022-12-15	14:31:54	14:41:17	560989	5d158f6419d2ed0001e2120c	723524778	1	main_slash	11	main_slash	149	stimuli_target_trianglecircles.svg	stimuli_distractor_trianglediamonds.svg	17	yes	53	1	465
6.6.0	win	2022-12-15	14:31:54	14:41:17	560989	5d158f6419d2ed0001e2120c	723524778	1	main_slash	11	advance_on_keypress_SLASH	150	stimuli_target_trianglecircles.svg	stimuli_distractor_trianglediamonds.svg	17	yes	57	0	283
6.6.0	win	2022-12-15	14:31:54	14:41:19	562420	5d158f6419d2ed0001e2120c	723524778	1	main_slash	11	main_slash	151	stimuli_distractor_diamondtriangles.svg	stimuli_target_diamondsquares.svg	32	yes	53	1	497
6.6.0	win	2022-12-15	14:31:54	14:41:19	562420	5d158f6419d2ed0001e2120c	723524778	1	main_slash	11	advance_on_keypress_SLASH	152	stimuli_distractor_diamondtriangles.svg	stimuli_target_diamondsquares.svg	32	yes	57	0	244
6.6.0	win	2022-12-15	14:31:54	14:41:20	563745	5d158f6419d2ed0001e2120c	723524778	1	main_slash	11	main_slash	153	stimuli_distractor_diamondtriangles.svg	stimuli_target_trianglesquares.svg	30	yes	53	1	421
6.6.0	win	2022-12-15	14:31:54	14:41:20	563745	5d158f6419d2ed0001e2120c	723524778	1	main_slash	11	advance_on_keypress_SLASH	154	stimuli_distractor_diamondtriangles.svg	stimuli_target_trianglesquares.svg	30	yes	57	0	413
6.6.0	win	2022-12-15	14:31:54	14:41:21	565191	5d158f6419d2ed0001e2120c	723524778	1	main_slash	11	main_slash	155	stimuli_target_trianglecircles.svg	stimuli_distractor_diamondtriangles.svg	21	yes	53	1	384
6.6.0	win	2022-12-15	14:31:54	14:41:21	565191	5d158f6419d2ed0001e2120c	723524778	1	main_slash	11	advance_on_keypress_SLASH	156	stimuli_target_trianglecircles.svg	stimuli_distractor_diamondtriangles.svg	21	yes	57	0	344
6.6.0	win	2022-12-15	14:31:54	14:41:23	566639	5d158f6419d2ed0001e2120c	723524778	1	main_slash	11	main_slash	157	stimuli_distractor_trianglediamonds.svg	stimuli_target_diamondcircles.svg	27	yes	53	1	467
6.6.0	win	2022-12-15	14:31:54	14:41:23	566639	5d158f6419d2ed0001e2120c	723524778	1	main_slash	11	advance_on_keypress_SLASH	158	stimuli_distractor_trianglediamonds.svg	stimuli_target_diamondcircles.svg	27	yes	57	0	375
6.6.0	win	2022-12-15	14:31:54	14:41:24	568021	5d158f6419d2ed0001e2120c	723524778	1	main_slash	11	main_slash	159	stimuli_distractor_trianglediamonds.svg	stimuli_target_circletriangles.svg	9	yes	53	1	366
6.6.0	win	2022-12-15	14:31:54	14:41:24	568021	5d158f6419d2ed0001e2120c	723524778	1	main_slash	11	advance_on_keypress_SLASH	160	stimuli_distractor_trianglediamonds.svg	stimuli_target_circletriangles.svg	9	yes	57	0	267