build	computer.platform	date	time	timestamp	time_elapsed_ms	subject	group	session	blockcode	blocknum	trialcode	trialnum	stimulus_left	stimulus_right	stim_index	target_present	response	correct	latency
6.6.1	mac	2022-12-23	11:23:16	11:25:19	121716	6111b27e123039e968795ea8	863965372	1	practice_z	5	practice_z	1	stimuli_distractor_trianglediamonds.svg	stimuli_distractor_trianglediamonds.svg	15	no	0	1	2000
6.6.1	mac	2022-12-23	11:23:16	11:25:19	121716	6111b27e123039e968795ea8	863965372	1	practice_z	5	advance_on_keypress_ZEE	2	stimuli_distractor_trianglediamonds.svg	stimuli_distractor_trianglediamonds.svg	15	no	57	0	2292
6.6.1	mac	2022-12-23	11:23:16	11:25:24	126564	6111b27e123039e968795ea8	863965372	1	practice_z	5	practice_z	3	stimuli_distractor_trianglediamonds.svg	stimuli_target_circlediamonds.svg	10	yes	44	1	912
6.6.1	mac	2022-12-23	11:23:16	11:25:24	126564	6111b27e123039e968795ea8	863965372	1	practice_z	5	advance_on_keypress_ZEE	4	stimuli_distractor_trianglediamonds.svg	stimuli_target_circlediamonds.svg	10	yes	57	0	490
6.6.1	mac	2022-12-23	11:23:16	11:25:28	130684	6111b27e123039e968795ea8	863965372	1	practice_z	5	practice_z	5	stimuli_distractor_diamondtriangles.svg	stimuli_distractor_diamondtriangles.svg	13	no	0	1	2000
6.6.1	mac	2022-12-23	11:23:16	11:25:28	130684	6111b27e123039e968795ea8	863965372	1	practice_z	5	advance_on_keypress_ZEE	6	stimuli_distractor_diamondtriangles.svg	stimuli_distractor_diamondtriangles.svg	13	no	57	0	628
6.6.1	mac	2022-12-23	11:23:16	11:25:31	134068	6111b27e123039e968795ea8	863965372	1	practice_z	5	practice_z	7	stimuli_distractor_diamondtriangles.svg	stimuli_target_diamondcircles.svg	8	yes	44	1	1115
6.6.1	mac	2022-12-23	11:23:16	11:25:31	134068	6111b27e123039e968795ea8	863965372	1	practice_z	5	advance_on_keypress_ZEE	8	stimuli_distractor_diamondtriangles.svg	stimuli_target_diamondcircles.svg	8	yes	57	0	525
6.6.1	mac	2022-12-23	11:23:16	11:25:36	138218	6111b27e123039e968795ea8	863965372	1	practice_z	5	practice_z	9	stimuli_distractor_diamondtriangles.svg	stimuli_distractor_trianglediamonds.svg	14	no	0	1	2000
6.6.1	mac	2022-12-23	11:23:16	11:25:36	138218	6111b27e123039e968795ea8	863965372	1	practice_z	5	advance_on_keypress_ZEE	10	stimuli_distractor_diamondtriangles.svg	stimuli_distractor_trianglediamonds.svg	14	no	57	0	1646
6.6.1	mac	2022-12-23	11:23:16	11:25:40	142476	6111b27e123039e968795ea8	863965372	1	practice_z	5	practice_z	11	stimuli_distractor_diamondtriangles.svg	stimuli_target_trianglecircles.svg	9	yes	44	1	973
6.6.1	mac	2022-12-23	11:23:16	11:25:40	142476	6111b27e123039e968795ea8	863965372	1	practice_z	5	advance_on_keypress_ZEE	12	stimuli_distractor_diamondtriangles.svg	stimuli_target_trianglecircles.svg	9	yes	57	0	260
6.6.1	mac	2022-12-23	11:23:16	11:25:42	145084	6111b27e123039e968795ea8	863965372	1	practice_z	5	practice_z	13	stimuli_distractor_trianglediamonds.svg	stimuli_target_squarediamonds.svg	11	yes	44	1	713
6.6.1	mac	2022-12-23	11:23:16	11:25:42	145084	6111b27e123039e968795ea8	863965372	1	practice_z	5	advance_on_keypress_ZEE	14	stimuli_distractor_trianglediamonds.svg	stimuli_target_squarediamonds.svg	11	yes	57	0	260
6.6.1	mac	2022-12-23	11:23:16	11:25:45	147645	6111b27e123039e968795ea8	863965372	1	practice_z	5	practice_z	15	stimuli_target_squarediamonds.svg	stimuli_distractor_diamondtriangles.svg	2	yes	44	1	672
6.6.1	mac	2022-12-23	11:23:16	11:25:45	147645	6111b27e123039e968795ea8	863965372	1	practice_z	5	advance_on_keypress_ZEE	16	stimuli_target_squarediamonds.svg	stimuli_distractor_diamondtriangles.svg	2	yes	57	0	645
6.6.1	mac	2022-12-23	11:23:16	11:25:49	151920	6111b27e123039e968795ea8	863965372	1	practice_z	5	practice_z	17	stimuli_target_diamondsquares.svg	stimuli_distractor_diamondtriangles.svg	3	yes	0	0	2000
6.6.1	mac	2022-12-23	11:23:16	11:25:49	151920	6111b27e123039e968795ea8	863965372	1	practice_z	5	advance_on_keypress_ZEE	18	stimuli_target_diamondsquares.svg	stimuli_distractor_diamondtriangles.svg	3	yes	57	0	417
6.6.1	mac	2022-12-23	11:23:16	11:25:52	154877	6111b27e123039e968795ea8	863965372	1	practice_z	5	practice_z	19	stimuli_distractor_trianglediamonds.svg	stimuli_target_diamondcircles.svg	12	yes	44	1	903
6.6.1	mac	2022-12-23	11:23:16	11:25:52	154877	6111b27e123039e968795ea8	863965372	1	practice_z	5	advance_on_keypress_ZEE	20	stimuli_distractor_trianglediamonds.svg	stimuli_target_diamondcircles.svg	12	yes	57	0	682
6.6.1	mac	2022-12-23	11:23:16	11:25:55	157925	6111b27e123039e968795ea8	863965372	1	practice_z	5	practice_z	21	stimuli_target_diamondsquares.svg	stimuli_distractor_trianglediamonds.svg	6	yes	44	1	734
6.6.1	mac	2022-12-23	11:23:16	11:25:55	157925	6111b27e123039e968795ea8	863965372	1	practice_z	5	advance_on_keypress_ZEE	22	stimuli_target_diamondsquares.svg	stimuli_distractor_trianglediamonds.svg	6	yes	57	0	480
6.6.1	mac	2022-12-23	11:23:16	11:25:59	161317	6111b27e123039e968795ea8	863965372	1	practice_z	5	practice_z	23	stimuli_target_squarediamonds.svg	stimuli_distractor_trianglediamonds.svg	5	yes	44	1	1276
6.6.1	mac	2022-12-23	11:23:16	11:25:59	161317	6111b27e123039e968795ea8	863965372	1	practice_z	5	advance_on_keypress_ZEE	24	stimuli_target_squarediamonds.svg	stimuli_distractor_trianglediamonds.svg	5	yes	57	0	336
6.6.1	mac	2022-12-23	11:23:16	11:26:01	163917	6111b27e123039e968795ea8	863965372	1	practice_z	5	practice_z	25	stimuli_target_circlediamonds.svg	stimuli_distractor_diamondtriangles.svg	1	yes	44	1	642
6.6.1	mac	2022-12-23	11:23:16	11:26:01	163917	6111b27e123039e968795ea8	863965372	1	practice_z	5	advance_on_keypress_ZEE	26	stimuli_target_circlediamonds.svg	stimuli_distractor_diamondtriangles.svg	1	yes	57	0	600
6.6.1	mac	2022-12-23	11:23:16	11:26:05	168138	6111b27e123039e968795ea8	863965372	1	practice_z	5	practice_z	27	stimuli_distractor_trianglediamonds.svg	stimuli_distractor_diamondtriangles.svg	16	no	0	1	2000
6.6.1	mac	2022-12-23	11:23:16	11:26:05	168138	6111b27e123039e968795ea8	863965372	1	practice_z	5	advance_on_keypress_ZEE	28	stimuli_distractor_trianglediamonds.svg	stimuli_distractor_diamondtriangles.svg	16	no	57	0	438
6.6.1	mac	2022-12-23	11:23:16	11:26:08	170964	6111b27e123039e968795ea8	863965372	1	practice_z	5	practice_z	29	stimuli_target_circlediamonds.svg	stimuli_distractor_trianglediamonds.svg	4	yes	44	1	757
6.6.1	mac	2022-12-23	11:23:16	11:26:08	170964	6111b27e123039e968795ea8	863965372	1	practice_z	5	advance_on_keypress_ZEE	30	stimuli_target_circlediamonds.svg	stimuli_distractor_trianglediamonds.svg	4	yes	57	0	262
6.6.1	mac	2022-12-23	11:23:16	11:26:11	173476	6111b27e123039e968795ea8	863965372	1	practice_z	5	practice_z	31	stimuli_distractor_diamondtriangles.svg	stimuli_target_circletriangles.svg	7	yes	44	1	618
6.6.1	mac	2022-12-23	11:23:16	11:26:11	173476	6111b27e123039e968795ea8	863965372	1	practice_z	5	advance_on_keypress_ZEE	32	stimuli_distractor_diamondtriangles.svg	stimuli_target_circletriangles.svg	7	yes	57	0	520
6.6.1	mac	2022-12-23	11:23:16	11:26:23	185507	6111b27e123039e968795ea8	863965372	1	main_z	7	main_z	1	stimuli_distractor_trianglediamonds.svg	stimuli_distractor_trianglediamonds.svg	34	no	0	1	2000
6.6.1	mac	2022-12-23	11:23:16	11:26:23	185507	6111b27e123039e968795ea8	863965372	1	main_z	7	advance_on_keypress_ZEE	2	stimuli_distractor_trianglediamonds.svg	stimuli_distractor_trianglediamonds.svg	34	no	57	0	1141
6.6.1	mac	2022-12-23	11:23:16	11:26:25	187956	6111b27e123039e968795ea8	863965372	1	main_z	7	main_z	3	stimuli_distractor_diamondtriangles.svg	stimuli_target_circletriangles.svg	13	yes	44	1	680
6.6.1	mac	2022-12-23	11:23:16	11:26:25	187956	6111b27e123039e968795ea8	863965372	1	main_z	7	advance_on_keypress_ZEE	4	stimuli_distractor_diamondtriangles.svg	stimuli_target_circletriangles.svg	13	yes	57	0	740
6.6.1	mac	2022-12-23	11:23:16	11:26:27	189940	6111b27e123039e968795ea8	863965372	1	main_z	7	main_z	5	stimuli_target_circlediamonds.svg	stimuli_distractor_diamondtriangles.svg	6	yes	44	1	613
6.6.1	mac	2022-12-23	11:23:16	11:26:27	189940	6111b27e123039e968795ea8	863965372	1	main_z	7	advance_on_keypress_ZEE	6	stimuli_target_circlediamonds.svg	stimuli_distractor_diamondtriangles.svg	6	yes	57	0	1195
6.6.1	mac	2022-12-23	11:23:16	11:26:30	192436	6111b27e123039e968795ea8	863965372	1	main_z	7	main_z	7	stimuli_distractor_diamondtriangles.svg	stimuli_target_trianglesquares.svg	30	yes	44	1	659
6.6.1	mac	2022-12-23	11:23:16	11:26:30	192436	6111b27e123039e968795ea8	863965372	1	main_z	7	advance_on_keypress_ZEE	8	stimuli_distractor_diamondtriangles.svg	stimuli_target_trianglesquares.svg	30	yes	57	0	656
6.6.1	mac	2022-12-23	11:23:16	11:26:32	194244	6111b27e123039e968795ea8	863965372	1	main_z	7	main_z	9	stimuli_distractor_trianglediamonds.svg	stimuli_target_trianglecircles.svg	25	yes	44	1	533
6.6.1	mac	2022-12-23	11:23:16	11:26:32	194244	6111b27e123039e968795ea8	863965372	1	main_z	7	advance_on_keypress_ZEE	10	stimuli_distractor_trianglediamonds.svg	stimuli_target_trianglecircles.svg	25	yes	57	0	591
6.6.1	mac	2022-12-23	11:23:16	11:26:33	196036	6111b27e123039e968795ea8	863965372	1	main_z	7	main_z	11	stimuli_target_trianglecircles.svg	stimuli_distractor_diamondtriangles.svg	21	yes	44	1	575
6.6.1	mac	2022-12-23	11:23:16	11:26:33	196036	6111b27e123039e968795ea8	863965372	1	main_z	7	advance_on_keypress_ZEE	12	stimuli_target_trianglecircles.svg	stimuli_distractor_diamondtriangles.svg	21	yes	57	0	895
6.6.1	mac	2022-12-23	11:23:16	11:26:36	198252	6111b27e123039e968795ea8	863965372	1	main_z	7	main_z	13	stimuli_distractor_trianglediamonds.svg	stimuli_target_circletriangles.svg	9	yes	44	1	691
6.6.1	mac	2022-12-23	11:23:16	11:26:36	198252	6111b27e123039e968795ea8	863965372	1	main_z	7	advance_on_keypress_ZEE	14	stimuli_distractor_trianglediamonds.svg	stimuli_target_circletriangles.svg	9	yes	57	0	591
6.6.1	mac	2022-12-23	11:23:16	11:26:38	200812	6111b27e123039e968795ea8	863965372	1	main_z	7	main_z	15	stimuli_distractor_trianglediamonds.svg	stimuli_target_circlediamonds.svg	10	yes	44	1	1351
6.6.1	mac	2022-12-23	11:23:16	11:26:38	200812	6111b27e123039e968795ea8	863965372	1	main_z	7	advance_on_keypress_ZEE	16	stimuli_distractor_trianglediamonds.svg	stimuli_target_circlediamonds.svg	10	yes	57	0	624
6.6.1	mac	2022-12-23	11:23:16	11:26:40	202652	6111b27e123039e968795ea8	863965372	1	main_z	7	main_z	17	stimuli_target_squarediamonds.svg	stimuli_distractor_diamondtriangles.svg	8	yes	44	1	591
6.6.1	mac	2022-12-23	11:23:16	11:26:40	202652	6111b27e123039e968795ea8	863965372	1	main_z	7	advance_on_keypress_ZEE	18	stimuli_target_squarediamonds.svg	stimuli_distractor_diamondtriangles.svg	8	yes	57	0	606
6.6.1	mac	2022-12-23	11:23:16	11:26:42	204740	6111b27e123039e968795ea8	863965372	1	main_z	7	main_z	19	stimuli_distractor_diamondtriangles.svg	stimuli_target_diamondcircles.svg	31	yes	44	1	861
6.6.1	mac	2022-12-23	11:23:16	11:26:42	204740	6111b27e123039e968795ea8	863965372	1	main_z	7	advance_on_keypress_ZEE	20	stimuli_distractor_diamondtriangles.svg	stimuli_target_diamondcircles.svg	31	yes	57	0	499
6.6.1	mac	2022-12-23	11:23:16	11:26:44	206756	6111b27e123039e968795ea8	863965372	1	main_z	7	main_z	21	stimuli_target_diamondcircles.svg	stimuli_distractor_trianglediamonds.svg	19	yes	44	1	894
6.6.1	mac	2022-12-23	11:23:16	11:26:44	206756	6111b27e123039e968795ea8	863965372	1	main_z	7	advance_on_keypress_ZEE	22	stimuli_target_diamondcircles.svg	stimuli_distractor_trianglediamonds.svg	19	yes	57	0	1003
6.6.1	mac	2022-12-23	11:23:16	11:26:46	208972	6111b27e123039e968795ea8	863965372	1	main_z	7	main_z	23	stimuli_target_squaretriangles.svg	stimuli_distractor_trianglediamonds.svg	3	yes	44	1	593
6.6.1	mac	2022-12-23	11:23:16	11:26:46	208972	6111b27e123039e968795ea8	863965372	1	main_z	7	advance_on_keypress_ZEE	24	stimuli_target_squaretriangles.svg	stimuli_distractor_trianglediamonds.svg	3	yes	57	0	841
6.6.1	mac	2022-12-23	11:23:16	11:26:50	212427	6111b27e123039e968795ea8	863965372	1	main_z	7	main_z	25	stimuli_distractor_diamondtriangles.svg	stimuli_distractor_diamondtriangles.svg	39	no	0	1	2000
6.6.1	mac	2022-12-23	11:23:16	11:26:50	212427	6111b27e123039e968795ea8	863965372	1	main_z	7	advance_on_keypress_ZEE	26	stimuli_distractor_diamondtriangles.svg	stimuli_distractor_diamondtriangles.svg	39	no	57	0	525
6.6.1	mac	2022-12-23	11:23:16	11:26:52	214404	6111b27e123039e968795ea8	863965372	1	main_z	7	main_z	27	stimuli_distractor_trianglediamonds.svg	stimuli_target_diamondsquares.svg	28	yes	44	1	825
6.6.1	mac	2022-12-23	11:23:16	11:26:52	214404	6111b27e123039e968795ea8	863965372	1	main_z	7	advance_on_keypress_ZEE	28	stimuli_distractor_trianglediamonds.svg	stimuli_target_diamondsquares.svg	28	yes	57	0	1447
6.6.1	mac	2022-12-23	11:23:16	11:26:55	217228	6111b27e123039e968795ea8	863965372	1	main_z	7	main_z	29	stimuli_distractor_trianglediamonds.svg	stimuli_target_diamondcircles.svg	27	yes	44	1	748
6.6.1	mac	2022-12-23	11:23:16	11:26:55	217228	6111b27e123039e968795ea8	863965372	1	main_z	7	advance_on_keypress_ZEE	30	stimuli_distractor_trianglediamonds.svg	stimuli_target_diamondcircles.svg	27	yes	57	0	1316
6.6.1	mac	2022-12-23	11:23:16	11:26:59	221179	6111b27e123039e968795ea8	863965372	1	main_z	7	main_z	31	stimuli_distractor_diamondtriangles.svg	stimuli_distractor_diamondtriangles.svg	40	no	0	1	2000
6.6.1	mac	2022-12-23	11:23:16	11:26:59	221179	6111b27e123039e968795ea8	863965372	1	main_z	7	advance_on_keypress_ZEE	32	stimuli_distractor_diamondtriangles.svg	stimuli_distractor_diamondtriangles.svg	40	no	57	0	278
6.6.1	mac	2022-12-23	11:23:16	11:27:00	222716	6111b27e123039e968795ea8	863965372	1	main_z	7	main_z	33	stimuli_target_circlediamonds.svg	stimuli_distractor_trianglediamonds.svg	2	yes	44	1	618
6.6.1	mac	2022-12-23	11:23:16	11:27:00	222716	6111b27e123039e968795ea8	863965372	1	main_z	7	advance_on_keypress_ZEE	34	stimuli_target_circlediamonds.svg	stimuli_distractor_trianglediamonds.svg	2	yes	57	0	905
6.6.1	mac	2022-12-23	11:23:16	11:27:02	224924	6111b27e123039e968795ea8	863965372	1	main_z	7	main_z	35	stimuli_distractor_trianglediamonds.svg	stimuli_target_squarediamonds.svg	12	yes	44	1	676
6.6.1	mac	2022-12-23	11:23:16	11:27:02	224924	6111b27e123039e968795ea8	863965372	1	main_z	7	advance_on_keypress_ZEE	36	stimuli_distractor_trianglediamonds.svg	stimuli_target_squarediamonds.svg	12	yes	57	0	977
6.6.1	mac	2022-12-23	11:23:16	11:27:05	227741	6111b27e123039e968795ea8	863965372	1	main_z	7	main_z	37	stimuli_target_diamondsquares.svg	stimuli_distractor_diamondtriangles.svg	24	yes	44	1	1226
6.6.1	mac	2022-12-23	11:23:16	11:27:05	227741	6111b27e123039e968795ea8	863965372	1	main_z	7	advance_on_keypress_ZEE	38	stimuli_target_diamondsquares.svg	stimuli_distractor_diamondtriangles.svg	24	yes	57	0	1080
6.6.1	mac	2022-12-23	11:23:16	11:27:07	230076	6111b27e123039e968795ea8	863965372	1	main_z	7	main_z	39	stimuli_target_trianglecircles.svg	stimuli_distractor_trianglediamonds.svg	17	yes	44	1	627
6.6.1	mac	2022-12-23	11:23:16	11:27:07	230076	6111b27e123039e968795ea8	863965372	1	main_z	7	advance_on_keypress_ZEE	40	stimuli_target_trianglecircles.svg	stimuli_distractor_trianglediamonds.svg	17	yes	57	0	995
6.6.1	mac	2022-12-23	11:23:16	11:27:10	232340	6111b27e123039e968795ea8	863965372	1	main_z	7	main_z	41	stimuli_distractor_diamondtriangles.svg	stimuli_target_squarediamonds.svg	16	yes	44	1	658
6.6.1	mac	2022-12-23	11:23:16	11:27:10	232340	6111b27e123039e968795ea8	863965372	1	main_z	7	advance_on_keypress_ZEE	42	stimuli_distractor_diamondtriangles.svg	stimuli_target_squarediamonds.svg	16	yes	57	0	1095
6.6.1	mac	2022-12-23	11:23:16	11:27:13	235284	6111b27e123039e968795ea8	863965372	1	main_z	7	main_z	43	stimuli_distractor_diamondtriangles.svg	stimuli_target_diamondsquares.svg	32	yes	44	1	1218
6.6.1	mac	2022-12-23	11:23:16	11:27:13	235284	6111b27e123039e968795ea8	863965372	1	main_z	7	advance_on_keypress_ZEE	44	stimuli_distractor_diamondtriangles.svg	stimuli_target_diamondsquares.svg	32	yes	57	0	872
6.6.1	mac	2022-12-23	11:23:16	11:27:16	238781	6111b27e123039e968795ea8	863965372	1	main_z	7	main_z	45	stimuli_distractor_diamondtriangles.svg	stimuli_distractor_trianglediamonds.svg	37	no	0	1	2000
6.6.1	mac	2022-12-23	11:23:16	11:27:16	238781	6111b27e123039e968795ea8	863965372	1	main_z	7	advance_on_keypress_ZEE	46	stimuli_distractor_diamondtriangles.svg	stimuli_distractor_trianglediamonds.svg	37	no	57	0	548
6.6.1	mac	2022-12-23	11:23:16	11:27:18	240652	6111b27e123039e968795ea8	863965372	1	main_z	7	main_z	47	stimuli_target_trianglesquares.svg	stimuli_distractor_trianglediamonds.svg	18	yes	44	1	685
6.6.1	mac	2022-12-23	11:23:16	11:27:18	240652	6111b27e123039e968795ea8	863965372	1	main_z	7	advance_on_keypress_ZEE	48	stimuli_target_trianglesquares.svg	stimuli_distractor_trianglediamonds.svg	18	yes	57	0	1185
6.6.1	mac	2022-12-23	11:23:16	11:27:22	244465	6111b27e123039e968795ea8	863965372	1	main_z	7	main_z	49	stimuli_target_squarediamonds.svg	stimuli_distractor_trianglediamonds.svg	4	yes	0	0	2000
6.6.1	mac	2022-12-23	11:23:16	11:27:22	244465	6111b27e123039e968795ea8	863965372	1	main_z	7	advance_on_keypress_ZEE	50	stimuli_target_squarediamonds.svg	stimuli_distractor_trianglediamonds.svg	4	yes	57	0	616
6.6.1	mac	2022-12-23	11:23:16	11:27:25	247715	6111b27e123039e968795ea8	863965372	1	main_z	7	main_z	51	stimuli_distractor_trianglediamonds.svg	stimuli_distractor_diamondtriangles.svg	36	no	0	1	2000
6.6.1	mac	2022-12-23	11:23:16	11:27:25	247715	6111b27e123039e968795ea8	863965372	1	main_z	7	advance_on_keypress_ZEE	52	stimuli_distractor_trianglediamonds.svg	stimuli_distractor_diamondtriangles.svg	36	no	57	0	301
6.6.1	mac	2022-12-23	11:23:16	11:27:27	249244	6111b27e123039e968795ea8	863965372	1	main_z	7	main_z	53	stimuli_target_circletriangles.svg	stimuli_distractor_diamondtriangles.svg	5	yes	44	1	593
6.6.1	mac	2022-12-23	11:23:16	11:27:27	249244	6111b27e123039e968795ea8	863965372	1	main_z	7	advance_on_keypress_ZEE	54	stimuli_target_circletriangles.svg	stimuli_distractor_diamondtriangles.svg	5	yes	57	0	906
6.6.1	mac	2022-12-23	11:23:16	11:27:30	252766	6111b27e123039e968795ea8	863965372	1	main_z	7	main_z	55	stimuli_distractor_diamondtriangles.svg	stimuli_distractor_trianglediamonds.svg	38	no	0	1	2000
6.6.1	mac	2022-12-23	11:23:16	11:27:30	252766	6111b27e123039e968795ea8	863965372	1	main_z	7	advance_on_keypress_ZEE	56	stimuli_distractor_diamondtriangles.svg	stimuli_distractor_trianglediamonds.svg	38	no	57	0	306
6.6.1	mac	2022-12-23	11:23:16	11:27:32	254412	6111b27e123039e968795ea8	863965372	1	main_z	7	main_z	57	stimuli_target_trianglesquares.svg	stimuli_distractor_diamondtriangles.svg	22	yes	44	1	710
6.6.1	mac	2022-12-23	11:23:16	11:27:32	254412	6111b27e123039e968795ea8	863965372	1	main_z	7	advance_on_keypress_ZEE	58	stimuli_target_trianglesquares.svg	stimuli_distractor_diamondtriangles.svg	22	yes	57	0	1194
6.6.1	mac	2022-12-23	11:23:16	11:27:34	257164	6111b27e123039e968795ea8	863965372	1	main_z	7	main_z	59	stimuli_distractor_diamondtriangles.svg	stimuli_target_squaretriangles.svg	15	yes	44	1	946
6.6.1	mac	2022-12-23	11:23:16	11:27:34	257164	6111b27e123039e968795ea8	863965372	1	main_z	7	advance_on_keypress_ZEE	60	stimuli_distractor_diamondtriangles.svg	stimuli_target_squaretriangles.svg	15	yes	57	0	1178
6.6.1	mac	2022-12-23	11:23:16	11:27:38	260984	6111b27e123039e968795ea8	863965372	1	main_z	7	main_z	61	stimuli_target_diamondsquares.svg	stimuli_distractor_trianglediamonds.svg	20	yes	0	0	2000
6.6.1	mac	2022-12-23	11:23:16	11:27:38	260984	6111b27e123039e968795ea8	863965372	1	main_z	7	advance_on_keypress_ZEE	62	stimuli_target_diamondsquares.svg	stimuli_distractor_trianglediamonds.svg	20	yes	57	0	593
6.6.1	mac	2022-12-23	11:23:16	11:27:41	263212	6111b27e123039e968795ea8	863965372	1	main_z	7	main_z	63	stimuli_distractor_trianglediamonds.svg	stimuli_target_squaretriangles.svg	11	yes	44	1	1010
6.6.1	mac	2022-12-23	11:23:16	11:27:41	263212	6111b27e123039e968795ea8	863965372	1	main_z	7	advance_on_keypress_ZEE	64	stimuli_distractor_trianglediamonds.svg	stimuli_target_squaretriangles.svg	11	yes	57	0	977
6.6.1	mac	2022-12-23	11:23:16	11:27:43	265532	6111b27e123039e968795ea8	863965372	1	main_z	7	main_z	65	stimuli_target_squaretriangles.svg	stimuli_distractor_diamondtriangles.svg	7	yes	44	1	730
6.6.1	mac	2022-12-23	11:23:16	11:27:43	265532	6111b27e123039e968795ea8	863965372	1	main_z	7	advance_on_keypress_ZEE	66	stimuli_target_squaretriangles.svg	stimuli_distractor_diamondtriangles.svg	7	yes	57	0	1010
6.6.1	mac	2022-12-23	11:23:16	11:27:47	269168	6111b27e123039e968795ea8	863965372	1	main_z	7	main_z	67	stimuli_distractor_trianglediamonds.svg	stimuli_distractor_trianglediamonds.svg	33	no	0	1	2000
6.6.1	mac	2022-12-23	11:23:16	11:27:47	269168	6111b27e123039e968795ea8	863965372	1	main_z	7	advance_on_keypress_ZEE	68	stimuli_distractor_trianglediamonds.svg	stimuli_distractor_trianglediamonds.svg	33	no	57	0	528
6.6.1	mac	2022-12-23	11:23:16	11:27:50	272335	6111b27e123039e968795ea8	863965372	1	main_z	7	main_z	69	stimuli_distractor_trianglediamonds.svg	stimuli_distractor_diamondtriangles.svg	35	no	0	1	2000
6.6.1	mac	2022-12-23	11:23:16	11:27:50	272335	6111b27e123039e968795ea8	863965372	1	main_z	7	advance_on_keypress_ZEE	70	stimuli_distractor_trianglediamonds.svg	stimuli_distractor_diamondtriangles.svg	35	no	57	0	458
6.6.1	mac	2022-12-23	11:23:16	11:27:51	274060	6111b27e123039e968795ea8	863965372	1	main_z	7	main_z	71	stimuli_target_circletriangles.svg	stimuli_distractor_trianglediamonds.svg	1	yes	44	1	640
6.6.1	mac	2022-12-23	11:23:16	11:27:51	274060	6111b27e123039e968795ea8	863965372	1	main_z	7	advance_on_keypress_ZEE	72	stimuli_target_circletriangles.svg	stimuli_distractor_trianglediamonds.svg	1	yes	57	0	1358
6.6.1	mac	2022-12-23	11:23:16	11:27:54	276772	6111b27e123039e968795ea8	863965372	1	main_z	7	main_z	73	stimuli_distractor_diamondtriangles.svg	stimuli_target_circlediamonds.svg	14	yes	44	1	735
6.6.1	mac	2022-12-23	11:23:16	11:27:54	276772	6111b27e123039e968795ea8	863965372	1	main_z	7	advance_on_keypress_ZEE	74	stimuli_distractor_diamondtriangles.svg	stimuli_target_circlediamonds.svg	14	yes	57	0	1127
6.6.1	mac	2022-12-23	11:23:16	11:27:57	279204	6111b27e123039e968795ea8	863965372	1	main_z	7	main_z	75	stimuli_distractor_diamondtriangles.svg	stimuli_target_trianglecircles.svg	29	yes	44	1	666
6.6.1	mac	2022-12-23	11:23:16	11:27:57	279204	6111b27e123039e968795ea8	863965372	1	main_z	7	advance_on_keypress_ZEE	76	stimuli_distractor_diamondtriangles.svg	stimuli_target_trianglecircles.svg	29	yes	57	0	1238
6.6.1	mac	2022-12-23	11:23:16	11:27:59	282084	6111b27e123039e968795ea8	863965372	1	main_z	7	main_z	77	stimuli_distractor_trianglediamonds.svg	stimuli_target_trianglesquares.svg	26	yes	44	1	1012
6.6.1	mac	2022-12-23	11:23:16	11:27:59	282084	6111b27e123039e968795ea8	863965372	1	main_z	7	advance_on_keypress_ZEE	78	stimuli_distractor_trianglediamonds.svg	stimuli_target_trianglesquares.svg	26	yes	57	0	1419
6.6.1	mac	2022-12-23	11:23:16	11:28:02	284892	6111b27e123039e968795ea8	863965372	1	main_z	7	main_z	79	stimuli_target_diamondcircles.svg	stimuli_distractor_diamondtriangles.svg	23	yes	44	1	753
6.6.1	mac	2022-12-23	11:23:16	11:28:02	284892	6111b27e123039e968795ea8	863965372	1	main_z	7	advance_on_keypress_ZEE	80	stimuli_target_diamondcircles.svg	stimuli_distractor_diamondtriangles.svg	23	yes	57	0	891
6.6.1	mac	2022-12-23	11:23:16	11:28:04	287036	6111b27e123039e968795ea8	863965372	1	main_z	7	main_z	81	stimuli_target_diamondcircles.svg	stimuli_distractor_diamondtriangles.svg	23	yes	44	1	630
6.6.1	mac	2022-12-23	11:23:16	11:28:04	287036	6111b27e123039e968795ea8	863965372	1	main_z	7	advance_on_keypress_ZEE	82	stimuli_target_diamondcircles.svg	stimuli_distractor_diamondtriangles.svg	23	yes	57	0	979
6.6.1	mac	2022-12-23	11:23:16	11:28:07	289628	6111b27e123039e968795ea8	863965372	1	main_z	7	main_z	83	stimuli_distractor_diamondtriangles.svg	stimuli_target_circletriangles.svg	13	yes	44	1	972
6.6.1	mac	2022-12-23	11:23:16	11:28:07	289628	6111b27e123039e968795ea8	863965372	1	main_z	7	advance_on_keypress_ZEE	84	stimuli_distractor_diamondtriangles.svg	stimuli_target_circletriangles.svg	13	yes	57	0	885
6.6.1	mac	2022-12-23	11:23:16	11:28:09	291836	6111b27e123039e968795ea8	863965372	1	main_z	7	main_z	85	stimuli_distractor_trianglediamonds.svg	stimuli_target_trianglecircles.svg	25	yes	44	1	696
6.6.1	mac	2022-12-23	11:23:16	11:28:09	291836	6111b27e123039e968795ea8	863965372	1	main_z	7	advance_on_keypress_ZEE	86	stimuli_distractor_trianglediamonds.svg	stimuli_target_trianglecircles.svg	25	yes	57	0	811
6.6.1	mac	2022-12-23	11:23:16	11:28:11	293908	6111b27e123039e968795ea8	863965372	1	main_z	7	main_z	87	stimuli_target_circlediamonds.svg	stimuli_distractor_diamondtriangles.svg	6	yes	44	1	618
6.6.1	mac	2022-12-23	11:23:16	11:28:11	293908	6111b27e123039e968795ea8	863965372	1	main_z	7	advance_on_keypress_ZEE	88	stimuli_target_circlediamonds.svg	stimuli_distractor_diamondtriangles.svg	6	yes	57	0	761
6.6.1	mac	2022-12-23	11:23:16	11:28:13	295940	6111b27e123039e968795ea8	863965372	1	main_z	7	main_z	89	stimuli_distractor_diamondtriangles.svg	stimuli_target_trianglecircles.svg	29	yes	44	1	651
6.6.1	mac	2022-12-23	11:23:16	11:28:13	295940	6111b27e123039e968795ea8	863965372	1	main_z	7	advance_on_keypress_ZEE	90	stimuli_distractor_diamondtriangles.svg	stimuli_target_trianglecircles.svg	29	yes	57	0	1055
6.6.1	mac	2022-12-23	11:23:16	11:28:16	298500	6111b27e123039e968795ea8	863965372	1	main_z	7	main_z	91	stimuli_target_circlediamonds.svg	stimuli_distractor_trianglediamonds.svg	2	yes	44	1	877
6.6.1	mac	2022-12-23	11:23:16	11:28:16	298500	6111b27e123039e968795ea8	863965372	1	main_z	7	advance_on_keypress_ZEE	92	stimuli_target_circlediamonds.svg	stimuli_distractor_trianglediamonds.svg	2	yes	57	0	825
6.6.1	mac	2022-12-23	11:23:16	11:28:18	300564	6111b27e123039e968795ea8	863965372	1	main_z	7	main_z	93	stimuli_distractor_diamondtriangles.svg	stimuli_target_diamondcircles.svg	31	yes	44	1	624
6.6.1	mac	2022-12-23	11:23:16	11:28:18	300564	6111b27e123039e968795ea8	863965372	1	main_z	7	advance_on_keypress_ZEE	94	stimuli_distractor_diamondtriangles.svg	stimuli_target_diamondcircles.svg	31	yes	57	0	774
6.6.1	mac	2022-12-23	11:23:16	11:28:20	302564	6111b27e123039e968795ea8	863965372	1	main_z	7	main_z	95	stimuli_target_diamondcircles.svg	stimuli_distractor_trianglediamonds.svg	19	yes	44	1	607
6.6.1	mac	2022-12-23	11:23:16	11:28:20	302564	6111b27e123039e968795ea8	863965372	1	main_z	7	advance_on_keypress_ZEE	96	stimuli_target_diamondcircles.svg	stimuli_distractor_trianglediamonds.svg	19	yes	57	0	902
6.6.1	mac	2022-12-23	11:23:16	11:28:22	304732	6111b27e123039e968795ea8	863965372	1	main_z	7	main_z	97	stimuli_target_circletriangles.svg	stimuli_distractor_diamondtriangles.svg	5	yes	44	1	641
6.6.1	mac	2022-12-23	11:23:16	11:28:22	304732	6111b27e123039e968795ea8	863965372	1	main_z	7	advance_on_keypress_ZEE	98	stimuli_target_circletriangles.svg	stimuli_distractor_diamondtriangles.svg	5	yes	57	0	982
6.6.1	mac	2022-12-23	11:23:16	11:28:25	307244	6111b27e123039e968795ea8	863965372	1	main_z	7	main_z	99	stimuli_target_diamondsquares.svg	stimuli_distractor_trianglediamonds.svg	20	yes	44	1	902
6.6.1	mac	2022-12-23	11:23:16	11:28:25	307244	6111b27e123039e968795ea8	863965372	1	main_z	7	advance_on_keypress_ZEE	100	stimuli_target_diamondsquares.svg	stimuli_distractor_trianglediamonds.svg	20	yes	57	0	1026
6.6.1	mac	2022-12-23	11:23:16	11:28:27	309972	6111b27e123039e968795ea8	863965372	1	main_z	7	main_z	101	stimuli_distractor_trianglediamonds.svg	stimuli_target_circletriangles.svg	9	yes	44	1	1081
6.6.1	mac	2022-12-23	11:23:16	11:28:27	309972	6111b27e123039e968795ea8	863965372	1	main_z	7	advance_on_keypress_ZEE	102	stimuli_distractor_trianglediamonds.svg	stimuli_target_circletriangles.svg	9	yes	57	0	987
6.6.1	mac	2022-12-23	11:23:16	11:28:30	312212	6111b27e123039e968795ea8	863965372	1	main_z	7	main_z	103	stimuli_target_squarediamonds.svg	stimuli_distractor_trianglediamonds.svg	4	yes	44	1	620
6.6.1	mac	2022-12-23	11:23:16	11:28:30	312212	6111b27e123039e968795ea8	863965372	1	main_z	7	advance_on_keypress_ZEE	104	stimuli_target_squarediamonds.svg	stimuli_distractor_trianglediamonds.svg	4	yes	57	0	667
6.6.1	mac	2022-12-23	11:23:16	11:28:33	315507	6111b27e123039e968795ea8	863965372	1	main_z	7	main_z	105	stimuli_distractor_diamondtriangles.svg	stimuli_distractor_trianglediamonds.svg	38	no	0	1	2000
6.6.1	mac	2022-12-23	11:23:16	11:28:33	315507	6111b27e123039e968795ea8	863965372	1	main_z	7	advance_on_keypress_ZEE	106	stimuli_distractor_diamondtriangles.svg	stimuli_distractor_trianglediamonds.svg	38	no	57	0	286
6.6.1	mac	2022-12-23	11:23:16	11:28:36	318423	6111b27e123039e968795ea8	863965372	1	main_z	7	main_z	107	stimuli_distractor_trianglediamonds.svg	stimuli_distractor_trianglediamonds.svg	34	no	0	1	2000
6.6.1	mac	2022-12-23	11:23:16	11:28:36	318423	6111b27e123039e968795ea8	863965372	1	main_z	7	advance_on_keypress_ZEE	108	stimuli_distractor_trianglediamonds.svg	stimuli_distractor_trianglediamonds.svg	34	no	57	0	288
6.6.1	mac	2022-12-23	11:23:16	11:28:37	319972	6111b27e123039e968795ea8	863965372	1	main_z	7	main_z	109	stimuli_distractor_diamondtriangles.svg	stimuli_target_circlediamonds.svg	14	yes	44	1	629
6.6.1	mac	2022-12-23	11:23:16	11:28:37	319972	6111b27e123039e968795ea8	863965372	1	main_z	7	advance_on_keypress_ZEE	110	stimuli_distractor_diamondtriangles.svg	stimuli_target_circlediamonds.svg	14	yes	57	0	826
6.6.1	mac	2022-12-23	11:23:16	11:28:40	322292	6111b27e123039e968795ea8	863965372	1	main_z	7	main_z	111	stimuli_distractor_diamondtriangles.svg	stimuli_target_diamondsquares.svg	32	yes	44	1	866
6.6.1	mac	2022-12-23	11:23:16	11:28:40	322292	6111b27e123039e968795ea8	863965372	1	main_z	7	advance_on_keypress_ZEE	112	stimuli_distractor_diamondtriangles.svg	stimuli_target_diamondsquares.svg	32	yes	57	0	902
6.6.1	mac	2022-12-23	11:23:16	11:28:43	325824	6111b27e123039e968795ea8	863965372	1	main_z	7	main_z	113	stimuli_distractor_trianglediamonds.svg	stimuli_distractor_diamondtriangles.svg	36	no	0	1	2000
6.6.1	mac	2022-12-23	11:23:16	11:28:43	325824	6111b27e123039e968795ea8	863965372	1	main_z	7	advance_on_keypress_ZEE	114	stimuli_distractor_trianglediamonds.svg	stimuli_distractor_diamondtriangles.svg	36	no	57	0	287
6.6.1	mac	2022-12-23	11:23:16	11:28:45	327252	6111b27e123039e968795ea8	863965372	1	main_z	7	main_z	115	stimuli_target_circletriangles.svg	stimuli_distractor_trianglediamonds.svg	1	yes	44	1	508
6.6.1	mac	2022-12-23	11:23:16	11:28:45	327252	6111b27e123039e968795ea8	863965372	1	main_z	7	advance_on_keypress_ZEE	116	stimuli_target_circletriangles.svg	stimuli_distractor_trianglediamonds.svg	1	yes	57	0	2328
6.6.1	mac	2022-12-23	11:23:16	11:28:48	330836	6111b27e123039e968795ea8	863965372	1	main_z	7	main_z	117	stimuli_target_squarediamonds.svg	stimuli_distractor_diamondtriangles.svg	8	yes	44	1	642
6.6.1	mac	2022-12-23	11:23:16	11:28:48	330836	6111b27e123039e968795ea8	863965372	1	main_z	7	advance_on_keypress_ZEE	118	stimuli_target_squarediamonds.svg	stimuli_distractor_diamondtriangles.svg	8	yes	57	0	856
6.6.1	mac	2022-12-23	11:23:16	11:28:52	334308	6111b27e123039e968795ea8	863965372	1	main_z	7	main_z	119	stimuli_distractor_trianglediamonds.svg	stimuli_distractor_trianglediamonds.svg	33	no	0	1	2000
6.6.1	mac	2022-12-23	11:23:16	11:28:52	334308	6111b27e123039e968795ea8	863965372	1	main_z	7	advance_on_keypress_ZEE	120	stimuli_distractor_trianglediamonds.svg	stimuli_distractor_trianglediamonds.svg	33	no	57	0	452
6.6.1	mac	2022-12-23	11:23:16	11:28:53	336028	6111b27e123039e968795ea8	863965372	1	main_z	7	main_z	121	stimuli_distractor_trianglediamonds.svg	stimuli_target_diamondcircles.svg	27	yes	44	1	633
6.6.1	mac	2022-12-23	11:23:16	11:28:53	336028	6111b27e123039e968795ea8	863965372	1	main_z	7	advance_on_keypress_ZEE	122	stimuli_distractor_trianglediamonds.svg	stimuli_target_diamondcircles.svg	27	yes	57	0	3078
6.6.1	mac	2022-12-23	11:23:16	11:28:58	340324	6111b27e123039e968795ea8	863965372	1	main_z	7	main_z	123	stimuli_distractor_diamondtriangles.svg	stimuli_target_squarediamonds.svg	16	yes	44	1	578
6.6.1	mac	2022-12-23	11:23:16	11:28:58	340324	6111b27e123039e968795ea8	863965372	1	main_z	7	advance_on_keypress_ZEE	124	stimuli_distractor_diamondtriangles.svg	stimuli_target_squarediamonds.svg	16	yes	57	0	866
6.6.1	mac	2022-12-23	11:23:16	11:29:01	343196	6111b27e123039e968795ea8	863965372	1	main_z	7	main_z	125	stimuli_target_diamondsquares.svg	stimuli_distractor_diamondtriangles.svg	24	yes	44	1	1367
6.6.1	mac	2022-12-23	11:23:16	11:29:01	343196	6111b27e123039e968795ea8	863965372	1	main_z	7	advance_on_keypress_ZEE	126	stimuli_target_diamondsquares.svg	stimuli_distractor_diamondtriangles.svg	24	yes	57	0	719
6.6.1	mac	2022-12-23	11:23:16	11:29:03	345204	6111b27e123039e968795ea8	863965372	1	main_z	7	main_z	127	stimuli_distractor_trianglediamonds.svg	stimuli_target_trianglesquares.svg	26	yes	44	1	658
6.6.1	mac	2022-12-23	11:23:16	11:29:03	345204	6111b27e123039e968795ea8	863965372	1	main_z	7	advance_on_keypress_ZEE	128	stimuli_distractor_trianglediamonds.svg	stimuli_target_trianglesquares.svg	26	yes	57	0	848
6.6.1	mac	2022-12-23	11:23:16	11:29:05	347308	6111b27e123039e968795ea8	863965372	1	main_z	7	main_z	129	stimuli_target_trianglesquares.svg	stimuli_distractor_diamondtriangles.svg	22	yes	44	1	628
6.6.1	mac	2022-12-23	11:23:16	11:29:05	347308	6111b27e123039e968795ea8	863965372	1	main_z	7	advance_on_keypress_ZEE	130	stimuli_target_trianglesquares.svg	stimuli_distractor_diamondtriangles.svg	22	yes	57	0	505
6.6.1	mac	2022-12-23	11:23:16	11:29:06	348892	6111b27e123039e968795ea8	863965372	1	main_z	7	main_z	131	stimuli_target_squaretriangles.svg	stimuli_distractor_diamondtriangles.svg	7	yes	44	1	445
6.6.1	mac	2022-12-23	11:23:16	11:29:06	348892	6111b27e123039e968795ea8	863965372	1	main_z	7	advance_on_keypress_ZEE	132	stimuli_target_squaretriangles.svg	stimuli_distractor_diamondtriangles.svg	7	yes	57	0	474
6.6.1	mac	2022-12-23	11:23:16	11:29:09	351995	6111b27e123039e968795ea8	863965372	1	main_z	7	main_z	133	stimuli_distractor_diamondtriangles.svg	stimuli_distractor_diamondtriangles.svg	40	no	0	1	2000
6.6.1	mac	2022-12-23	11:23:16	11:29:09	351995	6111b27e123039e968795ea8	863965372	1	main_z	7	advance_on_keypress_ZEE	134	stimuli_distractor_diamondtriangles.svg	stimuli_distractor_diamondtriangles.svg	40	no	57	0	485
6.6.1	mac	2022-12-23	11:23:16	11:29:11	353668	6111b27e123039e968795ea8	863965372	1	main_z	7	main_z	135	stimuli_distractor_trianglediamonds.svg	stimuli_target_squaretriangles.svg	11	yes	44	1	554
6.6.1	mac	2022-12-23	11:23:16	11:29:11	353668	6111b27e123039e968795ea8	863965372	1	main_z	7	advance_on_keypress_ZEE	136	stimuli_distractor_trianglediamonds.svg	stimuli_target_squaretriangles.svg	11	yes	57	0	618
6.6.1	mac	2022-12-23	11:23:16	11:29:13	355508	6111b27e123039e968795ea8	863965372	1	main_z	7	main_z	137	stimuli_target_squaretriangles.svg	stimuli_distractor_trianglediamonds.svg	3	yes	44	1	595
6.6.1	mac	2022-12-23	11:23:16	11:29:13	355508	6111b27e123039e968795ea8	863965372	1	main_z	7	advance_on_keypress_ZEE	138	stimuli_target_squaretriangles.svg	stimuli_distractor_trianglediamonds.svg	3	yes	57	0	1075
6.6.1	mac	2022-12-23	11:23:16	11:29:15	357828	6111b27e123039e968795ea8	863965372	1	main_z	7	main_z	139	stimuli_distractor_diamondtriangles.svg	stimuli_target_trianglesquares.svg	30	yes	44	1	631
6.6.1	mac	2022-12-23	11:23:16	11:29:15	357828	6111b27e123039e968795ea8	863965372	1	main_z	7	advance_on_keypress_ZEE	140	stimuli_distractor_diamondtriangles.svg	stimuli_target_trianglesquares.svg	30	yes	57	0	1275
6.6.1	mac	2022-12-23	11:23:16	11:29:19	361729	6111b27e123039e968795ea8	863965372	1	main_z	7	main_z	141	stimuli_distractor_diamondtriangles.svg	stimuli_distractor_trianglediamonds.svg	37	no	0	1	2000
6.6.1	mac	2022-12-23	11:23:16	11:29:19	361729	6111b27e123039e968795ea8	863965372	1	main_z	7	advance_on_keypress_ZEE	142	stimuli_distractor_diamondtriangles.svg	stimuli_distractor_trianglediamonds.svg	37	no	57	0	543
6.6.1	mac	2022-12-23	11:23:16	11:29:21	363460	6111b27e123039e968795ea8	863965372	1	main_z	7	main_z	143	stimuli_distractor_trianglediamonds.svg	stimuli_target_circlediamonds.svg	10	yes	44	1	562
6.6.1	mac	2022-12-23	11:23:16	11:29:21	363460	6111b27e123039e968795ea8	863965372	1	main_z	7	advance_on_keypress_ZEE	144	stimuli_distractor_trianglediamonds.svg	stimuli_target_circlediamonds.svg	10	yes	57	0	961
6.6.1	mac	2022-12-23	11:23:16	11:29:23	365732	6111b27e123039e968795ea8	863965372	1	main_z	7	main_z	145	stimuli_target_trianglecircles.svg	stimuli_distractor_trianglediamonds.svg	17	yes	44	1	667
6.6.1	mac	2022-12-23	11:23:16	11:29:23	365732	6111b27e123039e968795ea8	863965372	1	main_z	7	advance_on_keypress_ZEE	146	stimuli_target_trianglecircles.svg	stimuli_distractor_trianglediamonds.svg	17	yes	57	0	759
6.6.1	mac	2022-12-23	11:23:16	11:29:26	369114	6111b27e123039e968795ea8	863965372	1	main_z	7	main_z	147	stimuli_distractor_trianglediamonds.svg	stimuli_distractor_diamondtriangles.svg	35	no	0	1	2000
6.6.1	mac	2022-12-23	11:23:16	11:29:26	369114	6111b27e123039e968795ea8	863965372	1	main_z	7	advance_on_keypress_ZEE	148	stimuli_distractor_trianglediamonds.svg	stimuli_distractor_diamondtriangles.svg	35	no	57	0	615
6.6.1	mac	2022-12-23	11:23:16	11:29:28	370956	6111b27e123039e968795ea8	863965372	1	main_z	7	main_z	149	stimuli_target_trianglecircles.svg	stimuli_distractor_diamondtriangles.svg	21	yes	44	1	590
6.6.1	mac	2022-12-23	11:23:16	11:29:28	370956	6111b27e123039e968795ea8	863965372	1	main_z	7	advance_on_keypress_ZEE	150	stimuli_target_trianglecircles.svg	stimuli_distractor_diamondtriangles.svg	21	yes	57	0	750
6.6.1	mac	2022-12-23	11:23:16	11:29:32	374331	6111b27e123039e968795ea8	863965372	1	main_z	7	main_z	151	stimuli_distractor_diamondtriangles.svg	stimuli_distractor_diamondtriangles.svg	39	no	0	1	2000
6.6.1	mac	2022-12-23	11:23:16	11:29:32	374331	6111b27e123039e968795ea8	863965372	1	main_z	7	advance_on_keypress_ZEE	152	stimuli_distractor_diamondtriangles.svg	stimuli_distractor_diamondtriangles.svg	39	no	57	0	293
6.6.1	mac	2022-12-23	11:23:16	11:29:33	375908	6111b27e123039e968795ea8	863965372	1	main_z	7	main_z	153	stimuli_target_trianglesquares.svg	stimuli_distractor_trianglediamonds.svg	18	yes	44	1	658
6.6.1	mac	2022-12-23	11:23:16	11:29:33	375908	6111b27e123039e968795ea8	863965372	1	main_z	7	advance_on_keypress_ZEE	154	stimuli_target_trianglesquares.svg	stimuli_distractor_trianglediamonds.svg	18	yes	57	0	600
6.6.1	mac	2022-12-23	11:23:16	11:29:35	377836	6111b27e123039e968795ea8	863965372	1	main_z	7	main_z	155	stimuli_distractor_trianglediamonds.svg	stimuli_target_squarediamonds.svg	12	yes	44	1	702
6.6.1	mac	2022-12-23	11:23:16	11:29:35	377836	6111b27e123039e968795ea8	863965372	1	main_z	7	advance_on_keypress_ZEE	156	stimuli_distractor_trianglediamonds.svg	stimuli_target_squarediamonds.svg	12	yes	57	0	466
6.6.1	mac	2022-12-23	11:23:16	11:29:37	379596	6111b27e123039e968795ea8	863965372	1	main_z	7	main_z	157	stimuli_distractor_trianglediamonds.svg	stimuli_target_diamondsquares.svg	28	yes	44	1	662
6.6.1	mac	2022-12-23	11:23:16	11:29:37	379596	6111b27e123039e968795ea8	863965372	1	main_z	7	advance_on_keypress_ZEE	158	stimuli_distractor_trianglediamonds.svg	stimuli_target_diamondsquares.svg	28	yes	57	0	659
6.6.1	mac	2022-12-23	11:23:16	11:29:39	381556	6111b27e123039e968795ea8	863965372	1	main_z	7	main_z	159	stimuli_distractor_diamondtriangles.svg	stimuli_target_squaretriangles.svg	15	yes	44	1	672
6.6.1	mac	2022-12-23	11:23:16	11:29:39	381556	6111b27e123039e968795ea8	863965372	1	main_z	7	advance_on_keypress_ZEE	160	stimuli_distractor_diamondtriangles.svg	stimuli_target_squaretriangles.svg	15	yes	57	0	693
6.6.1	mac	2022-12-23	11:23:16	11:29:58	401157	6111b27e123039e968795ea8	863965372	1	practice_slash	9	practice_slash	1	stimuli_distractor_diamondtriangles.svg	stimuli_target_trianglecircles.svg	9	yes	53	1	636
6.6.1	mac	2022-12-23	11:23:16	11:29:58	401157	6111b27e123039e968795ea8	863965372	1	practice_slash	9	advance_on_keypress_SLASH	2	stimuli_distractor_diamondtriangles.svg	stimuli_target_trianglecircles.svg	9	yes	57	0	442
6.6.1	mac	2022-12-23	11:23:16	11:30:02	404181	6111b27e123039e968795ea8	863965372	1	practice_slash	9	practice_slash	3	stimuli_target_diamondsquares.svg	stimuli_distractor_diamondtriangles.svg	3	yes	53	1	960
6.6.1	mac	2022-12-23	11:23:16	11:30:02	404181	6111b27e123039e968795ea8	863965372	1	practice_slash	9	advance_on_keypress_SLASH	4	stimuli_target_diamondsquares.svg	stimuli_distractor_diamondtriangles.svg	3	yes	57	0	418
6.6.1	mac	2022-12-23	11:23:16	11:30:05	407284	6111b27e123039e968795ea8	863965372	1	practice_slash	9	practice_slash	5	stimuli_target_circlediamonds.svg	stimuli_distractor_trianglediamonds.svg	4	yes	53	1	1065
6.6.1	mac	2022-12-23	11:23:16	11:30:05	407284	6111b27e123039e968795ea8	863965372	1	practice_slash	9	advance_on_keypress_SLASH	6	stimuli_target_circlediamonds.svg	stimuli_distractor_trianglediamonds.svg	4	yes	57	0	371
6.6.1	mac	2022-12-23	11:23:16	11:30:07	410045	6111b27e123039e968795ea8	863965372	1	practice_slash	9	practice_slash	7	stimuli_distractor_diamondtriangles.svg	stimuli_target_diamondcircles.svg	8	yes	53	1	758
6.6.1	mac	2022-12-23	11:23:16	11:30:07	410045	6111b27e123039e968795ea8	863965372	1	practice_slash	9	advance_on_keypress_SLASH	8	stimuli_distractor_diamondtriangles.svg	stimuli_target_diamondcircles.svg	8	yes	57	0	438
6.6.1	mac	2022-12-23	11:23:16	11:30:10	412645	6111b27e123039e968795ea8	863965372	1	practice_slash	9	practice_slash	9	stimuli_distractor_trianglediamonds.svg	stimuli_target_circlediamonds.svg	10	yes	53	1	540
6.6.1	mac	2022-12-23	11:23:16	11:30:10	412645	6111b27e123039e968795ea8	863965372	1	practice_slash	9	advance_on_keypress_SLASH	10	stimuli_distractor_trianglediamonds.svg	stimuli_target_circlediamonds.svg	10	yes	57	0	566
6.6.1	mac	2022-12-23	11:23:16	11:30:14	416836	6111b27e123039e968795ea8	863965372	1	practice_slash	9	practice_slash	11	stimuli_distractor_diamondtriangles.svg	stimuli_distractor_diamondtriangles.svg	13	no	0	1	2000
6.6.1	mac	2022-12-23	11:23:16	11:30:14	416836	6111b27e123039e968795ea8	863965372	1	practice_slash	9	advance_on_keypress_SLASH	12	stimuli_distractor_diamondtriangles.svg	stimuli_distractor_diamondtriangles.svg	13	no	57	0	260
6.6.1	mac	2022-12-23	11:23:16	11:30:17	419277	6111b27e123039e968795ea8	863965372	1	practice_slash	9	practice_slash	13	stimuli_distractor_trianglediamonds.svg	stimuli_target_diamondcircles.svg	12	yes	53	1	537
6.6.1	mac	2022-12-23	11:23:16	11:30:17	419277	6111b27e123039e968795ea8	863965372	1	practice_slash	9	advance_on_keypress_SLASH	14	stimuli_distractor_trianglediamonds.svg	stimuli_target_diamondcircles.svg	12	yes	57	0	267
6.6.1	mac	2022-12-23	11:23:16	11:30:19	421828	6111b27e123039e968795ea8	863965372	1	practice_slash	9	practice_slash	15	stimuli_target_diamondsquares.svg	stimuli_distractor_trianglediamonds.svg	6	yes	53	1	656
6.6.1	mac	2022-12-23	11:23:16	11:30:19	421828	6111b27e123039e968795ea8	863965372	1	practice_slash	9	advance_on_keypress_SLASH	16	stimuli_target_diamondsquares.svg	stimuli_distractor_trianglediamonds.svg	6	yes	57	0	309
6.6.1	mac	2022-12-23	11:23:16	11:30:22	424309	6111b27e123039e968795ea8	863965372	1	practice_slash	9	practice_slash	17	stimuli_distractor_diamondtriangles.svg	stimuli_target_circletriangles.svg	7	yes	53	1	552
6.6.1	mac	2022-12-23	11:23:16	11:30:22	424309	6111b27e123039e968795ea8	863965372	1	practice_slash	9	advance_on_keypress_SLASH	18	stimuli_distractor_diamondtriangles.svg	stimuli_target_circletriangles.svg	7	yes	57	0	553
6.6.1	mac	2022-12-23	11:23:16	11:30:26	428488	6111b27e123039e968795ea8	863965372	1	practice_slash	9	practice_slash	19	stimuli_distractor_diamondtriangles.svg	stimuli_distractor_trianglediamonds.svg	14	no	0	1	2000
6.6.1	mac	2022-12-23	11:23:16	11:30:26	428488	6111b27e123039e968795ea8	863965372	1	practice_slash	9	advance_on_keypress_SLASH	20	stimuli_distractor_diamondtriangles.svg	stimuli_distractor_trianglediamonds.svg	14	no	57	0	297
6.6.1	mac	2022-12-23	11:23:16	11:30:28	430957	6111b27e123039e968795ea8	863965372	1	practice_slash	9	practice_slash	21	stimuli_target_circlediamonds.svg	stimuli_distractor_diamondtriangles.svg	1	yes	53	1	533
6.6.1	mac	2022-12-23	11:23:16	11:30:28	430957	6111b27e123039e968795ea8	863965372	1	practice_slash	9	advance_on_keypress_SLASH	22	stimuli_target_circlediamonds.svg	stimuli_distractor_diamondtriangles.svg	1	yes	57	0	254
6.6.1	mac	2022-12-23	11:23:16	11:30:32	434838	6111b27e123039e968795ea8	863965372	1	practice_slash	9	practice_slash	23	stimuli_distractor_trianglediamonds.svg	stimuli_distractor_trianglediamonds.svg	15	no	0	1	2000
6.6.1	mac	2022-12-23	11:23:16	11:30:32	434838	6111b27e123039e968795ea8	863965372	1	practice_slash	9	advance_on_keypress_SLASH	24	stimuli_distractor_trianglediamonds.svg	stimuli_distractor_trianglediamonds.svg	15	no	57	0	226
6.6.1	mac	2022-12-23	11:23:16	11:30:35	437220	6111b27e123039e968795ea8	863965372	1	practice_slash	9	practice_slash	25	stimuli_target_squarediamonds.svg	stimuli_distractor_trianglediamonds.svg	5	yes	53	1	530
6.6.1	mac	2022-12-23	11:23:16	11:30:35	437220	6111b27e123039e968795ea8	863965372	1	practice_slash	9	advance_on_keypress_SLASH	26	stimuli_target_squarediamonds.svg	stimuli_distractor_trianglediamonds.svg	5	yes	57	0	251
6.6.1	mac	2022-12-23	11:23:16	11:30:38	441106	6111b27e123039e968795ea8	863965372	1	practice_slash	9	practice_slash	27	stimuli_distractor_trianglediamonds.svg	stimuli_distractor_diamondtriangles.svg	16	no	0	1	2000
6.6.1	mac	2022-12-23	11:23:16	11:30:38	441106	6111b27e123039e968795ea8	863965372	1	practice_slash	9	advance_on_keypress_SLASH	28	stimuli_distractor_trianglediamonds.svg	stimuli_distractor_diamondtriangles.svg	16	no	57	0	254
6.6.1	mac	2022-12-23	11:23:16	11:30:41	443845	6111b27e123039e968795ea8	863965372	1	practice_slash	9	practice_slash	29	stimuli_target_squarediamonds.svg	stimuli_distractor_diamondtriangles.svg	2	yes	53	1	852
6.6.1	mac	2022-12-23	11:23:16	11:30:41	443845	6111b27e123039e968795ea8	863965372	1	practice_slash	9	advance_on_keypress_SLASH	30	stimuli_target_squarediamonds.svg	stimuli_distractor_diamondtriangles.svg	2	yes	57	0	377
6.6.1	mac	2022-12-23	11:23:16	11:30:44	446444	6111b27e123039e968795ea8	863965372	1	practice_slash	9	practice_slash	31	stimuli_distractor_trianglediamonds.svg	stimuli_target_squarediamonds.svg	11	yes	53	1	603
6.6.1	mac	2022-12-23	11:23:16	11:30:44	446444	6111b27e123039e968795ea8	863965372	1	practice_slash	9	advance_on_keypress_SLASH	32	stimuli_distractor_trianglediamonds.svg	stimuli_target_squarediamonds.svg	11	yes	57	0	312
6.6.1	mac	2022-12-23	11:23:16	11:30:48	450820	6111b27e123039e968795ea8	863965372	1	main_slash	11	main_slash	1	stimuli_target_circletriangles.svg	stimuli_distractor_trianglediamonds.svg	1	yes	53	1	612
6.6.1	mac	2022-12-23	11:23:16	11:30:48	450820	6111b27e123039e968795ea8	863965372	1	main_slash	11	advance_on_keypress_SLASH	2	stimuli_target_circletriangles.svg	stimuli_distractor_trianglediamonds.svg	1	yes	57	0	1139
6.6.1	mac	2022-12-23	11:23:16	11:30:50	453052	6111b27e123039e968795ea8	863965372	1	main_slash	11	main_slash	3	stimuli_target_circletriangles.svg	stimuli_distractor_diamondtriangles.svg	5	yes	53	1	476
6.6.1	mac	2022-12-23	11:23:16	11:30:50	453052	6111b27e123039e968795ea8	863965372	1	main_slash	11	advance_on_keypress_SLASH	4	stimuli_target_circletriangles.svg	stimuli_distractor_diamondtriangles.svg	5	yes	57	0	912
6.6.1	mac	2022-12-23	11:23:16	11:30:52	455044	6111b27e123039e968795ea8	863965372	1	main_slash	11	main_slash	5	stimuli_target_circlediamonds.svg	stimuli_distractor_trianglediamonds.svg	2	yes	53	1	451
6.6.1	mac	2022-12-23	11:23:16	11:30:52	455044	6111b27e123039e968795ea8	863965372	1	main_slash	11	advance_on_keypress_SLASH	6	stimuli_target_circlediamonds.svg	stimuli_distractor_trianglediamonds.svg	2	yes	57	0	903
6.6.1	mac	2022-12-23	11:23:16	11:30:55	457420	6111b27e123039e968795ea8	863965372	1	main_slash	11	main_slash	7	stimuli_distractor_diamondtriangles.svg	stimuli_target_diamondsquares.svg	32	yes	53	1	843
6.6.1	mac	2022-12-23	11:23:16	11:30:55	457420	6111b27e123039e968795ea8	863965372	1	main_slash	11	advance_on_keypress_SLASH	8	stimuli_distractor_diamondtriangles.svg	stimuli_target_diamondsquares.svg	32	yes	57	0	610
6.6.1	mac	2022-12-23	11:23:16	11:30:57	459212	6111b27e123039e968795ea8	863965372	1	main_slash	11	main_slash	9	stimuli_target_trianglecircles.svg	stimuli_distractor_diamondtriangles.svg	21	yes	53	1	568
6.6.1	mac	2022-12-23	11:23:16	11:30:57	459212	6111b27e123039e968795ea8	863965372	1	main_slash	11	advance_on_keypress_SLASH	10	stimuli_target_trianglecircles.svg	stimuli_distractor_diamondtriangles.svg	21	yes	57	0	1144
6.6.1	mac	2022-12-23	11:23:16	11:30:59	461564	6111b27e123039e968795ea8	863965372	1	main_slash	11	main_slash	11	stimuli_target_squarediamonds.svg	stimuli_distractor_diamondtriangles.svg	8	yes	53	1	570
6.6.1	mac	2022-12-23	11:23:16	11:30:59	461564	6111b27e123039e968795ea8	863965372	1	main_slash	11	advance_on_keypress_SLASH	12	stimuli_target_squarediamonds.svg	stimuli_distractor_diamondtriangles.svg	8	yes	57	0	33746
6.6.1	mac	2022-12-23	11:23:16	11:31:34	496524	6111b27e123039e968795ea8	863965372	1	main_slash	11	main_slash	13	stimuli_distractor_diamondtriangles.svg	stimuli_distractor_trianglediamonds.svg	37	no	53	0	592
6.6.1	mac	2022-12-23	11:23:16	11:31:34	496524	6111b27e123039e968795ea8	863965372	1	main_slash	11	advance_on_keypress_SLASH	14	stimuli_distractor_diamondtriangles.svg	stimuli_distractor_trianglediamonds.svg	37	no	57	0	905
6.6.1	mac	2022-12-23	11:23:16	11:31:36	498572	6111b27e123039e968795ea8	863965372	1	main_slash	11	main_slash	15	stimuli_target_squarediamonds.svg	stimuli_distractor_trianglediamonds.svg	4	yes	53	1	524
6.6.1	mac	2022-12-23	11:23:16	11:31:36	498572	6111b27e123039e968795ea8	863965372	1	main_slash	11	advance_on_keypress_SLASH	16	stimuli_target_squarediamonds.svg	stimuli_distractor_trianglediamonds.svg	4	yes	57	0	757
6.6.1	mac	2022-12-23	11:23:16	11:31:38	500388	6111b27e123039e968795ea8	863965372	1	main_slash	11	main_slash	17	stimuli_distractor_trianglediamonds.svg	stimuli_target_diamondcircles.svg	27	yes	53	1	422
6.6.1	mac	2022-12-23	11:23:16	11:31:38	500388	6111b27e123039e968795ea8	863965372	1	main_slash	11	advance_on_keypress_SLASH	18	stimuli_distractor_trianglediamonds.svg	stimuli_target_diamondcircles.svg	27	yes	57	0	827
6.6.1	mac	2022-12-23	11:23:16	11:31:40	502268	6111b27e123039e968795ea8	863965372	1	main_slash	11	main_slash	19	stimuli_target_diamondsquares.svg	stimuli_distractor_trianglediamonds.svg	20	yes	53	1	419
6.6.1	mac	2022-12-23	11:23:16	11:31:40	502268	6111b27e123039e968795ea8	863965372	1	main_slash	11	advance_on_keypress_SLASH	20	stimuli_target_diamondsquares.svg	stimuli_distractor_trianglediamonds.svg	20	yes	57	0	769
6.6.1	mac	2022-12-23	11:23:16	11:31:43	505664	6111b27e123039e968795ea8	863965372	1	main_slash	11	main_slash	21	stimuli_distractor_diamondtriangles.svg	stimuli_distractor_diamondtriangles.svg	39	no	0	1	2000
6.6.1	mac	2022-12-23	11:23:16	11:31:43	505664	6111b27e123039e968795ea8	863965372	1	main_slash	11	advance_on_keypress_SLASH	22	stimuli_distractor_diamondtriangles.svg	stimuli_distractor_diamondtriangles.svg	39	no	57	0	296
6.6.1	mac	2022-12-23	11:23:16	11:31:44	507060	6111b27e123039e968795ea8	863965372	1	main_slash	11	main_slash	23	stimuli_distractor_diamondtriangles.svg	stimuli_target_squarediamonds.svg	16	yes	53	1	460
6.6.1	mac	2022-12-23	11:23:16	11:31:44	507060	6111b27e123039e968795ea8	863965372	1	main_slash	11	advance_on_keypress_SLASH	24	stimuli_distractor_diamondtriangles.svg	stimuli_target_squarediamonds.svg	16	yes	57	0	850
6.6.1	mac	2022-12-23	11:23:16	11:31:46	508988	6111b27e123039e968795ea8	863965372	1	main_slash	11	main_slash	25	stimuli_target_circlediamonds.svg	stimuli_distractor_diamondtriangles.svg	6	yes	53	1	455
6.6.1	mac	2022-12-23	11:23:16	11:31:46	508988	6111b27e123039e968795ea8	863965372	1	main_slash	11	advance_on_keypress_SLASH	26	stimuli_target_circlediamonds.svg	stimuli_distractor_diamondtriangles.svg	6	yes	57	0	772
6.6.1	mac	2022-12-23	11:23:16	11:31:48	510836	6111b27e123039e968795ea8	863965372	1	main_slash	11	main_slash	27	stimuli_distractor_diamondtriangles.svg	stimuli_target_circletriangles.svg	13	yes	53	1	453
6.6.1	mac	2022-12-23	11:23:16	11:31:48	510836	6111b27e123039e968795ea8	863965372	1	main_slash	11	advance_on_keypress_SLASH	28	stimuli_distractor_diamondtriangles.svg	stimuli_target_circletriangles.svg	13	yes	57	0	2361
6.6.1	mac	2022-12-23	11:23:16	11:31:52	514308	6111b27e123039e968795ea8	863965372	1	main_slash	11	main_slash	29	stimuli_target_trianglecircles.svg	stimuli_distractor_trianglediamonds.svg	17	yes	53	1	474
6.6.1	mac	2022-12-23	11:23:16	11:31:52	514308	6111b27e123039e968795ea8	863965372	1	main_slash	11	advance_on_keypress_SLASH	30	stimuli_target_trianglecircles.svg	stimuli_distractor_trianglediamonds.svg	17	yes	57	0	607
6.6.1	mac	2022-12-23	11:23:16	11:31:53	515908	6111b27e123039e968795ea8	863965372	1	main_slash	11	main_slash	31	stimuli_distractor_trianglediamonds.svg	stimuli_target_trianglesquares.svg	26	yes	53	1	375
6.6.1	mac	2022-12-23	11:23:16	11:31:53	515908	6111b27e123039e968795ea8	863965372	1	main_slash	11	advance_on_keypress_SLASH	32	stimuli_distractor_trianglediamonds.svg	stimuli_target_trianglesquares.svg	26	yes	57	0	711
6.6.1	mac	2022-12-23	11:23:16	11:31:55	517748	6111b27e123039e968795ea8	863965372	1	main_slash	11	main_slash	33	stimuli_target_diamondcircles.svg	stimuli_distractor_trianglediamonds.svg	19	yes	53	1	514
6.6.1	mac	2022-12-23	11:23:16	11:31:55	517748	6111b27e123039e968795ea8	863965372	1	main_slash	11	advance_on_keypress_SLASH	34	stimuli_target_diamondcircles.svg	stimuli_distractor_trianglediamonds.svg	19	yes	57	0	493
6.6.1	mac	2022-12-23	11:23:16	11:31:57	519284	6111b27e123039e968795ea8	863965372	1	main_slash	11	main_slash	35	stimuli_distractor_trianglediamonds.svg	stimuli_target_trianglecircles.svg	25	yes	53	1	416
6.6.1	mac	2022-12-23	11:23:16	11:31:57	519284	6111b27e123039e968795ea8	863965372	1	main_slash	11	advance_on_keypress_SLASH	36	stimuli_distractor_trianglediamonds.svg	stimuli_target_trianglecircles.svg	25	yes	57	0	926
6.6.1	mac	2022-12-23	11:23:16	11:31:59	521276	6111b27e123039e968795ea8	863965372	1	main_slash	11	main_slash	37	stimuli_target_trianglesquares.svg	stimuli_distractor_trianglediamonds.svg	18	yes	53	1	442
6.6.1	mac	2022-12-23	11:23:16	11:31:59	521276	6111b27e123039e968795ea8	863965372	1	main_slash	11	advance_on_keypress_SLASH	38	stimuli_target_trianglesquares.svg	stimuli_distractor_trianglediamonds.svg	18	yes	57	0	686
6.6.1	mac	2022-12-23	11:23:16	11:32:00	523028	6111b27e123039e968795ea8	863965372	1	main_slash	11	main_slash	39	stimuli_target_diamondsquares.svg	stimuli_distractor_diamondtriangles.svg	24	yes	53	1	426
6.6.1	mac	2022-12-23	11:23:16	11:32:00	523028	6111b27e123039e968795ea8	863965372	1	main_slash	11	advance_on_keypress_SLASH	40	stimuli_target_diamondsquares.svg	stimuli_distractor_diamondtriangles.svg	24	yes	57	0	537
6.6.1	mac	2022-12-23	11:23:16	11:32:04	526200	6111b27e123039e968795ea8	863965372	1	main_slash	11	main_slash	41	stimuli_distractor_diamondtriangles.svg	stimuli_distractor_diamondtriangles.svg	40	no	0	1	2000
6.6.1	mac	2022-12-23	11:23:16	11:32:04	526200	6111b27e123039e968795ea8	863965372	1	main_slash	11	advance_on_keypress_SLASH	42	stimuli_distractor_diamondtriangles.svg	stimuli_distractor_diamondtriangles.svg	40	no	57	0	266
6.6.1	mac	2022-12-23	11:23:16	11:32:05	527580	6111b27e123039e968795ea8	863965372	1	main_slash	11	main_slash	43	stimuli_distractor_trianglediamonds.svg	stimuli_target_diamondsquares.svg	28	yes	53	1	478
6.6.1	mac	2022-12-23	11:23:16	11:32:05	527580	6111b27e123039e968795ea8	863965372	1	main_slash	11	advance_on_keypress_SLASH	44	stimuli_distractor_trianglediamonds.svg	stimuli_target_diamondsquares.svg	28	yes	57	0	523
6.6.1	mac	2022-12-23	11:23:16	11:32:08	530717	6111b27e123039e968795ea8	863965372	1	main_slash	11	main_slash	45	stimuli_distractor_diamondtriangles.svg	stimuli_distractor_trianglediamonds.svg	38	no	0	1	2000
6.6.1	mac	2022-12-23	11:23:16	11:32:08	530717	6111b27e123039e968795ea8	863965372	1	main_slash	11	advance_on_keypress_SLASH	46	stimuli_distractor_diamondtriangles.svg	stimuli_distractor_trianglediamonds.svg	38	no	57	0	267
6.6.1	mac	2022-12-23	11:23:16	11:32:10	532428	6111b27e123039e968795ea8	863965372	1	main_slash	11	main_slash	47	stimuli_distractor_diamondtriangles.svg	stimuli_target_squaretriangles.svg	15	yes	53	1	809
6.6.1	mac	2022-12-23	11:23:16	11:32:10	532428	6111b27e123039e968795ea8	863965372	1	main_slash	11	advance_on_keypress_SLASH	48	stimuli_distractor_diamondtriangles.svg	stimuli_target_squaretriangles.svg	15	yes	57	0	505
6.6.1	mac	2022-12-23	11:23:16	11:32:12	534476	6111b27e123039e968795ea8	863965372	1	main_slash	11	main_slash	49	stimuli_distractor_diamondtriangles.svg	stimuli_target_trianglesquares.svg	30	yes	53	1	923
6.6.1	mac	2022-12-23	11:23:16	11:32:12	534476	6111b27e123039e968795ea8	863965372	1	main_slash	11	advance_on_keypress_SLASH	50	stimuli_distractor_diamondtriangles.svg	stimuli_target_trianglesquares.svg	30	yes	57	0	494
6.6.1	mac	2022-12-23	11:23:16	11:32:13	536108	6111b27e123039e968795ea8	863965372	1	main_slash	11	main_slash	51	stimuli_target_squaretriangles.svg	stimuli_distractor_diamondtriangles.svg	7	yes	53	1	522
6.6.1	mac	2022-12-23	11:23:16	11:32:13	536108	6111b27e123039e968795ea8	863965372	1	main_slash	11	advance_on_keypress_SLASH	52	stimuli_target_squaretriangles.svg	stimuli_distractor_diamondtriangles.svg	7	yes	57	0	403
6.6.1	mac	2022-12-23	11:23:16	11:32:16	539151	6111b27e123039e968795ea8	863965372	1	main_slash	11	main_slash	53	stimuli_distractor_trianglediamonds.svg	stimuli_distractor_diamondtriangles.svg	36	no	0	1	2000
6.6.1	mac	2022-12-23	11:23:16	11:32:16	539151	6111b27e123039e968795ea8	863965372	1	main_slash	11	advance_on_keypress_SLASH	54	stimuli_distractor_trianglediamonds.svg	stimuli_distractor_diamondtriangles.svg	36	no	57	0	241
6.6.1	mac	2022-12-23	11:23:16	11:32:18	540540	6111b27e123039e968795ea8	863965372	1	main_slash	11	main_slash	55	stimuli_distractor_trianglediamonds.svg	stimuli_target_squarediamonds.svg	12	yes	53	1	520
6.6.1	mac	2022-12-23	11:23:16	11:32:18	540540	6111b27e123039e968795ea8	863965372	1	main_slash	11	advance_on_keypress_SLASH	56	stimuli_distractor_trianglediamonds.svg	stimuli_target_squarediamonds.svg	12	yes	57	0	467
6.6.1	mac	2022-12-23	11:23:16	11:32:21	543635	6111b27e123039e968795ea8	863965372	1	main_slash	11	main_slash	57	stimuli_distractor_trianglediamonds.svg	stimuli_distractor_trianglediamonds.svg	34	no	0	1	2000
6.6.1	mac	2022-12-23	11:23:16	11:32:21	543635	6111b27e123039e968795ea8	863965372	1	main_slash	11	advance_on_keypress_SLASH	58	stimuli_distractor_trianglediamonds.svg	stimuli_distractor_trianglediamonds.svg	34	no	57	0	293
6.6.1	mac	2022-12-23	11:23:16	11:32:22	545020	6111b27e123039e968795ea8	863965372	1	main_slash	11	main_slash	59	stimuli_distractor_trianglediamonds.svg	stimuli_target_circletriangles.svg	9	yes	53	1	467
6.6.1	mac	2022-12-23	11:23:16	11:32:22	545020	6111b27e123039e968795ea8	863965372	1	main_slash	11	advance_on_keypress_SLASH	60	stimuli_distractor_trianglediamonds.svg	stimuli_target_circletriangles.svg	9	yes	57	0	646
6.6.1	mac	2022-12-23	11:23:16	11:32:24	546740	6111b27e123039e968795ea8	863965372	1	main_slash	11	main_slash	61	stimuli_distractor_diamondtriangles.svg	stimuli_target_trianglecircles.svg	29	yes	53	1	435
6.6.1	mac	2022-12-23	11:23:16	11:32:24	546740	6111b27e123039e968795ea8	863965372	1	main_slash	11	advance_on_keypress_SLASH	62	stimuli_distractor_diamondtriangles.svg	stimuli_target_trianglecircles.svg	29	yes	57	0	465
6.6.1	mac	2022-12-23	11:23:16	11:32:27	549836	6111b27e123039e968795ea8	863965372	1	main_slash	11	main_slash	63	stimuli_distractor_trianglediamonds.svg	stimuli_distractor_trianglediamonds.svg	33	no	0	1	2000
6.6.1	mac	2022-12-23	11:23:16	11:32:27	549836	6111b27e123039e968795ea8	863965372	1	main_slash	11	advance_on_keypress_SLASH	64	stimuli_distractor_trianglediamonds.svg	stimuli_distractor_trianglediamonds.svg	33	no	57	0	276
6.6.1	mac	2022-12-23	11:23:16	11:32:29	551180	6111b27e123039e968795ea8	863965372	1	main_slash	11	main_slash	65	stimuli_distractor_diamondtriangles.svg	stimuli_target_circlediamonds.svg	14	yes	53	1	442
6.6.1	mac	2022-12-23	11:23:16	11:32:29	551180	6111b27e123039e968795ea8	863965372	1	main_slash	11	advance_on_keypress_SLASH	66	stimuli_distractor_diamondtriangles.svg	stimuli_target_circlediamonds.svg	14	yes	57	0	438
6.6.1	mac	2022-12-23	11:23:16	11:32:30	552732	6111b27e123039e968795ea8	863965372	1	main_slash	11	main_slash	67	stimuli_target_squaretriangles.svg	stimuli_distractor_trianglediamonds.svg	3	yes	53	1	476
6.6.1	mac	2022-12-23	11:23:16	11:32:30	552732	6111b27e123039e968795ea8	863965372	1	main_slash	11	advance_on_keypress_SLASH	68	stimuli_target_squaretriangles.svg	stimuli_distractor_trianglediamonds.svg	3	yes	57	0	378
6.6.1	mac	2022-12-23	11:23:16	11:32:31	554148	6111b27e123039e968795ea8	863965372	1	main_slash	11	main_slash	69	stimuli_distractor_diamondtriangles.svg	stimuli_target_diamondcircles.svg	31	yes	53	1	427
6.6.1	mac	2022-12-23	11:23:16	11:32:31	554148	6111b27e123039e968795ea8	863965372	1	main_slash	11	advance_on_keypress_SLASH	70	stimuli_distractor_diamondtriangles.svg	stimuli_target_diamondcircles.svg	31	yes	57	0	312
6.6.1	mac	2022-12-23	11:23:16	11:32:33	555612	6111b27e123039e968795ea8	863965372	1	main_slash	11	main_slash	71	stimuli_target_trianglesquares.svg	stimuli_distractor_diamondtriangles.svg	22	yes	53	1	523
6.6.1	mac	2022-12-23	11:23:16	11:32:33	555612	6111b27e123039e968795ea8	863965372	1	main_slash	11	advance_on_keypress_SLASH	72	stimuli_target_trianglesquares.svg	stimuli_distractor_diamondtriangles.svg	22	yes	57	0	357
6.6.1	mac	2022-12-23	11:23:16	11:32:34	557060	6111b27e123039e968795ea8	863965372	1	main_slash	11	main_slash	73	stimuli_distractor_trianglediamonds.svg	stimuli_target_squaretriangles.svg	11	yes	53	1	454
6.6.1	mac	2022-12-23	11:23:16	11:32:34	557060	6111b27e123039e968795ea8	863965372	1	main_slash	11	advance_on_keypress_SLASH	74	stimuli_distractor_trianglediamonds.svg	stimuli_target_squaretriangles.svg	11	yes	57	0	348
6.6.1	mac	2022-12-23	11:23:16	11:32:36	558452	6111b27e123039e968795ea8	863965372	1	main_slash	11	main_slash	75	stimuli_target_diamondcircles.svg	stimuli_distractor_diamondtriangles.svg	23	yes	53	1	413
6.6.1	mac	2022-12-23	11:23:16	11:32:36	558452	6111b27e123039e968795ea8	863965372	1	main_slash	11	advance_on_keypress_SLASH	76	stimuli_target_diamondcircles.svg	stimuli_distractor_diamondtriangles.svg	23	yes	57	0	323
6.6.1	mac	2022-12-23	11:23:16	11:32:37	559852	6111b27e123039e968795ea8	863965372	1	main_slash	11	main_slash	77	stimuli_distractor_trianglediamonds.svg	stimuli_target_circlediamonds.svg	10	yes	53	1	447
6.6.1	mac	2022-12-23	11:23:16	11:32:37	559852	6111b27e123039e968795ea8	863965372	1	main_slash	11	advance_on_keypress_SLASH	78	stimuli_distractor_trianglediamonds.svg	stimuli_target_circlediamonds.svg	10	yes	57	0	402
6.6.1	mac	2022-12-23	11:23:16	11:32:39	561324	6111b27e123039e968795ea8	863965372	1	main_slash	11	main_slash	79	stimuli_distractor_trianglediamonds.svg	stimuli_distractor_diamondtriangles.svg	35	no	53	0	434
6.6.1	mac	2022-12-23	11:23:16	11:32:39	561324	6111b27e123039e968795ea8	863965372	1	main_slash	11	advance_on_keypress_SLASH	80	stimuli_distractor_trianglediamonds.svg	stimuli_distractor_diamondtriangles.svg	35	no	57	0	616
6.6.1	mac	2022-12-23	11:23:16	11:32:40	563052	6111b27e123039e968795ea8	863965372	1	main_slash	11	main_slash	81	stimuli_distractor_diamondtriangles.svg	stimuli_target_trianglecircles.svg	29	yes	53	1	479
6.6.1	mac	2022-12-23	11:23:16	11:32:40	563052	6111b27e123039e968795ea8	863965372	1	main_slash	11	advance_on_keypress_SLASH	82	stimuli_distractor_diamondtriangles.svg	stimuli_target_trianglecircles.svg	29	yes	57	0	426
6.6.1	mac	2022-12-23	11:23:16	11:32:42	564572	6111b27e123039e968795ea8	863965372	1	main_slash	11	main_slash	83	stimuli_target_trianglecircles.svg	stimuli_distractor_diamondtriangles.svg	21	yes	53	1	466
6.6.1	mac	2022-12-23	11:23:16	11:32:42	564572	6111b27e123039e968795ea8	863965372	1	main_slash	11	advance_on_keypress_SLASH	84	stimuli_target_trianglecircles.svg	stimuli_distractor_diamondtriangles.svg	21	yes	57	0	374
6.6.1	mac	2022-12-23	11:23:16	11:32:45	567571	6111b27e123039e968795ea8	863965372	1	main_slash	11	main_slash	85	stimuli_distractor_trianglediamonds.svg	stimuli_distractor_trianglediamonds.svg	33	no	0	1	2000
6.6.1	mac	2022-12-23	11:23:16	11:32:45	567571	6111b27e123039e968795ea8	863965372	1	main_slash	11	advance_on_keypress_SLASH	86	stimuli_distractor_trianglediamonds.svg	stimuli_distractor_trianglediamonds.svg	33	no	57	0	278
6.6.1	mac	2022-12-23	11:23:16	11:32:48	570471	6111b27e123039e968795ea8	863965372	1	main_slash	11	main_slash	87	stimuli_distractor_diamondtriangles.svg	stimuli_distractor_diamondtriangles.svg	40	no	0	1	2000
6.6.1	mac	2022-12-23	11:23:16	11:32:48	570471	6111b27e123039e968795ea8	863965372	1	main_slash	11	advance_on_keypress_SLASH	88	stimuli_distractor_diamondtriangles.svg	stimuli_distractor_diamondtriangles.svg	40	no	57	0	272
6.6.1	mac	2022-12-23	11:23:16	11:32:49	571820	6111b27e123039e968795ea8	863965372	1	main_slash	11	main_slash	89	stimuli_target_circletriangles.svg	stimuli_distractor_trianglediamonds.svg	1	yes	53	1	447
6.6.1	mac	2022-12-23	11:23:16	11:32:49	571820	6111b27e123039e968795ea8	863965372	1	main_slash	11	advance_on_keypress_SLASH	90	stimuli_target_circletriangles.svg	stimuli_distractor_trianglediamonds.svg	1	yes	57	0	394
6.6.1	mac	2022-12-23	11:23:16	11:32:51	573324	6111b27e123039e968795ea8	863965372	1	main_slash	11	main_slash	91	stimuli_distractor_trianglediamonds.svg	stimuli_target_diamondsquares.svg	28	yes	53	1	466
6.6.1	mac	2022-12-23	11:23:16	11:32:51	573324	6111b27e123039e968795ea8	863965372	1	main_slash	11	advance_on_keypress_SLASH	92	stimuli_distractor_trianglediamonds.svg	stimuli_target_diamondsquares.svg	28	yes	57	0	374
6.6.1	mac	2022-12-23	11:23:16	11:32:52	574693	6111b27e123039e968795ea8	863965372	1	main_slash	11	main_slash	93	stimuli_target_squaretriangles.svg	stimuli_distractor_diamondtriangles.svg	7	yes	53	1	368
6.6.1	mac	2022-12-23	11:23:16	11:32:52	574693	6111b27e123039e968795ea8	863965372	1	main_slash	11	advance_on_keypress_SLASH	94	stimuli_target_squaretriangles.svg	stimuli_distractor_diamondtriangles.svg	7	yes	57	0	305
6.6.1	mac	2022-12-23	11:23:16	11:32:53	576028	6111b27e123039e968795ea8	863965372	1	main_slash	11	main_slash	95	stimuli_distractor_trianglediamonds.svg	stimuli_target_trianglesquares.svg	26	yes	53	1	403
6.6.1	mac	2022-12-23	11:23:16	11:32:53	576028	6111b27e123039e968795ea8	863965372	1	main_slash	11	advance_on_keypress_SLASH	96	stimuli_distractor_trianglediamonds.svg	stimuli_target_trianglesquares.svg	26	yes	57	0	339
6.6.1	mac	2022-12-23	11:23:16	11:32:55	577444	6111b27e123039e968795ea8	863965372	1	main_slash	11	main_slash	97	stimuli_distractor_diamondtriangles.svg	stimuli_target_squarediamonds.svg	16	yes	53	1	452
6.6.1	mac	2022-12-23	11:23:16	11:32:55	577444	6111b27e123039e968795ea8	863965372	1	main_slash	11	advance_on_keypress_SLASH	98	stimuli_distractor_diamondtriangles.svg	stimuli_target_squarediamonds.svg	16	yes	57	0	321
6.6.1	mac	2022-12-23	11:23:16	11:32:56	578756	6111b27e123039e968795ea8	863965372	1	main_slash	11	main_slash	99	stimuli_target_diamondcircles.svg	stimuli_distractor_trianglediamonds.svg	19	yes	53	1	364
6.6.1	mac	2022-12-23	11:23:16	11:32:56	578756	6111b27e123039e968795ea8	863965372	1	main_slash	11	advance_on_keypress_SLASH	100	stimuli_target_diamondcircles.svg	stimuli_distractor_trianglediamonds.svg	19	yes	57	0	348
6.6.1	mac	2022-12-23	11:23:16	11:32:58	580220	6111b27e123039e968795ea8	863965372	1	main_slash	11	main_slash	101	stimuli_distractor_diamondtriangles.svg	stimuli_target_squaretriangles.svg	15	yes	53	1	478
6.6.1	mac	2022-12-23	11:23:16	11:32:58	580220	6111b27e123039e968795ea8	863965372	1	main_slash	11	advance_on_keypress_SLASH	102	stimuli_distractor_diamondtriangles.svg	stimuli_target_squaretriangles.svg	15	yes	57	0	458
6.6.1	mac	2022-12-23	11:23:16	11:32:59	581764	6111b27e123039e968795ea8	863965372	1	main_slash	11	main_slash	103	stimuli_distractor_diamondtriangles.svg	stimuli_distractor_trianglediamonds.svg	37	no	53	0	455
6.6.1	mac	2022-12-23	11:23:16	11:32:59	581764	6111b27e123039e968795ea8	863965372	1	main_slash	11	advance_on_keypress_SLASH	104	stimuli_distractor_diamondtriangles.svg	stimuli_distractor_trianglediamonds.svg	37	no	57	0	2148
6.6.1	mac	2022-12-23	11:23:16	11:33:04	586541	6111b27e123039e968795ea8	863965372	1	main_slash	11	main_slash	105	stimuli_distractor_diamondtriangles.svg	stimuli_distractor_diamondtriangles.svg	39	no	0	1	2000
6.6.1	mac	2022-12-23	11:23:16	11:33:04	586541	6111b27e123039e968795ea8	863965372	1	main_slash	11	advance_on_keypress_SLASH	106	stimuli_distractor_diamondtriangles.svg	stimuli_distractor_diamondtriangles.svg	39	no	57	0	436
6.6.1	mac	2022-12-23	11:23:16	11:33:05	588044	6111b27e123039e968795ea8	863965372	1	main_slash	11	main_slash	107	stimuli_distractor_trianglediamonds.svg	stimuli_target_trianglecircles.svg	25	yes	53	1	435
6.6.1	mac	2022-12-23	11:23:16	11:33:05	588044	6111b27e123039e968795ea8	863965372	1	main_slash	11	advance_on_keypress_SLASH	108	stimuli_distractor_trianglediamonds.svg	stimuli_target_trianglecircles.svg	25	yes	57	0	1040
6.6.1	mac	2022-12-23	11:23:16	11:33:07	590148	6111b27e123039e968795ea8	863965372	1	main_slash	11	main_slash	109	stimuli_target_squaretriangles.svg	stimuli_distractor_trianglediamonds.svg	3	yes	53	1	439
6.6.1	mac	2022-12-23	11:23:16	11:33:07	590148	6111b27e123039e968795ea8	863965372	1	main_slash	11	advance_on_keypress_SLASH	110	stimuli_target_squaretriangles.svg	stimuli_distractor_trianglediamonds.svg	3	yes	57	0	419
6.6.1	mac	2022-12-23	11:23:16	11:33:09	591596	6111b27e123039e968795ea8	863965372	1	main_slash	11	main_slash	111	stimuli_distractor_trianglediamonds.svg	stimuli_target_squarediamonds.svg	12	yes	53	1	386
6.6.1	mac	2022-12-23	11:23:16	11:33:09	591596	6111b27e123039e968795ea8	863965372	1	main_slash	11	advance_on_keypress_SLASH	112	stimuli_distractor_trianglediamonds.svg	stimuli_target_squarediamonds.svg	12	yes	57	0	1065
6.6.1	mac	2022-12-23	11:23:16	11:33:13	595292	6111b27e123039e968795ea8	863965372	1	main_slash	11	main_slash	113	stimuli_distractor_trianglediamonds.svg	stimuli_distractor_trianglediamonds.svg	34	no	0	1	2000
6.6.1	mac	2022-12-23	11:23:16	11:33:13	595292	6111b27e123039e968795ea8	863965372	1	main_slash	11	advance_on_keypress_SLASH	114	stimuli_distractor_trianglediamonds.svg	stimuli_distractor_trianglediamonds.svg	34	no	57	0	373
6.6.1	mac	2022-12-23	11:23:16	11:33:14	596844	6111b27e123039e968795ea8	863965372	1	main_slash	11	main_slash	115	stimuli_distractor_trianglediamonds.svg	stimuli_distractor_diamondtriangles.svg	35	no	53	0	550
6.6.1	mac	2022-12-23	11:23:16	11:33:14	596844	6111b27e123039e968795ea8	863965372	1	main_slash	11	advance_on_keypress_SLASH	116	stimuli_distractor_trianglediamonds.svg	stimuli_distractor_diamondtriangles.svg	35	no	57	0	1559
6.6.1	mac	2022-12-23	11:23:16	11:33:17	599468	6111b27e123039e968795ea8	863965372	1	main_slash	11	main_slash	117	stimuli_target_circlediamonds.svg	stimuli_distractor_trianglediamonds.svg	2	yes	53	1	440
6.6.1	mac	2022-12-23	11:23:16	11:33:17	599468	6111b27e123039e968795ea8	863965372	1	main_slash	11	advance_on_keypress_SLASH	118	stimuli_target_circlediamonds.svg	stimuli_distractor_trianglediamonds.svg	2	yes	57	0	1181
6.6.1	mac	2022-12-23	11:23:16	11:33:19	601716	6111b27e123039e968795ea8	863965372	1	main_slash	11	main_slash	119	stimuli_distractor_trianglediamonds.svg	stimuli_target_circlediamonds.svg	10	yes	53	1	438
6.6.1	mac	2022-12-23	11:23:16	11:33:19	601716	6111b27e123039e968795ea8	863965372	1	main_slash	11	advance_on_keypress_SLASH	120	stimuli_distractor_trianglediamonds.svg	stimuli_target_circlediamonds.svg	10	yes	57	0	1243
6.6.1	mac	2022-12-23	11:23:16	11:33:21	604044	6111b27e123039e968795ea8	863965372	1	main_slash	11	main_slash	121	stimuli_distractor_trianglediamonds.svg	stimuli_target_squaretriangles.svg	11	yes	53	1	450
6.6.1	mac	2022-12-23	11:23:16	11:33:21	604044	6111b27e123039e968795ea8	863965372	1	main_slash	11	advance_on_keypress_SLASH	122	stimuli_distractor_trianglediamonds.svg	stimuli_target_squaretriangles.svg	11	yes	57	0	790
6.6.1	mac	2022-12-23	11:23:16	11:33:23	605908	6111b27e123039e968795ea8	863965372	1	main_slash	11	main_slash	123	stimuli_target_trianglecircles.svg	stimuli_distractor_trianglediamonds.svg	17	yes	53	1	447
6.6.1	mac	2022-12-23	11:23:16	11:33:23	605908	6111b27e123039e968795ea8	863965372	1	main_slash	11	advance_on_keypress_SLASH	124	stimuli_target_trianglecircles.svg	stimuli_distractor_trianglediamonds.svg	17	yes	57	0	875
6.6.1	mac	2022-12-23	11:23:16	11:33:25	608004	6111b27e123039e968795ea8	863965372	1	main_slash	11	main_slash	125	stimuli_distractor_diamondtriangles.svg	stimuli_target_diamondcircles.svg	31	yes	53	1	593
6.6.1	mac	2022-12-23	11:23:16	11:33:25	608004	6111b27e123039e968795ea8	863965372	1	main_slash	11	advance_on_keypress_SLASH	126	stimuli_distractor_diamondtriangles.svg	stimuli_target_diamondcircles.svg	31	yes	57	0	544
6.6.1	mac	2022-12-23	11:23:16	11:33:28	611160	6111b27e123039e968795ea8	863965372	1	main_slash	11	main_slash	127	stimuli_distractor_diamondtriangles.svg	stimuli_distractor_trianglediamonds.svg	38	no	0	1	2000
6.6.1	mac	2022-12-23	11:23:16	11:33:28	611160	6111b27e123039e968795ea8	863965372	1	main_slash	11	advance_on_keypress_SLASH	128	stimuli_distractor_diamondtriangles.svg	stimuli_distractor_trianglediamonds.svg	38	no	57	0	312
6.6.1	mac	2022-12-23	11:23:16	11:33:30	612572	6111b27e123039e968795ea8	863965372	1	main_slash	11	main_slash	129	stimuli_distractor_diamondtriangles.svg	stimuli_target_circlediamonds.svg	14	yes	53	1	460
6.6.1	mac	2022-12-23	11:23:16	11:33:30	612572	6111b27e123039e968795ea8	863965372	1	main_slash	11	advance_on_keypress_SLASH	130	stimuli_distractor_diamondtriangles.svg	stimuli_target_circlediamonds.svg	14	yes	57	0	512
6.6.1	mac	2022-12-23	11:23:16	11:33:32	614180	6111b27e123039e968795ea8	863965372	1	main_slash	11	main_slash	131	stimuli_target_trianglesquares.svg	stimuli_distractor_trianglediamonds.svg	18	yes	53	1	468
6.6.1	mac	2022-12-23	11:23:16	11:33:32	614180	6111b27e123039e968795ea8	863965372	1	main_slash	11	advance_on_keypress_SLASH	132	stimuli_target_trianglesquares.svg	stimuli_distractor_trianglediamonds.svg	18	yes	57	0	655
6.6.1	mac	2022-12-23	11:23:16	11:33:33	615956	6111b27e123039e968795ea8	863965372	1	main_slash	11	main_slash	133	stimuli_distractor_diamondtriangles.svg	stimuli_target_trianglesquares.svg	30	yes	53	1	493
6.6.1	mac	2022-12-23	11:23:16	11:33:33	615956	6111b27e123039e968795ea8	863965372	1	main_slash	11	advance_on_keypress_SLASH	134	stimuli_distractor_diamondtriangles.svg	stimuli_target_trianglesquares.svg	30	yes	57	0	497
6.6.1	mac	2022-12-23	11:23:16	11:33:35	617524	6111b27e123039e968795ea8	863965372	1	main_slash	11	main_slash	135	stimuli_target_circlediamonds.svg	stimuli_distractor_diamondtriangles.svg	6	yes	53	1	444
6.6.1	mac	2022-12-23	11:23:16	11:33:35	617524	6111b27e123039e968795ea8	863965372	1	main_slash	11	advance_on_keypress_SLASH	136	stimuli_target_circlediamonds.svg	stimuli_distractor_diamondtriangles.svg	6	yes	57	0	489
6.6.1	mac	2022-12-23	11:23:16	11:33:37	619244	6111b27e123039e968795ea8	863965372	1	main_slash	11	main_slash	137	stimuli_target_diamondsquares.svg	stimuli_distractor_trianglediamonds.svg	20	yes	53	1	597
6.6.1	mac	2022-12-23	11:23:16	11:33:37	619244	6111b27e123039e968795ea8	863965372	1	main_slash	11	advance_on_keypress_SLASH	138	stimuli_target_diamondsquares.svg	stimuli_distractor_trianglediamonds.svg	20	yes	57	0	404
6.6.1	mac	2022-12-23	11:23:16	11:33:38	620876	6111b27e123039e968795ea8	863965372	1	main_slash	11	main_slash	139	stimuli_distractor_diamondtriangles.svg	stimuli_target_diamondsquares.svg	32	yes	53	1	596
6.6.1	mac	2022-12-23	11:23:16	11:33:38	620876	6111b27e123039e968795ea8	863965372	1	main_slash	11	advance_on_keypress_SLASH	140	stimuli_distractor_diamondtriangles.svg	stimuli_target_diamondsquares.svg	32	yes	57	0	674
6.6.1	mac	2022-12-23	11:23:16	11:33:42	624179	6111b27e123039e968795ea8	863965372	1	main_slash	11	main_slash	141	stimuli_distractor_trianglediamonds.svg	stimuli_distractor_diamondtriangles.svg	36	no	0	1	2000
6.6.1	mac	2022-12-23	11:23:16	11:33:42	624179	6111b27e123039e968795ea8	863965372	1	main_slash	11	advance_on_keypress_SLASH	142	stimuli_distractor_trianglediamonds.svg	stimuli_distractor_diamondtriangles.svg	36	no	57	0	455
6.6.1	mac	2022-12-23	11:23:16	11:33:43	625684	6111b27e123039e968795ea8	863965372	1	main_slash	11	main_slash	143	stimuli_target_squarediamonds.svg	stimuli_distractor_trianglediamonds.svg	4	yes	53	1	420
6.6.1	mac	2022-12-23	11:23:16	11:33:43	625684	6111b27e123039e968795ea8	863965372	1	main_slash	11	advance_on_keypress_SLASH	144	stimuli_target_squarediamonds.svg	stimuli_distractor_trianglediamonds.svg	4	yes	57	0	739
6.6.1	mac	2022-12-23	11:23:16	11:33:45	627420	6111b27e123039e968795ea8	863965372	1	main_slash	11	main_slash	145	stimuli_target_diamondcircles.svg	stimuli_distractor_diamondtriangles.svg	23	yes	53	1	372
6.6.1	mac	2022-12-23	11:23:16	11:33:45	627420	6111b27e123039e968795ea8	863965372	1	main_slash	11	advance_on_keypress_SLASH	146	stimuli_target_diamondcircles.svg	stimuli_distractor_diamondtriangles.svg	23	yes	57	0	814
6.6.1	mac	2022-12-23	11:23:16	11:33:47	629660	6111b27e123039e968795ea8	863965372	1	main_slash	11	main_slash	147	stimuli_target_diamondsquares.svg	stimuli_distractor_diamondtriangles.svg	24	yes	53	1	796
6.6.1	mac	2022-12-23	11:23:16	11:33:47	629660	6111b27e123039e968795ea8	863965372	1	main_slash	11	advance_on_keypress_SLASH	148	stimuli_target_diamondsquares.svg	stimuli_distractor_diamondtriangles.svg	24	yes	57	0	474
6.6.1	mac	2022-12-23	11:23:16	11:33:49	631652	6111b27e123039e968795ea8	863965372	1	main_slash	11	main_slash	149	stimuli_target_circletriangles.svg	stimuli_distractor_diamondtriangles.svg	5	yes	53	1	887
6.6.1	mac	2022-12-23	11:23:16	11:33:49	631652	6111b27e123039e968795ea8	863965372	1	main_slash	11	advance_on_keypress_SLASH	150	stimuli_target_circletriangles.svg	stimuli_distractor_diamondtriangles.svg	5	yes	57	0	395
6.6.1	mac	2022-12-23	11:23:16	11:33:51	633188	6111b27e123039e968795ea8	863965372	1	main_slash	11	main_slash	151	stimuli_target_squarediamonds.svg	stimuli_distractor_diamondtriangles.svg	8	yes	53	1	506
6.6.1	mac	2022-12-23	11:23:16	11:33:51	633188	6111b27e123039e968795ea8	863965372	1	main_slash	11	advance_on_keypress_SLASH	152	stimuli_target_squarediamonds.svg	stimuli_distractor_diamondtriangles.svg	8	yes	57	0	438
6.6.1	mac	2022-12-23	11:23:16	11:33:52	634900	6111b27e123039e968795ea8	863965372	1	main_slash	11	main_slash	153	stimuli_distractor_diamondtriangles.svg	stimuli_target_circletriangles.svg	13	yes	53	1	651
6.6.1	mac	2022-12-23	11:23:16	11:33:52	634900	6111b27e123039e968795ea8	863965372	1	main_slash	11	advance_on_keypress_SLASH	154	stimuli_distractor_diamondtriangles.svg	stimuli_target_circletriangles.svg	13	yes	57	0	600
6.6.1	mac	2022-12-23	11:23:16	11:33:54	636596	6111b27e123039e968795ea8	863965372	1	main_slash	11	main_slash	155	stimuli_distractor_trianglediamonds.svg	stimuli_target_diamondcircles.svg	27	yes	53	1	464
6.6.1	mac	2022-12-23	11:23:16	11:33:54	636596	6111b27e123039e968795ea8	863965372	1	main_slash	11	advance_on_keypress_SLASH	156	stimuli_distractor_trianglediamonds.svg	stimuli_target_diamondcircles.svg	27	yes	57	0	501
6.6.1	mac	2022-12-23	11:23:16	11:33:55	638124	6111b27e123039e968795ea8	863965372	1	main_slash	11	main_slash	157	stimuli_target_trianglesquares.svg	stimuli_distractor_diamondtriangles.svg	22	yes	53	1	391
6.6.1	mac	2022-12-23	11:23:16	11:33:55	638124	6111b27e123039e968795ea8	863965372	1	main_slash	11	advance_on_keypress_SLASH	158	stimuli_target_trianglesquares.svg	stimuli_distractor_diamondtriangles.svg	22	yes	57	0	415
6.6.1	mac	2022-12-23	11:23:16	11:33:57	639572	6111b27e123039e968795ea8	863965372	1	main_slash	11	main_slash	159	stimuli_distractor_trianglediamonds.svg	stimuli_target_circletriangles.svg	9	yes	53	1	407
6.6.1	mac	2022-12-23	11:23:16	11:33:57	639572	6111b27e123039e968795ea8	863965372	1	main_slash	11	advance_on_keypress_SLASH	160	stimuli_distractor_trianglediamonds.svg	stimuli_target_circletriangles.svg	9	yes	57	0	1212