build	computer.platform	date	time	timestamp	time_elapsed_ms	subject	group	session	blockcode	blocknum	trialcode	trialnum	stimulus_left	stimulus_right	stim_index	target_present	response	correct	latency
6.6.1	win	2022-12-15	17:19:32	17:22:48	192947	60f31196cf392939a843ab34	880649727	1	practice_slash	5	practice_slash	1	stimuli_distractor_diamondtriangles.svg	stimuli_distractor_trianglediamonds.svg	14	no	0	1	2000
6.6.1	win	2022-12-15	17:19:32	17:22:48	192947	60f31196cf392939a843ab34	880649727	1	practice_slash	5	advance_on_keypress_SLASH	2	stimuli_distractor_diamondtriangles.svg	stimuli_distractor_trianglediamonds.svg	14	no	57	0	4505
6.6.1	win	2022-12-15	17:19:32	17:22:56	200736	60f31196cf392939a843ab34	880649727	1	practice_slash	5	practice_slash	3	stimuli_target_squarediamonds.svg	stimuli_distractor_trianglediamonds.svg	5	yes	53	1	1639
6.6.1	win	2022-12-15	17:19:32	17:22:56	200736	60f31196cf392939a843ab34	880649727	1	practice_slash	5	advance_on_keypress_SLASH	4	stimuli_target_squarediamonds.svg	stimuli_distractor_trianglediamonds.svg	5	yes	57	0	2557
6.6.1	win	2022-12-15	17:19:32	17:23:02	206947	60f31196cf392939a843ab34	880649727	1	practice_slash	5	practice_slash	5	stimuli_target_diamondsquares.svg	stimuli_distractor_diamondtriangles.svg	3	yes	0	0	2000
6.6.1	win	2022-12-15	17:19:32	17:23:02	206947	60f31196cf392939a843ab34	880649727	1	practice_slash	5	advance_on_keypress_SLASH	6	stimuli_target_diamondsquares.svg	stimuli_distractor_diamondtriangles.svg	3	yes	57	0	714
6.6.1	win	2022-12-15	17:19:32	17:23:05	210447	60f31196cf392939a843ab34	880649727	1	practice_slash	5	practice_slash	7	stimuli_distractor_trianglediamonds.svg	stimuli_target_squarediamonds.svg	11	yes	53	1	1134
6.6.1	win	2022-12-15	17:19:32	17:23:05	210447	60f31196cf392939a843ab34	880649727	1	practice_slash	5	advance_on_keypress_SLASH	8	stimuli_distractor_trianglediamonds.svg	stimuli_target_squarediamonds.svg	11	yes	57	0	522
6.6.1	win	2022-12-15	17:19:32	17:23:09	214614	60f31196cf392939a843ab34	880649727	1	practice_slash	5	practice_slash	9	stimuli_distractor_diamondtriangles.svg	stimuli_distractor_diamondtriangles.svg	13	no	0	1	2000
6.6.1	win	2022-12-15	17:19:32	17:23:09	214614	60f31196cf392939a843ab34	880649727	1	practice_slash	5	advance_on_keypress_SLASH	10	stimuli_distractor_diamondtriangles.svg	stimuli_distractor_diamondtriangles.svg	13	no	57	0	944
6.6.1	win	2022-12-15	17:19:32	17:23:14	219160	60f31196cf392939a843ab34	880649727	1	practice_slash	5	practice_slash	11	stimuli_distractor_trianglediamonds.svg	stimuli_target_circlediamonds.svg	10	yes	53	1	1946
6.6.1	win	2022-12-15	17:19:32	17:23:14	219160	60f31196cf392939a843ab34	880649727	1	practice_slash	5	advance_on_keypress_SLASH	12	stimuli_distractor_trianglediamonds.svg	stimuli_target_circlediamonds.svg	10	yes	57	0	567
6.6.1	win	2022-12-15	17:19:32	17:23:17	222499	60f31196cf392939a843ab34	880649727	1	practice_slash	5	practice_slash	13	stimuli_distractor_trianglediamonds.svg	stimuli_distractor_diamondtriangles.svg	16	no	53	0	1119
6.6.1	win	2022-12-15	17:19:32	17:23:17	222499	60f31196cf392939a843ab34	880649727	1	practice_slash	5	advance_on_keypress_SLASH	14	stimuli_distractor_trianglediamonds.svg	stimuli_distractor_diamondtriangles.svg	16	no	57	0	587
6.6.1	win	2022-12-15	17:19:32	17:23:21	226600	60f31196cf392939a843ab34	880649727	1	practice_slash	5	practice_slash	15	stimuli_target_squarediamonds.svg	stimuli_distractor_diamondtriangles.svg	2	yes	53	1	1869
6.6.1	win	2022-12-15	17:19:32	17:23:21	226600	60f31196cf392939a843ab34	880649727	1	practice_slash	5	advance_on_keypress_SLASH	16	stimuli_target_squarediamonds.svg	stimuli_distractor_diamondtriangles.svg	2	yes	57	0	390
6.6.1	win	2022-12-15	17:19:32	17:23:25	230287	60f31196cf392939a843ab34	880649727	1	practice_slash	5	practice_slash	17	stimuli_target_circlediamonds.svg	stimuli_distractor_trianglediamonds.svg	4	yes	53	1	1656
6.6.1	win	2022-12-15	17:19:32	17:23:25	230287	60f31196cf392939a843ab34	880649727	1	practice_slash	5	advance_on_keypress_SLASH	18	stimuli_target_circlediamonds.svg	stimuli_distractor_trianglediamonds.svg	4	yes	57	0	436
6.6.1	win	2022-12-15	17:19:32	17:23:29	234363	60f31196cf392939a843ab34	880649727	1	practice_slash	5	practice_slash	19	stimuli_distractor_trianglediamonds.svg	stimuli_distractor_trianglediamonds.svg	15	no	0	1	2000
6.6.1	win	2022-12-15	17:19:32	17:23:29	234363	60f31196cf392939a843ab34	880649727	1	practice_slash	5	advance_on_keypress_SLASH	20	stimuli_distractor_trianglediamonds.svg	stimuli_distractor_trianglediamonds.svg	15	no	57	0	461
6.6.1	win	2022-12-15	17:19:32	17:23:33	238482	60f31196cf392939a843ab34	880649727	1	practice_slash	5	practice_slash	21	stimuli_distractor_trianglediamonds.svg	stimuli_target_diamondcircles.svg	12	yes	0	0	2000
6.6.1	win	2022-12-15	17:19:32	17:23:33	238482	60f31196cf392939a843ab34	880649727	1	practice_slash	5	advance_on_keypress_SLASH	22	stimuli_distractor_trianglediamonds.svg	stimuli_target_diamondcircles.svg	12	yes	57	0	517
6.6.1	win	2022-12-15	17:19:32	17:23:36	241655	60f31196cf392939a843ab34	880649727	1	practice_slash	5	practice_slash	23	stimuli_target_circlediamonds.svg	stimuli_distractor_diamondtriangles.svg	1	yes	53	1	1007
6.6.1	win	2022-12-15	17:19:32	17:23:36	241655	60f31196cf392939a843ab34	880649727	1	practice_slash	5	advance_on_keypress_SLASH	24	stimuli_target_circlediamonds.svg	stimuli_distractor_diamondtriangles.svg	1	yes	57	0	303
6.6.1	win	2022-12-15	17:19:32	17:23:39	244657	60f31196cf392939a843ab34	880649727	1	practice_slash	5	practice_slash	25	stimuli_distractor_diamondtriangles.svg	stimuli_target_diamondcircles.svg	8	yes	53	1	1058
6.6.1	win	2022-12-15	17:19:32	17:23:39	244657	60f31196cf392939a843ab34	880649727	1	practice_slash	5	advance_on_keypress_SLASH	26	stimuli_distractor_diamondtriangles.svg	stimuli_target_diamondcircles.svg	8	yes	57	0	499
6.6.1	win	2022-12-15	17:19:32	17:23:42	247521	60f31196cf392939a843ab34	880649727	1	practice_slash	5	practice_slash	27	stimuli_distractor_diamondtriangles.svg	stimuli_target_circletriangles.svg	7	yes	53	1	708
6.6.1	win	2022-12-15	17:19:32	17:23:42	247521	60f31196cf392939a843ab34	880649727	1	practice_slash	5	advance_on_keypress_SLASH	28	stimuli_distractor_diamondtriangles.svg	stimuli_target_circletriangles.svg	7	yes	57	0	267
6.6.1	win	2022-12-15	17:19:32	17:23:45	250188	60f31196cf392939a843ab34	880649727	1	practice_slash	5	practice_slash	29	stimuli_distractor_diamondtriangles.svg	stimuli_target_trianglecircles.svg	9	yes	53	1	759
6.6.1	win	2022-12-15	17:19:32	17:23:45	250188	60f31196cf392939a843ab34	880649727	1	practice_slash	5	advance_on_keypress_SLASH	30	stimuli_distractor_diamondtriangles.svg	stimuli_target_trianglecircles.svg	9	yes	57	0	666
6.6.1	win	2022-12-15	17:19:32	17:23:48	253333	60f31196cf392939a843ab34	880649727	1	practice_slash	5	practice_slash	31	stimuli_target_diamondsquares.svg	stimuli_distractor_trianglediamonds.svg	6	yes	53	1	836
6.6.1	win	2022-12-15	17:19:32	17:23:48	253333	60f31196cf392939a843ab34	880649727	1	practice_slash	5	advance_on_keypress_SLASH	32	stimuli_target_diamondsquares.svg	stimuli_distractor_trianglediamonds.svg	6	yes	57	0	828
6.6.1	win	2022-12-15	17:19:32	17:24:01	265933	60f31196cf392939a843ab34	880649727	1	main_slash	7	main_slash	1	stimuli_distractor_trianglediamonds.svg	stimuli_target_squaretriangles.svg	11	yes	53	1	1988
6.6.1	win	2022-12-15	17:19:32	17:24:01	265933	60f31196cf392939a843ab34	880649727	1	main_slash	7	advance_on_keypress_SLASH	2	stimuli_distractor_trianglediamonds.svg	stimuli_target_squaretriangles.svg	11	yes	57	0	958
6.6.1	win	2022-12-15	17:19:32	17:24:04	269050	60f31196cf392939a843ab34	880649727	1	main_slash	7	main_slash	3	stimuli_distractor_diamondtriangles.svg	stimuli_distractor_diamondtriangles.svg	40	no	53	0	1522
6.6.1	win	2022-12-15	17:19:32	17:24:04	269050	60f31196cf392939a843ab34	880649727	1	main_slash	7	advance_on_keypress_SLASH	4	stimuli_distractor_diamondtriangles.svg	stimuli_distractor_diamondtriangles.svg	40	no	57	0	1151
6.6.1	win	2022-12-15	17:19:32	17:24:07	271729	60f31196cf392939a843ab34	880649727	1	main_slash	7	main_slash	5	stimuli_target_circlediamonds.svg	stimuli_distractor_diamondtriangles.svg	6	yes	53	1	883
6.6.1	win	2022-12-15	17:19:32	17:24:07	271729	60f31196cf392939a843ab34	880649727	1	main_slash	7	advance_on_keypress_SLASH	6	stimuli_target_circlediamonds.svg	stimuli_distractor_diamondtriangles.svg	6	yes	57	0	625
6.6.1	win	2022-12-15	17:19:32	17:24:08	273637	60f31196cf392939a843ab34	880649727	1	main_slash	7	main_slash	7	stimuli_target_squarediamonds.svg	stimuli_distractor_diamondtriangles.svg	8	yes	53	1	641
6.6.1	win	2022-12-15	17:19:32	17:24:08	273637	60f31196cf392939a843ab34	880649727	1	main_slash	7	advance_on_keypress_SLASH	8	stimuli_target_squarediamonds.svg	stimuli_distractor_diamondtriangles.svg	8	yes	57	0	497
6.6.1	win	2022-12-15	17:19:32	17:24:10	275425	60f31196cf392939a843ab34	880649727	1	main_slash	7	main_slash	9	stimuli_target_trianglecircles.svg	stimuli_distractor_diamondtriangles.svg	21	yes	53	1	647
6.6.1	win	2022-12-15	17:19:32	17:24:10	275425	60f31196cf392939a843ab34	880649727	1	main_slash	7	advance_on_keypress_SLASH	10	stimuli_target_trianglecircles.svg	stimuli_distractor_diamondtriangles.svg	21	yes	57	0	447
6.6.1	win	2022-12-15	17:19:32	17:24:12	277371	60f31196cf392939a843ab34	880649727	1	main_slash	7	main_slash	11	stimuli_distractor_trianglediamonds.svg	stimuli_distractor_trianglediamonds.svg	34	no	53	0	842
6.6.1	win	2022-12-15	17:19:32	17:24:12	277371	60f31196cf392939a843ab34	880649727	1	main_slash	7	advance_on_keypress_SLASH	12	stimuli_distractor_trianglediamonds.svg	stimuli_distractor_trianglediamonds.svg	34	no	57	0	452
6.6.1	win	2022-12-15	17:19:32	17:24:14	279329	60f31196cf392939a843ab34	880649727	1	main_slash	7	main_slash	13	stimuli_distractor_diamondtriangles.svg	stimuli_target_trianglecircles.svg	29	yes	53	1	867
6.6.1	win	2022-12-15	17:19:32	17:24:14	279329	60f31196cf392939a843ab34	880649727	1	main_slash	7	advance_on_keypress_SLASH	14	stimuli_distractor_diamondtriangles.svg	stimuli_target_trianglecircles.svg	29	yes	57	0	367
6.6.1	win	2022-12-15	17:19:32	17:24:16	281324	60f31196cf392939a843ab34	880649727	1	main_slash	7	main_slash	15	stimuli_distractor_diamondtriangles.svg	stimuli_target_diamondcircles.svg	31	yes	53	1	979
6.6.1	win	2022-12-15	17:19:32	17:24:16	281324	60f31196cf392939a843ab34	880649727	1	main_slash	7	advance_on_keypress_SLASH	16	stimuli_distractor_diamondtriangles.svg	stimuli_target_diamondcircles.svg	31	yes	57	0	338
6.6.1	win	2022-12-15	17:19:32	17:24:18	283176	60f31196cf392939a843ab34	880649727	1	main_slash	7	main_slash	17	stimuli_target_circlediamonds.svg	stimuli_distractor_trianglediamonds.svg	2	yes	53	1	865
6.6.1	win	2022-12-15	17:19:32	17:24:18	283176	60f31196cf392939a843ab34	880649727	1	main_slash	7	advance_on_keypress_SLASH	18	stimuli_target_circlediamonds.svg	stimuli_distractor_trianglediamonds.svg	2	yes	57	0	370
6.6.1	win	2022-12-15	17:19:32	17:24:20	285161	60f31196cf392939a843ab34	880649727	1	main_slash	7	main_slash	19	stimuli_distractor_trianglediamonds.svg	stimuli_target_trianglesquares.svg	26	yes	53	1	966
6.6.1	win	2022-12-15	17:19:32	17:24:20	285161	60f31196cf392939a843ab34	880649727	1	main_slash	7	advance_on_keypress_SLASH	20	stimuli_distractor_trianglediamonds.svg	stimuli_target_trianglesquares.svg	26	yes	57	0	379
6.6.1	win	2022-12-15	17:19:32	17:24:22	287020	60f31196cf392939a843ab34	880649727	1	main_slash	7	main_slash	21	stimuli_distractor_diamondtriangles.svg	stimuli_target_squarediamonds.svg	16	yes	53	1	825
6.6.1	win	2022-12-15	17:19:32	17:24:22	287020	60f31196cf392939a843ab34	880649727	1	main_slash	7	advance_on_keypress_SLASH	22	stimuli_distractor_diamondtriangles.svg	stimuli_target_squarediamonds.svg	16	yes	57	0	375
6.6.1	win	2022-12-15	17:19:32	17:24:25	290028	60f31196cf392939a843ab34	880649727	1	main_slash	7	main_slash	23	stimuli_distractor_trianglediamonds.svg	stimuli_distractor_diamondtriangles.svg	35	no	0	1	2000
6.6.1	win	2022-12-15	17:19:32	17:24:25	290028	60f31196cf392939a843ab34	880649727	1	main_slash	7	advance_on_keypress_SLASH	24	stimuli_distractor_trianglediamonds.svg	stimuli_distractor_diamondtriangles.svg	35	no	57	0	555
6.6.1	win	2022-12-15	17:19:32	17:24:27	291918	60f31196cf392939a843ab34	880649727	1	main_slash	7	main_slash	25	stimuli_target_squarediamonds.svg	stimuli_distractor_trianglediamonds.svg	4	yes	53	1	690
6.6.1	win	2022-12-15	17:19:32	17:24:27	291918	60f31196cf392939a843ab34	880649727	1	main_slash	7	advance_on_keypress_SLASH	26	stimuli_target_squarediamonds.svg	stimuli_distractor_trianglediamonds.svg	4	yes	57	0	378
6.6.1	win	2022-12-15	17:19:32	17:24:29	293815	60f31196cf392939a843ab34	880649727	1	main_slash	7	main_slash	27	stimuli_distractor_diamondtriangles.svg	stimuli_target_squaretriangles.svg	15	yes	53	1	869
6.6.1	win	2022-12-15	17:19:32	17:24:29	293815	60f31196cf392939a843ab34	880649727	1	main_slash	7	advance_on_keypress_SLASH	28	stimuli_distractor_diamondtriangles.svg	stimuli_target_squaretriangles.svg	15	yes	57	0	346
6.6.1	win	2022-12-15	17:19:32	17:24:31	295730	60f31196cf392939a843ab34	880649727	1	main_slash	7	main_slash	29	stimuli_distractor_diamondtriangles.svg	stimuli_target_diamondsquares.svg	32	yes	53	1	918
6.6.1	win	2022-12-15	17:19:32	17:24:31	295730	60f31196cf392939a843ab34	880649727	1	main_slash	7	advance_on_keypress_SLASH	30	stimuli_distractor_diamondtriangles.svg	stimuli_target_diamondsquares.svg	32	yes	57	0	325
6.6.1	win	2022-12-15	17:19:32	17:24:32	297505	60f31196cf392939a843ab34	880649727	1	main_slash	7	main_slash	31	stimuli_distractor_trianglediamonds.svg	stimuli_target_circletriangles.svg	9	yes	53	1	809
6.6.1	win	2022-12-15	17:19:32	17:24:32	297505	60f31196cf392939a843ab34	880649727	1	main_slash	7	advance_on_keypress_SLASH	32	stimuli_distractor_trianglediamonds.svg	stimuli_target_circletriangles.svg	9	yes	57	0	368
6.6.1	win	2022-12-15	17:19:32	17:24:34	299357	60f31196cf392939a843ab34	880649727	1	main_slash	7	main_slash	33	stimuli_target_diamondcircles.svg	stimuli_distractor_diamondtriangles.svg	23	yes	53	1	845
6.6.1	win	2022-12-15	17:19:32	17:24:34	299357	60f31196cf392939a843ab34	880649727	1	main_slash	7	advance_on_keypress_SLASH	34	stimuli_target_diamondcircles.svg	stimuli_distractor_diamondtriangles.svg	23	yes	57	0	307
6.6.1	win	2022-12-15	17:19:32	17:24:37	302012	60f31196cf392939a843ab34	880649727	1	main_slash	7	main_slash	35	stimuli_target_trianglesquares.svg	stimuli_distractor_trianglediamonds.svg	18	yes	53	1	1699
6.6.1	win	2022-12-15	17:19:32	17:24:37	302012	60f31196cf392939a843ab34	880649727	1	main_slash	7	advance_on_keypress_SLASH	36	stimuli_target_trianglesquares.svg	stimuli_distractor_trianglediamonds.svg	18	yes	57	0	1210
6.6.1	win	2022-12-15	17:19:32	17:24:40	304706	60f31196cf392939a843ab34	880649727	1	main_slash	7	main_slash	37	stimuli_target_circletriangles.svg	stimuli_distractor_trianglediamonds.svg	1	yes	53	1	844
6.6.1	win	2022-12-15	17:19:32	17:24:40	304706	60f31196cf392939a843ab34	880649727	1	main_slash	7	advance_on_keypress_SLASH	38	stimuli_target_circletriangles.svg	stimuli_distractor_trianglediamonds.svg	1	yes	57	0	441
6.6.1	win	2022-12-15	17:19:32	17:24:41	306614	60f31196cf392939a843ab34	880649727	1	main_slash	7	main_slash	39	stimuli_target_trianglecircles.svg	stimuli_distractor_trianglediamonds.svg	17	yes	53	1	819
6.6.1	win	2022-12-15	17:19:32	17:24:41	306614	60f31196cf392939a843ab34	880649727	1	main_slash	7	advance_on_keypress_SLASH	40	stimuli_target_trianglecircles.svg	stimuli_distractor_trianglediamonds.svg	17	yes	57	0	365
6.6.1	win	2022-12-15	17:19:32	17:24:44	309628	60f31196cf392939a843ab34	880649727	1	main_slash	7	main_slash	41	stimuli_distractor_diamondtriangles.svg	stimuli_distractor_trianglediamonds.svg	38	no	0	1	2000
6.6.1	win	2022-12-15	17:19:32	17:24:44	309628	60f31196cf392939a843ab34	880649727	1	main_slash	7	advance_on_keypress_SLASH	42	stimuli_distractor_diamondtriangles.svg	stimuli_distractor_trianglediamonds.svg	38	no	57	0	722
6.6.1	win	2022-12-15	17:19:32	17:24:46	311661	60f31196cf392939a843ab34	880649727	1	main_slash	7	main_slash	43	stimuli_target_squaretriangles.svg	stimuli_distractor_trianglediamonds.svg	3	yes	53	1	666
6.6.1	win	2022-12-15	17:19:32	17:24:46	311661	60f31196cf392939a843ab34	880649727	1	main_slash	7	advance_on_keypress_SLASH	44	stimuli_target_squaretriangles.svg	stimuli_distractor_trianglediamonds.svg	3	yes	57	0	355
6.6.1	win	2022-12-15	17:19:32	17:24:49	313859	60f31196cf392939a843ab34	880649727	1	main_slash	7	main_slash	45	stimuli_distractor_diamondtriangles.svg	stimuli_target_trianglesquares.svg	30	yes	53	1	1196
6.6.1	win	2022-12-15	17:19:32	17:24:49	313859	60f31196cf392939a843ab34	880649727	1	main_slash	7	advance_on_keypress_SLASH	46	stimuli_distractor_diamondtriangles.svg	stimuli_target_trianglesquares.svg	30	yes	57	0	683
6.6.1	win	2022-12-15	17:19:32	17:24:52	317195	60f31196cf392939a843ab34	880649727	1	main_slash	7	main_slash	47	stimuli_distractor_diamondtriangles.svg	stimuli_distractor_trianglediamonds.svg	37	no	0	1	2000
6.6.1	win	2022-12-15	17:19:32	17:24:52	317195	60f31196cf392939a843ab34	880649727	1	main_slash	7	advance_on_keypress_SLASH	48	stimuli_distractor_diamondtriangles.svg	stimuli_distractor_trianglediamonds.svg	37	no	57	0	372
6.6.1	win	2022-12-15	17:19:32	17:24:54	319167	60f31196cf392939a843ab34	880649727	1	main_slash	7	main_slash	49	stimuli_distractor_diamondtriangles.svg	stimuli_target_circletriangles.svg	13	yes	53	1	955
6.6.1	win	2022-12-15	17:19:32	17:24:54	319167	60f31196cf392939a843ab34	880649727	1	main_slash	7	advance_on_keypress_SLASH	50	stimuli_distractor_diamondtriangles.svg	stimuli_target_circletriangles.svg	13	yes	57	0	335
6.6.1	win	2022-12-15	17:19:32	17:24:56	321190	60f31196cf392939a843ab34	880649727	1	main_slash	7	main_slash	51	stimuli_distractor_trianglediamonds.svg	stimuli_target_squarediamonds.svg	12	yes	53	1	1045
6.6.1	win	2022-12-15	17:19:32	17:24:56	321190	60f31196cf392939a843ab34	880649727	1	main_slash	7	advance_on_keypress_SLASH	52	stimuli_distractor_trianglediamonds.svg	stimuli_target_squarediamonds.svg	12	yes	57	0	298
6.6.1	win	2022-12-15	17:19:32	17:24:58	322988	60f31196cf392939a843ab34	880649727	1	main_slash	7	main_slash	53	stimuli_distractor_trianglediamonds.svg	stimuli_target_diamondcircles.svg	27	yes	53	1	843
6.6.1	win	2022-12-15	17:19:32	17:24:58	322988	60f31196cf392939a843ab34	880649727	1	main_slash	7	advance_on_keypress_SLASH	54	stimuli_distractor_trianglediamonds.svg	stimuli_target_diamondcircles.svg	27	yes	57	0	335
6.6.1	win	2022-12-15	17:19:32	17:25:01	325962	60f31196cf392939a843ab34	880649727	1	main_slash	7	main_slash	55	stimuli_distractor_trianglediamonds.svg	stimuli_distractor_diamondtriangles.svg	36	no	0	1	2000
6.6.1	win	2022-12-15	17:19:32	17:25:01	325962	60f31196cf392939a843ab34	880649727	1	main_slash	7	advance_on_keypress_SLASH	56	stimuli_distractor_trianglediamonds.svg	stimuli_distractor_diamondtriangles.svg	36	no	57	0	617
6.6.1	win	2022-12-15	17:19:32	17:25:03	328083	60f31196cf392939a843ab34	880649727	1	main_slash	7	main_slash	57	stimuli_target_diamondcircles.svg	stimuli_distractor_trianglediamonds.svg	19	yes	53	1	854
6.6.1	win	2022-12-15	17:19:32	17:25:03	328083	60f31196cf392939a843ab34	880649727	1	main_slash	7	advance_on_keypress_SLASH	58	stimuli_target_diamondcircles.svg	stimuli_distractor_trianglediamonds.svg	19	yes	57	0	301
6.6.1	win	2022-12-15	17:19:32	17:25:05	329922	60f31196cf392939a843ab34	880649727	1	main_slash	7	main_slash	59	stimuli_target_squaretriangles.svg	stimuli_distractor_diamondtriangles.svg	7	yes	53	1	893
6.6.1	win	2022-12-15	17:19:32	17:25:05	329922	60f31196cf392939a843ab34	880649727	1	main_slash	7	advance_on_keypress_SLASH	60	stimuli_target_squaretriangles.svg	stimuli_distractor_diamondtriangles.svg	7	yes	57	0	321
6.6.1	win	2022-12-15	17:19:32	17:25:07	331723	60f31196cf392939a843ab34	880649727	1	main_slash	7	main_slash	61	stimuli_distractor_diamondtriangles.svg	stimuli_target_circlediamonds.svg	14	yes	53	1	843
6.6.1	win	2022-12-15	17:19:32	17:25:07	331723	60f31196cf392939a843ab34	880649727	1	main_slash	7	advance_on_keypress_SLASH	62	stimuli_distractor_diamondtriangles.svg	stimuli_target_circlediamonds.svg	14	yes	57	0	287
6.6.1	win	2022-12-15	17:19:32	17:25:09	334661	60f31196cf392939a843ab34	880649727	1	main_slash	7	main_slash	63	stimuli_distractor_trianglediamonds.svg	stimuli_distractor_trianglediamonds.svg	33	no	0	1	2000
6.6.1	win	2022-12-15	17:19:32	17:25:09	334661	60f31196cf392939a843ab34	880649727	1	main_slash	7	advance_on_keypress_SLASH	64	stimuli_distractor_trianglediamonds.svg	stimuli_distractor_trianglediamonds.svg	33	no	57	0	408
6.6.1	win	2022-12-15	17:19:32	17:25:11	336586	60f31196cf392939a843ab34	880649727	1	main_slash	7	main_slash	65	stimuli_distractor_trianglediamonds.svg	stimuli_target_diamondsquares.svg	28	yes	53	1	874
6.6.1	win	2022-12-15	17:19:32	17:25:11	336586	60f31196cf392939a843ab34	880649727	1	main_slash	7	advance_on_keypress_SLASH	66	stimuli_distractor_trianglediamonds.svg	stimuli_target_diamondsquares.svg	28	yes	57	0	643
6.6.1	win	2022-12-15	17:19:32	17:25:13	338629	60f31196cf392939a843ab34	880649727	1	main_slash	7	main_slash	67	stimuli_target_trianglesquares.svg	stimuli_distractor_diamondtriangles.svg	22	yes	53	1	767
6.6.1	win	2022-12-15	17:19:32	17:25:13	338629	60f31196cf392939a843ab34	880649727	1	main_slash	7	advance_on_keypress_SLASH	68	stimuli_target_trianglesquares.svg	stimuli_distractor_diamondtriangles.svg	22	yes	57	0	426
6.6.1	win	2022-12-15	17:19:32	17:25:15	340537	60f31196cf392939a843ab34	880649727	1	main_slash	7	main_slash	69	stimuli_target_diamondsquares.svg	stimuli_distractor_trianglediamonds.svg	20	yes	53	1	841
6.6.1	win	2022-12-15	17:19:32	17:25:15	340537	60f31196cf392939a843ab34	880649727	1	main_slash	7	advance_on_keypress_SLASH	70	stimuli_target_diamondsquares.svg	stimuli_distractor_trianglediamonds.svg	20	yes	57	0	368
6.6.1	win	2022-12-15	17:19:32	17:25:17	342610	60f31196cf392939a843ab34	880649727	1	main_slash	7	main_slash	71	stimuli_target_diamondsquares.svg	stimuli_distractor_diamondtriangles.svg	24	yes	53	1	1065
6.6.1	win	2022-12-15	17:19:32	17:25:17	342610	60f31196cf392939a843ab34	880649727	1	main_slash	7	advance_on_keypress_SLASH	72	stimuli_target_diamondsquares.svg	stimuli_distractor_diamondtriangles.svg	24	yes	57	0	316
6.6.1	win	2022-12-15	17:19:32	17:25:20	345578	60f31196cf392939a843ab34	880649727	1	main_slash	7	main_slash	73	stimuli_distractor_diamondtriangles.svg	stimuli_distractor_diamondtriangles.svg	39	no	0	1	2000
6.6.1	win	2022-12-15	17:19:32	17:25:20	345578	60f31196cf392939a843ab34	880649727	1	main_slash	7	advance_on_keypress_SLASH	74	stimuli_distractor_diamondtriangles.svg	stimuli_distractor_diamondtriangles.svg	39	no	57	0	565
6.6.1	win	2022-12-15	17:19:32	17:25:22	347573	60f31196cf392939a843ab34	880649727	1	main_slash	7	main_slash	75	stimuli_distractor_trianglediamonds.svg	stimuli_target_trianglecircles.svg	25	yes	53	1	777
6.6.1	win	2022-12-15	17:19:32	17:25:22	347573	60f31196cf392939a843ab34	880649727	1	main_slash	7	advance_on_keypress_SLASH	76	stimuli_distractor_trianglediamonds.svg	stimuli_target_trianglecircles.svg	25	yes	57	0	347
6.6.1	win	2022-12-15	17:19:32	17:25:24	349440	60f31196cf392939a843ab34	880649727	1	main_slash	7	main_slash	77	stimuli_distractor_trianglediamonds.svg	stimuli_target_circlediamonds.svg	10	yes	53	1	862
6.6.1	win	2022-12-15	17:19:32	17:25:24	349440	60f31196cf392939a843ab34	880649727	1	main_slash	7	advance_on_keypress_SLASH	78	stimuli_distractor_trianglediamonds.svg	stimuli_target_circlediamonds.svg	10	yes	57	0	329
6.6.1	win	2022-12-15	17:19:32	17:25:26	351332	60f31196cf392939a843ab34	880649727	1	main_slash	7	main_slash	79	stimuli_target_circletriangles.svg	stimuli_distractor_diamondtriangles.svg	5	yes	53	1	904
6.6.1	win	2022-12-15	17:19:32	17:25:26	351332	60f31196cf392939a843ab34	880649727	1	main_slash	7	advance_on_keypress_SLASH	80	stimuli_target_circletriangles.svg	stimuli_distractor_diamondtriangles.svg	5	yes	57	0	356
6.6.1	win	2022-12-15	17:19:32	17:25:29	354328	60f31196cf392939a843ab34	880649727	1	main_slash	7	main_slash	81	stimuli_distractor_diamondtriangles.svg	stimuli_distractor_diamondtriangles.svg	39	no	0	1	2000
6.6.1	win	2022-12-15	17:19:32	17:25:29	354328	60f31196cf392939a843ab34	880649727	1	main_slash	7	advance_on_keypress_SLASH	82	stimuli_distractor_diamondtriangles.svg	stimuli_distractor_diamondtriangles.svg	39	no	57	0	366
6.6.1	win	2022-12-15	17:19:32	17:25:31	356262	60f31196cf392939a843ab34	880649727	1	main_slash	7	main_slash	83	stimuli_target_diamondsquares.svg	stimuli_distractor_trianglediamonds.svg	20	yes	53	1	917
6.6.1	win	2022-12-15	17:19:32	17:25:31	356262	60f31196cf392939a843ab34	880649727	1	main_slash	7	advance_on_keypress_SLASH	84	stimuli_target_diamondsquares.svg	stimuli_distractor_trianglediamonds.svg	20	yes	57	0	318
6.6.1	win	2022-12-15	17:19:32	17:25:33	358094	60f31196cf392939a843ab34	880649727	1	main_slash	7	main_slash	85	stimuli_target_squaretriangles.svg	stimuli_distractor_trianglediamonds.svg	3	yes	53	1	866
6.6.1	win	2022-12-15	17:19:32	17:25:33	358094	60f31196cf392939a843ab34	880649727	1	main_slash	7	advance_on_keypress_SLASH	86	stimuli_target_squaretriangles.svg	stimuli_distractor_trianglediamonds.svg	3	yes	57	0	368
6.6.1	win	2022-12-15	17:19:32	17:25:35	359994	60f31196cf392939a843ab34	880649727	1	main_slash	7	main_slash	87	stimuli_distractor_diamondtriangles.svg	stimuli_target_diamondcircles.svg	31	yes	53	1	882
6.6.1	win	2022-12-15	17:19:32	17:25:35	359994	60f31196cf392939a843ab34	880649727	1	main_slash	7	advance_on_keypress_SLASH	88	stimuli_distractor_diamondtriangles.svg	stimuli_target_diamondcircles.svg	31	yes	57	0	330
6.6.1	win	2022-12-15	17:19:32	17:25:37	361868	60f31196cf392939a843ab34	880649727	1	main_slash	7	main_slash	89	stimuli_target_squarediamonds.svg	stimuli_distractor_diamondtriangles.svg	8	yes	53	1	889
6.6.1	win	2022-12-15	17:19:32	17:25:37	361868	60f31196cf392939a843ab34	880649727	1	main_slash	7	advance_on_keypress_SLASH	90	stimuli_target_squarediamonds.svg	stimuli_distractor_diamondtriangles.svg	8	yes	57	0	319
6.6.1	win	2022-12-15	17:19:32	17:25:39	363717	60f31196cf392939a843ab34	880649727	1	main_slash	7	main_slash	91	stimuli_distractor_diamondtriangles.svg	stimuli_target_squarediamonds.svg	16	yes	53	1	889
6.6.1	win	2022-12-15	17:19:32	17:25:39	363717	60f31196cf392939a843ab34	880649727	1	main_slash	7	advance_on_keypress_SLASH	92	stimuli_distractor_diamondtriangles.svg	stimuli_target_squarediamonds.svg	16	yes	57	0	359
6.6.1	win	2022-12-15	17:19:32	17:25:40	365583	60f31196cf392939a843ab34	880649727	1	main_slash	7	main_slash	93	stimuli_target_trianglecircles.svg	stimuli_distractor_diamondtriangles.svg	21	yes	53	1	871
6.6.1	win	2022-12-15	17:19:32	17:25:40	365583	60f31196cf392939a843ab34	880649727	1	main_slash	7	advance_on_keypress_SLASH	94	stimuli_target_trianglecircles.svg	stimuli_distractor_diamondtriangles.svg	21	yes	57	0	396
6.6.1	win	2022-12-15	17:19:32	17:25:43	368629	60f31196cf392939a843ab34	880649727	1	main_slash	7	main_slash	95	stimuli_distractor_diamondtriangles.svg	stimuli_distractor_diamondtriangles.svg	40	no	0	1	2000
6.6.1	win	2022-12-15	17:19:32	17:25:43	368629	60f31196cf392939a843ab34	880649727	1	main_slash	7	advance_on_keypress_SLASH	96	stimuli_distractor_diamondtriangles.svg	stimuli_distractor_diamondtriangles.svg	40	no	57	0	1040
6.6.1	win	2022-12-15	17:19:32	17:25:46	371113	60f31196cf392939a843ab34	880649727	1	main_slash	7	main_slash	97	stimuli_distractor_diamondtriangles.svg	stimuli_target_circlediamonds.svg	14	yes	53	1	800
6.6.1	win	2022-12-15	17:19:32	17:25:46	371113	60f31196cf392939a843ab34	880649727	1	main_slash	7	advance_on_keypress_SLASH	98	stimuli_distractor_diamondtriangles.svg	stimuli_target_circlediamonds.svg	14	yes	57	0	354
6.6.1	win	2022-12-15	17:19:32	17:25:48	373013	60f31196cf392939a843ab34	880649727	1	main_slash	7	main_slash	99	stimuli_target_circletriangles.svg	stimuli_distractor_trianglediamonds.svg	1	yes	53	1	902
6.6.1	win	2022-12-15	17:19:32	17:25:48	373013	60f31196cf392939a843ab34	880649727	1	main_slash	7	advance_on_keypress_SLASH	100	stimuli_target_circletriangles.svg	stimuli_distractor_trianglediamonds.svg	1	yes	57	0	295
6.6.1	win	2022-12-15	17:19:32	17:25:50	374722	60f31196cf392939a843ab34	880649727	1	main_slash	7	main_slash	101	stimuli_distractor_trianglediamonds.svg	stimuli_distractor_diamondtriangles.svg	35	no	53	0	760
6.6.1	win	2022-12-15	17:19:32	17:25:50	374722	60f31196cf392939a843ab34	880649727	1	main_slash	7	advance_on_keypress_SLASH	102	stimuli_distractor_trianglediamonds.svg	stimuli_distractor_diamondtriangles.svg	35	no	57	0	1936
6.6.1	win	2022-12-15	17:19:32	17:25:53	378155	60f31196cf392939a843ab34	880649727	1	main_slash	7	main_slash	103	stimuli_distractor_trianglediamonds.svg	stimuli_target_trianglecircles.svg	25	yes	53	1	843
6.6.1	win	2022-12-15	17:19:32	17:25:53	378155	60f31196cf392939a843ab34	880649727	1	main_slash	7	advance_on_keypress_SLASH	104	stimuli_distractor_trianglediamonds.svg	stimuli_target_trianglecircles.svg	25	yes	57	0	1177
6.6.1	win	2022-12-15	17:19:32	17:25:56	380860	60f31196cf392939a843ab34	880649727	1	main_slash	7	main_slash	105	stimuli_distractor_trianglediamonds.svg	stimuli_target_diamondsquares.svg	28	yes	53	1	798
6.6.1	win	2022-12-15	17:19:32	17:25:56	380860	60f31196cf392939a843ab34	880649727	1	main_slash	7	advance_on_keypress_SLASH	106	stimuli_distractor_trianglediamonds.svg	stimuli_target_diamondsquares.svg	28	yes	57	0	349
6.6.1	win	2022-12-15	17:19:32	17:25:58	382730	60f31196cf392939a843ab34	880649727	1	main_slash	7	main_slash	107	stimuli_target_diamondcircles.svg	stimuli_distractor_trianglediamonds.svg	19	yes	53	1	868
6.6.1	win	2022-12-15	17:19:32	17:25:58	382730	60f31196cf392939a843ab34	880649727	1	main_slash	7	advance_on_keypress_SLASH	108	stimuli_target_diamondcircles.svg	stimuli_distractor_trianglediamonds.svg	19	yes	57	0	324
6.6.1	win	2022-12-15	17:19:32	17:26:00	385695	60f31196cf392939a843ab34	880649727	1	main_slash	7	main_slash	109	stimuli_distractor_trianglediamonds.svg	stimuli_distractor_trianglediamonds.svg	33	no	0	1	2000
6.6.1	win	2022-12-15	17:19:32	17:26:00	385695	60f31196cf392939a843ab34	880649727	1	main_slash	7	advance_on_keypress_SLASH	110	stimuli_distractor_trianglediamonds.svg	stimuli_distractor_trianglediamonds.svg	33	no	57	0	454
6.6.1	win	2022-12-15	17:19:32	17:26:02	387623	60f31196cf392939a843ab34	880649727	1	main_slash	7	main_slash	111	stimuli_target_diamondcircles.svg	stimuli_distractor_diamondtriangles.svg	23	yes	53	1	828
6.6.1	win	2022-12-15	17:19:32	17:26:02	387623	60f31196cf392939a843ab34	880649727	1	main_slash	7	advance_on_keypress_SLASH	112	stimuli_target_diamondcircles.svg	stimuli_distractor_diamondtriangles.svg	23	yes	57	0	440
6.6.1	win	2022-12-15	17:19:32	17:26:04	389537	60f31196cf392939a843ab34	880649727	1	main_slash	7	main_slash	113	stimuli_distractor_diamondtriangles.svg	stimuli_target_trianglecircles.svg	29	yes	53	1	826
6.6.1	win	2022-12-15	17:19:32	17:26:04	389537	60f31196cf392939a843ab34	880649727	1	main_slash	7	advance_on_keypress_SLASH	114	stimuli_distractor_diamondtriangles.svg	stimuli_target_trianglecircles.svg	29	yes	57	0	409
6.6.1	win	2022-12-15	17:19:32	17:26:06	391641	60f31196cf392939a843ab34	880649727	1	main_slash	7	main_slash	115	stimuli_distractor_diamondtriangles.svg	stimuli_distractor_trianglediamonds.svg	38	no	53	0	1063
6.6.1	win	2022-12-15	17:19:32	17:26:06	391641	60f31196cf392939a843ab34	880649727	1	main_slash	7	advance_on_keypress_SLASH	116	stimuli_distractor_diamondtriangles.svg	stimuli_distractor_trianglediamonds.svg	38	no	57	0	731
6.6.1	win	2022-12-15	17:19:32	17:26:09	394031	60f31196cf392939a843ab34	880649727	1	main_slash	7	main_slash	117	stimuli_distractor_trianglediamonds.svg	stimuli_target_circlediamonds.svg	10	yes	53	1	1002
6.6.1	win	2022-12-15	17:19:32	17:26:09	394031	60f31196cf392939a843ab34	880649727	1	main_slash	7	advance_on_keypress_SLASH	118	stimuli_distractor_trianglediamonds.svg	stimuli_target_circlediamonds.svg	10	yes	57	0	438
6.6.1	win	2022-12-15	17:19:32	17:26:11	396022	60f31196cf392939a843ab34	880649727	1	main_slash	7	main_slash	119	stimuli_target_diamondsquares.svg	stimuli_distractor_diamondtriangles.svg	24	yes	53	1	910
6.6.1	win	2022-12-15	17:19:32	17:26:11	396022	60f31196cf392939a843ab34	880649727	1	main_slash	7	advance_on_keypress_SLASH	120	stimuli_target_diamondsquares.svg	stimuli_distractor_diamondtriangles.svg	24	yes	57	0	403
6.6.1	win	2022-12-15	17:19:32	17:26:13	397891	60f31196cf392939a843ab34	880649727	1	main_slash	7	main_slash	121	stimuli_distractor_trianglediamonds.svg	stimuli_target_trianglesquares.svg	26	yes	53	1	830
6.6.1	win	2022-12-15	17:19:32	17:26:13	397891	60f31196cf392939a843ab34	880649727	1	main_slash	7	advance_on_keypress_SLASH	122	stimuli_distractor_trianglediamonds.svg	stimuli_target_trianglesquares.svg	26	yes	57	0	379
6.6.1	win	2022-12-15	17:19:32	17:26:15	400308	60f31196cf392939a843ab34	880649727	1	main_slash	7	main_slash	123	stimuli_distractor_diamondtriangles.svg	stimuli_distractor_trianglediamonds.svg	37	no	53	0	1380
6.6.1	win	2022-12-15	17:19:32	17:26:15	400308	60f31196cf392939a843ab34	880649727	1	main_slash	7	advance_on_keypress_SLASH	124	stimuli_distractor_diamondtriangles.svg	stimuli_distractor_trianglediamonds.svg	37	no	57	0	663
6.6.1	win	2022-12-15	17:19:32	17:26:17	402516	60f31196cf392939a843ab34	880649727	1	main_slash	7	main_slash	125	stimuli_target_trianglesquares.svg	stimuli_distractor_diamondtriangles.svg	22	yes	53	1	888
6.6.1	win	2022-12-15	17:19:32	17:26:17	402516	60f31196cf392939a843ab34	880649727	1	main_slash	7	advance_on_keypress_SLASH	126	stimuli_target_trianglesquares.svg	stimuli_distractor_diamondtriangles.svg	22	yes	57	0	372
6.6.1	win	2022-12-15	17:19:32	17:26:20	405528	60f31196cf392939a843ab34	880649727	1	main_slash	7	main_slash	127	stimuli_distractor_trianglediamonds.svg	stimuli_distractor_diamondtriangles.svg	36	no	0	1	2000
6.6.1	win	2022-12-15	17:19:32	17:26:20	405528	60f31196cf392939a843ab34	880649727	1	main_slash	7	advance_on_keypress_SLASH	128	stimuli_distractor_trianglediamonds.svg	stimuli_distractor_diamondtriangles.svg	36	no	57	0	494
6.6.1	win	2022-12-15	17:19:32	17:26:23	407932	60f31196cf392939a843ab34	880649727	1	main_slash	7	main_slash	129	stimuli_target_circletriangles.svg	stimuli_distractor_diamondtriangles.svg	5	yes	53	1	1270
6.6.1	win	2022-12-15	17:19:32	17:26:23	407932	60f31196cf392939a843ab34	880649727	1	main_slash	7	advance_on_keypress_SLASH	130	stimuli_target_circletriangles.svg	stimuli_distractor_diamondtriangles.svg	5	yes	57	0	480
6.6.1	win	2022-12-15	17:19:32	17:26:25	409972	60f31196cf392939a843ab34	880649727	1	main_slash	7	main_slash	131	stimuli_distractor_diamondtriangles.svg	stimuli_target_circletriangles.svg	13	yes	53	1	911
6.6.1	win	2022-12-15	17:19:32	17:26:25	409972	60f31196cf392939a843ab34	880649727	1	main_slash	7	advance_on_keypress_SLASH	132	stimuli_distractor_diamondtriangles.svg	stimuli_target_circletriangles.svg	13	yes	57	0	307
6.6.1	win	2022-12-15	17:19:32	17:26:27	411884	60f31196cf392939a843ab34	880649727	1	main_slash	7	main_slash	133	stimuli_target_squarediamonds.svg	stimuli_distractor_trianglediamonds.svg	4	yes	53	1	956
6.6.1	win	2022-12-15	17:19:32	17:26:27	411884	60f31196cf392939a843ab34	880649727	1	main_slash	7	advance_on_keypress_SLASH	134	stimuli_target_squarediamonds.svg	stimuli_distractor_trianglediamonds.svg	4	yes	57	0	358
6.6.1	win	2022-12-15	17:19:32	17:26:29	413786	60f31196cf392939a843ab34	880649727	1	main_slash	7	main_slash	135	stimuli_distractor_trianglediamonds.svg	stimuli_target_squarediamonds.svg	12	yes	53	1	908
6.6.1	win	2022-12-15	17:19:32	17:26:29	413786	60f31196cf392939a843ab34	880649727	1	main_slash	7	advance_on_keypress_SLASH	136	stimuli_distractor_trianglediamonds.svg	stimuli_target_squarediamonds.svg	12	yes	57	0	355
6.6.1	win	2022-12-15	17:19:32	17:26:31	416173	60f31196cf392939a843ab34	880649727	1	main_slash	7	main_slash	137	stimuli_target_circlediamonds.svg	stimuli_distractor_trianglediamonds.svg	2	yes	53	1	1395
6.6.1	win	2022-12-15	17:19:32	17:26:31	416173	60f31196cf392939a843ab34	880649727	1	main_slash	7	advance_on_keypress_SLASH	138	stimuli_target_circlediamonds.svg	stimuli_distractor_trianglediamonds.svg	2	yes	57	0	411
6.6.1	win	2022-12-15	17:19:32	17:26:33	418416	60f31196cf392939a843ab34	880649727	1	main_slash	7	main_slash	139	stimuli_target_circlediamonds.svg	stimuli_distractor_diamondtriangles.svg	6	yes	53	1	1188
6.6.1	win	2022-12-15	17:19:32	17:26:33	418416	60f31196cf392939a843ab34	880649727	1	main_slash	7	advance_on_keypress_SLASH	140	stimuli_target_circlediamonds.svg	stimuli_distractor_diamondtriangles.svg	6	yes	57	0	265
6.6.1	win	2022-12-15	17:19:32	17:26:35	420617	60f31196cf392939a843ab34	880649727	1	main_slash	7	main_slash	141	stimuli_distractor_trianglediamonds.svg	stimuli_target_diamondcircles.svg	27	yes	53	1	1288
6.6.1	win	2022-12-15	17:19:32	17:26:35	420617	60f31196cf392939a843ab34	880649727	1	main_slash	7	advance_on_keypress_SLASH	142	stimuli_distractor_trianglediamonds.svg	stimuli_target_diamondcircles.svg	27	yes	57	0	320
6.6.1	win	2022-12-15	17:19:32	17:26:38	423578	60f31196cf392939a843ab34	880649727	1	main_slash	7	main_slash	143	stimuli_distractor_trianglediamonds.svg	stimuli_target_squaretriangles.svg	11	yes	0	0	2000
6.6.1	win	2022-12-15	17:19:32	17:26:38	423578	60f31196cf392939a843ab34	880649727	1	main_slash	7	advance_on_keypress_SLASH	144	stimuli_distractor_trianglediamonds.svg	stimuli_target_squaretriangles.svg	11	yes	57	0	795
6.6.1	win	2022-12-15	17:19:32	17:26:41	425987	60f31196cf392939a843ab34	880649727	1	main_slash	7	main_slash	145	stimuli_target_trianglecircles.svg	stimuli_distractor_trianglediamonds.svg	17	yes	53	1	959
6.6.1	win	2022-12-15	17:19:32	17:26:41	425987	60f31196cf392939a843ab34	880649727	1	main_slash	7	advance_on_keypress_SLASH	146	stimuli_target_trianglecircles.svg	stimuli_distractor_trianglediamonds.svg	17	yes	57	0	284
6.6.1	win	2022-12-15	17:19:32	17:26:43	428575	60f31196cf392939a843ab34	880649727	1	main_slash	7	main_slash	147	stimuli_target_squaretriangles.svg	stimuli_distractor_diamondtriangles.svg	7	yes	53	1	1664
6.6.1	win	2022-12-15	17:19:32	17:26:43	428575	60f31196cf392939a843ab34	880649727	1	main_slash	7	advance_on_keypress_SLASH	148	stimuli_target_squaretriangles.svg	stimuli_distractor_diamondtriangles.svg	7	yes	57	0	376
6.6.1	win	2022-12-15	17:19:32	17:26:45	430534	60f31196cf392939a843ab34	880649727	1	main_slash	7	main_slash	149	stimuli_target_trianglesquares.svg	stimuli_distractor_trianglediamonds.svg	18	yes	53	1	938
6.6.1	win	2022-12-15	17:19:32	17:26:45	430534	60f31196cf392939a843ab34	880649727	1	main_slash	7	advance_on_keypress_SLASH	150	stimuli_target_trianglesquares.svg	stimuli_distractor_trianglediamonds.svg	18	yes	57	0	322
6.6.1	win	2022-12-15	17:19:32	17:26:48	433495	60f31196cf392939a843ab34	880649727	1	main_slash	7	main_slash	151	stimuli_distractor_trianglediamonds.svg	stimuli_distractor_trianglediamonds.svg	34	no	0	1	2000
6.6.1	win	2022-12-15	17:19:32	17:26:48	433495	60f31196cf392939a843ab34	880649727	1	main_slash	7	advance_on_keypress_SLASH	152	stimuli_distractor_trianglediamonds.svg	stimuli_distractor_trianglediamonds.svg	34	no	57	0	742
6.6.1	win	2022-12-15	17:19:32	17:26:50	435592	60f31196cf392939a843ab34	880649727	1	main_slash	7	main_slash	153	stimuli_distractor_trianglediamonds.svg	stimuli_target_circletriangles.svg	9	yes	53	1	714
6.6.1	win	2022-12-15	17:19:32	17:26:50	435592	60f31196cf392939a843ab34	880649727	1	main_slash	7	advance_on_keypress_SLASH	154	stimuli_distractor_trianglediamonds.svg	stimuli_target_circletriangles.svg	9	yes	57	0	362
6.6.1	win	2022-12-15	17:19:32	17:26:52	437510	60f31196cf392939a843ab34	880649727	1	main_slash	7	main_slash	155	stimuli_distractor_diamondtriangles.svg	stimuli_target_diamondsquares.svg	32	yes	53	1	899
6.6.1	win	2022-12-15	17:19:32	17:26:52	437510	60f31196cf392939a843ab34	880649727	1	main_slash	7	advance_on_keypress_SLASH	156	stimuli_distractor_diamondtriangles.svg	stimuli_target_diamondsquares.svg	32	yes	57	0	354
6.6.1	win	2022-12-15	17:19:32	17:26:54	439358	60f31196cf392939a843ab34	880649727	1	main_slash	7	main_slash	157	stimuli_distractor_diamondtriangles.svg	stimuli_target_trianglesquares.svg	30	yes	53	1	847
6.6.1	win	2022-12-15	17:19:32	17:26:54	439358	60f31196cf392939a843ab34	880649727	1	main_slash	7	advance_on_keypress_SLASH	158	stimuli_distractor_diamondtriangles.svg	stimuli_target_trianglesquares.svg	30	yes	57	0	309
6.6.1	win	2022-12-15	17:19:32	17:26:56	441219	60f31196cf392939a843ab34	880649727	1	main_slash	7	main_slash	159	stimuli_distractor_diamondtriangles.svg	stimuli_target_squaretriangles.svg	15	yes	53	1	908
6.6.1	win	2022-12-15	17:19:32	17:26:56	441219	60f31196cf392939a843ab34	880649727	1	main_slash	7	advance_on_keypress_SLASH	160	stimuli_distractor_diamondtriangles.svg	stimuli_target_squaretriangles.svg	15	yes	57	0	265
6.6.1	win	2022-12-15	17:19:32	17:27:26	471029	60f31196cf392939a843ab34	880649727	1	practice_z	9	practice_z	1	stimuli_target_circlediamonds.svg	stimuli_distractor_diamondtriangles.svg	1	yes	44	1	1032
6.6.1	win	2022-12-15	17:19:32	17:27:26	471029	60f31196cf392939a843ab34	880649727	1	practice_z	9	advance_on_keypress_ZEE	2	stimuli_target_circlediamonds.svg	stimuli_distractor_diamondtriangles.svg	1	yes	57	0	536
6.6.1	win	2022-12-15	17:19:32	17:27:29	474045	60f31196cf392939a843ab34	880649727	1	practice_z	9	practice_z	3	stimuli_distractor_trianglediamonds.svg	stimuli_target_squarediamonds.svg	11	yes	44	1	831
6.6.1	win	2022-12-15	17:19:32	17:27:29	474045	60f31196cf392939a843ab34	880649727	1	practice_z	9	advance_on_keypress_ZEE	4	stimuli_distractor_trianglediamonds.svg	stimuli_target_squarediamonds.svg	11	yes	57	0	346
6.6.1	win	2022-12-15	17:19:32	17:27:32	476791	60f31196cf392939a843ab34	880649727	1	practice_z	9	practice_z	5	stimuli_target_diamondsquares.svg	stimuli_distractor_trianglediamonds.svg	6	yes	44	1	744
6.6.1	win	2022-12-15	17:19:32	17:27:32	476791	60f31196cf392939a843ab34	880649727	1	practice_z	9	advance_on_keypress_ZEE	6	stimuli_target_diamondsquares.svg	stimuli_distractor_trianglediamonds.svg	6	yes	57	0	505
6.6.1	win	2022-12-15	17:19:32	17:27:35	479873	60f31196cf392939a843ab34	880649727	1	practice_z	9	practice_z	7	stimuli_target_circlediamonds.svg	stimuli_distractor_trianglediamonds.svg	4	yes	44	1	926
6.6.1	win	2022-12-15	17:19:32	17:27:35	479873	60f31196cf392939a843ab34	880649727	1	practice_z	9	advance_on_keypress_ZEE	8	stimuli_target_circlediamonds.svg	stimuli_distractor_trianglediamonds.svg	4	yes	57	0	414
6.6.1	win	2022-12-15	17:19:32	17:27:38	482907	60f31196cf392939a843ab34	880649727	1	practice_z	9	practice_z	9	stimuli_target_diamondsquares.svg	stimuli_distractor_diamondtriangles.svg	3	yes	44	1	960
6.6.1	win	2022-12-15	17:19:32	17:27:38	482907	60f31196cf392939a843ab34	880649727	1	practice_z	9	advance_on_keypress_ZEE	10	stimuli_target_diamondsquares.svg	stimuli_distractor_diamondtriangles.svg	3	yes	57	0	432
6.6.1	win	2022-12-15	17:19:32	17:27:41	485872	60f31196cf392939a843ab34	880649727	1	practice_z	9	practice_z	11	stimuli_distractor_trianglediamonds.svg	stimuli_target_circlediamonds.svg	10	yes	44	1	875
6.6.1	win	2022-12-15	17:19:32	17:27:41	485872	60f31196cf392939a843ab34	880649727	1	practice_z	9	advance_on_keypress_ZEE	12	stimuli_distractor_trianglediamonds.svg	stimuli_target_circlediamonds.svg	10	yes	57	0	334
6.6.1	win	2022-12-15	17:19:32	17:27:45	489863	60f31196cf392939a843ab34	880649727	1	practice_z	9	practice_z	13	stimuli_distractor_diamondtriangles.svg	stimuli_distractor_diamondtriangles.svg	13	no	0	1	2000
6.6.1	win	2022-12-15	17:19:32	17:27:45	489863	60f31196cf392939a843ab34	880649727	1	practice_z	9	advance_on_keypress_ZEE	14	stimuli_distractor_diamondtriangles.svg	stimuli_distractor_diamondtriangles.svg	13	no	57	0	419
6.6.1	win	2022-12-15	17:19:32	17:27:48	492814	60f31196cf392939a843ab34	880649727	1	practice_z	9	practice_z	15	stimuli_target_squarediamonds.svg	stimuli_distractor_trianglediamonds.svg	5	yes	44	1	884
6.6.1	win	2022-12-15	17:19:32	17:27:48	492814	60f31196cf392939a843ab34	880649727	1	practice_z	9	advance_on_keypress_ZEE	16	stimuli_target_squarediamonds.svg	stimuli_distractor_trianglediamonds.svg	5	yes	57	0	401
6.6.1	win	2022-12-15	17:19:32	17:27:52	496863	60f31196cf392939a843ab34	880649727	1	practice_z	9	practice_z	17	stimuli_distractor_trianglediamonds.svg	stimuli_distractor_trianglediamonds.svg	15	no	0	1	2000
6.6.1	win	2022-12-15	17:19:32	17:27:52	496863	60f31196cf392939a843ab34	880649727	1	practice_z	9	advance_on_keypress_ZEE	18	stimuli_distractor_trianglediamonds.svg	stimuli_distractor_trianglediamonds.svg	15	no	57	0	322
6.6.1	win	2022-12-15	17:19:32	17:27:54	499510	60f31196cf392939a843ab34	880649727	1	practice_z	9	practice_z	19	stimuli_distractor_trianglediamonds.svg	stimuli_target_diamondcircles.svg	12	yes	44	1	679
6.6.1	win	2022-12-15	17:19:32	17:27:54	499510	60f31196cf392939a843ab34	880649727	1	practice_z	9	advance_on_keypress_ZEE	20	stimuli_distractor_trianglediamonds.svg	stimuli_target_diamondcircles.svg	12	yes	57	0	418
6.6.1	win	2022-12-15	17:19:32	17:27:58	503581	60f31196cf392939a843ab34	880649727	1	practice_z	9	practice_z	21	stimuli_distractor_trianglediamonds.svg	stimuli_distractor_diamondtriangles.svg	16	no	0	1	2000
6.6.1	win	2022-12-15	17:19:32	17:27:58	503581	60f31196cf392939a843ab34	880649727	1	practice_z	9	advance_on_keypress_ZEE	22	stimuli_distractor_trianglediamonds.svg	stimuli_distractor_diamondtriangles.svg	16	no	57	0	434
6.6.1	win	2022-12-15	17:19:32	17:28:01	506502	60f31196cf392939a843ab34	880649727	1	practice_z	9	practice_z	23	stimuli_distractor_diamondtriangles.svg	stimuli_target_circletriangles.svg	7	yes	44	1	838
6.6.1	win	2022-12-15	17:19:32	17:28:01	506502	60f31196cf392939a843ab34	880649727	1	practice_z	9	advance_on_keypress_ZEE	24	stimuli_distractor_diamondtriangles.svg	stimuli_target_circletriangles.svg	7	yes	57	0	447
6.6.1	win	2022-12-15	17:19:32	17:28:04	509496	60f31196cf392939a843ab34	880649727	1	practice_z	9	practice_z	25	stimuli_distractor_diamondtriangles.svg	stimuli_target_trianglecircles.svg	9	yes	44	1	899
6.6.1	win	2022-12-15	17:19:32	17:28:04	509496	60f31196cf392939a843ab34	880649727	1	practice_z	9	advance_on_keypress_ZEE	26	stimuli_distractor_diamondtriangles.svg	stimuli_target_trianglecircles.svg	9	yes	57	0	441
6.6.1	win	2022-12-15	17:19:32	17:28:08	512821	60f31196cf392939a843ab34	880649727	1	practice_z	9	practice_z	27	stimuli_distractor_diamondtriangles.svg	stimuli_target_diamondcircles.svg	8	yes	44	1	1224
6.6.1	win	2022-12-15	17:19:32	17:28:08	512821	60f31196cf392939a843ab34	880649727	1	practice_z	9	advance_on_keypress_ZEE	28	stimuli_distractor_diamondtriangles.svg	stimuli_target_diamondcircles.svg	8	yes	57	0	441
6.6.1	win	2022-12-15	17:19:32	17:28:12	516897	60f31196cf392939a843ab34	880649727	1	practice_z	9	practice_z	29	stimuli_distractor_diamondtriangles.svg	stimuli_distractor_trianglediamonds.svg	14	no	0	1	2000
6.6.1	win	2022-12-15	17:19:32	17:28:12	516897	60f31196cf392939a843ab34	880649727	1	practice_z	9	advance_on_keypress_ZEE	30	stimuli_distractor_diamondtriangles.svg	stimuli_distractor_trianglediamonds.svg	14	no	57	0	701
6.6.1	win	2022-12-15	17:19:32	17:28:15	520474	60f31196cf392939a843ab34	880649727	1	practice_z	9	practice_z	31	stimuli_target_squarediamonds.svg	stimuli_distractor_diamondtriangles.svg	2	yes	44	1	1226
6.6.1	win	2022-12-15	17:19:32	17:28:15	520474	60f31196cf392939a843ab34	880649727	1	practice_z	9	advance_on_keypress_ZEE	32	stimuli_target_squarediamonds.svg	stimuli_distractor_diamondtriangles.svg	2	yes	57	0	392
6.6.1	win	2022-12-15	17:19:32	17:28:21	526095	60f31196cf392939a843ab34	880649727	1	main_z	11	main_z	1	stimuli_distractor_diamondtriangles.svg	stimuli_distractor_diamondtriangles.svg	39	no	0	1	2000
6.6.1	win	2022-12-15	17:19:32	17:28:21	526095	60f31196cf392939a843ab34	880649727	1	main_z	11	advance_on_keypress_ZEE	2	stimuli_distractor_diamondtriangles.svg	stimuli_distractor_diamondtriangles.svg	39	no	57	0	1625
6.6.1	win	2022-12-15	17:19:32	17:28:24	529277	60f31196cf392939a843ab34	880649727	1	main_z	11	main_z	3	stimuli_target_trianglecircles.svg	stimuli_distractor_trianglediamonds.svg	17	yes	44	1	916
6.6.1	win	2022-12-15	17:19:32	17:28:24	529277	60f31196cf392939a843ab34	880649727	1	main_z	11	advance_on_keypress_ZEE	4	stimuli_target_trianglecircles.svg	stimuli_distractor_trianglediamonds.svg	17	yes	57	0	512
6.6.1	win	2022-12-15	17:19:32	17:28:26	531203	60f31196cf392939a843ab34	880649727	1	main_z	11	main_z	5	stimuli_target_squaretriangles.svg	stimuli_distractor_trianglediamonds.svg	3	yes	44	1	758
6.6.1	win	2022-12-15	17:19:32	17:28:26	531203	60f31196cf392939a843ab34	880649727	1	main_z	11	advance_on_keypress_ZEE	6	stimuli_target_squaretriangles.svg	stimuli_distractor_trianglediamonds.svg	3	yes	57	0	383
6.6.1	win	2022-12-15	17:19:32	17:28:28	532926	60f31196cf392939a843ab34	880649727	1	main_z	11	main_z	7	stimuli_target_trianglecircles.svg	stimuli_distractor_diamondtriangles.svg	21	yes	44	1	698
6.6.1	win	2022-12-15	17:19:32	17:28:28	532926	60f31196cf392939a843ab34	880649727	1	main_z	11	advance_on_keypress_ZEE	8	stimuli_target_trianglecircles.svg	stimuli_distractor_diamondtriangles.svg	21	yes	57	0	313
6.6.1	win	2022-12-15	17:19:32	17:28:29	534606	60f31196cf392939a843ab34	880649727	1	main_z	11	main_z	9	stimuli_distractor_trianglediamonds.svg	stimuli_target_diamondcircles.svg	27	yes	44	1	710
6.6.1	win	2022-12-15	17:19:32	17:28:29	534606	60f31196cf392939a843ab34	880649727	1	main_z	11	advance_on_keypress_ZEE	10	stimuli_distractor_trianglediamonds.svg	stimuli_target_diamondcircles.svg	27	yes	57	0	325
6.6.1	win	2022-12-15	17:19:32	17:28:31	536018	60f31196cf392939a843ab34	880649727	1	main_z	11	main_z	11	stimuli_target_diamondcircles.svg	stimuli_distractor_trianglediamonds.svg	19	yes	44	1	456
6.6.1	win	2022-12-15	17:19:32	17:28:31	536018	60f31196cf392939a843ab34	880649727	1	main_z	11	advance_on_keypress_ZEE	12	stimuli_target_diamondcircles.svg	stimuli_distractor_trianglediamonds.svg	19	yes	57	0	372
6.6.1	win	2022-12-15	17:19:32	17:28:32	537573	60f31196cf392939a843ab34	880649727	1	main_z	11	main_z	13	stimuli_distractor_diamondtriangles.svg	stimuli_distractor_trianglediamonds.svg	37	no	44	0	545
6.6.1	win	2022-12-15	17:19:32	17:28:32	537573	60f31196cf392939a843ab34	880649727	1	main_z	11	advance_on_keypress_ZEE	14	stimuli_distractor_diamondtriangles.svg	stimuli_distractor_trianglediamonds.svg	37	no	57	0	817
6.6.1	win	2022-12-15	17:19:32	17:28:34	539686	60f31196cf392939a843ab34	880649727	1	main_z	11	main_z	15	stimuli_target_squarediamonds.svg	stimuli_distractor_diamondtriangles.svg	8	yes	44	1	624
6.6.1	win	2022-12-15	17:19:32	17:28:34	539686	60f31196cf392939a843ab34	880649727	1	main_z	11	advance_on_keypress_ZEE	16	stimuli_target_squarediamonds.svg	stimuli_distractor_diamondtriangles.svg	8	yes	57	0	345
6.6.1	win	2022-12-15	17:19:32	17:28:36	541418	60f31196cf392939a843ab34	880649727	1	main_z	11	main_z	17	stimuli_target_circletriangles.svg	stimuli_distractor_diamondtriangles.svg	5	yes	44	1	740
6.6.1	win	2022-12-15	17:19:32	17:28:36	541418	60f31196cf392939a843ab34	880649727	1	main_z	11	advance_on_keypress_ZEE	18	stimuli_target_circletriangles.svg	stimuli_distractor_diamondtriangles.svg	5	yes	57	0	16
6.6.1	win	2022-12-15	17:19:32	17:28:39	544378	60f31196cf392939a843ab34	880649727	1	main_z	11	main_z	19	stimuli_distractor_trianglediamonds.svg	stimuli_distractor_diamondtriangles.svg	36	no	0	1	2000
6.6.1	win	2022-12-15	17:19:32	17:28:39	544378	60f31196cf392939a843ab34	880649727	1	main_z	11	advance_on_keypress_ZEE	20	stimuli_distractor_trianglediamonds.svg	stimuli_distractor_diamondtriangles.svg	36	no	57	0	668
6.6.1	win	2022-12-15	17:19:32	17:28:41	546219	60f31196cf392939a843ab34	880649727	1	main_z	11	main_z	21	stimuli_target_circletriangles.svg	stimuli_distractor_trianglediamonds.svg	1	yes	44	1	524
6.6.1	win	2022-12-15	17:19:32	17:28:41	546219	60f31196cf392939a843ab34	880649727	1	main_z	11	advance_on_keypress_ZEE	22	stimuli_target_circletriangles.svg	stimuli_distractor_trianglediamonds.svg	1	yes	57	0	383
6.6.1	win	2022-12-15	17:19:32	17:28:43	547878	60f31196cf392939a843ab34	880649727	1	main_z	11	main_z	23	stimuli_target_diamondcircles.svg	stimuli_distractor_diamondtriangles.svg	23	yes	44	1	633
6.6.1	win	2022-12-15	17:19:32	17:28:43	547878	60f31196cf392939a843ab34	880649727	1	main_z	11	advance_on_keypress_ZEE	24	stimuli_target_diamondcircles.svg	stimuli_distractor_diamondtriangles.svg	23	yes	57	0	342
6.6.1	win	2022-12-15	17:19:32	17:28:44	549598	60f31196cf392939a843ab34	880649727	1	main_z	11	main_z	25	stimuli_distractor_trianglediamonds.svg	stimuli_target_circlediamonds.svg	10	yes	44	1	736
6.6.1	win	2022-12-15	17:19:32	17:28:44	549598	60f31196cf392939a843ab34	880649727	1	main_z	11	advance_on_keypress_ZEE	26	stimuli_distractor_trianglediamonds.svg	stimuli_target_circlediamonds.svg	10	yes	57	0	357
6.6.1	win	2022-12-15	17:19:32	17:28:46	551321	60f31196cf392939a843ab34	880649727	1	main_z	11	main_z	27	stimuli_distractor_trianglediamonds.svg	stimuli_target_circletriangles.svg	9	yes	44	1	726
6.6.1	win	2022-12-15	17:19:32	17:28:46	551321	60f31196cf392939a843ab34	880649727	1	main_z	11	advance_on_keypress_ZEE	28	stimuli_distractor_trianglediamonds.svg	stimuli_target_circletriangles.svg	9	yes	57	0	360
6.6.1	win	2022-12-15	17:19:32	17:28:48	553001	60f31196cf392939a843ab34	880649727	1	main_z	11	main_z	29	stimuli_distractor_trianglediamonds.svg	stimuli_target_squarediamonds.svg	12	yes	44	1	690
6.6.1	win	2022-12-15	17:19:32	17:28:48	553001	60f31196cf392939a843ab34	880649727	1	main_z	11	advance_on_keypress_ZEE	30	stimuli_distractor_trianglediamonds.svg	stimuli_target_squarediamonds.svg	12	yes	57	0	370
6.6.1	win	2022-12-15	17:19:32	17:28:51	556011	60f31196cf392939a843ab34	880649727	1	main_z	11	main_z	31	stimuli_target_squaretriangles.svg	stimuli_distractor_diamondtriangles.svg	7	yes	0	0	2000
6.6.1	win	2022-12-15	17:19:32	17:28:51	556011	60f31196cf392939a843ab34	880649727	1	main_z	11	advance_on_keypress_ZEE	32	stimuli_target_squaretriangles.svg	stimuli_distractor_diamondtriangles.svg	7	yes	57	0	507
6.6.1	win	2022-12-15	17:19:32	17:28:53	557721	60f31196cf392939a843ab34	880649727	1	main_z	11	main_z	33	stimuli_target_circlediamonds.svg	stimuli_distractor_diamondtriangles.svg	6	yes	44	1	560
6.6.1	win	2022-12-15	17:19:32	17:28:53	557721	60f31196cf392939a843ab34	880649727	1	main_z	11	advance_on_keypress_ZEE	34	stimuli_target_circlediamonds.svg	stimuli_distractor_diamondtriangles.svg	6	yes	57	0	470
6.6.1	win	2022-12-15	17:19:32	17:28:54	559663	60f31196cf392939a843ab34	880649727	1	main_z	11	main_z	35	stimuli_target_trianglesquares.svg	stimuli_distractor_trianglediamonds.svg	18	yes	44	1	835
6.6.1	win	2022-12-15	17:19:32	17:28:54	559663	60f31196cf392939a843ab34	880649727	1	main_z	11	advance_on_keypress_ZEE	36	stimuli_target_trianglesquares.svg	stimuli_distractor_trianglediamonds.svg	18	yes	57	0	279
6.6.1	win	2022-12-15	17:19:32	17:28:57	562595	60f31196cf392939a843ab34	880649727	1	main_z	11	main_z	37	stimuli_distractor_trianglediamonds.svg	stimuli_distractor_trianglediamonds.svg	34	no	0	1	2000
6.6.1	win	2022-12-15	17:19:32	17:28:57	562595	60f31196cf392939a843ab34	880649727	1	main_z	11	advance_on_keypress_ZEE	38	stimuli_distractor_trianglediamonds.svg	stimuli_distractor_trianglediamonds.svg	34	no	57	0	349
6.6.1	win	2022-12-15	17:19:32	17:28:59	564404	60f31196cf392939a843ab34	880649727	1	main_z	11	main_z	39	stimuli_distractor_diamondtriangles.svg	stimuli_target_diamondsquares.svg	32	yes	44	1	709
6.6.1	win	2022-12-15	17:19:32	17:28:59	564404	60f31196cf392939a843ab34	880649727	1	main_z	11	advance_on_keypress_ZEE	40	stimuli_distractor_diamondtriangles.svg	stimuli_target_diamondsquares.svg	32	yes	57	0	300
6.6.1	win	2022-12-15	17:19:32	17:29:01	566016	60f31196cf392939a843ab34	880649727	1	main_z	11	main_z	41	stimuli_target_squarediamonds.svg	stimuli_distractor_trianglediamonds.svg	4	yes	44	1	670
6.6.1	win	2022-12-15	17:19:32	17:29:01	566016	60f31196cf392939a843ab34	880649727	1	main_z	11	advance_on_keypress_ZEE	42	stimuli_target_squarediamonds.svg	stimuli_distractor_trianglediamonds.svg	4	yes	57	0	349
6.6.1	win	2022-12-15	17:19:32	17:29:03	567790	60f31196cf392939a843ab34	880649727	1	main_z	11	main_z	43	stimuli_target_diamondsquares.svg	stimuli_distractor_trianglediamonds.svg	20	yes	44	1	779
6.6.1	win	2022-12-15	17:19:32	17:29:03	567790	60f31196cf392939a843ab34	880649727	1	main_z	11	advance_on_keypress_ZEE	44	stimuli_target_diamondsquares.svg	stimuli_distractor_trianglediamonds.svg	20	yes	57	0	297
6.6.1	win	2022-12-15	17:19:32	17:29:06	570745	60f31196cf392939a843ab34	880649727	1	main_z	11	main_z	45	stimuli_distractor_trianglediamonds.svg	stimuli_distractor_diamondtriangles.svg	35	no	0	1	2000
6.6.1	win	2022-12-15	17:19:32	17:29:06	570745	60f31196cf392939a843ab34	880649727	1	main_z	11	advance_on_keypress_ZEE	46	stimuli_distractor_trianglediamonds.svg	stimuli_distractor_diamondtriangles.svg	35	no	57	0	529
6.6.1	win	2022-12-15	17:19:32	17:29:08	573373	60f31196cf392939a843ab34	880649727	1	main_z	11	main_z	47	stimuli_distractor_diamondtriangles.svg	stimuli_target_squarediamonds.svg	16	yes	44	1	1445
6.6.1	win	2022-12-15	17:19:32	17:29:08	573373	60f31196cf392939a843ab34	880649727	1	main_z	11	advance_on_keypress_ZEE	48	stimuli_distractor_diamondtriangles.svg	stimuli_target_squarediamonds.svg	16	yes	57	0	403
6.6.1	win	2022-12-15	17:19:32	17:29:10	575246	60f31196cf392939a843ab34	880649727	1	main_z	11	main_z	49	stimuli_distractor_diamondtriangles.svg	stimuli_target_circlediamonds.svg	14	yes	44	1	817
6.6.1	win	2022-12-15	17:19:32	17:29:10	575246	60f31196cf392939a843ab34	880649727	1	main_z	11	advance_on_keypress_ZEE	50	stimuli_distractor_diamondtriangles.svg	stimuli_target_circlediamonds.svg	14	yes	57	0	348
6.6.1	win	2022-12-15	17:19:32	17:29:13	578245	60f31196cf392939a843ab34	880649727	1	main_z	11	main_z	51	stimuli_distractor_diamondtriangles.svg	stimuli_distractor_diamondtriangles.svg	40	no	0	1	2000
6.6.1	win	2022-12-15	17:19:32	17:29:13	578245	60f31196cf392939a843ab34	880649727	1	main_z	11	advance_on_keypress_ZEE	52	stimuli_distractor_diamondtriangles.svg	stimuli_distractor_diamondtriangles.svg	40	no	57	0	526
6.6.1	win	2022-12-15	17:19:32	17:29:15	580181	60f31196cf392939a843ab34	880649727	1	main_z	11	main_z	53	stimuli_distractor_diamondtriangles.svg	stimuli_target_trianglecircles.svg	29	yes	44	1	769
6.6.1	win	2022-12-15	17:19:32	17:29:15	580181	60f31196cf392939a843ab34	880649727	1	main_z	11	advance_on_keypress_ZEE	54	stimuli_distractor_diamondtriangles.svg	stimuli_target_trianglecircles.svg	29	yes	57	0	6090
6.6.1	win	2022-12-15	17:19:32	17:29:22	587668	60f31196cf392939a843ab34	880649727	1	main_z	11	main_z	55	stimuli_distractor_diamondtriangles.svg	stimuli_distractor_trianglediamonds.svg	38	no	44	0	757
6.6.1	win	2022-12-15	17:19:32	17:29:22	587668	60f31196cf392939a843ab34	880649727	1	main_z	11	advance_on_keypress_ZEE	56	stimuli_distractor_diamondtriangles.svg	stimuli_distractor_trianglediamonds.svg	38	no	57	0	457
6.6.1	win	2022-12-15	17:19:32	17:29:24	589437	60f31196cf392939a843ab34	880649727	1	main_z	11	main_z	57	stimuli_distractor_diamondtriangles.svg	stimuli_target_squaretriangles.svg	15	yes	44	1	676
6.6.1	win	2022-12-15	17:19:32	17:29:24	589437	60f31196cf392939a843ab34	880649727	1	main_z	11	advance_on_keypress_ZEE	58	stimuli_distractor_diamondtriangles.svg	stimuli_target_squaretriangles.svg	15	yes	57	0	421
6.6.1	win	2022-12-15	17:19:32	17:29:26	591241	60f31196cf392939a843ab34	880649727	1	main_z	11	main_z	59	stimuli_distractor_diamondtriangles.svg	stimuli_target_circletriangles.svg	13	yes	44	1	745
6.6.1	win	2022-12-15	17:19:32	17:29:26	591241	60f31196cf392939a843ab34	880649727	1	main_z	11	advance_on_keypress_ZEE	60	stimuli_distractor_diamondtriangles.svg	stimuli_target_circletriangles.svg	13	yes	57	0	380
6.6.1	win	2022-12-15	17:19:32	17:29:29	594278	60f31196cf392939a843ab34	880649727	1	main_z	11	main_z	61	stimuli_distractor_trianglediamonds.svg	stimuli_distractor_trianglediamonds.svg	33	no	0	1	2000
6.6.1	win	2022-12-15	17:19:32	17:29:29	594278	60f31196cf392939a843ab34	880649727	1	main_z	11	advance_on_keypress_ZEE	62	stimuli_distractor_trianglediamonds.svg	stimuli_distractor_trianglediamonds.svg	33	no	57	0	226
6.6.1	win	2022-12-15	17:19:32	17:29:31	595908	60f31196cf392939a843ab34	880649727	1	main_z	11	main_z	63	stimuli_distractor_trianglediamonds.svg	stimuli_target_trianglesquares.svg	26	yes	44	1	762
6.6.1	win	2022-12-15	17:19:32	17:29:31	595908	60f31196cf392939a843ab34	880649727	1	main_z	11	advance_on_keypress_ZEE	64	stimuli_distractor_trianglediamonds.svg	stimuli_target_trianglesquares.svg	26	yes	57	0	201
6.6.1	win	2022-12-15	17:19:32	17:29:32	597495	60f31196cf392939a843ab34	880649727	1	main_z	11	main_z	65	stimuli_distractor_diamondtriangles.svg	stimuli_target_trianglesquares.svg	30	yes	44	1	734
6.6.1	win	2022-12-15	17:19:32	17:29:32	597495	60f31196cf392939a843ab34	880649727	1	main_z	11	advance_on_keypress_ZEE	66	stimuli_distractor_diamondtriangles.svg	stimuli_target_trianglesquares.svg	30	yes	57	0	354
6.6.1	win	2022-12-15	17:19:32	17:29:34	599206	60f31196cf392939a843ab34	880649727	1	main_z	11	main_z	67	stimuli_distractor_diamondtriangles.svg	stimuli_target_diamondcircles.svg	31	yes	44	1	711
6.6.1	win	2022-12-15	17:19:32	17:29:34	599206	60f31196cf392939a843ab34	880649727	1	main_z	11	advance_on_keypress_ZEE	68	stimuli_distractor_diamondtriangles.svg	stimuli_target_diamondcircles.svg	31	yes	57	0	272
6.6.1	win	2022-12-15	17:19:32	17:29:36	600796	60f31196cf392939a843ab34	880649727	1	main_z	11	main_z	69	stimuli_target_diamondsquares.svg	stimuli_distractor_diamondtriangles.svg	24	yes	44	1	668
6.6.1	win	2022-12-15	17:19:32	17:29:36	600796	60f31196cf392939a843ab34	880649727	1	main_z	11	advance_on_keypress_ZEE	70	stimuli_target_diamondsquares.svg	stimuli_distractor_diamondtriangles.svg	24	yes	57	0	316
6.6.1	win	2022-12-15	17:19:32	17:29:37	602568	60f31196cf392939a843ab34	880649727	1	main_z	11	main_z	71	stimuli_distractor_trianglediamonds.svg	stimuli_target_squaretriangles.svg	11	yes	44	1	806
6.6.1	win	2022-12-15	17:19:32	17:29:37	602568	60f31196cf392939a843ab34	880649727	1	main_z	11	advance_on_keypress_ZEE	72	stimuli_distractor_trianglediamonds.svg	stimuli_target_squaretriangles.svg	11	yes	57	0	250
6.6.1	win	2022-12-15	17:19:32	17:29:39	604037	60f31196cf392939a843ab34	880649727	1	main_z	11	main_z	73	stimuli_distractor_trianglediamonds.svg	stimuli_target_trianglecircles.svg	25	yes	44	1	575
6.6.1	win	2022-12-15	17:19:32	17:29:39	604037	60f31196cf392939a843ab34	880649727	1	main_z	11	advance_on_keypress_ZEE	74	stimuli_distractor_trianglediamonds.svg	stimuli_target_trianglecircles.svg	25	yes	57	0	301
6.6.1	win	2022-12-15	17:19:32	17:29:40	605610	60f31196cf392939a843ab34	880649727	1	main_z	11	main_z	75	stimuli_target_circlediamonds.svg	stimuli_distractor_trianglediamonds.svg	2	yes	44	1	632
6.6.1	win	2022-12-15	17:19:32	17:29:40	605610	60f31196cf392939a843ab34	880649727	1	main_z	11	advance_on_keypress_ZEE	76	stimuli_target_circlediamonds.svg	stimuli_distractor_trianglediamonds.svg	2	yes	57	0	313
6.6.1	win	2022-12-15	17:19:32	17:29:42	607274	60f31196cf392939a843ab34	880649727	1	main_z	11	main_z	77	stimuli_target_trianglesquares.svg	stimuli_distractor_diamondtriangles.svg	22	yes	44	1	695
6.6.1	win	2022-12-15	17:19:32	17:29:42	607274	60f31196cf392939a843ab34	880649727	1	main_z	11	advance_on_keypress_ZEE	78	stimuli_target_trianglesquares.svg	stimuli_distractor_diamondtriangles.svg	22	yes	57	0	240
6.6.1	win	2022-12-15	17:19:32	17:29:44	608916	60f31196cf392939a843ab34	880649727	1	main_z	11	main_z	79	stimuli_distractor_trianglediamonds.svg	stimuli_target_diamondsquares.svg	28	yes	44	1	753
6.6.1	win	2022-12-15	17:19:32	17:29:44	608916	60f31196cf392939a843ab34	880649727	1	main_z	11	advance_on_keypress_ZEE	80	stimuli_distractor_trianglediamonds.svg	stimuli_target_diamondsquares.svg	28	yes	57	0	235
6.6.1	win	2022-12-15	17:19:32	17:29:45	610486	60f31196cf392939a843ab34	880649727	1	main_z	11	main_z	81	stimuli_distractor_trianglediamonds.svg	stimuli_target_diamondsquares.svg	28	yes	44	1	691
6.6.1	win	2022-12-15	17:19:32	17:29:45	610486	60f31196cf392939a843ab34	880649727	1	main_z	11	advance_on_keypress_ZEE	82	stimuli_distractor_trianglediamonds.svg	stimuli_target_diamondsquares.svg	28	yes	57	0	249
6.6.1	win	2022-12-15	17:19:32	17:29:48	613379	60f31196cf392939a843ab34	880649727	1	main_z	11	main_z	83	stimuli_distractor_diamondtriangles.svg	stimuli_distractor_diamondtriangles.svg	39	no	0	1	2000
6.6.1	win	2022-12-15	17:19:32	17:29:48	613379	60f31196cf392939a843ab34	880649727	1	main_z	11	advance_on_keypress_ZEE	84	stimuli_distractor_diamondtriangles.svg	stimuli_distractor_diamondtriangles.svg	39	no	57	0	500
6.6.1	win	2022-12-15	17:19:32	17:29:50	615050	60f31196cf392939a843ab34	880649727	1	main_z	11	main_z	85	stimuli_target_trianglecircles.svg	stimuli_distractor_diamondtriangles.svg	21	yes	44	1	521
6.6.1	win	2022-12-15	17:19:32	17:29:50	615050	60f31196cf392939a843ab34	880649727	1	main_z	11	advance_on_keypress_ZEE	86	stimuli_target_trianglecircles.svg	stimuli_distractor_diamondtriangles.svg	21	yes	57	0	391
6.6.1	win	2022-12-15	17:19:32	17:29:52	616868	60f31196cf392939a843ab34	880649727	1	main_z	11	main_z	87	stimuli_target_trianglesquares.svg	stimuli_distractor_diamondtriangles.svg	22	yes	44	1	789
6.6.1	win	2022-12-15	17:19:32	17:29:52	616868	60f31196cf392939a843ab34	880649727	1	main_z	11	advance_on_keypress_ZEE	88	stimuli_target_trianglesquares.svg	stimuli_distractor_diamondtriangles.svg	22	yes	57	0	346
6.6.1	win	2022-12-15	17:19:32	17:29:55	619862	60f31196cf392939a843ab34	880649727	1	main_z	11	main_z	89	stimuli_distractor_trianglediamonds.svg	stimuli_target_squaretriangles.svg	11	yes	0	0	2000
6.6.1	win	2022-12-15	17:19:32	17:29:55	619862	60f31196cf392939a843ab34	880649727	1	main_z	11	advance_on_keypress_ZEE	90	stimuli_distractor_trianglediamonds.svg	stimuli_target_squaretriangles.svg	11	yes	57	0	320
6.6.1	win	2022-12-15	17:19:32	17:29:57	621736	60f31196cf392939a843ab34	880649727	1	main_z	11	main_z	91	stimuli_target_circletriangles.svg	stimuli_distractor_trianglediamonds.svg	1	yes	44	1	908
6.6.1	win	2022-12-15	17:19:32	17:29:57	621736	60f31196cf392939a843ab34	880649727	1	main_z	11	advance_on_keypress_ZEE	92	stimuli_target_circletriangles.svg	stimuli_distractor_trianglediamonds.svg	1	yes	57	0	398
6.6.1	win	2022-12-15	17:19:32	17:30:00	624778	60f31196cf392939a843ab34	880649727	1	main_z	11	main_z	93	stimuli_distractor_trianglediamonds.svg	stimuli_distractor_diamondtriangles.svg	35	no	0	1	2000
6.6.1	win	2022-12-15	17:19:32	17:30:00	624778	60f31196cf392939a843ab34	880649727	1	main_z	11	advance_on_keypress_ZEE	94	stimuli_distractor_trianglediamonds.svg	stimuli_distractor_diamondtriangles.svg	35	no	57	0	986
6.6.1	win	2022-12-15	17:19:32	17:30:02	627091	60f31196cf392939a843ab34	880649727	1	main_z	11	main_z	95	stimuli_distractor_diamondtriangles.svg	stimuli_target_trianglesquares.svg	30	yes	44	1	680
6.6.1	win	2022-12-15	17:19:32	17:30:02	627091	60f31196cf392939a843ab34	880649727	1	main_z	11	advance_on_keypress_ZEE	96	stimuli_distractor_diamondtriangles.svg	stimuli_target_trianglesquares.svg	30	yes	57	0	346
6.6.1	win	2022-12-15	17:19:32	17:30:04	628938	60f31196cf392939a843ab34	880649727	1	main_z	11	main_z	97	stimuli_target_trianglesquares.svg	stimuli_distractor_trianglediamonds.svg	18	yes	44	1	843
6.6.1	win	2022-12-15	17:19:32	17:30:04	628938	60f31196cf392939a843ab34	880649727	1	main_z	11	advance_on_keypress_ZEE	98	stimuli_target_trianglesquares.svg	stimuli_distractor_trianglediamonds.svg	18	yes	57	0	289
6.6.1	win	2022-12-15	17:19:32	17:30:07	631862	60f31196cf392939a843ab34	880649727	1	main_z	11	main_z	99	stimuli_distractor_diamondtriangles.svg	stimuli_distractor_diamondtriangles.svg	40	no	0	1	2000
6.6.1	win	2022-12-15	17:19:32	17:30:07	631862	60f31196cf392939a843ab34	880649727	1	main_z	11	advance_on_keypress_ZEE	100	stimuli_distractor_diamondtriangles.svg	stimuli_distractor_diamondtriangles.svg	40	no	57	0	436
6.6.1	win	2022-12-15	17:19:32	17:30:08	633672	60f31196cf392939a843ab34	880649727	1	main_z	11	main_z	101	stimuli_distractor_diamondtriangles.svg	stimuli_target_squarediamonds.svg	16	yes	44	1	727
6.6.1	win	2022-12-15	17:19:32	17:30:08	633672	60f31196cf392939a843ab34	880649727	1	main_z	11	advance_on_keypress_ZEE	102	stimuli_distractor_diamondtriangles.svg	stimuli_target_squarediamonds.svg	16	yes	57	0	1445
6.6.1	win	2022-12-15	17:19:32	17:30:12	637593	60f31196cf392939a843ab34	880649727	1	main_z	11	main_z	103	stimuli_target_diamondcircles.svg	stimuli_distractor_diamondtriangles.svg	23	yes	44	1	1814
6.6.1	win	2022-12-15	17:19:32	17:30:12	637593	60f31196cf392939a843ab34	880649727	1	main_z	11	advance_on_keypress_ZEE	104	stimuli_target_diamondcircles.svg	stimuli_distractor_diamondtriangles.svg	23	yes	57	0	927
6.6.1	win	2022-12-15	17:19:32	17:30:15	640040	60f31196cf392939a843ab34	880649727	1	main_z	11	main_z	105	stimuli_distractor_trianglediamonds.svg	stimuli_target_trianglecircles.svg	25	yes	44	1	878
6.6.1	win	2022-12-15	17:19:32	17:30:15	640040	60f31196cf392939a843ab34	880649727	1	main_z	11	advance_on_keypress_ZEE	106	stimuli_distractor_trianglediamonds.svg	stimuli_target_trianglecircles.svg	25	yes	57	0	862
6.6.1	win	2022-12-15	17:19:32	17:30:17	642286	60f31196cf392939a843ab34	880649727	1	main_z	11	main_z	107	stimuli_distractor_diamondtriangles.svg	stimuli_target_squaretriangles.svg	15	yes	44	1	724
6.6.1	win	2022-12-15	17:19:32	17:30:17	642286	60f31196cf392939a843ab34	880649727	1	main_z	11	advance_on_keypress_ZEE	108	stimuli_distractor_diamondtriangles.svg	stimuli_target_squaretriangles.svg	15	yes	57	0	719
6.6.1	win	2022-12-15	17:19:32	17:30:19	644406	60f31196cf392939a843ab34	880649727	1	main_z	11	main_z	109	stimuli_target_circletriangles.svg	stimuli_distractor_diamondtriangles.svg	5	yes	44	1	761
6.6.1	win	2022-12-15	17:19:32	17:30:19	644406	60f31196cf392939a843ab34	880649727	1	main_z	11	advance_on_keypress_ZEE	110	stimuli_target_circletriangles.svg	stimuli_distractor_diamondtriangles.svg	5	yes	57	0	382
6.6.1	win	2022-12-15	17:19:32	17:30:21	646223	60f31196cf392939a843ab34	880649727	1	main_z	11	main_z	111	stimuli_target_circlediamonds.svg	stimuli_distractor_trianglediamonds.svg	2	yes	44	1	778
6.6.1	win	2022-12-15	17:19:32	17:30:21	646223	60f31196cf392939a843ab34	880649727	1	main_z	11	advance_on_keypress_ZEE	112	stimuli_target_circlediamonds.svg	stimuli_distractor_trianglediamonds.svg	2	yes	57	0	314
6.6.1	win	2022-12-15	17:19:32	17:30:23	647933	60f31196cf392939a843ab34	880649727	1	main_z	11	main_z	113	stimuli_distractor_trianglediamonds.svg	stimuli_target_squarediamonds.svg	12	yes	44	1	737
6.6.1	win	2022-12-15	17:19:32	17:30:23	647933	60f31196cf392939a843ab34	880649727	1	main_z	11	advance_on_keypress_ZEE	114	stimuli_distractor_trianglediamonds.svg	stimuli_target_squarediamonds.svg	12	yes	57	0	318
6.6.1	win	2022-12-15	17:19:32	17:30:25	650204	60f31196cf392939a843ab34	880649727	1	main_z	11	main_z	115	stimuli_distractor_trianglediamonds.svg	stimuli_distractor_diamondtriangles.svg	36	no	44	0	1309
6.6.1	win	2022-12-15	17:19:32	17:30:25	650204	60f31196cf392939a843ab34	880649727	1	main_z	11	advance_on_keypress_ZEE	116	stimuli_distractor_trianglediamonds.svg	stimuli_distractor_diamondtriangles.svg	36	no	57	0	440
6.6.1	win	2022-12-15	17:19:32	17:30:27	652451	60f31196cf392939a843ab34	880649727	1	main_z	11	main_z	117	stimuli_target_squarediamonds.svg	stimuli_distractor_trianglediamonds.svg	4	yes	44	1	1172
6.6.1	win	2022-12-15	17:19:32	17:30:27	652451	60f31196cf392939a843ab34	880649727	1	main_z	11	advance_on_keypress_ZEE	118	stimuli_target_squarediamonds.svg	stimuli_distractor_trianglediamonds.svg	4	yes	57	0	376
6.6.1	win	2022-12-15	17:19:32	17:30:29	654161	60f31196cf392939a843ab34	880649727	1	main_z	11	main_z	119	stimuli_target_circlediamonds.svg	stimuli_distractor_diamondtriangles.svg	6	yes	44	1	699
6.6.1	win	2022-12-15	17:19:32	17:30:29	654161	60f31196cf392939a843ab34	880649727	1	main_z	11	advance_on_keypress_ZEE	120	stimuli_target_circlediamonds.svg	stimuli_distractor_diamondtriangles.svg	6	yes	57	0	281
6.6.1	win	2022-12-15	17:19:32	17:30:31	655919	60f31196cf392939a843ab34	880649727	1	main_z	11	main_z	121	stimuli_distractor_diamondtriangles.svg	stimuli_distractor_trianglediamonds.svg	37	no	44	0	824
6.6.1	win	2022-12-15	17:19:32	17:30:31	655919	60f31196cf392939a843ab34	880649727	1	main_z	11	advance_on_keypress_ZEE	122	stimuli_distractor_diamondtriangles.svg	stimuli_distractor_trianglediamonds.svg	37	no	57	0	299
6.6.1	win	2022-12-15	17:19:32	17:30:32	657575	60f31196cf392939a843ab34	880649727	1	main_z	11	main_z	123	stimuli_distractor_trianglediamonds.svg	stimuli_target_circletriangles.svg	9	yes	44	1	713
6.6.1	win	2022-12-15	17:19:32	17:30:32	657575	60f31196cf392939a843ab34	880649727	1	main_z	11	advance_on_keypress_ZEE	124	stimuli_distractor_trianglediamonds.svg	stimuli_target_circletriangles.svg	9	yes	57	0	427
6.6.1	win	2022-12-15	17:19:32	17:30:34	659347	60f31196cf392939a843ab34	880649727	1	main_z	11	main_z	125	stimuli_distractor_diamondtriangles.svg	stimuli_target_trianglecircles.svg	29	yes	44	1	685
6.6.1	win	2022-12-15	17:19:32	17:30:34	659347	60f31196cf392939a843ab34	880649727	1	main_z	11	advance_on_keypress_ZEE	126	stimuli_distractor_diamondtriangles.svg	stimuli_target_trianglecircles.svg	29	yes	57	0	408
6.6.1	win	2022-12-15	17:19:32	17:30:36	661072	60f31196cf392939a843ab34	880649727	1	main_z	11	main_z	127	stimuli_distractor_diamondtriangles.svg	stimuli_target_circlediamonds.svg	14	yes	44	1	676
6.6.1	win	2022-12-15	17:19:32	17:30:36	661072	60f31196cf392939a843ab34	880649727	1	main_z	11	advance_on_keypress_ZEE	128	stimuli_distractor_diamondtriangles.svg	stimuli_target_circlediamonds.svg	14	yes	57	0	387
6.6.1	win	2022-12-15	17:19:32	17:30:38	662849	60f31196cf392939a843ab34	880649727	1	main_z	11	main_z	129	stimuli_distractor_diamondtriangles.svg	stimuli_target_circletriangles.svg	13	yes	44	1	737
6.6.1	win	2022-12-15	17:19:32	17:30:38	662849	60f31196cf392939a843ab34	880649727	1	main_z	11	advance_on_keypress_ZEE	130	stimuli_distractor_diamondtriangles.svg	stimuli_target_circletriangles.svg	13	yes	57	0	370
6.6.1	win	2022-12-15	17:19:32	17:30:41	665862	60f31196cf392939a843ab34	880649727	1	main_z	11	main_z	131	stimuli_distractor_trianglediamonds.svg	stimuli_distractor_trianglediamonds.svg	33	no	0	1	2000
6.6.1	win	2022-12-15	17:19:32	17:30:41	665862	60f31196cf392939a843ab34	880649727	1	main_z	11	advance_on_keypress_ZEE	132	stimuli_distractor_trianglediamonds.svg	stimuli_distractor_trianglediamonds.svg	33	no	57	0	450
6.6.1	win	2022-12-15	17:19:32	17:30:42	667565	60f31196cf392939a843ab34	880649727	1	main_z	11	main_z	133	stimuli_target_diamondsquares.svg	stimuli_distractor_trianglediamonds.svg	20	yes	44	1	603
6.6.1	win	2022-12-15	17:19:32	17:30:42	667565	60f31196cf392939a843ab34	880649727	1	main_z	11	advance_on_keypress_ZEE	134	stimuli_target_diamondsquares.svg	stimuli_distractor_trianglediamonds.svg	20	yes	57	0	423
6.6.1	win	2022-12-15	17:19:32	17:30:44	669291	60f31196cf392939a843ab34	880649727	1	main_z	11	main_z	135	stimuli_target_squarediamonds.svg	stimuli_distractor_diamondtriangles.svg	8	yes	44	1	663
6.6.1	win	2022-12-15	17:19:32	17:30:44	669291	60f31196cf392939a843ab34	880649727	1	main_z	11	advance_on_keypress_ZEE	136	stimuli_target_squarediamonds.svg	stimuli_distractor_diamondtriangles.svg	8	yes	57	0	425
6.6.1	win	2022-12-15	17:19:32	17:30:46	671270	60f31196cf392939a843ab34	880649727	1	main_z	11	main_z	137	stimuli_distractor_diamondtriangles.svg	stimuli_target_diamondcircles.svg	31	yes	44	1	907
6.6.1	win	2022-12-15	17:19:32	17:30:46	671270	60f31196cf392939a843ab34	880649727	1	main_z	11	advance_on_keypress_ZEE	138	stimuli_distractor_diamondtriangles.svg	stimuli_target_diamondcircles.svg	31	yes	57	0	296
6.6.1	win	2022-12-15	17:19:32	17:30:48	672936	60f31196cf392939a843ab34	880649727	1	main_z	11	main_z	139	stimuli_target_diamondsquares.svg	stimuli_distractor_diamondtriangles.svg	24	yes	44	1	725
6.6.1	win	2022-12-15	17:19:32	17:30:48	672936	60f31196cf392939a843ab34	880649727	1	main_z	11	advance_on_keypress_ZEE	140	stimuli_target_diamondsquares.svg	stimuli_distractor_diamondtriangles.svg	24	yes	57	0	394
6.6.1	win	2022-12-15	17:19:32	17:30:49	674604	60f31196cf392939a843ab34	880649727	1	main_z	11	main_z	141	stimuli_target_trianglecircles.svg	stimuli_distractor_trianglediamonds.svg	17	yes	44	1	641
6.6.1	win	2022-12-15	17:19:32	17:30:49	674604	60f31196cf392939a843ab34	880649727	1	main_z	11	advance_on_keypress_ZEE	142	stimuli_target_trianglecircles.svg	stimuli_distractor_trianglediamonds.svg	17	yes	57	0	459
6.6.1	win	2022-12-15	17:19:32	17:30:52	677695	60f31196cf392939a843ab34	880649727	1	main_z	11	main_z	143	stimuli_distractor_trianglediamonds.svg	stimuli_distractor_trianglediamonds.svg	34	no	0	1	2000
6.6.1	win	2022-12-15	17:19:32	17:30:52	677695	60f31196cf392939a843ab34	880649727	1	main_z	11	advance_on_keypress_ZEE	144	stimuli_distractor_trianglediamonds.svg	stimuli_distractor_trianglediamonds.svg	34	no	57	0	664
6.6.1	win	2022-12-15	17:19:32	17:30:55	679788	60f31196cf392939a843ab34	880649727	1	main_z	11	main_z	145	stimuli_distractor_diamondtriangles.svg	stimuli_distractor_trianglediamonds.svg	38	no	44	0	776
6.6.1	win	2022-12-15	17:19:32	17:30:55	679788	60f31196cf392939a843ab34	880649727	1	main_z	11	advance_on_keypress_ZEE	146	stimuli_distractor_diamondtriangles.svg	stimuli_distractor_trianglediamonds.svg	38	no	57	0	1314
6.6.1	win	2022-12-15	17:19:32	17:30:57	682488	60f31196cf392939a843ab34	880649727	1	main_z	11	main_z	147	stimuli_target_squaretriangles.svg	stimuli_distractor_trianglediamonds.svg	3	yes	44	1	743
6.6.1	win	2022-12-15	17:19:32	17:30:57	682488	60f31196cf392939a843ab34	880649727	1	main_z	11	advance_on_keypress_ZEE	148	stimuli_target_squaretriangles.svg	stimuli_distractor_trianglediamonds.svg	3	yes	57	0	387
6.6.1	win	2022-12-15	17:19:32	17:30:59	684168	60f31196cf392939a843ab34	880649727	1	main_z	11	main_z	149	stimuli_distractor_trianglediamonds.svg	stimuli_target_trianglesquares.svg	26	yes	44	1	657
6.6.1	win	2022-12-15	17:19:32	17:30:59	684168	60f31196cf392939a843ab34	880649727	1	main_z	11	advance_on_keypress_ZEE	150	stimuli_distractor_trianglediamonds.svg	stimuli_target_trianglesquares.svg	26	yes	57	0	430
6.6.1	win	2022-12-15	17:19:32	17:31:01	686100	60f31196cf392939a843ab34	880649727	1	main_z	11	main_z	151	stimuli_distractor_trianglediamonds.svg	stimuli_target_diamondcircles.svg	27	yes	44	1	855
6.6.1	win	2022-12-15	17:19:32	17:31:01	686100	60f31196cf392939a843ab34	880649727	1	main_z	11	advance_on_keypress_ZEE	152	stimuli_distractor_trianglediamonds.svg	stimuli_target_diamondcircles.svg	27	yes	57	0	411
6.6.1	win	2022-12-15	17:19:32	17:31:03	687767	60f31196cf392939a843ab34	880649727	1	main_z	11	main_z	153	stimuli_distractor_trianglediamonds.svg	stimuli_target_circlediamonds.svg	10	yes	44	1	621
6.6.1	win	2022-12-15	17:19:32	17:31:03	687767	60f31196cf392939a843ab34	880649727	1	main_z	11	advance_on_keypress_ZEE	154	stimuli_distractor_trianglediamonds.svg	stimuli_target_circlediamonds.svg	10	yes	57	0	478
6.6.1	win	2022-12-15	17:19:32	17:31:04	689594	60f31196cf392939a843ab34	880649727	1	main_z	11	main_z	155	stimuli_distractor_diamondtriangles.svg	stimuli_target_diamondsquares.svg	32	yes	44	1	698
6.6.1	win	2022-12-15	17:19:32	17:31:04	689594	60f31196cf392939a843ab34	880649727	1	main_z	11	advance_on_keypress_ZEE	156	stimuli_distractor_diamondtriangles.svg	stimuli_target_diamondsquares.svg	32	yes	57	0	388
6.6.1	win	2022-12-15	17:19:32	17:31:06	691689	60f31196cf392939a843ab34	880649727	1	main_z	11	main_z	157	stimuli_target_squaretriangles.svg	stimuli_distractor_diamondtriangles.svg	7	yes	44	1	1061
6.6.1	win	2022-12-15	17:19:32	17:31:06	691689	60f31196cf392939a843ab34	880649727	1	main_z	11	advance_on_keypress_ZEE	158	stimuli_target_squaretriangles.svg	stimuli_distractor_diamondtriangles.svg	7	yes	57	0	526
6.6.1	win	2022-12-15	17:19:32	17:31:08	693692	60f31196cf392939a843ab34	880649727	1	main_z	11	main_z	159	stimuli_target_diamondcircles.svg	stimuli_distractor_trianglediamonds.svg	19	yes	44	1	580
6.6.1	win	2022-12-15	17:19:32	17:31:08	693692	60f31196cf392939a843ab34	880649727	1	main_z	11	advance_on_keypress_ZEE	160	stimuli_target_diamondcircles.svg	stimuli_distractor_trianglediamonds.svg	19	yes	57	0	886