build	computer.platform	date	time	timestamp	time_elapsed_ms	subject	group	session	blockcode	blocknum	trialcode	trialnum	stimulus_left	stimulus_right	stim_index	target_present	response	correct	latency
6.6.1	win	2022-12-14	14:34:50	14:38:51	238003	5f22bdb732432502a2615f3f	548084622	1	practice_z	5	practice_z	1	stimuli_distractor_diamondtriangles.svg	stimuli_target_diamondcircles.svg	8	yes	44	1	1765
6.6.1	win	2022-12-14	14:34:50	14:38:51	238003	5f22bdb732432502a2615f3f	548084622	1	practice_z	5	advance_on_keypress_ZEE	2	stimuli_distractor_diamondtriangles.svg	stimuli_target_diamondcircles.svg	8	yes	57	0	985
6.6.1	win	2022-12-14	14:34:50	14:38:56	242709	5f22bdb732432502a2615f3f	548084622	1	practice_z	5	practice_z	3	stimuli_distractor_trianglediamonds.svg	stimuli_target_circlediamonds.svg	10	yes	0	0	2000
6.6.1	win	2022-12-14	14:34:50	14:38:56	242709	5f22bdb732432502a2615f3f	548084622	1	practice_z	5	advance_on_keypress_ZEE	4	stimuli_distractor_trianglediamonds.svg	stimuli_target_circlediamonds.svg	10	yes	57	0	926
6.6.1	win	2022-12-14	14:34:50	14:39:00	247297	5f22bdb732432502a2615f3f	548084622	1	practice_z	5	practice_z	5	stimuli_distractor_trianglediamonds.svg	stimuli_target_squarediamonds.svg	11	yes	0	0	2000
6.6.1	win	2022-12-14	14:34:50	14:39:00	247297	5f22bdb732432502a2615f3f	548084622	1	practice_z	5	advance_on_keypress_ZEE	6	stimuli_distractor_trianglediamonds.svg	stimuli_target_squarediamonds.svg	11	yes	57	0	522
6.6.1	win	2022-12-14	14:34:50	14:39:04	250833	5f22bdb732432502a2615f3f	548084622	1	practice_z	5	practice_z	7	stimuli_target_squarediamonds.svg	stimuli_distractor_trianglediamonds.svg	5	yes	44	1	1347
6.6.1	win	2022-12-14	14:34:50	14:39:04	250833	5f22bdb732432502a2615f3f	548084622	1	practice_z	5	advance_on_keypress_ZEE	8	stimuli_target_squarediamonds.svg	stimuli_distractor_trianglediamonds.svg	5	yes	57	0	1569
6.6.1	win	2022-12-14	14:34:50	14:39:08	254957	5f22bdb732432502a2615f3f	548084622	1	practice_z	5	practice_z	9	stimuli_target_circlediamonds.svg	stimuli_distractor_trianglediamonds.svg	4	yes	44	1	899
6.6.1	win	2022-12-14	14:34:50	14:39:08	254957	5f22bdb732432502a2615f3f	548084622	1	practice_z	5	advance_on_keypress_ZEE	10	stimuli_target_circlediamonds.svg	stimuli_distractor_trianglediamonds.svg	4	yes	57	0	657
6.6.1	win	2022-12-14	14:34:50	14:39:11	258206	5f22bdb732432502a2615f3f	548084622	1	practice_z	5	practice_z	11	stimuli_distractor_trianglediamonds.svg	stimuli_distractor_trianglediamonds.svg	15	no	44	0	928
6.6.1	win	2022-12-14	14:34:50	14:39:11	258206	5f22bdb732432502a2615f3f	548084622	1	practice_z	5	advance_on_keypress_ZEE	12	stimuli_distractor_trianglediamonds.svg	stimuli_distractor_trianglediamonds.svg	15	no	57	0	490
6.6.1	win	2022-12-14	14:34:50	14:39:16	262364	5f22bdb732432502a2615f3f	548084622	1	practice_z	5	practice_z	13	stimuli_target_diamondsquares.svg	stimuli_distractor_trianglediamonds.svg	6	yes	0	0	2000
6.6.1	win	2022-12-14	14:34:50	14:39:16	262364	5f22bdb732432502a2615f3f	548084622	1	practice_z	5	advance_on_keypress_ZEE	14	stimuli_target_diamondsquares.svg	stimuli_distractor_trianglediamonds.svg	6	yes	57	0	474
6.6.1	win	2022-12-14	14:34:50	14:39:18	265180	5f22bdb732432502a2615f3f	548084622	1	practice_z	5	practice_z	15	stimuli_target_circlediamonds.svg	stimuli_distractor_diamondtriangles.svg	1	yes	44	1	677
6.6.1	win	2022-12-14	14:34:50	14:39:18	265180	5f22bdb732432502a2615f3f	548084622	1	practice_z	5	advance_on_keypress_ZEE	16	stimuli_target_circlediamonds.svg	stimuli_distractor_diamondtriangles.svg	1	yes	57	0	470
6.6.1	win	2022-12-14	14:34:50	14:39:22	268610	5f22bdb732432502a2615f3f	548084622	1	practice_z	5	practice_z	17	stimuli_target_squarediamonds.svg	stimuli_distractor_diamondtriangles.svg	2	yes	44	1	1303
6.6.1	win	2022-12-14	14:34:50	14:39:22	268610	5f22bdb732432502a2615f3f	548084622	1	practice_z	5	advance_on_keypress_ZEE	18	stimuli_target_squarediamonds.svg	stimuli_distractor_diamondtriangles.svg	2	yes	57	0	482
6.6.1	win	2022-12-14	14:34:50	14:39:25	272194	5f22bdb732432502a2615f3f	548084622	1	practice_z	5	practice_z	19	stimuli_target_diamondsquares.svg	stimuli_distractor_diamondtriangles.svg	3	yes	44	1	1451
6.6.1	win	2022-12-14	14:34:50	14:39:25	272194	5f22bdb732432502a2615f3f	548084622	1	practice_z	5	advance_on_keypress_ZEE	20	stimuli_target_diamondsquares.svg	stimuli_distractor_diamondtriangles.svg	3	yes	57	0	540
6.6.1	win	2022-12-14	14:34:50	14:39:28	275239	5f22bdb732432502a2615f3f	548084622	1	practice_z	5	practice_z	21	stimuli_distractor_trianglediamonds.svg	stimuli_target_diamondcircles.svg	12	yes	44	1	843
6.6.1	win	2022-12-14	14:34:50	14:39:28	275239	5f22bdb732432502a2615f3f	548084622	1	practice_z	5	advance_on_keypress_ZEE	22	stimuli_distractor_trianglediamonds.svg	stimuli_target_diamondcircles.svg	12	yes	57	0	462
6.6.1	win	2022-12-14	14:34:50	14:39:32	278382	5f22bdb732432502a2615f3f	548084622	1	practice_z	5	practice_z	23	stimuli_distractor_diamondtriangles.svg	stimuli_target_trianglecircles.svg	9	yes	44	1	998
6.6.1	win	2022-12-14	14:34:50	14:39:32	278382	5f22bdb732432502a2615f3f	548084622	1	practice_z	5	advance_on_keypress_ZEE	24	stimuli_distractor_diamondtriangles.svg	stimuli_target_trianglecircles.svg	9	yes	57	0	533
6.6.1	win	2022-12-14	14:34:50	14:39:36	282569	5f22bdb732432502a2615f3f	548084622	1	practice_z	5	practice_z	25	stimuli_distractor_trianglediamonds.svg	stimuli_distractor_diamondtriangles.svg	16	no	0	1	2000
6.6.1	win	2022-12-14	14:34:50	14:39:36	282569	5f22bdb732432502a2615f3f	548084622	1	practice_z	5	advance_on_keypress_ZEE	26	stimuli_distractor_trianglediamonds.svg	stimuli_distractor_diamondtriangles.svg	16	no	57	0	573
6.6.1	win	2022-12-14	14:34:50	14:39:39	285645	5f22bdb732432502a2615f3f	548084622	1	practice_z	5	practice_z	27	stimuli_distractor_diamondtriangles.svg	stimuli_target_circletriangles.svg	7	yes	44	1	838
6.6.1	win	2022-12-14	14:34:50	14:39:39	285645	5f22bdb732432502a2615f3f	548084622	1	practice_z	5	advance_on_keypress_ZEE	28	stimuli_distractor_diamondtriangles.svg	stimuli_target_circletriangles.svg	7	yes	57	0	465
6.6.1	win	2022-12-14	14:34:50	14:39:43	289794	5f22bdb732432502a2615f3f	548084622	1	practice_z	5	practice_z	29	stimuli_distractor_diamondtriangles.svg	stimuli_distractor_diamondtriangles.svg	13	no	0	1	2000
6.6.1	win	2022-12-14	14:34:50	14:39:43	289794	5f22bdb732432502a2615f3f	548084622	1	practice_z	5	advance_on_keypress_ZEE	30	stimuli_distractor_diamondtriangles.svg	stimuli_distractor_diamondtriangles.svg	13	no	57	0	503
6.6.1	win	2022-12-14	14:34:50	14:39:47	293949	5f22bdb732432502a2615f3f	548084622	1	practice_z	5	practice_z	31	stimuli_distractor_diamondtriangles.svg	stimuli_distractor_trianglediamonds.svg	14	no	0	1	2000
6.6.1	win	2022-12-14	14:34:50	14:39:47	293949	5f22bdb732432502a2615f3f	548084622	1	practice_z	5	advance_on_keypress_ZEE	32	stimuli_distractor_diamondtriangles.svg	stimuli_distractor_trianglediamonds.svg	14	no	57	0	467
6.6.1	win	2022-12-14	14:34:50	14:39:54	301304	5f22bdb732432502a2615f3f	548084622	1	main_z	7	main_z	1	stimuli_distractor_diamondtriangles.svg	stimuli_distractor_trianglediamonds.svg	38	no	0	1	2000
6.6.1	win	2022-12-14	14:34:50	14:39:54	301304	5f22bdb732432502a2615f3f	548084622	1	main_z	7	advance_on_keypress_ZEE	2	stimuli_distractor_diamondtriangles.svg	stimuli_distractor_trianglediamonds.svg	38	no	57	0	588
6.6.1	win	2022-12-14	14:34:50	14:39:56	303126	5f22bdb732432502a2615f3f	548084622	1	main_z	7	main_z	3	stimuli_distractor_diamondtriangles.svg	stimuli_target_circletriangles.svg	13	yes	44	1	585
6.6.1	win	2022-12-14	14:34:50	14:39:56	303126	5f22bdb732432502a2615f3f	548084622	1	main_z	7	advance_on_keypress_ZEE	4	stimuli_distractor_diamondtriangles.svg	stimuli_target_circletriangles.svg	13	yes	57	0	1119
6.6.1	win	2022-12-14	14:34:50	14:39:59	305596	5f22bdb732432502a2615f3f	548084622	1	main_z	7	main_z	5	stimuli_target_squaretriangles.svg	stimuli_distractor_diamondtriangles.svg	7	yes	44	1	686
6.6.1	win	2022-12-14	14:34:50	14:39:59	305596	5f22bdb732432502a2615f3f	548084622	1	main_z	7	advance_on_keypress_ZEE	6	stimuli_target_squaretriangles.svg	stimuli_distractor_diamondtriangles.svg	7	yes	57	0	971
6.6.1	win	2022-12-14	14:34:50	14:40:01	308191	5f22bdb732432502a2615f3f	548084622	1	main_z	7	main_z	7	stimuli_distractor_trianglediamonds.svg	stimuli_target_squarediamonds.svg	12	yes	44	1	979
6.6.1	win	2022-12-14	14:34:50	14:40:01	308191	5f22bdb732432502a2615f3f	548084622	1	main_z	7	advance_on_keypress_ZEE	8	stimuli_distractor_trianglediamonds.svg	stimuli_target_squarediamonds.svg	12	yes	57	0	767
6.6.1	win	2022-12-14	14:34:50	14:40:03	310268	5f22bdb732432502a2615f3f	548084622	1	main_z	7	main_z	9	stimuli_target_trianglecircles.svg	stimuli_distractor_trianglediamonds.svg	17	yes	44	1	653
6.6.1	win	2022-12-14	14:34:50	14:40:03	310268	5f22bdb732432502a2615f3f	548084622	1	main_z	7	advance_on_keypress_ZEE	10	stimuli_target_trianglecircles.svg	stimuli_distractor_trianglediamonds.svg	17	yes	57	0	465
6.6.1	win	2022-12-14	14:34:50	14:40:06	312401	5f22bdb732432502a2615f3f	548084622	1	main_z	7	main_z	11	stimuli_target_squarediamonds.svg	stimuli_distractor_diamondtriangles.svg	8	yes	44	1	1017
6.6.1	win	2022-12-14	14:34:50	14:40:06	312401	5f22bdb732432502a2615f3f	548084622	1	main_z	7	advance_on_keypress_ZEE	12	stimuli_target_squarediamonds.svg	stimuli_distractor_diamondtriangles.svg	8	yes	57	0	396
6.6.1	win	2022-12-14	14:34:50	14:40:07	314037	5f22bdb732432502a2615f3f	548084622	1	main_z	7	main_z	13	stimuli_target_squarediamonds.svg	stimuli_distractor_trianglediamonds.svg	4	yes	44	1	584
6.6.1	win	2022-12-14	14:34:50	14:40:07	314037	5f22bdb732432502a2615f3f	548084622	1	main_z	7	advance_on_keypress_ZEE	14	stimuli_target_squarediamonds.svg	stimuli_distractor_trianglediamonds.svg	4	yes	57	0	333
6.6.1	win	2022-12-14	14:34:50	14:40:10	317021	5f22bdb732432502a2615f3f	548084622	1	main_z	7	main_z	15	stimuli_target_trianglesquares.svg	stimuli_distractor_diamondtriangles.svg	22	yes	0	0	2000
6.6.1	win	2022-12-14	14:34:50	14:40:10	317021	5f22bdb732432502a2615f3f	548084622	1	main_z	7	advance_on_keypress_ZEE	16	stimuli_target_trianglesquares.svg	stimuli_distractor_diamondtriangles.svg	22	yes	57	0	279
6.6.1	win	2022-12-14	14:34:50	14:40:13	319958	5f22bdb732432502a2615f3f	548084622	1	main_z	7	main_z	17	stimuli_distractor_trianglediamonds.svg	stimuli_distractor_trianglediamonds.svg	33	no	0	1	2000
6.6.1	win	2022-12-14	14:34:50	14:40:13	319958	5f22bdb732432502a2615f3f	548084622	1	main_z	7	advance_on_keypress_ZEE	18	stimuli_distractor_trianglediamonds.svg	stimuli_distractor_trianglediamonds.svg	33	no	57	0	288
6.6.1	win	2022-12-14	14:34:50	14:40:15	321561	5f22bdb732432502a2615f3f	548084622	1	main_z	7	main_z	19	stimuli_distractor_diamondtriangles.svg	stimuli_target_trianglecircles.svg	29	yes	44	1	665
6.6.1	win	2022-12-14	14:34:50	14:40:15	321561	5f22bdb732432502a2615f3f	548084622	1	main_z	7	advance_on_keypress_ZEE	20	stimuli_distractor_diamondtriangles.svg	stimuli_target_trianglecircles.svg	29	yes	57	0	836
6.6.1	win	2022-12-14	14:34:50	14:40:18	324409	5f22bdb732432502a2615f3f	548084622	1	main_z	7	main_z	21	stimuli_distractor_diamondtriangles.svg	stimuli_target_diamondsquares.svg	32	yes	44	1	1361
6.6.1	win	2022-12-14	14:34:50	14:40:18	324409	5f22bdb732432502a2615f3f	548084622	1	main_z	7	advance_on_keypress_ZEE	22	stimuli_distractor_diamondtriangles.svg	stimuli_target_diamondsquares.svg	32	yes	57	0	892
6.6.1	win	2022-12-14	14:34:50	14:40:20	326751	5f22bdb732432502a2615f3f	548084622	1	main_z	7	main_z	23	stimuli_target_circletriangles.svg	stimuli_distractor_diamondtriangles.svg	5	yes	44	1	783
6.6.1	win	2022-12-14	14:34:50	14:40:20	326751	5f22bdb732432502a2615f3f	548084622	1	main_z	7	advance_on_keypress_ZEE	24	stimuli_target_circletriangles.svg	stimuli_distractor_diamondtriangles.svg	5	yes	57	0	716
6.6.1	win	2022-12-14	14:34:50	14:40:22	328990	5f22bdb732432502a2615f3f	548084622	1	main_z	7	main_z	25	stimuli_distractor_trianglediamonds.svg	stimuli_target_trianglesquares.svg	26	yes	44	1	871
6.6.1	win	2022-12-14	14:34:50	14:40:22	328990	5f22bdb732432502a2615f3f	548084622	1	main_z	7	advance_on_keypress_ZEE	26	stimuli_distractor_trianglediamonds.svg	stimuli_target_trianglesquares.svg	26	yes	57	0	237
6.6.1	win	2022-12-14	14:34:50	14:40:24	330458	5f22bdb732432502a2615f3f	548084622	1	main_z	7	main_z	27	stimuli_distractor_trianglediamonds.svg	stimuli_target_circlediamonds.svg	10	yes	44	1	586
6.6.1	win	2022-12-14	14:34:50	14:40:24	330458	5f22bdb732432502a2615f3f	548084622	1	main_z	7	advance_on_keypress_ZEE	28	stimuli_distractor_trianglediamonds.svg	stimuli_target_circlediamonds.svg	10	yes	57	0	243
6.6.1	win	2022-12-14	14:34:50	14:40:27	333356	5f22bdb732432502a2615f3f	548084622	1	main_z	7	main_z	29	stimuli_target_diamondsquares.svg	stimuli_distractor_trianglediamonds.svg	20	yes	0	0	2000
6.6.1	win	2022-12-14	14:34:50	14:40:27	333356	5f22bdb732432502a2615f3f	548084622	1	main_z	7	advance_on_keypress_ZEE	30	stimuli_target_diamondsquares.svg	stimuli_distractor_trianglediamonds.svg	20	yes	57	0	238
6.6.1	win	2022-12-14	14:34:50	14:40:29	336243	5f22bdb732432502a2615f3f	548084622	1	main_z	7	main_z	31	stimuli_distractor_diamondtriangles.svg	stimuli_distractor_diamondtriangles.svg	39	no	0	1	2000
6.6.1	win	2022-12-14	14:34:50	14:40:29	336243	5f22bdb732432502a2615f3f	548084622	1	main_z	7	advance_on_keypress_ZEE	32	stimuli_distractor_diamondtriangles.svg	stimuli_distractor_diamondtriangles.svg	39	no	57	0	263
6.6.1	win	2022-12-14	14:34:50	14:40:31	337814	5f22bdb732432502a2615f3f	548084622	1	main_z	7	main_z	33	stimuli_target_diamondcircles.svg	stimuli_distractor_diamondtriangles.svg	23	yes	44	1	652
6.6.1	win	2022-12-14	14:34:50	14:40:31	337814	5f22bdb732432502a2615f3f	548084622	1	main_z	7	advance_on_keypress_ZEE	34	stimuli_target_diamondcircles.svg	stimuli_distractor_diamondtriangles.svg	23	yes	57	0	729
6.6.1	win	2022-12-14	14:34:50	14:40:33	340286	5f22bdb732432502a2615f3f	548084622	1	main_z	7	main_z	35	stimuli_target_diamondcircles.svg	stimuli_distractor_trianglediamonds.svg	19	yes	44	1	1088
6.6.1	win	2022-12-14	14:34:50	14:40:33	340286	5f22bdb732432502a2615f3f	548084622	1	main_z	7	advance_on_keypress_ZEE	36	stimuli_target_diamondcircles.svg	stimuli_distractor_trianglediamonds.svg	19	yes	57	0	470
6.6.1	win	2022-12-14	14:34:50	14:40:35	342124	5f22bdb732432502a2615f3f	548084622	1	main_z	7	main_z	37	stimuli_target_circlediamonds.svg	stimuli_distractor_diamondtriangles.svg	6	yes	44	1	724
6.6.1	win	2022-12-14	14:34:50	14:40:35	342124	5f22bdb732432502a2615f3f	548084622	1	main_z	7	advance_on_keypress_ZEE	38	stimuli_target_circlediamonds.svg	stimuli_distractor_diamondtriangles.svg	6	yes	57	0	264
6.6.1	win	2022-12-14	14:34:50	14:40:37	343951	5f22bdb732432502a2615f3f	548084622	1	main_z	7	main_z	39	stimuli_target_diamondsquares.svg	stimuli_distractor_diamondtriangles.svg	24	yes	44	1	915
6.6.1	win	2022-12-14	14:34:50	14:40:37	343951	5f22bdb732432502a2615f3f	548084622	1	main_z	7	advance_on_keypress_ZEE	40	stimuli_target_diamondsquares.svg	stimuli_distractor_diamondtriangles.svg	24	yes	57	0	208
6.6.1	win	2022-12-14	14:34:50	14:40:39	345591	5f22bdb732432502a2615f3f	548084622	1	main_z	7	main_z	41	stimuli_distractor_diamondtriangles.svg	stimuli_target_squarediamonds.svg	16	yes	44	1	770
6.6.1	win	2022-12-14	14:34:50	14:40:39	345591	5f22bdb732432502a2615f3f	548084622	1	main_z	7	advance_on_keypress_ZEE	42	stimuli_distractor_diamondtriangles.svg	stimuli_target_squarediamonds.svg	16	yes	57	0	223
6.6.1	win	2022-12-14	14:34:50	14:40:41	347909	5f22bdb732432502a2615f3f	548084622	1	main_z	7	main_z	43	stimuli_distractor_trianglediamonds.svg	stimuli_target_circletriangles.svg	9	yes	44	1	1452
6.6.1	win	2022-12-14	14:34:50	14:40:41	347909	5f22bdb732432502a2615f3f	548084622	1	main_z	7	advance_on_keypress_ZEE	44	stimuli_distractor_trianglediamonds.svg	stimuli_target_circletriangles.svg	9	yes	57	0	407
6.6.1	win	2022-12-14	14:34:50	14:40:44	350975	5f22bdb732432502a2615f3f	548084622	1	main_z	7	main_z	45	stimuli_distractor_diamondtriangles.svg	stimuli_distractor_trianglediamonds.svg	37	no	0	1	2000
6.6.1	win	2022-12-14	14:34:50	14:40:44	350975	5f22bdb732432502a2615f3f	548084622	1	main_z	7	advance_on_keypress_ZEE	46	stimuli_distractor_diamondtriangles.svg	stimuli_distractor_trianglediamonds.svg	37	no	57	0	259
6.6.1	win	2022-12-14	14:34:50	14:40:46	352613	5f22bdb732432502a2615f3f	548084622	1	main_z	7	main_z	47	stimuli_distractor_trianglediamonds.svg	stimuli_target_trianglecircles.svg	25	yes	44	1	717
6.6.1	win	2022-12-14	14:34:50	14:40:46	352613	5f22bdb732432502a2615f3f	548084622	1	main_z	7	advance_on_keypress_ZEE	48	stimuli_distractor_trianglediamonds.svg	stimuli_target_trianglecircles.svg	25	yes	57	0	198
6.6.1	win	2022-12-14	14:34:50	14:40:49	355464	5f22bdb732432502a2615f3f	548084622	1	main_z	7	main_z	49	stimuli_distractor_trianglediamonds.svg	stimuli_distractor_diamondtriangles.svg	36	no	0	1	2000
6.6.1	win	2022-12-14	14:34:50	14:40:49	355464	5f22bdb732432502a2615f3f	548084622	1	main_z	7	advance_on_keypress_ZEE	50	stimuli_distractor_trianglediamonds.svg	stimuli_distractor_diamondtriangles.svg	36	no	57	0	513
6.6.1	win	2022-12-14	14:34:50	14:40:52	358634	5f22bdb732432502a2615f3f	548084622	1	main_z	7	main_z	51	stimuli_distractor_trianglediamonds.svg	stimuli_distractor_trianglediamonds.svg	34	no	0	1	2000
6.6.1	win	2022-12-14	14:34:50	14:40:52	358634	5f22bdb732432502a2615f3f	548084622	1	main_z	7	advance_on_keypress_ZEE	52	stimuli_distractor_trianglediamonds.svg	stimuli_distractor_trianglediamonds.svg	34	no	57	0	20
6.6.1	win	2022-12-14	14:34:50	14:40:53	359951	5f22bdb732432502a2615f3f	548084622	1	main_z	7	main_z	53	stimuli_target_trianglesquares.svg	stimuli_distractor_trianglediamonds.svg	18	yes	44	1	648
6.6.1	win	2022-12-14	14:34:50	14:40:53	359951	5f22bdb732432502a2615f3f	548084622	1	main_z	7	advance_on_keypress_ZEE	54	stimuli_target_trianglesquares.svg	stimuli_distractor_trianglediamonds.svg	18	yes	57	0	650
6.6.1	win	2022-12-14	14:34:50	14:40:56	363117	5f22bdb732432502a2615f3f	548084622	1	main_z	7	main_z	55	stimuli_target_circletriangles.svg	stimuli_distractor_trianglediamonds.svg	1	yes	44	1	1861
6.6.1	win	2022-12-14	14:34:50	14:40:56	363117	5f22bdb732432502a2615f3f	548084622	1	main_z	7	advance_on_keypress_ZEE	56	stimuli_target_circletriangles.svg	stimuli_distractor_trianglediamonds.svg	1	yes	57	0	664
6.6.1	win	2022-12-14	14:34:50	14:41:00	366442	5f22bdb732432502a2615f3f	548084622	1	main_z	7	main_z	57	stimuli_distractor_diamondtriangles.svg	stimuli_distractor_diamondtriangles.svg	40	no	0	1	2000
6.6.1	win	2022-12-14	14:34:50	14:41:00	366442	5f22bdb732432502a2615f3f	548084622	1	main_z	7	advance_on_keypress_ZEE	58	stimuli_distractor_diamondtriangles.svg	stimuli_distractor_diamondtriangles.svg	40	no	57	0	428
6.6.1	win	2022-12-14	14:34:50	14:41:02	368481	5f22bdb732432502a2615f3f	548084622	1	main_z	7	main_z	59	stimuli_distractor_trianglediamonds.svg	stimuli_target_diamondcircles.svg	27	yes	44	1	951
6.6.1	win	2022-12-14	14:34:50	14:41:02	368481	5f22bdb732432502a2615f3f	548084622	1	main_z	7	advance_on_keypress_ZEE	60	stimuli_distractor_trianglediamonds.svg	stimuli_target_diamondcircles.svg	27	yes	57	0	327
6.6.1	win	2022-12-14	14:34:50	14:41:03	370055	5f22bdb732432502a2615f3f	548084622	1	main_z	7	main_z	61	stimuli_distractor_diamondtriangles.svg	stimuli_target_circlediamonds.svg	14	yes	44	1	590
6.6.1	win	2022-12-14	14:34:50	14:41:03	370055	5f22bdb732432502a2615f3f	548084622	1	main_z	7	advance_on_keypress_ZEE	62	stimuli_distractor_diamondtriangles.svg	stimuli_target_circlediamonds.svg	14	yes	57	0	324
6.6.1	win	2022-12-14	14:34:50	14:41:06	373034	5f22bdb732432502a2615f3f	548084622	1	main_z	7	main_z	63	stimuli_distractor_trianglediamonds.svg	stimuli_distractor_diamondtriangles.svg	35	no	0	1	2000
6.6.1	win	2022-12-14	14:34:50	14:41:06	373034	5f22bdb732432502a2615f3f	548084622	1	main_z	7	advance_on_keypress_ZEE	64	stimuli_distractor_trianglediamonds.svg	stimuli_distractor_diamondtriangles.svg	35	no	57	0	180
6.6.1	win	2022-12-14	14:34:50	14:41:08	374568	5f22bdb732432502a2615f3f	548084622	1	main_z	7	main_z	65	stimuli_distractor_diamondtriangles.svg	stimuli_target_trianglesquares.svg	30	yes	44	1	699
6.6.1	win	2022-12-14	14:34:50	14:41:08	374568	5f22bdb732432502a2615f3f	548084622	1	main_z	7	advance_on_keypress_ZEE	66	stimuli_distractor_diamondtriangles.svg	stimuli_target_trianglesquares.svg	30	yes	57	0	190
6.6.1	win	2022-12-14	14:34:50	14:41:10	376639	5f22bdb732432502a2615f3f	548084622	1	main_z	7	main_z	67	stimuli_target_squaretriangles.svg	stimuli_distractor_trianglediamonds.svg	3	yes	44	1	1218
6.6.1	win	2022-12-14	14:34:50	14:41:10	376639	5f22bdb732432502a2615f3f	548084622	1	main_z	7	advance_on_keypress_ZEE	68	stimuli_target_squaretriangles.svg	stimuli_distractor_trianglediamonds.svg	3	yes	57	0	380
6.6.1	win	2022-12-14	14:34:50	14:41:11	378274	5f22bdb732432502a2615f3f	548084622	1	main_z	7	main_z	69	stimuli_target_circlediamonds.svg	stimuli_distractor_trianglediamonds.svg	2	yes	44	1	600
6.6.1	win	2022-12-14	14:34:50	14:41:11	378274	5f22bdb732432502a2615f3f	548084622	1	main_z	7	advance_on_keypress_ZEE	70	stimuli_target_circlediamonds.svg	stimuli_distractor_trianglediamonds.svg	2	yes	57	0	182
6.6.1	win	2022-12-14	14:34:50	14:41:13	379991	5f22bdb732432502a2615f3f	548084622	1	main_z	7	main_z	71	stimuli_target_trianglecircles.svg	stimuli_distractor_diamondtriangles.svg	21	yes	44	1	882
6.6.1	win	2022-12-14	14:34:50	14:41:13	379991	5f22bdb732432502a2615f3f	548084622	1	main_z	7	advance_on_keypress_ZEE	72	stimuli_target_trianglecircles.svg	stimuli_distractor_diamondtriangles.svg	21	yes	57	0	155
6.6.1	win	2022-12-14	14:34:50	14:41:15	381730	5f22bdb732432502a2615f3f	548084622	1	main_z	7	main_z	73	stimuli_distractor_trianglediamonds.svg	stimuli_target_squaretriangles.svg	11	yes	44	1	935
6.6.1	win	2022-12-14	14:34:50	14:41:15	381730	5f22bdb732432502a2615f3f	548084622	1	main_z	7	advance_on_keypress_ZEE	74	stimuli_distractor_trianglediamonds.svg	stimuli_target_squaretriangles.svg	11	yes	57	0	229
6.6.1	win	2022-12-14	14:34:50	14:41:18	384612	5f22bdb732432502a2615f3f	548084622	1	main_z	7	main_z	75	stimuli_distractor_diamondtriangles.svg	stimuli_target_squaretriangles.svg	15	yes	0	0	2000
6.6.1	win	2022-12-14	14:34:50	14:41:18	384612	5f22bdb732432502a2615f3f	548084622	1	main_z	7	advance_on_keypress_ZEE	76	stimuli_distractor_diamondtriangles.svg	stimuli_target_squaretriangles.svg	15	yes	57	0	39
6.6.1	win	2022-12-14	14:34:50	14:41:19	385959	5f22bdb732432502a2615f3f	548084622	1	main_z	7	main_z	77	stimuli_distractor_trianglediamonds.svg	stimuli_target_diamondsquares.svg	28	yes	44	1	660
6.6.1	win	2022-12-14	14:34:50	14:41:19	385959	5f22bdb732432502a2615f3f	548084622	1	main_z	7	advance_on_keypress_ZEE	78	stimuli_distractor_trianglediamonds.svg	stimuli_target_diamondsquares.svg	28	yes	57	0	156
6.6.1	win	2022-12-14	14:34:50	14:41:21	387495	5f22bdb732432502a2615f3f	548084622	1	main_z	7	main_z	79	stimuli_distractor_diamondtriangles.svg	stimuli_target_diamondcircles.svg	31	yes	44	1	727
6.6.1	win	2022-12-14	14:34:50	14:41:21	387495	5f22bdb732432502a2615f3f	548084622	1	main_z	7	advance_on_keypress_ZEE	80	stimuli_distractor_diamondtriangles.svg	stimuli_target_diamondcircles.svg	31	yes	57	0	140
6.6.1	win	2022-12-14	14:34:50	14:41:22	388962	5f22bdb732432502a2615f3f	548084622	1	main_z	7	main_z	81	stimuli_target_circletriangles.svg	stimuli_distractor_diamondtriangles.svg	5	yes	44	1	676
6.6.1	win	2022-12-14	14:34:50	14:41:22	388962	5f22bdb732432502a2615f3f	548084622	1	main_z	7	advance_on_keypress_ZEE	82	stimuli_target_circletriangles.svg	stimuli_distractor_diamondtriangles.svg	5	yes	57	0	210
6.6.1	win	2022-12-14	14:34:50	14:41:24	390375	5f22bdb732432502a2615f3f	548084622	1	main_z	7	main_z	83	stimuli_target_trianglecircles.svg	stimuli_distractor_diamondtriangles.svg	21	yes	44	1	538
6.6.1	win	2022-12-14	14:34:50	14:41:24	390375	5f22bdb732432502a2615f3f	548084622	1	main_z	7	advance_on_keypress_ZEE	84	stimuli_target_trianglecircles.svg	stimuli_distractor_diamondtriangles.svg	21	yes	57	0	184
6.6.1	win	2022-12-14	14:34:50	14:41:25	392096	5f22bdb732432502a2615f3f	548084622	1	main_z	7	main_z	85	stimuli_distractor_trianglediamonds.svg	stimuli_target_squaretriangles.svg	11	yes	44	1	891
6.6.1	win	2022-12-14	14:34:50	14:41:25	392096	5f22bdb732432502a2615f3f	548084622	1	main_z	7	advance_on_keypress_ZEE	86	stimuli_distractor_trianglediamonds.svg	stimuli_target_squaretriangles.svg	11	yes	57	0	556
6.6.1	win	2022-12-14	14:34:50	14:41:27	393823	5f22bdb732432502a2615f3f	548084622	1	main_z	7	main_z	87	stimuli_target_diamondcircles.svg	stimuli_distractor_trianglediamonds.svg	19	yes	44	1	532
6.6.1	win	2022-12-14	14:34:50	14:41:27	393823	5f22bdb732432502a2615f3f	548084622	1	main_z	7	advance_on_keypress_ZEE	88	stimuli_target_diamondcircles.svg	stimuli_distractor_trianglediamonds.svg	19	yes	57	0	191
6.6.1	win	2022-12-14	14:34:50	14:41:30	396676	5f22bdb732432502a2615f3f	548084622	1	main_z	7	main_z	89	stimuli_distractor_trianglediamonds.svg	stimuli_distractor_diamondtriangles.svg	36	no	0	1	2000
6.6.1	win	2022-12-14	14:34:50	14:41:30	396676	5f22bdb732432502a2615f3f	548084622	1	main_z	7	advance_on_keypress_ZEE	90	stimuli_distractor_trianglediamonds.svg	stimuli_distractor_diamondtriangles.svg	36	no	57	0	582
6.6.1	win	2022-12-14	14:34:50	14:41:32	398454	5f22bdb732432502a2615f3f	548084622	1	main_z	7	main_z	91	stimuli_distractor_diamondtriangles.svg	stimuli_target_circlediamonds.svg	14	yes	44	1	541
6.6.1	win	2022-12-14	14:34:50	14:41:32	398454	5f22bdb732432502a2615f3f	548084622	1	main_z	7	advance_on_keypress_ZEE	92	stimuli_distractor_diamondtriangles.svg	stimuli_target_circlediamonds.svg	14	yes	57	0	183
6.6.1	win	2022-12-14	14:34:50	14:41:33	399883	5f22bdb732432502a2615f3f	548084622	1	main_z	7	main_z	93	stimuli_distractor_diamondtriangles.svg	stimuli_target_trianglesquares.svg	30	yes	44	1	601
6.6.1	win	2022-12-14	14:34:50	14:41:33	399883	5f22bdb732432502a2615f3f	548084622	1	main_z	7	advance_on_keypress_ZEE	94	stimuli_distractor_diamondtriangles.svg	stimuli_target_trianglesquares.svg	30	yes	57	0	146
6.6.1	win	2022-12-14	14:34:50	14:41:34	401111	5f22bdb732432502a2615f3f	548084622	1	main_z	7	main_z	95	stimuli_distractor_trianglediamonds.svg	stimuli_target_circlediamonds.svg	10	yes	44	1	427
6.6.1	win	2022-12-14	14:34:50	14:41:34	401111	5f22bdb732432502a2615f3f	548084622	1	main_z	7	advance_on_keypress_ZEE	96	stimuli_distractor_trianglediamonds.svg	stimuli_target_circlediamonds.svg	10	yes	57	0	134
6.6.1	win	2022-12-14	14:34:50	14:41:36	402379	5f22bdb732432502a2615f3f	548084622	1	main_z	7	main_z	97	stimuli_distractor_trianglediamonds.svg	stimuli_target_diamondsquares.svg	28	yes	44	1	478
6.6.1	win	2022-12-14	14:34:50	14:41:36	402379	5f22bdb732432502a2615f3f	548084622	1	main_z	7	advance_on_keypress_ZEE	98	stimuli_distractor_trianglediamonds.svg	stimuli_target_diamondsquares.svg	28	yes	57	0	144
6.6.1	win	2022-12-14	14:34:50	14:41:37	403622	5f22bdb732432502a2615f3f	548084622	1	main_z	7	main_z	99	stimuli_distractor_trianglediamonds.svg	stimuli_target_trianglecircles.svg	25	yes	44	1	436
6.6.1	win	2022-12-14	14:34:50	14:41:37	403622	5f22bdb732432502a2615f3f	548084622	1	main_z	7	advance_on_keypress_ZEE	100	stimuli_distractor_trianglediamonds.svg	stimuli_target_trianglecircles.svg	25	yes	57	0	268
6.6.1	win	2022-12-14	14:34:50	14:41:38	405159	5f22bdb732432502a2615f3f	548084622	1	main_z	7	main_z	101	stimuli_target_circlediamonds.svg	stimuli_distractor_diamondtriangles.svg	6	yes	44	1	623
6.6.1	win	2022-12-14	14:34:50	14:41:38	405159	5f22bdb732432502a2615f3f	548084622	1	main_z	7	advance_on_keypress_ZEE	102	stimuli_target_circlediamonds.svg	stimuli_distractor_diamondtriangles.svg	6	yes	57	0	127
6.6.1	win	2022-12-14	14:34:50	14:41:40	406624	5f22bdb732432502a2615f3f	548084622	1	main_z	7	main_z	103	stimuli_distractor_diamondtriangles.svg	stimuli_target_squarediamonds.svg	16	yes	44	1	685
6.6.1	win	2022-12-14	14:34:50	14:41:40	406624	5f22bdb732432502a2615f3f	548084622	1	main_z	7	advance_on_keypress_ZEE	104	stimuli_distractor_diamondtriangles.svg	stimuli_target_squarediamonds.svg	16	yes	57	0	111
6.6.1	win	2022-12-14	14:34:50	14:41:43	409390	5f22bdb732432502a2615f3f	548084622	1	main_z	7	main_z	105	stimuli_distractor_trianglediamonds.svg	stimuli_distractor_diamondtriangles.svg	35	no	0	1	2000
6.6.1	win	2022-12-14	14:34:50	14:41:43	409390	5f22bdb732432502a2615f3f	548084622	1	main_z	7	advance_on_keypress_ZEE	106	stimuli_distractor_trianglediamonds.svg	stimuli_distractor_diamondtriangles.svg	35	no	57	0	233
6.6.1	win	2022-12-14	14:34:50	14:41:44	410908	5f22bdb732432502a2615f3f	548084622	1	main_z	7	main_z	107	stimuli_distractor_trianglediamonds.svg	stimuli_target_trianglesquares.svg	26	yes	44	1	632
6.6.1	win	2022-12-14	14:34:50	14:41:44	410908	5f22bdb732432502a2615f3f	548084622	1	main_z	7	advance_on_keypress_ZEE	108	stimuli_distractor_trianglediamonds.svg	stimuli_target_trianglesquares.svg	26	yes	57	0	72
6.6.1	win	2022-12-14	14:34:50	14:41:47	413644	5f22bdb732432502a2615f3f	548084622	1	main_z	7	main_z	109	stimuli_distractor_diamondtriangles.svg	stimuli_distractor_trianglediamonds.svg	38	no	0	1	2000
6.6.1	win	2022-12-14	14:34:50	14:41:47	413644	5f22bdb732432502a2615f3f	548084622	1	main_z	7	advance_on_keypress_ZEE	110	stimuli_distractor_diamondtriangles.svg	stimuli_distractor_trianglediamonds.svg	38	no	57	0	120
6.6.1	win	2022-12-14	14:34:50	14:41:50	416414	5f22bdb732432502a2615f3f	548084622	1	main_z	7	main_z	111	stimuli_distractor_diamondtriangles.svg	stimuli_distractor_diamondtriangles.svg	39	no	0	1	2000
6.6.1	win	2022-12-14	14:34:50	14:41:50	416414	5f22bdb732432502a2615f3f	548084622	1	main_z	7	advance_on_keypress_ZEE	112	stimuli_distractor_diamondtriangles.svg	stimuli_distractor_diamondtriangles.svg	39	no	57	0	0
6.6.1	win	2022-12-14	14:34:50	14:41:51	417563	5f22bdb732432502a2615f3f	548084622	1	main_z	7	main_z	113	stimuli_distractor_diamondtriangles.svg	stimuli_target_diamondcircles.svg	31	yes	44	1	479
6.6.1	win	2022-12-14	14:34:50	14:41:51	417563	5f22bdb732432502a2615f3f	548084622	1	main_z	7	advance_on_keypress_ZEE	114	stimuli_distractor_diamondtriangles.svg	stimuli_target_diamondcircles.svg	31	yes	57	0	95
6.6.1	win	2022-12-14	14:34:50	14:41:52	418766	5f22bdb732432502a2615f3f	548084622	1	main_z	7	main_z	115	stimuli_target_circletriangles.svg	stimuli_distractor_trianglediamonds.svg	1	yes	44	1	448
6.6.1	win	2022-12-14	14:34:50	14:41:52	418766	5f22bdb732432502a2615f3f	548084622	1	main_z	7	advance_on_keypress_ZEE	116	stimuli_target_circletriangles.svg	stimuli_distractor_trianglediamonds.svg	1	yes	57	0	78
6.6.1	win	2022-12-14	14:34:50	14:41:55	421504	5f22bdb732432502a2615f3f	548084622	1	main_z	7	main_z	117	stimuli_distractor_trianglediamonds.svg	stimuli_distractor_trianglediamonds.svg	33	no	0	1	2000
6.6.1	win	2022-12-14	14:34:50	14:41:55	421504	5f22bdb732432502a2615f3f	548084622	1	main_z	7	advance_on_keypress_ZEE	118	stimuli_distractor_trianglediamonds.svg	stimuli_distractor_trianglediamonds.svg	33	no	57	0	268
6.6.1	win	2022-12-14	14:34:50	14:41:56	422941	5f22bdb732432502a2615f3f	548084622	1	main_z	7	main_z	119	stimuli_target_diamondsquares.svg	stimuli_distractor_diamondtriangles.svg	24	yes	44	1	518
6.6.1	win	2022-12-14	14:34:50	14:41:56	422941	5f22bdb732432502a2615f3f	548084622	1	main_z	7	advance_on_keypress_ZEE	120	stimuli_target_diamondsquares.svg	stimuli_distractor_diamondtriangles.svg	24	yes	57	0	67
6.6.1	win	2022-12-14	14:34:50	14:41:58	424601	5f22bdb732432502a2615f3f	548084622	1	main_z	7	main_z	121	stimuli_target_squaretriangles.svg	stimuli_distractor_diamondtriangles.svg	7	yes	44	1	942
6.6.1	win	2022-12-14	14:34:50	14:41:58	424601	5f22bdb732432502a2615f3f	548084622	1	main_z	7	advance_on_keypress_ZEE	122	stimuli_target_squaretriangles.svg	stimuli_distractor_diamondtriangles.svg	7	yes	57	0	85
6.6.1	win	2022-12-14	14:34:50	14:41:59	425959	5f22bdb732432502a2615f3f	548084622	1	main_z	7	main_z	123	stimuli_target_squarediamonds.svg	stimuli_distractor_trianglediamonds.svg	4	yes	44	1	616
6.6.1	win	2022-12-14	14:34:50	14:41:59	425959	5f22bdb732432502a2615f3f	548084622	1	main_z	7	advance_on_keypress_ZEE	124	stimuli_target_squarediamonds.svg	stimuli_distractor_trianglediamonds.svg	4	yes	57	0	57
6.6.1	win	2022-12-14	14:34:50	14:42:00	427146	5f22bdb732432502a2615f3f	548084622	1	main_z	7	main_z	125	stimuli_distractor_trianglediamonds.svg	stimuli_target_squarediamonds.svg	12	yes	44	1	468
6.6.1	win	2022-12-14	14:34:50	14:42:00	427146	5f22bdb732432502a2615f3f	548084622	1	main_z	7	advance_on_keypress_ZEE	126	stimuli_distractor_trianglediamonds.svg	stimuli_target_squarediamonds.svg	12	yes	57	0	57
6.6.1	win	2022-12-14	14:34:50	14:42:03	429862	5f22bdb732432502a2615f3f	548084622	1	main_z	7	main_z	127	stimuli_target_diamondsquares.svg	stimuli_distractor_trianglediamonds.svg	20	yes	0	0	2000
6.6.1	win	2022-12-14	14:34:50	14:42:03	429862	5f22bdb732432502a2615f3f	548084622	1	main_z	7	advance_on_keypress_ZEE	128	stimuli_target_diamondsquares.svg	stimuli_distractor_trianglediamonds.svg	20	yes	57	0	237
6.6.1	win	2022-12-14	14:34:50	14:42:05	431567	5f22bdb732432502a2615f3f	548084622	1	main_z	7	main_z	129	stimuli_distractor_diamondtriangles.svg	stimuli_target_diamondsquares.svg	32	yes	44	1	818
6.6.1	win	2022-12-14	14:34:50	14:42:05	431567	5f22bdb732432502a2615f3f	548084622	1	main_z	7	advance_on_keypress_ZEE	130	stimuli_distractor_diamondtriangles.svg	stimuli_target_diamondsquares.svg	32	yes	57	0	96
6.6.1	win	2022-12-14	14:34:50	14:42:06	432839	5f22bdb732432502a2615f3f	548084622	1	main_z	7	main_z	131	stimuli_distractor_diamondtriangles.svg	stimuli_target_squaretriangles.svg	15	yes	44	1	522
6.6.1	win	2022-12-14	14:34:50	14:42:06	432839	5f22bdb732432502a2615f3f	548084622	1	main_z	7	advance_on_keypress_ZEE	132	stimuli_distractor_diamondtriangles.svg	stimuli_target_squaretriangles.svg	15	yes	57	0	71
6.6.1	win	2022-12-14	14:34:50	14:42:07	433995	5f22bdb732432502a2615f3f	548084622	1	main_z	7	main_z	133	stimuli_target_circlediamonds.svg	stimuli_distractor_trianglediamonds.svg	2	yes	44	1	443
6.6.1	win	2022-12-14	14:34:50	14:42:07	433995	5f22bdb732432502a2615f3f	548084622	1	main_z	7	advance_on_keypress_ZEE	134	stimuli_target_circlediamonds.svg	stimuli_distractor_trianglediamonds.svg	2	yes	57	0	48
6.6.1	win	2022-12-14	14:34:50	14:42:09	435412	5f22bdb732432502a2615f3f	548084622	1	main_z	7	main_z	135	stimuli_target_squarediamonds.svg	stimuli_distractor_diamondtriangles.svg	8	yes	44	1	708
6.6.1	win	2022-12-14	14:34:50	14:42:09	435412	5f22bdb732432502a2615f3f	548084622	1	main_z	7	advance_on_keypress_ZEE	136	stimuli_target_squarediamonds.svg	stimuli_distractor_diamondtriangles.svg	8	yes	57	0	69
6.6.1	win	2022-12-14	14:34:50	14:42:11	437475	5f22bdb732432502a2615f3f	548084622	1	main_z	7	main_z	137	stimuli_target_trianglecircles.svg	stimuli_distractor_trianglediamonds.svg	17	yes	44	1	1337
6.6.1	win	2022-12-14	14:34:50	14:42:11	437475	5f22bdb732432502a2615f3f	548084622	1	main_z	7	advance_on_keypress_ZEE	138	stimuli_target_trianglecircles.svg	stimuli_distractor_trianglediamonds.svg	17	yes	57	0	134
6.6.1	win	2022-12-14	14:34:50	14:42:13	440257	5f22bdb732432502a2615f3f	548084622	1	main_z	7	main_z	139	stimuli_distractor_diamondtriangles.svg	stimuli_distractor_trianglediamonds.svg	37	no	0	1	2000
6.6.1	win	2022-12-14	14:34:50	14:42:13	440257	5f22bdb732432502a2615f3f	548084622	1	main_z	7	advance_on_keypress_ZEE	140	stimuli_distractor_diamondtriangles.svg	stimuli_distractor_trianglediamonds.svg	37	no	57	0	261
6.6.1	win	2022-12-14	14:34:50	14:42:15	441814	5f22bdb732432502a2615f3f	548084622	1	main_z	7	main_z	141	stimuli_distractor_trianglediamonds.svg	stimuli_target_circletriangles.svg	9	yes	44	1	637
6.6.1	win	2022-12-14	14:34:50	14:42:15	441814	5f22bdb732432502a2615f3f	548084622	1	main_z	7	advance_on_keypress_ZEE	142	stimuli_distractor_trianglediamonds.svg	stimuli_target_circletriangles.svg	9	yes	57	0	74
6.6.1	win	2022-12-14	14:34:50	14:42:16	443007	5f22bdb732432502a2615f3f	548084622	1	main_z	7	main_z	143	stimuli_target_squaretriangles.svg	stimuli_distractor_trianglediamonds.svg	3	yes	44	1	462
6.6.1	win	2022-12-14	14:34:50	14:42:16	443007	5f22bdb732432502a2615f3f	548084622	1	main_z	7	advance_on_keypress_ZEE	144	stimuli_target_squaretriangles.svg	stimuli_distractor_trianglediamonds.svg	3	yes	57	0	45
6.6.1	win	2022-12-14	14:34:50	14:42:17	444163	5f22bdb732432502a2615f3f	548084622	1	main_z	7	main_z	145	stimuli_distractor_diamondtriangles.svg	stimuli_target_trianglecircles.svg	29	yes	44	1	450
6.6.1	win	2022-12-14	14:34:50	14:42:17	444163	5f22bdb732432502a2615f3f	548084622	1	main_z	7	advance_on_keypress_ZEE	146	stimuli_distractor_diamondtriangles.svg	stimuli_target_trianglecircles.svg	29	yes	57	0	108
6.6.1	win	2022-12-14	14:34:50	14:42:20	446931	5f22bdb732432502a2615f3f	548084622	1	main_z	7	main_z	147	stimuli_distractor_trianglediamonds.svg	stimuli_distractor_trianglediamonds.svg	34	no	0	1	2000
6.6.1	win	2022-12-14	14:34:50	14:42:20	446931	5f22bdb732432502a2615f3f	548084622	1	main_z	7	advance_on_keypress_ZEE	148	stimuli_distractor_trianglediamonds.svg	stimuli_distractor_trianglediamonds.svg	34	no	57	0	341
6.6.1	win	2022-12-14	14:34:50	14:42:22	448398	5f22bdb732432502a2615f3f	548084622	1	main_z	7	main_z	149	stimuli_target_diamondcircles.svg	stimuli_distractor_diamondtriangles.svg	23	yes	44	1	464
6.6.1	win	2022-12-14	14:34:50	14:42:22	448398	5f22bdb732432502a2615f3f	548084622	1	main_z	7	advance_on_keypress_ZEE	150	stimuli_target_diamondcircles.svg	stimuli_distractor_diamondtriangles.svg	23	yes	57	0	59
6.6.1	win	2022-12-14	14:34:50	14:42:24	451119	5f22bdb732432502a2615f3f	548084622	1	main_z	7	main_z	151	stimuli_distractor_diamondtriangles.svg	stimuli_distractor_diamondtriangles.svg	40	no	0	1	2000
6.6.1	win	2022-12-14	14:34:50	14:42:24	451119	5f22bdb732432502a2615f3f	548084622	1	main_z	7	advance_on_keypress_ZEE	152	stimuli_distractor_diamondtriangles.svg	stimuli_distractor_diamondtriangles.svg	40	no	57	0	299
6.6.1	win	2022-12-14	14:34:50	14:42:26	452592	5f22bdb732432502a2615f3f	548084622	1	main_z	7	main_z	153	stimuli_target_trianglesquares.svg	stimuli_distractor_trianglediamonds.svg	18	yes	44	1	517
6.6.1	win	2022-12-14	14:34:50	14:42:26	452592	5f22bdb732432502a2615f3f	548084622	1	main_z	7	advance_on_keypress_ZEE	154	stimuli_target_trianglesquares.svg	stimuli_distractor_trianglediamonds.svg	18	yes	57	0	480
6.6.1	win	2022-12-14	14:34:50	14:42:27	454303	5f22bdb732432502a2615f3f	548084622	1	main_z	7	main_z	155	stimuli_distractor_diamondtriangles.svg	stimuli_target_circletriangles.svg	13	yes	44	1	579
6.6.1	win	2022-12-14	14:34:50	14:42:27	454303	5f22bdb732432502a2615f3f	548084622	1	main_z	7	advance_on_keypress_ZEE	156	stimuli_distractor_diamondtriangles.svg	stimuli_target_circletriangles.svg	13	yes	57	0	52
6.6.1	win	2022-12-14	14:34:50	14:42:29	455738	5f22bdb732432502a2615f3f	548084622	1	main_z	7	main_z	157	stimuli_target_trianglesquares.svg	stimuli_distractor_diamondtriangles.svg	22	yes	44	1	729
6.6.1	win	2022-12-14	14:34:50	14:42:29	455738	5f22bdb732432502a2615f3f	548084622	1	main_z	7	advance_on_keypress_ZEE	158	stimuli_target_trianglesquares.svg	stimuli_distractor_diamondtriangles.svg	22	yes	57	0	30
6.6.1	win	2022-12-14	14:34:50	14:42:30	456989	5f22bdb732432502a2615f3f	548084622	1	main_z	7	main_z	159	stimuli_distractor_trianglediamonds.svg	stimuli_target_diamondcircles.svg	27	yes	44	1	562
6.6.1	win	2022-12-14	14:34:50	14:42:30	456989	5f22bdb732432502a2615f3f	548084622	1	main_z	7	advance_on_keypress_ZEE	160	stimuli_distractor_trianglediamonds.svg	stimuli_target_diamondcircles.svg	27	yes	57	0	48
6.6.1	win	2022-12-14	14:34:50	14:42:47	473663	5f22bdb732432502a2615f3f	548084622	1	practice_slash	9	practice_slash	1	stimuli_target_circlediamonds.svg	stimuli_distractor_diamondtriangles.svg	1	yes	53	1	615
6.6.1	win	2022-12-14	14:34:50	14:42:47	473663	5f22bdb732432502a2615f3f	548084622	1	practice_slash	9	advance_on_keypress_SLASH	2	stimuli_target_circlediamonds.svg	stimuli_distractor_diamondtriangles.svg	1	yes	57	0	462
6.6.1	win	2022-12-14	14:34:50	14:42:49	476310	5f22bdb732432502a2615f3f	548084622	1	practice_slash	9	practice_slash	3	stimuli_target_squarediamonds.svg	stimuli_distractor_diamondtriangles.svg	2	yes	53	1	526
6.6.1	win	2022-12-14	14:34:50	14:42:49	476310	5f22bdb732432502a2615f3f	548084622	1	practice_slash	9	advance_on_keypress_SLASH	4	stimuli_target_squarediamonds.svg	stimuli_distractor_diamondtriangles.svg	2	yes	57	0	685
6.6.1	win	2022-12-14	14:34:50	14:42:52	479075	5f22bdb732432502a2615f3f	548084622	1	practice_slash	9	practice_slash	5	stimuli_distractor_trianglediamonds.svg	stimuli_target_circlediamonds.svg	10	yes	53	1	420
6.6.1	win	2022-12-14	14:34:50	14:42:52	479075	5f22bdb732432502a2615f3f	548084622	1	practice_slash	9	advance_on_keypress_SLASH	6	stimuli_distractor_trianglediamonds.svg	stimuli_target_circlediamonds.svg	10	yes	57	0	967
6.6.1	win	2022-12-14	14:34:50	14:42:56	482385	5f22bdb732432502a2615f3f	548084622	1	practice_slash	9	practice_slash	7	stimuli_distractor_diamondtriangles.svg	stimuli_target_diamondcircles.svg	8	yes	53	1	693
6.6.1	win	2022-12-14	14:34:50	14:42:56	482385	5f22bdb732432502a2615f3f	548084622	1	practice_slash	9	advance_on_keypress_SLASH	8	stimuli_distractor_diamondtriangles.svg	stimuli_target_diamondcircles.svg	8	yes	57	0	335
6.6.1	win	2022-12-14	14:34:50	14:42:58	484806	5f22bdb732432502a2615f3f	548084622	1	practice_slash	9	practice_slash	9	stimuli_distractor_trianglediamonds.svg	stimuli_target_squarediamonds.svg	11	yes	53	1	429
6.6.1	win	2022-12-14	14:34:50	14:42:58	484806	5f22bdb732432502a2615f3f	548084622	1	practice_slash	9	advance_on_keypress_SLASH	10	stimuli_distractor_trianglediamonds.svg	stimuli_target_squarediamonds.svg	11	yes	57	0	513
6.6.1	win	2022-12-14	14:34:50	14:43:01	487533	5f22bdb732432502a2615f3f	548084622	1	practice_slash	9	practice_slash	11	stimuli_distractor_diamondtriangles.svg	stimuli_target_trianglecircles.svg	9	yes	53	1	552
6.6.1	win	2022-12-14	14:34:50	14:43:01	487533	5f22bdb732432502a2615f3f	548084622	1	practice_slash	9	advance_on_keypress_SLASH	12	stimuli_distractor_diamondtriangles.svg	stimuli_target_trianglecircles.svg	9	yes	57	0	448
6.6.1	win	2022-12-14	14:34:50	14:43:03	490089	5f22bdb732432502a2615f3f	548084622	1	practice_slash	9	practice_slash	13	stimuli_target_circlediamonds.svg	stimuli_distractor_trianglediamonds.svg	4	yes	53	1	456
6.6.1	win	2022-12-14	14:34:50	14:43:03	490089	5f22bdb732432502a2615f3f	548084622	1	practice_slash	9	advance_on_keypress_SLASH	14	stimuli_target_circlediamonds.svg	stimuli_distractor_trianglediamonds.svg	4	yes	57	0	504
6.6.1	win	2022-12-14	14:34:50	14:43:06	492878	5f22bdb732432502a2615f3f	548084622	1	practice_slash	9	practice_slash	15	stimuli_distractor_diamondtriangles.svg	stimuli_target_circletriangles.svg	7	yes	53	1	624
6.6.1	win	2022-12-14	14:34:50	14:43:06	492878	5f22bdb732432502a2615f3f	548084622	1	practice_slash	9	advance_on_keypress_SLASH	16	stimuli_distractor_diamondtriangles.svg	stimuli_target_circletriangles.svg	7	yes	57	0	262
6.6.1	win	2022-12-14	14:34:50	14:43:10	496805	5f22bdb732432502a2615f3f	548084622	1	practice_slash	9	practice_slash	17	stimuli_distractor_trianglediamonds.svg	stimuli_distractor_diamondtriangles.svg	16	no	0	1	2000
6.6.1	win	2022-12-14	14:34:50	14:43:10	496805	5f22bdb732432502a2615f3f	548084622	1	practice_slash	9	advance_on_keypress_SLASH	18	stimuli_distractor_trianglediamonds.svg	stimuli_distractor_diamondtriangles.svg	16	no	57	0	568
6.6.1	win	2022-12-14	14:34:50	14:43:14	501028	5f22bdb732432502a2615f3f	548084622	1	practice_slash	9	practice_slash	19	stimuli_distractor_diamondtriangles.svg	stimuli_distractor_diamondtriangles.svg	13	no	0	1	2000
6.6.1	win	2022-12-14	14:34:50	14:43:14	501028	5f22bdb732432502a2615f3f	548084622	1	practice_slash	9	advance_on_keypress_SLASH	20	stimuli_distractor_diamondtriangles.svg	stimuli_distractor_diamondtriangles.svg	13	no	57	0	521
6.6.1	win	2022-12-14	14:34:50	14:43:17	503959	5f22bdb732432502a2615f3f	548084622	1	practice_slash	9	practice_slash	21	stimuli_target_squarediamonds.svg	stimuli_distractor_trianglediamonds.svg	5	yes	53	1	743
6.6.1	win	2022-12-14	14:34:50	14:43:17	503959	5f22bdb732432502a2615f3f	548084622	1	practice_slash	9	advance_on_keypress_SLASH	22	stimuli_target_squarediamonds.svg	stimuli_distractor_trianglediamonds.svg	5	yes	57	0	553
6.6.1	win	2022-12-14	14:34:50	14:43:20	506919	5f22bdb732432502a2615f3f	548084622	1	practice_slash	9	practice_slash	23	stimuli_distractor_diamondtriangles.svg	stimuli_distractor_trianglediamonds.svg	14	no	53	0	750
6.6.1	win	2022-12-14	14:34:50	14:43:20	506919	5f22bdb732432502a2615f3f	548084622	1	practice_slash	9	advance_on_keypress_SLASH	24	stimuli_distractor_diamondtriangles.svg	stimuli_distractor_trianglediamonds.svg	14	no	57	0	558
6.6.1	win	2022-12-14	14:34:50	14:43:23	509815	5f22bdb732432502a2615f3f	548084622	1	practice_slash	9	practice_slash	25	stimuli_target_diamondsquares.svg	stimuli_distractor_trianglediamonds.svg	6	yes	53	1	677
6.6.1	win	2022-12-14	14:34:50	14:43:23	509815	5f22bdb732432502a2615f3f	548084622	1	practice_slash	9	advance_on_keypress_SLASH	26	stimuli_target_diamondsquares.svg	stimuli_distractor_trianglediamonds.svg	6	yes	57	0	533
6.6.1	win	2022-12-14	14:34:50	14:43:27	514008	5f22bdb732432502a2615f3f	548084622	1	practice_slash	9	practice_slash	27	stimuli_distractor_trianglediamonds.svg	stimuli_distractor_trianglediamonds.svg	15	no	0	1	2000
6.6.1	win	2022-12-14	14:34:50	14:43:27	514008	5f22bdb732432502a2615f3f	548084622	1	practice_slash	9	advance_on_keypress_SLASH	28	stimuli_distractor_trianglediamonds.svg	stimuli_distractor_trianglediamonds.svg	15	no	57	0	320
6.6.1	win	2022-12-14	14:34:50	14:43:31	517446	5f22bdb732432502a2615f3f	548084622	1	practice_slash	9	practice_slash	29	stimuli_target_diamondsquares.svg	stimuli_distractor_diamondtriangles.svg	3	yes	53	1	1467
6.6.1	win	2022-12-14	14:34:50	14:43:31	517446	5f22bdb732432502a2615f3f	548084622	1	practice_slash	9	advance_on_keypress_SLASH	30	stimuli_target_diamondsquares.svg	stimuli_distractor_diamondtriangles.svg	3	yes	57	0	561
6.6.1	win	2022-12-14	14:34:50	14:43:34	520399	5f22bdb732432502a2615f3f	548084622	1	practice_slash	9	practice_slash	31	stimuli_distractor_trianglediamonds.svg	stimuli_target_diamondcircles.svg	12	yes	53	1	732
6.6.1	win	2022-12-14	14:34:50	14:43:34	520399	5f22bdb732432502a2615f3f	548084622	1	practice_slash	9	advance_on_keypress_SLASH	32	stimuli_distractor_trianglediamonds.svg	stimuli_target_diamondcircles.svg	12	yes	57	0	489
6.6.1	win	2022-12-14	14:34:50	14:43:38	525253	5f22bdb732432502a2615f3f	548084622	1	main_slash	11	main_slash	1	stimuli_target_circlediamonds.svg	stimuli_distractor_diamondtriangles.svg	6	yes	53	1	684
6.6.1	win	2022-12-14	14:34:50	14:43:38	525253	5f22bdb732432502a2615f3f	548084622	1	main_slash	11	advance_on_keypress_SLASH	2	stimuli_target_circlediamonds.svg	stimuli_distractor_diamondtriangles.svg	6	yes	57	0	71
6.6.1	win	2022-12-14	14:34:50	14:43:40	526331	5f22bdb732432502a2615f3f	548084622	1	main_slash	11	main_slash	3	stimuli_distractor_trianglediamonds.svg	stimuli_target_diamondcircles.svg	27	yes	53	1	361
6.6.1	win	2022-12-14	14:34:50	14:43:40	526331	5f22bdb732432502a2615f3f	548084622	1	main_slash	11	advance_on_keypress_SLASH	4	stimuli_distractor_trianglediamonds.svg	stimuli_target_diamondcircles.svg	27	yes	57	0	28
6.6.1	win	2022-12-14	14:34:50	14:43:41	527449	5f22bdb732432502a2615f3f	548084622	1	main_slash	11	main_slash	5	stimuli_distractor_diamondtriangles.svg	stimuli_target_circletriangles.svg	13	yes	53	1	428
6.6.1	win	2022-12-14	14:34:50	14:43:41	527449	5f22bdb732432502a2615f3f	548084622	1	main_slash	11	advance_on_keypress_SLASH	6	stimuli_distractor_diamondtriangles.svg	stimuli_target_circletriangles.svg	13	yes	57	0	33
6.6.1	win	2022-12-14	14:34:50	14:43:43	530140	5f22bdb732432502a2615f3f	548084622	1	main_slash	11	main_slash	7	stimuli_distractor_trianglediamonds.svg	stimuli_distractor_trianglediamonds.svg	34	no	0	1	2000
6.6.1	win	2022-12-14	14:34:50	14:43:43	530140	5f22bdb732432502a2615f3f	548084622	1	main_slash	11	advance_on_keypress_SLASH	8	stimuli_distractor_trianglediamonds.svg	stimuli_distractor_trianglediamonds.svg	34	no	57	0	260
6.6.1	win	2022-12-14	14:34:50	14:43:45	531520	5f22bdb732432502a2615f3f	548084622	1	main_slash	11	main_slash	9	stimuli_target_circlediamonds.svg	stimuli_distractor_trianglediamonds.svg	2	yes	53	1	460
6.6.1	win	2022-12-14	14:34:50	14:43:45	531520	5f22bdb732432502a2615f3f	548084622	1	main_slash	11	advance_on_keypress_SLASH	10	stimuli_target_circlediamonds.svg	stimuli_distractor_trianglediamonds.svg	2	yes	57	0	59
6.6.1	win	2022-12-14	14:34:50	14:43:46	532639	5f22bdb732432502a2615f3f	548084622	1	main_slash	11	main_slash	11	stimuli_distractor_diamondtriangles.svg	stimuli_target_circlediamonds.svg	14	yes	53	1	395
6.6.1	win	2022-12-14	14:34:50	14:43:46	532639	5f22bdb732432502a2615f3f	548084622	1	main_slash	11	advance_on_keypress_SLASH	12	stimuli_distractor_diamondtriangles.svg	stimuli_target_circlediamonds.svg	14	yes	57	0	44
6.6.1	win	2022-12-14	14:34:50	14:43:49	535345	5f22bdb732432502a2615f3f	548084622	1	main_slash	11	main_slash	13	stimuli_distractor_diamondtriangles.svg	stimuli_target_squarediamonds.svg	16	yes	0	0	2000
6.6.1	win	2022-12-14	14:34:50	14:43:49	535345	5f22bdb732432502a2615f3f	548084622	1	main_slash	11	advance_on_keypress_SLASH	14	stimuli_distractor_diamondtriangles.svg	stimuli_target_squarediamonds.svg	16	yes	57	0	289
6.6.1	win	2022-12-14	14:34:50	14:43:50	536839	5f22bdb732432502a2615f3f	548084622	1	main_slash	11	main_slash	15	stimuli_target_squaretriangles.svg	stimuli_distractor_trianglediamonds.svg	3	yes	53	1	557
6.6.1	win	2022-12-14	14:34:50	14:43:50	536839	5f22bdb732432502a2615f3f	548084622	1	main_slash	11	advance_on_keypress_SLASH	16	stimuli_target_squaretriangles.svg	stimuli_distractor_trianglediamonds.svg	3	yes	57	0	870
6.6.1	win	2022-12-14	14:34:50	14:43:52	539062	5f22bdb732432502a2615f3f	548084622	1	main_slash	11	main_slash	17	stimuli_target_trianglesquares.svg	stimuli_distractor_trianglediamonds.svg	18	yes	53	1	710
6.6.1	win	2022-12-14	14:34:50	14:43:52	539062	5f22bdb732432502a2615f3f	548084622	1	main_slash	11	advance_on_keypress_SLASH	18	stimuli_target_trianglesquares.svg	stimuli_distractor_trianglediamonds.svg	18	yes	57	0	54
6.6.1	win	2022-12-14	14:34:50	14:43:55	541769	5f22bdb732432502a2615f3f	548084622	1	main_slash	11	main_slash	19	stimuli_distractor_trianglediamonds.svg	stimuli_distractor_diamondtriangles.svg	35	no	0	1	2000
6.6.1	win	2022-12-14	14:34:50	14:43:55	541769	5f22bdb732432502a2615f3f	548084622	1	main_slash	11	advance_on_keypress_SLASH	20	stimuli_distractor_trianglediamonds.svg	stimuli_distractor_diamondtriangles.svg	35	no	57	0	515
6.6.1	win	2022-12-14	14:34:50	14:43:57	543495	5f22bdb732432502a2615f3f	548084622	1	main_slash	11	main_slash	21	stimuli_target_diamondcircles.svg	stimuli_distractor_trianglediamonds.svg	19	yes	53	1	556
6.6.1	win	2022-12-14	14:34:50	14:43:57	543495	5f22bdb732432502a2615f3f	548084622	1	main_slash	11	advance_on_keypress_SLASH	22	stimuli_target_diamondcircles.svg	stimuli_distractor_trianglediamonds.svg	19	yes	57	0	67
6.6.1	win	2022-12-14	14:34:50	14:43:59	545550	5f22bdb732432502a2615f3f	548084622	1	main_slash	11	main_slash	23	stimuli_target_squarediamonds.svg	stimuli_distractor_trianglediamonds.svg	4	yes	53	1	1342
6.6.1	win	2022-12-14	14:34:50	14:43:59	545550	5f22bdb732432502a2615f3f	548084622	1	main_slash	11	advance_on_keypress_SLASH	24	stimuli_target_squarediamonds.svg	stimuli_distractor_trianglediamonds.svg	4	yes	57	0	102
6.6.1	win	2022-12-14	14:34:50	14:44:01	548293	5f22bdb732432502a2615f3f	548084622	1	main_slash	11	main_slash	25	stimuli_distractor_trianglediamonds.svg	stimuli_distractor_trianglediamonds.svg	33	no	0	1	2000
6.6.1	win	2022-12-14	14:34:50	14:44:01	548293	5f22bdb732432502a2615f3f	548084622	1	main_slash	11	advance_on_keypress_SLASH	26	stimuli_distractor_trianglediamonds.svg	stimuli_distractor_trianglediamonds.svg	33	no	57	0	746
6.6.1	win	2022-12-14	14:34:50	14:44:03	550212	5f22bdb732432502a2615f3f	548084622	1	main_slash	11	main_slash	27	stimuli_distractor_diamondtriangles.svg	stimuli_target_diamondsquares.svg	32	yes	53	1	507
6.6.1	win	2022-12-14	14:34:50	14:44:03	550212	5f22bdb732432502a2615f3f	548084622	1	main_slash	11	advance_on_keypress_SLASH	28	stimuli_distractor_diamondtriangles.svg	stimuli_target_diamondsquares.svg	32	yes	57	0	51
6.6.1	win	2022-12-14	14:34:50	14:44:05	551444	5f22bdb732432502a2615f3f	548084622	1	main_slash	11	main_slash	29	stimuli_distractor_trianglediamonds.svg	stimuli_target_trianglesquares.svg	26	yes	53	1	530
6.6.1	win	2022-12-14	14:34:50	14:44:05	551444	5f22bdb732432502a2615f3f	548084622	1	main_slash	11	advance_on_keypress_SLASH	30	stimuli_distractor_trianglediamonds.svg	stimuli_target_trianglesquares.svg	26	yes	57	0	61
6.6.1	win	2022-12-14	14:34:50	14:44:07	554166	5f22bdb732432502a2615f3f	548084622	1	main_slash	11	main_slash	31	stimuli_distractor_diamondtriangles.svg	stimuli_distractor_diamondtriangles.svg	40	no	0	1	2000
6.6.1	win	2022-12-14	14:34:50	14:44:07	554166	5f22bdb732432502a2615f3f	548084622	1	main_slash	11	advance_on_keypress_SLASH	32	stimuli_distractor_diamondtriangles.svg	stimuli_distractor_diamondtriangles.svg	40	no	57	0	244
6.6.1	win	2022-12-14	14:34:50	14:44:09	555504	5f22bdb732432502a2615f3f	548084622	1	main_slash	11	main_slash	33	stimuli_target_trianglecircles.svg	stimuli_distractor_diamondtriangles.svg	21	yes	53	1	435
6.6.1	win	2022-12-14	14:34:50	14:44:09	555504	5f22bdb732432502a2615f3f	548084622	1	main_slash	11	advance_on_keypress_SLASH	34	stimuli_target_trianglecircles.svg	stimuli_distractor_diamondtriangles.svg	21	yes	57	0	68
6.6.1	win	2022-12-14	14:34:50	14:44:10	556736	5f22bdb732432502a2615f3f	548084622	1	main_slash	11	main_slash	35	stimuli_distractor_trianglediamonds.svg	stimuli_target_circlediamonds.svg	10	yes	53	1	516
6.6.1	win	2022-12-14	14:34:50	14:44:10	556736	5f22bdb732432502a2615f3f	548084622	1	main_slash	11	advance_on_keypress_SLASH	36	stimuli_distractor_trianglediamonds.svg	stimuli_target_circlediamonds.svg	10	yes	57	0	52
6.6.1	win	2022-12-14	14:34:50	14:44:11	558053	5f22bdb732432502a2615f3f	548084622	1	main_slash	11	main_slash	37	stimuli_distractor_diamondtriangles.svg	stimuli_target_diamondcircles.svg	31	yes	53	1	615
6.6.1	win	2022-12-14	14:34:50	14:44:11	558053	5f22bdb732432502a2615f3f	548084622	1	main_slash	11	advance_on_keypress_SLASH	38	stimuli_distractor_diamondtriangles.svg	stimuli_target_diamondcircles.svg	31	yes	57	0	71
6.6.1	win	2022-12-14	14:34:50	14:44:12	559239	5f22bdb732432502a2615f3f	548084622	1	main_slash	11	main_slash	39	stimuli_distractor_diamondtriangles.svg	stimuli_target_trianglesquares.svg	30	yes	53	1	466
6.6.1	win	2022-12-14	14:34:50	14:44:12	559239	5f22bdb732432502a2615f3f	548084622	1	main_slash	11	advance_on_keypress_SLASH	40	stimuli_distractor_diamondtriangles.svg	stimuli_target_trianglesquares.svg	30	yes	57	0	70
6.6.1	win	2022-12-14	14:34:50	14:44:14	560412	5f22bdb732432502a2615f3f	548084622	1	main_slash	11	main_slash	41	stimuli_target_diamondsquares.svg	stimuli_distractor_diamondtriangles.svg	24	yes	53	1	454
6.6.1	win	2022-12-14	14:34:50	14:44:14	560412	5f22bdb732432502a2615f3f	548084622	1	main_slash	11	advance_on_keypress_SLASH	42	stimuli_target_diamondsquares.svg	stimuli_distractor_diamondtriangles.svg	24	yes	57	0	60
6.6.1	win	2022-12-14	14:34:50	14:44:15	561518	5f22bdb732432502a2615f3f	548084622	1	main_slash	11	main_slash	43	stimuli_distractor_trianglediamonds.svg	stimuli_target_trianglecircles.svg	25	yes	53	1	392
6.6.1	win	2022-12-14	14:34:50	14:44:15	561518	5f22bdb732432502a2615f3f	548084622	1	main_slash	11	advance_on_keypress_SLASH	44	stimuli_distractor_trianglediamonds.svg	stimuli_target_trianglecircles.svg	25	yes	57	0	26
6.6.1	win	2022-12-14	14:34:50	14:44:16	562661	5f22bdb732432502a2615f3f	548084622	1	main_slash	11	main_slash	45	stimuli_distractor_trianglediamonds.svg	stimuli_target_circletriangles.svg	9	yes	53	1	450
6.6.1	win	2022-12-14	14:34:50	14:44:16	562661	5f22bdb732432502a2615f3f	548084622	1	main_slash	11	advance_on_keypress_SLASH	46	stimuli_distractor_trianglediamonds.svg	stimuli_target_circletriangles.svg	9	yes	57	0	65
6.6.1	win	2022-12-14	14:34:50	14:44:17	563907	5f22bdb732432502a2615f3f	548084622	1	main_slash	11	main_slash	47	stimuli_target_trianglecircles.svg	stimuli_distractor_trianglediamonds.svg	17	yes	53	1	529
6.6.1	win	2022-12-14	14:34:50	14:44:17	563907	5f22bdb732432502a2615f3f	548084622	1	main_slash	11	advance_on_keypress_SLASH	48	stimuli_target_trianglecircles.svg	stimuli_distractor_trianglediamonds.svg	17	yes	57	0	74
6.6.1	win	2022-12-14	14:34:50	14:44:20	566646	5f22bdb732432502a2615f3f	548084622	1	main_slash	11	main_slash	49	stimuli_distractor_diamondtriangles.svg	stimuli_distractor_diamondtriangles.svg	39	no	0	1	2000
6.6.1	win	2022-12-14	14:34:50	14:44:20	566646	5f22bdb732432502a2615f3f	548084622	1	main_slash	11	advance_on_keypress_SLASH	50	stimuli_distractor_diamondtriangles.svg	stimuli_distractor_diamondtriangles.svg	39	no	57	0	347
6.6.1	win	2022-12-14	14:34:50	14:44:21	568165	5f22bdb732432502a2615f3f	548084622	1	main_slash	11	main_slash	51	stimuli_target_squaretriangles.svg	stimuli_distractor_diamondtriangles.svg	7	yes	53	1	513
6.6.1	win	2022-12-14	14:34:50	14:44:21	568165	5f22bdb732432502a2615f3f	548084622	1	main_slash	11	advance_on_keypress_SLASH	52	stimuli_target_squaretriangles.svg	stimuli_distractor_diamondtriangles.svg	7	yes	57	0	59
6.6.1	win	2022-12-14	14:34:50	14:44:22	569286	5f22bdb732432502a2615f3f	548084622	1	main_slash	11	main_slash	53	stimuli_target_trianglesquares.svg	stimuli_distractor_diamondtriangles.svg	22	yes	53	1	402
6.6.1	win	2022-12-14	14:34:50	14:44:22	569286	5f22bdb732432502a2615f3f	548084622	1	main_slash	11	advance_on_keypress_SLASH	54	stimuli_target_trianglesquares.svg	stimuli_distractor_diamondtriangles.svg	22	yes	57	0	110
6.6.1	win	2022-12-14	14:34:50	14:44:24	570475	5f22bdb732432502a2615f3f	548084622	1	main_slash	11	main_slash	55	stimuli_distractor_trianglediamonds.svg	stimuli_target_diamondsquares.svg	28	yes	53	1	423
6.6.1	win	2022-12-14	14:34:50	14:44:24	570475	5f22bdb732432502a2615f3f	548084622	1	main_slash	11	advance_on_keypress_SLASH	56	stimuli_distractor_trianglediamonds.svg	stimuli_target_diamondsquares.svg	28	yes	57	0	32
6.6.1	win	2022-12-14	14:34:50	14:44:25	571872	5f22bdb732432502a2615f3f	548084622	1	main_slash	11	main_slash	57	stimuli_distractor_trianglediamonds.svg	stimuli_target_squarediamonds.svg	12	yes	53	1	718
6.6.1	win	2022-12-14	14:34:50	14:44:25	571872	5f22bdb732432502a2615f3f	548084622	1	main_slash	11	advance_on_keypress_SLASH	58	stimuli_distractor_trianglediamonds.svg	stimuli_target_squarediamonds.svg	12	yes	57	0	81
6.6.1	win	2022-12-14	14:34:50	14:44:26	573134	5f22bdb732432502a2615f3f	548084622	1	main_slash	11	main_slash	59	stimuli_target_diamondcircles.svg	stimuli_distractor_diamondtriangles.svg	23	yes	53	1	529
6.6.1	win	2022-12-14	14:34:50	14:44:26	573134	5f22bdb732432502a2615f3f	548084622	1	main_slash	11	advance_on_keypress_SLASH	60	stimuli_target_diamondcircles.svg	stimuli_distractor_diamondtriangles.svg	23	yes	57	0	59
6.6.1	win	2022-12-14	14:34:50	14:44:27	574306	5f22bdb732432502a2615f3f	548084622	1	main_slash	11	main_slash	61	stimuli_target_diamondsquares.svg	stimuli_distractor_trianglediamonds.svg	20	yes	53	1	450
6.6.1	win	2022-12-14	14:34:50	14:44:27	574306	5f22bdb732432502a2615f3f	548084622	1	main_slash	11	advance_on_keypress_SLASH	62	stimuli_target_diamondsquares.svg	stimuli_distractor_trianglediamonds.svg	20	yes	57	0	55
6.6.1	win	2022-12-14	14:34:50	14:44:29	575396	5f22bdb732432502a2615f3f	548084622	1	main_slash	11	main_slash	63	stimuli_distractor_diamondtriangles.svg	stimuli_target_trianglecircles.svg	29	yes	53	1	388
6.6.1	win	2022-12-14	14:34:50	14:44:29	575396	5f22bdb732432502a2615f3f	548084622	1	main_slash	11	advance_on_keypress_SLASH	64	stimuli_distractor_diamondtriangles.svg	stimuli_target_trianglecircles.svg	29	yes	57	0	49
6.6.1	win	2022-12-14	14:34:50	14:44:30	576573	5f22bdb732432502a2615f3f	548084622	1	main_slash	11	main_slash	65	stimuli_target_circletriangles.svg	stimuli_distractor_trianglediamonds.svg	1	yes	53	1	481
6.6.1	win	2022-12-14	14:34:50	14:44:30	576573	5f22bdb732432502a2615f3f	548084622	1	main_slash	11	advance_on_keypress_SLASH	66	stimuli_target_circletriangles.svg	stimuli_distractor_trianglediamonds.svg	1	yes	57	0	45
6.6.1	win	2022-12-14	14:34:50	14:44:31	577722	5f22bdb732432502a2615f3f	548084622	1	main_slash	11	main_slash	67	stimuli_target_circletriangles.svg	stimuli_distractor_diamondtriangles.svg	5	yes	53	1	445
6.6.1	win	2022-12-14	14:34:50	14:44:31	577722	5f22bdb732432502a2615f3f	548084622	1	main_slash	11	advance_on_keypress_SLASH	68	stimuli_target_circletriangles.svg	stimuli_distractor_diamondtriangles.svg	5	yes	57	0	66
6.6.1	win	2022-12-14	14:34:50	14:44:34	580445	5f22bdb732432502a2615f3f	548084622	1	main_slash	11	main_slash	69	stimuli_distractor_trianglediamonds.svg	stimuli_target_squaretriangles.svg	11	yes	0	0	2000
6.6.1	win	2022-12-14	14:34:50	14:44:34	580445	5f22bdb732432502a2615f3f	548084622	1	main_slash	11	advance_on_keypress_SLASH	70	stimuli_distractor_trianglediamonds.svg	stimuli_target_squaretriangles.svg	11	yes	57	0	454
6.6.1	win	2022-12-14	14:34:50	14:44:35	581995	5f22bdb732432502a2615f3f	548084622	1	main_slash	11	main_slash	71	stimuli_target_squarediamonds.svg	stimuli_distractor_diamondtriangles.svg	8	yes	53	1	447
6.6.1	win	2022-12-14	14:34:50	14:44:35	581995	5f22bdb732432502a2615f3f	548084622	1	main_slash	11	advance_on_keypress_SLASH	72	stimuli_target_squarediamonds.svg	stimuli_distractor_diamondtriangles.svg	8	yes	57	0	62
6.6.1	win	2022-12-14	14:34:50	14:44:38	584716	5f22bdb732432502a2615f3f	548084622	1	main_slash	11	main_slash	73	stimuli_distractor_diamondtriangles.svg	stimuli_distractor_trianglediamonds.svg	38	no	0	1	2000
6.6.1	win	2022-12-14	14:34:50	14:44:38	584716	5f22bdb732432502a2615f3f	548084622	1	main_slash	11	advance_on_keypress_SLASH	74	stimuli_distractor_diamondtriangles.svg	stimuli_distractor_trianglediamonds.svg	38	no	57	0	479
6.6.1	win	2022-12-14	14:34:50	14:44:41	587853	5f22bdb732432502a2615f3f	548084622	1	main_slash	11	main_slash	75	stimuli_distractor_trianglediamonds.svg	stimuli_distractor_diamondtriangles.svg	36	no	0	1	2000
6.6.1	win	2022-12-14	14:34:50	14:44:41	587853	5f22bdb732432502a2615f3f	548084622	1	main_slash	11	advance_on_keypress_SLASH	76	stimuli_distractor_trianglediamonds.svg	stimuli_distractor_diamondtriangles.svg	36	no	57	0	278
6.6.1	win	2022-12-14	14:34:50	14:44:44	590790	5f22bdb732432502a2615f3f	548084622	1	main_slash	11	main_slash	77	stimuli_distractor_diamondtriangles.svg	stimuli_distractor_trianglediamonds.svg	37	no	0	1	2000
6.6.1	win	2022-12-14	14:34:50	14:44:44	590790	5f22bdb732432502a2615f3f	548084622	1	main_slash	11	advance_on_keypress_SLASH	78	stimuli_distractor_diamondtriangles.svg	stimuli_distractor_trianglediamonds.svg	37	no	57	0	595
6.6.1	win	2022-12-14	14:34:50	14:44:46	592987	5f22bdb732432502a2615f3f	548084622	1	main_slash	11	main_slash	79	stimuli_distractor_diamondtriangles.svg	stimuli_target_squaretriangles.svg	15	yes	53	1	944
6.6.1	win	2022-12-14	14:34:50	14:44:46	592987	5f22bdb732432502a2615f3f	548084622	1	main_slash	11	advance_on_keypress_SLASH	80	stimuli_distractor_diamondtriangles.svg	stimuli_target_squaretriangles.svg	15	yes	57	0	61
6.6.1	win	2022-12-14	14:34:50	14:44:47	594138	5f22bdb732432502a2615f3f	548084622	1	main_slash	11	main_slash	81	stimuli_distractor_trianglediamonds.svg	stimuli_target_circlediamonds.svg	10	yes	53	1	426
6.6.1	win	2022-12-14	14:34:50	14:44:47	594138	5f22bdb732432502a2615f3f	548084622	1	main_slash	11	advance_on_keypress_SLASH	82	stimuli_distractor_trianglediamonds.svg	stimuli_target_circlediamonds.svg	10	yes	57	0	34
6.6.1	win	2022-12-14	14:34:50	14:44:48	595277	5f22bdb732432502a2615f3f	548084622	1	main_slash	11	main_slash	83	stimuli_target_circletriangles.svg	stimuli_distractor_diamondtriangles.svg	5	yes	53	1	447
6.6.1	win	2022-12-14	14:34:50	14:44:48	595277	5f22bdb732432502a2615f3f	548084622	1	main_slash	11	advance_on_keypress_SLASH	84	stimuli_target_circletriangles.svg	stimuli_distractor_diamondtriangles.svg	5	yes	57	0	46
6.6.1	win	2022-12-14	14:34:50	14:44:50	596879	5f22bdb732432502a2615f3f	548084622	1	main_slash	11	main_slash	85	stimuli_target_trianglesquares.svg	stimuli_distractor_diamondtriangles.svg	22	yes	53	1	898
6.6.1	win	2022-12-14	14:34:50	14:44:50	596879	5f22bdb732432502a2615f3f	548084622	1	main_slash	11	advance_on_keypress_SLASH	86	stimuli_target_trianglesquares.svg	stimuli_distractor_diamondtriangles.svg	22	yes	57	0	61
6.6.1	win	2022-12-14	14:34:50	14:44:51	598115	5f22bdb732432502a2615f3f	548084622	1	main_slash	11	main_slash	87	stimuli_target_trianglesquares.svg	stimuli_distractor_trianglediamonds.svg	18	yes	53	1	508
6.6.1	win	2022-12-14	14:34:50	14:44:51	598115	5f22bdb732432502a2615f3f	548084622	1	main_slash	11	advance_on_keypress_SLASH	88	stimuli_target_trianglesquares.svg	stimuli_distractor_trianglediamonds.svg	18	yes	57	0	42
6.6.1	win	2022-12-14	14:34:50	14:44:54	600817	5f22bdb732432502a2615f3f	548084622	1	main_slash	11	main_slash	89	stimuli_distractor_trianglediamonds.svg	stimuli_distractor_trianglediamonds.svg	34	no	0	1	2000
6.6.1	win	2022-12-14	14:34:50	14:44:54	600817	5f22bdb732432502a2615f3f	548084622	1	main_slash	11	advance_on_keypress_SLASH	90	stimuli_distractor_trianglediamonds.svg	stimuli_distractor_trianglediamonds.svg	34	no	57	0	273
6.6.1	win	2022-12-14	14:34:50	14:44:55	602257	5f22bdb732432502a2615f3f	548084622	1	main_slash	11	main_slash	91	stimuli_distractor_trianglediamonds.svg	stimuli_target_trianglesquares.svg	26	yes	53	1	520
6.6.1	win	2022-12-14	14:34:50	14:44:55	602257	5f22bdb732432502a2615f3f	548084622	1	main_slash	11	advance_on_keypress_SLASH	92	stimuli_distractor_trianglediamonds.svg	stimuli_target_trianglesquares.svg	26	yes	57	0	42
6.6.1	win	2022-12-14	14:34:50	14:44:58	604955	5f22bdb732432502a2615f3f	548084622	1	main_slash	11	main_slash	93	stimuli_distractor_diamondtriangles.svg	stimuli_distractor_trianglediamonds.svg	37	no	0	1	2000
6.6.1	win	2022-12-14	14:34:50	14:44:58	604955	5f22bdb732432502a2615f3f	548084622	1	main_slash	11	advance_on_keypress_SLASH	94	stimuli_distractor_diamondtriangles.svg	stimuli_distractor_trianglediamonds.svg	37	no	57	0	122
6.6.1	win	2022-12-14	14:34:50	14:44:59	606182	5f22bdb732432502a2615f3f	548084622	1	main_slash	11	main_slash	95	stimuli_distractor_trianglediamonds.svg	stimuli_target_diamondcircles.svg	27	yes	53	1	440
6.6.1	win	2022-12-14	14:34:50	14:44:59	606182	5f22bdb732432502a2615f3f	548084622	1	main_slash	11	advance_on_keypress_SLASH	96	stimuli_distractor_trianglediamonds.svg	stimuli_target_diamondcircles.svg	27	yes	57	0	55
6.6.1	win	2022-12-14	14:34:50	14:45:00	607259	5f22bdb732432502a2615f3f	548084622	1	main_slash	11	main_slash	97	stimuli_distractor_trianglediamonds.svg	stimuli_target_trianglecircles.svg	25	yes	53	1	380
6.6.1	win	2022-12-14	14:34:50	14:45:00	607259	5f22bdb732432502a2615f3f	548084622	1	main_slash	11	advance_on_keypress_SLASH	98	stimuli_distractor_trianglediamonds.svg	stimuli_target_trianglecircles.svg	25	yes	57	0	36
6.6.1	win	2022-12-14	14:34:50	14:45:03	609944	5f22bdb732432502a2615f3f	548084622	1	main_slash	11	main_slash	99	stimuli_distractor_trianglediamonds.svg	stimuli_distractor_trianglediamonds.svg	33	no	0	1	2000
6.6.1	win	2022-12-14	14:34:50	14:45:03	609944	5f22bdb732432502a2615f3f	548084622	1	main_slash	11	advance_on_keypress_SLASH	100	stimuli_distractor_trianglediamonds.svg	stimuli_distractor_trianglediamonds.svg	33	no	57	0	215
6.6.1	win	2022-12-14	14:34:50	14:45:06	612814	5f22bdb732432502a2615f3f	548084622	1	main_slash	11	main_slash	101	stimuli_distractor_diamondtriangles.svg	stimuli_distractor_trianglediamonds.svg	38	no	0	1	2000
6.6.1	win	2022-12-14	14:34:50	14:45:06	612814	5f22bdb732432502a2615f3f	548084622	1	main_slash	11	advance_on_keypress_SLASH	102	stimuli_distractor_diamondtriangles.svg	stimuli_distractor_trianglediamonds.svg	38	no	57	0	254
6.6.1	win	2022-12-14	14:34:50	14:45:07	614251	5f22bdb732432502a2615f3f	548084622	1	main_slash	11	main_slash	103	stimuli_target_squaretriangles.svg	stimuli_distractor_trianglediamonds.svg	3	yes	53	1	534
6.6.1	win	2022-12-14	14:34:50	14:45:07	614251	5f22bdb732432502a2615f3f	548084622	1	main_slash	11	advance_on_keypress_SLASH	104	stimuli_target_squaretriangles.svg	stimuli_distractor_trianglediamonds.svg	3	yes	57	0	213
6.6.1	win	2022-12-14	14:34:50	14:45:09	615727	5f22bdb732432502a2615f3f	548084622	1	main_slash	11	main_slash	105	stimuli_distractor_diamondtriangles.svg	stimuli_target_trianglesquares.svg	30	yes	53	1	608
6.6.1	win	2022-12-14	14:34:50	14:45:09	615727	5f22bdb732432502a2615f3f	548084622	1	main_slash	11	advance_on_keypress_SLASH	106	stimuli_distractor_diamondtriangles.svg	stimuli_target_trianglesquares.svg	30	yes	57	0	35
6.6.1	win	2022-12-14	14:34:50	14:45:10	616919	5f22bdb732432502a2615f3f	548084622	1	main_slash	11	main_slash	107	stimuli_target_trianglecircles.svg	stimuli_distractor_diamondtriangles.svg	21	yes	53	1	512
6.6.1	win	2022-12-14	14:34:50	14:45:10	616919	5f22bdb732432502a2615f3f	548084622	1	main_slash	11	advance_on_keypress_SLASH	108	stimuli_target_trianglecircles.svg	stimuli_distractor_diamondtriangles.svg	21	yes	57	0	22
6.6.1	win	2022-12-14	14:34:50	14:45:11	618137	5f22bdb732432502a2615f3f	548084622	1	main_slash	11	main_slash	109	stimuli_target_diamondsquares.svg	stimuli_distractor_diamondtriangles.svg	24	yes	53	1	549
6.6.1	win	2022-12-14	14:34:50	14:45:11	618137	5f22bdb732432502a2615f3f	548084622	1	main_slash	11	advance_on_keypress_SLASH	110	stimuli_target_diamondsquares.svg	stimuli_distractor_diamondtriangles.svg	24	yes	57	0	12
6.6.1	win	2022-12-14	14:34:50	14:45:13	619321	5f22bdb732432502a2615f3f	548084622	1	main_slash	11	main_slash	111	stimuli_target_circletriangles.svg	stimuli_distractor_trianglediamonds.svg	1	yes	53	1	501
6.6.1	win	2022-12-14	14:34:50	14:45:13	619321	5f22bdb732432502a2615f3f	548084622	1	main_slash	11	advance_on_keypress_SLASH	112	stimuli_target_circletriangles.svg	stimuli_distractor_trianglediamonds.svg	1	yes	57	0	73
6.6.1	win	2022-12-14	14:34:50	14:45:14	620637	5f22bdb732432502a2615f3f	548084622	1	main_slash	11	main_slash	113	stimuli_distractor_diamondtriangles.svg	stimuli_target_squaretriangles.svg	15	yes	53	1	595
6.6.1	win	2022-12-14	14:34:50	14:45:14	620637	5f22bdb732432502a2615f3f	548084622	1	main_slash	11	advance_on_keypress_SLASH	114	stimuli_distractor_diamondtriangles.svg	stimuli_target_squaretriangles.svg	15	yes	57	0	32
6.6.1	win	2022-12-14	14:34:50	14:45:15	621773	5f22bdb732432502a2615f3f	548084622	1	main_slash	11	main_slash	115	stimuli_target_squarediamonds.svg	stimuli_distractor_diamondtriangles.svg	8	yes	53	1	447
6.6.1	win	2022-12-14	14:34:50	14:45:15	621773	5f22bdb732432502a2615f3f	548084622	1	main_slash	11	advance_on_keypress_SLASH	116	stimuli_target_squarediamonds.svg	stimuli_distractor_diamondtriangles.svg	8	yes	57	0	50
6.6.1	win	2022-12-14	14:34:50	14:45:16	622910	5f22bdb732432502a2615f3f	548084622	1	main_slash	11	main_slash	117	stimuli_distractor_diamondtriangles.svg	stimuli_target_circletriangles.svg	13	yes	53	1	432
6.6.1	win	2022-12-14	14:34:50	14:45:16	622910	5f22bdb732432502a2615f3f	548084622	1	main_slash	11	advance_on_keypress_SLASH	118	stimuli_distractor_diamondtriangles.svg	stimuli_target_circletriangles.svg	13	yes	57	0	34
6.6.1	win	2022-12-14	14:34:50	14:45:19	625595	5f22bdb732432502a2615f3f	548084622	1	main_slash	11	main_slash	119	stimuli_distractor_diamondtriangles.svg	stimuli_distractor_diamondtriangles.svg	40	no	0	1	2000
6.6.1	win	2022-12-14	14:34:50	14:45:19	625595	5f22bdb732432502a2615f3f	548084622	1	main_slash	11	advance_on_keypress_SLASH	120	stimuli_distractor_diamondtriangles.svg	stimuli_distractor_diamondtriangles.svg	40	no	57	0	279
6.6.1	win	2022-12-14	14:34:50	14:45:20	626915	5f22bdb732432502a2615f3f	548084622	1	main_slash	11	main_slash	121	stimuli_distractor_diamondtriangles.svg	stimuli_target_circlediamonds.svg	14	yes	53	1	383
6.6.1	win	2022-12-14	14:34:50	14:45:20	626915	5f22bdb732432502a2615f3f	548084622	1	main_slash	11	advance_on_keypress_SLASH	122	stimuli_distractor_diamondtriangles.svg	stimuli_target_circlediamonds.svg	14	yes	57	0	8
6.6.1	win	2022-12-14	14:34:50	14:45:21	628169	5f22bdb732432502a2615f3f	548084622	1	main_slash	11	main_slash	123	stimuli_distractor_trianglediamonds.svg	stimuli_target_diamondsquares.svg	28	yes	53	1	587
6.6.1	win	2022-12-14	14:34:50	14:45:21	628169	5f22bdb732432502a2615f3f	548084622	1	main_slash	11	advance_on_keypress_SLASH	124	stimuli_distractor_trianglediamonds.svg	stimuli_target_diamondsquares.svg	28	yes	57	0	22
6.6.1	win	2022-12-14	14:34:50	14:45:22	629236	5f22bdb732432502a2615f3f	548084622	1	main_slash	11	main_slash	125	stimuli_distractor_diamondtriangles.svg	stimuli_target_trianglecircles.svg	29	yes	53	1	384
6.6.1	win	2022-12-14	14:34:50	14:45:22	629236	5f22bdb732432502a2615f3f	548084622	1	main_slash	11	advance_on_keypress_SLASH	126	stimuli_distractor_diamondtriangles.svg	stimuli_target_trianglecircles.svg	29	yes	57	0	21
6.6.1	win	2022-12-14	14:34:50	14:45:24	630474	5f22bdb732432502a2615f3f	548084622	1	main_slash	11	main_slash	127	stimuli_target_squarediamonds.svg	stimuli_distractor_trianglediamonds.svg	4	yes	53	1	573
6.6.1	win	2022-12-14	14:34:50	14:45:24	630474	5f22bdb732432502a2615f3f	548084622	1	main_slash	11	advance_on_keypress_SLASH	128	stimuli_target_squarediamonds.svg	stimuli_distractor_trianglediamonds.svg	4	yes	57	0	13
6.6.1	win	2022-12-14	14:34:50	14:45:25	631671	5f22bdb732432502a2615f3f	548084622	1	main_slash	11	main_slash	129	stimuli_target_circlediamonds.svg	stimuli_distractor_diamondtriangles.svg	6	yes	53	1	534
6.6.1	win	2022-12-14	14:34:50	14:45:25	631671	5f22bdb732432502a2615f3f	548084622	1	main_slash	11	advance_on_keypress_SLASH	130	stimuli_target_circlediamonds.svg	stimuli_distractor_diamondtriangles.svg	6	yes	57	0	27
6.6.1	win	2022-12-14	14:34:50	14:45:28	634354	5f22bdb732432502a2615f3f	548084622	1	main_slash	11	main_slash	131	stimuli_distractor_diamondtriangles.svg	stimuli_distractor_diamondtriangles.svg	39	no	0	1	2000
6.6.1	win	2022-12-14	14:34:50	14:45:28	634354	5f22bdb732432502a2615f3f	548084622	1	main_slash	11	advance_on_keypress_SLASH	132	stimuli_distractor_diamondtriangles.svg	stimuli_distractor_diamondtriangles.svg	39	no	57	0	306
6.6.1	win	2022-12-14	14:34:50	14:45:29	635752	5f22bdb732432502a2615f3f	548084622	1	main_slash	11	main_slash	133	stimuli_target_circlediamonds.svg	stimuli_distractor_trianglediamonds.svg	2	yes	53	1	445
6.6.1	win	2022-12-14	14:34:50	14:45:29	635752	5f22bdb732432502a2615f3f	548084622	1	main_slash	11	advance_on_keypress_SLASH	134	stimuli_target_circlediamonds.svg	stimuli_distractor_trianglediamonds.svg	2	yes	57	0	21
6.6.1	win	2022-12-14	14:34:50	14:45:30	636847	5f22bdb732432502a2615f3f	548084622	1	main_slash	11	main_slash	135	stimuli_distractor_trianglediamonds.svg	stimuli_target_squarediamonds.svg	12	yes	53	1	421
6.6.1	win	2022-12-14	14:34:50	14:45:30	636847	5f22bdb732432502a2615f3f	548084622	1	main_slash	11	advance_on_keypress_SLASH	136	stimuli_distractor_trianglediamonds.svg	stimuli_target_squarediamonds.svg	12	yes	57	0	59
6.6.1	win	2022-12-14	14:34:50	14:45:31	637908	5f22bdb732432502a2615f3f	548084622	1	main_slash	11	main_slash	137	stimuli_distractor_diamondtriangles.svg	stimuli_target_squarediamonds.svg	16	yes	53	1	348
6.6.1	win	2022-12-14	14:34:50	14:45:31	637908	5f22bdb732432502a2615f3f	548084622	1	main_slash	11	advance_on_keypress_SLASH	138	stimuli_distractor_diamondtriangles.svg	stimuli_target_squarediamonds.svg	16	yes	57	0	64
6.6.1	win	2022-12-14	14:34:50	14:45:32	638968	5f22bdb732432502a2615f3f	548084622	1	main_slash	11	main_slash	139	stimuli_target_diamondcircles.svg	stimuli_distractor_diamondtriangles.svg	23	yes	53	1	340
6.6.1	win	2022-12-14	14:34:50	14:45:32	638968	5f22bdb732432502a2615f3f	548084622	1	main_slash	11	advance_on_keypress_SLASH	140	stimuli_target_diamondcircles.svg	stimuli_distractor_diamondtriangles.svg	23	yes	57	0	86
6.6.1	win	2022-12-14	14:34:50	14:45:33	640110	5f22bdb732432502a2615f3f	548084622	1	main_slash	11	main_slash	141	stimuli_distractor_diamondtriangles.svg	stimuli_target_diamondcircles.svg	31	yes	53	1	414
6.6.1	win	2022-12-14	14:34:50	14:45:33	640110	5f22bdb732432502a2615f3f	548084622	1	main_slash	11	advance_on_keypress_SLASH	142	stimuli_distractor_diamondtriangles.svg	stimuli_target_diamondcircles.svg	31	yes	57	0	39
6.6.1	win	2022-12-14	14:34:50	14:45:34	641313	5f22bdb732432502a2615f3f	548084622	1	main_slash	11	main_slash	143	stimuli_target_squaretriangles.svg	stimuli_distractor_diamondtriangles.svg	7	yes	53	1	502
6.6.1	win	2022-12-14	14:34:50	14:45:34	641313	5f22bdb732432502a2615f3f	548084622	1	main_slash	11	advance_on_keypress_SLASH	144	stimuli_target_squaretriangles.svg	stimuli_distractor_diamondtriangles.svg	7	yes	57	0	38
6.6.1	win	2022-12-14	14:34:50	14:45:36	642436	5f22bdb732432502a2615f3f	548084622	1	main_slash	11	main_slash	145	stimuli_target_diamondsquares.svg	stimuli_distractor_trianglediamonds.svg	20	yes	53	1	438
6.6.1	win	2022-12-14	14:34:50	14:45:36	642436	5f22bdb732432502a2615f3f	548084622	1	main_slash	11	advance_on_keypress_SLASH	146	stimuli_target_diamondsquares.svg	stimuli_distractor_trianglediamonds.svg	20	yes	57	0	155
6.6.1	win	2022-12-14	14:34:50	14:45:37	643748	5f22bdb732432502a2615f3f	548084622	1	main_slash	11	main_slash	147	stimuli_distractor_trianglediamonds.svg	stimuli_distractor_diamondtriangles.svg	35	no	53	0	506
6.6.1	win	2022-12-14	14:34:50	14:45:37	643748	5f22bdb732432502a2615f3f	548084622	1	main_slash	11	advance_on_keypress_SLASH	148	stimuli_distractor_trianglediamonds.svg	stimuli_distractor_diamondtriangles.svg	35	no	57	0	48
6.6.1	win	2022-12-14	14:34:50	14:45:39	645627	5f22bdb732432502a2615f3f	548084622	1	main_slash	11	main_slash	149	stimuli_distractor_diamondtriangles.svg	stimuli_target_diamondsquares.svg	32	yes	53	1	1176
6.6.1	win	2022-12-14	14:34:50	14:45:39	645627	5f22bdb732432502a2615f3f	548084622	1	main_slash	11	advance_on_keypress_SLASH	150	stimuli_distractor_diamondtriangles.svg	stimuli_target_diamondsquares.svg	32	yes	57	0	521
6.6.1	win	2022-12-14	14:34:50	14:45:41	647318	5f22bdb732432502a2615f3f	548084622	1	main_slash	11	main_slash	151	stimuli_distractor_trianglediamonds.svg	stimuli_target_circletriangles.svg	9	yes	53	1	531
6.6.1	win	2022-12-14	14:34:50	14:45:41	647318	5f22bdb732432502a2615f3f	548084622	1	main_slash	11	advance_on_keypress_SLASH	152	stimuli_distractor_trianglediamonds.svg	stimuli_target_circletriangles.svg	9	yes	57	0	33
6.6.1	win	2022-12-14	14:34:50	14:45:43	650005	5f22bdb732432502a2615f3f	548084622	1	main_slash	11	main_slash	153	stimuli_distractor_trianglediamonds.svg	stimuli_distractor_diamondtriangles.svg	36	no	0	1	2000
6.6.1	win	2022-12-14	14:34:50	14:45:43	650005	5f22bdb732432502a2615f3f	548084622	1	main_slash	11	advance_on_keypress_SLASH	154	stimuli_distractor_trianglediamonds.svg	stimuli_distractor_diamondtriangles.svg	36	no	57	0	257
6.6.1	win	2022-12-14	14:34:50	14:45:45	651423	5f22bdb732432502a2615f3f	548084622	1	main_slash	11	main_slash	155	stimuli_target_diamondcircles.svg	stimuli_distractor_trianglediamonds.svg	19	yes	53	1	514
6.6.1	win	2022-12-14	14:34:50	14:45:45	651423	5f22bdb732432502a2615f3f	548084622	1	main_slash	11	advance_on_keypress_SLASH	156	stimuli_target_diamondcircles.svg	stimuli_distractor_trianglediamonds.svg	19	yes	57	0	46
6.6.1	win	2022-12-14	14:34:50	14:45:46	652565	5f22bdb732432502a2615f3f	548084622	1	main_slash	11	main_slash	157	stimuli_target_trianglecircles.svg	stimuli_distractor_trianglediamonds.svg	17	yes	53	1	439
6.6.1	win	2022-12-14	14:34:50	14:45:46	652565	5f22bdb732432502a2615f3f	548084622	1	main_slash	11	advance_on_keypress_SLASH	158	stimuli_target_trianglecircles.svg	stimuli_distractor_trianglediamonds.svg	17	yes	57	0	48
6.6.1	win	2022-12-14	14:34:50	14:45:47	653760	5f22bdb732432502a2615f3f	548084622	1	main_slash	11	main_slash	159	stimuli_distractor_trianglediamonds.svg	stimuli_target_squaretriangles.svg	11	yes	53	1	499
6.6.1	win	2022-12-14	14:34:50	14:45:47	653760	5f22bdb732432502a2615f3f	548084622	1	main_slash	11	advance_on_keypress_SLASH	160	stimuli_distractor_trianglediamonds.svg	stimuli_target_squaretriangles.svg	11	yes	57	0	49