build	computer.platform	date	time	timestamp	time_elapsed_ms	subject	group	session	blockcode	blocknum	trialcode	trialnum	stimulus_left	stimulus_right	stim_index	target_present	response	correct	latency
6.6.1	win	2022-12-20	14:02:25	14:04:30	122943	611d7da2640a2e31818c3e18	545221737	1	practice_slash	5	practice_slash	1	stimuli_distractor_trianglediamonds.svg	stimuli_target_squarediamonds.svg	11	yes	53	1	575
6.6.1	win	2022-12-20	14:02:25	14:04:30	122943	611d7da2640a2e31818c3e18	545221737	1	practice_slash	5	advance_on_keypress_SLASH	2	stimuli_distractor_trianglediamonds.svg	stimuli_target_squarediamonds.svg	11	yes	57	0	918
6.6.1	win	2022-12-20	14:02:25	14:04:33	126211	611d7da2640a2e31818c3e18	545221737	1	practice_slash	5	practice_slash	3	stimuli_distractor_trianglediamonds.svg	stimuli_target_diamondcircles.svg	12	yes	53	1	696
6.6.1	win	2022-12-20	14:02:25	14:04:33	126211	611d7da2640a2e31818c3e18	545221737	1	practice_slash	5	advance_on_keypress_SLASH	4	stimuli_distractor_trianglediamonds.svg	stimuli_target_diamondcircles.svg	12	yes	57	0	516
6.6.1	win	2022-12-20	14:02:25	14:04:36	129136	611d7da2640a2e31818c3e18	545221737	1	practice_slash	5	practice_slash	5	stimuli_target_diamondsquares.svg	stimuli_distractor_diamondtriangles.svg	3	yes	53	1	756
6.6.1	win	2022-12-20	14:02:25	14:04:36	129136	611d7da2640a2e31818c3e18	545221737	1	practice_slash	5	advance_on_keypress_SLASH	6	stimuli_target_diamondsquares.svg	stimuli_distractor_diamondtriangles.svg	3	yes	57	0	493
6.6.1	win	2022-12-20	14:02:25	14:04:39	131776	611d7da2640a2e31818c3e18	545221737	1	practice_slash	5	practice_slash	7	stimuli_distractor_diamondtriangles.svg	stimuli_target_diamondcircles.svg	8	yes	53	1	503
6.6.1	win	2022-12-20	14:02:25	14:04:39	131776	611d7da2640a2e31818c3e18	545221737	1	practice_slash	5	advance_on_keypress_SLASH	8	stimuli_distractor_diamondtriangles.svg	stimuli_target_diamondcircles.svg	8	yes	57	0	348
6.6.1	win	2022-12-20	14:02:25	14:04:41	134475	611d7da2640a2e31818c3e18	545221737	1	practice_slash	5	practice_slash	9	stimuli_target_squarediamonds.svg	stimuli_distractor_diamondtriangles.svg	2	yes	53	1	700
6.6.1	win	2022-12-20	14:02:25	14:04:41	134475	611d7da2640a2e31818c3e18	545221737	1	practice_slash	5	advance_on_keypress_SLASH	10	stimuli_target_squarediamonds.svg	stimuli_distractor_diamondtriangles.svg	2	yes	57	0	519
6.6.1	win	2022-12-20	14:02:25	14:04:44	137470	611d7da2640a2e31818c3e18	545221737	1	practice_slash	5	practice_slash	11	stimuli_distractor_trianglediamonds.svg	stimuli_target_circlediamonds.svg	10	yes	53	1	830
6.6.1	win	2022-12-20	14:02:25	14:04:44	137470	611d7da2640a2e31818c3e18	545221737	1	practice_slash	5	advance_on_keypress_SLASH	12	stimuli_distractor_trianglediamonds.svg	stimuli_target_circlediamonds.svg	10	yes	57	0	506
6.6.1	win	2022-12-20	14:02:25	14:04:47	140190	611d7da2640a2e31818c3e18	545221737	1	practice_slash	5	practice_slash	13	stimuli_target_squarediamonds.svg	stimuli_distractor_trianglediamonds.svg	5	yes	53	1	569
6.6.1	win	2022-12-20	14:02:25	14:04:47	140190	611d7da2640a2e31818c3e18	545221737	1	practice_slash	5	advance_on_keypress_SLASH	14	stimuli_target_squarediamonds.svg	stimuli_distractor_trianglediamonds.svg	5	yes	57	0	925
6.6.1	win	2022-12-20	14:02:25	14:04:52	144751	611d7da2640a2e31818c3e18	545221737	1	practice_slash	5	practice_slash	15	stimuli_distractor_diamondtriangles.svg	stimuli_distractor_trianglediamonds.svg	14	no	0	1	2000
6.6.1	win	2022-12-20	14:02:25	14:04:52	144751	611d7da2640a2e31818c3e18	545221737	1	practice_slash	5	advance_on_keypress_SLASH	16	stimuli_distractor_diamondtriangles.svg	stimuli_distractor_trianglediamonds.svg	14	no	57	0	463
6.6.1	win	2022-12-20	14:02:25	14:04:55	148176	611d7da2640a2e31818c3e18	545221737	1	practice_slash	5	practice_slash	17	stimuli_distractor_diamondtriangles.svg	stimuli_distractor_diamondtriangles.svg	13	no	53	0	1311
6.6.1	win	2022-12-20	14:02:25	14:04:55	148176	611d7da2640a2e31818c3e18	545221737	1	practice_slash	5	advance_on_keypress_SLASH	18	stimuli_distractor_diamondtriangles.svg	stimuli_distractor_diamondtriangles.svg	13	no	57	0	590
6.6.1	win	2022-12-20	14:02:25	14:04:58	151512	611d7da2640a2e31818c3e18	545221737	1	practice_slash	5	practice_slash	19	stimuli_target_diamondsquares.svg	stimuli_distractor_trianglediamonds.svg	6	yes	53	1	1093
6.6.1	win	2022-12-20	14:02:25	14:04:58	151512	611d7da2640a2e31818c3e18	545221737	1	practice_slash	5	advance_on_keypress_SLASH	20	stimuli_target_diamondsquares.svg	stimuli_distractor_trianglediamonds.svg	6	yes	57	0	495
6.6.1	win	2022-12-20	14:02:25	14:05:01	154349	611d7da2640a2e31818c3e18	545221737	1	practice_slash	5	practice_slash	21	stimuli_target_circlediamonds.svg	stimuli_distractor_trianglediamonds.svg	4	yes	53	1	690
6.6.1	win	2022-12-20	14:02:25	14:05:01	154349	611d7da2640a2e31818c3e18	545221737	1	practice_slash	5	advance_on_keypress_SLASH	22	stimuli_target_circlediamonds.svg	stimuli_distractor_trianglediamonds.svg	4	yes	57	0	409
6.6.1	win	2022-12-20	14:02:25	14:05:04	157130	611d7da2640a2e31818c3e18	545221737	1	practice_slash	5	practice_slash	23	stimuli_distractor_diamondtriangles.svg	stimuli_target_trianglecircles.svg	9	yes	53	1	723
6.6.1	win	2022-12-20	14:02:25	14:05:04	157130	611d7da2640a2e31818c3e18	545221737	1	practice_slash	5	advance_on_keypress_SLASH	24	stimuli_distractor_diamondtriangles.svg	stimuli_target_trianglecircles.svg	9	yes	57	0	268
6.6.1	win	2022-12-20	14:02:25	14:05:08	161038	611d7da2640a2e31818c3e18	545221737	1	practice_slash	5	practice_slash	25	stimuli_distractor_trianglediamonds.svg	stimuli_distractor_diamondtriangles.svg	16	no	0	1	2000
6.6.1	win	2022-12-20	14:02:25	14:05:08	161038	611d7da2640a2e31818c3e18	545221737	1	practice_slash	5	advance_on_keypress_SLASH	26	stimuli_distractor_trianglediamonds.svg	stimuli_distractor_diamondtriangles.svg	16	no	57	0	165
6.6.1	win	2022-12-20	14:02:25	14:05:10	163480	611d7da2640a2e31818c3e18	545221737	1	practice_slash	5	practice_slash	27	stimuli_target_circlediamonds.svg	stimuli_distractor_diamondtriangles.svg	1	yes	53	1	629
6.6.1	win	2022-12-20	14:02:25	14:05:10	163480	611d7da2640a2e31818c3e18	545221737	1	practice_slash	5	advance_on_keypress_SLASH	28	stimuli_target_circlediamonds.svg	stimuli_distractor_diamondtriangles.svg	1	yes	57	0	250
6.6.1	win	2022-12-20	14:02:25	14:05:13	166169	611d7da2640a2e31818c3e18	545221737	1	practice_slash	5	practice_slash	29	stimuli_distractor_diamondtriangles.svg	stimuli_target_circletriangles.svg	7	yes	53	1	785
6.6.1	win	2022-12-20	14:02:25	14:05:13	166169	611d7da2640a2e31818c3e18	545221737	1	practice_slash	5	advance_on_keypress_SLASH	30	stimuli_distractor_diamondtriangles.svg	stimuli_target_circletriangles.svg	7	yes	57	0	307
6.6.1	win	2022-12-20	14:02:25	14:05:17	170114	611d7da2640a2e31818c3e18	545221737	1	practice_slash	5	practice_slash	31	stimuli_distractor_trianglediamonds.svg	stimuli_distractor_trianglediamonds.svg	15	no	0	1	2000
6.6.1	win	2022-12-20	14:02:25	14:05:17	170114	611d7da2640a2e31818c3e18	545221737	1	practice_slash	5	advance_on_keypress_SLASH	32	stimuli_distractor_trianglediamonds.svg	stimuli_distractor_trianglediamonds.svg	15	no	57	0	298
6.6.1	win	2022-12-20	14:02:25	14:05:26	179425	611d7da2640a2e31818c3e18	545221737	1	main_slash	7	main_slash	1	stimuli_distractor_diamondtriangles.svg	stimuli_target_diamondcircles.svg	31	yes	53	1	522
6.6.1	win	2022-12-20	14:02:25	14:05:26	179425	611d7da2640a2e31818c3e18	545221737	1	main_slash	7	advance_on_keypress_SLASH	2	stimuli_distractor_diamondtriangles.svg	stimuli_target_diamondcircles.svg	31	yes	57	0	878
6.6.1	win	2022-12-20	14:02:25	14:05:28	181630	611d7da2640a2e31818c3e18	545221737	1	main_slash	7	main_slash	3	stimuli_distractor_diamondtriangles.svg	stimuli_target_squaretriangles.svg	15	yes	53	1	679
6.6.1	win	2022-12-20	14:02:25	14:05:28	181630	611d7da2640a2e31818c3e18	545221737	1	main_slash	7	advance_on_keypress_SLASH	4	stimuli_distractor_diamondtriangles.svg	stimuli_target_squaretriangles.svg	15	yes	57	0	417
6.6.1	win	2022-12-20	14:02:25	14:05:32	184700	611d7da2640a2e31818c3e18	545221737	1	main_slash	7	main_slash	5	stimuli_distractor_diamondtriangles.svg	stimuli_distractor_diamondtriangles.svg	39	no	0	1	2000
6.6.1	win	2022-12-20	14:02:25	14:05:32	184700	611d7da2640a2e31818c3e18	545221737	1	main_slash	7	advance_on_keypress_SLASH	6	stimuli_distractor_diamondtriangles.svg	stimuli_distractor_diamondtriangles.svg	39	no	57	0	640
6.6.1	win	2022-12-20	14:02:25	14:05:33	186620	611d7da2640a2e31818c3e18	545221737	1	main_slash	7	main_slash	7	stimuli_target_circlediamonds.svg	stimuli_distractor_diamondtriangles.svg	6	yes	53	1	640
6.6.1	win	2022-12-20	14:02:25	14:05:33	186620	611d7da2640a2e31818c3e18	545221737	1	main_slash	7	advance_on_keypress_SLASH	8	stimuli_target_circlediamonds.svg	stimuli_distractor_diamondtriangles.svg	6	yes	57	0	735
6.6.1	win	2022-12-20	14:02:25	14:05:36	188722	611d7da2640a2e31818c3e18	545221737	1	main_slash	7	main_slash	9	stimuli_distractor_trianglediamonds.svg	stimuli_target_trianglecircles.svg	25	yes	53	1	710
6.6.1	win	2022-12-20	14:02:25	14:05:36	188722	611d7da2640a2e31818c3e18	545221737	1	main_slash	7	advance_on_keypress_SLASH	10	stimuli_distractor_trianglediamonds.svg	stimuli_target_trianglecircles.svg	25	yes	57	0	563
6.6.1	win	2022-12-20	14:02:25	14:05:39	191927	611d7da2640a2e31818c3e18	545221737	1	main_slash	7	main_slash	11	stimuli_distractor_trianglediamonds.svg	stimuli_distractor_diamondtriangles.svg	35	no	0	1	2000
6.6.1	win	2022-12-20	14:02:25	14:05:39	191927	611d7da2640a2e31818c3e18	545221737	1	main_slash	7	advance_on_keypress_SLASH	12	stimuli_distractor_trianglediamonds.svg	stimuli_distractor_diamondtriangles.svg	35	no	57	0	597
6.6.1	win	2022-12-20	14:02:25	14:05:41	193846	611d7da2640a2e31818c3e18	545221737	1	main_slash	7	main_slash	13	stimuli_distractor_diamondtriangles.svg	stimuli_target_circlediamonds.svg	14	yes	53	1	672
6.6.1	win	2022-12-20	14:02:25	14:05:41	193846	611d7da2640a2e31818c3e18	545221737	1	main_slash	7	advance_on_keypress_SLASH	14	stimuli_distractor_diamondtriangles.svg	stimuli_target_circlediamonds.svg	14	yes	57	0	658
6.6.1	win	2022-12-20	14:02:25	14:05:44	197157	611d7da2640a2e31818c3e18	545221737	1	main_slash	7	main_slash	15	stimuli_distractor_diamondtriangles.svg	stimuli_distractor_trianglediamonds.svg	38	no	0	1	2000
6.6.1	win	2022-12-20	14:02:25	14:05:44	197157	611d7da2640a2e31818c3e18	545221737	1	main_slash	7	advance_on_keypress_SLASH	16	stimuli_distractor_diamondtriangles.svg	stimuli_distractor_trianglediamonds.svg	38	no	57	0	243
6.6.1	win	2022-12-20	14:02:25	14:05:46	198906	611d7da2640a2e31818c3e18	545221737	1	main_slash	7	main_slash	17	stimuli_distractor_diamondtriangles.svg	stimuli_target_squarediamonds.svg	16	yes	53	1	864
6.6.1	win	2022-12-20	14:02:25	14:05:46	198906	611d7da2640a2e31818c3e18	545221737	1	main_slash	7	advance_on_keypress_SLASH	18	stimuli_distractor_diamondtriangles.svg	stimuli_target_squarediamonds.svg	16	yes	57	0	813
6.6.1	win	2022-12-20	14:02:25	14:05:48	201235	611d7da2640a2e31818c3e18	545221737	1	main_slash	7	main_slash	19	stimuli_distractor_trianglediamonds.svg	stimuli_target_circlediamonds.svg	10	yes	53	1	866
6.6.1	win	2022-12-20	14:02:25	14:05:48	201235	611d7da2640a2e31818c3e18	545221737	1	main_slash	7	advance_on_keypress_SLASH	20	stimuli_distractor_trianglediamonds.svg	stimuli_target_circlediamonds.svg	10	yes	57	0	936
6.6.1	win	2022-12-20	14:02:25	14:05:51	203719	611d7da2640a2e31818c3e18	545221737	1	main_slash	7	main_slash	21	stimuli_distractor_trianglediamonds.svg	stimuli_target_squaretriangles.svg	11	yes	53	1	902
6.6.1	win	2022-12-20	14:02:25	14:05:51	203719	611d7da2640a2e31818c3e18	545221737	1	main_slash	7	advance_on_keypress_SLASH	22	stimuli_distractor_trianglediamonds.svg	stimuli_target_squaretriangles.svg	11	yes	57	0	710
6.6.1	win	2022-12-20	14:02:25	14:05:53	205950	611d7da2640a2e31818c3e18	545221737	1	main_slash	7	main_slash	23	stimuli_target_trianglecircles.svg	stimuli_distractor_trianglediamonds.svg	17	yes	53	1	885
6.6.1	win	2022-12-20	14:02:25	14:05:53	205950	611d7da2640a2e31818c3e18	545221737	1	main_slash	7	advance_on_keypress_SLASH	24	stimuli_target_trianglecircles.svg	stimuli_distractor_trianglediamonds.svg	17	yes	57	0	752
6.6.1	win	2022-12-20	14:02:25	14:05:55	208562	611d7da2640a2e31818c3e18	545221737	1	main_slash	7	main_slash	25	stimuli_target_trianglesquares.svg	stimuli_distractor_diamondtriangles.svg	22	yes	53	1	1216
6.6.1	win	2022-12-20	14:02:25	14:05:55	208562	611d7da2640a2e31818c3e18	545221737	1	main_slash	7	advance_on_keypress_SLASH	26	stimuli_target_trianglesquares.svg	stimuli_distractor_diamondtriangles.svg	22	yes	57	0	491
6.6.1	win	2022-12-20	14:02:25	14:05:58	210675	611d7da2640a2e31818c3e18	545221737	1	main_slash	7	main_slash	27	stimuli_distractor_trianglediamonds.svg	stimuli_target_diamondsquares.svg	28	yes	53	1	981
6.6.1	win	2022-12-20	14:02:25	14:05:58	210675	611d7da2640a2e31818c3e18	545221737	1	main_slash	7	advance_on_keypress_SLASH	28	stimuli_distractor_trianglediamonds.svg	stimuli_target_diamondsquares.svg	28	yes	57	0	433
6.6.1	win	2022-12-20	14:02:25	14:06:00	212851	611d7da2640a2e31818c3e18	545221737	1	main_slash	7	main_slash	29	stimuli_target_squarediamonds.svg	stimuli_distractor_trianglediamonds.svg	4	yes	53	1	1092
6.6.1	win	2022-12-20	14:02:25	14:06:00	212851	611d7da2640a2e31818c3e18	545221737	1	main_slash	7	advance_on_keypress_SLASH	30	stimuli_target_squarediamonds.svg	stimuli_distractor_trianglediamonds.svg	4	yes	57	0	703
6.6.1	win	2022-12-20	14:02:25	14:06:02	215218	611d7da2640a2e31818c3e18	545221737	1	main_slash	7	main_slash	31	stimuli_distractor_trianglediamonds.svg	stimuli_target_diamondcircles.svg	27	yes	53	1	1028
6.6.1	win	2022-12-20	14:02:25	14:06:02	215218	611d7da2640a2e31818c3e18	545221737	1	main_slash	7	advance_on_keypress_SLASH	32	stimuli_distractor_trianglediamonds.svg	stimuli_target_diamondcircles.svg	27	yes	57	0	766
6.6.1	win	2022-12-20	14:02:25	14:06:05	218138	611d7da2640a2e31818c3e18	545221737	1	main_slash	7	main_slash	33	stimuli_target_diamondsquares.svg	stimuli_distractor_trianglediamonds.svg	20	yes	53	1	1499
6.6.1	win	2022-12-20	14:02:25	14:06:05	218138	611d7da2640a2e31818c3e18	545221737	1	main_slash	7	advance_on_keypress_SLASH	34	stimuli_target_diamondsquares.svg	stimuli_distractor_trianglediamonds.svg	20	yes	57	0	376
6.6.1	win	2022-12-20	14:02:25	14:06:07	220185	611d7da2640a2e31818c3e18	545221737	1	main_slash	7	main_slash	35	stimuli_distractor_diamondtriangles.svg	stimuli_target_trianglecircles.svg	29	yes	53	1	1032
6.6.1	win	2022-12-20	14:02:25	14:06:07	220185	611d7da2640a2e31818c3e18	545221737	1	main_slash	7	advance_on_keypress_SLASH	36	stimuli_distractor_diamondtriangles.svg	stimuli_target_trianglecircles.svg	29	yes	57	0	554
6.6.1	win	2022-12-20	14:02:25	14:06:10	222879	611d7da2640a2e31818c3e18	545221737	1	main_slash	7	main_slash	37	stimuli_distractor_trianglediamonds.svg	stimuli_target_circletriangles.svg	9	yes	53	1	1494
6.6.1	win	2022-12-20	14:02:25	14:06:10	222879	611d7da2640a2e31818c3e18	545221737	1	main_slash	7	advance_on_keypress_SLASH	38	stimuli_distractor_trianglediamonds.svg	stimuli_target_circletriangles.svg	9	yes	57	0	376
6.6.1	win	2022-12-20	14:02:25	14:06:12	224866	611d7da2640a2e31818c3e18	545221737	1	main_slash	7	main_slash	39	stimuli_target_squarediamonds.svg	stimuli_distractor_diamondtriangles.svg	8	yes	53	1	967
6.6.1	win	2022-12-20	14:02:25	14:06:12	224866	611d7da2640a2e31818c3e18	545221737	1	main_slash	7	advance_on_keypress_SLASH	40	stimuli_target_squarediamonds.svg	stimuli_distractor_diamondtriangles.svg	8	yes	57	0	482
6.6.1	win	2022-12-20	14:02:25	14:06:14	226946	611d7da2640a2e31818c3e18	545221737	1	main_slash	7	main_slash	41	stimuli_target_squaretriangles.svg	stimuli_distractor_trianglediamonds.svg	3	yes	53	1	949
6.6.1	win	2022-12-20	14:02:25	14:06:14	226946	611d7da2640a2e31818c3e18	545221737	1	main_slash	7	advance_on_keypress_SLASH	42	stimuli_target_squaretriangles.svg	stimuli_distractor_trianglediamonds.svg	3	yes	57	0	434
6.6.1	win	2022-12-20	14:02:25	14:06:17	230031	611d7da2640a2e31818c3e18	545221737	1	main_slash	7	main_slash	43	stimuli_distractor_trianglediamonds.svg	stimuli_distractor_trianglediamonds.svg	34	no	0	1	2000
6.6.1	win	2022-12-20	14:02:25	14:06:17	230031	611d7da2640a2e31818c3e18	545221737	1	main_slash	7	advance_on_keypress_SLASH	44	stimuli_distractor_trianglediamonds.svg	stimuli_distractor_trianglediamonds.svg	34	no	57	0	593
6.6.1	win	2022-12-20	14:02:25	14:06:19	232175	611d7da2640a2e31818c3e18	545221737	1	main_slash	7	main_slash	45	stimuli_target_diamondsquares.svg	stimuli_distractor_diamondtriangles.svg	24	yes	53	1	914
6.6.1	win	2022-12-20	14:02:25	14:06:19	232175	611d7da2640a2e31818c3e18	545221737	1	main_slash	7	advance_on_keypress_SLASH	46	stimuli_target_diamondsquares.svg	stimuli_distractor_diamondtriangles.svg	24	yes	57	0	363
6.6.1	win	2022-12-20	14:02:25	14:06:21	234078	611d7da2640a2e31818c3e18	545221737	1	main_slash	7	main_slash	47	stimuli_target_diamondcircles.svg	stimuli_distractor_trianglediamonds.svg	19	yes	53	1	881
6.6.1	win	2022-12-20	14:02:25	14:06:21	234078	611d7da2640a2e31818c3e18	545221737	1	main_slash	7	advance_on_keypress_SLASH	48	stimuli_target_diamondcircles.svg	stimuli_distractor_trianglediamonds.svg	19	yes	57	0	656
6.6.1	win	2022-12-20	14:02:25	14:06:23	236039	611d7da2640a2e31818c3e18	545221737	1	main_slash	7	main_slash	49	stimuli_target_circlediamonds.svg	stimuli_distractor_trianglediamonds.svg	2	yes	53	1	665
6.6.1	win	2022-12-20	14:02:25	14:06:23	236039	611d7da2640a2e31818c3e18	545221737	1	main_slash	7	advance_on_keypress_SLASH	50	stimuli_target_circlediamonds.svg	stimuli_distractor_trianglediamonds.svg	2	yes	57	0	469
6.6.1	win	2022-12-20	14:02:25	14:06:25	238026	611d7da2640a2e31818c3e18	545221737	1	main_slash	7	main_slash	51	stimuli_target_trianglesquares.svg	stimuli_distractor_trianglediamonds.svg	18	yes	53	1	871
6.6.1	win	2022-12-20	14:02:25	14:06:25	238026	611d7da2640a2e31818c3e18	545221737	1	main_slash	7	advance_on_keypress_SLASH	52	stimuli_target_trianglesquares.svg	stimuli_distractor_trianglediamonds.svg	18	yes	57	0	396
6.6.1	win	2022-12-20	14:02:25	14:06:27	240299	611d7da2640a2e31818c3e18	545221737	1	main_slash	7	main_slash	53	stimuli_target_circletriangles.svg	stimuli_distractor_trianglediamonds.svg	1	yes	53	1	1223
6.6.1	win	2022-12-20	14:02:25	14:06:27	240299	611d7da2640a2e31818c3e18	545221737	1	main_slash	7	advance_on_keypress_SLASH	54	stimuli_target_circletriangles.svg	stimuli_distractor_trianglediamonds.svg	1	yes	57	0	392
6.6.1	win	2022-12-20	14:02:25	14:06:29	242622	611d7da2640a2e31818c3e18	545221737	1	main_slash	7	main_slash	55	stimuli_distractor_diamondtriangles.svg	stimuli_target_circletriangles.svg	13	yes	53	1	1287
6.6.1	win	2022-12-20	14:02:25	14:06:29	242622	611d7da2640a2e31818c3e18	545221737	1	main_slash	7	advance_on_keypress_SLASH	56	stimuli_distractor_diamondtriangles.svg	stimuli_target_circletriangles.svg	13	yes	57	0	315
6.6.1	win	2022-12-20	14:02:25	14:06:31	244418	611d7da2640a2e31818c3e18	545221737	1	main_slash	7	main_slash	57	stimuli_target_diamondcircles.svg	stimuli_distractor_diamondtriangles.svg	23	yes	53	1	834
6.6.1	win	2022-12-20	14:02:25	14:06:31	244418	611d7da2640a2e31818c3e18	545221737	1	main_slash	7	advance_on_keypress_SLASH	58	stimuli_target_diamondcircles.svg	stimuli_distractor_diamondtriangles.svg	23	yes	57	0	653
6.6.1	win	2022-12-20	14:02:25	14:06:35	247715	611d7da2640a2e31818c3e18	545221737	1	main_slash	7	main_slash	59	stimuli_distractor_diamondtriangles.svg	stimuli_distractor_trianglediamonds.svg	37	no	0	1	2000
6.6.1	win	2022-12-20	14:02:25	14:06:35	247715	611d7da2640a2e31818c3e18	545221737	1	main_slash	7	advance_on_keypress_SLASH	60	stimuli_distractor_diamondtriangles.svg	stimuli_distractor_trianglediamonds.svg	37	no	57	0	544
6.6.1	win	2022-12-20	14:02:25	14:06:37	250031	611d7da2640a2e31818c3e18	545221737	1	main_slash	7	main_slash	61	stimuli_distractor_diamondtriangles.svg	stimuli_target_diamondsquares.svg	32	yes	53	1	1136
6.6.1	win	2022-12-20	14:02:25	14:06:37	250031	611d7da2640a2e31818c3e18	545221737	1	main_slash	7	advance_on_keypress_SLASH	62	stimuli_distractor_diamondtriangles.svg	stimuli_target_diamondsquares.svg	32	yes	57	0	406
6.6.1	win	2022-12-20	14:02:25	14:06:39	252090	611d7da2640a2e31818c3e18	545221737	1	main_slash	7	main_slash	63	stimuli_target_circletriangles.svg	stimuli_distractor_diamondtriangles.svg	5	yes	53	1	1013
6.6.1	win	2022-12-20	14:02:25	14:06:39	252090	611d7da2640a2e31818c3e18	545221737	1	main_slash	7	advance_on_keypress_SLASH	64	stimuli_target_circletriangles.svg	stimuli_distractor_diamondtriangles.svg	5	yes	57	0	419
6.6.1	win	2022-12-20	14:02:25	14:06:41	254001	611d7da2640a2e31818c3e18	545221737	1	main_slash	7	main_slash	65	stimuli_distractor_trianglediamonds.svg	stimuli_target_squarediamonds.svg	12	yes	53	1	843
6.6.1	win	2022-12-20	14:02:25	14:06:41	254001	611d7da2640a2e31818c3e18	545221737	1	main_slash	7	advance_on_keypress_SLASH	66	stimuli_distractor_trianglediamonds.svg	stimuli_target_squarediamonds.svg	12	yes	57	0	632
6.6.1	win	2022-12-20	14:02:25	14:06:43	256253	611d7da2640a2e31818c3e18	545221737	1	main_slash	7	main_slash	67	stimuli_target_squaretriangles.svg	stimuli_distractor_diamondtriangles.svg	7	yes	53	1	980
6.6.1	win	2022-12-20	14:02:25	14:06:43	256253	611d7da2640a2e31818c3e18	545221737	1	main_slash	7	advance_on_keypress_SLASH	68	stimuli_target_squaretriangles.svg	stimuli_distractor_diamondtriangles.svg	7	yes	57	0	217
6.6.1	win	2022-12-20	14:02:25	14:06:45	257914	611d7da2640a2e31818c3e18	545221737	1	main_slash	7	main_slash	69	stimuli_distractor_diamondtriangles.svg	stimuli_target_trianglesquares.svg	30	yes	53	1	792
6.6.1	win	2022-12-20	14:02:25	14:06:45	257914	611d7da2640a2e31818c3e18	545221737	1	main_slash	7	advance_on_keypress_SLASH	70	stimuli_distractor_diamondtriangles.svg	stimuli_target_trianglesquares.svg	30	yes	57	0	409
6.6.1	win	2022-12-20	14:02:25	14:06:48	260954	611d7da2640a2e31818c3e18	545221737	1	main_slash	7	main_slash	71	stimuli_distractor_diamondtriangles.svg	stimuli_distractor_diamondtriangles.svg	40	no	0	1	2000
6.6.1	win	2022-12-20	14:02:25	14:06:48	260954	611d7da2640a2e31818c3e18	545221737	1	main_slash	7	advance_on_keypress_SLASH	72	stimuli_distractor_diamondtriangles.svg	stimuli_distractor_diamondtriangles.svg	40	no	57	0	222
6.6.1	win	2022-12-20	14:02:25	14:06:50	262804	611d7da2640a2e31818c3e18	545221737	1	main_slash	7	main_slash	73	stimuli_distractor_trianglediamonds.svg	stimuli_target_trianglesquares.svg	26	yes	53	1	986
6.6.1	win	2022-12-20	14:02:25	14:06:50	262804	611d7da2640a2e31818c3e18	545221737	1	main_slash	7	advance_on_keypress_SLASH	74	stimuli_distractor_trianglediamonds.svg	stimuli_target_trianglesquares.svg	26	yes	57	0	380
6.6.1	win	2022-12-20	14:02:25	14:06:51	264603	611d7da2640a2e31818c3e18	545221737	1	main_slash	7	main_slash	75	stimuli_target_trianglecircles.svg	stimuli_distractor_diamondtriangles.svg	21	yes	53	1	770
6.6.1	win	2022-12-20	14:02:25	14:06:51	264603	611d7da2640a2e31818c3e18	545221737	1	main_slash	7	advance_on_keypress_SLASH	76	stimuli_target_trianglecircles.svg	stimuli_distractor_diamondtriangles.svg	21	yes	57	0	533
6.6.1	win	2022-12-20	14:02:25	14:06:55	267782	611d7da2640a2e31818c3e18	545221737	1	main_slash	7	main_slash	77	stimuli_distractor_trianglediamonds.svg	stimuli_distractor_trianglediamonds.svg	33	no	0	1	2000
6.6.1	win	2022-12-20	14:02:25	14:06:55	267782	611d7da2640a2e31818c3e18	545221737	1	main_slash	7	advance_on_keypress_SLASH	78	stimuli_distractor_trianglediamonds.svg	stimuli_distractor_trianglediamonds.svg	33	no	57	0	128
6.6.1	win	2022-12-20	14:02:25	14:06:57	270546	611d7da2640a2e31818c3e18	545221737	1	main_slash	7	main_slash	79	stimuli_distractor_trianglediamonds.svg	stimuli_distractor_diamondtriangles.svg	36	no	0	1	2000
6.6.1	win	2022-12-20	14:02:25	14:06:57	270546	611d7da2640a2e31818c3e18	545221737	1	main_slash	7	advance_on_keypress_SLASH	80	stimuli_distractor_trianglediamonds.svg	stimuli_distractor_diamondtriangles.svg	36	no	57	0	371
6.6.1	win	2022-12-20	14:02:25	14:06:59	272330	611d7da2640a2e31818c3e18	545221737	1	main_slash	7	main_slash	81	stimuli_distractor_trianglediamonds.svg	stimuli_target_trianglecircles.svg	25	yes	53	1	769
6.6.1	win	2022-12-20	14:02:25	14:06:59	272330	611d7da2640a2e31818c3e18	545221737	1	main_slash	7	advance_on_keypress_SLASH	82	stimuli_distractor_trianglediamonds.svg	stimuli_target_trianglecircles.svg	25	yes	57	0	526
6.6.1	win	2022-12-20	14:02:25	14:07:01	274200	611d7da2640a2e31818c3e18	545221737	1	main_slash	7	main_slash	83	stimuli_target_trianglecircles.svg	stimuli_distractor_diamondtriangles.svg	21	yes	53	1	708
6.6.1	win	2022-12-20	14:02:25	14:07:01	274200	611d7da2640a2e31818c3e18	545221737	1	main_slash	7	advance_on_keypress_SLASH	84	stimuli_target_trianglecircles.svg	stimuli_distractor_diamondtriangles.svg	21	yes	57	0	280
6.6.1	win	2022-12-20	14:02:25	14:07:03	276353	611d7da2640a2e31818c3e18	545221737	1	main_slash	7	main_slash	85	stimuli_distractor_diamondtriangles.svg	stimuli_target_squarediamonds.svg	16	yes	53	1	1229
6.6.1	win	2022-12-20	14:02:25	14:07:03	276353	611d7da2640a2e31818c3e18	545221737	1	main_slash	7	advance_on_keypress_SLASH	86	stimuli_distractor_diamondtriangles.svg	stimuli_target_squarediamonds.svg	16	yes	57	0	342
6.6.1	win	2022-12-20	14:02:25	14:07:06	279340	611d7da2640a2e31818c3e18	545221737	1	main_slash	7	main_slash	87	stimuli_distractor_trianglediamonds.svg	stimuli_target_circletriangles.svg	9	yes	0	0	2000
6.6.1	win	2022-12-20	14:02:25	14:07:06	279340	611d7da2640a2e31818c3e18	545221737	1	main_slash	7	advance_on_keypress_SLASH	88	stimuli_distractor_trianglediamonds.svg	stimuli_target_circletriangles.svg	9	yes	57	0	448
6.6.1	win	2022-12-20	14:02:25	14:07:08	280990	611d7da2640a2e31818c3e18	545221737	1	main_slash	7	main_slash	89	stimuli_target_squarediamonds.svg	stimuli_distractor_trianglediamonds.svg	4	yes	53	1	554
6.6.1	win	2022-12-20	14:02:25	14:07:08	280990	611d7da2640a2e31818c3e18	545221737	1	main_slash	7	advance_on_keypress_SLASH	90	stimuli_target_squarediamonds.svg	stimuli_distractor_trianglediamonds.svg	4	yes	57	0	346
6.6.1	win	2022-12-20	14:02:25	14:07:10	282691	611d7da2640a2e31818c3e18	545221737	1	main_slash	7	main_slash	91	stimuli_target_trianglesquares.svg	stimuli_distractor_trianglediamonds.svg	18	yes	53	1	706
6.6.1	win	2022-12-20	14:02:25	14:07:10	282691	611d7da2640a2e31818c3e18	545221737	1	main_slash	7	advance_on_keypress_SLASH	92	stimuli_target_trianglesquares.svg	stimuli_distractor_trianglediamonds.svg	18	yes	57	0	281
6.6.1	win	2022-12-20	14:02:25	14:07:11	284289	611d7da2640a2e31818c3e18	545221737	1	main_slash	7	main_slash	93	stimuli_distractor_trianglediamonds.svg	stimuli_target_diamondsquares.svg	28	yes	53	1	672
6.6.1	win	2022-12-20	14:02:25	14:07:11	284289	611d7da2640a2e31818c3e18	545221737	1	main_slash	7	advance_on_keypress_SLASH	94	stimuli_distractor_trianglediamonds.svg	stimuli_target_diamondsquares.svg	28	yes	57	0	358
6.6.1	win	2022-12-20	14:02:25	14:07:13	286140	611d7da2640a2e31818c3e18	545221737	1	main_slash	7	main_slash	95	stimuli_target_diamondsquares.svg	stimuli_distractor_trianglediamonds.svg	20	yes	53	1	858
6.6.1	win	2022-12-20	14:02:25	14:07:13	286140	611d7da2640a2e31818c3e18	545221737	1	main_slash	7	advance_on_keypress_SLASH	96	stimuli_target_diamondsquares.svg	stimuli_distractor_trianglediamonds.svg	20	yes	57	0	256
6.6.1	win	2022-12-20	14:02:25	14:07:16	289031	611d7da2640a2e31818c3e18	545221737	1	main_slash	7	main_slash	97	stimuli_distractor_trianglediamonds.svg	stimuli_distractor_diamondtriangles.svg	35	no	0	1	2000
6.6.1	win	2022-12-20	14:02:25	14:07:16	289031	611d7da2640a2e31818c3e18	545221737	1	main_slash	7	advance_on_keypress_SLASH	98	stimuli_distractor_trianglediamonds.svg	stimuli_distractor_diamondtriangles.svg	35	no	57	0	107
6.6.1	win	2022-12-20	14:02:25	14:07:17	290416	611d7da2640a2e31818c3e18	545221737	1	main_slash	7	main_slash	99	stimuli_target_circlediamonds.svg	stimuli_distractor_diamondtriangles.svg	6	yes	53	1	638
6.6.1	win	2022-12-20	14:02:25	14:07:17	290416	611d7da2640a2e31818c3e18	545221737	1	main_slash	7	advance_on_keypress_SLASH	100	stimuli_target_circlediamonds.svg	stimuli_distractor_diamondtriangles.svg	6	yes	57	0	324
6.6.1	win	2022-12-20	14:02:25	14:07:19	292038	611d7da2640a2e31818c3e18	545221737	1	main_slash	7	main_slash	101	stimuli_distractor_diamondtriangles.svg	stimuli_target_circletriangles.svg	13	yes	53	1	661
6.6.1	win	2022-12-20	14:02:25	14:07:19	292038	611d7da2640a2e31818c3e18	545221737	1	main_slash	7	advance_on_keypress_SLASH	102	stimuli_distractor_diamondtriangles.svg	stimuli_target_circletriangles.svg	13	yes	57	0	263
6.6.1	win	2022-12-20	14:02:25	14:07:22	294959	611d7da2640a2e31818c3e18	545221737	1	main_slash	7	main_slash	103	stimuli_distractor_diamondtriangles.svg	stimuli_distractor_diamondtriangles.svg	40	no	0	1	2000
6.6.1	win	2022-12-20	14:02:25	14:07:22	294959	611d7da2640a2e31818c3e18	545221737	1	main_slash	7	advance_on_keypress_SLASH	104	stimuli_distractor_diamondtriangles.svg	stimuli_distractor_diamondtriangles.svg	40	no	57	0	319
6.6.1	win	2022-12-20	14:02:25	14:07:23	296509	611d7da2640a2e31818c3e18	545221737	1	main_slash	7	main_slash	105	stimuli_target_squaretriangles.svg	stimuli_distractor_diamondtriangles.svg	7	yes	53	1	586
6.6.1	win	2022-12-20	14:02:25	14:07:23	296509	611d7da2640a2e31818c3e18	545221737	1	main_slash	7	advance_on_keypress_SLASH	106	stimuli_target_squaretriangles.svg	stimuli_distractor_diamondtriangles.svg	7	yes	57	0	335
6.6.1	win	2022-12-20	14:02:25	14:07:26	299489	611d7da2640a2e31818c3e18	545221737	1	main_slash	7	main_slash	107	stimuli_distractor_trianglediamonds.svg	stimuli_distractor_trianglediamonds.svg	33	no	0	1	2000
6.6.1	win	2022-12-20	14:02:25	14:07:26	299489	611d7da2640a2e31818c3e18	545221737	1	main_slash	7	advance_on_keypress_SLASH	108	stimuli_distractor_trianglediamonds.svg	stimuli_distractor_trianglediamonds.svg	33	no	57	0	430
6.6.1	win	2022-12-20	14:02:25	14:07:28	301190	611d7da2640a2e31818c3e18	545221737	1	main_slash	7	main_slash	109	stimuli_target_squarediamonds.svg	stimuli_distractor_diamondtriangles.svg	8	yes	53	1	620
6.6.1	win	2022-12-20	14:02:25	14:07:28	301190	611d7da2640a2e31818c3e18	545221737	1	main_slash	7	advance_on_keypress_SLASH	110	stimuli_target_squarediamonds.svg	stimuli_distractor_diamondtriangles.svg	8	yes	57	0	315
6.6.1	win	2022-12-20	14:02:25	14:07:31	304154	611d7da2640a2e31818c3e18	545221737	1	main_slash	7	main_slash	111	stimuli_distractor_diamondtriangles.svg	stimuli_distractor_trianglediamonds.svg	37	no	0	1	2000
6.6.1	win	2022-12-20	14:02:25	14:07:31	304154	611d7da2640a2e31818c3e18	545221737	1	main_slash	7	advance_on_keypress_SLASH	112	stimuli_distractor_diamondtriangles.svg	stimuli_distractor_trianglediamonds.svg	37	no	57	0	247
6.6.1	win	2022-12-20	14:02:25	14:07:33	305718	611d7da2640a2e31818c3e18	545221737	1	main_slash	7	main_slash	113	stimuli_target_diamondcircles.svg	stimuli_distractor_diamondtriangles.svg	23	yes	53	1	669
6.6.1	win	2022-12-20	14:02:25	14:07:33	305718	611d7da2640a2e31818c3e18	545221737	1	main_slash	7	advance_on_keypress_SLASH	114	stimuli_target_diamondcircles.svg	stimuli_distractor_diamondtriangles.svg	23	yes	57	0	332
6.6.1	win	2022-12-20	14:02:25	14:07:34	307622	611d7da2640a2e31818c3e18	545221737	1	main_slash	7	main_slash	115	stimuli_distractor_diamondtriangles.svg	stimuli_target_diamondsquares.svg	32	yes	53	1	924
6.6.1	win	2022-12-20	14:02:25	14:07:34	307622	611d7da2640a2e31818c3e18	545221737	1	main_slash	7	advance_on_keypress_SLASH	116	stimuli_distractor_diamondtriangles.svg	stimuli_target_diamondsquares.svg	32	yes	57	0	306
6.6.1	win	2022-12-20	14:02:25	14:07:37	310564	611d7da2640a2e31818c3e18	545221737	1	main_slash	7	main_slash	117	stimuli_distractor_trianglediamonds.svg	stimuli_distractor_trianglediamonds.svg	34	no	0	1	2000
6.6.1	win	2022-12-20	14:02:25	14:07:37	310564	611d7da2640a2e31818c3e18	545221737	1	main_slash	7	advance_on_keypress_SLASH	118	stimuli_distractor_trianglediamonds.svg	stimuli_distractor_trianglediamonds.svg	34	no	57	0	327
6.6.1	win	2022-12-20	14:02:25	14:07:39	312167	611d7da2640a2e31818c3e18	545221737	1	main_slash	7	main_slash	119	stimuli_target_diamondcircles.svg	stimuli_distractor_trianglediamonds.svg	19	yes	53	1	623
6.6.1	win	2022-12-20	14:02:25	14:07:39	312167	611d7da2640a2e31818c3e18	545221737	1	main_slash	7	advance_on_keypress_SLASH	120	stimuli_target_diamondcircles.svg	stimuli_distractor_trianglediamonds.svg	19	yes	57	0	383
6.6.1	win	2022-12-20	14:02:25	14:07:41	314132	611d7da2640a2e31818c3e18	545221737	1	main_slash	7	main_slash	121	stimuli_distractor_trianglediamonds.svg	stimuli_target_squarediamonds.svg	12	yes	53	1	936
6.6.1	win	2022-12-20	14:02:25	14:07:41	314132	611d7da2640a2e31818c3e18	545221737	1	main_slash	7	advance_on_keypress_SLASH	122	stimuli_distractor_trianglediamonds.svg	stimuli_target_squarediamonds.svg	12	yes	57	0	290
6.6.1	win	2022-12-20	14:02:25	14:07:43	315938	611d7da2640a2e31818c3e18	545221737	1	main_slash	7	main_slash	123	stimuli_target_trianglecircles.svg	stimuli_distractor_trianglediamonds.svg	17	yes	53	1	863
6.6.1	win	2022-12-20	14:02:25	14:07:43	315938	611d7da2640a2e31818c3e18	545221737	1	main_slash	7	advance_on_keypress_SLASH	124	stimuli_target_trianglecircles.svg	stimuli_distractor_trianglediamonds.svg	17	yes	57	0	260
6.6.1	win	2022-12-20	14:02:25	14:07:44	317616	611d7da2640a2e31818c3e18	545221737	1	main_slash	7	main_slash	125	stimuli_distractor_diamondtriangles.svg	stimuli_target_trianglecircles.svg	29	yes	53	1	777
6.6.1	win	2022-12-20	14:02:25	14:07:44	317616	611d7da2640a2e31818c3e18	545221737	1	main_slash	7	advance_on_keypress_SLASH	126	stimuli_distractor_diamondtriangles.svg	stimuli_target_trianglecircles.svg	29	yes	57	0	415
6.6.1	win	2022-12-20	14:02:25	14:07:47	319670	611d7da2640a2e31818c3e18	545221737	1	main_slash	7	main_slash	127	stimuli_distractor_diamondtriangles.svg	stimuli_target_circlediamonds.svg	14	yes	53	1	999
6.6.1	win	2022-12-20	14:02:25	14:07:47	319670	611d7da2640a2e31818c3e18	545221737	1	main_slash	7	advance_on_keypress_SLASH	128	stimuli_distractor_diamondtriangles.svg	stimuli_target_circlediamonds.svg	14	yes	57	0	263
6.6.1	win	2022-12-20	14:02:25	14:07:48	321396	611d7da2640a2e31818c3e18	545221737	1	main_slash	7	main_slash	129	stimuli_target_trianglesquares.svg	stimuli_distractor_diamondtriangles.svg	22	yes	53	1	809
6.6.1	win	2022-12-20	14:02:25	14:07:48	321396	611d7da2640a2e31818c3e18	545221737	1	main_slash	7	advance_on_keypress_SLASH	130	stimuli_target_trianglesquares.svg	stimuli_distractor_diamondtriangles.svg	22	yes	57	0	271
6.6.1	win	2022-12-20	14:02:25	14:07:50	323331	611d7da2640a2e31818c3e18	545221737	1	main_slash	7	main_slash	131	stimuli_target_squaretriangles.svg	stimuli_distractor_trianglediamonds.svg	3	yes	53	1	1029
6.6.1	win	2022-12-20	14:02:25	14:07:50	323331	611d7da2640a2e31818c3e18	545221737	1	main_slash	7	advance_on_keypress_SLASH	132	stimuli_target_squaretriangles.svg	stimuli_distractor_trianglediamonds.svg	3	yes	57	0	230
6.6.1	win	2022-12-20	14:02:25	14:07:52	325170	611d7da2640a2e31818c3e18	545221737	1	main_slash	7	main_slash	133	stimuli_distractor_diamondtriangles.svg	stimuli_target_trianglesquares.svg	30	yes	53	1	949
6.6.1	win	2022-12-20	14:02:25	14:07:52	325170	611d7da2640a2e31818c3e18	545221737	1	main_slash	7	advance_on_keypress_SLASH	134	stimuli_distractor_diamondtriangles.svg	stimuli_target_trianglesquares.svg	30	yes	57	0	282
6.6.1	win	2022-12-20	14:02:25	14:07:54	327586	611d7da2640a2e31818c3e18	545221737	1	main_slash	7	main_slash	135	stimuli_distractor_trianglediamonds.svg	stimuli_distractor_diamondtriangles.svg	36	no	53	0	1488
6.6.1	win	2022-12-20	14:02:25	14:07:54	327586	611d7da2640a2e31818c3e18	545221737	1	main_slash	7	advance_on_keypress_SLASH	136	stimuli_distractor_trianglediamonds.svg	stimuli_distractor_diamondtriangles.svg	36	no	57	0	386
6.6.1	win	2022-12-20	14:02:25	14:07:56	329243	611d7da2640a2e31818c3e18	545221737	1	main_slash	7	main_slash	137	stimuli_distractor_diamondtriangles.svg	stimuli_target_squaretriangles.svg	15	yes	53	1	630
6.6.1	win	2022-12-20	14:02:25	14:07:56	329243	611d7da2640a2e31818c3e18	545221737	1	main_slash	7	advance_on_keypress_SLASH	138	stimuli_distractor_diamondtriangles.svg	stimuli_target_squaretriangles.svg	15	yes	57	0	277
6.6.1	win	2022-12-20	14:02:25	14:07:58	330812	611d7da2640a2e31818c3e18	545221737	1	main_slash	7	main_slash	139	stimuli_target_circlediamonds.svg	stimuli_distractor_trianglediamonds.svg	2	yes	53	1	624
6.6.1	win	2022-12-20	14:02:25	14:07:58	330812	611d7da2640a2e31818c3e18	545221737	1	main_slash	7	advance_on_keypress_SLASH	140	stimuli_target_circlediamonds.svg	stimuli_distractor_trianglediamonds.svg	2	yes	57	0	201
6.6.1	win	2022-12-20	14:02:25	14:08:00	332672	611d7da2640a2e31818c3e18	545221737	1	main_slash	7	main_slash	141	stimuli_distractor_trianglediamonds.svg	stimuli_target_squaretriangles.svg	11	yes	53	1	1010
6.6.1	win	2022-12-20	14:02:25	14:08:00	332672	611d7da2640a2e31818c3e18	545221737	1	main_slash	7	advance_on_keypress_SLASH	142	stimuli_distractor_trianglediamonds.svg	stimuli_target_squaretriangles.svg	11	yes	57	0	219
6.6.1	win	2022-12-20	14:02:25	14:08:01	334319	611d7da2640a2e31818c3e18	545221737	1	main_slash	7	main_slash	143	stimuli_distractor_trianglediamonds.svg	stimuli_target_trianglesquares.svg	26	yes	53	1	776
6.6.1	win	2022-12-20	14:02:25	14:08:01	334319	611d7da2640a2e31818c3e18	545221737	1	main_slash	7	advance_on_keypress_SLASH	144	stimuli_distractor_trianglediamonds.svg	stimuli_target_trianglesquares.svg	26	yes	57	0	264
6.6.1	win	2022-12-20	14:02:25	14:08:04	337225	611d7da2640a2e31818c3e18	545221737	1	main_slash	7	main_slash	145	stimuli_distractor_diamondtriangles.svg	stimuli_distractor_trianglediamonds.svg	38	no	0	1	2000
6.6.1	win	2022-12-20	14:02:25	14:08:04	337225	611d7da2640a2e31818c3e18	545221737	1	main_slash	7	advance_on_keypress_SLASH	146	stimuli_distractor_diamondtriangles.svg	stimuli_distractor_trianglediamonds.svg	38	no	57	0	228
6.6.1	win	2022-12-20	14:02:25	14:08:05	338599	611d7da2640a2e31818c3e18	545221737	1	main_slash	7	main_slash	147	stimuli_distractor_diamondtriangles.svg	stimuli_target_diamondcircles.svg	31	yes	53	1	493
6.6.1	win	2022-12-20	14:02:25	14:08:05	338599	611d7da2640a2e31818c3e18	545221737	1	main_slash	7	advance_on_keypress_SLASH	148	stimuli_distractor_diamondtriangles.svg	stimuli_target_diamondcircles.svg	31	yes	57	0	228
6.6.1	win	2022-12-20	14:02:25	14:08:07	340536	611d7da2640a2e31818c3e18	545221737	1	main_slash	7	main_slash	149	stimuli_target_circletriangles.svg	stimuli_distractor_diamondtriangles.svg	5	yes	53	1	1049
6.6.1	win	2022-12-20	14:02:25	14:08:07	340536	611d7da2640a2e31818c3e18	545221737	1	main_slash	7	advance_on_keypress_SLASH	150	stimuli_target_circletriangles.svg	stimuli_distractor_diamondtriangles.svg	5	yes	57	0	130
6.6.1	win	2022-12-20	14:02:25	14:08:09	341910	611d7da2640a2e31818c3e18	545221737	1	main_slash	7	main_slash	151	stimuli_distractor_trianglediamonds.svg	stimuli_target_circlediamonds.svg	10	yes	53	1	591
6.6.1	win	2022-12-20	14:02:25	14:08:09	341910	611d7da2640a2e31818c3e18	545221737	1	main_slash	7	advance_on_keypress_SLASH	152	stimuli_distractor_trianglediamonds.svg	stimuli_target_circlediamonds.svg	10	yes	57	0	176
6.6.1	win	2022-12-20	14:02:25	14:08:10	343503	611d7da2640a2e31818c3e18	545221737	1	main_slash	7	main_slash	153	stimuli_distractor_trianglediamonds.svg	stimuli_target_diamondcircles.svg	27	yes	53	1	785
6.6.1	win	2022-12-20	14:02:25	14:08:10	343503	611d7da2640a2e31818c3e18	545221737	1	main_slash	7	advance_on_keypress_SLASH	154	stimuli_distractor_trianglediamonds.svg	stimuli_target_diamondcircles.svg	27	yes	57	0	236
6.6.1	win	2022-12-20	14:02:25	14:08:13	346388	611d7da2640a2e31818c3e18	545221737	1	main_slash	7	main_slash	155	stimuli_distractor_diamondtriangles.svg	stimuli_distractor_diamondtriangles.svg	39	no	0	1	2000
6.6.1	win	2022-12-20	14:02:25	14:08:13	346388	611d7da2640a2e31818c3e18	545221737	1	main_slash	7	advance_on_keypress_SLASH	156	stimuli_distractor_diamondtriangles.svg	stimuli_distractor_diamondtriangles.svg	39	no	57	0	244
6.6.1	win	2022-12-20	14:02:25	14:08:15	347847	611d7da2640a2e31818c3e18	545221737	1	main_slash	7	main_slash	157	stimuli_target_diamondsquares.svg	stimuli_distractor_diamondtriangles.svg	24	yes	53	1	583
6.6.1	win	2022-12-20	14:02:25	14:08:15	347847	611d7da2640a2e31818c3e18	545221737	1	main_slash	7	advance_on_keypress_SLASH	158	stimuli_target_diamondsquares.svg	stimuli_distractor_diamondtriangles.svg	24	yes	57	0	269
6.6.1	win	2022-12-20	14:02:25	14:08:16	349343	611d7da2640a2e31818c3e18	545221737	1	main_slash	7	main_slash	159	stimuli_target_circletriangles.svg	stimuli_distractor_trianglediamonds.svg	1	yes	53	1	580
6.6.1	win	2022-12-20	14:02:25	14:08:16	349343	611d7da2640a2e31818c3e18	545221737	1	main_slash	7	advance_on_keypress_SLASH	160	stimuli_target_circletriangles.svg	stimuli_distractor_trianglediamonds.svg	1	yes	57	0	245
6.6.1	win	2022-12-20	14:02:25	14:08:39	372357	611d7da2640a2e31818c3e18	545221737	1	practice_z	9	practice_z	1	stimuli_target_diamondsquares.svg	stimuli_distractor_trianglediamonds.svg	6	yes	44	1	660
6.6.1	win	2022-12-20	14:02:25	14:08:39	372357	611d7da2640a2e31818c3e18	545221737	1	practice_z	9	advance_on_keypress_ZEE	2	stimuli_target_diamondsquares.svg	stimuli_distractor_trianglediamonds.svg	6	yes	57	0	454
6.6.1	win	2022-12-20	14:02:25	14:08:42	375187	611d7da2640a2e31818c3e18	545221737	1	practice_z	9	practice_z	3	stimuli_distractor_trianglediamonds.svg	stimuli_target_squarediamonds.svg	11	yes	44	1	726
6.6.1	win	2022-12-20	14:02:25	14:08:42	375187	611d7da2640a2e31818c3e18	545221737	1	practice_z	9	advance_on_keypress_ZEE	4	stimuli_distractor_trianglediamonds.svg	stimuli_target_squarediamonds.svg	11	yes	57	0	243
6.6.1	win	2022-12-20	14:02:25	14:08:46	379092	611d7da2640a2e31818c3e18	545221737	1	practice_z	9	practice_z	5	stimuli_distractor_diamondtriangles.svg	stimuli_distractor_diamondtriangles.svg	13	no	0	1	2000
6.6.1	win	2022-12-20	14:02:25	14:08:46	379092	611d7da2640a2e31818c3e18	545221737	1	practice_z	9	advance_on_keypress_ZEE	6	stimuli_distractor_diamondtriangles.svg	stimuli_distractor_diamondtriangles.svg	13	no	57	0	346
6.6.1	win	2022-12-20	14:02:25	14:08:49	381820	611d7da2640a2e31818c3e18	545221737	1	practice_z	9	practice_z	7	stimuli_distractor_trianglediamonds.svg	stimuli_target_circlediamonds.svg	10	yes	44	1	732
6.6.1	win	2022-12-20	14:02:25	14:08:49	381820	611d7da2640a2e31818c3e18	545221737	1	practice_z	9	advance_on_keypress_ZEE	8	stimuli_distractor_trianglediamonds.svg	stimuli_target_circlediamonds.svg	10	yes	57	0	274
6.6.1	win	2022-12-20	14:02:25	14:08:53	385739	611d7da2640a2e31818c3e18	545221737	1	practice_z	9	practice_z	9	stimuli_distractor_trianglediamonds.svg	stimuli_distractor_diamondtriangles.svg	16	no	0	1	2000
6.6.1	win	2022-12-20	14:02:25	14:08:53	385739	611d7da2640a2e31818c3e18	545221737	1	practice_z	9	advance_on_keypress_ZEE	10	stimuli_distractor_trianglediamonds.svg	stimuli_distractor_diamondtriangles.svg	16	no	57	0	329
6.6.1	win	2022-12-20	14:02:25	14:08:55	388365	611d7da2640a2e31818c3e18	545221737	1	practice_z	9	practice_z	11	stimuli_target_squarediamonds.svg	stimuli_distractor_trianglediamonds.svg	5	yes	44	1	649
6.6.1	win	2022-12-20	14:02:25	14:08:55	388365	611d7da2640a2e31818c3e18	545221737	1	practice_z	9	advance_on_keypress_ZEE	12	stimuli_target_squarediamonds.svg	stimuli_distractor_trianglediamonds.svg	5	yes	57	0	320
6.6.1	win	2022-12-20	14:02:25	14:08:58	391158	611d7da2640a2e31818c3e18	545221737	1	practice_z	9	practice_z	13	stimuli_distractor_diamondtriangles.svg	stimuli_target_diamondcircles.svg	8	yes	44	1	827
6.6.1	win	2022-12-20	14:02:25	14:08:58	391158	611d7da2640a2e31818c3e18	545221737	1	practice_z	9	advance_on_keypress_ZEE	14	stimuli_distractor_diamondtriangles.svg	stimuli_target_diamondcircles.svg	8	yes	57	0	275
6.6.1	win	2022-12-20	14:02:25	14:09:02	395079	611d7da2640a2e31818c3e18	545221737	1	practice_z	9	practice_z	15	stimuli_distractor_diamondtriangles.svg	stimuli_distractor_trianglediamonds.svg	14	no	0	1	2000
6.6.1	win	2022-12-20	14:02:25	14:09:02	395079	611d7da2640a2e31818c3e18	545221737	1	practice_z	9	advance_on_keypress_ZEE	16	stimuli_distractor_diamondtriangles.svg	stimuli_distractor_trianglediamonds.svg	14	no	57	0	577
6.6.1	win	2022-12-20	14:02:25	14:09:05	398012	611d7da2640a2e31818c3e18	545221737	1	practice_z	9	practice_z	17	stimuli_target_circlediamonds.svg	stimuli_distractor_trianglediamonds.svg	4	yes	44	1	704
6.6.1	win	2022-12-20	14:02:25	14:09:05	398012	611d7da2640a2e31818c3e18	545221737	1	practice_z	9	advance_on_keypress_ZEE	18	stimuli_target_circlediamonds.svg	stimuli_distractor_trianglediamonds.svg	4	yes	57	0	595
6.6.1	win	2022-12-20	14:02:25	14:09:08	401356	611d7da2640a2e31818c3e18	545221737	1	practice_z	9	practice_z	19	stimuli_distractor_diamondtriangles.svg	stimuli_target_circletriangles.svg	7	yes	44	1	1100
6.6.1	win	2022-12-20	14:02:25	14:09:08	401356	611d7da2640a2e31818c3e18	545221737	1	practice_z	9	advance_on_keypress_ZEE	20	stimuli_distractor_diamondtriangles.svg	stimuli_target_circletriangles.svg	7	yes	57	0	368
6.6.1	win	2022-12-20	14:02:25	14:09:11	404054	611d7da2640a2e31818c3e18	545221737	1	practice_z	9	practice_z	21	stimuli_distractor_trianglediamonds.svg	stimuli_target_diamondcircles.svg	12	yes	44	1	680
6.6.1	win	2022-12-20	14:02:25	14:09:11	404054	611d7da2640a2e31818c3e18	545221737	1	practice_z	9	advance_on_keypress_ZEE	22	stimuli_distractor_trianglediamonds.svg	stimuli_target_diamondcircles.svg	12	yes	57	0	274
6.6.1	win	2022-12-20	14:02:25	14:09:13	406555	611d7da2640a2e31818c3e18	545221737	1	practice_z	9	practice_z	23	stimuli_target_circlediamonds.svg	stimuli_distractor_diamondtriangles.svg	1	yes	44	1	587
6.6.1	win	2022-12-20	14:02:25	14:09:13	406555	611d7da2640a2e31818c3e18	545221737	1	practice_z	9	advance_on_keypress_ZEE	24	stimuli_target_circlediamonds.svg	stimuli_distractor_diamondtriangles.svg	1	yes	57	0	466
6.6.1	win	2022-12-20	14:02:25	14:09:16	409371	611d7da2640a2e31818c3e18	545221737	1	practice_z	9	practice_z	25	stimuli_distractor_diamondtriangles.svg	stimuli_target_trianglecircles.svg	9	yes	44	1	704
6.6.1	win	2022-12-20	14:02:25	14:09:16	409371	611d7da2640a2e31818c3e18	545221737	1	practice_z	9	advance_on_keypress_ZEE	26	stimuli_distractor_diamondtriangles.svg	stimuli_target_trianglecircles.svg	9	yes	57	0	257
6.6.1	win	2022-12-20	14:02:25	14:09:19	412036	611d7da2640a2e31818c3e18	545221737	1	practice_z	9	practice_z	27	stimuli_target_squarediamonds.svg	stimuli_distractor_diamondtriangles.svg	2	yes	44	1	771
6.6.1	win	2022-12-20	14:02:25	14:09:19	412036	611d7da2640a2e31818c3e18	545221737	1	practice_z	9	advance_on_keypress_ZEE	28	stimuli_target_squarediamonds.svg	stimuli_distractor_diamondtriangles.svg	2	yes	57	0	504
6.6.1	win	2022-12-20	14:02:25	14:09:22	414878	611d7da2640a2e31818c3e18	545221737	1	practice_z	9	practice_z	29	stimuli_target_diamondsquares.svg	stimuli_distractor_diamondtriangles.svg	3	yes	44	1	700
6.6.1	win	2022-12-20	14:02:25	14:09:22	414878	611d7da2640a2e31818c3e18	545221737	1	practice_z	9	advance_on_keypress_ZEE	30	stimuli_target_diamondsquares.svg	stimuli_distractor_diamondtriangles.svg	3	yes	57	0	394
6.6.1	win	2022-12-20	14:02:25	14:09:26	418926	611d7da2640a2e31818c3e18	545221737	1	practice_z	9	practice_z	31	stimuli_distractor_trianglediamonds.svg	stimuli_distractor_trianglediamonds.svg	15	no	0	1	2000
6.6.1	win	2022-12-20	14:02:25	14:09:26	418926	611d7da2640a2e31818c3e18	545221737	1	practice_z	9	advance_on_keypress_ZEE	32	stimuli_distractor_trianglediamonds.svg	stimuli_distractor_trianglediamonds.svg	15	no	57	0	491
6.6.1	win	2022-12-20	14:02:25	14:09:34	427152	611d7da2640a2e31818c3e18	545221737	1	main_z	11	main_z	1	stimuli_target_squaretriangles.svg	stimuli_distractor_trianglediamonds.svg	3	yes	44	1	603
6.6.1	win	2022-12-20	14:02:25	14:09:34	427152	611d7da2640a2e31818c3e18	545221737	1	main_z	11	advance_on_keypress_ZEE	2	stimuli_target_squaretriangles.svg	stimuli_distractor_trianglediamonds.svg	3	yes	57	0	466
6.6.1	win	2022-12-20	14:02:25	14:09:36	428861	611d7da2640a2e31818c3e18	545221737	1	main_z	11	main_z	3	stimuli_target_diamondsquares.svg	stimuli_distractor_trianglediamonds.svg	20	yes	44	1	596
6.6.1	win	2022-12-20	14:02:25	14:09:36	428861	611d7da2640a2e31818c3e18	545221737	1	main_z	11	advance_on_keypress_ZEE	4	stimuli_target_diamondsquares.svg	stimuli_distractor_trianglediamonds.svg	20	yes	57	0	394
6.6.1	win	2022-12-20	14:02:25	14:09:37	430455	611d7da2640a2e31818c3e18	545221737	1	main_z	11	main_z	5	stimuli_target_trianglesquares.svg	stimuli_distractor_diamondtriangles.svg	22	yes	44	1	555
6.6.1	win	2022-12-20	14:02:25	14:09:37	430455	611d7da2640a2e31818c3e18	545221737	1	main_z	11	advance_on_keypress_ZEE	6	stimuli_target_trianglesquares.svg	stimuli_distractor_diamondtriangles.svg	22	yes	57	0	379
6.6.1	win	2022-12-20	14:02:25	14:09:40	433479	611d7da2640a2e31818c3e18	545221737	1	main_z	11	main_z	7	stimuli_distractor_trianglediamonds.svg	stimuli_distractor_trianglediamonds.svg	33	no	0	1	2000
6.6.1	win	2022-12-20	14:02:25	14:09:40	433479	611d7da2640a2e31818c3e18	545221737	1	main_z	11	advance_on_keypress_ZEE	8	stimuli_distractor_trianglediamonds.svg	stimuli_distractor_trianglediamonds.svg	33	no	57	0	284
6.6.1	win	2022-12-20	14:02:25	14:09:42	435004	611d7da2640a2e31818c3e18	545221737	1	main_z	11	main_z	9	stimuli_distractor_trianglediamonds.svg	stimuli_target_circlediamonds.svg	10	yes	44	1	595
6.6.1	win	2022-12-20	14:02:25	14:09:42	435004	611d7da2640a2e31818c3e18	545221737	1	main_z	11	advance_on_keypress_ZEE	10	stimuli_distractor_trianglediamonds.svg	stimuli_target_circlediamonds.svg	10	yes	57	0	353
6.6.1	win	2022-12-20	14:02:25	14:09:44	437297	611d7da2640a2e31818c3e18	545221737	1	main_z	11	main_z	11	stimuli_distractor_diamondtriangles.svg	stimuli_target_trianglesquares.svg	30	yes	44	1	1288
6.6.1	win	2022-12-20	14:02:25	14:09:44	437297	611d7da2640a2e31818c3e18	545221737	1	main_z	11	advance_on_keypress_ZEE	12	stimuli_distractor_diamondtriangles.svg	stimuli_target_trianglesquares.svg	30	yes	57	0	830
6.6.1	win	2022-12-20	14:02:25	14:09:48	440787	611d7da2640a2e31818c3e18	545221737	1	main_z	11	main_z	13	stimuli_distractor_trianglediamonds.svg	stimuli_distractor_trianglediamonds.svg	34	no	0	1	2000
6.6.1	win	2022-12-20	14:02:25	14:09:48	440787	611d7da2640a2e31818c3e18	545221737	1	main_z	11	advance_on_keypress_ZEE	14	stimuli_distractor_trianglediamonds.svg	stimuli_distractor_trianglediamonds.svg	34	no	57	0	412
6.6.1	win	2022-12-20	14:02:25	14:09:51	443855	611d7da2640a2e31818c3e18	545221737	1	main_z	11	main_z	15	stimuli_distractor_diamondtriangles.svg	stimuli_distractor_diamondtriangles.svg	40	no	0	1	2000
6.6.1	win	2022-12-20	14:02:25	14:09:51	443855	611d7da2640a2e31818c3e18	545221737	1	main_z	11	advance_on_keypress_ZEE	16	stimuli_distractor_diamondtriangles.svg	stimuli_distractor_diamondtriangles.svg	40	no	57	0	348
6.6.1	win	2022-12-20	14:02:25	14:09:53	445788	611d7da2640a2e31818c3e18	545221737	1	main_z	11	main_z	17	stimuli_target_trianglecircles.svg	stimuli_distractor_diamondtriangles.svg	21	yes	44	1	937
6.6.1	win	2022-12-20	14:02:25	14:09:53	445788	611d7da2640a2e31818c3e18	545221737	1	main_z	11	advance_on_keypress_ZEE	18	stimuli_target_trianglecircles.svg	stimuli_distractor_diamondtriangles.svg	21	yes	57	0	909
6.6.1	win	2022-12-20	14:02:25	14:09:55	448044	611d7da2640a2e31818c3e18	545221737	1	main_z	11	main_z	19	stimuli_distractor_diamondtriangles.svg	stimuli_target_circletriangles.svg	13	yes	44	1	712
6.6.1	win	2022-12-20	14:02:25	14:09:55	448044	611d7da2640a2e31818c3e18	545221737	1	main_z	11	advance_on_keypress_ZEE	20	stimuli_distractor_diamondtriangles.svg	stimuli_target_circletriangles.svg	13	yes	57	0	747
6.6.1	win	2022-12-20	14:02:25	14:09:57	450160	611d7da2640a2e31818c3e18	545221737	1	main_z	11	main_z	21	stimuli_distractor_diamondtriangles.svg	stimuli_target_trianglecircles.svg	29	yes	44	1	712
6.6.1	win	2022-12-20	14:02:25	14:09:57	450160	611d7da2640a2e31818c3e18	545221737	1	main_z	11	advance_on_keypress_ZEE	22	stimuli_distractor_diamondtriangles.svg	stimuli_target_trianglecircles.svg	29	yes	57	0	681
6.6.1	win	2022-12-20	14:02:25	14:09:59	452412	611d7da2640a2e31818c3e18	545221737	1	main_z	11	main_z	23	stimuli_distractor_trianglediamonds.svg	stimuli_target_squaretriangles.svg	11	yes	44	1	911
6.6.1	win	2022-12-20	14:02:25	14:09:59	452412	611d7da2640a2e31818c3e18	545221737	1	main_z	11	advance_on_keypress_ZEE	24	stimuli_distractor_trianglediamonds.svg	stimuli_target_squaretriangles.svg	11	yes	57	0	683
6.6.1	win	2022-12-20	14:02:25	14:10:01	454528	611d7da2640a2e31818c3e18	545221737	1	main_z	11	main_z	25	stimuli_distractor_diamondtriangles.svg	stimuli_target_circlediamonds.svg	14	yes	44	1	784
6.6.1	win	2022-12-20	14:02:25	14:10:01	454528	611d7da2640a2e31818c3e18	545221737	1	main_z	11	advance_on_keypress_ZEE	26	stimuli_distractor_diamondtriangles.svg	stimuli_target_circlediamonds.svg	14	yes	57	0	553
6.6.1	win	2022-12-20	14:02:25	14:10:03	456471	611d7da2640a2e31818c3e18	545221737	1	main_z	11	main_z	27	stimuli_target_trianglesquares.svg	stimuli_distractor_trianglediamonds.svg	18	yes	44	1	745
6.6.1	win	2022-12-20	14:02:25	14:10:03	456471	611d7da2640a2e31818c3e18	545221737	1	main_z	11	advance_on_keypress_ZEE	28	stimuli_target_trianglesquares.svg	stimuli_distractor_trianglediamonds.svg	18	yes	57	0	493
6.6.1	win	2022-12-20	14:02:25	14:10:06	459607	611d7da2640a2e31818c3e18	545221737	1	main_z	11	main_z	29	stimuli_distractor_diamondtriangles.svg	stimuli_distractor_trianglediamonds.svg	37	no	0	1	2000
6.6.1	win	2022-12-20	14:02:25	14:10:06	459607	611d7da2640a2e31818c3e18	545221737	1	main_z	11	advance_on_keypress_ZEE	30	stimuli_distractor_diamondtriangles.svg	stimuli_distractor_trianglediamonds.svg	37	no	57	0	305
6.6.1	win	2022-12-20	14:02:25	14:10:08	461325	611d7da2640a2e31818c3e18	545221737	1	main_z	11	main_z	31	stimuli_distractor_diamondtriangles.svg	stimuli_target_diamondsquares.svg	32	yes	44	1	770
6.6.1	win	2022-12-20	14:02:25	14:10:08	461325	611d7da2640a2e31818c3e18	545221737	1	main_z	11	advance_on_keypress_ZEE	32	stimuli_distractor_diamondtriangles.svg	stimuli_target_diamondsquares.svg	32	yes	57	0	479
6.6.1	win	2022-12-20	14:02:25	14:10:10	463261	611d7da2640a2e31818c3e18	545221737	1	main_z	11	main_z	33	stimuli_distractor_trianglediamonds.svg	stimuli_target_trianglesquares.svg	26	yes	44	1	808
6.6.1	win	2022-12-20	14:02:25	14:10:10	463261	611d7da2640a2e31818c3e18	545221737	1	main_z	11	advance_on_keypress_ZEE	34	stimuli_distractor_trianglediamonds.svg	stimuli_target_trianglesquares.svg	26	yes	57	0	548
6.6.1	win	2022-12-20	14:02:25	14:10:12	465164	611d7da2640a2e31818c3e18	545221737	1	main_z	11	main_z	35	stimuli_target_circletriangles.svg	stimuli_distractor_diamondtriangles.svg	5	yes	44	1	713
6.6.1	win	2022-12-20	14:02:25	14:10:12	465164	611d7da2640a2e31818c3e18	545221737	1	main_z	11	advance_on_keypress_ZEE	36	stimuli_target_circletriangles.svg	stimuli_distractor_diamondtriangles.svg	5	yes	57	0	532
6.6.1	win	2022-12-20	14:02:25	14:10:14	467321	611d7da2640a2e31818c3e18	545221737	1	main_z	11	main_z	37	stimuli_distractor_diamondtriangles.svg	stimuli_target_squaretriangles.svg	15	yes	44	1	971
6.6.1	win	2022-12-20	14:02:25	14:10:14	467321	611d7da2640a2e31818c3e18	545221737	1	main_z	11	advance_on_keypress_ZEE	38	stimuli_distractor_diamondtriangles.svg	stimuli_target_squaretriangles.svg	15	yes	57	0	620
6.6.1	win	2022-12-20	14:02:25	14:10:16	469249	611d7da2640a2e31818c3e18	545221737	1	main_z	11	main_z	39	stimuli_target_squarediamonds.svg	stimuli_distractor_trianglediamonds.svg	4	yes	44	1	668
6.6.1	win	2022-12-20	14:02:25	14:10:16	469249	611d7da2640a2e31818c3e18	545221737	1	main_z	11	advance_on_keypress_ZEE	40	stimuli_target_squarediamonds.svg	stimuli_distractor_trianglediamonds.svg	4	yes	57	0	480
6.6.1	win	2022-12-20	14:02:25	14:10:18	471126	611d7da2640a2e31818c3e18	545221737	1	main_z	11	main_z	41	stimuli_target_diamondcircles.svg	stimuli_distractor_trianglediamonds.svg	19	yes	44	1	746
6.6.1	win	2022-12-20	14:02:25	14:10:18	471126	611d7da2640a2e31818c3e18	545221737	1	main_z	11	advance_on_keypress_ZEE	42	stimuli_target_diamondcircles.svg	stimuli_distractor_trianglediamonds.svg	19	yes	57	0	452
6.6.1	win	2022-12-20	14:02:25	14:10:20	472913	611d7da2640a2e31818c3e18	545221737	1	main_z	11	main_z	43	stimuli_distractor_trianglediamonds.svg	stimuli_target_diamondcircles.svg	27	yes	44	1	685
6.6.1	win	2022-12-20	14:02:25	14:10:20	472913	611d7da2640a2e31818c3e18	545221737	1	main_z	11	advance_on_keypress_ZEE	44	stimuli_distractor_trianglediamonds.svg	stimuli_target_diamondcircles.svg	27	yes	57	0	431
6.6.1	win	2022-12-20	14:02:25	14:10:22	474674	611d7da2640a2e31818c3e18	545221737	1	main_z	11	main_z	45	stimuli_target_circletriangles.svg	stimuli_distractor_trianglediamonds.svg	1	yes	44	1	680
6.6.1	win	2022-12-20	14:02:25	14:10:22	474674	611d7da2640a2e31818c3e18	545221737	1	main_z	11	advance_on_keypress_ZEE	46	stimuli_target_circletriangles.svg	stimuli_distractor_trianglediamonds.svg	1	yes	57	0	405
6.6.1	win	2022-12-20	14:02:25	14:10:25	477726	611d7da2640a2e31818c3e18	545221737	1	main_z	11	main_z	47	stimuli_distractor_diamondtriangles.svg	stimuli_distractor_diamondtriangles.svg	39	no	0	1	2000
6.6.1	win	2022-12-20	14:02:25	14:10:25	477726	611d7da2640a2e31818c3e18	545221737	1	main_z	11	advance_on_keypress_ZEE	48	stimuli_distractor_diamondtriangles.svg	stimuli_distractor_diamondtriangles.svg	39	no	57	0	302
6.6.1	win	2022-12-20	14:02:25	14:10:26	479433	611d7da2640a2e31818c3e18	545221737	1	main_z	11	main_z	49	stimuli_target_trianglecircles.svg	stimuli_distractor_trianglediamonds.svg	17	yes	44	1	759
6.6.1	win	2022-12-20	14:02:25	14:10:26	479433	611d7da2640a2e31818c3e18	545221737	1	main_z	11	advance_on_keypress_ZEE	50	stimuli_target_trianglecircles.svg	stimuli_distractor_trianglediamonds.svg	17	yes	57	0	444
6.6.1	win	2022-12-20	14:02:25	14:10:28	481247	611d7da2640a2e31818c3e18	545221737	1	main_z	11	main_z	51	stimuli_target_diamondcircles.svg	stimuli_distractor_diamondtriangles.svg	23	yes	44	1	726
6.6.1	win	2022-12-20	14:02:25	14:10:28	481247	611d7da2640a2e31818c3e18	545221737	1	main_z	11	advance_on_keypress_ZEE	52	stimuli_target_diamondcircles.svg	stimuli_distractor_diamondtriangles.svg	23	yes	57	0	392
6.6.1	win	2022-12-20	14:02:25	14:10:31	484272	611d7da2640a2e31818c3e18	545221737	1	main_z	11	main_z	53	stimuli_distractor_diamondtriangles.svg	stimuli_distractor_trianglediamonds.svg	38	no	0	1	2000
6.6.1	win	2022-12-20	14:02:25	14:10:31	484272	611d7da2640a2e31818c3e18	545221737	1	main_z	11	advance_on_keypress_ZEE	54	stimuli_distractor_diamondtriangles.svg	stimuli_distractor_trianglediamonds.svg	38	no	57	0	388
6.6.1	win	2022-12-20	14:02:25	14:10:33	486025	611d7da2640a2e31818c3e18	545221737	1	main_z	11	main_z	55	stimuli_target_circlediamonds.svg	stimuli_distractor_diamondtriangles.svg	6	yes	44	1	724
6.6.1	win	2022-12-20	14:02:25	14:10:33	486025	611d7da2640a2e31818c3e18	545221737	1	main_z	11	advance_on_keypress_ZEE	56	stimuli_target_circlediamonds.svg	stimuli_distractor_diamondtriangles.svg	6	yes	57	0	605
6.6.1	win	2022-12-20	14:02:25	14:10:35	487880	611d7da2640a2e31818c3e18	545221737	1	main_z	11	main_z	57	stimuli_distractor_diamondtriangles.svg	stimuli_target_diamondcircles.svg	31	yes	44	1	614
6.6.1	win	2022-12-20	14:02:25	14:10:35	487880	611d7da2640a2e31818c3e18	545221737	1	main_z	11	advance_on_keypress_ZEE	58	stimuli_distractor_diamondtriangles.svg	stimuli_target_diamondcircles.svg	31	yes	57	0	520
6.6.1	win	2022-12-20	14:02:25	14:10:37	490063	611d7da2640a2e31818c3e18	545221737	1	main_z	11	main_z	59	stimuli_distractor_trianglediamonds.svg	stimuli_target_squarediamonds.svg	12	yes	44	1	1015
6.6.1	win	2022-12-20	14:02:25	14:10:37	490063	611d7da2640a2e31818c3e18	545221737	1	main_z	11	advance_on_keypress_ZEE	60	stimuli_distractor_trianglediamonds.svg	stimuli_target_squarediamonds.svg	12	yes	57	0	384
6.6.1	win	2022-12-20	14:02:25	14:10:39	491801	611d7da2640a2e31818c3e18	545221737	1	main_z	11	main_z	61	stimuli_target_squaretriangles.svg	stimuli_distractor_diamondtriangles.svg	7	yes	44	1	705
6.6.1	win	2022-12-20	14:02:25	14:10:39	491801	611d7da2640a2e31818c3e18	545221737	1	main_z	11	advance_on_keypress_ZEE	62	stimuli_target_squaretriangles.svg	stimuli_distractor_diamondtriangles.svg	7	yes	57	0	374
6.6.1	win	2022-12-20	14:02:25	14:10:42	494815	611d7da2640a2e31818c3e18	545221737	1	main_z	11	main_z	63	stimuli_distractor_trianglediamonds.svg	stimuli_target_diamondsquares.svg	28	yes	0	0	2000
6.6.1	win	2022-12-20	14:02:25	14:10:42	494815	611d7da2640a2e31818c3e18	545221737	1	main_z	11	advance_on_keypress_ZEE	64	stimuli_distractor_trianglediamonds.svg	stimuli_target_diamondsquares.svg	28	yes	57	0	620
6.6.1	win	2022-12-20	14:02:25	14:10:45	498076	611d7da2640a2e31818c3e18	545221737	1	main_z	11	main_z	65	stimuli_distractor_trianglediamonds.svg	stimuli_distractor_diamondtriangles.svg	36	no	0	1	2000
6.6.1	win	2022-12-20	14:02:25	14:10:45	498076	611d7da2640a2e31818c3e18	545221737	1	main_z	11	advance_on_keypress_ZEE	66	stimuli_distractor_trianglediamonds.svg	stimuli_distractor_diamondtriangles.svg	36	no	57	0	363
6.6.1	win	2022-12-20	14:02:25	14:10:47	499719	611d7da2640a2e31818c3e18	545221737	1	main_z	11	main_z	67	stimuli_distractor_trianglediamonds.svg	stimuli_target_circletriangles.svg	9	yes	44	1	629
6.6.1	win	2022-12-20	14:02:25	14:10:47	499719	611d7da2640a2e31818c3e18	545221737	1	main_z	11	advance_on_keypress_ZEE	68	stimuli_distractor_trianglediamonds.svg	stimuli_target_circletriangles.svg	9	yes	57	0	348
6.6.1	win	2022-12-20	14:02:25	14:10:48	501412	611d7da2640a2e31818c3e18	545221737	1	main_z	11	main_z	69	stimuli_target_circlediamonds.svg	stimuli_distractor_trianglediamonds.svg	2	yes	44	1	690
6.6.1	win	2022-12-20	14:02:25	14:10:48	501412	611d7da2640a2e31818c3e18	545221737	1	main_z	11	advance_on_keypress_ZEE	70	stimuli_target_circlediamonds.svg	stimuli_distractor_trianglediamonds.svg	2	yes	57	0	303
6.6.1	win	2022-12-20	14:02:25	14:10:51	503694	611d7da2640a2e31818c3e18	545221737	1	main_z	11	main_z	71	stimuli_target_squarediamonds.svg	stimuli_distractor_diamondtriangles.svg	8	yes	44	1	1339
6.6.1	win	2022-12-20	14:02:25	14:10:51	503694	611d7da2640a2e31818c3e18	545221737	1	main_z	11	advance_on_keypress_ZEE	72	stimuli_target_squarediamonds.svg	stimuli_distractor_diamondtriangles.svg	8	yes	57	0	648
6.6.1	win	2022-12-20	14:02:25	14:10:52	505588	611d7da2640a2e31818c3e18	545221737	1	main_z	11	main_z	73	stimuli_distractor_diamondtriangles.svg	stimuli_target_squarediamonds.svg	16	yes	44	1	603
6.6.1	win	2022-12-20	14:02:25	14:10:52	505588	611d7da2640a2e31818c3e18	545221737	1	main_z	11	advance_on_keypress_ZEE	74	stimuli_distractor_diamondtriangles.svg	stimuli_target_squarediamonds.svg	16	yes	57	0	357
6.6.1	win	2022-12-20	14:02:25	14:10:54	507379	611d7da2640a2e31818c3e18	545221737	1	main_z	11	main_z	75	stimuli_distractor_trianglediamonds.svg	stimuli_target_trianglecircles.svg	25	yes	44	1	796
6.6.1	win	2022-12-20	14:02:25	14:10:54	507379	611d7da2640a2e31818c3e18	545221737	1	main_z	11	advance_on_keypress_ZEE	76	stimuli_distractor_trianglediamonds.svg	stimuli_target_trianglecircles.svg	25	yes	57	0	358
6.6.1	win	2022-12-20	14:02:25	14:10:56	509617	611d7da2640a2e31818c3e18	545221737	1	main_z	11	main_z	77	stimuli_target_diamondsquares.svg	stimuli_distractor_diamondtriangles.svg	24	yes	44	1	1235
6.6.1	win	2022-12-20	14:02:25	14:10:56	509617	611d7da2640a2e31818c3e18	545221737	1	main_z	11	advance_on_keypress_ZEE	78	stimuli_target_diamondsquares.svg	stimuli_distractor_diamondtriangles.svg	24	yes	57	0	329
6.6.1	win	2022-12-20	14:02:25	14:10:59	512597	611d7da2640a2e31818c3e18	545221737	1	main_z	11	main_z	79	stimuli_distractor_trianglediamonds.svg	stimuli_distractor_diamondtriangles.svg	35	no	0	1	2000
6.6.1	win	2022-12-20	14:02:25	14:10:59	512597	611d7da2640a2e31818c3e18	545221737	1	main_z	11	advance_on_keypress_ZEE	80	stimuli_distractor_trianglediamonds.svg	stimuli_distractor_diamondtriangles.svg	35	no	57	0	256
6.6.1	win	2022-12-20	14:02:25	14:11:02	515494	611d7da2640a2e31818c3e18	545221737	1	main_z	11	main_z	81	stimuli_distractor_trianglediamonds.svg	stimuli_distractor_diamondtriangles.svg	35	no	0	1	2000
6.6.1	win	2022-12-20	14:02:25	14:11:02	515494	611d7da2640a2e31818c3e18	545221737	1	main_z	11	advance_on_keypress_ZEE	82	stimuli_distractor_trianglediamonds.svg	stimuli_distractor_diamondtriangles.svg	35	no	57	0	233
6.6.1	win	2022-12-20	14:02:25	14:11:05	518376	611d7da2640a2e31818c3e18	545221737	1	main_z	11	main_z	83	stimuli_distractor_diamondtriangles.svg	stimuli_distractor_trianglediamonds.svg	38	no	0	1	2000
6.6.1	win	2022-12-20	14:02:25	14:11:05	518376	611d7da2640a2e31818c3e18	545221737	1	main_z	11	advance_on_keypress_ZEE	84	stimuli_distractor_diamondtriangles.svg	stimuli_distractor_trianglediamonds.svg	38	no	57	0	314
6.6.1	win	2022-12-20	14:02:25	14:11:07	520001	611d7da2640a2e31818c3e18	545221737	1	main_z	11	main_z	85	stimuli_distractor_diamondtriangles.svg	stimuli_target_diamondsquares.svg	32	yes	44	1	661
6.6.1	win	2022-12-20	14:02:25	14:11:07	520001	611d7da2640a2e31818c3e18	545221737	1	main_z	11	advance_on_keypress_ZEE	86	stimuli_distractor_diamondtriangles.svg	stimuli_target_diamondsquares.svg	32	yes	57	0	328
6.6.1	win	2022-12-20	14:02:25	14:11:10	522988	611d7da2640a2e31818c3e18	545221737	1	main_z	11	main_z	87	stimuli_distractor_trianglediamonds.svg	stimuli_distractor_diamondtriangles.svg	36	no	0	1	2000
6.6.1	win	2022-12-20	14:02:25	14:11:10	522988	611d7da2640a2e31818c3e18	545221737	1	main_z	11	advance_on_keypress_ZEE	88	stimuli_distractor_trianglediamonds.svg	stimuli_distractor_diamondtriangles.svg	36	no	57	0	221
6.6.1	win	2022-12-20	14:02:25	14:11:11	524469	611d7da2640a2e31818c3e18	545221737	1	main_z	11	main_z	89	stimuli_distractor_trianglediamonds.svg	stimuli_target_diamondcircles.svg	27	yes	44	1	617
6.6.1	win	2022-12-20	14:02:25	14:11:11	524469	611d7da2640a2e31818c3e18	545221737	1	main_z	11	advance_on_keypress_ZEE	90	stimuli_distractor_trianglediamonds.svg	stimuli_target_diamondcircles.svg	27	yes	57	0	372
6.6.1	win	2022-12-20	14:02:25	14:11:13	526120	611d7da2640a2e31818c3e18	545221737	1	main_z	11	main_z	91	stimuli_target_circletriangles.svg	stimuli_distractor_diamondtriangles.svg	5	yes	44	1	635
6.6.1	win	2022-12-20	14:02:25	14:11:13	526120	611d7da2640a2e31818c3e18	545221737	1	main_z	11	advance_on_keypress_ZEE	92	stimuli_target_circletriangles.svg	stimuli_distractor_diamondtriangles.svg	5	yes	57	0	326
6.6.1	win	2022-12-20	14:02:25	14:11:16	529083	611d7da2640a2e31818c3e18	545221737	1	main_z	11	main_z	93	stimuli_distractor_diamondtriangles.svg	stimuli_distractor_diamondtriangles.svg	40	no	0	1	2000
6.6.1	win	2022-12-20	14:02:25	14:11:16	529083	611d7da2640a2e31818c3e18	545221737	1	main_z	11	advance_on_keypress_ZEE	94	stimuli_distractor_diamondtriangles.svg	stimuli_distractor_diamondtriangles.svg	40	no	57	0	193
6.6.1	win	2022-12-20	14:02:25	14:11:19	531937	611d7da2640a2e31818c3e18	545221737	1	main_z	11	main_z	95	stimuli_distractor_diamondtriangles.svg	stimuli_distractor_trianglediamonds.svg	37	no	0	1	2000
6.6.1	win	2022-12-20	14:02:25	14:11:19	531937	611d7da2640a2e31818c3e18	545221737	1	main_z	11	advance_on_keypress_ZEE	96	stimuli_distractor_diamondtriangles.svg	stimuli_distractor_trianglediamonds.svg	37	no	57	0	312
6.6.1	win	2022-12-20	14:02:25	14:11:20	533488	611d7da2640a2e31818c3e18	545221737	1	main_z	11	main_z	97	stimuli_target_diamondsquares.svg	stimuli_distractor_diamondtriangles.svg	24	yes	44	1	589
6.6.1	win	2022-12-20	14:02:25	14:11:20	533488	611d7da2640a2e31818c3e18	545221737	1	main_z	11	advance_on_keypress_ZEE	98	stimuli_target_diamondsquares.svg	stimuli_distractor_diamondtriangles.svg	24	yes	57	0	364
6.6.1	win	2022-12-20	14:02:25	14:11:22	535194	611d7da2640a2e31818c3e18	545221737	1	main_z	11	main_z	99	stimuli_target_squaretriangles.svg	stimuli_distractor_trianglediamonds.svg	3	yes	44	1	699
6.6.1	win	2022-12-20	14:02:25	14:11:22	535194	611d7da2640a2e31818c3e18	545221737	1	main_z	11	advance_on_keypress_ZEE	100	stimuli_target_squaretriangles.svg	stimuli_distractor_trianglediamonds.svg	3	yes	57	0	312
6.6.1	win	2022-12-20	14:02:25	14:11:24	536871	611d7da2640a2e31818c3e18	545221737	1	main_z	11	main_z	101	stimuli_target_diamondsquares.svg	stimuli_distractor_trianglediamonds.svg	20	yes	44	1	711
6.6.1	win	2022-12-20	14:02:25	14:11:24	536871	611d7da2640a2e31818c3e18	545221737	1	main_z	11	advance_on_keypress_ZEE	102	stimuli_target_diamondsquares.svg	stimuli_distractor_trianglediamonds.svg	20	yes	57	0	324
6.6.1	win	2022-12-20	14:02:25	14:11:27	539841	611d7da2640a2e31818c3e18	545221737	1	main_z	11	main_z	103	stimuli_distractor_trianglediamonds.svg	stimuli_distractor_trianglediamonds.svg	34	no	0	1	2000
6.6.1	win	2022-12-20	14:02:25	14:11:27	539841	611d7da2640a2e31818c3e18	545221737	1	main_z	11	advance_on_keypress_ZEE	104	stimuli_distractor_trianglediamonds.svg	stimuli_distractor_trianglediamonds.svg	34	no	57	0	301
6.6.1	win	2022-12-20	14:02:25	14:11:28	541473	611d7da2640a2e31818c3e18	545221737	1	main_z	11	main_z	105	stimuli_target_diamondcircles.svg	stimuli_distractor_diamondtriangles.svg	23	yes	44	1	678
6.6.1	win	2022-12-20	14:02:25	14:11:28	541473	611d7da2640a2e31818c3e18	545221737	1	main_z	11	advance_on_keypress_ZEE	106	stimuli_target_diamondcircles.svg	stimuli_distractor_diamondtriangles.svg	23	yes	57	0	287
6.6.1	win	2022-12-20	14:02:25	14:11:30	543169	611d7da2640a2e31818c3e18	545221737	1	main_z	11	main_z	107	stimuli_distractor_trianglediamonds.svg	stimuli_target_trianglesquares.svg	26	yes	44	1	765
6.6.1	win	2022-12-20	14:02:25	14:11:30	543169	611d7da2640a2e31818c3e18	545221737	1	main_z	11	advance_on_keypress_ZEE	108	stimuli_distractor_trianglediamonds.svg	stimuli_target_trianglesquares.svg	26	yes	57	0	302
6.6.1	win	2022-12-20	14:02:25	14:11:32	544887	611d7da2640a2e31818c3e18	545221737	1	main_z	11	main_z	109	stimuli_distractor_diamondtriangles.svg	stimuli_target_diamondcircles.svg	31	yes	44	1	768
6.6.1	win	2022-12-20	14:02:25	14:11:32	544887	611d7da2640a2e31818c3e18	545221737	1	main_z	11	advance_on_keypress_ZEE	110	stimuli_distractor_diamondtriangles.svg	stimuli_target_diamondcircles.svg	31	yes	57	0	390
6.6.1	win	2022-12-20	14:02:25	14:11:33	546591	611d7da2640a2e31818c3e18	545221737	1	main_z	11	main_z	111	stimuli_target_circletriangles.svg	stimuli_distractor_trianglediamonds.svg	1	yes	44	1	672
6.6.1	win	2022-12-20	14:02:25	14:11:33	546591	611d7da2640a2e31818c3e18	545221737	1	main_z	11	advance_on_keypress_ZEE	112	stimuli_target_circletriangles.svg	stimuli_distractor_trianglediamonds.svg	1	yes	57	0	359
6.6.1	win	2022-12-20	14:02:25	14:11:35	548336	611d7da2640a2e31818c3e18	545221737	1	main_z	11	main_z	113	stimuli_target_trianglecircles.svg	stimuli_distractor_diamondtriangles.svg	21	yes	44	1	753
6.6.1	win	2022-12-20	14:02:25	14:11:35	548336	611d7da2640a2e31818c3e18	545221737	1	main_z	11	advance_on_keypress_ZEE	114	stimuli_target_trianglecircles.svg	stimuli_distractor_diamondtriangles.svg	21	yes	57	0	306
6.6.1	win	2022-12-20	14:02:25	14:11:37	549962	611d7da2640a2e31818c3e18	545221737	1	main_z	11	main_z	115	stimuli_distractor_diamondtriangles.svg	stimuli_target_circletriangles.svg	13	yes	44	1	679
6.6.1	win	2022-12-20	14:02:25	14:11:37	549962	611d7da2640a2e31818c3e18	545221737	1	main_z	11	advance_on_keypress_ZEE	116	stimuli_distractor_diamondtriangles.svg	stimuli_target_circletriangles.svg	13	yes	57	0	318
6.6.1	win	2022-12-20	14:02:25	14:11:39	551740	611d7da2640a2e31818c3e18	545221737	1	main_z	11	main_z	117	stimuli_distractor_trianglediamonds.svg	stimuli_target_diamondsquares.svg	28	yes	44	1	810
6.6.1	win	2022-12-20	14:02:25	14:11:39	551740	611d7da2640a2e31818c3e18	545221737	1	main_z	11	advance_on_keypress_ZEE	118	stimuli_distractor_trianglediamonds.svg	stimuli_target_diamondsquares.svg	28	yes	57	0	278
6.6.1	win	2022-12-20	14:02:25	14:11:42	554666	611d7da2640a2e31818c3e18	545221737	1	main_z	11	main_z	119	stimuli_target_squaretriangles.svg	stimuli_distractor_diamondtriangles.svg	7	yes	0	0	2000
6.6.1	win	2022-12-20	14:02:25	14:11:42	554666	611d7da2640a2e31818c3e18	545221737	1	main_z	11	advance_on_keypress_ZEE	120	stimuli_target_squaretriangles.svg	stimuli_distractor_diamondtriangles.svg	7	yes	57	0	412
6.6.1	win	2022-12-20	14:02:25	14:11:43	556449	611d7da2640a2e31818c3e18	545221737	1	main_z	11	main_z	121	stimuli_distractor_diamondtriangles.svg	stimuli_target_squarediamonds.svg	16	yes	44	1	723
6.6.1	win	2022-12-20	14:02:25	14:11:43	556449	611d7da2640a2e31818c3e18	545221737	1	main_z	11	advance_on_keypress_ZEE	122	stimuli_distractor_diamondtriangles.svg	stimuli_target_squarediamonds.svg	16	yes	57	0	254
6.6.1	win	2022-12-20	14:02:25	14:11:45	558038	611d7da2640a2e31818c3e18	545221737	1	main_z	11	main_z	123	stimuli_distractor_diamondtriangles.svg	stimuli_target_circlediamonds.svg	14	yes	44	1	696
6.6.1	win	2022-12-20	14:02:25	14:11:45	558038	611d7da2640a2e31818c3e18	545221737	1	main_z	11	advance_on_keypress_ZEE	124	stimuli_distractor_diamondtriangles.svg	stimuli_target_circlediamonds.svg	14	yes	57	0	273
6.6.1	win	2022-12-20	14:02:25	14:11:47	559841	611d7da2640a2e31818c3e18	545221737	1	main_z	11	main_z	125	stimuli_distractor_trianglediamonds.svg	stimuli_target_circlediamonds.svg	10	yes	44	1	884
6.6.1	win	2022-12-20	14:02:25	14:11:47	559841	611d7da2640a2e31818c3e18	545221737	1	main_z	11	advance_on_keypress_ZEE	126	stimuli_distractor_trianglediamonds.svg	stimuli_target_circlediamonds.svg	10	yes	57	0	236
6.6.1	win	2022-12-20	14:02:25	14:11:50	562724	611d7da2640a2e31818c3e18	545221737	1	main_z	11	main_z	127	stimuli_target_squarediamonds.svg	stimuli_distractor_diamondtriangles.svg	8	yes	0	0	2000
6.6.1	win	2022-12-20	14:02:25	14:11:50	562724	611d7da2640a2e31818c3e18	545221737	1	main_z	11	advance_on_keypress_ZEE	128	stimuli_target_squarediamonds.svg	stimuli_distractor_diamondtriangles.svg	8	yes	57	0	1340
6.6.1	win	2022-12-20	14:02:25	14:11:52	565527	611d7da2640a2e31818c3e18	545221737	1	main_z	11	main_z	129	stimuli_distractor_trianglediamonds.svg	stimuli_target_squaretriangles.svg	11	yes	44	1	824
6.6.1	win	2022-12-20	14:02:25	14:11:52	565527	611d7da2640a2e31818c3e18	545221737	1	main_z	11	advance_on_keypress_ZEE	130	stimuli_distractor_trianglediamonds.svg	stimuli_target_squaretriangles.svg	11	yes	57	0	316
6.6.1	win	2022-12-20	14:02:25	14:11:54	567486	611d7da2640a2e31818c3e18	545221737	1	main_z	11	main_z	131	stimuli_distractor_diamondtriangles.svg	stimuli_distractor_diamondtriangles.svg	39	no	44	0	1002
6.6.1	win	2022-12-20	14:02:25	14:11:54	567486	611d7da2640a2e31818c3e18	545221737	1	main_z	11	advance_on_keypress_ZEE	132	stimuli_distractor_diamondtriangles.svg	stimuli_distractor_diamondtriangles.svg	39	no	57	0	267
6.6.1	win	2022-12-20	14:02:25	14:11:56	569054	611d7da2640a2e31818c3e18	545221737	1	main_z	11	main_z	133	stimuli_target_diamondcircles.svg	stimuli_distractor_trianglediamonds.svg	19	yes	44	1	655
6.6.1	win	2022-12-20	14:02:25	14:11:56	569054	611d7da2640a2e31818c3e18	545221737	1	main_z	11	advance_on_keypress_ZEE	134	stimuli_target_diamondcircles.svg	stimuli_distractor_trianglediamonds.svg	19	yes	57	0	306
6.6.1	win	2022-12-20	14:02:25	14:11:58	571138	611d7da2640a2e31818c3e18	545221737	1	main_z	11	main_z	135	stimuli_distractor_trianglediamonds.svg	stimuli_target_circletriangles.svg	9	yes	44	1	1140
6.6.1	win	2022-12-20	14:02:25	14:11:58	571138	611d7da2640a2e31818c3e18	545221737	1	main_z	11	advance_on_keypress_ZEE	136	stimuli_distractor_trianglediamonds.svg	stimuli_target_circletriangles.svg	9	yes	57	0	255
6.6.1	win	2022-12-20	14:02:25	14:12:00	572743	611d7da2640a2e31818c3e18	545221737	1	main_z	11	main_z	137	stimuli_target_circlediamonds.svg	stimuli_distractor_trianglediamonds.svg	2	yes	44	1	713
6.6.1	win	2022-12-20	14:02:25	14:12:00	572743	611d7da2640a2e31818c3e18	545221737	1	main_z	11	advance_on_keypress_ZEE	138	stimuli_target_circlediamonds.svg	stimuli_distractor_trianglediamonds.svg	2	yes	57	0	317
6.6.1	win	2022-12-20	14:02:25	14:12:01	574539	611d7da2640a2e31818c3e18	545221737	1	main_z	11	main_z	139	stimuli_target_trianglesquares.svg	stimuli_distractor_diamondtriangles.svg	22	yes	44	1	826
6.6.1	win	2022-12-20	14:02:25	14:12:01	574539	611d7da2640a2e31818c3e18	545221737	1	main_z	11	advance_on_keypress_ZEE	140	stimuli_target_trianglesquares.svg	stimuli_distractor_diamondtriangles.svg	22	yes	57	0	289
6.6.1	win	2022-12-20	14:02:25	14:12:03	576368	611d7da2640a2e31818c3e18	545221737	1	main_z	11	main_z	141	stimuli_distractor_trianglediamonds.svg	stimuli_target_squarediamonds.svg	12	yes	44	1	908
6.6.1	win	2022-12-20	14:02:25	14:12:03	576368	611d7da2640a2e31818c3e18	545221737	1	main_z	11	advance_on_keypress_ZEE	142	stimuli_distractor_trianglediamonds.svg	stimuli_target_squarediamonds.svg	12	yes	57	0	260
6.6.1	win	2022-12-20	14:02:25	14:12:06	578698	611d7da2640a2e31818c3e18	545221737	1	main_z	11	main_z	143	stimuli_distractor_diamondtriangles.svg	stimuli_target_trianglesquares.svg	30	yes	44	1	1434
6.6.1	win	2022-12-20	14:02:25	14:12:06	578698	611d7da2640a2e31818c3e18	545221737	1	main_z	11	advance_on_keypress_ZEE	144	stimuli_distractor_diamondtriangles.svg	stimuli_target_trianglesquares.svg	30	yes	57	0	218
6.6.1	win	2022-12-20	14:02:25	14:12:08	581557	611d7da2640a2e31818c3e18	545221737	1	main_z	11	main_z	145	stimuli_distractor_diamondtriangles.svg	stimuli_target_squaretriangles.svg	15	yes	0	0	2000
6.6.1	win	2022-12-20	14:02:25	14:12:08	581557	611d7da2640a2e31818c3e18	545221737	1	main_z	11	advance_on_keypress_ZEE	146	stimuli_distractor_diamondtriangles.svg	stimuli_target_squaretriangles.svg	15	yes	57	0	258
6.6.1	win	2022-12-20	14:02:25	14:12:10	583051	611d7da2640a2e31818c3e18	545221737	1	main_z	11	main_z	147	stimuli_target_circlediamonds.svg	stimuli_distractor_diamondtriangles.svg	6	yes	44	1	597
6.6.1	win	2022-12-20	14:02:25	14:12:10	583051	611d7da2640a2e31818c3e18	545221737	1	main_z	11	advance_on_keypress_ZEE	148	stimuli_target_circlediamonds.svg	stimuli_distractor_diamondtriangles.svg	6	yes	57	0	256
6.6.1	win	2022-12-20	14:02:25	14:12:13	585954	611d7da2640a2e31818c3e18	545221737	1	main_z	11	main_z	149	stimuli_distractor_trianglediamonds.svg	stimuli_distractor_trianglediamonds.svg	33	no	0	1	2000
6.6.1	win	2022-12-20	14:02:25	14:12:13	585954	611d7da2640a2e31818c3e18	545221737	1	main_z	11	advance_on_keypress_ZEE	150	stimuli_distractor_trianglediamonds.svg	stimuli_distractor_trianglediamonds.svg	33	no	57	0	105
6.6.1	win	2022-12-20	14:02:25	14:12:14	587370	611d7da2640a2e31818c3e18	545221737	1	main_z	11	main_z	151	stimuli_target_trianglecircles.svg	stimuli_distractor_trianglediamonds.svg	17	yes	44	1	669
6.6.1	win	2022-12-20	14:02:25	14:12:14	587370	611d7da2640a2e31818c3e18	545221737	1	main_z	11	advance_on_keypress_ZEE	152	stimuli_target_trianglecircles.svg	stimuli_distractor_trianglediamonds.svg	17	yes	57	0	256
6.6.1	win	2022-12-20	14:02:25	14:12:16	589117	611d7da2640a2e31818c3e18	545221737	1	main_z	11	main_z	153	stimuli_target_squarediamonds.svg	stimuli_distractor_trianglediamonds.svg	4	yes	44	1	850
6.6.1	win	2022-12-20	14:02:25	14:12:16	589117	611d7da2640a2e31818c3e18	545221737	1	main_z	11	advance_on_keypress_ZEE	154	stimuli_target_squarediamonds.svg	stimuli_distractor_trianglediamonds.svg	4	yes	57	0	248
6.6.1	win	2022-12-20	14:02:25	14:12:18	590846	611d7da2640a2e31818c3e18	545221737	1	main_z	11	main_z	155	stimuli_target_trianglesquares.svg	stimuli_distractor_trianglediamonds.svg	18	yes	44	1	831
6.6.1	win	2022-12-20	14:02:25	14:12:18	590846	611d7da2640a2e31818c3e18	545221737	1	main_z	11	advance_on_keypress_ZEE	156	stimuli_target_trianglesquares.svg	stimuli_distractor_trianglediamonds.svg	18	yes	57	0	220
6.6.1	win	2022-12-20	14:02:25	14:12:19	592552	611d7da2640a2e31818c3e18	545221737	1	main_z	11	main_z	157	stimuli_distractor_diamondtriangles.svg	stimuli_target_trianglecircles.svg	29	yes	44	1	838
6.6.1	win	2022-12-20	14:02:25	14:12:19	592552	611d7da2640a2e31818c3e18	545221737	1	main_z	11	advance_on_keypress_ZEE	158	stimuli_distractor_diamondtriangles.svg	stimuli_target_trianglecircles.svg	29	yes	57	0	257
6.6.1	win	2022-12-20	14:02:25	14:12:21	594184	611d7da2640a2e31818c3e18	545221737	1	main_z	11	main_z	159	stimuli_distractor_trianglediamonds.svg	stimuli_target_trianglecircles.svg	25	yes	44	1	739
6.6.1	win	2022-12-20	14:02:25	14:12:21	594184	611d7da2640a2e31818c3e18	545221737	1	main_z	11	advance_on_keypress_ZEE	160	stimuli_distractor_trianglediamonds.svg	stimuli_target_trianglecircles.svg	25	yes	57	0	339