build	computer.platform	date	time	timestamp	time_elapsed_ms	subject	group	session	blockcode	blocknum	trialcode	trialnum	stimulus_left	stimulus_right	stim_index	target_present	response	correct	latency
6.6.1	and	2022-12-23	13:04:42	13:07:30	154631	6121be9a77c602b1d877d7f0	310666377	1	practice_slash	5	practice_slash	1	stimuli_distractor_diamondtriangles.svg	stimuli_target_circletriangles.svg	7	yes	0	0	2000
6.6.1	and	2022-12-23	13:04:42	13:07:30	154631	6121be9a77c602b1d877d7f0	310666377	1	practice_slash	5	advance_on_keypress_SLASH	2	stimuli_distractor_diamondtriangles.svg	stimuli_target_circletriangles.svg	7	yes	57	0	2576
6.6.1	and	2022-12-23	13:04:42	13:07:34	159226	6121be9a77c602b1d877d7f0	310666377	1	practice_slash	5	practice_slash	3	stimuli_distractor_diamondtriangles.svg	stimuli_distractor_diamondtriangles.svg	13	no	53	0	364
6.6.1	and	2022-12-23	13:04:42	13:07:34	159226	6121be9a77c602b1d877d7f0	310666377	1	practice_slash	5	advance_on_keypress_SLASH	4	stimuli_distractor_diamondtriangles.svg	stimuli_distractor_diamondtriangles.svg	13	no	57	0	636
6.6.1	and	2022-12-23	13:04:42	13:07:37	162281	6121be9a77c602b1d877d7f0	310666377	1	practice_slash	5	practice_slash	5	stimuli_distractor_trianglediamonds.svg	stimuli_target_circlediamonds.svg	10	yes	53	1	756
6.6.1	and	2022-12-23	13:04:42	13:07:37	162281	6121be9a77c602b1d877d7f0	310666377	1	practice_slash	5	advance_on_keypress_SLASH	6	stimuli_distractor_trianglediamonds.svg	stimuli_target_circlediamonds.svg	10	yes	57	0	1441
6.6.1	and	2022-12-23	13:04:42	13:07:41	165755	6121be9a77c602b1d877d7f0	310666377	1	practice_slash	5	practice_slash	7	stimuli_distractor_trianglediamonds.svg	stimuli_target_diamondcircles.svg	12	yes	53	1	364
6.6.1	and	2022-12-23	13:04:42	13:07:41	165755	6121be9a77c602b1d877d7f0	310666377	1	practice_slash	5	advance_on_keypress_SLASH	8	stimuli_distractor_trianglediamonds.svg	stimuli_target_diamondcircles.svg	12	yes	57	0	799
6.6.1	and	2022-12-23	13:04:42	13:07:44	168593	6121be9a77c602b1d877d7f0	310666377	1	practice_slash	5	practice_slash	9	stimuli_distractor_trianglediamonds.svg	stimuli_distractor_trianglediamonds.svg	15	no	53	0	398
6.6.1	and	2022-12-23	13:04:42	13:07:44	168593	6121be9a77c602b1d877d7f0	310666377	1	practice_slash	5	advance_on_keypress_SLASH	10	stimuli_distractor_trianglediamonds.svg	stimuli_distractor_trianglediamonds.svg	15	no	57	0	492
6.6.1	and	2022-12-23	13:04:42	13:07:47	171405	6121be9a77c602b1d877d7f0	310666377	1	practice_slash	5	practice_slash	11	stimuli_target_diamondsquares.svg	stimuli_distractor_trianglediamonds.svg	6	yes	53	1	677
6.6.1	and	2022-12-23	13:04:42	13:07:47	171405	6121be9a77c602b1d877d7f0	310666377	1	practice_slash	5	advance_on_keypress_SLASH	12	stimuli_target_diamondsquares.svg	stimuli_distractor_trianglediamonds.svg	6	yes	57	0	582
6.6.1	and	2022-12-23	13:04:42	13:07:49	174177	6121be9a77c602b1d877d7f0	310666377	1	practice_slash	5	practice_slash	13	stimuli_distractor_trianglediamonds.svg	stimuli_target_squarediamonds.svg	11	yes	53	1	540
6.6.1	and	2022-12-23	13:04:42	13:07:49	174177	6121be9a77c602b1d877d7f0	310666377	1	practice_slash	5	advance_on_keypress_SLASH	14	stimuli_distractor_trianglediamonds.svg	stimuli_target_squarediamonds.svg	11	yes	57	0	607
6.6.1	and	2022-12-23	13:04:42	13:07:52	176955	6121be9a77c602b1d877d7f0	310666377	1	practice_slash	5	practice_slash	15	stimuli_target_diamondsquares.svg	stimuli_distractor_diamondtriangles.svg	3	yes	53	1	515
6.6.1	and	2022-12-23	13:04:42	13:07:52	176955	6121be9a77c602b1d877d7f0	310666377	1	practice_slash	5	advance_on_keypress_SLASH	16	stimuli_target_diamondsquares.svg	stimuli_distractor_diamondtriangles.svg	3	yes	57	0	868
6.6.1	and	2022-12-23	13:04:42	13:07:55	180188	6121be9a77c602b1d877d7f0	310666377	1	practice_slash	5	practice_slash	17	stimuli_distractor_diamondtriangles.svg	stimuli_target_diamondcircles.svg	8	yes	53	1	736
6.6.1	and	2022-12-23	13:04:42	13:07:55	180188	6121be9a77c602b1d877d7f0	310666377	1	practice_slash	5	advance_on_keypress_SLASH	18	stimuli_distractor_diamondtriangles.svg	stimuli_target_diamondcircles.svg	8	yes	57	0	633
6.6.1	and	2022-12-23	13:04:42	13:07:58	182943	6121be9a77c602b1d877d7f0	310666377	1	practice_slash	5	practice_slash	19	stimuli_target_squarediamonds.svg	stimuli_distractor_diamondtriangles.svg	2	yes	53	1	492
6.6.1	and	2022-12-23	13:04:42	13:07:58	182943	6121be9a77c602b1d877d7f0	310666377	1	practice_slash	5	advance_on_keypress_SLASH	20	stimuli_target_squarediamonds.svg	stimuli_distractor_diamondtriangles.svg	2	yes	57	0	573
6.6.1	and	2022-12-23	13:04:42	13:08:01	185739	6121be9a77c602b1d877d7f0	310666377	1	practice_slash	5	practice_slash	21	stimuli_distractor_diamondtriangles.svg	stimuli_distractor_trianglediamonds.svg	14	no	53	0	572
6.6.1	and	2022-12-23	13:04:42	13:08:01	185739	6121be9a77c602b1d877d7f0	310666377	1	practice_slash	5	advance_on_keypress_SLASH	22	stimuli_distractor_diamondtriangles.svg	stimuli_distractor_trianglediamonds.svg	14	no	57	0	434
6.6.1	and	2022-12-23	13:04:42	13:08:03	188254	6121be9a77c602b1d877d7f0	310666377	1	practice_slash	5	practice_slash	23	stimuli_distractor_trianglediamonds.svg	stimuli_distractor_diamondtriangles.svg	16	no	53	0	451
6.6.1	and	2022-12-23	13:04:42	13:08:03	188254	6121be9a77c602b1d877d7f0	310666377	1	practice_slash	5	advance_on_keypress_SLASH	24	stimuli_distractor_trianglediamonds.svg	stimuli_distractor_diamondtriangles.svg	16	no	57	0	453
6.6.1	and	2022-12-23	13:04:42	13:08:06	190730	6121be9a77c602b1d877d7f0	310666377	1	practice_slash	5	practice_slash	25	stimuli_target_circlediamonds.svg	stimuli_distractor_trianglediamonds.svg	4	yes	53	1	390
6.6.1	and	2022-12-23	13:04:42	13:08:06	190730	6121be9a77c602b1d877d7f0	310666377	1	practice_slash	5	advance_on_keypress_SLASH	26	stimuli_target_circlediamonds.svg	stimuli_distractor_trianglediamonds.svg	4	yes	57	0	984
6.6.1	and	2022-12-23	13:04:42	13:08:09	193882	6121be9a77c602b1d877d7f0	310666377	1	practice_slash	5	practice_slash	27	stimuli_target_circlediamonds.svg	stimuli_distractor_diamondtriangles.svg	1	yes	53	1	536
6.6.1	and	2022-12-23	13:04:42	13:08:09	193882	6121be9a77c602b1d877d7f0	310666377	1	practice_slash	5	advance_on_keypress_SLASH	28	stimuli_target_circlediamonds.svg	stimuli_distractor_diamondtriangles.svg	1	yes	57	0	567
6.6.1	and	2022-12-23	13:04:42	13:08:13	198079	6121be9a77c602b1d877d7f0	310666377	1	practice_slash	5	practice_slash	29	stimuli_target_squarediamonds.svg	stimuli_distractor_trianglediamonds.svg	5	yes	0	0	2000
6.6.1	and	2022-12-23	13:04:42	13:08:13	198079	6121be9a77c602b1d877d7f0	310666377	1	practice_slash	5	advance_on_keypress_SLASH	30	stimuli_target_squarediamonds.svg	stimuli_distractor_trianglediamonds.svg	5	yes	57	0	542
6.6.1	and	2022-12-23	13:04:42	13:08:16	201133	6121be9a77c602b1d877d7f0	310666377	1	practice_slash	5	practice_slash	31	stimuli_distractor_diamondtriangles.svg	stimuli_target_trianglecircles.svg	9	yes	53	1	854
6.6.1	and	2022-12-23	13:04:42	13:08:16	201133	6121be9a77c602b1d877d7f0	310666377	1	practice_slash	5	advance_on_keypress_SLASH	32	stimuli_distractor_diamondtriangles.svg	stimuli_target_trianglecircles.svg	9	yes	57	0	1458
6.6.1	and	2022-12-23	13:04:42	13:08:56	240956	6121be9a77c602b1d877d7f0	310666377	1	main_slash	7	main_slash	1	stimuli_distractor_trianglediamonds.svg	stimuli_target_diamondsquares.svg	28	yes	53	1	1959
6.6.1	and	2022-12-23	13:04:42	13:08:56	240956	6121be9a77c602b1d877d7f0	310666377	1	main_slash	7	advance_on_keypress_SLASH	2	stimuli_distractor_trianglediamonds.svg	stimuli_target_diamondsquares.svg	28	yes	57	0	2473
6.6.1	and	2022-12-23	13:04:42	13:09:00	244870	6121be9a77c602b1d877d7f0	310666377	1	main_slash	7	main_slash	3	stimuli_distractor_trianglediamonds.svg	stimuli_target_circletriangles.svg	9	yes	53	1	792
6.6.1	and	2022-12-23	13:04:42	13:09:00	244870	6121be9a77c602b1d877d7f0	310666377	1	main_slash	7	advance_on_keypress_SLASH	4	stimuli_distractor_trianglediamonds.svg	stimuli_target_circletriangles.svg	9	yes	57	0	1186
6.6.1	and	2022-12-23	13:04:42	13:09:04	248695	6121be9a77c602b1d877d7f0	310666377	1	main_slash	7	main_slash	5	stimuli_distractor_trianglediamonds.svg	stimuli_target_diamondcircles.svg	27	yes	0	0	2000
6.6.1	and	2022-12-23	13:04:42	13:09:04	248695	6121be9a77c602b1d877d7f0	310666377	1	main_slash	7	advance_on_keypress_SLASH	6	stimuli_distractor_trianglediamonds.svg	stimuli_target_diamondcircles.svg	27	yes	57	0	788
6.6.1	and	2022-12-23	13:04:42	13:09:06	250861	6121be9a77c602b1d877d7f0	310666377	1	main_slash	7	main_slash	7	stimuli_target_circletriangles.svg	stimuli_distractor_diamondtriangles.svg	5	yes	53	1	751
6.6.1	and	2022-12-23	13:04:42	13:09:06	250861	6121be9a77c602b1d877d7f0	310666377	1	main_slash	7	advance_on_keypress_SLASH	8	stimuli_target_circletriangles.svg	stimuli_distractor_diamondtriangles.svg	5	yes	57	0	1094
6.6.1	and	2022-12-23	13:04:42	13:09:09	253617	6121be9a77c602b1d877d7f0	310666377	1	main_slash	7	main_slash	9	stimuli_distractor_diamondtriangles.svg	stimuli_distractor_trianglediamonds.svg	38	no	53	0	1024
6.6.1	and	2022-12-23	13:04:42	13:09:09	253617	6121be9a77c602b1d877d7f0	310666377	1	main_slash	7	advance_on_keypress_SLASH	10	stimuli_distractor_diamondtriangles.svg	stimuli_distractor_trianglediamonds.svg	38	no	57	0	1416
6.6.1	and	2022-12-23	13:04:42	13:09:12	256657	6121be9a77c602b1d877d7f0	310666377	1	main_slash	7	main_slash	11	stimuli_target_squarediamonds.svg	stimuli_distractor_trianglediamonds.svg	4	yes	53	1	980
6.6.1	and	2022-12-23	13:04:42	13:09:12	256657	6121be9a77c602b1d877d7f0	310666377	1	main_slash	7	advance_on_keypress_SLASH	12	stimuli_target_squarediamonds.svg	stimuli_distractor_trianglediamonds.svg	4	yes	57	0	458
6.6.1	and	2022-12-23	13:04:42	13:09:15	259641	6121be9a77c602b1d877d7f0	310666377	1	main_slash	7	main_slash	13	stimuli_distractor_trianglediamonds.svg	stimuli_distractor_diamondtriangles.svg	35	no	53	0	1881
6.6.1	and	2022-12-23	13:04:42	13:09:15	259641	6121be9a77c602b1d877d7f0	310666377	1	main_slash	7	advance_on_keypress_SLASH	14	stimuli_distractor_trianglediamonds.svg	stimuli_distractor_diamondtriangles.svg	35	no	57	0	569
6.6.1	and	2022-12-23	13:04:42	13:09:17	262135	6121be9a77c602b1d877d7f0	310666377	1	main_slash	7	main_slash	15	stimuli_target_squaretriangles.svg	stimuli_distractor_diamondtriangles.svg	7	yes	53	1	1279
6.6.1	and	2022-12-23	13:04:42	13:09:17	262135	6121be9a77c602b1d877d7f0	310666377	1	main_slash	7	advance_on_keypress_SLASH	16	stimuli_target_squaretriangles.svg	stimuli_distractor_diamondtriangles.svg	7	yes	57	0	1054
6.6.1	and	2022-12-23	13:04:42	13:09:21	265841	6121be9a77c602b1d877d7f0	310666377	1	main_slash	7	main_slash	17	stimuli_distractor_trianglediamonds.svg	stimuli_distractor_trianglediamonds.svg	34	no	0	1	2000
6.6.1	and	2022-12-23	13:04:42	13:09:21	265841	6121be9a77c602b1d877d7f0	310666377	1	main_slash	7	advance_on_keypress_SLASH	18	stimuli_distractor_trianglediamonds.svg	stimuli_distractor_trianglediamonds.svg	34	no	57	0	858
6.6.1	and	2022-12-23	13:04:42	13:09:24	268541	6121be9a77c602b1d877d7f0	310666377	1	main_slash	7	main_slash	19	stimuli_distractor_diamondtriangles.svg	stimuli_target_trianglesquares.svg	30	yes	53	1	1221
6.6.1	and	2022-12-23	13:04:42	13:09:24	268541	6121be9a77c602b1d877d7f0	310666377	1	main_slash	7	advance_on_keypress_SLASH	20	stimuli_distractor_diamondtriangles.svg	stimuli_target_trianglesquares.svg	30	yes	57	0	546
6.6.1	and	2022-12-23	13:04:42	13:09:26	270737	6121be9a77c602b1d877d7f0	310666377	1	main_slash	7	main_slash	21	stimuli_distractor_diamondtriangles.svg	stimuli_target_circletriangles.svg	13	yes	53	1	1017
6.6.1	and	2022-12-23	13:04:42	13:09:26	270737	6121be9a77c602b1d877d7f0	310666377	1	main_slash	7	advance_on_keypress_SLASH	22	stimuli_distractor_diamondtriangles.svg	stimuli_target_circletriangles.svg	13	yes	57	0	1646
6.6.1	and	2022-12-23	13:04:42	13:09:30	275019	6121be9a77c602b1d877d7f0	310666377	1	main_slash	7	main_slash	23	stimuli_distractor_trianglediamonds.svg	stimuli_distractor_trianglediamonds.svg	33	no	0	1	2000
6.6.1	and	2022-12-23	13:04:42	13:09:30	275019	6121be9a77c602b1d877d7f0	310666377	1	main_slash	7	advance_on_keypress_SLASH	24	stimuli_distractor_trianglediamonds.svg	stimuli_distractor_trianglediamonds.svg	33	no	57	0	1453
6.6.1	and	2022-12-23	13:04:42	13:09:34	278490	6121be9a77c602b1d877d7f0	310666377	1	main_slash	7	main_slash	25	stimuli_target_diamondcircles.svg	stimuli_distractor_diamondtriangles.svg	23	yes	53	1	1391
6.6.1	and	2022-12-23	13:04:42	13:09:34	278490	6121be9a77c602b1d877d7f0	310666377	1	main_slash	7	advance_on_keypress_SLASH	26	stimuli_target_diamondcircles.svg	stimuli_distractor_diamondtriangles.svg	23	yes	57	0	1059
6.6.1	and	2022-12-23	13:04:42	13:09:36	281100	6121be9a77c602b1d877d7f0	310666377	1	main_slash	7	main_slash	27	stimuli_distractor_trianglediamonds.svg	stimuli_target_squaretriangles.svg	11	yes	53	1	914
6.6.1	and	2022-12-23	13:04:42	13:09:36	281100	6121be9a77c602b1d877d7f0	310666377	1	main_slash	7	advance_on_keypress_SLASH	28	stimuli_distractor_trianglediamonds.svg	stimuli_target_squaretriangles.svg	11	yes	57	0	494
6.6.1	and	2022-12-23	13:04:42	13:09:38	283112	6121be9a77c602b1d877d7f0	310666377	1	main_slash	7	main_slash	29	stimuli_distractor_trianglediamonds.svg	stimuli_distractor_diamondtriangles.svg	36	no	53	0	880
6.6.1	and	2022-12-23	13:04:42	13:09:38	283112	6121be9a77c602b1d877d7f0	310666377	1	main_slash	7	advance_on_keypress_SLASH	30	stimuli_distractor_trianglediamonds.svg	stimuli_distractor_diamondtriangles.svg	36	no	57	0	779
6.6.1	and	2022-12-23	13:04:42	13:09:41	286334	6121be9a77c602b1d877d7f0	310666377	1	main_slash	7	main_slash	31	stimuli_target_squarediamonds.svg	stimuli_distractor_diamondtriangles.svg	8	yes	53	1	1801
6.6.1	and	2022-12-23	13:04:42	13:09:41	286334	6121be9a77c602b1d877d7f0	310666377	1	main_slash	7	advance_on_keypress_SLASH	32	stimuli_target_squarediamonds.svg	stimuli_distractor_diamondtriangles.svg	8	yes	57	0	744
6.6.1	and	2022-12-23	13:04:42	13:09:45	289715	6121be9a77c602b1d877d7f0	310666377	1	main_slash	7	main_slash	33	stimuli_distractor_diamondtriangles.svg	stimuli_target_trianglecircles.svg	29	yes	0	0	2000
6.6.1	and	2022-12-23	13:04:42	13:09:45	289715	6121be9a77c602b1d877d7f0	310666377	1	main_slash	7	advance_on_keypress_SLASH	34	stimuli_distractor_diamondtriangles.svg	stimuli_target_trianglecircles.svg	29	yes	57	0	1285
6.6.1	and	2022-12-23	13:04:42	13:09:47	292368	6121be9a77c602b1d877d7f0	310666377	1	main_slash	7	main_slash	35	stimuli_distractor_diamondtriangles.svg	stimuli_target_squaretriangles.svg	15	yes	53	1	738
6.6.1	and	2022-12-23	13:04:42	13:09:47	292368	6121be9a77c602b1d877d7f0	310666377	1	main_slash	7	advance_on_keypress_SLASH	36	stimuli_distractor_diamondtriangles.svg	stimuli_target_squaretriangles.svg	15	yes	57	0	608
6.6.1	and	2022-12-23	13:04:42	13:09:50	295056	6121be9a77c602b1d877d7f0	310666377	1	main_slash	7	main_slash	37	stimuli_target_diamondcircles.svg	stimuli_distractor_trianglediamonds.svg	19	yes	53	1	1461
6.6.1	and	2022-12-23	13:04:42	13:09:50	295056	6121be9a77c602b1d877d7f0	310666377	1	main_slash	7	advance_on_keypress_SLASH	38	stimuli_target_diamondcircles.svg	stimuli_distractor_trianglediamonds.svg	19	yes	57	0	552
6.6.1	and	2022-12-23	13:04:42	13:09:52	296913	6121be9a77c602b1d877d7f0	310666377	1	main_slash	7	main_slash	39	stimuli_target_circletriangles.svg	stimuli_distractor_trianglediamonds.svg	1	yes	53	1	669
6.6.1	and	2022-12-23	13:04:42	13:09:52	296913	6121be9a77c602b1d877d7f0	310666377	1	main_slash	7	advance_on_keypress_SLASH	40	stimuli_target_circletriangles.svg	stimuli_distractor_trianglediamonds.svg	1	yes	57	0	1019
6.6.1	and	2022-12-23	13:04:42	13:09:56	300560	6121be9a77c602b1d877d7f0	310666377	1	main_slash	7	main_slash	41	stimuli_target_trianglesquares.svg	stimuli_distractor_diamondtriangles.svg	22	yes	0	0	2000
6.6.1	and	2022-12-23	13:04:42	13:09:56	300560	6121be9a77c602b1d877d7f0	310666377	1	main_slash	7	advance_on_keypress_SLASH	42	stimuli_target_trianglesquares.svg	stimuli_distractor_diamondtriangles.svg	22	yes	57	0	386
6.6.1	and	2022-12-23	13:04:42	13:09:58	302625	6121be9a77c602b1d877d7f0	310666377	1	main_slash	7	main_slash	43	stimuli_distractor_diamondtriangles.svg	stimuli_distractor_diamondtriangles.svg	40	no	53	0	1049
6.6.1	and	2022-12-23	13:04:42	13:09:58	302625	6121be9a77c602b1d877d7f0	310666377	1	main_slash	7	advance_on_keypress_SLASH	44	stimuli_distractor_diamondtriangles.svg	stimuli_distractor_diamondtriangles.svg	40	no	57	0	597
6.6.1	and	2022-12-23	13:04:42	13:10:01	305859	6121be9a77c602b1d877d7f0	310666377	1	main_slash	7	main_slash	45	stimuli_distractor_diamondtriangles.svg	stimuli_distractor_diamondtriangles.svg	39	no	0	1	2000
6.6.1	and	2022-12-23	13:04:42	13:10:01	305859	6121be9a77c602b1d877d7f0	310666377	1	main_slash	7	advance_on_keypress_SLASH	46	stimuli_distractor_diamondtriangles.svg	stimuli_distractor_diamondtriangles.svg	39	no	57	0	593
6.6.1	and	2022-12-23	13:04:42	13:10:03	307967	6121be9a77c602b1d877d7f0	310666377	1	main_slash	7	main_slash	47	stimuli_target_diamondsquares.svg	stimuli_distractor_diamondtriangles.svg	24	yes	53	1	875
6.6.1	and	2022-12-23	13:04:42	13:10:03	307967	6121be9a77c602b1d877d7f0	310666377	1	main_slash	7	advance_on_keypress_SLASH	48	stimuli_target_diamondsquares.svg	stimuli_distractor_diamondtriangles.svg	24	yes	57	0	850
6.6.1	and	2022-12-23	13:04:42	13:10:07	311458	6121be9a77c602b1d877d7f0	310666377	1	main_slash	7	main_slash	49	stimuli_distractor_trianglediamonds.svg	stimuli_target_circlediamonds.svg	10	yes	0	0	2000
6.6.1	and	2022-12-23	13:04:42	13:10:07	311458	6121be9a77c602b1d877d7f0	310666377	1	main_slash	7	advance_on_keypress_SLASH	50	stimuli_distractor_trianglediamonds.svg	stimuli_target_circlediamonds.svg	10	yes	57	0	958
6.6.1	and	2022-12-23	13:04:42	13:10:09	313695	6121be9a77c602b1d877d7f0	310666377	1	main_slash	7	main_slash	51	stimuli_target_circlediamonds.svg	stimuli_distractor_trianglediamonds.svg	2	yes	53	1	640
6.6.1	and	2022-12-23	13:04:42	13:10:09	313695	6121be9a77c602b1d877d7f0	310666377	1	main_slash	7	advance_on_keypress_SLASH	52	stimuli_target_circlediamonds.svg	stimuli_distractor_trianglediamonds.svg	2	yes	57	0	916
6.6.1	and	2022-12-23	13:04:42	13:10:12	317240	6121be9a77c602b1d877d7f0	310666377	1	main_slash	7	main_slash	53	stimuli_distractor_trianglediamonds.svg	stimuli_target_trianglesquares.svg	26	yes	0	0	2000
6.6.1	and	2022-12-23	13:04:42	13:10:12	317240	6121be9a77c602b1d877d7f0	310666377	1	main_slash	7	advance_on_keypress_SLASH	54	stimuli_distractor_trianglediamonds.svg	stimuli_target_trianglesquares.svg	26	yes	57	0	648
6.6.1	and	2022-12-23	13:04:42	13:10:14	319126	6121be9a77c602b1d877d7f0	310666377	1	main_slash	7	main_slash	55	stimuli_distractor_diamondtriangles.svg	stimuli_target_circlediamonds.svg	14	yes	53	1	606
6.6.1	and	2022-12-23	13:04:42	13:10:14	319126	6121be9a77c602b1d877d7f0	310666377	1	main_slash	7	advance_on_keypress_SLASH	56	stimuli_distractor_diamondtriangles.svg	stimuli_target_circlediamonds.svg	14	yes	57	0	730
6.6.1	and	2022-12-23	13:04:42	13:10:16	321261	6121be9a77c602b1d877d7f0	310666377	1	main_slash	7	main_slash	57	stimuli_target_trianglecircles.svg	stimuli_distractor_diamondtriangles.svg	21	yes	53	1	773
6.6.1	and	2022-12-23	13:04:42	13:10:16	321261	6121be9a77c602b1d877d7f0	310666377	1	main_slash	7	advance_on_keypress_SLASH	58	stimuli_target_trianglecircles.svg	stimuli_distractor_diamondtriangles.svg	21	yes	57	0	652
6.6.1	and	2022-12-23	13:04:42	13:10:20	324553	6121be9a77c602b1d877d7f0	310666377	1	main_slash	7	main_slash	59	stimuli_distractor_trianglediamonds.svg	stimuli_target_squarediamonds.svg	12	yes	0	0	2000
6.6.1	and	2022-12-23	13:04:42	13:10:20	324553	6121be9a77c602b1d877d7f0	310666377	1	main_slash	7	advance_on_keypress_SLASH	60	stimuli_distractor_trianglediamonds.svg	stimuli_target_squarediamonds.svg	12	yes	57	0	871
6.6.1	and	2022-12-23	13:04:42	13:10:22	326568	6121be9a77c602b1d877d7f0	310666377	1	main_slash	7	main_slash	61	stimuli_distractor_diamondtriangles.svg	stimuli_target_diamondsquares.svg	32	yes	53	1	519
6.6.1	and	2022-12-23	13:04:42	13:10:22	326568	6121be9a77c602b1d877d7f0	310666377	1	main_slash	7	advance_on_keypress_SLASH	62	stimuli_distractor_diamondtriangles.svg	stimuli_target_diamondsquares.svg	32	yes	57	0	6061
6.6.1	and	2022-12-23	13:04:42	13:10:29	334062	6121be9a77c602b1d877d7f0	310666377	1	main_slash	7	main_slash	63	stimuli_target_trianglesquares.svg	stimuli_distractor_trianglediamonds.svg	18	yes	53	1	777
6.6.1	and	2022-12-23	13:04:42	13:10:29	334062	6121be9a77c602b1d877d7f0	310666377	1	main_slash	7	advance_on_keypress_SLASH	64	stimuli_target_trianglesquares.svg	stimuli_distractor_trianglediamonds.svg	18	yes	57	0	967
6.6.1	and	2022-12-23	13:04:42	13:10:33	337666	6121be9a77c602b1d877d7f0	310666377	1	main_slash	7	main_slash	65	stimuli_target_squaretriangles.svg	stimuli_distractor_trianglediamonds.svg	3	yes	0	0	2000
6.6.1	and	2022-12-23	13:04:42	13:10:33	337666	6121be9a77c602b1d877d7f0	310666377	1	main_slash	7	advance_on_keypress_SLASH	66	stimuli_target_squaretriangles.svg	stimuli_distractor_trianglediamonds.svg	3	yes	57	0	545
6.6.1	and	2022-12-23	13:04:42	13:10:35	339445	6121be9a77c602b1d877d7f0	310666377	1	main_slash	7	main_slash	67	stimuli_target_trianglecircles.svg	stimuli_distractor_trianglediamonds.svg	17	yes	53	1	598
6.6.1	and	2022-12-23	13:04:42	13:10:35	339445	6121be9a77c602b1d877d7f0	310666377	1	main_slash	7	advance_on_keypress_SLASH	68	stimuli_target_trianglecircles.svg	stimuli_distractor_trianglediamonds.svg	17	yes	57	0	1836
6.6.1	and	2022-12-23	13:04:42	13:10:38	342700	6121be9a77c602b1d877d7f0	310666377	1	main_slash	7	main_slash	69	stimuli_target_diamondsquares.svg	stimuli_distractor_trianglediamonds.svg	20	yes	53	1	787
6.6.1	and	2022-12-23	13:04:42	13:10:38	342700	6121be9a77c602b1d877d7f0	310666377	1	main_slash	7	advance_on_keypress_SLASH	70	stimuli_target_diamondsquares.svg	stimuli_distractor_trianglediamonds.svg	20	yes	57	0	594
6.6.1	and	2022-12-23	13:04:42	13:10:41	345930	6121be9a77c602b1d877d7f0	310666377	1	main_slash	7	main_slash	71	stimuli_distractor_diamondtriangles.svg	stimuli_target_squarediamonds.svg	16	yes	0	0	2000
6.6.1	and	2022-12-23	13:04:42	13:10:41	345930	6121be9a77c602b1d877d7f0	310666377	1	main_slash	7	advance_on_keypress_SLASH	72	stimuli_distractor_diamondtriangles.svg	stimuli_target_squarediamonds.svg	16	yes	57	0	667
6.6.1	and	2022-12-23	13:04:42	13:10:43	347854	6121be9a77c602b1d877d7f0	310666377	1	main_slash	7	main_slash	73	stimuli_distractor_diamondtriangles.svg	stimuli_distractor_trianglediamonds.svg	37	no	53	0	623
6.6.1	and	2022-12-23	13:04:42	13:10:43	347854	6121be9a77c602b1d877d7f0	310666377	1	main_slash	7	advance_on_keypress_SLASH	74	stimuli_distractor_diamondtriangles.svg	stimuli_distractor_trianglediamonds.svg	37	no	57	0	1779
6.6.1	and	2022-12-23	13:04:42	13:10:46	351164	6121be9a77c602b1d877d7f0	310666377	1	main_slash	7	main_slash	75	stimuli_distractor_trianglediamonds.svg	stimuli_target_trianglecircles.svg	25	yes	53	1	887
6.6.1	and	2022-12-23	13:04:42	13:10:46	351164	6121be9a77c602b1d877d7f0	310666377	1	main_slash	7	advance_on_keypress_SLASH	76	stimuli_distractor_trianglediamonds.svg	stimuli_target_trianglecircles.svg	25	yes	57	0	2403
6.6.1	and	2022-12-23	13:04:42	13:10:50	354686	6121be9a77c602b1d877d7f0	310666377	1	main_slash	7	main_slash	77	stimuli_distractor_diamondtriangles.svg	stimuli_target_diamondcircles.svg	31	yes	53	1	492
6.6.1	and	2022-12-23	13:04:42	13:10:50	354686	6121be9a77c602b1d877d7f0	310666377	1	main_slash	7	advance_on_keypress_SLASH	78	stimuli_distractor_diamondtriangles.svg	stimuli_target_diamondcircles.svg	31	yes	57	0	711
6.6.1	and	2022-12-23	13:04:42	13:10:53	358042	6121be9a77c602b1d877d7f0	310666377	1	main_slash	7	main_slash	79	stimuli_target_circlediamonds.svg	stimuli_distractor_diamondtriangles.svg	6	yes	0	0	2000
6.6.1	and	2022-12-23	13:04:42	13:10:53	358042	6121be9a77c602b1d877d7f0	310666377	1	main_slash	7	advance_on_keypress_SLASH	80	stimuli_target_circlediamonds.svg	stimuli_distractor_diamondtriangles.svg	6	yes	57	0	716
6.6.1	and	2022-12-23	13:04:42	13:10:57	361389	6121be9a77c602b1d877d7f0	310666377	1	main_slash	7	main_slash	81	stimuli_distractor_diamondtriangles.svg	stimuli_target_squarediamonds.svg	16	yes	0	0	2000
6.6.1	and	2022-12-23	13:04:42	13:10:57	361389	6121be9a77c602b1d877d7f0	310666377	1	main_slash	7	advance_on_keypress_SLASH	82	stimuli_distractor_diamondtriangles.svg	stimuli_target_squarediamonds.svg	16	yes	57	0	524
6.6.1	and	2022-12-23	13:04:42	13:11:00	364558	6121be9a77c602b1d877d7f0	310666377	1	main_slash	7	main_slash	83	stimuli_distractor_trianglediamonds.svg	stimuli_distractor_trianglediamonds.svg	34	no	0	1	2000
6.6.1	and	2022-12-23	13:04:42	13:11:00	364558	6121be9a77c602b1d877d7f0	310666377	1	main_slash	7	advance_on_keypress_SLASH	84	stimuli_distractor_trianglediamonds.svg	stimuli_distractor_trianglediamonds.svg	34	no	57	0	460
6.6.1	and	2022-12-23	13:04:42	13:11:01	366243	6121be9a77c602b1d877d7f0	310666377	1	main_slash	7	main_slash	85	stimuli_distractor_trianglediamonds.svg	stimuli_target_squarediamonds.svg	12	yes	53	1	586
6.6.1	and	2022-12-23	13:04:42	13:11:01	366243	6121be9a77c602b1d877d7f0	310666377	1	main_slash	7	advance_on_keypress_SLASH	86	stimuli_distractor_trianglediamonds.svg	stimuli_target_squarediamonds.svg	12	yes	57	0	884
6.6.1	and	2022-12-23	13:04:42	13:11:05	369716	6121be9a77c602b1d877d7f0	310666377	1	main_slash	7	main_slash	87	stimuli_distractor_diamondtriangles.svg	stimuli_distractor_trianglediamonds.svg	37	no	53	0	1961
6.6.1	and	2022-12-23	13:04:42	13:11:05	369716	6121be9a77c602b1d877d7f0	310666377	1	main_slash	7	advance_on_keypress_SLASH	88	stimuli_distractor_diamondtriangles.svg	stimuli_distractor_trianglediamonds.svg	37	no	57	0	655
6.6.1	and	2022-12-23	13:04:42	13:11:07	372177	6121be9a77c602b1d877d7f0	310666377	1	main_slash	7	main_slash	89	stimuli_distractor_trianglediamonds.svg	stimuli_target_diamondsquares.svg	28	yes	53	1	1175
6.6.1	and	2022-12-23	13:04:42	13:11:07	372177	6121be9a77c602b1d877d7f0	310666377	1	main_slash	7	advance_on_keypress_SLASH	90	stimuli_distractor_trianglediamonds.svg	stimuli_target_diamondsquares.svg	28	yes	57	0	636
6.6.1	and	2022-12-23	13:04:42	13:11:09	374022	6121be9a77c602b1d877d7f0	310666377	1	main_slash	7	main_slash	91	stimuli_target_diamondcircles.svg	stimuli_distractor_trianglediamonds.svg	19	yes	53	1	571
6.6.1	and	2022-12-23	13:04:42	13:11:09	374022	6121be9a77c602b1d877d7f0	310666377	1	main_slash	7	advance_on_keypress_SLASH	92	stimuli_target_diamondcircles.svg	stimuli_distractor_trianglediamonds.svg	19	yes	57	0	625
6.6.1	and	2022-12-23	13:04:42	13:11:12	377267	6121be9a77c602b1d877d7f0	310666377	1	main_slash	7	main_slash	93	stimuli_distractor_trianglediamonds.svg	stimuli_target_circletriangles.svg	9	yes	0	0	2000
6.6.1	and	2022-12-23	13:04:42	13:11:12	377267	6121be9a77c602b1d877d7f0	310666377	1	main_slash	7	advance_on_keypress_SLASH	94	stimuli_distractor_trianglediamonds.svg	stimuli_target_circletriangles.svg	9	yes	57	0	1467
6.6.1	and	2022-12-23	13:04:42	13:11:16	381367	6121be9a77c602b1d877d7f0	310666377	1	main_slash	7	main_slash	95	stimuli_distractor_trianglediamonds.svg	stimuli_distractor_trianglediamonds.svg	33	no	0	1	2000
6.6.1	and	2022-12-23	13:04:42	13:11:16	381367	6121be9a77c602b1d877d7f0	310666377	1	main_slash	7	advance_on_keypress_SLASH	96	stimuli_distractor_trianglediamonds.svg	stimuli_distractor_trianglediamonds.svg	33	no	57	0	564
6.6.1	and	2022-12-23	13:04:42	13:11:18	383310	6121be9a77c602b1d877d7f0	310666377	1	main_slash	7	main_slash	97	stimuli_distractor_trianglediamonds.svg	stimuli_target_diamondcircles.svg	27	yes	53	1	744
6.6.1	and	2022-12-23	13:04:42	13:11:18	383310	6121be9a77c602b1d877d7f0	310666377	1	main_slash	7	advance_on_keypress_SLASH	98	stimuli_distractor_trianglediamonds.svg	stimuli_target_diamondcircles.svg	27	yes	57	0	1187
6.6.1	and	2022-12-23	13:04:42	13:11:21	385862	6121be9a77c602b1d877d7f0	310666377	1	main_slash	7	main_slash	99	stimuli_target_circlediamonds.svg	stimuli_distractor_diamondtriangles.svg	6	yes	53	1	732
6.6.1	and	2022-12-23	13:04:42	13:11:21	385862	6121be9a77c602b1d877d7f0	310666377	1	main_slash	7	advance_on_keypress_SLASH	100	stimuli_target_circlediamonds.svg	stimuli_distractor_diamondtriangles.svg	6	yes	57	0	640
6.6.1	and	2022-12-23	13:04:42	13:11:24	389132	6121be9a77c602b1d877d7f0	310666377	1	main_slash	7	main_slash	101	stimuli_distractor_diamondtriangles.svg	stimuli_target_squaretriangles.svg	15	yes	0	0	2000
6.6.1	and	2022-12-23	13:04:42	13:11:24	389132	6121be9a77c602b1d877d7f0	310666377	1	main_slash	7	advance_on_keypress_SLASH	102	stimuli_distractor_diamondtriangles.svg	stimuli_target_squaretriangles.svg	15	yes	57	0	434
6.6.1	and	2022-12-23	13:04:42	13:11:26	391072	6121be9a77c602b1d877d7f0	310666377	1	main_slash	7	main_slash	103	stimuli_distractor_trianglediamonds.svg	stimuli_target_squaretriangles.svg	11	yes	53	1	878
6.6.1	and	2022-12-23	13:04:42	13:11:26	391072	6121be9a77c602b1d877d7f0	310666377	1	main_slash	7	advance_on_keypress_SLASH	104	stimuli_distractor_trianglediamonds.svg	stimuli_target_squaretriangles.svg	11	yes	57	0	566
6.6.1	and	2022-12-23	13:04:42	13:11:29	394281	6121be9a77c602b1d877d7f0	310666377	1	main_slash	7	main_slash	105	stimuli_distractor_diamondtriangles.svg	stimuli_distractor_trianglediamonds.svg	38	no	0	1	2000
6.6.1	and	2022-12-23	13:04:42	13:11:29	394281	6121be9a77c602b1d877d7f0	310666377	1	main_slash	7	advance_on_keypress_SLASH	106	stimuli_distractor_diamondtriangles.svg	stimuli_distractor_trianglediamonds.svg	38	no	57	0	550
6.6.1	and	2022-12-23	13:04:42	13:11:31	395996	6121be9a77c602b1d877d7f0	310666377	1	main_slash	7	main_slash	107	stimuli_target_trianglecircles.svg	stimuli_distractor_diamondtriangles.svg	21	yes	53	1	531
6.6.1	and	2022-12-23	13:04:42	13:11:31	395996	6121be9a77c602b1d877d7f0	310666377	1	main_slash	7	advance_on_keypress_SLASH	108	stimuli_target_trianglecircles.svg	stimuli_distractor_diamondtriangles.svg	21	yes	57	0	1416
6.6.1	and	2022-12-23	13:04:42	13:11:34	398900	6121be9a77c602b1d877d7f0	310666377	1	main_slash	7	main_slash	109	stimuli_target_diamondsquares.svg	stimuli_distractor_trianglediamonds.svg	20	yes	53	1	856
6.6.1	and	2022-12-23	13:04:42	13:11:34	398900	6121be9a77c602b1d877d7f0	310666377	1	main_slash	7	advance_on_keypress_SLASH	110	stimuli_target_diamondsquares.svg	stimuli_distractor_trianglediamonds.svg	20	yes	57	0	4766
6.6.1	and	2022-12-23	13:04:42	13:11:40	404847	6121be9a77c602b1d877d7f0	310666377	1	main_slash	7	main_slash	111	stimuli_target_circlediamonds.svg	stimuli_distractor_trianglediamonds.svg	2	yes	53	1	537
6.6.1	and	2022-12-23	13:04:42	13:11:40	404847	6121be9a77c602b1d877d7f0	310666377	1	main_slash	7	advance_on_keypress_SLASH	112	stimuli_target_circlediamonds.svg	stimuli_distractor_trianglediamonds.svg	2	yes	57	0	1664
6.6.1	and	2022-12-23	13:04:42	13:11:43	408129	6121be9a77c602b1d877d7f0	310666377	1	main_slash	7	main_slash	113	stimuli_distractor_diamondtriangles.svg	stimuli_target_circletriangles.svg	13	yes	53	1	969
6.6.1	and	2022-12-23	13:04:42	13:11:43	408129	6121be9a77c602b1d877d7f0	310666377	1	main_slash	7	advance_on_keypress_SLASH	114	stimuli_distractor_diamondtriangles.svg	stimuli_target_circletriangles.svg	13	yes	57	0	550
6.6.1	and	2022-12-23	13:04:42	13:11:46	411307	6121be9a77c602b1d877d7f0	310666377	1	main_slash	7	main_slash	115	stimuli_target_circletriangles.svg	stimuli_distractor_trianglediamonds.svg	1	yes	0	0	2000
6.6.1	and	2022-12-23	13:04:42	13:11:46	411307	6121be9a77c602b1d877d7f0	310666377	1	main_slash	7	advance_on_keypress_SLASH	116	stimuli_target_circletriangles.svg	stimuli_distractor_trianglediamonds.svg	1	yes	57	0	515
6.6.1	and	2022-12-23	13:04:42	13:11:48	413117	6121be9a77c602b1d877d7f0	310666377	1	main_slash	7	main_slash	117	stimuli_target_diamondsquares.svg	stimuli_distractor_diamondtriangles.svg	24	yes	53	1	659
6.6.1	and	2022-12-23	13:04:42	13:11:48	413117	6121be9a77c602b1d877d7f0	310666377	1	main_slash	7	advance_on_keypress_SLASH	118	stimuli_target_diamondsquares.svg	stimuli_distractor_diamondtriangles.svg	24	yes	57	0	1755
6.6.1	and	2022-12-23	13:04:42	13:11:51	416111	6121be9a77c602b1d877d7f0	310666377	1	main_slash	7	main_slash	119	stimuli_distractor_trianglediamonds.svg	stimuli_target_trianglesquares.svg	26	yes	53	1	607
6.6.1	and	2022-12-23	13:04:42	13:11:51	416111	6121be9a77c602b1d877d7f0	310666377	1	main_slash	7	advance_on_keypress_SLASH	120	stimuli_distractor_trianglediamonds.svg	stimuli_target_trianglesquares.svg	26	yes	57	0	765
6.6.1	and	2022-12-23	13:04:42	13:11:53	418083	6121be9a77c602b1d877d7f0	310666377	1	main_slash	7	main_slash	121	stimuli_distractor_trianglediamonds.svg	stimuli_target_trianglecircles.svg	25	yes	53	1	559
6.6.1	and	2022-12-23	13:04:42	13:11:53	418083	6121be9a77c602b1d877d7f0	310666377	1	main_slash	7	advance_on_keypress_SLASH	122	stimuli_distractor_trianglediamonds.svg	stimuli_target_trianglecircles.svg	25	yes	57	0	580
6.6.1	and	2022-12-23	13:04:42	13:11:56	421252	6121be9a77c602b1d877d7f0	310666377	1	main_slash	7	main_slash	123	stimuli_target_squaretriangles.svg	stimuli_distractor_diamondtriangles.svg	7	yes	53	1	1950
6.6.1	and	2022-12-23	13:04:42	13:11:56	421252	6121be9a77c602b1d877d7f0	310666377	1	main_slash	7	advance_on_keypress_SLASH	124	stimuli_target_squaretriangles.svg	stimuli_distractor_diamondtriangles.svg	7	yes	57	0	624
6.6.1	and	2022-12-23	13:04:42	13:12:00	424501	6121be9a77c602b1d877d7f0	310666377	1	main_slash	7	main_slash	125	stimuli_distractor_diamondtriangles.svg	stimuli_distractor_diamondtriangles.svg	39	no	0	1	2000
6.6.1	and	2022-12-23	13:04:42	13:12:00	424501	6121be9a77c602b1d877d7f0	310666377	1	main_slash	7	advance_on_keypress_SLASH	126	stimuli_distractor_diamondtriangles.svg	stimuli_distractor_diamondtriangles.svg	39	no	57	0	816
6.6.1	and	2022-12-23	13:04:42	13:12:02	426540	6121be9a77c602b1d877d7f0	310666377	1	main_slash	7	main_slash	127	stimuli_target_squarediamonds.svg	stimuli_distractor_diamondtriangles.svg	8	yes	53	1	588
6.6.1	and	2022-12-23	13:04:42	13:12:02	426540	6121be9a77c602b1d877d7f0	310666377	1	main_slash	7	advance_on_keypress_SLASH	128	stimuli_target_squarediamonds.svg	stimuli_distractor_diamondtriangles.svg	8	yes	57	0	701
6.6.1	and	2022-12-23	13:04:42	13:12:04	428454	6121be9a77c602b1d877d7f0	310666377	1	main_slash	7	main_slash	129	stimuli_target_squarediamonds.svg	stimuli_distractor_trianglediamonds.svg	4	yes	53	1	586
6.6.1	and	2022-12-23	13:04:42	13:12:04	428454	6121be9a77c602b1d877d7f0	310666377	1	main_slash	7	advance_on_keypress_SLASH	130	stimuli_target_squarediamonds.svg	stimuli_distractor_trianglediamonds.svg	4	yes	57	0	896
6.6.1	and	2022-12-23	13:04:42	13:12:06	430675	6121be9a77c602b1d877d7f0	310666377	1	main_slash	7	main_slash	131	stimuli_target_diamondcircles.svg	stimuli_distractor_diamondtriangles.svg	23	yes	53	1	693
6.6.1	and	2022-12-23	13:04:42	13:12:06	430675	6121be9a77c602b1d877d7f0	310666377	1	main_slash	7	advance_on_keypress_SLASH	132	stimuli_target_diamondcircles.svg	stimuli_distractor_diamondtriangles.svg	23	yes	57	0	527
6.6.1	and	2022-12-23	13:04:42	13:12:07	432347	6121be9a77c602b1d877d7f0	310666377	1	main_slash	7	main_slash	133	stimuli_distractor_diamondtriangles.svg	stimuli_target_diamondcircles.svg	31	yes	53	1	499
6.6.1	and	2022-12-23	13:04:42	13:12:07	432347	6121be9a77c602b1d877d7f0	310666377	1	main_slash	7	advance_on_keypress_SLASH	134	stimuli_distractor_diamondtriangles.svg	stimuli_target_diamondcircles.svg	31	yes	57	0	634
6.6.1	and	2022-12-23	13:04:42	13:12:09	434103	6121be9a77c602b1d877d7f0	310666377	1	main_slash	7	main_slash	135	stimuli_target_trianglecircles.svg	stimuli_distractor_trianglediamonds.svg	17	yes	53	1	469
6.6.1	and	2022-12-23	13:04:42	13:12:09	434103	6121be9a77c602b1d877d7f0	310666377	1	main_slash	7	advance_on_keypress_SLASH	136	stimuli_target_trianglecircles.svg	stimuli_distractor_trianglediamonds.svg	17	yes	57	0	508
6.6.1	and	2022-12-23	13:04:42	13:12:11	435557	6121be9a77c602b1d877d7f0	310666377	1	main_slash	7	main_slash	137	stimuli_distractor_diamondtriangles.svg	stimuli_target_trianglecircles.svg	29	yes	53	1	327
6.6.1	and	2022-12-23	13:04:42	13:12:11	435557	6121be9a77c602b1d877d7f0	310666377	1	main_slash	7	advance_on_keypress_SLASH	138	stimuli_distractor_diamondtriangles.svg	stimuli_target_trianglecircles.svg	29	yes	57	0	615
6.6.1	and	2022-12-23	13:04:42	13:12:13	437646	6121be9a77c602b1d877d7f0	310666377	1	main_slash	7	main_slash	139	stimuli_target_trianglesquares.svg	stimuli_distractor_trianglediamonds.svg	18	yes	53	1	832
6.6.1	and	2022-12-23	13:04:42	13:12:13	437646	6121be9a77c602b1d877d7f0	310666377	1	main_slash	7	advance_on_keypress_SLASH	140	stimuli_target_trianglesquares.svg	stimuli_distractor_trianglediamonds.svg	18	yes	57	0	332
6.6.1	and	2022-12-23	13:04:42	13:12:14	439033	6121be9a77c602b1d877d7f0	310666377	1	main_slash	7	main_slash	141	stimuli_distractor_diamondtriangles.svg	stimuli_target_trianglesquares.svg	30	yes	53	1	420
6.6.1	and	2022-12-23	13:04:42	13:12:14	439033	6121be9a77c602b1d877d7f0	310666377	1	main_slash	7	advance_on_keypress_SLASH	142	stimuli_distractor_diamondtriangles.svg	stimuli_target_trianglesquares.svg	30	yes	57	0	388
6.6.1	and	2022-12-23	13:04:42	13:12:16	440377	6121be9a77c602b1d877d7f0	310666377	1	main_slash	7	main_slash	143	stimuli_target_trianglesquares.svg	stimuli_distractor_diamondtriangles.svg	22	yes	53	1	332
6.6.1	and	2022-12-23	13:04:42	13:12:16	440377	6121be9a77c602b1d877d7f0	310666377	1	main_slash	7	advance_on_keypress_SLASH	144	stimuli_target_trianglesquares.svg	stimuli_distractor_diamondtriangles.svg	22	yes	57	0	487
6.6.1	and	2022-12-23	13:04:42	13:12:17	441868	6121be9a77c602b1d877d7f0	310666377	1	main_slash	7	main_slash	145	stimuli_target_squaretriangles.svg	stimuli_distractor_trianglediamonds.svg	3	yes	53	1	374
6.6.1	and	2022-12-23	13:04:42	13:12:17	441868	6121be9a77c602b1d877d7f0	310666377	1	main_slash	7	advance_on_keypress_SLASH	146	stimuli_target_squaretriangles.svg	stimuli_distractor_trianglediamonds.svg	3	yes	57	0	469
6.6.1	and	2022-12-23	13:04:42	13:12:18	443368	6121be9a77c602b1d877d7f0	310666377	1	main_slash	7	main_slash	147	stimuli_target_circletriangles.svg	stimuli_distractor_diamondtriangles.svg	5	yes	53	1	373
6.6.1	and	2022-12-23	13:04:42	13:12:18	443368	6121be9a77c602b1d877d7f0	310666377	1	main_slash	7	advance_on_keypress_SLASH	148	stimuli_target_circletriangles.svg	stimuli_distractor_diamondtriangles.svg	5	yes	57	0	1968
6.6.1	and	2022-12-23	13:04:42	13:12:23	447997	6121be9a77c602b1d877d7f0	310666377	1	main_slash	7	main_slash	149	stimuli_distractor_diamondtriangles.svg	stimuli_distractor_diamondtriangles.svg	40	no	0	1	2000
6.6.1	and	2022-12-23	13:04:42	13:12:23	447997	6121be9a77c602b1d877d7f0	310666377	1	main_slash	7	advance_on_keypress_SLASH	150	stimuli_distractor_diamondtriangles.svg	stimuli_distractor_diamondtriangles.svg	40	no	57	0	768
6.6.1	and	2022-12-23	13:04:42	13:12:25	449816	6121be9a77c602b1d877d7f0	310666377	1	main_slash	7	main_slash	151	stimuli_distractor_trianglediamonds.svg	stimuli_target_circlediamonds.svg	10	yes	53	1	421
6.6.1	and	2022-12-23	13:04:42	13:12:25	449816	6121be9a77c602b1d877d7f0	310666377	1	main_slash	7	advance_on_keypress_SLASH	152	stimuli_distractor_trianglediamonds.svg	stimuli_target_circlediamonds.svg	10	yes	57	0	486
6.6.1	and	2022-12-23	13:04:42	13:12:27	452029	6121be9a77c602b1d877d7f0	310666377	1	main_slash	7	main_slash	153	stimuli_distractor_diamondtriangles.svg	stimuli_target_diamondsquares.svg	32	yes	53	1	1088
6.6.1	and	2022-12-23	13:04:42	13:12:27	452029	6121be9a77c602b1d877d7f0	310666377	1	main_slash	7	advance_on_keypress_SLASH	154	stimuli_distractor_diamondtriangles.svg	stimuli_target_diamondsquares.svg	32	yes	57	0	385
6.6.1	and	2022-12-23	13:04:42	13:12:29	453812	6121be9a77c602b1d877d7f0	310666377	1	main_slash	7	main_slash	155	stimuli_distractor_diamondtriangles.svg	stimuli_target_circlediamonds.svg	14	yes	53	1	770
6.6.1	and	2022-12-23	13:04:42	13:12:29	453812	6121be9a77c602b1d877d7f0	310666377	1	main_slash	7	advance_on_keypress_SLASH	156	stimuli_distractor_diamondtriangles.svg	stimuli_target_circlediamonds.svg	14	yes	57	0	501
6.6.1	and	2022-12-23	13:04:42	13:12:31	456261	6121be9a77c602b1d877d7f0	310666377	1	main_slash	7	main_slash	157	stimuli_distractor_trianglediamonds.svg	stimuli_distractor_diamondtriangles.svg	35	no	53	0	1322
6.6.1	and	2022-12-23	13:04:42	13:12:31	456261	6121be9a77c602b1d877d7f0	310666377	1	main_slash	7	advance_on_keypress_SLASH	158	stimuli_distractor_trianglediamonds.svg	stimuli_distractor_diamondtriangles.svg	35	no	57	0	435
6.6.1	and	2022-12-23	13:04:42	13:12:34	459327	6121be9a77c602b1d877d7f0	310666377	1	main_slash	7	main_slash	159	stimuli_distractor_trianglediamonds.svg	stimuli_distractor_diamondtriangles.svg	36	no	0	1	2000
6.6.1	and	2022-12-23	13:04:42	13:12:34	459327	6121be9a77c602b1d877d7f0	310666377	1	main_slash	7	advance_on_keypress_SLASH	160	stimuli_distractor_trianglediamonds.svg	stimuli_distractor_diamondtriangles.svg	36	no	57	0	29
6.6.1	and	2022-12-23	13:04:42	13:12:52	477045	6121be9a77c602b1d877d7f0	310666377	1	practice_z	9	practice_z	1	stimuli_target_squarediamonds.svg	stimuli_distractor_trianglediamonds.svg	5	yes	44	1	421
6.6.1	and	2022-12-23	13:04:42	13:12:52	477045	6121be9a77c602b1d877d7f0	310666377	1	practice_z	9	advance_on_keypress_ZEE	2	stimuli_target_squarediamonds.svg	stimuli_distractor_trianglediamonds.svg	5	yes	57	0	531
6.6.1	and	2022-12-23	13:04:42	13:12:56	481219	6121be9a77c602b1d877d7f0	310666377	1	practice_z	9	practice_z	3	stimuli_distractor_trianglediamonds.svg	stimuli_distractor_trianglediamonds.svg	15	no	0	1	2000
6.6.1	and	2022-12-23	13:04:42	13:12:56	481219	6121be9a77c602b1d877d7f0	310666377	1	practice_z	9	advance_on_keypress_ZEE	4	stimuli_distractor_trianglediamonds.svg	stimuli_distractor_trianglediamonds.svg	15	no	57	0	808
6.6.1	and	2022-12-23	13:04:42	13:12:59	484045	6121be9a77c602b1d877d7f0	310666377	1	practice_z	9	practice_z	5	stimuli_distractor_diamondtriangles.svg	stimuli_target_diamondcircles.svg	8	yes	44	1	375
6.6.1	and	2022-12-23	13:04:42	13:12:59	484045	6121be9a77c602b1d877d7f0	310666377	1	practice_z	9	advance_on_keypress_ZEE	6	stimuli_distractor_diamondtriangles.svg	stimuli_target_diamondcircles.svg	8	yes	57	0	739
6.6.1	and	2022-12-23	13:04:42	13:13:02	486896	6121be9a77c602b1d877d7f0	310666377	1	practice_z	9	practice_z	7	stimuli_distractor_diamondtriangles.svg	stimuli_target_trianglecircles.svg	9	yes	44	1	483
6.6.1	and	2022-12-23	13:04:42	13:13:02	486896	6121be9a77c602b1d877d7f0	310666377	1	practice_z	9	advance_on_keypress_ZEE	8	stimuli_distractor_diamondtriangles.svg	stimuli_target_trianglecircles.svg	9	yes	57	0	521
6.6.1	and	2022-12-23	13:04:42	13:13:05	489765	6121be9a77c602b1d877d7f0	310666377	1	practice_z	9	practice_z	9	stimuli_target_diamondsquares.svg	stimuli_distractor_diamondtriangles.svg	3	yes	44	1	699
6.6.1	and	2022-12-23	13:04:42	13:13:05	489765	6121be9a77c602b1d877d7f0	310666377	1	practice_z	9	advance_on_keypress_ZEE	10	stimuli_target_diamondsquares.svg	stimuli_distractor_diamondtriangles.svg	3	yes	57	0	588
6.6.1	and	2022-12-23	13:04:42	13:13:08	492380	6121be9a77c602b1d877d7f0	310666377	1	practice_z	9	practice_z	11	stimuli_target_circlediamonds.svg	stimuli_distractor_trianglediamonds.svg	4	yes	44	1	399
6.6.1	and	2022-12-23	13:04:42	13:13:08	492380	6121be9a77c602b1d877d7f0	310666377	1	practice_z	9	advance_on_keypress_ZEE	12	stimuli_target_circlediamonds.svg	stimuli_distractor_trianglediamonds.svg	4	yes	57	0	438
6.6.1	and	2022-12-23	13:04:42	13:13:10	495051	6121be9a77c602b1d877d7f0	310666377	1	practice_z	9	practice_z	13	stimuli_distractor_diamondtriangles.svg	stimuli_target_circletriangles.svg	7	yes	44	1	604
6.6.1	and	2022-12-23	13:04:42	13:13:10	495051	6121be9a77c602b1d877d7f0	310666377	1	practice_z	9	advance_on_keypress_ZEE	14	stimuli_distractor_diamondtriangles.svg	stimuli_target_circletriangles.svg	7	yes	57	0	423
6.6.1	and	2022-12-23	13:04:42	13:13:13	497571	6121be9a77c602b1d877d7f0	310666377	1	practice_z	9	practice_z	15	stimuli_distractor_trianglediamonds.svg	stimuli_target_diamondcircles.svg	12	yes	44	1	442
6.6.1	and	2022-12-23	13:04:42	13:13:13	497571	6121be9a77c602b1d877d7f0	310666377	1	practice_z	9	advance_on_keypress_ZEE	16	stimuli_distractor_trianglediamonds.svg	stimuli_target_diamondcircles.svg	12	yes	57	0	486
6.6.1	and	2022-12-23	13:04:42	13:13:15	500063	6121be9a77c602b1d877d7f0	310666377	1	practice_z	9	practice_z	17	stimuli_distractor_trianglediamonds.svg	stimuli_target_squarediamonds.svg	11	yes	44	1	369
6.6.1	and	2022-12-23	13:04:42	13:13:15	500063	6121be9a77c602b1d877d7f0	310666377	1	practice_z	9	advance_on_keypress_ZEE	18	stimuli_distractor_trianglediamonds.svg	stimuli_target_squarediamonds.svg	11	yes	57	0	503
6.6.1	and	2022-12-23	13:04:42	13:13:18	502592	6121be9a77c602b1d877d7f0	310666377	1	practice_z	9	practice_z	19	stimuli_target_diamondsquares.svg	stimuli_distractor_trianglediamonds.svg	6	yes	44	1	385
6.6.1	and	2022-12-23	13:04:42	13:13:18	502592	6121be9a77c602b1d877d7f0	310666377	1	practice_z	9	advance_on_keypress_ZEE	20	stimuli_target_diamondsquares.svg	stimuli_distractor_trianglediamonds.svg	6	yes	57	0	413
6.6.1	and	2022-12-23	13:04:42	13:13:20	505261	6121be9a77c602b1d877d7f0	310666377	1	practice_z	9	practice_z	21	stimuli_distractor_diamondtriangles.svg	stimuli_distractor_diamondtriangles.svg	13	no	44	0	615
6.6.1	and	2022-12-23	13:04:42	13:13:20	505261	6121be9a77c602b1d877d7f0	310666377	1	practice_z	9	advance_on_keypress_ZEE	22	stimuli_distractor_diamondtriangles.svg	stimuli_distractor_diamondtriangles.svg	13	no	57	0	285
6.6.1	and	2022-12-23	13:04:42	13:13:23	507593	6121be9a77c602b1d877d7f0	310666377	1	practice_z	9	practice_z	23	stimuli_target_squarediamonds.svg	stimuli_distractor_diamondtriangles.svg	2	yes	44	1	416
6.6.1	and	2022-12-23	13:04:42	13:13:23	507593	6121be9a77c602b1d877d7f0	310666377	1	practice_z	9	advance_on_keypress_ZEE	24	stimuli_target_squarediamonds.svg	stimuli_distractor_diamondtriangles.svg	2	yes	57	0	478
6.6.1	and	2022-12-23	13:04:42	13:13:27	511710	6121be9a77c602b1d877d7f0	310666377	1	practice_z	9	practice_z	25	stimuli_distractor_trianglediamonds.svg	stimuli_distractor_diamondtriangles.svg	16	no	0	1	2000
6.6.1	and	2022-12-23	13:04:42	13:13:27	511710	6121be9a77c602b1d877d7f0	310666377	1	practice_z	9	advance_on_keypress_ZEE	26	stimuli_distractor_trianglediamonds.svg	stimuli_distractor_diamondtriangles.svg	16	no	57	0	483
6.6.1	and	2022-12-23	13:04:42	13:13:29	514357	6121be9a77c602b1d877d7f0	310666377	1	practice_z	9	practice_z	27	stimuli_distractor_trianglediamonds.svg	stimuli_target_circlediamonds.svg	10	yes	44	1	533
6.6.1	and	2022-12-23	13:04:42	13:13:29	514357	6121be9a77c602b1d877d7f0	310666377	1	practice_z	9	advance_on_keypress_ZEE	28	stimuli_distractor_trianglediamonds.svg	stimuli_target_circlediamonds.svg	10	yes	57	0	624
6.6.1	and	2022-12-23	13:04:42	13:13:32	517360	6121be9a77c602b1d877d7f0	310666377	1	practice_z	9	practice_z	29	stimuli_target_circlediamonds.svg	stimuli_distractor_diamondtriangles.svg	1	yes	44	1	736
6.6.1	and	2022-12-23	13:04:42	13:13:32	517360	6121be9a77c602b1d877d7f0	310666377	1	practice_z	9	advance_on_keypress_ZEE	30	stimuli_target_circlediamonds.svg	stimuli_distractor_diamondtriangles.svg	1	yes	57	0	463
6.6.1	and	2022-12-23	13:04:42	13:13:37	521455	6121be9a77c602b1d877d7f0	310666377	1	practice_z	9	practice_z	31	stimuli_distractor_diamondtriangles.svg	stimuli_distractor_trianglediamonds.svg	14	no	0	1	2000
6.6.1	and	2022-12-23	13:04:42	13:13:37	521455	6121be9a77c602b1d877d7f0	310666377	1	practice_z	9	advance_on_keypress_ZEE	32	stimuli_distractor_diamondtriangles.svg	stimuli_distractor_trianglediamonds.svg	14	no	57	0	659
6.6.1	and	2022-12-23	13:04:42	13:13:47	531752	6121be9a77c602b1d877d7f0	310666377	1	main_z	11	main_z	1	stimuli_distractor_diamondtriangles.svg	stimuli_distractor_diamondtriangles.svg	39	no	0	1	2000
6.6.1	and	2022-12-23	13:04:42	13:13:47	531752	6121be9a77c602b1d877d7f0	310666377	1	main_z	11	advance_on_keypress_ZEE	2	stimuli_distractor_diamondtriangles.svg	stimuli_distractor_diamondtriangles.svg	39	no	57	0	482
6.6.1	and	2022-12-23	13:04:42	13:13:48	533308	6121be9a77c602b1d877d7f0	310666377	1	main_z	11	main_z	3	stimuli_distractor_diamondtriangles.svg	stimuli_target_circletriangles.svg	13	yes	44	1	444
6.6.1	and	2022-12-23	13:04:42	13:13:48	533308	6121be9a77c602b1d877d7f0	310666377	1	main_z	11	advance_on_keypress_ZEE	4	stimuli_distractor_diamondtriangles.svg	stimuli_target_circletriangles.svg	13	yes	57	0	1344
6.6.1	and	2022-12-23	13:04:42	13:13:51	535744	6121be9a77c602b1d877d7f0	310666377	1	main_z	11	main_z	5	stimuli_distractor_trianglediamonds.svg	stimuli_target_circletriangles.svg	9	yes	44	1	447
6.6.1	and	2022-12-23	13:04:42	13:13:51	535744	6121be9a77c602b1d877d7f0	310666377	1	main_z	11	advance_on_keypress_ZEE	6	stimuli_distractor_trianglediamonds.svg	stimuli_target_circletriangles.svg	9	yes	57	0	1335
6.6.1	and	2022-12-23	13:04:42	13:13:53	538249	6121be9a77c602b1d877d7f0	310666377	1	main_z	11	main_z	7	stimuli_target_trianglecircles.svg	stimuli_distractor_trianglediamonds.svg	17	yes	44	1	536
6.6.1	and	2022-12-23	13:04:42	13:13:53	538249	6121be9a77c602b1d877d7f0	310666377	1	main_z	11	advance_on_keypress_ZEE	8	stimuli_target_trianglecircles.svg	stimuli_distractor_trianglediamonds.svg	17	yes	57	0	1005
6.6.1	and	2022-12-23	13:04:42	13:13:56	540688	6121be9a77c602b1d877d7f0	310666377	1	main_z	11	main_z	9	stimuli_distractor_diamondtriangles.svg	stimuli_target_diamondcircles.svg	31	yes	44	1	793
6.6.1	and	2022-12-23	13:04:42	13:13:56	540688	6121be9a77c602b1d877d7f0	310666377	1	main_z	11	advance_on_keypress_ZEE	10	stimuli_distractor_diamondtriangles.svg	stimuli_target_diamondcircles.svg	31	yes	57	0	555
6.6.1	and	2022-12-23	13:04:42	13:13:58	542409	6121be9a77c602b1d877d7f0	310666377	1	main_z	11	main_z	11	stimuli_distractor_diamondtriangles.svg	stimuli_target_trianglesquares.svg	30	yes	44	1	529
6.6.1	and	2022-12-23	13:04:42	13:13:58	542409	6121be9a77c602b1d877d7f0	310666377	1	main_z	11	advance_on_keypress_ZEE	12	stimuli_distractor_diamondtriangles.svg	stimuli_target_trianglesquares.svg	30	yes	57	0	1096
6.6.1	and	2022-12-23	13:04:42	13:14:00	544542	6121be9a77c602b1d877d7f0	310666377	1	main_z	11	main_z	13	stimuli_distractor_trianglediamonds.svg	stimuli_target_trianglecircles.svg	25	yes	44	1	379
6.6.1	and	2022-12-23	13:04:42	13:14:00	544542	6121be9a77c602b1d877d7f0	310666377	1	main_z	11	advance_on_keypress_ZEE	14	stimuli_distractor_trianglediamonds.svg	stimuli_target_trianglecircles.svg	25	yes	57	0	708
6.6.1	and	2022-12-23	13:04:42	13:14:03	547898	6121be9a77c602b1d877d7f0	310666377	1	main_z	11	main_z	15	stimuli_distractor_diamondtriangles.svg	stimuli_target_squarediamonds.svg	16	yes	0	0	2000
6.6.1	and	2022-12-23	13:04:42	13:14:03	547898	6121be9a77c602b1d877d7f0	310666377	1	main_z	11	advance_on_keypress_ZEE	16	stimuli_distractor_diamondtriangles.svg	stimuli_target_squarediamonds.svg	16	yes	57	0	440
6.6.1	and	2022-12-23	13:04:42	13:14:04	549367	6121be9a77c602b1d877d7f0	310666377	1	main_z	11	main_z	17	stimuli_target_squaretriangles.svg	stimuli_distractor_diamondtriangles.svg	7	yes	44	1	409
6.6.1	and	2022-12-23	13:04:42	13:14:04	549367	6121be9a77c602b1d877d7f0	310666377	1	main_z	11	advance_on_keypress_ZEE	18	stimuli_target_squaretriangles.svg	stimuli_distractor_diamondtriangles.svg	7	yes	57	0	1221
6.6.1	and	2022-12-23	13:04:42	13:14:07	552119	6121be9a77c602b1d877d7f0	310666377	1	main_z	11	main_z	19	stimuli_distractor_diamondtriangles.svg	stimuli_target_diamondsquares.svg	32	yes	44	1	895
6.6.1	and	2022-12-23	13:04:42	13:14:07	552119	6121be9a77c602b1d877d7f0	310666377	1	main_z	11	advance_on_keypress_ZEE	20	stimuli_distractor_diamondtriangles.svg	stimuli_target_diamondsquares.svg	32	yes	57	0	433
6.6.1	and	2022-12-23	13:04:42	13:14:09	553706	6121be9a77c602b1d877d7f0	310666377	1	main_z	11	main_z	21	stimuli_distractor_trianglediamonds.svg	stimuli_target_diamondcircles.svg	27	yes	44	1	515
6.6.1	and	2022-12-23	13:04:42	13:14:09	553706	6121be9a77c602b1d877d7f0	310666377	1	main_z	11	advance_on_keypress_ZEE	22	stimuli_distractor_trianglediamonds.svg	stimuli_target_diamondcircles.svg	27	yes	57	0	527
6.6.1	and	2022-12-23	13:04:42	13:14:11	555557	6121be9a77c602b1d877d7f0	310666377	1	main_z	11	main_z	23	stimuli_target_trianglesquares.svg	stimuli_distractor_diamondtriangles.svg	22	yes	44	1	684
6.6.1	and	2022-12-23	13:04:42	13:14:11	555557	6121be9a77c602b1d877d7f0	310666377	1	main_z	11	advance_on_keypress_ZEE	24	stimuli_target_trianglesquares.svg	stimuli_distractor_diamondtriangles.svg	22	yes	57	0	554
6.6.1	and	2022-12-23	13:04:42	13:14:14	558741	6121be9a77c602b1d877d7f0	310666377	1	main_z	11	main_z	25	stimuli_distractor_diamondtriangles.svg	stimuli_target_squaretriangles.svg	15	yes	0	0	2000
6.6.1	and	2022-12-23	13:04:42	13:14:14	558741	6121be9a77c602b1d877d7f0	310666377	1	main_z	11	advance_on_keypress_ZEE	26	stimuli_distractor_diamondtriangles.svg	stimuli_target_squaretriangles.svg	15	yes	57	0	321
6.6.1	and	2022-12-23	13:04:42	13:14:15	560043	6121be9a77c602b1d877d7f0	310666377	1	main_z	11	main_z	27	stimuli_target_diamondsquares.svg	stimuli_distractor_trianglediamonds.svg	20	yes	44	1	353
6.6.1	and	2022-12-23	13:04:42	13:14:15	560043	6121be9a77c602b1d877d7f0	310666377	1	main_z	11	advance_on_keypress_ZEE	28	stimuli_target_diamondsquares.svg	stimuli_distractor_trianglediamonds.svg	20	yes	57	0	892
6.6.1	and	2022-12-23	13:04:42	13:14:17	561919	6121be9a77c602b1d877d7f0	310666377	1	main_z	11	main_z	29	stimuli_target_diamondcircles.svg	stimuli_distractor_diamondtriangles.svg	23	yes	44	1	347
6.6.1	and	2022-12-23	13:04:42	13:14:17	561919	6121be9a77c602b1d877d7f0	310666377	1	main_z	11	advance_on_keypress_ZEE	30	stimuli_target_diamondcircles.svg	stimuli_distractor_diamondtriangles.svg	23	yes	57	0	721
6.6.1	and	2022-12-23	13:04:42	13:14:19	563917	6121be9a77c602b1d877d7f0	310666377	1	main_z	11	main_z	31	stimuli_target_trianglesquares.svg	stimuli_distractor_trianglediamonds.svg	18	yes	44	1	648
6.6.1	and	2022-12-23	13:04:42	13:14:19	563917	6121be9a77c602b1d877d7f0	310666377	1	main_z	11	advance_on_keypress_ZEE	32	stimuli_target_trianglesquares.svg	stimuli_distractor_trianglediamonds.svg	18	yes	57	0	554
6.6.1	and	2022-12-23	13:04:42	13:14:22	567103	6121be9a77c602b1d877d7f0	310666377	1	main_z	11	main_z	33	stimuli_distractor_trianglediamonds.svg	stimuli_distractor_trianglediamonds.svg	34	no	0	1	2000
6.6.1	and	2022-12-23	13:04:42	13:14:22	567103	6121be9a77c602b1d877d7f0	310666377	1	main_z	11	advance_on_keypress_ZEE	34	stimuli_distractor_trianglediamonds.svg	stimuli_distractor_trianglediamonds.svg	34	no	57	0	388
6.6.1	and	2022-12-23	13:04:42	13:14:24	568481	6121be9a77c602b1d877d7f0	310666377	1	main_z	11	main_z	35	stimuli_target_circletriangles.svg	stimuli_distractor_diamondtriangles.svg	5	yes	44	1	362
6.6.1	and	2022-12-23	13:04:42	13:14:24	568481	6121be9a77c602b1d877d7f0	310666377	1	main_z	11	advance_on_keypress_ZEE	36	stimuli_target_circletriangles.svg	stimuli_distractor_diamondtriangles.svg	5	yes	57	0	738
6.6.1	and	2022-12-23	13:04:42	13:14:26	570470	6121be9a77c602b1d877d7f0	310666377	1	main_z	11	main_z	37	stimuli_distractor_trianglediamonds.svg	stimuli_target_circlediamonds.svg	10	yes	44	1	618
6.6.1	and	2022-12-23	13:04:42	13:14:26	570470	6121be9a77c602b1d877d7f0	310666377	1	main_z	11	advance_on_keypress_ZEE	38	stimuli_distractor_trianglediamonds.svg	stimuli_target_circlediamonds.svg	10	yes	57	0	636
6.6.1	and	2022-12-23	13:04:42	13:14:28	572419	6121be9a77c602b1d877d7f0	310666377	1	main_z	11	main_z	39	stimuli_distractor_diamondtriangles.svg	stimuli_target_trianglecircles.svg	29	yes	44	1	683
6.6.1	and	2022-12-23	13:04:42	13:14:28	572419	6121be9a77c602b1d877d7f0	310666377	1	main_z	11	advance_on_keypress_ZEE	40	stimuli_distractor_diamondtriangles.svg	stimuli_target_trianglecircles.svg	29	yes	57	0	509
6.6.1	and	2022-12-23	13:04:42	13:14:31	575567	6121be9a77c602b1d877d7f0	310666377	1	main_z	11	main_z	41	stimuli_distractor_diamondtriangles.svg	stimuli_target_circlediamonds.svg	14	yes	0	0	2000
6.6.1	and	2022-12-23	13:04:42	13:14:31	575567	6121be9a77c602b1d877d7f0	310666377	1	main_z	11	advance_on_keypress_ZEE	42	stimuli_distractor_diamondtriangles.svg	stimuli_target_circlediamonds.svg	14	yes	57	0	657
6.6.1	and	2022-12-23	13:04:42	13:14:32	577249	6121be9a77c602b1d877d7f0	310666377	1	main_z	11	main_z	43	stimuli_target_squaretriangles.svg	stimuli_distractor_trianglediamonds.svg	3	yes	44	1	383
6.6.1	and	2022-12-23	13:04:42	13:14:32	577249	6121be9a77c602b1d877d7f0	310666377	1	main_z	11	advance_on_keypress_ZEE	44	stimuli_target_squaretriangles.svg	stimuli_distractor_trianglediamonds.svg	3	yes	57	0	957
6.6.1	and	2022-12-23	13:04:42	13:14:34	579278	6121be9a77c602b1d877d7f0	310666377	1	main_z	11	main_z	45	stimuli_target_circlediamonds.svg	stimuli_distractor_trianglediamonds.svg	2	yes	44	1	428
6.6.1	and	2022-12-23	13:04:42	13:14:34	579278	6121be9a77c602b1d877d7f0	310666377	1	main_z	11	advance_on_keypress_ZEE	46	stimuli_target_circlediamonds.svg	stimuli_distractor_trianglediamonds.svg	2	yes	57	0	735
6.6.1	and	2022-12-23	13:04:42	13:14:36	581244	6121be9a77c602b1d877d7f0	310666377	1	main_z	11	main_z	47	stimuli_target_circletriangles.svg	stimuli_distractor_trianglediamonds.svg	1	yes	44	1	595
6.6.1	and	2022-12-23	13:04:42	13:14:36	581244	6121be9a77c602b1d877d7f0	310666377	1	main_z	11	advance_on_keypress_ZEE	48	stimuli_target_circletriangles.svg	stimuli_distractor_trianglediamonds.svg	1	yes	57	0	628
6.6.1	and	2022-12-23	13:04:42	13:14:40	584515	6121be9a77c602b1d877d7f0	310666377	1	main_z	11	main_z	49	stimuli_distractor_diamondtriangles.svg	stimuli_distractor_diamondtriangles.svg	40	no	0	1	2000
6.6.1	and	2022-12-23	13:04:42	13:14:40	584515	6121be9a77c602b1d877d7f0	310666377	1	main_z	11	advance_on_keypress_ZEE	50	stimuli_distractor_diamondtriangles.svg	stimuli_distractor_diamondtriangles.svg	40	no	57	0	557
6.6.1	and	2022-12-23	13:04:42	13:14:41	586169	6121be9a77c602b1d877d7f0	310666377	1	main_z	11	main_z	51	stimuli_distractor_trianglediamonds.svg	stimuli_target_diamondsquares.svg	28	yes	44	1	453
6.6.1	and	2022-12-23	13:04:42	13:14:41	586169	6121be9a77c602b1d877d7f0	310666377	1	main_z	11	advance_on_keypress_ZEE	52	stimuli_distractor_trianglediamonds.svg	stimuli_target_diamondsquares.svg	28	yes	57	0	951
6.6.1	and	2022-12-23	13:04:42	13:14:45	589749	6121be9a77c602b1d877d7f0	310666377	1	main_z	11	main_z	53	stimuli_distractor_trianglediamonds.svg	stimuli_target_squaretriangles.svg	11	yes	0	0	2000
6.6.1	and	2022-12-23	13:04:42	13:14:45	589749	6121be9a77c602b1d877d7f0	310666377	1	main_z	11	advance_on_keypress_ZEE	54	stimuli_distractor_trianglediamonds.svg	stimuli_target_squaretriangles.svg	11	yes	57	0	183
6.6.1	and	2022-12-23	13:04:42	13:14:46	591083	6121be9a77c602b1d877d7f0	310666377	1	main_z	11	main_z	55	stimuli_target_diamondcircles.svg	stimuli_distractor_trianglediamonds.svg	19	yes	44	1	523
6.6.1	and	2022-12-23	13:04:42	13:14:46	591083	6121be9a77c602b1d877d7f0	310666377	1	main_z	11	advance_on_keypress_ZEE	56	stimuli_target_diamondcircles.svg	stimuli_distractor_trianglediamonds.svg	19	yes	57	0	625
6.6.1	and	2022-12-23	13:04:42	13:14:49	594344	6121be9a77c602b1d877d7f0	310666377	1	main_z	11	main_z	57	stimuli_distractor_trianglediamonds.svg	stimuli_distractor_trianglediamonds.svg	33	no	0	1	2000
6.6.1	and	2022-12-23	13:04:42	13:14:49	594344	6121be9a77c602b1d877d7f0	310666377	1	main_z	11	advance_on_keypress_ZEE	58	stimuli_distractor_trianglediamonds.svg	stimuli_distractor_trianglediamonds.svg	33	no	57	0	449
6.6.1	and	2022-12-23	13:04:42	13:14:51	595781	6121be9a77c602b1d877d7f0	310666377	1	main_z	11	main_z	59	stimuli_distractor_trianglediamonds.svg	stimuli_distractor_diamondtriangles.svg	35	no	44	0	355
6.6.1	and	2022-12-23	13:04:42	13:14:51	595781	6121be9a77c602b1d877d7f0	310666377	1	main_z	11	advance_on_keypress_ZEE	60	stimuli_distractor_trianglediamonds.svg	stimuli_distractor_diamondtriangles.svg	35	no	57	0	1096
6.6.1	and	2022-12-23	13:04:42	13:14:53	597866	6121be9a77c602b1d877d7f0	310666377	1	main_z	11	main_z	61	stimuli_target_trianglecircles.svg	stimuli_distractor_diamondtriangles.svg	21	yes	44	1	356
6.6.1	and	2022-12-23	13:04:42	13:14:53	597866	6121be9a77c602b1d877d7f0	310666377	1	main_z	11	advance_on_keypress_ZEE	62	stimuli_target_trianglecircles.svg	stimuli_distractor_diamondtriangles.svg	21	yes	57	0	824
6.6.1	and	2022-12-23	13:04:42	13:14:56	600805	6121be9a77c602b1d877d7f0	310666377	1	main_z	11	main_z	63	stimuli_target_squarediamonds.svg	stimuli_distractor_trianglediamonds.svg	4	yes	44	1	1496
6.6.1	and	2022-12-23	13:04:42	13:14:56	600805	6121be9a77c602b1d877d7f0	310666377	1	main_z	11	advance_on_keypress_ZEE	64	stimuli_target_squarediamonds.svg	stimuli_distractor_trianglediamonds.svg	4	yes	57	0	442
6.6.1	and	2022-12-23	13:04:42	13:14:59	603875	6121be9a77c602b1d877d7f0	310666377	1	main_z	11	main_z	65	stimuli_distractor_diamondtriangles.svg	stimuli_distractor_trianglediamonds.svg	37	no	0	1	2000
6.6.1	and	2022-12-23	13:04:42	13:14:59	603875	6121be9a77c602b1d877d7f0	310666377	1	main_z	11	advance_on_keypress_ZEE	66	stimuli_distractor_diamondtriangles.svg	stimuli_distractor_trianglediamonds.svg	37	no	57	0	496
6.6.1	and	2022-12-23	13:04:42	13:15:00	605354	6121be9a77c602b1d877d7f0	310666377	1	main_z	11	main_z	67	stimuli_target_squarediamonds.svg	stimuli_distractor_diamondtriangles.svg	8	yes	44	1	346
6.6.1	and	2022-12-23	13:04:42	13:15:00	605354	6121be9a77c602b1d877d7f0	310666377	1	main_z	11	advance_on_keypress_ZEE	68	stimuli_target_squarediamonds.svg	stimuli_distractor_diamondtriangles.svg	8	yes	57	0	547
6.6.1	and	2022-12-23	13:04:42	13:15:02	607204	6121be9a77c602b1d877d7f0	310666377	1	main_z	11	main_z	69	stimuli_distractor_trianglediamonds.svg	stimuli_target_trianglesquares.svg	26	yes	44	1	662
6.6.1	and	2022-12-23	13:04:42	13:15:02	607204	6121be9a77c602b1d877d7f0	310666377	1	main_z	11	advance_on_keypress_ZEE	70	stimuli_distractor_trianglediamonds.svg	stimuli_target_trianglesquares.svg	26	yes	57	0	537
6.6.1	and	2022-12-23	13:04:42	13:15:04	608990	6121be9a77c602b1d877d7f0	310666377	1	main_z	11	main_z	71	stimuli_distractor_trianglediamonds.svg	stimuli_target_squarediamonds.svg	12	yes	44	1	616
6.6.1	and	2022-12-23	13:04:42	13:15:04	608990	6121be9a77c602b1d877d7f0	310666377	1	main_z	11	advance_on_keypress_ZEE	72	stimuli_distractor_trianglediamonds.svg	stimuli_target_squarediamonds.svg	12	yes	57	0	553
6.6.1	and	2022-12-23	13:04:42	13:15:07	612173	6121be9a77c602b1d877d7f0	310666377	1	main_z	11	main_z	73	stimuli_distractor_diamondtriangles.svg	stimuli_distractor_trianglediamonds.svg	38	no	0	1	2000
6.6.1	and	2022-12-23	13:04:42	13:15:07	612173	6121be9a77c602b1d877d7f0	310666377	1	main_z	11	advance_on_keypress_ZEE	74	stimuli_distractor_diamondtriangles.svg	stimuli_distractor_trianglediamonds.svg	38	no	57	0	468
6.6.1	and	2022-12-23	13:04:42	13:15:09	613620	6121be9a77c602b1d877d7f0	310666377	1	main_z	11	main_z	75	stimuli_target_circlediamonds.svg	stimuli_distractor_diamondtriangles.svg	6	yes	44	1	349
6.6.1	and	2022-12-23	13:04:42	13:15:09	613620	6121be9a77c602b1d877d7f0	310666377	1	main_z	11	advance_on_keypress_ZEE	76	stimuli_target_circlediamonds.svg	stimuli_distractor_diamondtriangles.svg	6	yes	57	0	891
6.6.1	and	2022-12-23	13:04:42	13:15:11	615772	6121be9a77c602b1d877d7f0	310666377	1	main_z	11	main_z	77	stimuli_target_diamondsquares.svg	stimuli_distractor_diamondtriangles.svg	24	yes	44	1	614
6.6.1	and	2022-12-23	13:04:42	13:15:11	615772	6121be9a77c602b1d877d7f0	310666377	1	main_z	11	advance_on_keypress_ZEE	78	stimuli_target_diamondsquares.svg	stimuli_distractor_diamondtriangles.svg	24	yes	57	0	566
6.6.1	and	2022-12-23	13:04:42	13:15:14	618970	6121be9a77c602b1d877d7f0	310666377	1	main_z	11	main_z	79	stimuli_distractor_trianglediamonds.svg	stimuli_distractor_diamondtriangles.svg	36	no	0	1	2000
6.6.1	and	2022-12-23	13:04:42	13:15:14	618970	6121be9a77c602b1d877d7f0	310666377	1	main_z	11	advance_on_keypress_ZEE	80	stimuli_distractor_trianglediamonds.svg	stimuli_distractor_diamondtriangles.svg	36	no	57	0	412
6.6.1	and	2022-12-23	13:04:42	13:15:17	622020	6121be9a77c602b1d877d7f0	310666377	1	main_z	11	main_z	81	stimuli_distractor_trianglediamonds.svg	stimuli_distractor_diamondtriangles.svg	35	no	0	1	2000
6.6.1	and	2022-12-23	13:04:42	13:15:17	622020	6121be9a77c602b1d877d7f0	310666377	1	main_z	11	advance_on_keypress_ZEE	82	stimuli_distractor_trianglediamonds.svg	stimuli_distractor_diamondtriangles.svg	35	no	57	0	1505
6.6.1	and	2022-12-23	13:04:42	13:15:21	626150	6121be9a77c602b1d877d7f0	310666377	1	main_z	11	main_z	83	stimuli_distractor_trianglediamonds.svg	stimuli_distractor_diamondtriangles.svg	36	no	0	1	2000
6.6.1	and	2022-12-23	13:04:42	13:15:21	626150	6121be9a77c602b1d877d7f0	310666377	1	main_z	11	advance_on_keypress_ZEE	84	stimuli_distractor_trianglediamonds.svg	stimuli_distractor_diamondtriangles.svg	36	no	57	0	395
6.6.1	and	2022-12-23	13:04:42	13:15:23	627686	6121be9a77c602b1d877d7f0	310666377	1	main_z	11	main_z	85	stimuli_target_trianglesquares.svg	stimuli_distractor_trianglediamonds.svg	18	yes	44	1	502
6.6.1	and	2022-12-23	13:04:42	13:15:23	627686	6121be9a77c602b1d877d7f0	310666377	1	main_z	11	advance_on_keypress_ZEE	86	stimuli_target_trianglesquares.svg	stimuli_distractor_trianglediamonds.svg	18	yes	57	0	786
6.6.1	and	2022-12-23	13:04:42	13:15:25	629775	6121be9a77c602b1d877d7f0	310666377	1	main_z	11	main_z	87	stimuli_target_squarediamonds.svg	stimuli_distractor_diamondtriangles.svg	8	yes	44	1	660
6.6.1	and	2022-12-23	13:04:42	13:15:25	629775	6121be9a77c602b1d877d7f0	310666377	1	main_z	11	advance_on_keypress_ZEE	88	stimuli_target_squarediamonds.svg	stimuli_distractor_diamondtriangles.svg	8	yes	57	0	495
6.6.1	and	2022-12-23	13:04:42	13:15:28	632917	6121be9a77c602b1d877d7f0	310666377	1	main_z	11	main_z	89	stimuli_target_squaretriangles.svg	stimuli_distractor_trianglediamonds.svg	3	yes	0	0	2000
6.6.1	and	2022-12-23	13:04:42	13:15:28	632917	6121be9a77c602b1d877d7f0	310666377	1	main_z	11	advance_on_keypress_ZEE	90	stimuli_target_squaretriangles.svg	stimuli_distractor_trianglediamonds.svg	3	yes	57	0	389
6.6.1	and	2022-12-23	13:04:42	13:15:29	634359	6121be9a77c602b1d877d7f0	310666377	1	main_z	11	main_z	91	stimuli_distractor_diamondtriangles.svg	stimuli_target_trianglecircles.svg	29	yes	44	1	428
6.6.1	and	2022-12-23	13:04:42	13:15:29	634359	6121be9a77c602b1d877d7f0	310666377	1	main_z	11	advance_on_keypress_ZEE	92	stimuli_distractor_diamondtriangles.svg	stimuli_target_trianglecircles.svg	29	yes	57	0	540
6.6.1	and	2022-12-23	13:04:42	13:15:33	637530	6121be9a77c602b1d877d7f0	310666377	1	main_z	11	main_z	93	stimuli_distractor_diamondtriangles.svg	stimuli_target_squarediamonds.svg	16	yes	0	0	2000
6.6.1	and	2022-12-23	13:04:42	13:15:33	637530	6121be9a77c602b1d877d7f0	310666377	1	main_z	11	advance_on_keypress_ZEE	94	stimuli_distractor_diamondtriangles.svg	stimuli_target_squarediamonds.svg	16	yes	57	0	419
6.6.1	and	2022-12-23	13:04:42	13:15:35	640013	6121be9a77c602b1d877d7f0	310666377	1	main_z	11	main_z	95	stimuli_distractor_trianglediamonds.svg	stimuli_target_diamondsquares.svg	28	yes	44	1	1434
6.6.1	and	2022-12-23	13:04:42	13:15:35	640013	6121be9a77c602b1d877d7f0	310666377	1	main_z	11	advance_on_keypress_ZEE	96	stimuli_distractor_trianglediamonds.svg	stimuli_target_diamondsquares.svg	28	yes	57	0	430
6.6.1	and	2022-12-23	13:04:42	13:15:37	641440	6121be9a77c602b1d877d7f0	310666377	1	main_z	11	main_z	97	stimuli_distractor_trianglediamonds.svg	stimuli_target_squarediamonds.svg	12	yes	44	1	363
6.6.1	and	2022-12-23	13:04:42	13:15:37	641440	6121be9a77c602b1d877d7f0	310666377	1	main_z	11	advance_on_keypress_ZEE	98	stimuli_distractor_trianglediamonds.svg	stimuli_target_squarediamonds.svg	12	yes	57	0	574
6.6.1	and	2022-12-23	13:04:42	13:15:38	643058	6121be9a77c602b1d877d7f0	310666377	1	main_z	11	main_z	99	stimuli_target_circlediamonds.svg	stimuli_distractor_trianglediamonds.svg	2	yes	44	1	389
6.6.1	and	2022-12-23	13:04:42	13:15:38	643058	6121be9a77c602b1d877d7f0	310666377	1	main_z	11	advance_on_keypress_ZEE	100	stimuli_target_circlediamonds.svg	stimuli_distractor_trianglediamonds.svg	2	yes	57	0	545
6.6.1	and	2022-12-23	13:04:42	13:15:40	644663	6121be9a77c602b1d877d7f0	310666377	1	main_z	11	main_z	101	stimuli_target_circletriangles.svg	stimuli_distractor_trianglediamonds.svg	1	yes	44	1	403
6.6.1	and	2022-12-23	13:04:42	13:15:40	644663	6121be9a77c602b1d877d7f0	310666377	1	main_z	11	advance_on_keypress_ZEE	102	stimuli_target_circletriangles.svg	stimuli_distractor_trianglediamonds.svg	1	yes	57	0	524
6.6.1	and	2022-12-23	13:04:42	13:15:42	647160	6121be9a77c602b1d877d7f0	310666377	1	main_z	11	main_z	103	stimuli_target_diamondsquares.svg	stimuli_distractor_diamondtriangles.svg	24	yes	44	1	1316
6.6.1	and	2022-12-23	13:04:42	13:15:42	647160	6121be9a77c602b1d877d7f0	310666377	1	main_z	11	advance_on_keypress_ZEE	104	stimuli_target_diamondsquares.svg	stimuli_distractor_diamondtriangles.svg	24	yes	57	0	552
6.6.1	and	2022-12-23	13:04:42	13:15:44	648817	6121be9a77c602b1d877d7f0	310666377	1	main_z	11	main_z	105	stimuli_target_circlediamonds.svg	stimuli_distractor_diamondtriangles.svg	6	yes	44	1	474
6.6.1	and	2022-12-23	13:04:42	13:15:44	648817	6121be9a77c602b1d877d7f0	310666377	1	main_z	11	advance_on_keypress_ZEE	106	stimuli_target_circlediamonds.svg	stimuli_distractor_diamondtriangles.svg	6	yes	57	0	550
6.6.1	and	2022-12-23	13:04:42	13:15:46	650522	6121be9a77c602b1d877d7f0	310666377	1	main_z	11	main_z	107	stimuli_distractor_diamondtriangles.svg	stimuli_target_trianglesquares.svg	30	yes	44	1	516
6.6.1	and	2022-12-23	13:04:42	13:15:46	650522	6121be9a77c602b1d877d7f0	310666377	1	main_z	11	advance_on_keypress_ZEE	108	stimuli_distractor_diamondtriangles.svg	stimuli_target_trianglesquares.svg	30	yes	57	0	491
6.6.1	and	2022-12-23	13:04:42	13:15:47	652127	6121be9a77c602b1d877d7f0	310666377	1	main_z	11	main_z	109	stimuli_target_trianglesquares.svg	stimuli_distractor_diamondtriangles.svg	22	yes	44	1	469
6.6.1	and	2022-12-23	13:04:42	13:15:47	652127	6121be9a77c602b1d877d7f0	310666377	1	main_z	11	advance_on_keypress_ZEE	110	stimuli_target_trianglesquares.svg	stimuli_distractor_diamondtriangles.svg	22	yes	57	0	550
6.6.1	and	2022-12-23	13:04:42	13:15:50	655309	6121be9a77c602b1d877d7f0	310666377	1	main_z	11	main_z	111	stimuli_target_squaretriangles.svg	stimuli_distractor_diamondtriangles.svg	7	yes	0	0	2000
6.6.1	and	2022-12-23	13:04:42	13:15:50	655309	6121be9a77c602b1d877d7f0	310666377	1	main_z	11	advance_on_keypress_ZEE	112	stimuli_target_squaretriangles.svg	stimuli_distractor_diamondtriangles.svg	7	yes	57	0	616
6.6.1	and	2022-12-23	13:04:42	13:15:52	657072	6121be9a77c602b1d877d7f0	310666377	1	main_z	11	main_z	113	stimuli_distractor_trianglediamonds.svg	stimuli_target_circletriangles.svg	9	yes	44	1	517
6.6.1	and	2022-12-23	13:04:42	13:15:52	657072	6121be9a77c602b1d877d7f0	310666377	1	main_z	11	advance_on_keypress_ZEE	114	stimuli_distractor_trianglediamonds.svg	stimuli_target_circletriangles.svg	9	yes	57	0	633
6.6.1	and	2022-12-23	13:04:42	13:15:53	658356	6121be9a77c602b1d877d7f0	310666377	1	main_z	11	main_z	115	stimuli_target_squarediamonds.svg	stimuli_distractor_trianglediamonds.svg	4	yes	44	1	18
6.6.1	and	2022-12-23	13:04:42	13:15:53	658356	6121be9a77c602b1d877d7f0	310666377	1	main_z	11	advance_on_keypress_ZEE	116	stimuli_target_squarediamonds.svg	stimuli_distractor_trianglediamonds.svg	4	yes	57	0	1599
6.6.1	and	2022-12-23	13:04:42	13:15:58	662590	6121be9a77c602b1d877d7f0	310666377	1	main_z	11	main_z	117	stimuli_distractor_diamondtriangles.svg	stimuli_distractor_diamondtriangles.svg	39	no	0	1	2000
6.6.1	and	2022-12-23	13:04:42	13:15:58	662590	6121be9a77c602b1d877d7f0	310666377	1	main_z	11	advance_on_keypress_ZEE	118	stimuli_distractor_diamondtriangles.svg	stimuli_distractor_diamondtriangles.svg	39	no	57	0	452
6.6.1	and	2022-12-23	13:04:42	13:16:01	665687	6121be9a77c602b1d877d7f0	310666377	1	main_z	11	main_z	119	stimuli_distractor_diamondtriangles.svg	stimuli_distractor_diamondtriangles.svg	40	no	0	1	2000
6.6.1	and	2022-12-23	13:04:42	13:16:01	665687	6121be9a77c602b1d877d7f0	310666377	1	main_z	11	advance_on_keypress_ZEE	120	stimuli_distractor_diamondtriangles.svg	stimuli_distractor_diamondtriangles.svg	40	no	57	0	504
6.6.1	and	2022-12-23	13:04:42	13:16:04	668821	6121be9a77c602b1d877d7f0	310666377	1	main_z	11	main_z	121	stimuli_distractor_trianglediamonds.svg	stimuli_distractor_trianglediamonds.svg	33	no	0	1	2000
6.6.1	and	2022-12-23	13:04:42	13:16:04	668821	6121be9a77c602b1d877d7f0	310666377	1	main_z	11	advance_on_keypress_ZEE	122	stimuli_distractor_trianglediamonds.svg	stimuli_distractor_trianglediamonds.svg	33	no	57	0	522
6.6.1	and	2022-12-23	13:04:42	13:16:06	670470	6121be9a77c602b1d877d7f0	310666377	1	main_z	11	main_z	123	stimuli_target_diamondcircles.svg	stimuli_distractor_trianglediamonds.svg	19	yes	44	1	503
6.6.1	and	2022-12-23	13:04:42	13:16:06	670470	6121be9a77c602b1d877d7f0	310666377	1	main_z	11	advance_on_keypress_ZEE	124	stimuli_target_diamondcircles.svg	stimuli_distractor_trianglediamonds.svg	19	yes	57	0	683
6.6.1	and	2022-12-23	13:04:42	13:16:07	672218	6121be9a77c602b1d877d7f0	310666377	1	main_z	11	main_z	125	stimuli_target_trianglecircles.svg	stimuli_distractor_trianglediamonds.svg	17	yes	44	1	435
6.6.1	and	2022-12-23	13:04:42	13:16:07	672218	6121be9a77c602b1d877d7f0	310666377	1	main_z	11	advance_on_keypress_ZEE	126	stimuli_target_trianglecircles.svg	stimuli_distractor_trianglediamonds.svg	17	yes	57	0	1304
6.6.1	and	2022-12-23	13:04:42	13:16:10	675203	6121be9a77c602b1d877d7f0	310666377	1	main_z	11	main_z	127	stimuli_distractor_diamondtriangles.svg	stimuli_target_circletriangles.svg	13	yes	44	1	1054
6.6.1	and	2022-12-23	13:04:42	13:16:10	675203	6121be9a77c602b1d877d7f0	310666377	1	main_z	11	advance_on_keypress_ZEE	128	stimuli_distractor_diamondtriangles.svg	stimuli_target_circletriangles.svg	13	yes	57	0	516
6.6.1	and	2022-12-23	13:04:42	13:16:12	676831	6121be9a77c602b1d877d7f0	310666377	1	main_z	11	main_z	129	stimuli_target_trianglecircles.svg	stimuli_distractor_diamondtriangles.svg	21	yes	44	1	481
6.6.1	and	2022-12-23	13:04:42	13:16:12	676831	6121be9a77c602b1d877d7f0	310666377	1	main_z	11	advance_on_keypress_ZEE	130	stimuli_target_trianglecircles.svg	stimuli_distractor_diamondtriangles.svg	21	yes	57	0	737
6.6.1	and	2022-12-23	13:04:42	13:16:15	680198	6121be9a77c602b1d877d7f0	310666377	1	main_z	11	main_z	131	stimuli_distractor_diamondtriangles.svg	stimuli_distractor_trianglediamonds.svg	38	no	0	1	2000
6.6.1	and	2022-12-23	13:04:42	13:16:15	680198	6121be9a77c602b1d877d7f0	310666377	1	main_z	11	advance_on_keypress_ZEE	132	stimuli_distractor_diamondtriangles.svg	stimuli_distractor_trianglediamonds.svg	38	no	57	0	469
6.6.1	and	2022-12-23	13:04:42	13:16:17	681593	6121be9a77c602b1d877d7f0	310666377	1	main_z	11	main_z	133	stimuli_distractor_diamondtriangles.svg	stimuli_target_diamondsquares.svg	32	yes	44	1	295
6.6.1	and	2022-12-23	13:04:42	13:16:17	681593	6121be9a77c602b1d877d7f0	310666377	1	main_z	11	advance_on_keypress_ZEE	134	stimuli_distractor_diamondtriangles.svg	stimuli_target_diamondsquares.svg	32	yes	57	0	1041
6.6.1	and	2022-12-23	13:04:42	13:16:19	683624	6121be9a77c602b1d877d7f0	310666377	1	main_z	11	main_z	135	stimuli_distractor_diamondtriangles.svg	stimuli_target_circlediamonds.svg	14	yes	44	1	362
6.6.1	and	2022-12-23	13:04:42	13:16:19	683624	6121be9a77c602b1d877d7f0	310666377	1	main_z	11	advance_on_keypress_ZEE	136	stimuli_distractor_diamondtriangles.svg	stimuli_target_circlediamonds.svg	14	yes	57	0	621
6.6.1	and	2022-12-23	13:04:42	13:16:20	685373	6121be9a77c602b1d877d7f0	310666377	1	main_z	11	main_z	137	stimuli_target_diamondsquares.svg	stimuli_distractor_trianglediamonds.svg	20	yes	44	1	494
6.6.1	and	2022-12-23	13:04:42	13:16:20	685373	6121be9a77c602b1d877d7f0	310666377	1	main_z	11	advance_on_keypress_ZEE	138	stimuli_target_diamondsquares.svg	stimuli_distractor_trianglediamonds.svg	20	yes	57	0	1305
6.6.1	and	2022-12-23	13:04:42	13:16:23	687662	6121be9a77c602b1d877d7f0	310666377	1	main_z	11	main_z	139	stimuli_distractor_trianglediamonds.svg	stimuli_distractor_trianglediamonds.svg	34	no	44	0	350
6.6.1	and	2022-12-23	13:04:42	13:16:23	687662	6121be9a77c602b1d877d7f0	310666377	1	main_z	11	advance_on_keypress_ZEE	140	stimuli_distractor_trianglediamonds.svg	stimuli_distractor_trianglediamonds.svg	34	no	57	0	477
6.6.1	and	2022-12-23	13:04:42	13:16:24	689220	6121be9a77c602b1d877d7f0	310666377	1	main_z	11	main_z	141	stimuli_distractor_trianglediamonds.svg	stimuli_target_trianglesquares.svg	26	yes	44	1	442
6.6.1	and	2022-12-23	13:04:42	13:16:24	689220	6121be9a77c602b1d877d7f0	310666377	1	main_z	11	advance_on_keypress_ZEE	142	stimuli_distractor_trianglediamonds.svg	stimuli_target_trianglesquares.svg	26	yes	57	0	708
6.6.1	and	2022-12-23	13:04:42	13:16:26	690950	6121be9a77c602b1d877d7f0	310666377	1	main_z	11	main_z	143	stimuli_distractor_trianglediamonds.svg	stimuli_target_trianglecircles.svg	25	yes	44	1	391
6.6.1	and	2022-12-23	13:04:42	13:16:26	690950	6121be9a77c602b1d877d7f0	310666377	1	main_z	11	advance_on_keypress_ZEE	144	stimuli_distractor_trianglediamonds.svg	stimuli_target_trianglecircles.svg	25	yes	57	0	1079
6.6.1	and	2022-12-23	13:04:42	13:16:30	694679	6121be9a77c602b1d877d7f0	310666377	1	main_z	11	main_z	145	stimuli_distractor_trianglediamonds.svg	stimuli_target_circlediamonds.svg	10	yes	0	0	2000
6.6.1	and	2022-12-23	13:04:42	13:16:30	694679	6121be9a77c602b1d877d7f0	310666377	1	main_z	11	advance_on_keypress_ZEE	146	stimuli_distractor_trianglediamonds.svg	stimuli_target_circlediamonds.svg	10	yes	57	0	447
6.6.1	and	2022-12-23	13:04:42	13:16:33	697762	6121be9a77c602b1d877d7f0	310666377	1	main_z	11	main_z	147	stimuli_distractor_diamondtriangles.svg	stimuli_distractor_trianglediamonds.svg	37	no	0	1	2000
6.6.1	and	2022-12-23	13:04:42	13:16:33	697762	6121be9a77c602b1d877d7f0	310666377	1	main_z	11	advance_on_keypress_ZEE	148	stimuli_distractor_diamondtriangles.svg	stimuli_distractor_trianglediamonds.svg	37	no	57	0	553
6.6.1	and	2022-12-23	13:04:42	13:16:34	699340	6121be9a77c602b1d877d7f0	310666377	1	main_z	11	main_z	149	stimuli_target_diamondcircles.svg	stimuli_distractor_diamondtriangles.svg	23	yes	44	1	386
6.6.1	and	2022-12-23	13:04:42	13:16:34	699340	6121be9a77c602b1d877d7f0	310666377	1	main_z	11	advance_on_keypress_ZEE	150	stimuli_target_diamondcircles.svg	stimuli_distractor_diamondtriangles.svg	23	yes	57	0	1436
6.6.1	and	2022-12-23	13:04:42	13:16:37	702052	6121be9a77c602b1d877d7f0	310666377	1	main_z	11	main_z	151	stimuli_distractor_diamondtriangles.svg	stimuli_target_squaretriangles.svg	15	yes	44	1	624
6.6.1	and	2022-12-23	13:04:42	13:16:37	702052	6121be9a77c602b1d877d7f0	310666377	1	main_z	11	advance_on_keypress_ZEE	152	stimuli_distractor_diamondtriangles.svg	stimuli_target_squaretriangles.svg	15	yes	57	0	935
6.6.1	and	2022-12-23	13:04:42	13:16:40	704740	6121be9a77c602b1d877d7f0	310666377	1	main_z	11	main_z	153	stimuli_distractor_trianglediamonds.svg	stimuli_target_diamondcircles.svg	27	yes	44	1	1116
6.6.1	and	2022-12-23	13:04:42	13:16:40	704740	6121be9a77c602b1d877d7f0	310666377	1	main_z	11	advance_on_keypress_ZEE	154	stimuli_distractor_trianglediamonds.svg	stimuli_target_diamondcircles.svg	27	yes	57	0	555
6.6.1	and	2022-12-23	13:04:42	13:16:43	707923	6121be9a77c602b1d877d7f0	310666377	1	main_z	11	main_z	155	stimuli_distractor_trianglediamonds.svg	stimuli_target_squaretriangles.svg	11	yes	0	0	2000
6.6.1	and	2022-12-23	13:04:42	13:16:43	707923	6121be9a77c602b1d877d7f0	310666377	1	main_z	11	advance_on_keypress_ZEE	156	stimuli_distractor_trianglediamonds.svg	stimuli_target_squaretriangles.svg	11	yes	57	0	413
6.6.1	and	2022-12-23	13:04:42	13:16:45	709528	6121be9a77c602b1d877d7f0	310666377	1	main_z	11	main_z	157	stimuli_distractor_diamondtriangles.svg	stimuli_target_diamondcircles.svg	31	yes	44	1	554
6.6.1	and	2022-12-23	13:04:42	13:16:45	709528	6121be9a77c602b1d877d7f0	310666377	1	main_z	11	advance_on_keypress_ZEE	158	stimuli_distractor_diamondtriangles.svg	stimuli_target_diamondcircles.svg	31	yes	57	0	617
6.6.1	and	2022-12-23	13:04:42	13:16:48	712466	6121be9a77c602b1d877d7f0	310666377	1	main_z	11	main_z	159	stimuli_target_circletriangles.svg	stimuli_distractor_diamondtriangles.svg	5	yes	44	1	1678
6.6.1	and	2022-12-23	13:04:42	13:16:48	712466	6121be9a77c602b1d877d7f0	310666377	1	main_z	11	advance_on_keypress_ZEE	160	stimuli_target_circletriangles.svg	stimuli_distractor_diamondtriangles.svg	5	yes	57	0	511