build	computer.platform	date	time	timestamp	time_elapsed_ms	subject	group	session	blockcode	blocknum	trialcode	trialnum	stimulus_left	stimulus_right	stim_index	target_present	response	correct	latency
6.6.0	win	2022-12-26	10:46:10	10:50:17	246388	5c134ee7e32f86000165ba0d	828585339	1	practice_slash	5	practice_slash	1	stimuli_target_squarediamonds.svg	stimuli_distractor_trianglediamonds.svg	5	yes	53	1	508
6.6.0	win	2022-12-26	10:46:10	10:50:17	246388	5c134ee7e32f86000165ba0d	828585339	1	practice_slash	5	advance_on_keypress_SLASH	2	stimuli_target_squarediamonds.svg	stimuli_distractor_trianglediamonds.svg	5	yes	57	0	3533
6.6.0	win	2022-12-26	10:46:10	10:50:23	252214	5c134ee7e32f86000165ba0d	828585339	1	practice_slash	5	practice_slash	3	stimuli_distractor_trianglediamonds.svg	stimuli_distractor_trianglediamonds.svg	15	no	53	0	622
6.6.0	win	2022-12-26	10:46:10	10:50:23	252214	5c134ee7e32f86000165ba0d	828585339	1	practice_slash	5	advance_on_keypress_SLASH	4	stimuli_distractor_trianglediamonds.svg	stimuli_distractor_trianglediamonds.svg	15	no	57	0	548
6.6.0	win	2022-12-26	10:46:10	10:50:27	256427	5c134ee7e32f86000165ba0d	828585339	1	practice_slash	5	practice_slash	5	stimuli_target_diamondsquares.svg	stimuli_distractor_trianglediamonds.svg	6	yes	0	0	2000
6.6.0	win	2022-12-26	10:46:10	10:50:27	256427	5c134ee7e32f86000165ba0d	828585339	1	practice_slash	5	advance_on_keypress_SLASH	6	stimuli_target_diamondsquares.svg	stimuli_distractor_trianglediamonds.svg	6	yes	57	0	500
6.6.0	win	2022-12-26	10:46:10	10:50:31	260611	5c134ee7e32f86000165ba0d	828585339	1	practice_slash	5	practice_slash	7	stimuli_distractor_diamondtriangles.svg	stimuli_distractor_diamondtriangles.svg	13	no	0	1	2000
6.6.0	win	2022-12-26	10:46:10	10:50:31	260611	5c134ee7e32f86000165ba0d	828585339	1	practice_slash	5	advance_on_keypress_SLASH	8	stimuli_distractor_diamondtriangles.svg	stimuli_distractor_diamondtriangles.svg	13	no	57	0	515
6.6.0	win	2022-12-26	10:46:10	10:50:34	263385	5c134ee7e32f86000165ba0d	828585339	1	practice_slash	5	practice_slash	9	stimuli_distractor_trianglediamonds.svg	stimuli_target_diamondcircles.svg	12	yes	53	1	558
6.6.0	win	2022-12-26	10:46:10	10:50:34	263385	5c134ee7e32f86000165ba0d	828585339	1	practice_slash	5	advance_on_keypress_SLASH	10	stimuli_distractor_trianglediamonds.svg	stimuli_target_diamondcircles.svg	12	yes	57	0	1140
6.6.0	win	2022-12-26	10:46:10	10:50:37	266717	5c134ee7e32f86000165ba0d	828585339	1	practice_slash	5	practice_slash	11	stimuli_distractor_diamondtriangles.svg	stimuli_target_circletriangles.svg	7	yes	53	1	512
6.6.0	win	2022-12-26	10:46:10	10:50:37	266717	5c134ee7e32f86000165ba0d	828585339	1	practice_slash	5	advance_on_keypress_SLASH	12	stimuli_distractor_diamondtriangles.svg	stimuli_target_circletriangles.svg	7	yes	57	0	679
6.6.0	win	2022-12-26	10:46:10	10:50:40	269584	5c134ee7e32f86000165ba0d	828585339	1	practice_slash	5	practice_slash	13	stimuli_distractor_diamondtriangles.svg	stimuli_target_diamondcircles.svg	8	yes	53	1	515
6.6.0	win	2022-12-26	10:46:10	10:50:40	269584	5c134ee7e32f86000165ba0d	828585339	1	practice_slash	5	advance_on_keypress_SLASH	14	stimuli_distractor_diamondtriangles.svg	stimuli_target_diamondcircles.svg	8	yes	57	0	652
6.6.0	win	2022-12-26	10:46:10	10:50:43	272392	5c134ee7e32f86000165ba0d	828585339	1	practice_slash	5	practice_slash	15	stimuli_target_circlediamonds.svg	stimuli_distractor_trianglediamonds.svg	4	yes	53	1	489
6.6.0	win	2022-12-26	10:46:10	10:50:43	272392	5c134ee7e32f86000165ba0d	828585339	1	practice_slash	5	advance_on_keypress_SLASH	16	stimuli_target_circlediamonds.svg	stimuli_distractor_trianglediamonds.svg	4	yes	57	0	508
6.6.0	win	2022-12-26	10:46:10	10:50:47	275772	5c134ee7e32f86000165ba0d	828585339	1	practice_slash	5	practice_slash	17	stimuli_target_diamondsquares.svg	stimuli_distractor_diamondtriangles.svg	3	yes	53	1	1206
6.6.0	win	2022-12-26	10:46:10	10:50:47	275772	5c134ee7e32f86000165ba0d	828585339	1	practice_slash	5	advance_on_keypress_SLASH	18	stimuli_target_diamondsquares.svg	stimuli_distractor_diamondtriangles.svg	3	yes	57	0	588
6.6.0	win	2022-12-26	10:46:10	10:50:49	278562	5c134ee7e32f86000165ba0d	828585339	1	practice_slash	5	practice_slash	19	stimuli_distractor_trianglediamonds.svg	stimuli_target_circlediamonds.svg	10	yes	53	1	523
6.6.0	win	2022-12-26	10:46:10	10:50:49	278562	5c134ee7e32f86000165ba0d	828585339	1	practice_slash	5	advance_on_keypress_SLASH	20	stimuli_distractor_trianglediamonds.svg	stimuli_target_circlediamonds.svg	10	yes	57	0	1484
6.6.0	win	2022-12-26	10:46:10	10:50:53	282200	5c134ee7e32f86000165ba0d	828585339	1	practice_slash	5	practice_slash	21	stimuli_target_circlediamonds.svg	stimuli_distractor_diamondtriangles.svg	1	yes	53	1	487
6.6.0	win	2022-12-26	10:46:10	10:50:53	282200	5c134ee7e32f86000165ba0d	828585339	1	practice_slash	5	advance_on_keypress_SLASH	22	stimuli_target_circlediamonds.svg	stimuli_distractor_diamondtriangles.svg	1	yes	57	0	868
6.6.0	win	2022-12-26	10:46:10	10:50:56	285216	5c134ee7e32f86000165ba0d	828585339	1	practice_slash	5	practice_slash	23	stimuli_distractor_diamondtriangles.svg	stimuli_target_trianglecircles.svg	9	yes	53	1	471
6.6.0	win	2022-12-26	10:46:10	10:50:56	285216	5c134ee7e32f86000165ba0d	828585339	1	practice_slash	5	advance_on_keypress_SLASH	24	stimuli_distractor_diamondtriangles.svg	stimuli_target_trianglecircles.svg	9	yes	57	0	443
6.6.0	win	2022-12-26	10:46:10	10:50:59	287852	5c134ee7e32f86000165ba0d	828585339	1	practice_slash	5	practice_slash	25	stimuli_distractor_trianglediamonds.svg	stimuli_target_squarediamonds.svg	11	yes	53	1	518
6.6.0	win	2022-12-26	10:46:10	10:50:59	287852	5c134ee7e32f86000165ba0d	828585339	1	practice_slash	5	advance_on_keypress_SLASH	26	stimuli_distractor_trianglediamonds.svg	stimuli_target_squarediamonds.svg	11	yes	57	0	47344
6.6.0	win	2022-12-26	10:46:10	10:51:49	337766	5c134ee7e32f86000165ba0d	828585339	1	practice_slash	5	practice_slash	27	stimuli_distractor_trianglediamonds.svg	stimuli_distractor_diamondtriangles.svg	16	no	53	0	895
6.6.0	win	2022-12-26	10:46:10	10:51:49	337766	5c134ee7e32f86000165ba0d	828585339	1	practice_slash	5	advance_on_keypress_SLASH	28	stimuli_distractor_trianglediamonds.svg	stimuli_distractor_diamondtriangles.svg	16	no	57	0	306
6.6.0	win	2022-12-26	10:46:10	10:51:51	340700	5c134ee7e32f86000165ba0d	828585339	1	practice_slash	5	practice_slash	29	stimuli_distractor_diamondtriangles.svg	stimuli_distractor_trianglediamonds.svg	14	no	53	0	948
6.6.0	win	2022-12-26	10:46:10	10:51:51	340700	5c134ee7e32f86000165ba0d	828585339	1	practice_slash	5	advance_on_keypress_SLASH	30	stimuli_distractor_diamondtriangles.svg	stimuli_distractor_trianglediamonds.svg	14	no	57	0	19
6.6.0	win	2022-12-26	10:46:10	10:51:54	342849	5c134ee7e32f86000165ba0d	828585339	1	practice_slash	5	practice_slash	31	stimuli_target_squarediamonds.svg	stimuli_distractor_diamondtriangles.svg	2	yes	53	1	442
6.6.0	win	2022-12-26	10:46:10	10:51:54	342849	5c134ee7e32f86000165ba0d	828585339	1	practice_slash	5	advance_on_keypress_SLASH	32	stimuli_target_squarediamonds.svg	stimuli_distractor_diamondtriangles.svg	2	yes	57	0	311
6.6.0	win	2022-12-26	10:46:10	10:52:15	364054	5c134ee7e32f86000165ba0d	828585339	1	main_slash	7	main_slash	1	stimuli_target_squaretriangles.svg	stimuli_distractor_trianglediamonds.svg	3	yes	53	1	430
6.6.0	win	2022-12-26	10:46:10	10:52:15	364054	5c134ee7e32f86000165ba0d	828585339	1	main_slash	7	advance_on_keypress_SLASH	2	stimuli_target_squaretriangles.svg	stimuli_distractor_trianglediamonds.svg	3	yes	57	0	1084
6.6.0	win	2022-12-26	10:46:10	10:52:17	366282	5c134ee7e32f86000165ba0d	828585339	1	main_slash	7	main_slash	3	stimuli_target_trianglesquares.svg	stimuli_distractor_diamondtriangles.svg	22	yes	53	1	496
6.6.0	win	2022-12-26	10:46:10	10:52:17	366282	5c134ee7e32f86000165ba0d	828585339	1	main_slash	7	advance_on_keypress_SLASH	4	stimuli_target_trianglesquares.svg	stimuli_distractor_diamondtriangles.svg	22	yes	57	0	588
6.6.0	win	2022-12-26	10:46:10	10:52:20	369503	5c134ee7e32f86000165ba0d	828585339	1	main_slash	7	main_slash	5	stimuli_distractor_trianglediamonds.svg	stimuli_distractor_diamondtriangles.svg	36	no	0	1	2000
6.6.0	win	2022-12-26	10:46:10	10:52:20	369503	5c134ee7e32f86000165ba0d	828585339	1	main_slash	7	advance_on_keypress_SLASH	6	stimuli_distractor_trianglediamonds.svg	stimuli_distractor_diamondtriangles.svg	36	no	57	0	315
6.6.0	win	2022-12-26	10:46:10	10:52:22	370988	5c134ee7e32f86000165ba0d	828585339	1	main_slash	7	main_slash	7	stimuli_target_diamondsquares.svg	stimuli_distractor_diamondtriangles.svg	24	yes	53	1	509
6.6.0	win	2022-12-26	10:46:10	10:52:22	370988	5c134ee7e32f86000165ba0d	828585339	1	main_slash	7	advance_on_keypress_SLASH	8	stimuli_target_diamondsquares.svg	stimuli_distractor_diamondtriangles.svg	24	yes	57	0	719
6.6.0	win	2022-12-26	10:46:10	10:52:24	373073	5c134ee7e32f86000165ba0d	828585339	1	main_slash	7	main_slash	9	stimuli_distractor_trianglediamonds.svg	stimuli_target_trianglesquares.svg	26	yes	53	1	696
6.6.0	win	2022-12-26	10:46:10	10:52:24	373073	5c134ee7e32f86000165ba0d	828585339	1	main_slash	7	advance_on_keypress_SLASH	10	stimuli_distractor_trianglediamonds.svg	stimuli_target_trianglesquares.svg	26	yes	57	0	643
6.6.0	win	2022-12-26	10:46:10	10:52:26	374783	5c134ee7e32f86000165ba0d	828585339	1	main_slash	7	main_slash	11	stimuli_distractor_trianglediamonds.svg	stimuli_target_circlediamonds.svg	10	yes	53	1	416
6.6.0	win	2022-12-26	10:46:10	10:52:26	374783	5c134ee7e32f86000165ba0d	828585339	1	main_slash	7	advance_on_keypress_SLASH	12	stimuli_distractor_trianglediamonds.svg	stimuli_target_circlediamonds.svg	10	yes	57	0	567
6.6.0	win	2022-12-26	10:46:10	10:52:27	376594	5c134ee7e32f86000165ba0d	828585339	1	main_slash	7	main_slash	13	stimuli_distractor_diamondtriangles.svg	stimuli_target_squarediamonds.svg	16	yes	53	1	608
6.6.0	win	2022-12-26	10:46:10	10:52:27	376594	5c134ee7e32f86000165ba0d	828585339	1	main_slash	7	advance_on_keypress_SLASH	14	stimuli_distractor_diamondtriangles.svg	stimuli_target_squarediamonds.svg	16	yes	57	0	519
6.6.0	win	2022-12-26	10:46:10	10:52:29	378190	5c134ee7e32f86000165ba0d	828585339	1	main_slash	7	main_slash	15	stimuli_distractor_trianglediamonds.svg	stimuli_target_diamondcircles.svg	27	yes	53	1	407
6.6.0	win	2022-12-26	10:46:10	10:52:29	378190	5c134ee7e32f86000165ba0d	828585339	1	main_slash	7	advance_on_keypress_SLASH	16	stimuli_distractor_trianglediamonds.svg	stimuli_target_diamondcircles.svg	27	yes	57	0	454
6.6.0	win	2022-12-26	10:46:10	10:52:31	380248	5c134ee7e32f86000165ba0d	828585339	1	main_slash	7	main_slash	17	stimuli_distractor_diamondtriangles.svg	stimuli_target_diamondsquares.svg	32	yes	53	1	955
6.6.0	win	2022-12-26	10:46:10	10:52:31	380248	5c134ee7e32f86000165ba0d	828585339	1	main_slash	7	advance_on_keypress_SLASH	18	stimuli_distractor_diamondtriangles.svg	stimuli_target_diamondsquares.svg	32	yes	57	0	549
6.6.0	win	2022-12-26	10:46:10	10:52:34	383439	5c134ee7e32f86000165ba0d	828585339	1	main_slash	7	main_slash	19	stimuli_distractor_trianglediamonds.svg	stimuli_distractor_trianglediamonds.svg	34	no	0	1	2000
6.6.0	win	2022-12-26	10:46:10	10:52:34	383439	5c134ee7e32f86000165ba0d	828585339	1	main_slash	7	advance_on_keypress_SLASH	20	stimuli_distractor_trianglediamonds.svg	stimuli_distractor_trianglediamonds.svg	34	no	57	0	261
6.6.0	win	2022-12-26	10:46:10	10:52:36	384870	5c134ee7e32f86000165ba0d	828585339	1	main_slash	7	main_slash	21	stimuli_target_squarediamonds.svg	stimuli_distractor_trianglediamonds.svg	4	yes	53	1	521
6.6.0	win	2022-12-26	10:46:10	10:52:36	384870	5c134ee7e32f86000165ba0d	828585339	1	main_slash	7	advance_on_keypress_SLASH	22	stimuli_target_squarediamonds.svg	stimuli_distractor_trianglediamonds.svg	4	yes	57	0	690
6.6.0	win	2022-12-26	10:46:10	10:52:39	388229	5c134ee7e32f86000165ba0d	828585339	1	main_slash	7	main_slash	23	stimuli_distractor_diamondtriangles.svg	stimuli_distractor_diamondtriangles.svg	39	no	0	1	2000
6.6.0	win	2022-12-26	10:46:10	10:52:39	388229	5c134ee7e32f86000165ba0d	828585339	1	main_slash	7	advance_on_keypress_SLASH	24	stimuli_distractor_diamondtriangles.svg	stimuli_distractor_diamondtriangles.svg	39	no	57	0	333
6.6.0	win	2022-12-26	10:46:10	10:52:40	389689	5c134ee7e32f86000165ba0d	828585339	1	main_slash	7	main_slash	25	stimuli_target_squarediamonds.svg	stimuli_distractor_diamondtriangles.svg	8	yes	53	1	470
6.6.0	win	2022-12-26	10:46:10	10:52:40	389689	5c134ee7e32f86000165ba0d	828585339	1	main_slash	7	advance_on_keypress_SLASH	26	stimuli_target_squarediamonds.svg	stimuli_distractor_diamondtriangles.svg	8	yes	57	0	618
6.6.0	win	2022-12-26	10:46:10	10:52:42	391425	5c134ee7e32f86000165ba0d	828585339	1	main_slash	7	main_slash	27	stimuli_target_circletriangles.svg	stimuli_distractor_trianglediamonds.svg	1	yes	53	1	463
6.6.0	win	2022-12-26	10:46:10	10:52:42	391425	5c134ee7e32f86000165ba0d	828585339	1	main_slash	7	advance_on_keypress_SLASH	28	stimuli_target_circletriangles.svg	stimuli_distractor_trianglediamonds.svg	1	yes	57	0	397
6.6.0	win	2022-12-26	10:46:10	10:52:44	393408	5c134ee7e32f86000165ba0d	828585339	1	main_slash	7	main_slash	29	stimuli_distractor_trianglediamonds.svg	stimuli_target_squarediamonds.svg	12	yes	53	1	931
6.6.0	win	2022-12-26	10:46:10	10:52:44	393408	5c134ee7e32f86000165ba0d	828585339	1	main_slash	7	advance_on_keypress_SLASH	30	stimuli_distractor_trianglediamonds.svg	stimuli_target_squarediamonds.svg	12	yes	57	0	532
6.6.0	win	2022-12-26	10:46:10	10:52:46	395187	5c134ee7e32f86000165ba0d	828585339	1	main_slash	7	main_slash	31	stimuli_target_trianglesquares.svg	stimuli_distractor_trianglediamonds.svg	18	yes	53	1	598
6.6.0	win	2022-12-26	10:46:10	10:52:46	395187	5c134ee7e32f86000165ba0d	828585339	1	main_slash	7	advance_on_keypress_SLASH	32	stimuli_target_trianglesquares.svg	stimuli_distractor_trianglediamonds.svg	18	yes	57	0	454
6.6.0	win	2022-12-26	10:46:10	10:52:49	398293	5c134ee7e32f86000165ba0d	828585339	1	main_slash	7	main_slash	33	stimuli_distractor_diamondtriangles.svg	stimuli_distractor_trianglediamonds.svg	37	no	0	1	2000
6.6.0	win	2022-12-26	10:46:10	10:52:49	398293	5c134ee7e32f86000165ba0d	828585339	1	main_slash	7	advance_on_keypress_SLASH	34	stimuli_distractor_diamondtriangles.svg	stimuli_distractor_trianglediamonds.svg	37	no	57	0	361
6.6.0	win	2022-12-26	10:46:10	10:52:51	399763	5c134ee7e32f86000165ba0d	828585339	1	main_slash	7	main_slash	35	stimuli_target_trianglecircles.svg	stimuli_distractor_diamondtriangles.svg	21	yes	53	1	450
6.6.0	win	2022-12-26	10:46:10	10:52:51	399763	5c134ee7e32f86000165ba0d	828585339	1	main_slash	7	advance_on_keypress_SLASH	36	stimuli_target_trianglecircles.svg	stimuli_distractor_diamondtriangles.svg	21	yes	57	0	374
6.6.0	win	2022-12-26	10:46:10	10:52:52	401208	5c134ee7e32f86000165ba0d	828585339	1	main_slash	7	main_slash	37	stimuli_target_diamondcircles.svg	stimuli_distractor_trianglediamonds.svg	19	yes	53	1	422
6.6.0	win	2022-12-26	10:46:10	10:52:52	401208	5c134ee7e32f86000165ba0d	828585339	1	main_slash	7	advance_on_keypress_SLASH	38	stimuli_target_diamondcircles.svg	stimuli_distractor_trianglediamonds.svg	19	yes	57	0	396
6.6.0	win	2022-12-26	10:46:10	10:52:53	402678	5c134ee7e32f86000165ba0d	828585339	1	main_slash	7	main_slash	39	stimuli_target_diamondsquares.svg	stimuli_distractor_trianglediamonds.svg	20	yes	53	1	419
6.6.0	win	2022-12-26	10:46:10	10:52:53	402678	5c134ee7e32f86000165ba0d	828585339	1	main_slash	7	advance_on_keypress_SLASH	40	stimuli_target_diamondsquares.svg	stimuli_distractor_trianglediamonds.svg	20	yes	57	0	818
6.6.0	win	2022-12-26	10:46:10	10:52:55	404678	5c134ee7e32f86000165ba0d	828585339	1	main_slash	7	main_slash	41	stimuli_target_circletriangles.svg	stimuli_distractor_diamondtriangles.svg	5	yes	53	1	519
6.6.0	win	2022-12-26	10:46:10	10:52:55	404678	5c134ee7e32f86000165ba0d	828585339	1	main_slash	7	advance_on_keypress_SLASH	42	stimuli_target_circletriangles.svg	stimuli_distractor_diamondtriangles.svg	5	yes	57	0	393
6.6.0	win	2022-12-26	10:46:10	10:52:59	407735	5c134ee7e32f86000165ba0d	828585339	1	main_slash	7	main_slash	43	stimuli_distractor_diamondtriangles.svg	stimuli_distractor_diamondtriangles.svg	40	no	0	1	2000
6.6.0	win	2022-12-26	10:46:10	10:52:59	407735	5c134ee7e32f86000165ba0d	828585339	1	main_slash	7	advance_on_keypress_SLASH	44	stimuli_distractor_diamondtriangles.svg	stimuli_distractor_diamondtriangles.svg	40	no	57	0	351
6.6.0	win	2022-12-26	10:46:10	10:53:00	409174	5c134ee7e32f86000165ba0d	828585339	1	main_slash	7	main_slash	45	stimuli_distractor_diamondtriangles.svg	stimuli_target_trianglecircles.svg	29	yes	53	1	431
6.6.0	win	2022-12-26	10:46:10	10:53:00	409174	5c134ee7e32f86000165ba0d	828585339	1	main_slash	7	advance_on_keypress_SLASH	46	stimuli_distractor_diamondtriangles.svg	stimuli_target_trianglecircles.svg	29	yes	57	0	806
6.6.0	win	2022-12-26	10:46:10	10:53:03	412635	5c134ee7e32f86000165ba0d	828585339	1	main_slash	7	main_slash	47	stimuli_distractor_trianglediamonds.svg	stimuli_target_diamondsquares.svg	28	yes	0	0	2000
6.6.0	win	2022-12-26	10:46:10	10:53:03	412635	5c134ee7e32f86000165ba0d	828585339	1	main_slash	7	advance_on_keypress_SLASH	48	stimuli_distractor_trianglediamonds.svg	stimuli_target_diamondsquares.svg	28	yes	57	0	323
6.6.0	win	2022-12-26	10:46:10	10:53:06	415611	5c134ee7e32f86000165ba0d	828585339	1	main_slash	7	main_slash	49	stimuli_distractor_trianglediamonds.svg	stimuli_distractor_diamondtriangles.svg	35	no	0	1	2000
6.6.0	win	2022-12-26	10:46:10	10:53:06	415611	5c134ee7e32f86000165ba0d	828585339	1	main_slash	7	advance_on_keypress_SLASH	50	stimuli_distractor_trianglediamonds.svg	stimuli_distractor_diamondtriangles.svg	35	no	57	0	396
6.6.0	win	2022-12-26	10:46:10	10:53:08	417084	5c134ee7e32f86000165ba0d	828585339	1	main_slash	7	main_slash	51	stimuli_target_trianglecircles.svg	stimuli_distractor_trianglediamonds.svg	17	yes	53	1	418
6.6.0	win	2022-12-26	10:46:10	10:53:08	417084	5c134ee7e32f86000165ba0d	828585339	1	main_slash	7	advance_on_keypress_SLASH	52	stimuli_target_trianglecircles.svg	stimuli_distractor_trianglediamonds.svg	17	yes	57	0	425
6.6.0	win	2022-12-26	10:46:10	10:53:09	418627	5c134ee7e32f86000165ba0d	828585339	1	main_slash	7	main_slash	53	stimuli_distractor_diamondtriangles.svg	stimuli_target_diamondcircles.svg	31	yes	53	1	470
6.6.0	win	2022-12-26	10:46:10	10:53:09	418627	5c134ee7e32f86000165ba0d	828585339	1	main_slash	7	advance_on_keypress_SLASH	54	stimuli_distractor_diamondtriangles.svg	stimuli_target_diamondcircles.svg	31	yes	57	0	363
6.6.0	win	2022-12-26	10:46:10	10:53:11	420633	5c134ee7e32f86000165ba0d	828585339	1	main_slash	7	main_slash	55	stimuli_distractor_trianglediamonds.svg	stimuli_target_circletriangles.svg	9	yes	53	1	979
6.6.0	win	2022-12-26	10:46:10	10:53:11	420633	5c134ee7e32f86000165ba0d	828585339	1	main_slash	7	advance_on_keypress_SLASH	56	stimuli_distractor_trianglediamonds.svg	stimuli_target_circletriangles.svg	9	yes	57	0	507
6.6.0	win	2022-12-26	10:46:10	10:53:13	422210	5c134ee7e32f86000165ba0d	828585339	1	main_slash	7	main_slash	57	stimuli_distractor_diamondtriangles.svg	stimuli_target_circlediamonds.svg	14	yes	53	1	413
6.6.0	win	2022-12-26	10:46:10	10:53:13	422210	5c134ee7e32f86000165ba0d	828585339	1	main_slash	7	advance_on_keypress_SLASH	58	stimuli_distractor_diamondtriangles.svg	stimuli_target_circlediamonds.svg	14	yes	57	0	451
6.6.0	win	2022-12-26	10:46:10	10:53:15	423786	5c134ee7e32f86000165ba0d	828585339	1	main_slash	7	main_slash	59	stimuli_target_diamondcircles.svg	stimuli_distractor_diamondtriangles.svg	23	yes	53	1	480
6.6.0	win	2022-12-26	10:46:10	10:53:15	423786	5c134ee7e32f86000165ba0d	828585339	1	main_slash	7	advance_on_keypress_SLASH	60	stimuli_target_diamondcircles.svg	stimuli_distractor_diamondtriangles.svg	23	yes	57	0	420
6.6.0	win	2022-12-26	10:46:10	10:53:16	425327	5c134ee7e32f86000165ba0d	828585339	1	main_slash	7	main_slash	61	stimuli_distractor_trianglediamonds.svg	stimuli_target_squaretriangles.svg	11	yes	53	1	475
6.6.0	win	2022-12-26	10:46:10	10:53:16	425327	5c134ee7e32f86000165ba0d	828585339	1	main_slash	7	advance_on_keypress_SLASH	62	stimuli_distractor_trianglediamonds.svg	stimuli_target_squaretriangles.svg	11	yes	57	0	382
6.6.0	win	2022-12-26	10:46:10	10:53:18	426786	5c134ee7e32f86000165ba0d	828585339	1	main_slash	7	main_slash	63	stimuli_target_circlediamonds.svg	stimuli_distractor_trianglediamonds.svg	2	yes	53	1	430
6.6.0	win	2022-12-26	10:46:10	10:53:18	426786	5c134ee7e32f86000165ba0d	828585339	1	main_slash	7	advance_on_keypress_SLASH	64	stimuli_target_circlediamonds.svg	stimuli_distractor_trianglediamonds.svg	2	yes	57	0	468
6.6.0	win	2022-12-26	10:46:10	10:53:19	428315	5c134ee7e32f86000165ba0d	828585339	1	main_slash	7	main_slash	65	stimuli_distractor_trianglediamonds.svg	stimuli_target_trianglecircles.svg	25	yes	53	1	417
6.6.0	win	2022-12-26	10:46:10	10:53:19	428315	5c134ee7e32f86000165ba0d	828585339	1	main_slash	7	advance_on_keypress_SLASH	66	stimuli_distractor_trianglediamonds.svg	stimuli_target_trianglecircles.svg	25	yes	57	0	430
6.6.0	win	2022-12-26	10:46:10	10:53:22	431405	5c134ee7e32f86000165ba0d	828585339	1	main_slash	7	main_slash	67	stimuli_distractor_trianglediamonds.svg	stimuli_distractor_trianglediamonds.svg	33	no	0	1	2000
6.6.0	win	2022-12-26	10:46:10	10:53:22	431405	5c134ee7e32f86000165ba0d	828585339	1	main_slash	7	advance_on_keypress_SLASH	68	stimuli_distractor_trianglediamonds.svg	stimuli_distractor_trianglediamonds.svg	33	no	57	0	411
6.6.0	win	2022-12-26	10:46:10	10:53:24	432894	5c134ee7e32f86000165ba0d	828585339	1	main_slash	7	main_slash	69	stimuli_distractor_diamondtriangles.svg	stimuli_target_circletriangles.svg	13	yes	53	1	433
6.6.0	win	2022-12-26	10:46:10	10:53:24	432894	5c134ee7e32f86000165ba0d	828585339	1	main_slash	7	advance_on_keypress_SLASH	70	stimuli_distractor_diamondtriangles.svg	stimuli_target_circletriangles.svg	13	yes	57	0	432
6.6.0	win	2022-12-26	10:46:10	10:53:25	434683	5c134ee7e32f86000165ba0d	828585339	1	main_slash	7	main_slash	71	stimuli_distractor_diamondtriangles.svg	stimuli_target_trianglesquares.svg	30	yes	53	1	709
6.6.0	win	2022-12-26	10:46:10	10:53:25	434683	5c134ee7e32f86000165ba0d	828585339	1	main_slash	7	advance_on_keypress_SLASH	72	stimuli_distractor_diamondtriangles.svg	stimuli_target_trianglesquares.svg	30	yes	57	0	455
6.6.0	win	2022-12-26	10:46:10	10:53:29	437803	5c134ee7e32f86000165ba0d	828585339	1	main_slash	7	main_slash	73	stimuli_distractor_diamondtriangles.svg	stimuli_distractor_trianglediamonds.svg	38	no	0	1	2000
6.6.0	win	2022-12-26	10:46:10	10:53:29	437803	5c134ee7e32f86000165ba0d	828585339	1	main_slash	7	advance_on_keypress_SLASH	74	stimuli_distractor_diamondtriangles.svg	stimuli_distractor_trianglediamonds.svg	38	no	57	0	354
6.6.0	win	2022-12-26	10:46:10	10:53:30	439293	5c134ee7e32f86000165ba0d	828585339	1	main_slash	7	main_slash	75	stimuli_distractor_diamondtriangles.svg	stimuli_target_squaretriangles.svg	15	yes	53	1	475
6.6.0	win	2022-12-26	10:46:10	10:53:30	439293	5c134ee7e32f86000165ba0d	828585339	1	main_slash	7	advance_on_keypress_SLASH	76	stimuli_distractor_diamondtriangles.svg	stimuli_target_squaretriangles.svg	15	yes	57	0	383
6.6.0	win	2022-12-26	10:46:10	10:53:32	440771	5c134ee7e32f86000165ba0d	828585339	1	main_slash	7	main_slash	77	stimuli_target_squaretriangles.svg	stimuli_distractor_diamondtriangles.svg	7	yes	53	1	447
6.6.0	win	2022-12-26	10:46:10	10:53:32	440771	5c134ee7e32f86000165ba0d	828585339	1	main_slash	7	advance_on_keypress_SLASH	78	stimuli_target_squaretriangles.svg	stimuli_distractor_diamondtriangles.svg	7	yes	57	0	404
6.6.0	win	2022-12-26	10:46:10	10:53:33	442277	5c134ee7e32f86000165ba0d	828585339	1	main_slash	7	main_slash	79	stimuli_target_circlediamonds.svg	stimuli_distractor_diamondtriangles.svg	6	yes	53	1	459
6.6.0	win	2022-12-26	10:46:10	10:53:33	442277	5c134ee7e32f86000165ba0d	828585339	1	main_slash	7	advance_on_keypress_SLASH	80	stimuli_target_circlediamonds.svg	stimuli_distractor_diamondtriangles.svg	6	yes	57	0	399
6.6.0	win	2022-12-26	10:46:10	10:53:36	445325	5c134ee7e32f86000165ba0d	828585339	1	main_slash	7	main_slash	81	stimuli_distractor_diamondtriangles.svg	stimuli_distractor_diamondtriangles.svg	39	no	0	1	2000
6.6.0	win	2022-12-26	10:46:10	10:53:36	445325	5c134ee7e32f86000165ba0d	828585339	1	main_slash	7	advance_on_keypress_SLASH	82	stimuli_distractor_diamondtriangles.svg	stimuli_distractor_diamondtriangles.svg	39	no	57	0	326
6.6.0	win	2022-12-26	10:46:10	10:53:38	446779	5c134ee7e32f86000165ba0d	828585339	1	main_slash	7	main_slash	83	stimuli_target_trianglesquares.svg	stimuli_distractor_trianglediamonds.svg	18	yes	53	1	462
6.6.0	win	2022-12-26	10:46:10	10:53:38	446779	5c134ee7e32f86000165ba0d	828585339	1	main_slash	7	advance_on_keypress_SLASH	84	stimuli_target_trianglesquares.svg	stimuli_distractor_trianglediamonds.svg	18	yes	57	0	371
6.6.0	win	2022-12-26	10:46:10	10:53:39	448277	5c134ee7e32f86000165ba0d	828585339	1	main_slash	7	main_slash	85	stimuli_distractor_diamondtriangles.svg	stimuli_target_circletriangles.svg	13	yes	53	1	484
6.6.0	win	2022-12-26	10:46:10	10:53:39	448277	5c134ee7e32f86000165ba0d	828585339	1	main_slash	7	advance_on_keypress_SLASH	86	stimuli_distractor_diamondtriangles.svg	stimuli_target_circletriangles.svg	13	yes	57	0	351
6.6.0	win	2022-12-26	10:46:10	10:53:41	449744	5c134ee7e32f86000165ba0d	828585339	1	main_slash	7	main_slash	87	stimuli_distractor_trianglediamonds.svg	stimuli_target_circletriangles.svg	9	yes	53	1	455
6.6.0	win	2022-12-26	10:46:10	10:53:41	449744	5c134ee7e32f86000165ba0d	828585339	1	main_slash	7	advance_on_keypress_SLASH	88	stimuli_distractor_trianglediamonds.svg	stimuli_target_circletriangles.svg	9	yes	57	0	357
6.6.0	win	2022-12-26	10:46:10	10:53:42	451259	5c134ee7e32f86000165ba0d	828585339	1	main_slash	7	main_slash	89	stimuli_distractor_diamondtriangles.svg	stimuli_target_squaretriangles.svg	15	yes	53	1	493
6.6.0	win	2022-12-26	10:46:10	10:53:42	451259	5c134ee7e32f86000165ba0d	828585339	1	main_slash	7	advance_on_keypress_SLASH	90	stimuli_distractor_diamondtriangles.svg	stimuli_target_squaretriangles.svg	15	yes	57	0	303
6.6.0	win	2022-12-26	10:46:10	10:53:43	452632	5c134ee7e32f86000165ba0d	828585339	1	main_slash	7	main_slash	91	stimuli_target_squarediamonds.svg	stimuli_distractor_diamondtriangles.svg	8	yes	53	1	418
6.6.0	win	2022-12-26	10:46:10	10:53:43	452632	5c134ee7e32f86000165ba0d	828585339	1	main_slash	7	advance_on_keypress_SLASH	92	stimuli_target_squarediamonds.svg	stimuli_distractor_diamondtriangles.svg	8	yes	57	0	329
6.6.0	win	2022-12-26	10:46:10	10:53:46	455617	5c134ee7e32f86000165ba0d	828585339	1	main_slash	7	main_slash	93	stimuli_distractor_diamondtriangles.svg	stimuli_distractor_trianglediamonds.svg	37	no	0	1	2000
6.6.0	win	2022-12-26	10:46:10	10:53:46	455617	5c134ee7e32f86000165ba0d	828585339	1	main_slash	7	advance_on_keypress_SLASH	94	stimuli_distractor_diamondtriangles.svg	stimuli_distractor_trianglediamonds.svg	37	no	57	0	9906
6.6.0	win	2022-12-26	10:46:10	10:53:58	466982	5c134ee7e32f86000165ba0d	828585339	1	main_slash	7	main_slash	95	stimuli_distractor_diamondtriangles.svg	stimuli_target_diamondsquares.svg	32	yes	53	1	794
6.6.0	win	2022-12-26	10:46:10	10:53:58	466982	5c134ee7e32f86000165ba0d	828585339	1	main_slash	7	advance_on_keypress_SLASH	96	stimuli_distractor_diamondtriangles.svg	stimuli_target_diamondsquares.svg	32	yes	57	0	402
6.6.0	win	2022-12-26	10:46:10	10:53:59	468558	5c134ee7e32f86000165ba0d	828585339	1	main_slash	7	main_slash	97	stimuli_target_trianglesquares.svg	stimuli_distractor_diamondtriangles.svg	22	yes	53	1	512
6.6.0	win	2022-12-26	10:46:10	10:53:59	468558	5c134ee7e32f86000165ba0d	828585339	1	main_slash	7	advance_on_keypress_SLASH	98	stimuli_target_trianglesquares.svg	stimuli_distractor_diamondtriangles.svg	22	yes	57	0	291
6.6.0	win	2022-12-26	10:46:10	10:54:02	471513	5c134ee7e32f86000165ba0d	828585339	1	main_slash	7	main_slash	99	stimuli_distractor_diamondtriangles.svg	stimuli_distractor_diamondtriangles.svg	40	no	0	1	2000
6.6.0	win	2022-12-26	10:46:10	10:54:02	471513	5c134ee7e32f86000165ba0d	828585339	1	main_slash	7	advance_on_keypress_SLASH	100	stimuli_distractor_diamondtriangles.svg	stimuli_distractor_diamondtriangles.svg	40	no	57	0	284
6.6.0	win	2022-12-26	10:46:10	10:54:05	474443	5c134ee7e32f86000165ba0d	828585339	1	main_slash	7	main_slash	101	stimuli_distractor_trianglediamonds.svg	stimuli_distractor_trianglediamonds.svg	34	no	0	1	2000
6.6.0	win	2022-12-26	10:46:10	10:54:05	474443	5c134ee7e32f86000165ba0d	828585339	1	main_slash	7	advance_on_keypress_SLASH	102	stimuli_distractor_trianglediamonds.svg	stimuli_distractor_trianglediamonds.svg	34	no	57	0	303
6.6.0	win	2022-12-26	10:46:10	10:54:07	475959	5c134ee7e32f86000165ba0d	828585339	1	main_slash	7	main_slash	103	stimuli_target_trianglecircles.svg	stimuli_distractor_diamondtriangles.svg	21	yes	53	1	544
6.6.0	win	2022-12-26	10:46:10	10:54:07	475959	5c134ee7e32f86000165ba0d	828585339	1	main_slash	7	advance_on_keypress_SLASH	104	stimuli_target_trianglecircles.svg	stimuli_distractor_diamondtriangles.svg	21	yes	57	0	346
6.6.0	win	2022-12-26	10:46:10	10:54:08	477494	5c134ee7e32f86000165ba0d	828585339	1	main_slash	7	main_slash	105	stimuli_target_circlediamonds.svg	stimuli_distractor_diamondtriangles.svg	6	yes	53	1	522
6.6.0	win	2022-12-26	10:46:10	10:54:08	477494	5c134ee7e32f86000165ba0d	828585339	1	main_slash	7	advance_on_keypress_SLASH	106	stimuli_target_circlediamonds.svg	stimuli_distractor_diamondtriangles.svg	6	yes	57	0	332
6.6.0	win	2022-12-26	10:46:10	10:54:10	479001	5c134ee7e32f86000165ba0d	828585339	1	main_slash	7	main_slash	107	stimuli_distractor_trianglediamonds.svg	stimuli_target_squaretriangles.svg	11	yes	53	1	518
6.6.0	win	2022-12-26	10:46:10	10:54:10	479001	5c134ee7e32f86000165ba0d	828585339	1	main_slash	7	advance_on_keypress_SLASH	108	stimuli_distractor_trianglediamonds.svg	stimuli_target_squaretriangles.svg	11	yes	57	0	320
6.6.0	win	2022-12-26	10:46:10	10:54:11	480514	5c134ee7e32f86000165ba0d	828585339	1	main_slash	7	main_slash	109	stimuli_target_diamondcircles.svg	stimuli_distractor_diamondtriangles.svg	23	yes	53	1	554
6.6.0	win	2022-12-26	10:46:10	10:54:11	480514	5c134ee7e32f86000165ba0d	828585339	1	main_slash	7	advance_on_keypress_SLASH	110	stimuli_target_diamondcircles.svg	stimuli_distractor_diamondtriangles.svg	23	yes	57	0	347
6.6.0	win	2022-12-26	10:46:10	10:54:13	482105	5c134ee7e32f86000165ba0d	828585339	1	main_slash	7	main_slash	111	stimuli_distractor_trianglediamonds.svg	stimuli_target_diamondcircles.svg	27	yes	53	1	589
6.6.0	win	2022-12-26	10:46:10	10:54:13	482105	5c134ee7e32f86000165ba0d	828585339	1	main_slash	7	advance_on_keypress_SLASH	112	stimuli_distractor_trianglediamonds.svg	stimuli_target_diamondcircles.svg	27	yes	57	0	341
6.6.0	win	2022-12-26	10:46:10	10:54:14	483579	5c134ee7e32f86000165ba0d	828585339	1	main_slash	7	main_slash	113	stimuli_distractor_diamondtriangles.svg	stimuli_target_diamondcircles.svg	31	yes	53	1	477
6.6.0	win	2022-12-26	10:46:10	10:54:14	483579	5c134ee7e32f86000165ba0d	828585339	1	main_slash	7	advance_on_keypress_SLASH	114	stimuli_distractor_diamondtriangles.svg	stimuli_target_diamondcircles.svg	31	yes	57	0	329
6.6.0	win	2022-12-26	10:46:10	10:54:17	486573	5c134ee7e32f86000165ba0d	828585339	1	main_slash	7	main_slash	115	stimuli_distractor_trianglediamonds.svg	stimuli_distractor_trianglediamonds.svg	33	no	0	1	2000
6.6.0	win	2022-12-26	10:46:10	10:54:17	486573	5c134ee7e32f86000165ba0d	828585339	1	main_slash	7	advance_on_keypress_SLASH	116	stimuli_distractor_trianglediamonds.svg	stimuli_distractor_trianglediamonds.svg	33	no	57	0	346
6.6.0	win	2022-12-26	10:46:10	10:54:19	488062	5c134ee7e32f86000165ba0d	828585339	1	main_slash	7	main_slash	117	stimuli_distractor_trianglediamonds.svg	stimuli_target_squarediamonds.svg	12	yes	53	1	491
6.6.0	win	2022-12-26	10:46:10	10:54:19	488062	5c134ee7e32f86000165ba0d	828585339	1	main_slash	7	advance_on_keypress_SLASH	118	stimuli_distractor_trianglediamonds.svg	stimuli_target_squarediamonds.svg	12	yes	57	0	286
6.6.0	win	2022-12-26	10:46:10	10:54:20	489443	5c134ee7e32f86000165ba0d	828585339	1	main_slash	7	main_slash	119	stimuli_target_squaretriangles.svg	stimuli_distractor_trianglediamonds.svg	3	yes	53	1	440
6.6.0	win	2022-12-26	10:46:10	10:54:20	489443	5c134ee7e32f86000165ba0d	828585339	1	main_slash	7	advance_on_keypress_SLASH	120	stimuli_target_squaretriangles.svg	stimuli_distractor_trianglediamonds.svg	3	yes	57	0	311
6.6.0	win	2022-12-26	10:46:10	10:54:22	490890	5c134ee7e32f86000165ba0d	828585339	1	main_slash	7	main_slash	121	stimuli_distractor_diamondtriangles.svg	stimuli_target_squarediamonds.svg	16	yes	53	1	479
6.6.0	win	2022-12-26	10:46:10	10:54:22	490890	5c134ee7e32f86000165ba0d	828585339	1	main_slash	7	advance_on_keypress_SLASH	122	stimuli_distractor_diamondtriangles.svg	stimuli_target_squarediamonds.svg	16	yes	57	0	276
6.6.0	win	2022-12-26	10:46:10	10:54:23	492333	5c134ee7e32f86000165ba0d	828585339	1	main_slash	7	main_slash	123	stimuli_distractor_diamondtriangles.svg	stimuli_target_circlediamonds.svg	14	yes	53	1	511
6.6.0	win	2022-12-26	10:46:10	10:54:23	492333	5c134ee7e32f86000165ba0d	828585339	1	main_slash	7	advance_on_keypress_SLASH	124	stimuli_distractor_diamondtriangles.svg	stimuli_target_circlediamonds.svg	14	yes	57	0	210
6.6.0	win	2022-12-26	10:46:10	10:54:24	493615	5c134ee7e32f86000165ba0d	828585339	1	main_slash	7	main_slash	125	stimuli_target_circletriangles.svg	stimuli_distractor_diamondtriangles.svg	5	yes	53	1	416
6.6.0	win	2022-12-26	10:46:10	10:54:24	493615	5c134ee7e32f86000165ba0d	828585339	1	main_slash	7	advance_on_keypress_SLASH	126	stimuli_target_circletriangles.svg	stimuli_distractor_diamondtriangles.svg	5	yes	57	0	287
6.6.0	win	2022-12-26	10:46:10	10:54:27	496559	5c134ee7e32f86000165ba0d	828585339	1	main_slash	7	main_slash	127	stimuli_distractor_trianglediamonds.svg	stimuli_distractor_diamondtriangles.svg	35	no	0	1	2000
6.6.0	win	2022-12-26	10:46:10	10:54:27	496559	5c134ee7e32f86000165ba0d	828585339	1	main_slash	7	advance_on_keypress_SLASH	128	stimuli_distractor_trianglediamonds.svg	stimuli_distractor_diamondtriangles.svg	35	no	57	0	320
6.6.0	win	2022-12-26	10:46:10	10:54:29	498018	5c134ee7e32f86000165ba0d	828585339	1	main_slash	7	main_slash	129	stimuli_target_diamondcircles.svg	stimuli_distractor_trianglediamonds.svg	19	yes	53	1	474
6.6.0	win	2022-12-26	10:46:10	10:54:29	498018	5c134ee7e32f86000165ba0d	828585339	1	main_slash	7	advance_on_keypress_SLASH	130	stimuli_target_diamondcircles.svg	stimuli_distractor_trianglediamonds.svg	19	yes	57	0	270
6.6.0	win	2022-12-26	10:46:10	10:54:30	499432	5c134ee7e32f86000165ba0d	828585339	1	main_slash	7	main_slash	131	stimuli_target_squaretriangles.svg	stimuli_distractor_diamondtriangles.svg	7	yes	53	1	474
6.6.0	win	2022-12-26	10:46:10	10:54:30	499432	5c134ee7e32f86000165ba0d	828585339	1	main_slash	7	advance_on_keypress_SLASH	132	stimuli_target_squaretriangles.svg	stimuli_distractor_diamondtriangles.svg	7	yes	57	0	262
6.6.0	win	2022-12-26	10:46:10	10:54:33	502336	5c134ee7e32f86000165ba0d	828585339	1	main_slash	7	main_slash	133	stimuli_distractor_diamondtriangles.svg	stimuli_distractor_trianglediamonds.svg	38	no	0	1	2000
6.6.0	win	2022-12-26	10:46:10	10:54:33	502336	5c134ee7e32f86000165ba0d	828585339	1	main_slash	7	advance_on_keypress_SLASH	134	stimuli_distractor_diamondtriangles.svg	stimuli_distractor_trianglediamonds.svg	38	no	57	0	281
6.6.0	win	2022-12-26	10:46:10	10:54:35	503920	5c134ee7e32f86000165ba0d	828585339	1	main_slash	7	main_slash	135	stimuli_target_diamondsquares.svg	stimuli_distractor_diamondtriangles.svg	24	yes	53	1	645
6.6.0	win	2022-12-26	10:46:10	10:54:35	503920	5c134ee7e32f86000165ba0d	828585339	1	main_slash	7	advance_on_keypress_SLASH	136	stimuli_target_diamondsquares.svg	stimuli_distractor_diamondtriangles.svg	24	yes	57	0	266
6.6.0	win	2022-12-26	10:46:10	10:54:36	505266	5c134ee7e32f86000165ba0d	828585339	1	main_slash	7	main_slash	137	stimuli_target_trianglecircles.svg	stimuli_distractor_trianglediamonds.svg	17	yes	53	1	430
6.6.0	win	2022-12-26	10:46:10	10:54:36	505266	5c134ee7e32f86000165ba0d	828585339	1	main_slash	7	advance_on_keypress_SLASH	138	stimuli_target_trianglecircles.svg	stimuli_distractor_trianglediamonds.svg	17	yes	57	0	252
6.6.0	win	2022-12-26	10:46:10	10:54:37	506635	5c134ee7e32f86000165ba0d	828585339	1	main_slash	7	main_slash	139	stimuli_distractor_trianglediamonds.svg	stimuli_target_trianglecircles.svg	25	yes	53	1	456
6.6.0	win	2022-12-26	10:46:10	10:54:37	506635	5c134ee7e32f86000165ba0d	828585339	1	main_slash	7	advance_on_keypress_SLASH	140	stimuli_distractor_trianglediamonds.svg	stimuli_target_trianglecircles.svg	25	yes	57	0	301
6.6.0	win	2022-12-26	10:46:10	10:54:40	509578	5c134ee7e32f86000165ba0d	828585339	1	main_slash	7	main_slash	141	stimuli_distractor_trianglediamonds.svg	stimuli_distractor_diamondtriangles.svg	36	no	0	1	2000
6.6.0	win	2022-12-26	10:46:10	10:54:40	509578	5c134ee7e32f86000165ba0d	828585339	1	main_slash	7	advance_on_keypress_SLASH	142	stimuli_distractor_trianglediamonds.svg	stimuli_distractor_diamondtriangles.svg	36	no	57	0	255
6.6.0	win	2022-12-26	10:46:10	10:54:42	511060	5c134ee7e32f86000165ba0d	828585339	1	main_slash	7	main_slash	143	stimuli_target_squarediamonds.svg	stimuli_distractor_trianglediamonds.svg	4	yes	53	1	563
6.6.0	win	2022-12-26	10:46:10	10:54:42	511060	5c134ee7e32f86000165ba0d	828585339	1	main_slash	7	advance_on_keypress_SLASH	144	stimuli_target_squarediamonds.svg	stimuli_distractor_trianglediamonds.svg	4	yes	57	0	236
6.6.0	win	2022-12-26	10:46:10	10:54:43	512329	5c134ee7e32f86000165ba0d	828585339	1	main_slash	7	main_slash	145	stimuli_target_circlediamonds.svg	stimuli_distractor_trianglediamonds.svg	2	yes	53	1	380
6.6.0	win	2022-12-26	10:46:10	10:54:43	512329	5c134ee7e32f86000165ba0d	828585339	1	main_slash	7	advance_on_keypress_SLASH	146	stimuli_target_circlediamonds.svg	stimuli_distractor_trianglediamonds.svg	2	yes	57	0	297
6.6.0	win	2022-12-26	10:46:10	10:54:45	513920	5c134ee7e32f86000165ba0d	828585339	1	main_slash	7	main_slash	147	stimuli_target_circletriangles.svg	stimuli_distractor_trianglediamonds.svg	1	yes	53	1	635
6.6.0	win	2022-12-26	10:46:10	10:54:45	513920	5c134ee7e32f86000165ba0d	828585339	1	main_slash	7	advance_on_keypress_SLASH	148	stimuli_target_circletriangles.svg	stimuli_distractor_trianglediamonds.svg	1	yes	57	0	434
6.6.0	win	2022-12-26	10:46:10	10:54:47	515764	5c134ee7e32f86000165ba0d	828585339	1	main_slash	7	main_slash	149	stimuli_target_diamondsquares.svg	stimuli_distractor_trianglediamonds.svg	20	yes	53	1	768
6.6.0	win	2022-12-26	10:46:10	10:54:47	515764	5c134ee7e32f86000165ba0d	828585339	1	main_slash	7	advance_on_keypress_SLASH	150	stimuli_target_diamondsquares.svg	stimuli_distractor_trianglediamonds.svg	20	yes	57	0	423
6.6.0	win	2022-12-26	10:46:10	10:54:48	517441	5c134ee7e32f86000165ba0d	828585339	1	main_slash	7	main_slash	151	stimuli_distractor_diamondtriangles.svg	stimuli_target_trianglesquares.svg	30	yes	53	1	581
6.6.0	win	2022-12-26	10:46:10	10:54:48	517441	5c134ee7e32f86000165ba0d	828585339	1	main_slash	7	advance_on_keypress_SLASH	152	stimuli_distractor_diamondtriangles.svg	stimuli_target_trianglesquares.svg	30	yes	57	0	261
6.6.0	win	2022-12-26	10:46:10	10:54:50	518792	5c134ee7e32f86000165ba0d	828585339	1	main_slash	7	main_slash	153	stimuli_distractor_trianglediamonds.svg	stimuli_target_trianglesquares.svg	26	yes	53	1	440
6.6.0	win	2022-12-26	10:46:10	10:54:50	518792	5c134ee7e32f86000165ba0d	828585339	1	main_slash	7	advance_on_keypress_SLASH	154	stimuli_distractor_trianglediamonds.svg	stimuli_target_trianglesquares.svg	26	yes	57	0	286
6.6.0	win	2022-12-26	10:46:10	10:54:51	520236	5c134ee7e32f86000165ba0d	828585339	1	main_slash	7	main_slash	155	stimuli_distractor_trianglediamonds.svg	stimuli_target_diamondsquares.svg	28	yes	53	1	512
6.6.0	win	2022-12-26	10:46:10	10:54:51	520236	5c134ee7e32f86000165ba0d	828585339	1	main_slash	7	advance_on_keypress_SLASH	156	stimuli_distractor_trianglediamonds.svg	stimuli_target_diamondsquares.svg	28	yes	57	0	444
6.6.0	win	2022-12-26	10:46:10	10:54:53	521957	5c134ee7e32f86000165ba0d	828585339	1	main_slash	7	main_slash	157	stimuli_distractor_trianglediamonds.svg	stimuli_target_circlediamonds.svg	10	yes	53	1	618
6.6.0	win	2022-12-26	10:46:10	10:54:53	521957	5c134ee7e32f86000165ba0d	828585339	1	main_slash	7	advance_on_keypress_SLASH	158	stimuli_distractor_trianglediamonds.svg	stimuli_target_circlediamonds.svg	10	yes	57	0	312
6.6.0	win	2022-12-26	10:46:10	10:54:55	523876	5c134ee7e32f86000165ba0d	828585339	1	main_slash	7	main_slash	159	stimuli_distractor_diamondtriangles.svg	stimuli_target_trianglecircles.svg	29	yes	53	1	961
6.6.0	win	2022-12-26	10:46:10	10:54:55	523876	5c134ee7e32f86000165ba0d	828585339	1	main_slash	7	advance_on_keypress_SLASH	160	stimuli_distractor_diamondtriangles.svg	stimuli_target_trianglecircles.svg	29	yes	57	0	379
6.6.0	win	2022-12-26	10:46:10	10:57:07	655987	5c134ee7e32f86000165ba0d	828585339	1	practice_z	9	practice_z	1	stimuli_distractor_trianglediamonds.svg	stimuli_distractor_diamondtriangles.svg	16	no	44	0	466
6.6.0	win	2022-12-26	10:46:10	10:57:07	655987	5c134ee7e32f86000165ba0d	828585339	1	practice_z	9	advance_on_keypress_ZEE	2	stimuli_distractor_trianglediamonds.svg	stimuli_distractor_diamondtriangles.svg	16	no	57	0	455
6.6.0	win	2022-12-26	10:46:10	10:57:09	658588	5c134ee7e32f86000165ba0d	828585339	1	practice_z	9	practice_z	3	stimuli_target_diamondsquares.svg	stimuli_distractor_trianglediamonds.svg	6	yes	44	1	499
6.6.0	win	2022-12-26	10:46:10	10:57:09	658588	5c134ee7e32f86000165ba0d	828585339	1	practice_z	9	advance_on_keypress_ZEE	4	stimuli_target_diamondsquares.svg	stimuli_distractor_trianglediamonds.svg	6	yes	57	0	614
6.6.0	win	2022-12-26	10:46:10	10:57:12	661351	5c134ee7e32f86000165ba0d	828585339	1	practice_z	9	practice_z	5	stimuli_distractor_trianglediamonds.svg	stimuli_target_diamondcircles.svg	12	yes	44	1	477
6.6.0	win	2022-12-26	10:46:10	10:57:12	661351	5c134ee7e32f86000165ba0d	828585339	1	practice_z	9	advance_on_keypress_ZEE	6	stimuli_distractor_trianglediamonds.svg	stimuli_target_diamondcircles.svg	12	yes	57	0	391
6.6.0	win	2022-12-26	10:46:10	10:57:15	663818	5c134ee7e32f86000165ba0d	828585339	1	practice_z	9	practice_z	7	stimuli_target_diamondsquares.svg	stimuli_distractor_diamondtriangles.svg	3	yes	44	1	415
6.6.0	win	2022-12-26	10:46:10	10:57:15	663818	5c134ee7e32f86000165ba0d	828585339	1	practice_z	9	advance_on_keypress_ZEE	8	stimuli_target_diamondsquares.svg	stimuli_distractor_diamondtriangles.svg	3	yes	57	0	390
6.6.0	win	2022-12-26	10:46:10	10:57:17	666275	5c134ee7e32f86000165ba0d	828585339	1	practice_z	9	practice_z	9	stimuli_target_squarediamonds.svg	stimuli_distractor_diamondtriangles.svg	2	yes	44	1	404
6.6.0	win	2022-12-26	10:46:10	10:57:17	666275	5c134ee7e32f86000165ba0d	828585339	1	practice_z	9	advance_on_keypress_ZEE	10	stimuli_target_squarediamonds.svg	stimuli_distractor_diamondtriangles.svg	2	yes	57	0	379
6.6.0	win	2022-12-26	10:46:10	10:57:20	668760	5c134ee7e32f86000165ba0d	828585339	1	practice_z	9	practice_z	11	stimuli_distractor_diamondtriangles.svg	stimuli_target_trianglecircles.svg	9	yes	44	1	435
6.6.0	win	2022-12-26	10:46:10	10:57:20	668760	5c134ee7e32f86000165ba0d	828585339	1	practice_z	9	advance_on_keypress_ZEE	12	stimuli_distractor_diamondtriangles.svg	stimuli_target_trianglecircles.svg	9	yes	57	0	343
6.6.0	win	2022-12-26	10:46:10	10:57:22	671477	5c134ee7e32f86000165ba0d	828585339	1	practice_z	9	practice_z	13	stimuli_distractor_diamondtriangles.svg	stimuli_distractor_trianglediamonds.svg	14	no	44	0	712
6.6.0	win	2022-12-26	10:46:10	10:57:22	671477	5c134ee7e32f86000165ba0d	828585339	1	practice_z	9	advance_on_keypress_ZEE	14	stimuli_distractor_diamondtriangles.svg	stimuli_distractor_trianglediamonds.svg	14	no	57	0	298
6.6.0	win	2022-12-26	10:46:10	10:57:25	673880	5c134ee7e32f86000165ba0d	828585339	1	practice_z	9	practice_z	15	stimuli_target_circlediamonds.svg	stimuli_distractor_trianglediamonds.svg	4	yes	44	1	437
6.6.0	win	2022-12-26	10:46:10	10:57:25	673880	5c134ee7e32f86000165ba0d	828585339	1	practice_z	9	advance_on_keypress_ZEE	16	stimuli_target_circlediamonds.svg	stimuli_distractor_trianglediamonds.svg	4	yes	57	0	346
6.6.0	win	2022-12-26	10:46:10	10:57:29	677892	5c134ee7e32f86000165ba0d	828585339	1	practice_z	9	practice_z	17	stimuli_distractor_trianglediamonds.svg	stimuli_distractor_trianglediamonds.svg	15	no	0	1	2000
6.6.0	win	2022-12-26	10:46:10	10:57:29	677892	5c134ee7e32f86000165ba0d	828585339	1	practice_z	9	advance_on_keypress_ZEE	18	stimuli_distractor_trianglediamonds.svg	stimuli_distractor_trianglediamonds.svg	15	no	57	0	361
6.6.0	win	2022-12-26	10:46:10	10:57:31	680395	5c134ee7e32f86000165ba0d	828585339	1	practice_z	9	practice_z	19	stimuli_distractor_diamondtriangles.svg	stimuli_target_diamondcircles.svg	8	yes	44	1	473
6.6.0	win	2022-12-26	10:46:10	10:57:31	680395	5c134ee7e32f86000165ba0d	828585339	1	practice_z	9	advance_on_keypress_ZEE	20	stimuli_distractor_diamondtriangles.svg	stimuli_target_diamondcircles.svg	8	yes	57	0	477
6.6.0	win	2022-12-26	10:46:10	10:57:34	682989	5c134ee7e32f86000165ba0d	828585339	1	practice_z	9	practice_z	21	stimuli_target_circlediamonds.svg	stimuli_distractor_diamondtriangles.svg	1	yes	44	1	441
6.6.0	win	2022-12-26	10:46:10	10:57:34	682989	5c134ee7e32f86000165ba0d	828585339	1	practice_z	9	advance_on_keypress_ZEE	22	stimuli_target_circlediamonds.svg	stimuli_distractor_diamondtriangles.svg	1	yes	57	0	381
6.6.0	win	2022-12-26	10:46:10	10:57:36	685488	5c134ee7e32f86000165ba0d	828585339	1	practice_z	9	practice_z	23	stimuli_target_squarediamonds.svg	stimuli_distractor_trianglediamonds.svg	5	yes	44	1	453
6.6.0	win	2022-12-26	10:46:10	10:57:36	685488	5c134ee7e32f86000165ba0d	828585339	1	practice_z	9	advance_on_keypress_ZEE	24	stimuli_target_squarediamonds.svg	stimuli_distractor_trianglediamonds.svg	5	yes	57	0	361
6.6.0	win	2022-12-26	10:46:10	10:57:39	688140	5c134ee7e32f86000165ba0d	828585339	1	practice_z	9	practice_z	25	stimuli_distractor_trianglediamonds.svg	stimuli_target_squarediamonds.svg	11	yes	44	1	617
6.6.0	win	2022-12-26	10:46:10	10:57:39	688140	5c134ee7e32f86000165ba0d	828585339	1	practice_z	9	advance_on_keypress_ZEE	26	stimuli_distractor_trianglediamonds.svg	stimuli_target_squarediamonds.svg	11	yes	57	0	343
6.6.0	win	2022-12-26	10:46:10	10:57:43	692155	5c134ee7e32f86000165ba0d	828585339	1	practice_z	9	practice_z	27	stimuli_distractor_diamondtriangles.svg	stimuli_distractor_diamondtriangles.svg	13	no	0	1	2000
6.6.0	win	2022-12-26	10:46:10	10:57:43	692155	5c134ee7e32f86000165ba0d	828585339	1	practice_z	9	advance_on_keypress_ZEE	28	stimuli_distractor_diamondtriangles.svg	stimuli_distractor_diamondtriangles.svg	13	no	57	0	670
6.6.0	win	2022-12-26	10:46:10	10:57:46	694979	5c134ee7e32f86000165ba0d	828585339	1	practice_z	9	practice_z	29	stimuli_distractor_trianglediamonds.svg	stimuli_target_circlediamonds.svg	10	yes	44	1	473
6.6.0	win	2022-12-26	10:46:10	10:57:46	694979	5c134ee7e32f86000165ba0d	828585339	1	practice_z	9	advance_on_keypress_ZEE	30	stimuli_distractor_trianglediamonds.svg	stimuli_target_circlediamonds.svg	10	yes	57	0	318
6.6.0	win	2022-12-26	10:46:10	10:57:48	697379	5c134ee7e32f86000165ba0d	828585339	1	practice_z	9	practice_z	31	stimuli_distractor_diamondtriangles.svg	stimuli_target_circletriangles.svg	7	yes	44	1	423
6.6.0	win	2022-12-26	10:46:10	10:57:48	697379	5c134ee7e32f86000165ba0d	828585339	1	practice_z	9	advance_on_keypress_ZEE	32	stimuli_distractor_diamondtriangles.svg	stimuli_target_circletriangles.svg	7	yes	57	0	333
6.6.0	win	2022-12-26	10:46:10	10:57:55	704360	5c134ee7e32f86000165ba0d	828585339	1	main_z	11	main_z	1	stimuli_target_circlediamonds.svg	stimuli_distractor_trianglediamonds.svg	2	yes	44	1	431
6.6.0	win	2022-12-26	10:46:10	10:57:55	704360	5c134ee7e32f86000165ba0d	828585339	1	main_z	11	advance_on_keypress_ZEE	2	stimuli_target_circlediamonds.svg	stimuli_distractor_trianglediamonds.svg	2	yes	57	0	501
6.6.0	win	2022-12-26	10:46:10	10:57:57	705963	5c134ee7e32f86000165ba0d	828585339	1	main_z	11	main_z	3	stimuli_target_squarediamonds.svg	stimuli_distractor_trianglediamonds.svg	4	yes	44	1	456
6.6.0	win	2022-12-26	10:46:10	10:57:57	705963	5c134ee7e32f86000165ba0d	828585339	1	main_z	11	advance_on_keypress_ZEE	4	stimuli_target_squarediamonds.svg	stimuli_distractor_trianglediamonds.svg	4	yes	57	0	389
6.6.0	win	2022-12-26	10:46:10	10:57:58	707527	5c134ee7e32f86000165ba0d	828585339	1	main_z	11	main_z	5	stimuli_target_trianglesquares.svg	stimuli_distractor_diamondtriangles.svg	22	yes	44	1	510
6.6.0	win	2022-12-26	10:46:10	10:57:58	707527	5c134ee7e32f86000165ba0d	828585339	1	main_z	11	advance_on_keypress_ZEE	6	stimuli_target_trianglesquares.svg	stimuli_distractor_diamondtriangles.svg	22	yes	57	0	406
6.6.0	win	2022-12-26	10:46:10	10:58:01	710603	5c134ee7e32f86000165ba0d	828585339	1	main_z	11	main_z	7	stimuli_distractor_diamondtriangles.svg	stimuli_distractor_trianglediamonds.svg	38	no	0	1	2000
6.6.0	win	2022-12-26	10:46:10	10:58:01	710603	5c134ee7e32f86000165ba0d	828585339	1	main_z	11	advance_on_keypress_ZEE	8	stimuli_distractor_diamondtriangles.svg	stimuli_distractor_trianglediamonds.svg	38	no	57	0	315
6.6.0	win	2022-12-26	10:46:10	10:58:03	711965	5c134ee7e32f86000165ba0d	828585339	1	main_z	11	main_z	9	stimuli_target_squaretriangles.svg	stimuli_distractor_trianglediamonds.svg	3	yes	44	1	380
6.6.0	win	2022-12-26	10:46:10	10:58:03	711965	5c134ee7e32f86000165ba0d	828585339	1	main_z	11	advance_on_keypress_ZEE	10	stimuli_target_squaretriangles.svg	stimuli_distractor_trianglediamonds.svg	3	yes	57	0	349
6.6.0	win	2022-12-26	10:46:10	10:58:04	713376	5c134ee7e32f86000165ba0d	828585339	1	main_z	11	main_z	11	stimuli_distractor_diamondtriangles.svg	stimuli_target_squarediamonds.svg	16	yes	44	1	413
6.6.0	win	2022-12-26	10:46:10	10:58:04	713376	5c134ee7e32f86000165ba0d	828585339	1	main_z	11	advance_on_keypress_ZEE	12	stimuli_distractor_diamondtriangles.svg	stimuli_target_squarediamonds.svg	16	yes	57	0	356
6.6.0	win	2022-12-26	10:46:10	10:58:06	714800	5c134ee7e32f86000165ba0d	828585339	1	main_z	11	main_z	13	stimuli_target_circlediamonds.svg	stimuli_distractor_diamondtriangles.svg	6	yes	44	1	396
6.6.0	win	2022-12-26	10:46:10	10:58:06	714800	5c134ee7e32f86000165ba0d	828585339	1	main_z	11	advance_on_keypress_ZEE	14	stimuli_target_circlediamonds.svg	stimuli_distractor_diamondtriangles.svg	6	yes	57	0	355
6.6.0	win	2022-12-26	10:46:10	10:58:07	716190	5c134ee7e32f86000165ba0d	828585339	1	main_z	11	main_z	15	stimuli_distractor_diamondtriangles.svg	stimuli_target_trianglecircles.svg	29	yes	44	1	388
6.6.0	win	2022-12-26	10:46:10	10:58:07	716190	5c134ee7e32f86000165ba0d	828585339	1	main_z	11	advance_on_keypress_ZEE	16	stimuli_distractor_diamondtriangles.svg	stimuli_target_trianglecircles.svg	29	yes	57	0	355
6.6.0	win	2022-12-26	10:46:10	10:58:08	717573	5c134ee7e32f86000165ba0d	828585339	1	main_z	11	main_z	17	stimuli_target_squarediamonds.svg	stimuli_distractor_diamondtriangles.svg	8	yes	44	1	372
6.6.0	win	2022-12-26	10:46:10	10:58:08	717573	5c134ee7e32f86000165ba0d	828585339	1	main_z	11	advance_on_keypress_ZEE	18	stimuli_target_squarediamonds.svg	stimuli_distractor_diamondtriangles.svg	8	yes	57	0	412
6.6.0	win	2022-12-26	10:46:10	10:58:10	719186	5c134ee7e32f86000165ba0d	828585339	1	main_z	11	main_z	19	stimuli_target_diamondsquares.svg	stimuli_distractor_diamondtriangles.svg	24	yes	44	1	545
6.6.0	win	2022-12-26	10:46:10	10:58:10	719186	5c134ee7e32f86000165ba0d	828585339	1	main_z	11	advance_on_keypress_ZEE	20	stimuli_target_diamondsquares.svg	stimuli_distractor_diamondtriangles.svg	24	yes	57	0	356
6.6.0	win	2022-12-26	10:46:10	10:58:13	722194	5c134ee7e32f86000165ba0d	828585339	1	main_z	11	main_z	21	stimuli_distractor_diamondtriangles.svg	stimuli_distractor_diamondtriangles.svg	40	no	0	1	2000
6.6.0	win	2022-12-26	10:46:10	10:58:13	722194	5c134ee7e32f86000165ba0d	828585339	1	main_z	11	advance_on_keypress_ZEE	22	stimuli_distractor_diamondtriangles.svg	stimuli_distractor_diamondtriangles.svg	40	no	57	0	283
6.6.0	win	2022-12-26	10:46:10	10:58:14	723483	5c134ee7e32f86000165ba0d	828585339	1	main_z	11	main_z	23	stimuli_target_squaretriangles.svg	stimuli_distractor_diamondtriangles.svg	7	yes	44	1	350
6.6.0	win	2022-12-26	10:46:10	10:58:14	723483	5c134ee7e32f86000165ba0d	828585339	1	main_z	11	advance_on_keypress_ZEE	24	stimuli_target_squaretriangles.svg	stimuli_distractor_diamondtriangles.svg	7	yes	57	0	343
6.6.0	win	2022-12-26	10:46:10	10:58:16	724939	5c134ee7e32f86000165ba0d	828585339	1	main_z	11	main_z	25	stimuli_target_trianglesquares.svg	stimuli_distractor_trianglediamonds.svg	18	yes	44	1	464
6.6.0	win	2022-12-26	10:46:10	10:58:16	724939	5c134ee7e32f86000165ba0d	828585339	1	main_z	11	advance_on_keypress_ZEE	26	stimuli_target_trianglesquares.svg	stimuli_distractor_trianglediamonds.svg	18	yes	57	0	342
6.6.0	win	2022-12-26	10:46:10	10:58:17	726341	5c134ee7e32f86000165ba0d	828585339	1	main_z	11	main_z	27	stimuli_target_trianglecircles.svg	stimuli_distractor_trianglediamonds.svg	17	yes	44	1	385
6.6.0	win	2022-12-26	10:46:10	10:58:17	726341	5c134ee7e32f86000165ba0d	828585339	1	main_z	11	advance_on_keypress_ZEE	28	stimuli_target_trianglecircles.svg	stimuli_distractor_trianglediamonds.svg	17	yes	57	0	356
6.6.0	win	2022-12-26	10:46:10	10:58:20	729362	5c134ee7e32f86000165ba0d	828585339	1	main_z	11	main_z	29	stimuli_distractor_trianglediamonds.svg	stimuli_distractor_trianglediamonds.svg	33	no	0	1	2000
6.6.0	win	2022-12-26	10:46:10	10:58:20	729362	5c134ee7e32f86000165ba0d	828585339	1	main_z	11	advance_on_keypress_ZEE	30	stimuli_distractor_trianglediamonds.svg	stimuli_distractor_trianglediamonds.svg	33	no	57	0	300
6.6.0	win	2022-12-26	10:46:10	10:58:22	730741	5c134ee7e32f86000165ba0d	828585339	1	main_z	11	main_z	31	stimuli_distractor_diamondtriangles.svg	stimuli_target_trianglesquares.svg	30	yes	44	1	422
6.6.0	win	2022-12-26	10:46:10	10:58:22	730741	5c134ee7e32f86000165ba0d	828585339	1	main_z	11	advance_on_keypress_ZEE	32	stimuli_distractor_diamondtriangles.svg	stimuli_target_trianglesquares.svg	30	yes	57	0	308
6.6.0	win	2022-12-26	10:46:10	10:58:24	733716	5c134ee7e32f86000165ba0d	828585339	1	main_z	11	main_z	33	stimuli_distractor_diamondtriangles.svg	stimuli_distractor_diamondtriangles.svg	39	no	0	1	2000
6.6.0	win	2022-12-26	10:46:10	10:58:24	733716	5c134ee7e32f86000165ba0d	828585339	1	main_z	11	advance_on_keypress_ZEE	34	stimuli_distractor_diamondtriangles.svg	stimuli_distractor_diamondtriangles.svg	39	no	57	0	309
6.6.0	win	2022-12-26	10:46:10	10:58:26	735092	5c134ee7e32f86000165ba0d	828585339	1	main_z	11	main_z	35	stimuli_distractor_trianglediamonds.svg	stimuli_target_trianglesquares.svg	26	yes	44	1	432
6.6.0	win	2022-12-26	10:46:10	10:58:26	735092	5c134ee7e32f86000165ba0d	828585339	1	main_z	11	advance_on_keypress_ZEE	36	stimuli_distractor_trianglediamonds.svg	stimuli_target_trianglesquares.svg	26	yes	57	0	358
6.6.0	win	2022-12-26	10:46:10	10:58:27	736535	5c134ee7e32f86000165ba0d	828585339	1	main_z	11	main_z	37	stimuli_target_circletriangles.svg	stimuli_distractor_diamondtriangles.svg	5	yes	44	1	414
6.6.0	win	2022-12-26	10:46:10	10:58:27	736535	5c134ee7e32f86000165ba0d	828585339	1	main_z	11	advance_on_keypress_ZEE	38	stimuli_target_circletriangles.svg	stimuli_distractor_diamondtriangles.svg	5	yes	57	0	381
6.6.0	win	2022-12-26	10:46:10	10:58:30	739560	5c134ee7e32f86000165ba0d	828585339	1	main_z	11	main_z	39	stimuli_distractor_trianglediamonds.svg	stimuli_distractor_diamondtriangles.svg	36	no	0	1	2000
6.6.0	win	2022-12-26	10:46:10	10:58:30	739560	5c134ee7e32f86000165ba0d	828585339	1	main_z	11	advance_on_keypress_ZEE	40	stimuli_distractor_trianglediamonds.svg	stimuli_distractor_diamondtriangles.svg	36	no	57	0	275
6.6.0	win	2022-12-26	10:46:10	10:58:32	740954	5c134ee7e32f86000165ba0d	828585339	1	main_z	11	main_z	41	stimuli_distractor_diamondtriangles.svg	stimuli_target_squaretriangles.svg	15	yes	44	1	479
6.6.0	win	2022-12-26	10:46:10	10:58:32	740954	5c134ee7e32f86000165ba0d	828585339	1	main_z	11	advance_on_keypress_ZEE	42	stimuli_distractor_diamondtriangles.svg	stimuli_target_squaretriangles.svg	15	yes	57	0	356
6.6.0	win	2022-12-26	10:46:10	10:58:33	742368	5c134ee7e32f86000165ba0d	828585339	1	main_z	11	main_z	43	stimuli_target_diamondsquares.svg	stimuli_distractor_trianglediamonds.svg	20	yes	44	1	404
6.6.0	win	2022-12-26	10:46:10	10:58:33	742368	5c134ee7e32f86000165ba0d	828585339	1	main_z	11	advance_on_keypress_ZEE	44	stimuli_target_diamondsquares.svg	stimuli_distractor_trianglediamonds.svg	20	yes	57	0	379
6.6.0	win	2022-12-26	10:46:10	10:58:35	743826	5c134ee7e32f86000165ba0d	828585339	1	main_z	11	main_z	45	stimuli_distractor_trianglediamonds.svg	stimuli_target_squarediamonds.svg	12	yes	44	1	426
6.6.0	win	2022-12-26	10:46:10	10:58:35	743826	5c134ee7e32f86000165ba0d	828585339	1	main_z	11	advance_on_keypress_ZEE	46	stimuli_distractor_trianglediamonds.svg	stimuli_target_squarediamonds.svg	12	yes	57	0	328
6.6.0	win	2022-12-26	10:46:10	10:58:36	745237	5c134ee7e32f86000165ba0d	828585339	1	main_z	11	main_z	47	stimuli_distractor_trianglediamonds.svg	stimuli_target_circletriangles.svg	9	yes	44	1	425
6.6.0	win	2022-12-26	10:46:10	10:58:36	745237	5c134ee7e32f86000165ba0d	828585339	1	main_z	11	advance_on_keypress_ZEE	48	stimuli_distractor_trianglediamonds.svg	stimuli_target_circletriangles.svg	9	yes	57	0	368
6.6.0	win	2022-12-26	10:46:10	10:58:37	746662	5c134ee7e32f86000165ba0d	828585339	1	main_z	11	main_z	49	stimuli_distractor_diamondtriangles.svg	stimuli_target_circlediamonds.svg	14	yes	44	1	408
6.6.0	win	2022-12-26	10:46:10	10:58:37	746662	5c134ee7e32f86000165ba0d	828585339	1	main_z	11	advance_on_keypress_ZEE	50	stimuli_distractor_diamondtriangles.svg	stimuli_target_circlediamonds.svg	14	yes	57	0	327
6.6.0	win	2022-12-26	10:46:10	10:58:39	748042	5c134ee7e32f86000165ba0d	828585339	1	main_z	11	main_z	51	stimuli_distractor_diamondtriangles.svg	stimuli_target_circletriangles.svg	13	yes	44	1	400
6.6.0	win	2022-12-26	10:46:10	10:58:39	748042	5c134ee7e32f86000165ba0d	828585339	1	main_z	11	advance_on_keypress_ZEE	52	stimuli_distractor_diamondtriangles.svg	stimuli_target_circletriangles.svg	13	yes	57	0	335
6.6.0	win	2022-12-26	10:46:10	10:58:40	749431	5c134ee7e32f86000165ba0d	828585339	1	main_z	11	main_z	53	stimuli_target_trianglecircles.svg	stimuli_distractor_diamondtriangles.svg	21	yes	44	1	393
6.6.0	win	2022-12-26	10:46:10	10:58:40	749431	5c134ee7e32f86000165ba0d	828585339	1	main_z	11	advance_on_keypress_ZEE	54	stimuli_target_trianglecircles.svg	stimuli_distractor_diamondtriangles.svg	21	yes	57	0	336
6.6.0	win	2022-12-26	10:46:10	10:58:43	752421	5c134ee7e32f86000165ba0d	828585339	1	main_z	11	main_z	55	stimuli_distractor_diamondtriangles.svg	stimuli_distractor_trianglediamonds.svg	37	no	0	1	2000
6.6.0	win	2022-12-26	10:46:10	10:58:43	752421	5c134ee7e32f86000165ba0d	828585339	1	main_z	11	advance_on_keypress_ZEE	56	stimuli_distractor_diamondtriangles.svg	stimuli_distractor_trianglediamonds.svg	37	no	57	0	304
6.6.0	win	2022-12-26	10:46:10	10:58:46	755378	5c134ee7e32f86000165ba0d	828585339	1	main_z	11	main_z	57	stimuli_distractor_trianglediamonds.svg	stimuli_distractor_trianglediamonds.svg	34	no	0	1	2000
6.6.0	win	2022-12-26	10:46:10	10:58:46	755378	5c134ee7e32f86000165ba0d	828585339	1	main_z	11	advance_on_keypress_ZEE	58	stimuli_distractor_trianglediamonds.svg	stimuli_distractor_trianglediamonds.svg	34	no	57	0	282
6.6.0	win	2022-12-26	10:46:10	10:58:49	758311	5c134ee7e32f86000165ba0d	828585339	1	main_z	11	main_z	59	stimuli_distractor_trianglediamonds.svg	stimuli_distractor_diamondtriangles.svg	35	no	0	1	2000
6.6.0	win	2022-12-26	10:46:10	10:58:49	758311	5c134ee7e32f86000165ba0d	828585339	1	main_z	11	advance_on_keypress_ZEE	60	stimuli_distractor_trianglediamonds.svg	stimuli_distractor_diamondtriangles.svg	35	no	57	0	284
6.6.0	win	2022-12-26	10:46:10	10:58:51	760215	5c134ee7e32f86000165ba0d	828585339	1	main_z	11	main_z	61	stimuli_distractor_trianglediamonds.svg	stimuli_target_diamondsquares.svg	28	yes	44	1	967
6.6.0	win	2022-12-26	10:46:10	10:58:51	760215	5c134ee7e32f86000165ba0d	828585339	1	main_z	11	advance_on_keypress_ZEE	62	stimuli_distractor_trianglediamonds.svg	stimuli_target_diamondsquares.svg	28	yes	57	0	512
6.6.0	win	2022-12-26	10:46:10	10:58:53	761784	5c134ee7e32f86000165ba0d	828585339	1	main_z	11	main_z	63	stimuli_target_circletriangles.svg	stimuli_distractor_trianglediamonds.svg	1	yes	44	1	402
6.6.0	win	2022-12-26	10:46:10	10:58:53	761784	5c134ee7e32f86000165ba0d	828585339	1	main_z	11	advance_on_keypress_ZEE	64	stimuli_target_circletriangles.svg	stimuli_distractor_trianglediamonds.svg	1	yes	57	0	321
6.6.0	win	2022-12-26	10:46:10	10:58:54	763193	5c134ee7e32f86000165ba0d	828585339	1	main_z	11	main_z	65	stimuli_distractor_trianglediamonds.svg	stimuli_target_circlediamonds.svg	10	yes	44	1	435
6.6.0	win	2022-12-26	10:46:10	10:58:54	763193	5c134ee7e32f86000165ba0d	828585339	1	main_z	11	advance_on_keypress_ZEE	66	stimuli_distractor_trianglediamonds.svg	stimuli_target_circlediamonds.svg	10	yes	57	0	312
6.6.0	win	2022-12-26	10:46:10	10:58:55	764620	5c134ee7e32f86000165ba0d	828585339	1	main_z	11	main_z	67	stimuli_distractor_trianglediamonds.svg	stimuli_target_trianglecircles.svg	25	yes	44	1	458
6.6.0	win	2022-12-26	10:46:10	10:58:55	764620	5c134ee7e32f86000165ba0d	828585339	1	main_z	11	advance_on_keypress_ZEE	68	stimuli_distractor_trianglediamonds.svg	stimuli_target_trianglecircles.svg	25	yes	57	0	312
6.6.0	win	2022-12-26	10:46:10	10:58:57	766273	5c134ee7e32f86000165ba0d	828585339	1	main_z	11	main_z	69	stimuli_distractor_diamondtriangles.svg	stimuli_target_diamondsquares.svg	32	yes	44	1	690
6.6.0	win	2022-12-26	10:46:10	10:58:57	766273	5c134ee7e32f86000165ba0d	828585339	1	main_z	11	advance_on_keypress_ZEE	70	stimuli_distractor_diamondtriangles.svg	stimuli_target_diamondsquares.svg	32	yes	57	0	414
6.6.0	win	2022-12-26	10:46:10	10:58:59	767729	5c134ee7e32f86000165ba0d	828585339	1	main_z	11	main_z	71	stimuli_target_diamondcircles.svg	stimuli_distractor_trianglediamonds.svg	19	yes	44	1	387
6.6.0	win	2022-12-26	10:46:10	10:58:59	767729	5c134ee7e32f86000165ba0d	828585339	1	main_z	11	advance_on_keypress_ZEE	72	stimuli_target_diamondcircles.svg	stimuli_distractor_trianglediamonds.svg	19	yes	57	0	379
6.6.0	win	2022-12-26	10:46:10	10:59:00	769360	5c134ee7e32f86000165ba0d	828585339	1	main_z	11	main_z	73	stimuli_distractor_trianglediamonds.svg	stimuli_target_diamondcircles.svg	27	yes	44	1	594
6.6.0	win	2022-12-26	10:46:10	10:59:00	769360	5c134ee7e32f86000165ba0d	828585339	1	main_z	11	advance_on_keypress_ZEE	74	stimuli_distractor_trianglediamonds.svg	stimuli_target_diamondcircles.svg	27	yes	57	0	321
6.6.0	win	2022-12-26	10:46:10	10:59:02	770742	5c134ee7e32f86000165ba0d	828585339	1	main_z	11	main_z	75	stimuli_target_diamondcircles.svg	stimuli_distractor_diamondtriangles.svg	23	yes	44	1	385
6.6.0	win	2022-12-26	10:46:10	10:59:02	770742	5c134ee7e32f86000165ba0d	828585339	1	main_z	11	advance_on_keypress_ZEE	76	stimuli_target_diamondcircles.svg	stimuli_distractor_diamondtriangles.svg	23	yes	57	0	362
6.6.0	win	2022-12-26	10:46:10	10:59:03	772260	5c134ee7e32f86000165ba0d	828585339	1	main_z	11	main_z	77	stimuli_distractor_trianglediamonds.svg	stimuli_target_squaretriangles.svg	11	yes	44	1	507
6.6.0	win	2022-12-26	10:46:10	10:59:03	772260	5c134ee7e32f86000165ba0d	828585339	1	main_z	11	advance_on_keypress_ZEE	78	stimuli_distractor_trianglediamonds.svg	stimuli_target_squaretriangles.svg	11	yes	57	0	333
6.6.0	win	2022-12-26	10:46:10	10:59:05	773736	5c134ee7e32f86000165ba0d	828585339	1	main_z	11	main_z	79	stimuli_distractor_diamondtriangles.svg	stimuli_target_diamondcircles.svg	31	yes	44	1	486
6.6.0	win	2022-12-26	10:46:10	10:59:05	773736	5c134ee7e32f86000165ba0d	828585339	1	main_z	11	advance_on_keypress_ZEE	80	stimuli_distractor_diamondtriangles.svg	stimuli_target_diamondcircles.svg	31	yes	57	0	322
6.6.0	win	2022-12-26	10:46:10	10:59:06	775094	5c134ee7e32f86000165ba0d	828585339	1	main_z	11	main_z	81	stimuli_distractor_trianglediamonds.svg	stimuli_target_circlediamonds.svg	10	yes	44	1	380
6.6.0	win	2022-12-26	10:46:10	10:59:06	775094	5c134ee7e32f86000165ba0d	828585339	1	main_z	11	advance_on_keypress_ZEE	82	stimuli_distractor_trianglediamonds.svg	stimuli_target_circlediamonds.svg	10	yes	57	0	396
6.6.0	win	2022-12-26	10:46:10	10:59:07	776507	5c134ee7e32f86000165ba0d	828585339	1	main_z	11	main_z	83	stimuli_target_squarediamonds.svg	stimuli_distractor_trianglediamonds.svg	4	yes	44	1	354
6.6.0	win	2022-12-26	10:46:10	10:59:07	776507	5c134ee7e32f86000165ba0d	828585339	1	main_z	11	advance_on_keypress_ZEE	84	stimuli_target_squarediamonds.svg	stimuli_distractor_trianglediamonds.svg	4	yes	57	0	355
6.6.0	win	2022-12-26	10:46:10	10:59:09	778005	5c134ee7e32f86000165ba0d	828585339	1	main_z	11	main_z	85	stimuli_distractor_diamondtriangles.svg	stimuli_target_diamondsquares.svg	32	yes	44	1	484
6.6.0	win	2022-12-26	10:46:10	10:59:09	778005	5c134ee7e32f86000165ba0d	828585339	1	main_z	11	advance_on_keypress_ZEE	86	stimuli_distractor_diamondtriangles.svg	stimuli_target_diamondsquares.svg	32	yes	57	0	336
6.6.0	win	2022-12-26	10:46:10	10:59:10	779382	5c134ee7e32f86000165ba0d	828585339	1	main_z	11	main_z	87	stimuli_target_diamondsquares.svg	stimuli_distractor_trianglediamonds.svg	20	yes	44	1	384
6.6.0	win	2022-12-26	10:46:10	10:59:10	779382	5c134ee7e32f86000165ba0d	828585339	1	main_z	11	advance_on_keypress_ZEE	88	stimuli_target_diamondsquares.svg	stimuli_distractor_trianglediamonds.svg	20	yes	57	0	360
6.6.0	win	2022-12-26	10:46:10	10:59:12	780730	5c134ee7e32f86000165ba0d	828585339	1	main_z	11	main_z	89	stimuli_target_diamondcircles.svg	stimuli_distractor_trianglediamonds.svg	19	yes	44	1	336
6.6.0	win	2022-12-26	10:46:10	10:59:12	780730	5c134ee7e32f86000165ba0d	828585339	1	main_z	11	advance_on_keypress_ZEE	90	stimuli_target_diamondcircles.svg	stimuli_distractor_trianglediamonds.svg	19	yes	57	0	346
6.6.0	win	2022-12-26	10:46:10	10:59:13	782114	5c134ee7e32f86000165ba0d	828585339	1	main_z	11	main_z	91	stimuli_target_circletriangles.svg	stimuli_distractor_diamondtriangles.svg	5	yes	44	1	387
6.6.0	win	2022-12-26	10:46:10	10:59:13	782114	5c134ee7e32f86000165ba0d	828585339	1	main_z	11	advance_on_keypress_ZEE	92	stimuli_target_circletriangles.svg	stimuli_distractor_diamondtriangles.svg	5	yes	57	0	419
6.6.0	win	2022-12-26	10:46:10	10:59:14	783598	5c134ee7e32f86000165ba0d	828585339	1	main_z	11	main_z	93	stimuli_target_trianglesquares.svg	stimuli_distractor_trianglediamonds.svg	18	yes	44	1	417
6.6.0	win	2022-12-26	10:46:10	10:59:14	783598	5c134ee7e32f86000165ba0d	828585339	1	main_z	11	advance_on_keypress_ZEE	94	stimuli_target_trianglesquares.svg	stimuli_distractor_trianglediamonds.svg	18	yes	57	0	359
6.6.0	win	2022-12-26	10:46:10	10:59:16	784981	5c134ee7e32f86000165ba0d	828585339	1	main_z	11	main_z	95	stimuli_target_circletriangles.svg	stimuli_distractor_trianglediamonds.svg	1	yes	44	1	359
6.6.0	win	2022-12-26	10:46:10	10:59:16	784981	5c134ee7e32f86000165ba0d	828585339	1	main_z	11	advance_on_keypress_ZEE	96	stimuli_target_circletriangles.svg	stimuli_distractor_trianglediamonds.svg	1	yes	57	0	376
6.6.0	win	2022-12-26	10:46:10	10:59:17	786591	5c134ee7e32f86000165ba0d	828585339	1	main_z	11	main_z	97	stimuli_distractor_diamondtriangles.svg	stimuli_target_trianglesquares.svg	30	yes	44	1	575
6.6.0	win	2022-12-26	10:46:10	10:59:17	786591	5c134ee7e32f86000165ba0d	828585339	1	main_z	11	advance_on_keypress_ZEE	98	stimuli_distractor_diamondtriangles.svg	stimuli_target_trianglesquares.svg	30	yes	57	0	416
6.6.0	win	2022-12-26	10:46:10	10:59:20	789646	5c134ee7e32f86000165ba0d	828585339	1	main_z	11	main_z	99	stimuli_distractor_trianglediamonds.svg	stimuli_distractor_trianglediamonds.svg	33	no	0	1	2000
6.6.0	win	2022-12-26	10:46:10	10:59:20	789646	5c134ee7e32f86000165ba0d	828585339	1	main_z	11	advance_on_keypress_ZEE	100	stimuli_distractor_trianglediamonds.svg	stimuli_distractor_trianglediamonds.svg	33	no	57	0	589
6.6.0	win	2022-12-26	10:46:10	10:59:24	792903	5c134ee7e32f86000165ba0d	828585339	1	main_z	11	main_z	101	stimuli_distractor_diamondtriangles.svg	stimuli_distractor_diamondtriangles.svg	39	no	0	1	2000
6.6.0	win	2022-12-26	10:46:10	10:59:24	792903	5c134ee7e32f86000165ba0d	828585339	1	main_z	11	advance_on_keypress_ZEE	102	stimuli_distractor_diamondtriangles.svg	stimuli_distractor_diamondtriangles.svg	39	no	57	0	259
6.6.0	win	2022-12-26	10:46:10	10:59:25	794222	5c134ee7e32f86000165ba0d	828585339	1	main_z	11	main_z	103	stimuli_distractor_diamondtriangles.svg	stimuli_target_diamondcircles.svg	31	yes	44	1	407
6.6.0	win	2022-12-26	10:46:10	10:59:25	794222	5c134ee7e32f86000165ba0d	828585339	1	main_z	11	advance_on_keypress_ZEE	104	stimuli_distractor_diamondtriangles.svg	stimuli_target_diamondcircles.svg	31	yes	57	0	278
6.6.0	win	2022-12-26	10:46:10	10:59:26	795513	5c134ee7e32f86000165ba0d	828585339	1	main_z	11	main_z	105	stimuli_target_trianglecircles.svg	stimuli_distractor_diamondtriangles.svg	21	yes	44	1	361
6.6.0	win	2022-12-26	10:46:10	10:59:26	795513	5c134ee7e32f86000165ba0d	828585339	1	main_z	11	advance_on_keypress_ZEE	106	stimuli_target_trianglecircles.svg	stimuli_distractor_diamondtriangles.svg	21	yes	57	0	330
6.6.0	win	2022-12-26	10:46:10	10:59:28	796926	5c134ee7e32f86000165ba0d	828585339	1	main_z	11	main_z	107	stimuli_distractor_trianglediamonds.svg	stimuli_distractor_diamondtriangles.svg	36	no	44	0	427
6.6.0	win	2022-12-26	10:46:10	10:59:28	796926	5c134ee7e32f86000165ba0d	828585339	1	main_z	11	advance_on_keypress_ZEE	108	stimuli_distractor_trianglediamonds.svg	stimuli_distractor_diamondtriangles.svg	36	no	57	0	473
6.6.0	win	2022-12-26	10:46:10	10:59:31	800061	5c134ee7e32f86000165ba0d	828585339	1	main_z	11	main_z	109	stimuli_distractor_diamondtriangles.svg	stimuli_distractor_diamondtriangles.svg	40	no	0	1	2000
6.6.0	win	2022-12-26	10:46:10	10:59:31	800061	5c134ee7e32f86000165ba0d	828585339	1	main_z	11	advance_on_keypress_ZEE	110	stimuli_distractor_diamondtriangles.svg	stimuli_distractor_diamondtriangles.svg	40	no	57	0	284
6.6.0	win	2022-12-26	10:46:10	10:59:32	801386	5c134ee7e32f86000165ba0d	828585339	1	main_z	11	main_z	111	stimuli_distractor_trianglediamonds.svg	stimuli_target_trianglesquares.svg	26	yes	44	1	391
6.6.0	win	2022-12-26	10:46:10	10:59:32	801386	5c134ee7e32f86000165ba0d	828585339	1	main_z	11	advance_on_keypress_ZEE	112	stimuli_distractor_trianglediamonds.svg	stimuli_target_trianglesquares.svg	26	yes	57	0	255
6.6.0	win	2022-12-26	10:46:10	10:59:33	802682	5c134ee7e32f86000165ba0d	828585339	1	main_z	11	main_z	113	stimuli_target_diamondcircles.svg	stimuli_distractor_diamondtriangles.svg	23	yes	44	1	387
6.6.0	win	2022-12-26	10:46:10	10:59:33	802682	5c134ee7e32f86000165ba0d	828585339	1	main_z	11	advance_on_keypress_ZEE	114	stimuli_target_diamondcircles.svg	stimuli_distractor_diamondtriangles.svg	23	yes	57	0	283
6.6.0	win	2022-12-26	10:46:10	10:59:35	804015	5c134ee7e32f86000165ba0d	828585339	1	main_z	11	main_z	115	stimuli_target_squaretriangles.svg	stimuli_distractor_trianglediamonds.svg	3	yes	44	1	398
6.6.0	win	2022-12-26	10:46:10	10:59:35	804015	5c134ee7e32f86000165ba0d	828585339	1	main_z	11	advance_on_keypress_ZEE	116	stimuli_target_squaretriangles.svg	stimuli_distractor_trianglediamonds.svg	3	yes	57	0	261
6.6.0	win	2022-12-26	10:46:10	10:59:36	805320	5c134ee7e32f86000165ba0d	828585339	1	main_z	11	main_z	117	stimuli_target_trianglecircles.svg	stimuli_distractor_trianglediamonds.svg	17	yes	44	1	402
6.6.0	win	2022-12-26	10:46:10	10:59:36	805320	5c134ee7e32f86000165ba0d	828585339	1	main_z	11	advance_on_keypress_ZEE	118	stimuli_target_trianglecircles.svg	stimuli_distractor_trianglediamonds.svg	17	yes	57	0	297
6.6.0	win	2022-12-26	10:46:10	10:59:39	808262	5c134ee7e32f86000165ba0d	828585339	1	main_z	11	main_z	119	stimuli_distractor_diamondtriangles.svg	stimuli_distractor_trianglediamonds.svg	37	no	0	1	2000
6.6.0	win	2022-12-26	10:46:10	10:59:39	808262	5c134ee7e32f86000165ba0d	828585339	1	main_z	11	advance_on_keypress_ZEE	120	stimuli_distractor_diamondtriangles.svg	stimuli_distractor_trianglediamonds.svg	37	no	57	0	283
6.6.0	win	2022-12-26	10:46:10	10:59:40	809652	5c134ee7e32f86000165ba0d	828585339	1	main_z	11	main_z	121	stimuli_distractor_diamondtriangles.svg	stimuli_target_circlediamonds.svg	14	yes	44	1	446
6.6.0	win	2022-12-26	10:46:10	10:59:40	809652	5c134ee7e32f86000165ba0d	828585339	1	main_z	11	advance_on_keypress_ZEE	122	stimuli_distractor_diamondtriangles.svg	stimuli_target_circlediamonds.svg	14	yes	57	0	220
6.6.0	win	2022-12-26	10:46:10	10:59:42	810866	5c134ee7e32f86000165ba0d	828585339	1	main_z	11	main_z	123	stimuli_target_circlediamonds.svg	stimuli_distractor_diamondtriangles.svg	6	yes	44	1	354
6.6.0	win	2022-12-26	10:46:10	10:59:42	810866	5c134ee7e32f86000165ba0d	828585339	1	main_z	11	advance_on_keypress_ZEE	124	stimuli_target_circlediamonds.svg	stimuli_distractor_diamondtriangles.svg	6	yes	57	0	283
6.6.0	win	2022-12-26	10:46:10	10:59:43	812184	5c134ee7e32f86000165ba0d	828585339	1	main_z	11	main_z	125	stimuli_target_squarediamonds.svg	stimuli_distractor_diamondtriangles.svg	8	yes	44	1	382
6.6.0	win	2022-12-26	10:46:10	10:59:43	812184	5c134ee7e32f86000165ba0d	828585339	1	main_z	11	advance_on_keypress_ZEE	126	stimuli_target_squarediamonds.svg	stimuli_distractor_diamondtriangles.svg	8	yes	57	0	310
6.6.0	win	2022-12-26	10:46:10	10:59:44	813565	5c134ee7e32f86000165ba0d	828585339	1	main_z	11	main_z	127	stimuli_distractor_trianglediamonds.svg	stimuli_target_diamondcircles.svg	27	yes	44	1	425
6.6.0	win	2022-12-26	10:46:10	10:59:44	813565	5c134ee7e32f86000165ba0d	828585339	1	main_z	11	advance_on_keypress_ZEE	128	stimuli_distractor_trianglediamonds.svg	stimuli_target_diamondcircles.svg	27	yes	57	0	263
6.6.0	win	2022-12-26	10:46:10	10:59:46	814927	5c134ee7e32f86000165ba0d	828585339	1	main_z	11	main_z	129	stimuli_distractor_diamondtriangles.svg	stimuli_target_squarediamonds.svg	16	yes	44	1	426
6.6.0	win	2022-12-26	10:46:10	10:59:46	814927	5c134ee7e32f86000165ba0d	828585339	1	main_z	11	advance_on_keypress_ZEE	130	stimuli_distractor_diamondtriangles.svg	stimuli_target_squarediamonds.svg	16	yes	57	0	256
6.6.0	win	2022-12-26	10:46:10	10:59:47	816333	5c134ee7e32f86000165ba0d	828585339	1	main_z	11	main_z	131	stimuli_distractor_diamondtriangles.svg	stimuli_target_circletriangles.svg	13	yes	44	1	476
6.6.0	win	2022-12-26	10:46:10	10:59:47	816333	5c134ee7e32f86000165ba0d	828585339	1	main_z	11	advance_on_keypress_ZEE	132	stimuli_distractor_diamondtriangles.svg	stimuli_target_circletriangles.svg	13	yes	57	0	264
6.6.0	win	2022-12-26	10:46:10	10:59:48	817653	5c134ee7e32f86000165ba0d	828585339	1	main_z	11	main_z	133	stimuli_target_circlediamonds.svg	stimuli_distractor_trianglediamonds.svg	2	yes	44	1	404
6.6.0	win	2022-12-26	10:46:10	10:59:48	817653	5c134ee7e32f86000165ba0d	828585339	1	main_z	11	advance_on_keypress_ZEE	134	stimuli_target_circlediamonds.svg	stimuli_distractor_trianglediamonds.svg	2	yes	57	0	307
6.6.0	win	2022-12-26	10:46:10	10:59:50	819026	5c134ee7e32f86000165ba0d	828585339	1	main_z	11	main_z	135	stimuli_distractor_trianglediamonds.svg	stimuli_target_squaretriangles.svg	11	yes	44	1	430
6.6.0	win	2022-12-26	10:46:10	10:59:50	819026	5c134ee7e32f86000165ba0d	828585339	1	main_z	11	advance_on_keypress_ZEE	136	stimuli_distractor_trianglediamonds.svg	stimuli_target_squaretriangles.svg	11	yes	57	0	252
6.6.0	win	2022-12-26	10:46:10	10:59:51	820322	5c134ee7e32f86000165ba0d	828585339	1	main_z	11	main_z	137	stimuli_distractor_trianglediamonds.svg	stimuli_target_diamondsquares.svg	28	yes	44	1	409
6.6.0	win	2022-12-26	10:46:10	10:59:51	820322	5c134ee7e32f86000165ba0d	828585339	1	main_z	11	advance_on_keypress_ZEE	138	stimuli_distractor_trianglediamonds.svg	stimuli_target_diamondsquares.svg	28	yes	57	0	304
6.6.0	win	2022-12-26	10:46:10	10:59:54	823290	5c134ee7e32f86000165ba0d	828585339	1	main_z	11	main_z	139	stimuli_distractor_trianglediamonds.svg	stimuli_distractor_trianglediamonds.svg	34	no	0	1	2000
6.6.0	win	2022-12-26	10:46:10	10:59:54	823290	5c134ee7e32f86000165ba0d	828585339	1	main_z	11	advance_on_keypress_ZEE	140	stimuli_distractor_trianglediamonds.svg	stimuli_distractor_trianglediamonds.svg	34	no	57	0	306
6.6.0	win	2022-12-26	10:46:10	10:59:57	826234	5c134ee7e32f86000165ba0d	828585339	1	main_z	11	main_z	141	stimuli_distractor_trianglediamonds.svg	stimuli_distractor_diamondtriangles.svg	35	no	0	1	2000
6.6.0	win	2022-12-26	10:46:10	10:59:57	826234	5c134ee7e32f86000165ba0d	828585339	1	main_z	11	advance_on_keypress_ZEE	142	stimuli_distractor_trianglediamonds.svg	stimuli_distractor_diamondtriangles.svg	35	no	57	0	291
6.6.0	win	2022-12-26	10:46:10	10:59:58	827591	5c134ee7e32f86000165ba0d	828585339	1	main_z	11	main_z	143	stimuli_distractor_diamondtriangles.svg	stimuli_target_squaretriangles.svg	15	yes	44	1	415
6.6.0	win	2022-12-26	10:46:10	10:59:58	827591	5c134ee7e32f86000165ba0d	828585339	1	main_z	11	advance_on_keypress_ZEE	144	stimuli_distractor_diamondtriangles.svg	stimuli_target_squaretriangles.svg	15	yes	57	0	237
6.6.0	win	2022-12-26	10:46:10	11:00:00	828864	5c134ee7e32f86000165ba0d	828585339	1	main_z	11	main_z	145	stimuli_target_trianglesquares.svg	stimuli_distractor_diamondtriangles.svg	22	yes	44	1	387
6.6.0	win	2022-12-26	10:46:10	11:00:00	828864	5c134ee7e32f86000165ba0d	828585339	1	main_z	11	advance_on_keypress_ZEE	146	stimuli_target_trianglesquares.svg	stimuli_distractor_diamondtriangles.svg	22	yes	57	0	274
6.6.0	win	2022-12-26	10:46:10	11:00:01	830102	5c134ee7e32f86000165ba0d	828585339	1	main_z	11	main_z	147	stimuli_target_squaretriangles.svg	stimuli_distractor_diamondtriangles.svg	7	yes	44	1	310
6.6.0	win	2022-12-26	10:46:10	11:00:01	830102	5c134ee7e32f86000165ba0d	828585339	1	main_z	11	advance_on_keypress_ZEE	148	stimuli_target_squaretriangles.svg	stimuli_distractor_diamondtriangles.svg	7	yes	57	0	256
6.6.0	win	2022-12-26	10:46:10	11:00:04	833009	5c134ee7e32f86000165ba0d	828585339	1	main_z	11	main_z	149	stimuli_distractor_diamondtriangles.svg	stimuli_distractor_trianglediamonds.svg	38	no	0	1	2000
6.6.0	win	2022-12-26	10:46:10	11:00:04	833009	5c134ee7e32f86000165ba0d	828585339	1	main_z	11	advance_on_keypress_ZEE	150	stimuli_distractor_diamondtriangles.svg	stimuli_distractor_trianglediamonds.svg	38	no	57	0	284
6.6.0	win	2022-12-26	10:46:10	11:00:05	834343	5c134ee7e32f86000165ba0d	828585339	1	main_z	11	main_z	151	stimuli_distractor_diamondtriangles.svg	stimuli_target_trianglecircles.svg	29	yes	44	1	400
6.6.0	win	2022-12-26	10:46:10	11:00:05	834343	5c134ee7e32f86000165ba0d	828585339	1	main_z	11	advance_on_keypress_ZEE	152	stimuli_distractor_diamondtriangles.svg	stimuli_target_trianglecircles.svg	29	yes	57	0	239
6.6.0	win	2022-12-26	10:46:10	11:00:06	835564	5c134ee7e32f86000165ba0d	828585339	1	main_z	11	main_z	153	stimuli_distractor_trianglediamonds.svg	stimuli_target_trianglecircles.svg	25	yes	44	1	348
6.6.0	win	2022-12-26	10:46:10	11:00:06	835564	5c134ee7e32f86000165ba0d	828585339	1	main_z	11	advance_on_keypress_ZEE	154	stimuli_distractor_trianglediamonds.svg	stimuli_target_trianglecircles.svg	25	yes	57	0	254
6.6.0	win	2022-12-26	10:46:10	11:00:08	836865	5c134ee7e32f86000165ba0d	828585339	1	main_z	11	main_z	155	stimuli_distractor_trianglediamonds.svg	stimuli_target_squarediamonds.svg	12	yes	44	1	394
6.6.0	win	2022-12-26	10:46:10	11:00:08	836865	5c134ee7e32f86000165ba0d	828585339	1	main_z	11	advance_on_keypress_ZEE	156	stimuli_distractor_trianglediamonds.svg	stimuli_target_squarediamonds.svg	12	yes	57	0	210
6.6.0	win	2022-12-26	10:46:10	11:00:09	838131	5c134ee7e32f86000165ba0d	828585339	1	main_z	11	main_z	157	stimuli_distractor_trianglediamonds.svg	stimuli_target_circletriangles.svg	9	yes	44	1	416
6.6.0	win	2022-12-26	10:46:10	11:00:09	838131	5c134ee7e32f86000165ba0d	828585339	1	main_z	11	advance_on_keypress_ZEE	158	stimuli_distractor_trianglediamonds.svg	stimuli_target_circletriangles.svg	9	yes	57	0	295
6.6.0	win	2022-12-26	10:46:10	11:00:10	839498	5c134ee7e32f86000165ba0d	828585339	1	main_z	11	main_z	159	stimuli_target_diamondsquares.svg	stimuli_distractor_diamondtriangles.svg	24	yes	44	1	417
6.6.0	win	2022-12-26	10:46:10	11:00:10	839498	5c134ee7e32f86000165ba0d	828585339	1	main_z	11	advance_on_keypress_ZEE	160	stimuli_target_diamondsquares.svg	stimuli_distractor_diamondtriangles.svg	24	yes	57	0	264