build	computer.platform	date	time	timestamp	time_elapsed_ms	subject	group	session	blockcode	blocknum	trialcode	trialnum	stimulus_left	stimulus_right	stim_index	target_present	response	correct	latency
6.6.1	win	2022-12-27	12:02:38	12:05:23	163864	61351c3a1e3e96156bc86116	79033849	1	practice_slash	5	practice_slash	1	stimuli_distractor_diamondtriangles.svg	stimuli_target_diamondcircles.svg	8	yes	53	1	1896
6.6.1	win	2022-12-27	12:02:38	12:05:23	163864	61351c3a1e3e96156bc86116	79033849	1	practice_slash	5	advance_on_keypress_SLASH	2	stimuli_distractor_diamondtriangles.svg	stimuli_target_diamondcircles.svg	8	yes	57	0	1179
6.6.1	win	2022-12-27	12:02:38	12:05:28	168679	61351c3a1e3e96156bc86116	79033849	1	practice_slash	5	practice_slash	3	stimuli_distractor_diamondtriangles.svg	stimuli_target_circletriangles.svg	7	yes	0	0	2000
6.6.1	win	2022-12-27	12:02:38	12:05:28	168679	61351c3a1e3e96156bc86116	79033849	1	practice_slash	5	advance_on_keypress_SLASH	4	stimuli_distractor_diamondtriangles.svg	stimuli_target_circletriangles.svg	7	yes	57	0	674
6.6.1	win	2022-12-27	12:02:38	12:05:31	171720	61351c3a1e3e96156bc86116	79033849	1	practice_slash	5	practice_slash	5	stimuli_distractor_trianglediamonds.svg	stimuli_target_circlediamonds.svg	10	yes	53	1	742
6.6.1	win	2022-12-27	12:02:38	12:05:31	171720	61351c3a1e3e96156bc86116	79033849	1	practice_slash	5	advance_on_keypress_SLASH	6	stimuli_distractor_trianglediamonds.svg	stimuli_target_circlediamonds.svg	10	yes	57	0	728
6.6.1	win	2022-12-27	12:02:38	12:05:34	174953	61351c3a1e3e96156bc86116	79033849	1	practice_slash	5	practice_slash	7	stimuli_distractor_trianglediamonds.svg	stimuli_target_diamondcircles.svg	12	yes	53	1	882
6.6.1	win	2022-12-27	12:02:38	12:05:34	174953	61351c3a1e3e96156bc86116	79033849	1	practice_slash	5	advance_on_keypress_SLASH	8	stimuli_distractor_trianglediamonds.svg	stimuli_target_diamondcircles.svg	12	yes	57	0	622
6.6.1	win	2022-12-27	12:02:38	12:05:37	177929	61351c3a1e3e96156bc86116	79033849	1	practice_slash	5	practice_slash	9	stimuli_target_circlediamonds.svg	stimuli_distractor_diamondtriangles.svg	1	yes	53	1	725
6.6.1	win	2022-12-27	12:02:38	12:05:37	177929	61351c3a1e3e96156bc86116	79033849	1	practice_slash	5	advance_on_keypress_SLASH	10	stimuli_target_circlediamonds.svg	stimuli_distractor_diamondtriangles.svg	1	yes	57	0	199
6.6.1	win	2022-12-27	12:02:38	12:05:40	180768	61351c3a1e3e96156bc86116	79033849	1	practice_slash	5	practice_slash	11	stimuli_target_diamondsquares.svg	stimuli_distractor_diamondtriangles.svg	3	yes	53	1	1014
6.6.1	win	2022-12-27	12:02:38	12:05:40	180768	61351c3a1e3e96156bc86116	79033849	1	practice_slash	5	advance_on_keypress_SLASH	12	stimuli_target_diamondsquares.svg	stimuli_distractor_diamondtriangles.svg	3	yes	57	0	469
6.6.1	win	2022-12-27	12:02:38	12:05:43	183544	61351c3a1e3e96156bc86116	79033849	1	practice_slash	5	practice_slash	13	stimuli_target_squarediamonds.svg	stimuli_distractor_trianglediamonds.svg	5	yes	53	1	682
6.6.1	win	2022-12-27	12:02:38	12:05:43	183544	61351c3a1e3e96156bc86116	79033849	1	practice_slash	5	advance_on_keypress_SLASH	14	stimuli_target_squarediamonds.svg	stimuli_distractor_trianglediamonds.svg	5	yes	57	0	198
6.6.1	win	2022-12-27	12:02:38	12:05:47	187372	61351c3a1e3e96156bc86116	79033849	1	practice_slash	5	practice_slash	15	stimuli_distractor_trianglediamonds.svg	stimuli_distractor_diamondtriangles.svg	16	no	0	1	2000
6.6.1	win	2022-12-27	12:02:38	12:05:47	187372	61351c3a1e3e96156bc86116	79033849	1	practice_slash	5	advance_on_keypress_SLASH	16	stimuli_distractor_trianglediamonds.svg	stimuli_distractor_diamondtriangles.svg	16	no	57	0	692
6.6.1	win	2022-12-27	12:02:38	12:05:50	190328	61351c3a1e3e96156bc86116	79033849	1	practice_slash	5	practice_slash	17	stimuli_distractor_diamondtriangles.svg	stimuli_target_trianglecircles.svg	9	yes	53	1	640
6.6.1	win	2022-12-27	12:02:38	12:05:50	190328	61351c3a1e3e96156bc86116	79033849	1	practice_slash	5	advance_on_keypress_SLASH	18	stimuli_distractor_diamondtriangles.svg	stimuli_target_trianglecircles.svg	9	yes	57	0	669
6.6.1	win	2022-12-27	12:02:38	12:05:53	193289	61351c3a1e3e96156bc86116	79033849	1	practice_slash	5	practice_slash	19	stimuli_target_squarediamonds.svg	stimuli_distractor_diamondtriangles.svg	2	yes	53	1	666
6.6.1	win	2022-12-27	12:02:38	12:05:53	193289	61351c3a1e3e96156bc86116	79033849	1	practice_slash	5	advance_on_keypress_SLASH	20	stimuli_target_squarediamonds.svg	stimuli_distractor_diamondtriangles.svg	2	yes	57	0	119
6.6.1	win	2022-12-27	12:02:38	12:05:56	197031	61351c3a1e3e96156bc86116	79033849	1	practice_slash	5	practice_slash	21	stimuli_target_diamondsquares.svg	stimuli_distractor_trianglediamonds.svg	6	yes	0	0	2000
6.6.1	win	2022-12-27	12:02:38	12:05:56	197031	61351c3a1e3e96156bc86116	79033849	1	practice_slash	5	advance_on_keypress_SLASH	22	stimuli_target_diamondsquares.svg	stimuli_distractor_trianglediamonds.svg	6	yes	57	0	489
6.6.1	win	2022-12-27	12:02:38	12:05:59	199785	61351c3a1e3e96156bc86116	79033849	1	practice_slash	5	practice_slash	23	stimuli_distractor_trianglediamonds.svg	stimuli_target_squarediamonds.svg	11	yes	53	1	636
6.6.1	win	2022-12-27	12:02:38	12:05:59	199785	61351c3a1e3e96156bc86116	79033849	1	practice_slash	5	advance_on_keypress_SLASH	24	stimuli_distractor_trianglediamonds.svg	stimuli_target_squarediamonds.svg	11	yes	57	0	482
6.6.1	win	2022-12-27	12:02:38	12:06:03	203890	61351c3a1e3e96156bc86116	79033849	1	practice_slash	5	practice_slash	25	stimuli_distractor_diamondtriangles.svg	stimuli_distractor_trianglediamonds.svg	14	no	0	1	2000
6.6.1	win	2022-12-27	12:02:38	12:06:03	203890	61351c3a1e3e96156bc86116	79033849	1	practice_slash	5	advance_on_keypress_SLASH	26	stimuli_distractor_diamondtriangles.svg	stimuli_distractor_trianglediamonds.svg	14	no	57	0	253
6.6.1	win	2022-12-27	12:02:38	12:06:07	207774	61351c3a1e3e96156bc86116	79033849	1	practice_slash	5	practice_slash	27	stimuli_distractor_trianglediamonds.svg	stimuli_distractor_trianglediamonds.svg	15	no	0	1	2000
6.6.1	win	2022-12-27	12:02:38	12:06:07	207774	61351c3a1e3e96156bc86116	79033849	1	practice_slash	5	advance_on_keypress_SLASH	28	stimuli_distractor_trianglediamonds.svg	stimuli_distractor_trianglediamonds.svg	15	no	57	0	177
6.6.1	win	2022-12-27	12:02:38	12:06:11	211575	61351c3a1e3e96156bc86116	79033849	1	practice_slash	5	practice_slash	29	stimuli_distractor_diamondtriangles.svg	stimuli_distractor_diamondtriangles.svg	13	no	0	1	2000
6.6.1	win	2022-12-27	12:02:38	12:06:11	211575	61351c3a1e3e96156bc86116	79033849	1	practice_slash	5	advance_on_keypress_SLASH	30	stimuli_distractor_diamondtriangles.svg	stimuli_distractor_diamondtriangles.svg	13	no	57	0	489
6.6.1	win	2022-12-27	12:02:38	12:06:14	214345	61351c3a1e3e96156bc86116	79033849	1	practice_slash	5	practice_slash	31	stimuli_target_circlediamonds.svg	stimuli_distractor_trianglediamonds.svg	4	yes	53	1	653
6.6.1	win	2022-12-27	12:02:38	12:06:14	214345	61351c3a1e3e96156bc86116	79033849	1	practice_slash	5	advance_on_keypress_SLASH	32	stimuli_target_circlediamonds.svg	stimuli_distractor_trianglediamonds.svg	4	yes	57	0	490
6.6.1	win	2022-12-27	12:02:38	12:06:58	258430	61351c3a1e3e96156bc86116	79033849	1	main_slash	7	main_slash	1	stimuli_distractor_diamondtriangles.svg	stimuli_distractor_trianglediamonds.svg	37	no	0	1	2000
6.6.1	win	2022-12-27	12:02:38	12:06:58	258430	61351c3a1e3e96156bc86116	79033849	1	main_slash	7	advance_on_keypress_SLASH	2	stimuli_distractor_diamondtriangles.svg	stimuli_distractor_trianglediamonds.svg	37	no	57	0	657
6.6.1	win	2022-12-27	12:02:38	12:07:01	261715	61351c3a1e3e96156bc86116	79033849	1	main_slash	7	main_slash	3	stimuli_distractor_trianglediamonds.svg	stimuli_distractor_trianglediamonds.svg	33	no	0	1	2000
6.6.1	win	2022-12-27	12:02:38	12:07:01	261715	61351c3a1e3e96156bc86116	79033849	1	main_slash	7	advance_on_keypress_SLASH	4	stimuli_distractor_trianglediamonds.svg	stimuli_distractor_trianglediamonds.svg	33	no	57	0	325
6.6.1	win	2022-12-27	12:02:38	12:07:03	263391	61351c3a1e3e96156bc86116	79033849	1	main_slash	7	main_slash	5	stimuli_distractor_trianglediamonds.svg	stimuli_target_squarediamonds.svg	12	yes	53	1	728
6.6.1	win	2022-12-27	12:02:38	12:07:03	263391	61351c3a1e3e96156bc86116	79033849	1	main_slash	7	advance_on_keypress_SLASH	6	stimuli_distractor_trianglediamonds.svg	stimuli_target_squarediamonds.svg	12	yes	57	0	858
6.6.1	win	2022-12-27	12:02:38	12:07:05	265600	61351c3a1e3e96156bc86116	79033849	1	main_slash	7	main_slash	7	stimuli_distractor_diamondtriangles.svg	stimuli_target_squarediamonds.svg	16	yes	53	1	727
6.6.1	win	2022-12-27	12:02:38	12:07:05	265600	61351c3a1e3e96156bc86116	79033849	1	main_slash	7	advance_on_keypress_SLASH	8	stimuli_distractor_diamondtriangles.svg	stimuli_target_squarediamonds.svg	16	yes	57	0	506
6.6.1	win	2022-12-27	12:02:38	12:07:07	267481	61351c3a1e3e96156bc86116	79033849	1	main_slash	7	main_slash	9	stimuli_distractor_diamondtriangles.svg	stimuli_target_diamondsquares.svg	32	yes	53	1	749
6.6.1	win	2022-12-27	12:02:38	12:07:07	267481	61351c3a1e3e96156bc86116	79033849	1	main_slash	7	advance_on_keypress_SLASH	10	stimuli_distractor_diamondtriangles.svg	stimuli_target_diamondsquares.svg	32	yes	57	0	470
6.6.1	win	2022-12-27	12:02:38	12:07:10	270573	61351c3a1e3e96156bc86116	79033849	1	main_slash	7	main_slash	11	stimuli_distractor_trianglediamonds.svg	stimuli_distractor_diamondtriangles.svg	36	no	0	1	2000
6.6.1	win	2022-12-27	12:02:38	12:07:10	270573	61351c3a1e3e96156bc86116	79033849	1	main_slash	7	advance_on_keypress_SLASH	12	stimuli_distractor_trianglediamonds.svg	stimuli_distractor_diamondtriangles.svg	36	no	57	0	466
6.6.1	win	2022-12-27	12:02:38	12:07:12	272287	61351c3a1e3e96156bc86116	79033849	1	main_slash	7	main_slash	13	stimuli_target_squarediamonds.svg	stimuli_distractor_diamondtriangles.svg	8	yes	53	1	623
6.6.1	win	2022-12-27	12:02:38	12:07:12	272287	61351c3a1e3e96156bc86116	79033849	1	main_slash	7	advance_on_keypress_SLASH	14	stimuli_target_squarediamonds.svg	stimuli_distractor_diamondtriangles.svg	8	yes	57	0	373
6.6.1	win	2022-12-27	12:02:38	12:07:13	274024	61351c3a1e3e96156bc86116	79033849	1	main_slash	7	main_slash	15	stimuli_target_diamondcircles.svg	stimuli_distractor_diamondtriangles.svg	23	yes	53	1	742
6.6.1	win	2022-12-27	12:02:38	12:07:13	274024	61351c3a1e3e96156bc86116	79033849	1	main_slash	7	advance_on_keypress_SLASH	16	stimuli_target_diamondcircles.svg	stimuli_distractor_diamondtriangles.svg	23	yes	57	0	376
6.6.1	win	2022-12-27	12:02:38	12:07:16	277024	61351c3a1e3e96156bc86116	79033849	1	main_slash	7	main_slash	17	stimuli_distractor_diamondtriangles.svg	stimuli_distractor_diamondtriangles.svg	40	no	0	1	2000
6.6.1	win	2022-12-27	12:02:38	12:07:16	277024	61351c3a1e3e96156bc86116	79033849	1	main_slash	7	advance_on_keypress_SLASH	18	stimuli_distractor_diamondtriangles.svg	stimuli_distractor_diamondtriangles.svg	40	no	57	0	543
6.6.1	win	2022-12-27	12:02:38	12:07:18	278912	61351c3a1e3e96156bc86116	79033849	1	main_slash	7	main_slash	19	stimuli_distractor_trianglediamonds.svg	stimuli_target_diamondsquares.svg	28	yes	53	1	721
6.6.1	win	2022-12-27	12:02:38	12:07:18	278912	61351c3a1e3e96156bc86116	79033849	1	main_slash	7	advance_on_keypress_SLASH	20	stimuli_distractor_trianglediamonds.svg	stimuli_target_diamondsquares.svg	28	yes	57	0	428
6.6.1	win	2022-12-27	12:02:38	12:07:20	280743	61351c3a1e3e96156bc86116	79033849	1	main_slash	7	main_slash	21	stimuli_target_circlediamonds.svg	stimuli_distractor_diamondtriangles.svg	6	yes	53	1	786
6.6.1	win	2022-12-27	12:02:38	12:07:20	280743	61351c3a1e3e96156bc86116	79033849	1	main_slash	7	advance_on_keypress_SLASH	22	stimuli_target_circlediamonds.svg	stimuli_distractor_diamondtriangles.svg	6	yes	57	0	354
6.6.1	win	2022-12-27	12:02:38	12:07:22	282535	61351c3a1e3e96156bc86116	79033849	1	main_slash	7	main_slash	23	stimuli_target_diamondsquares.svg	stimuli_distractor_diamondtriangles.svg	24	yes	53	1	819
6.6.1	win	2022-12-27	12:02:38	12:07:22	282535	61351c3a1e3e96156bc86116	79033849	1	main_slash	7	advance_on_keypress_SLASH	24	stimuli_target_diamondsquares.svg	stimuli_distractor_diamondtriangles.svg	24	yes	57	0	386
6.6.1	win	2022-12-27	12:02:38	12:07:25	285541	61351c3a1e3e96156bc86116	79033849	1	main_slash	7	main_slash	25	stimuli_distractor_diamondtriangles.svg	stimuli_distractor_trianglediamonds.svg	38	no	0	1	2000
6.6.1	win	2022-12-27	12:02:38	12:07:25	285541	61351c3a1e3e96156bc86116	79033849	1	main_slash	7	advance_on_keypress_SLASH	26	stimuli_distractor_diamondtriangles.svg	stimuli_distractor_trianglediamonds.svg	38	no	57	0	529
6.6.1	win	2022-12-27	12:02:38	12:07:27	287279	61351c3a1e3e96156bc86116	79033849	1	main_slash	7	main_slash	27	stimuli_distractor_diamondtriangles.svg	stimuli_target_diamondcircles.svg	31	yes	53	1	588
6.6.1	win	2022-12-27	12:02:38	12:07:27	287279	61351c3a1e3e96156bc86116	79033849	1	main_slash	7	advance_on_keypress_SLASH	28	stimuli_distractor_diamondtriangles.svg	stimuli_target_diamondcircles.svg	31	yes	57	0	756
6.6.1	win	2022-12-27	12:02:38	12:07:29	289521	61351c3a1e3e96156bc86116	79033849	1	main_slash	7	main_slash	29	stimuli_distractor_diamondtriangles.svg	stimuli_target_trianglesquares.svg	30	yes	53	1	869
6.6.1	win	2022-12-27	12:02:38	12:07:29	289521	61351c3a1e3e96156bc86116	79033849	1	main_slash	7	advance_on_keypress_SLASH	30	stimuli_distractor_diamondtriangles.svg	stimuli_target_trianglesquares.svg	30	yes	57	0	378
6.6.1	win	2022-12-27	12:02:38	12:07:31	291360	61351c3a1e3e96156bc86116	79033849	1	main_slash	7	main_slash	31	stimuli_target_diamondcircles.svg	stimuli_distractor_trianglediamonds.svg	19	yes	53	1	842
6.6.1	win	2022-12-27	12:02:38	12:07:31	291360	61351c3a1e3e96156bc86116	79033849	1	main_slash	7	advance_on_keypress_SLASH	32	stimuli_target_diamondcircles.svg	stimuli_distractor_trianglediamonds.svg	19	yes	57	0	368
6.6.1	win	2022-12-27	12:02:38	12:07:33	293216	61351c3a1e3e96156bc86116	79033849	1	main_slash	7	main_slash	33	stimuli_target_squaretriangles.svg	stimuli_distractor_trianglediamonds.svg	3	yes	53	1	865
6.6.1	win	2022-12-27	12:02:38	12:07:33	293216	61351c3a1e3e96156bc86116	79033849	1	main_slash	7	advance_on_keypress_SLASH	34	stimuli_target_squaretriangles.svg	stimuli_distractor_trianglediamonds.svg	3	yes	57	0	357
6.6.1	win	2022-12-27	12:02:38	12:07:34	295079	61351c3a1e3e96156bc86116	79033849	1	main_slash	7	main_slash	35	stimuli_distractor_trianglediamonds.svg	stimuli_target_trianglecircles.svg	25	yes	53	1	878
6.6.1	win	2022-12-27	12:02:38	12:07:34	295079	61351c3a1e3e96156bc86116	79033849	1	main_slash	7	advance_on_keypress_SLASH	36	stimuli_distractor_trianglediamonds.svg	stimuli_target_trianglecircles.svg	25	yes	57	0	291
6.6.1	win	2022-12-27	12:02:38	12:07:36	296863	61351c3a1e3e96156bc86116	79033849	1	main_slash	7	main_slash	37	stimuli_target_diamondsquares.svg	stimuli_distractor_trianglediamonds.svg	20	yes	53	1	871
6.6.1	win	2022-12-27	12:02:38	12:07:36	296863	61351c3a1e3e96156bc86116	79033849	1	main_slash	7	advance_on_keypress_SLASH	38	stimuli_target_diamondsquares.svg	stimuli_distractor_trianglediamonds.svg	20	yes	57	0	315
6.6.1	win	2022-12-27	12:02:38	12:07:38	298615	61351c3a1e3e96156bc86116	79033849	1	main_slash	7	main_slash	39	stimuli_target_circletriangles.svg	stimuli_distractor_diamondtriangles.svg	5	yes	53	1	814
6.6.1	win	2022-12-27	12:02:38	12:07:38	298615	61351c3a1e3e96156bc86116	79033849	1	main_slash	7	advance_on_keypress_SLASH	40	stimuli_target_circletriangles.svg	stimuli_distractor_diamondtriangles.svg	5	yes	57	0	349
6.6.1	win	2022-12-27	12:02:38	12:07:40	300544	61351c3a1e3e96156bc86116	79033849	1	main_slash	7	main_slash	41	stimuli_target_trianglecircles.svg	stimuli_distractor_diamondtriangles.svg	21	yes	53	1	958
6.6.1	win	2022-12-27	12:02:38	12:07:40	300544	61351c3a1e3e96156bc86116	79033849	1	main_slash	7	advance_on_keypress_SLASH	42	stimuli_target_trianglecircles.svg	stimuli_distractor_diamondtriangles.svg	21	yes	57	0	368
6.6.1	win	2022-12-27	12:02:38	12:07:42	302488	61351c3a1e3e96156bc86116	79033849	1	main_slash	7	main_slash	43	stimuli_distractor_trianglediamonds.svg	stimuli_target_diamondcircles.svg	27	yes	53	1	952
6.6.1	win	2022-12-27	12:02:38	12:07:42	302488	61351c3a1e3e96156bc86116	79033849	1	main_slash	7	advance_on_keypress_SLASH	44	stimuli_distractor_trianglediamonds.svg	stimuli_target_diamondcircles.svg	27	yes	57	0	450
6.6.1	win	2022-12-27	12:02:38	12:07:44	304368	61351c3a1e3e96156bc86116	79033849	1	main_slash	7	main_slash	45	stimuli_target_circlediamonds.svg	stimuli_distractor_trianglediamonds.svg	2	yes	53	1	807
6.6.1	win	2022-12-27	12:02:38	12:07:44	304368	61351c3a1e3e96156bc86116	79033849	1	main_slash	7	advance_on_keypress_SLASH	46	stimuli_target_circlediamonds.svg	stimuli_distractor_trianglediamonds.svg	2	yes	57	0	342
6.6.1	win	2022-12-27	12:02:38	12:07:46	306224	61351c3a1e3e96156bc86116	79033849	1	main_slash	7	main_slash	47	stimuli_distractor_diamondtriangles.svg	stimuli_target_circlediamonds.svg	14	yes	53	1	888
6.6.1	win	2022-12-27	12:02:38	12:07:46	306224	61351c3a1e3e96156bc86116	79033849	1	main_slash	7	advance_on_keypress_SLASH	48	stimuli_distractor_diamondtriangles.svg	stimuli_target_circlediamonds.svg	14	yes	57	0	316
6.6.1	win	2022-12-27	12:02:38	12:07:47	308128	61351c3a1e3e96156bc86116	79033849	1	main_slash	7	main_slash	49	stimuli_distractor_diamondtriangles.svg	stimuli_target_squaretriangles.svg	15	yes	53	1	966
6.6.1	win	2022-12-27	12:02:38	12:07:47	308128	61351c3a1e3e96156bc86116	79033849	1	main_slash	7	advance_on_keypress_SLASH	50	stimuli_distractor_diamondtriangles.svg	stimuli_target_squaretriangles.svg	15	yes	57	0	279
6.6.1	win	2022-12-27	12:02:38	12:07:50	310624	61351c3a1e3e96156bc86116	79033849	1	main_slash	7	main_slash	51	stimuli_distractor_trianglediamonds.svg	stimuli_target_trianglesquares.svg	26	yes	53	1	1595
6.6.1	win	2022-12-27	12:02:38	12:07:50	310624	61351c3a1e3e96156bc86116	79033849	1	main_slash	7	advance_on_keypress_SLASH	52	stimuli_distractor_trianglediamonds.svg	stimuli_target_trianglesquares.svg	26	yes	57	0	1211
6.6.1	win	2022-12-27	12:02:38	12:07:53	313343	61351c3a1e3e96156bc86116	79033849	1	main_slash	7	main_slash	53	stimuli_distractor_diamondtriangles.svg	stimuli_target_trianglecircles.svg	29	yes	53	1	890
6.6.1	win	2022-12-27	12:02:38	12:07:53	313343	61351c3a1e3e96156bc86116	79033849	1	main_slash	7	advance_on_keypress_SLASH	54	stimuli_distractor_diamondtriangles.svg	stimuli_target_trianglecircles.svg	29	yes	57	0	414
6.6.1	win	2022-12-27	12:02:38	12:07:55	315208	61351c3a1e3e96156bc86116	79033849	1	main_slash	7	main_slash	55	stimuli_distractor_trianglediamonds.svg	stimuli_target_circletriangles.svg	9	yes	53	1	829
6.6.1	win	2022-12-27	12:02:38	12:07:55	315208	61351c3a1e3e96156bc86116	79033849	1	main_slash	7	advance_on_keypress_SLASH	56	stimuli_distractor_trianglediamonds.svg	stimuli_target_circletriangles.svg	9	yes	57	0	971
6.6.1	win	2022-12-27	12:02:38	12:07:58	318797	61351c3a1e3e96156bc86116	79033849	1	main_slash	7	main_slash	57	stimuli_distractor_trianglediamonds.svg	stimuli_distractor_diamondtriangles.svg	35	no	0	1	2000
6.6.1	win	2022-12-27	12:02:38	12:07:58	318797	61351c3a1e3e96156bc86116	79033849	1	main_slash	7	advance_on_keypress_SLASH	58	stimuli_distractor_trianglediamonds.svg	stimuli_distractor_diamondtriangles.svg	35	no	57	0	1043
6.6.1	win	2022-12-27	12:02:38	12:08:01	321287	61351c3a1e3e96156bc86116	79033849	1	main_slash	7	main_slash	59	stimuli_target_squarediamonds.svg	stimuli_distractor_trianglediamonds.svg	4	yes	53	1	825
6.6.1	win	2022-12-27	12:02:38	12:08:01	321287	61351c3a1e3e96156bc86116	79033849	1	main_slash	7	advance_on_keypress_SLASH	60	stimuli_target_squarediamonds.svg	stimuli_distractor_trianglediamonds.svg	4	yes	57	0	431
6.6.1	win	2022-12-27	12:02:38	12:08:04	324347	61351c3a1e3e96156bc86116	79033849	1	main_slash	7	main_slash	61	stimuli_distractor_diamondtriangles.svg	stimuli_distractor_diamondtriangles.svg	39	no	0	1	2000
6.6.1	win	2022-12-27	12:02:38	12:08:04	324347	61351c3a1e3e96156bc86116	79033849	1	main_slash	7	advance_on_keypress_SLASH	62	stimuli_distractor_diamondtriangles.svg	stimuli_distractor_diamondtriangles.svg	39	no	57	0	1037
6.6.1	win	2022-12-27	12:02:38	12:08:06	326600	61351c3a1e3e96156bc86116	79033849	1	main_slash	7	main_slash	63	stimuli_target_circletriangles.svg	stimuli_distractor_trianglediamonds.svg	1	yes	53	1	594
6.6.1	win	2022-12-27	12:02:38	12:08:06	326600	61351c3a1e3e96156bc86116	79033849	1	main_slash	7	advance_on_keypress_SLASH	64	stimuli_target_circletriangles.svg	stimuli_distractor_trianglediamonds.svg	1	yes	57	0	314
6.6.1	win	2022-12-27	12:02:38	12:08:08	328271	61351c3a1e3e96156bc86116	79033849	1	main_slash	7	main_slash	65	stimuli_distractor_trianglediamonds.svg	stimuli_target_circlediamonds.svg	10	yes	53	1	733
6.6.1	win	2022-12-27	12:02:38	12:08:08	328271	61351c3a1e3e96156bc86116	79033849	1	main_slash	7	advance_on_keypress_SLASH	66	stimuli_distractor_trianglediamonds.svg	stimuli_target_circlediamonds.svg	10	yes	57	0	335
6.6.1	win	2022-12-27	12:02:38	12:08:09	330088	61351c3a1e3e96156bc86116	79033849	1	main_slash	7	main_slash	67	stimuli_target_trianglesquares.svg	stimuli_distractor_trianglediamonds.svg	18	yes	53	1	857
6.6.1	win	2022-12-27	12:02:38	12:08:09	330088	61351c3a1e3e96156bc86116	79033849	1	main_slash	7	advance_on_keypress_SLASH	68	stimuli_target_trianglesquares.svg	stimuli_distractor_trianglediamonds.svg	18	yes	57	0	510
6.6.1	win	2022-12-27	12:02:38	12:08:11	332007	61351c3a1e3e96156bc86116	79033849	1	main_slash	7	main_slash	69	stimuli_target_trianglesquares.svg	stimuli_distractor_diamondtriangles.svg	22	yes	53	1	785
6.6.1	win	2022-12-27	12:02:38	12:08:11	332007	61351c3a1e3e96156bc86116	79033849	1	main_slash	7	advance_on_keypress_SLASH	70	stimuli_target_trianglesquares.svg	stimuli_distractor_diamondtriangles.svg	22	yes	57	0	313
6.6.1	win	2022-12-27	12:02:38	12:08:13	333767	61351c3a1e3e96156bc86116	79033849	1	main_slash	7	main_slash	71	stimuli_target_trianglecircles.svg	stimuli_distractor_trianglediamonds.svg	17	yes	53	1	820
6.6.1	win	2022-12-27	12:02:38	12:08:13	333767	61351c3a1e3e96156bc86116	79033849	1	main_slash	7	advance_on_keypress_SLASH	72	stimuli_target_trianglecircles.svg	stimuli_distractor_trianglediamonds.svg	17	yes	57	0	363
6.6.1	win	2022-12-27	12:02:38	12:08:15	335529	61351c3a1e3e96156bc86116	79033849	1	main_slash	7	main_slash	73	stimuli_distractor_trianglediamonds.svg	stimuli_target_squaretriangles.svg	11	yes	53	1	780
6.6.1	win	2022-12-27	12:02:38	12:08:15	335529	61351c3a1e3e96156bc86116	79033849	1	main_slash	7	advance_on_keypress_SLASH	74	stimuli_distractor_trianglediamonds.svg	stimuli_target_squaretriangles.svg	11	yes	57	0	268
6.6.1	win	2022-12-27	12:02:38	12:08:17	337383	61351c3a1e3e96156bc86116	79033849	1	main_slash	7	main_slash	75	stimuli_target_squaretriangles.svg	stimuli_distractor_diamondtriangles.svg	7	yes	53	1	960
6.6.1	win	2022-12-27	12:02:38	12:08:17	337383	61351c3a1e3e96156bc86116	79033849	1	main_slash	7	advance_on_keypress_SLASH	76	stimuli_target_squaretriangles.svg	stimuli_distractor_diamondtriangles.svg	7	yes	57	0	282
6.6.1	win	2022-12-27	12:02:38	12:08:20	340290	61351c3a1e3e96156bc86116	79033849	1	main_slash	7	main_slash	77	stimuli_distractor_trianglediamonds.svg	stimuli_distractor_trianglediamonds.svg	34	no	0	1	2000
6.6.1	win	2022-12-27	12:02:38	12:08:20	340290	61351c3a1e3e96156bc86116	79033849	1	main_slash	7	advance_on_keypress_SLASH	78	stimuli_distractor_trianglediamonds.svg	stimuli_distractor_trianglediamonds.svg	34	no	57	0	1373
6.6.1	win	2022-12-27	12:02:38	12:08:22	343031	61351c3a1e3e96156bc86116	79033849	1	main_slash	7	main_slash	79	stimuli_distractor_diamondtriangles.svg	stimuli_target_circletriangles.svg	13	yes	53	1	741
6.6.1	win	2022-12-27	12:02:38	12:08:22	343031	61351c3a1e3e96156bc86116	79033849	1	main_slash	7	advance_on_keypress_SLASH	80	stimuli_distractor_diamondtriangles.svg	stimuli_target_circletriangles.svg	13	yes	57	0	271
6.6.1	win	2022-12-27	12:02:38	12:08:24	344727	61351c3a1e3e96156bc86116	79033849	1	main_slash	7	main_slash	81	stimuli_target_trianglecircles.svg	stimuli_distractor_trianglediamonds.svg	17	yes	53	1	804
6.6.1	win	2022-12-27	12:02:38	12:08:24	344727	61351c3a1e3e96156bc86116	79033849	1	main_slash	7	advance_on_keypress_SLASH	82	stimuli_target_trianglecircles.svg	stimuli_distractor_trianglediamonds.svg	17	yes	57	0	18139
6.6.1	win	2022-12-27	12:02:38	12:08:45	365485	61351c3a1e3e96156bc86116	79033849	1	main_slash	7	main_slash	83	stimuli_distractor_trianglediamonds.svg	stimuli_distractor_diamondtriangles.svg	35	no	0	1	2000
6.6.1	win	2022-12-27	12:02:38	12:08:45	365485	61351c3a1e3e96156bc86116	79033849	1	main_slash	7	advance_on_keypress_SLASH	84	stimuli_distractor_trianglediamonds.svg	stimuli_distractor_diamondtriangles.svg	35	no	57	0	778
6.6.1	win	2022-12-27	12:02:38	12:08:47	367929	61351c3a1e3e96156bc86116	79033849	1	main_slash	7	main_slash	85	stimuli_target_circlediamonds.svg	stimuli_distractor_diamondtriangles.svg	6	yes	53	1	1042
6.6.1	win	2022-12-27	12:02:38	12:08:47	367929	61351c3a1e3e96156bc86116	79033849	1	main_slash	7	advance_on_keypress_SLASH	86	stimuli_target_circlediamonds.svg	stimuli_distractor_diamondtriangles.svg	6	yes	57	0	1608
6.6.1	win	2022-12-27	12:02:38	12:08:51	371697	61351c3a1e3e96156bc86116	79033849	1	main_slash	7	main_slash	87	stimuli_target_trianglecircles.svg	stimuli_distractor_diamondtriangles.svg	21	yes	53	1	1536
6.6.1	win	2022-12-27	12:02:38	12:08:51	371697	61351c3a1e3e96156bc86116	79033849	1	main_slash	7	advance_on_keypress_SLASH	88	stimuli_target_trianglecircles.svg	stimuli_distractor_diamondtriangles.svg	21	yes	57	0	577
6.6.1	win	2022-12-27	12:02:38	12:08:54	374360	61351c3a1e3e96156bc86116	79033849	1	main_slash	7	main_slash	89	stimuli_distractor_trianglediamonds.svg	stimuli_target_diamondsquares.svg	28	yes	53	1	1465
6.6.1	win	2022-12-27	12:02:38	12:08:54	374360	61351c3a1e3e96156bc86116	79033849	1	main_slash	7	advance_on_keypress_SLASH	90	stimuli_distractor_trianglediamonds.svg	stimuli_target_diamondsquares.svg	28	yes	57	0	590
6.6.1	win	2022-12-27	12:02:38	12:08:56	376719	61351c3a1e3e96156bc86116	79033849	1	main_slash	7	main_slash	91	stimuli_target_squarediamonds.svg	stimuli_distractor_trianglediamonds.svg	4	yes	53	1	1141
6.6.1	win	2022-12-27	12:02:38	12:08:56	376719	61351c3a1e3e96156bc86116	79033849	1	main_slash	7	advance_on_keypress_SLASH	92	stimuli_target_squarediamonds.svg	stimuli_distractor_trianglediamonds.svg	4	yes	57	0	479
6.6.1	win	2022-12-27	12:02:38	12:08:58	378703	61351c3a1e3e96156bc86116	79033849	1	main_slash	7	main_slash	93	stimuli_target_squaretriangles.svg	stimuli_distractor_diamondtriangles.svg	7	yes	53	1	884
6.6.1	win	2022-12-27	12:02:38	12:08:58	378703	61351c3a1e3e96156bc86116	79033849	1	main_slash	7	advance_on_keypress_SLASH	94	stimuli_target_squaretriangles.svg	stimuli_distractor_diamondtriangles.svg	7	yes	57	0	352
6.6.1	win	2022-12-27	12:02:38	12:09:00	380743	61351c3a1e3e96156bc86116	79033849	1	main_slash	7	main_slash	95	stimuli_target_diamondsquares.svg	stimuli_distractor_diamondtriangles.svg	24	yes	53	1	1065
6.6.1	win	2022-12-27	12:02:38	12:09:00	380743	61351c3a1e3e96156bc86116	79033849	1	main_slash	7	advance_on_keypress_SLASH	96	stimuli_target_diamondsquares.svg	stimuli_distractor_diamondtriangles.svg	24	yes	57	0	326
6.6.1	win	2022-12-27	12:02:38	12:09:02	382736	61351c3a1e3e96156bc86116	79033849	1	main_slash	7	main_slash	97	stimuli_target_circletriangles.svg	stimuli_distractor_trianglediamonds.svg	1	yes	53	1	1040
6.6.1	win	2022-12-27	12:02:38	12:09:02	382736	61351c3a1e3e96156bc86116	79033849	1	main_slash	7	advance_on_keypress_SLASH	98	stimuli_target_circletriangles.svg	stimuli_distractor_trianglediamonds.svg	1	yes	57	0	350
6.6.1	win	2022-12-27	12:02:38	12:09:05	385713	61351c3a1e3e96156bc86116	79033849	1	main_slash	7	main_slash	99	stimuli_distractor_diamondtriangles.svg	stimuli_distractor_trianglediamonds.svg	38	no	0	1	2000
6.6.1	win	2022-12-27	12:02:38	12:09:05	385713	61351c3a1e3e96156bc86116	79033849	1	main_slash	7	advance_on_keypress_SLASH	100	stimuli_distractor_diamondtriangles.svg	stimuli_distractor_trianglediamonds.svg	38	no	57	0	1639
6.6.1	win	2022-12-27	12:02:38	12:09:08	388663	61351c3a1e3e96156bc86116	79033849	1	main_slash	7	main_slash	101	stimuli_distractor_trianglediamonds.svg	stimuli_target_squarediamonds.svg	12	yes	53	1	692
6.6.1	win	2022-12-27	12:02:38	12:09:08	388663	61351c3a1e3e96156bc86116	79033849	1	main_slash	7	advance_on_keypress_SLASH	102	stimuli_distractor_trianglediamonds.svg	stimuli_target_squarediamonds.svg	12	yes	57	0	384
6.6.1	win	2022-12-27	12:02:38	12:09:10	391056	61351c3a1e3e96156bc86116	79033849	1	main_slash	7	main_slash	103	stimuli_target_diamondsquares.svg	stimuli_distractor_trianglediamonds.svg	20	yes	53	1	1384
6.6.1	win	2022-12-27	12:02:38	12:09:10	391056	61351c3a1e3e96156bc86116	79033849	1	main_slash	7	advance_on_keypress_SLASH	104	stimuli_target_diamondsquares.svg	stimuli_distractor_trianglediamonds.svg	20	yes	57	0	536
6.6.1	win	2022-12-27	12:02:38	12:09:14	394213	61351c3a1e3e96156bc86116	79033849	1	main_slash	7	main_slash	105	stimuli_distractor_diamondtriangles.svg	stimuli_distractor_diamondtriangles.svg	40	no	0	1	2000
6.6.1	win	2022-12-27	12:02:38	12:09:14	394213	61351c3a1e3e96156bc86116	79033849	1	main_slash	7	advance_on_keypress_SLASH	106	stimuli_distractor_diamondtriangles.svg	stimuli_distractor_diamondtriangles.svg	40	no	57	0	778
6.6.1	win	2022-12-27	12:02:38	12:09:17	397614	61351c3a1e3e96156bc86116	79033849	1	main_slash	7	main_slash	107	stimuli_distractor_trianglediamonds.svg	stimuli_distractor_diamondtriangles.svg	36	no	0	1	2000
6.6.1	win	2022-12-27	12:02:38	12:09:17	397614	61351c3a1e3e96156bc86116	79033849	1	main_slash	7	advance_on_keypress_SLASH	108	stimuli_distractor_trianglediamonds.svg	stimuli_distractor_diamondtriangles.svg	36	no	57	0	817
6.6.1	win	2022-12-27	12:02:38	12:09:19	400055	61351c3a1e3e96156bc86116	79033849	1	main_slash	7	main_slash	109	stimuli_distractor_diamondtriangles.svg	stimuli_target_circletriangles.svg	13	yes	53	1	1000
6.6.1	win	2022-12-27	12:02:38	12:09:19	400055	61351c3a1e3e96156bc86116	79033849	1	main_slash	7	advance_on_keypress_SLASH	110	stimuli_distractor_diamondtriangles.svg	stimuli_target_circletriangles.svg	13	yes	57	0	543
6.6.1	win	2022-12-27	12:02:38	12:09:21	402152	61351c3a1e3e96156bc86116	79033849	1	main_slash	7	main_slash	111	stimuli_target_circletriangles.svg	stimuli_distractor_diamondtriangles.svg	5	yes	53	1	929
6.6.1	win	2022-12-27	12:02:38	12:09:21	402152	61351c3a1e3e96156bc86116	79033849	1	main_slash	7	advance_on_keypress_SLASH	112	stimuli_target_circletriangles.svg	stimuli_distractor_diamondtriangles.svg	5	yes	57	0	307
6.6.1	win	2022-12-27	12:02:38	12:09:23	403952	61351c3a1e3e96156bc86116	79033849	1	main_slash	7	main_slash	113	stimuli_distractor_diamondtriangles.svg	stimuli_target_diamondsquares.svg	32	yes	53	1	870
6.6.1	win	2022-12-27	12:02:38	12:09:23	403952	61351c3a1e3e96156bc86116	79033849	1	main_slash	7	advance_on_keypress_SLASH	114	stimuli_distractor_diamondtriangles.svg	stimuli_target_diamondsquares.svg	32	yes	57	0	283
6.6.1	win	2022-12-27	12:02:38	12:09:25	405943	61351c3a1e3e96156bc86116	79033849	1	main_slash	7	main_slash	115	stimuli_distractor_trianglediamonds.svg	stimuli_target_diamondcircles.svg	27	yes	53	1	1087
6.6.1	win	2022-12-27	12:02:38	12:09:25	405943	61351c3a1e3e96156bc86116	79033849	1	main_slash	7	advance_on_keypress_SLASH	116	stimuli_distractor_trianglediamonds.svg	stimuli_target_diamondcircles.svg	27	yes	57	0	499
6.6.1	win	2022-12-27	12:02:38	12:09:28	408255	61351c3a1e3e96156bc86116	79033849	1	main_slash	7	main_slash	117	stimuli_distractor_diamondtriangles.svg	stimuli_target_trianglecircles.svg	29	yes	53	1	1190
6.6.1	win	2022-12-27	12:02:38	12:09:28	408255	61351c3a1e3e96156bc86116	79033849	1	main_slash	7	advance_on_keypress_SLASH	118	stimuli_distractor_diamondtriangles.svg	stimuli_target_trianglecircles.svg	29	yes	57	0	534
6.6.1	win	2022-12-27	12:02:38	12:09:31	411337	61351c3a1e3e96156bc86116	79033849	1	main_slash	7	main_slash	119	stimuli_distractor_trianglediamonds.svg	stimuli_target_circlediamonds.svg	10	yes	53	1	1920
6.6.1	win	2022-12-27	12:02:38	12:09:31	411337	61351c3a1e3e96156bc86116	79033849	1	main_slash	7	advance_on_keypress_SLASH	120	stimuli_distractor_trianglediamonds.svg	stimuli_target_circlediamonds.svg	10	yes	57	0	619
6.6.1	win	2022-12-27	12:02:38	12:09:33	413559	61351c3a1e3e96156bc86116	79033849	1	main_slash	7	main_slash	121	stimuli_distractor_diamondtriangles.svg	stimuli_target_circlediamonds.svg	14	yes	53	1	985
6.6.1	win	2022-12-27	12:02:38	12:09:33	413559	61351c3a1e3e96156bc86116	79033849	1	main_slash	7	advance_on_keypress_SLASH	122	stimuli_distractor_diamondtriangles.svg	stimuli_target_circlediamonds.svg	14	yes	57	0	441
6.6.1	win	2022-12-27	12:02:38	12:09:36	416624	61351c3a1e3e96156bc86116	79033849	1	main_slash	7	main_slash	123	stimuli_distractor_diamondtriangles.svg	stimuli_distractor_trianglediamonds.svg	37	no	0	1	2000
6.6.1	win	2022-12-27	12:02:38	12:09:36	416624	61351c3a1e3e96156bc86116	79033849	1	main_slash	7	advance_on_keypress_SLASH	124	stimuli_distractor_diamondtriangles.svg	stimuli_distractor_trianglediamonds.svg	37	no	57	0	654
6.6.1	win	2022-12-27	12:02:38	12:09:39	419901	61351c3a1e3e96156bc86116	79033849	1	main_slash	7	main_slash	125	stimuli_distractor_trianglediamonds.svg	stimuli_distractor_trianglediamonds.svg	34	no	0	1	2000
6.6.1	win	2022-12-27	12:02:38	12:09:39	419901	61351c3a1e3e96156bc86116	79033849	1	main_slash	7	advance_on_keypress_SLASH	126	stimuli_distractor_trianglediamonds.svg	stimuli_distractor_trianglediamonds.svg	34	no	57	0	563
6.6.1	win	2022-12-27	12:02:38	12:09:41	421919	61351c3a1e3e96156bc86116	79033849	1	main_slash	7	main_slash	127	stimuli_distractor_trianglediamonds.svg	stimuli_target_circletriangles.svg	9	yes	53	1	836
6.6.1	win	2022-12-27	12:02:38	12:09:41	421919	61351c3a1e3e96156bc86116	79033849	1	main_slash	7	advance_on_keypress_SLASH	128	stimuli_distractor_trianglediamonds.svg	stimuli_target_circletriangles.svg	9	yes	57	0	402
6.6.1	win	2022-12-27	12:02:38	12:09:43	424023	61351c3a1e3e96156bc86116	79033849	1	main_slash	7	main_slash	129	stimuli_target_diamondcircles.svg	stimuli_distractor_diamondtriangles.svg	23	yes	53	1	1081
6.6.1	win	2022-12-27	12:02:38	12:09:43	424023	61351c3a1e3e96156bc86116	79033849	1	main_slash	7	advance_on_keypress_SLASH	130	stimuli_target_diamondcircles.svg	stimuli_distractor_diamondtriangles.svg	23	yes	57	0	406
6.6.1	win	2022-12-27	12:02:38	12:09:46	426175	61351c3a1e3e96156bc86116	79033849	1	main_slash	7	main_slash	131	stimuli_target_trianglesquares.svg	stimuli_distractor_trianglediamonds.svg	18	yes	53	1	1125
6.6.1	win	2022-12-27	12:02:38	12:09:46	426175	61351c3a1e3e96156bc86116	79033849	1	main_slash	7	advance_on_keypress_SLASH	132	stimuli_target_trianglesquares.svg	stimuli_distractor_trianglediamonds.svg	18	yes	57	0	399
6.6.1	win	2022-12-27	12:02:38	12:09:49	429203	61351c3a1e3e96156bc86116	79033849	1	main_slash	7	main_slash	133	stimuli_distractor_trianglediamonds.svg	stimuli_distractor_trianglediamonds.svg	33	no	0	1	2000
6.6.1	win	2022-12-27	12:02:38	12:09:49	429203	61351c3a1e3e96156bc86116	79033849	1	main_slash	7	advance_on_keypress_SLASH	134	stimuli_distractor_trianglediamonds.svg	stimuli_distractor_trianglediamonds.svg	33	no	57	0	870
6.6.1	win	2022-12-27	12:02:38	12:09:51	431927	61351c3a1e3e96156bc86116	79033849	1	main_slash	7	main_slash	135	stimuli_target_diamondcircles.svg	stimuli_distractor_trianglediamonds.svg	19	yes	53	1	1234
6.6.1	win	2022-12-27	12:02:38	12:09:51	431927	61351c3a1e3e96156bc86116	79033849	1	main_slash	7	advance_on_keypress_SLASH	136	stimuli_target_diamondcircles.svg	stimuli_distractor_trianglediamonds.svg	19	yes	57	0	1656
6.6.1	win	2022-12-27	12:02:38	12:09:54	435161	61351c3a1e3e96156bc86116	79033849	1	main_slash	7	main_slash	137	stimuli_distractor_trianglediamonds.svg	stimuli_target_squaretriangles.svg	11	yes	53	1	949
6.6.1	win	2022-12-27	12:02:38	12:09:54	435161	61351c3a1e3e96156bc86116	79033849	1	main_slash	7	advance_on_keypress_SLASH	138	stimuli_distractor_trianglediamonds.svg	stimuli_target_squaretriangles.svg	11	yes	57	0	399
6.6.1	win	2022-12-27	12:02:38	12:09:56	437159	61351c3a1e3e96156bc86116	79033849	1	main_slash	7	main_slash	139	stimuli_distractor_diamondtriangles.svg	stimuli_target_trianglesquares.svg	30	yes	53	1	974
6.6.1	win	2022-12-27	12:02:38	12:09:56	437159	61351c3a1e3e96156bc86116	79033849	1	main_slash	7	advance_on_keypress_SLASH	140	stimuli_distractor_diamondtriangles.svg	stimuli_target_trianglesquares.svg	30	yes	57	0	934
6.6.1	win	2022-12-27	12:02:38	12:09:59	439648	61351c3a1e3e96156bc86116	79033849	1	main_slash	7	main_slash	141	stimuli_distractor_diamondtriangles.svg	stimuli_target_squarediamonds.svg	16	yes	53	1	928
6.6.1	win	2022-12-27	12:02:38	12:09:59	439648	61351c3a1e3e96156bc86116	79033849	1	main_slash	7	advance_on_keypress_SLASH	142	stimuli_distractor_diamondtriangles.svg	stimuli_target_squarediamonds.svg	16	yes	57	0	443
6.6.1	win	2022-12-27	12:02:38	12:10:02	442711	61351c3a1e3e96156bc86116	79033849	1	main_slash	7	main_slash	143	stimuli_distractor_diamondtriangles.svg	stimuli_distractor_diamondtriangles.svg	39	no	0	1	2000
6.6.1	win	2022-12-27	12:02:38	12:10:02	442711	61351c3a1e3e96156bc86116	79033849	1	main_slash	7	advance_on_keypress_SLASH	144	stimuli_distractor_diamondtriangles.svg	stimuli_distractor_diamondtriangles.svg	39	no	57	0	569
6.6.1	win	2022-12-27	12:02:38	12:10:04	444961	61351c3a1e3e96156bc86116	79033849	1	main_slash	7	main_slash	145	stimuli_target_trianglesquares.svg	stimuli_distractor_diamondtriangles.svg	22	yes	53	1	1056
6.6.1	win	2022-12-27	12:02:38	12:10:04	444961	61351c3a1e3e96156bc86116	79033849	1	main_slash	7	advance_on_keypress_SLASH	146	stimuli_target_trianglesquares.svg	stimuli_distractor_diamondtriangles.svg	22	yes	57	0	413
6.6.1	win	2022-12-27	12:02:38	12:10:07	447383	61351c3a1e3e96156bc86116	79033849	1	main_slash	7	main_slash	147	stimuli_distractor_diamondtriangles.svg	stimuli_target_squaretriangles.svg	15	yes	53	1	1388
6.6.1	win	2022-12-27	12:02:38	12:10:07	447383	61351c3a1e3e96156bc86116	79033849	1	main_slash	7	advance_on_keypress_SLASH	148	stimuli_distractor_diamondtriangles.svg	stimuli_target_squaretriangles.svg	15	yes	57	0	1029
6.6.1	win	2022-12-27	12:02:38	12:10:09	450144	61351c3a1e3e96156bc86116	79033849	1	main_slash	7	main_slash	149	stimuli_distractor_diamondtriangles.svg	stimuli_target_diamondcircles.svg	31	yes	53	1	1115
6.6.1	win	2022-12-27	12:02:38	12:10:09	450144	61351c3a1e3e96156bc86116	79033849	1	main_slash	7	advance_on_keypress_SLASH	150	stimuli_distractor_diamondtriangles.svg	stimuli_target_diamondcircles.svg	31	yes	57	0	381
6.6.1	win	2022-12-27	12:02:38	12:10:12	452975	61351c3a1e3e96156bc86116	79033849	1	main_slash	7	main_slash	151	stimuli_target_squarediamonds.svg	stimuli_distractor_diamondtriangles.svg	8	yes	53	1	1821
6.6.1	win	2022-12-27	12:02:38	12:10:12	452975	61351c3a1e3e96156bc86116	79033849	1	main_slash	7	advance_on_keypress_SLASH	152	stimuli_target_squarediamonds.svg	stimuli_distractor_diamondtriangles.svg	8	yes	57	0	572
6.6.1	win	2022-12-27	12:02:38	12:10:15	455175	61351c3a1e3e96156bc86116	79033849	1	main_slash	7	main_slash	153	stimuli_target_squaretriangles.svg	stimuli_distractor_trianglediamonds.svg	3	yes	53	1	1013
6.6.1	win	2022-12-27	12:02:38	12:10:15	455175	61351c3a1e3e96156bc86116	79033849	1	main_slash	7	advance_on_keypress_SLASH	154	stimuli_target_squaretriangles.svg	stimuli_distractor_trianglediamonds.svg	3	yes	57	0	324
6.6.1	win	2022-12-27	12:02:38	12:10:17	457304	61351c3a1e3e96156bc86116	79033849	1	main_slash	7	main_slash	155	stimuli_target_circlediamonds.svg	stimuli_distractor_trianglediamonds.svg	2	yes	53	1	1182
6.6.1	win	2022-12-27	12:02:38	12:10:17	457304	61351c3a1e3e96156bc86116	79033849	1	main_slash	7	advance_on_keypress_SLASH	156	stimuli_target_circlediamonds.svg	stimuli_distractor_trianglediamonds.svg	2	yes	57	0	1214
6.6.1	win	2022-12-27	12:02:38	12:10:19	460119	61351c3a1e3e96156bc86116	79033849	1	main_slash	7	main_slash	157	stimuli_distractor_trianglediamonds.svg	stimuli_target_trianglesquares.svg	26	yes	53	1	973
6.6.1	win	2022-12-27	12:02:38	12:10:19	460119	61351c3a1e3e96156bc86116	79033849	1	main_slash	7	advance_on_keypress_SLASH	158	stimuli_distractor_trianglediamonds.svg	stimuli_target_trianglesquares.svg	26	yes	57	0	374
6.6.1	win	2022-12-27	12:02:38	12:10:21	462160	61351c3a1e3e96156bc86116	79033849	1	main_slash	7	main_slash	159	stimuli_distractor_trianglediamonds.svg	stimuli_target_trianglecircles.svg	25	yes	53	1	1046
6.6.1	win	2022-12-27	12:02:38	12:10:21	462160	61351c3a1e3e96156bc86116	79033849	1	main_slash	7	advance_on_keypress_SLASH	160	stimuli_distractor_trianglediamonds.svg	stimuli_target_trianglecircles.svg	25	yes	57	0	292
6.6.1	win	2022-12-27	12:02:38	12:10:41	481513	61351c3a1e3e96156bc86116	79033849	1	practice_z	9	practice_z	1	stimuli_target_circlediamonds.svg	stimuli_distractor_diamondtriangles.svg	1	yes	44	1	720
6.6.1	win	2022-12-27	12:02:38	12:10:41	481513	61351c3a1e3e96156bc86116	79033849	1	practice_z	9	advance_on_keypress_ZEE	2	stimuli_target_circlediamonds.svg	stimuli_distractor_diamondtriangles.svg	1	yes	57	0	491
6.6.1	win	2022-12-27	12:02:38	12:10:45	485635	61351c3a1e3e96156bc86116	79033849	1	practice_z	9	practice_z	3	stimuli_distractor_diamondtriangles.svg	stimuli_distractor_diamondtriangles.svg	13	no	0	1	2000
6.6.1	win	2022-12-27	12:02:38	12:10:45	485635	61351c3a1e3e96156bc86116	79033849	1	practice_z	9	advance_on_keypress_ZEE	4	stimuli_distractor_diamondtriangles.svg	stimuli_distractor_diamondtriangles.svg	13	no	57	0	414
6.6.1	win	2022-12-27	12:02:38	12:10:48	488370	61351c3a1e3e96156bc86116	79033849	1	practice_z	9	practice_z	5	stimuli_target_diamondsquares.svg	stimuli_distractor_trianglediamonds.svg	6	yes	44	1	692
6.6.1	win	2022-12-27	12:02:38	12:10:48	488370	61351c3a1e3e96156bc86116	79033849	1	practice_z	9	advance_on_keypress_ZEE	6	stimuli_target_diamondsquares.svg	stimuli_distractor_trianglediamonds.svg	6	yes	57	0	464
6.6.1	win	2022-12-27	12:02:38	12:10:51	491312	61351c3a1e3e96156bc86116	79033849	1	practice_z	9	practice_z	7	stimuli_distractor_diamondtriangles.svg	stimuli_target_trianglecircles.svg	9	yes	44	1	853
6.6.1	win	2022-12-27	12:02:38	12:10:51	491312	61351c3a1e3e96156bc86116	79033849	1	practice_z	9	advance_on_keypress_ZEE	8	stimuli_distractor_diamondtriangles.svg	stimuli_target_trianglecircles.svg	9	yes	57	0	410
6.6.1	win	2022-12-27	12:02:38	12:10:54	494169	61351c3a1e3e96156bc86116	79033849	1	practice_z	9	practice_z	9	stimuli_target_squarediamonds.svg	stimuli_distractor_diamondtriangles.svg	2	yes	44	1	825
6.6.1	win	2022-12-27	12:02:38	12:10:54	494169	61351c3a1e3e96156bc86116	79033849	1	practice_z	9	advance_on_keypress_ZEE	10	stimuli_target_squarediamonds.svg	stimuli_distractor_diamondtriangles.svg	2	yes	57	0	463
6.6.1	win	2022-12-27	12:02:38	12:10:56	496977	61351c3a1e3e96156bc86116	79033849	1	practice_z	9	practice_z	11	stimuli_distractor_trianglediamonds.svg	stimuli_target_diamondcircles.svg	12	yes	44	1	724
6.6.1	win	2022-12-27	12:02:38	12:10:56	496977	61351c3a1e3e96156bc86116	79033849	1	practice_z	9	advance_on_keypress_ZEE	12	stimuli_distractor_trianglediamonds.svg	stimuli_target_diamondcircles.svg	12	yes	57	0	471
6.6.1	win	2022-12-27	12:02:38	12:10:59	499953	61351c3a1e3e96156bc86116	79033849	1	practice_z	9	practice_z	13	stimuli_distractor_trianglediamonds.svg	stimuli_target_circlediamonds.svg	10	yes	44	1	883
6.6.1	win	2022-12-27	12:02:38	12:10:59	499953	61351c3a1e3e96156bc86116	79033849	1	practice_z	9	advance_on_keypress_ZEE	14	stimuli_distractor_trianglediamonds.svg	stimuli_target_circlediamonds.svg	10	yes	57	0	271
6.6.1	win	2022-12-27	12:02:38	12:11:03	503844	61351c3a1e3e96156bc86116	79033849	1	practice_z	9	practice_z	15	stimuli_distractor_trianglediamonds.svg	stimuli_distractor_diamondtriangles.svg	16	no	0	1	2000
6.6.1	win	2022-12-27	12:02:38	12:11:03	503844	61351c3a1e3e96156bc86116	79033849	1	practice_z	9	advance_on_keypress_ZEE	16	stimuli_distractor_trianglediamonds.svg	stimuli_distractor_diamondtriangles.svg	16	no	57	0	547
6.6.1	win	2022-12-27	12:02:38	12:11:06	506882	61351c3a1e3e96156bc86116	79033849	1	practice_z	9	practice_z	17	stimuli_distractor_diamondtriangles.svg	stimuli_target_diamondcircles.svg	8	yes	44	1	860
6.6.1	win	2022-12-27	12:02:38	12:11:06	506882	61351c3a1e3e96156bc86116	79033849	1	practice_z	9	advance_on_keypress_ZEE	18	stimuli_distractor_diamondtriangles.svg	stimuli_target_diamondcircles.svg	8	yes	57	0	433
6.6.1	win	2022-12-27	12:02:38	12:11:10	510937	61351c3a1e3e96156bc86116	79033849	1	practice_z	9	practice_z	19	stimuli_distractor_trianglediamonds.svg	stimuli_distractor_trianglediamonds.svg	15	no	0	1	2000
6.6.1	win	2022-12-27	12:02:38	12:11:10	510937	61351c3a1e3e96156bc86116	79033849	1	practice_z	9	advance_on_keypress_ZEE	20	stimuli_distractor_trianglediamonds.svg	stimuli_distractor_trianglediamonds.svg	15	no	57	0	335
6.6.1	win	2022-12-27	12:02:38	12:11:13	513793	61351c3a1e3e96156bc86116	79033849	1	practice_z	9	practice_z	21	stimuli_target_squarediamonds.svg	stimuli_distractor_trianglediamonds.svg	5	yes	44	1	896
6.6.1	win	2022-12-27	12:02:38	12:11:13	513793	61351c3a1e3e96156bc86116	79033849	1	practice_z	9	advance_on_keypress_ZEE	22	stimuli_target_squarediamonds.svg	stimuli_distractor_trianglediamonds.svg	5	yes	57	0	436
6.6.1	win	2022-12-27	12:02:38	12:11:17	517854	61351c3a1e3e96156bc86116	79033849	1	practice_z	9	practice_z	23	stimuli_distractor_diamondtriangles.svg	stimuli_distractor_trianglediamonds.svg	14	no	0	1	2000
6.6.1	win	2022-12-27	12:02:38	12:11:17	517854	61351c3a1e3e96156bc86116	79033849	1	practice_z	9	advance_on_keypress_ZEE	24	stimuli_distractor_diamondtriangles.svg	stimuli_distractor_trianglediamonds.svg	14	no	57	0	265
6.6.1	win	2022-12-27	12:02:38	12:11:20	520640	61351c3a1e3e96156bc86116	79033849	1	practice_z	9	practice_z	25	stimuli_target_diamondsquares.svg	stimuli_distractor_diamondtriangles.svg	3	yes	44	1	894
6.6.1	win	2022-12-27	12:02:38	12:11:20	520640	61351c3a1e3e96156bc86116	79033849	1	practice_z	9	advance_on_keypress_ZEE	26	stimuli_target_diamondsquares.svg	stimuli_distractor_diamondtriangles.svg	3	yes	57	0	241
6.6.1	win	2022-12-27	12:02:38	12:11:23	523336	61351c3a1e3e96156bc86116	79033849	1	practice_z	9	practice_z	27	stimuli_distractor_diamondtriangles.svg	stimuli_target_circletriangles.svg	7	yes	44	1	831
6.6.1	win	2022-12-27	12:02:38	12:11:23	523336	61351c3a1e3e96156bc86116	79033849	1	practice_z	9	advance_on_keypress_ZEE	28	stimuli_distractor_diamondtriangles.svg	stimuli_target_circletriangles.svg	7	yes	57	0	293
6.6.1	win	2022-12-27	12:02:38	12:11:25	526103	61351c3a1e3e96156bc86116	79033849	1	practice_z	9	practice_z	29	stimuli_distractor_trianglediamonds.svg	stimuli_target_squarediamonds.svg	11	yes	44	1	849
6.6.1	win	2022-12-27	12:02:38	12:11:25	526103	61351c3a1e3e96156bc86116	79033849	1	practice_z	9	advance_on_keypress_ZEE	30	stimuli_distractor_trianglediamonds.svg	stimuli_target_squarediamonds.svg	11	yes	57	0	550
6.6.1	win	2022-12-27	12:02:38	12:11:28	529111	61351c3a1e3e96156bc86116	79033849	1	practice_z	9	practice_z	31	stimuli_target_circlediamonds.svg	stimuli_distractor_trianglediamonds.svg	4	yes	44	1	831
6.6.1	win	2022-12-27	12:02:38	12:11:28	529111	61351c3a1e3e96156bc86116	79033849	1	practice_z	9	advance_on_keypress_ZEE	32	stimuli_target_circlediamonds.svg	stimuli_distractor_trianglediamonds.svg	4	yes	57	0	366
6.6.1	win	2022-12-27	12:02:38	12:11:33	533855	61351c3a1e3e96156bc86116	79033849	1	main_z	11	main_z	1	stimuli_distractor_trianglediamonds.svg	stimuli_target_trianglecircles.svg	25	yes	44	1	799
6.6.1	win	2022-12-27	12:02:38	12:11:33	533855	61351c3a1e3e96156bc86116	79033849	1	main_z	11	advance_on_keypress_ZEE	2	stimuli_distractor_trianglediamonds.svg	stimuli_target_trianglecircles.svg	25	yes	57	0	1079
6.6.1	win	2022-12-27	12:02:38	12:11:37	537557	61351c3a1e3e96156bc86116	79033849	1	main_z	11	main_z	3	stimuli_distractor_diamondtriangles.svg	stimuli_distractor_trianglediamonds.svg	38	no	0	1	2000
6.6.1	win	2022-12-27	12:02:38	12:11:37	537557	61351c3a1e3e96156bc86116	79033849	1	main_z	11	advance_on_keypress_ZEE	4	stimuli_distractor_diamondtriangles.svg	stimuli_distractor_trianglediamonds.svg	38	no	57	0	322
6.6.1	win	2022-12-27	12:02:38	12:11:39	539360	61351c3a1e3e96156bc86116	79033849	1	main_z	11	main_z	5	stimuli_target_circletriangles.svg	stimuli_distractor_diamondtriangles.svg	5	yes	44	1	853
6.6.1	win	2022-12-27	12:02:38	12:11:39	539360	61351c3a1e3e96156bc86116	79033849	1	main_z	11	advance_on_keypress_ZEE	6	stimuli_target_circletriangles.svg	stimuli_distractor_diamondtriangles.svg	5	yes	57	0	2170
6.6.1	win	2022-12-27	12:02:38	12:11:42	542936	61351c3a1e3e96156bc86116	79033849	1	main_z	11	main_z	7	stimuli_distractor_diamondtriangles.svg	stimuli_target_squarediamonds.svg	16	yes	44	1	787
6.6.1	win	2022-12-27	12:02:38	12:11:42	542936	61351c3a1e3e96156bc86116	79033849	1	main_z	11	advance_on_keypress_ZEE	8	stimuli_distractor_diamondtriangles.svg	stimuli_target_squarediamonds.svg	16	yes	57	0	651
6.6.1	win	2022-12-27	12:02:38	12:11:44	545104	61351c3a1e3e96156bc86116	79033849	1	main_z	11	main_z	9	stimuli_target_diamondsquares.svg	stimuli_distractor_diamondtriangles.svg	24	yes	44	1	896
6.6.1	win	2022-12-27	12:02:38	12:11:44	545104	61351c3a1e3e96156bc86116	79033849	1	main_z	11	advance_on_keypress_ZEE	10	stimuli_target_diamondsquares.svg	stimuli_distractor_diamondtriangles.svg	24	yes	57	0	540
6.6.1	win	2022-12-27	12:02:38	12:11:46	547136	61351c3a1e3e96156bc86116	79033849	1	main_z	11	main_z	11	stimuli_target_squaretriangles.svg	stimuli_distractor_trianglediamonds.svg	3	yes	44	1	869
6.6.1	win	2022-12-27	12:02:38	12:11:46	547136	61351c3a1e3e96156bc86116	79033849	1	main_z	11	advance_on_keypress_ZEE	12	stimuli_target_squaretriangles.svg	stimuli_distractor_trianglediamonds.svg	3	yes	57	0	426
6.6.1	win	2022-12-27	12:02:38	12:11:48	549080	61351c3a1e3e96156bc86116	79033849	1	main_z	11	main_z	13	stimuli_target_trianglesquares.svg	stimuli_distractor_diamondtriangles.svg	22	yes	44	1	897
6.6.1	win	2022-12-27	12:02:38	12:11:48	549080	61351c3a1e3e96156bc86116	79033849	1	main_z	11	advance_on_keypress_ZEE	14	stimuli_target_trianglesquares.svg	stimuli_distractor_diamondtriangles.svg	22	yes	57	0	404
6.6.1	win	2022-12-27	12:02:38	12:11:50	550887	61351c3a1e3e96156bc86116	79033849	1	main_z	11	main_z	15	stimuli_target_circlediamonds.svg	stimuli_distractor_diamondtriangles.svg	6	yes	44	1	788
6.6.1	win	2022-12-27	12:02:38	12:11:50	550887	61351c3a1e3e96156bc86116	79033849	1	main_z	11	advance_on_keypress_ZEE	16	stimuli_target_circlediamonds.svg	stimuli_distractor_diamondtriangles.svg	6	yes	57	0	364
6.6.1	win	2022-12-27	12:02:38	12:11:52	552697	61351c3a1e3e96156bc86116	79033849	1	main_z	11	main_z	17	stimuli_distractor_diamondtriangles.svg	stimuli_target_trianglesquares.svg	30	yes	44	1	829
6.6.1	win	2022-12-27	12:02:38	12:11:52	552697	61351c3a1e3e96156bc86116	79033849	1	main_z	11	advance_on_keypress_ZEE	18	stimuli_distractor_diamondtriangles.svg	stimuli_target_trianglesquares.svg	30	yes	57	0	323
6.6.1	win	2022-12-27	12:02:38	12:11:54	554497	61351c3a1e3e96156bc86116	79033849	1	main_z	11	main_z	19	stimuli_distractor_trianglediamonds.svg	stimuli_target_trianglesquares.svg	26	yes	44	1	854
6.6.1	win	2022-12-27	12:02:38	12:11:54	554497	61351c3a1e3e96156bc86116	79033849	1	main_z	11	advance_on_keypress_ZEE	20	stimuli_distractor_trianglediamonds.svg	stimuli_target_trianglesquares.svg	26	yes	57	0	283
6.6.1	win	2022-12-27	12:02:38	12:11:56	556223	61351c3a1e3e96156bc86116	79033849	1	main_z	11	main_z	21	stimuli_distractor_trianglediamonds.svg	stimuli_target_diamondsquares.svg	28	yes	44	1	823
6.6.1	win	2022-12-27	12:02:38	12:11:56	556223	61351c3a1e3e96156bc86116	79033849	1	main_z	11	advance_on_keypress_ZEE	22	stimuli_distractor_trianglediamonds.svg	stimuli_target_diamondsquares.svg	28	yes	57	0	342
6.6.1	win	2022-12-27	12:02:38	12:11:57	558023	61351c3a1e3e96156bc86116	79033849	1	main_z	11	main_z	23	stimuli_target_squarediamonds.svg	stimuli_distractor_diamondtriangles.svg	8	yes	44	1	839
6.6.1	win	2022-12-27	12:02:38	12:11:57	558023	61351c3a1e3e96156bc86116	79033849	1	main_z	11	advance_on_keypress_ZEE	24	stimuli_target_squarediamonds.svg	stimuli_distractor_diamondtriangles.svg	8	yes	57	0	342
6.6.1	win	2022-12-27	12:02:38	12:11:59	559992	61351c3a1e3e96156bc86116	79033849	1	main_z	11	main_z	25	stimuli_distractor_trianglediamonds.svg	stimuli_target_squaretriangles.svg	11	yes	44	1	1008
6.6.1	win	2022-12-27	12:02:38	12:11:59	559992	61351c3a1e3e96156bc86116	79033849	1	main_z	11	advance_on_keypress_ZEE	26	stimuli_distractor_trianglediamonds.svg	stimuli_target_squaretriangles.svg	11	yes	57	0	214
6.6.1	win	2022-12-27	12:02:38	12:12:02	562352	61351c3a1e3e96156bc86116	79033849	1	main_z	11	main_z	27	stimuli_distractor_diamondtriangles.svg	stimuli_target_squaretriangles.svg	15	yes	44	1	1517
6.6.1	win	2022-12-27	12:02:38	12:12:02	562352	61351c3a1e3e96156bc86116	79033849	1	main_z	11	advance_on_keypress_ZEE	28	stimuli_distractor_diamondtriangles.svg	stimuli_target_squaretriangles.svg	15	yes	57	0	1112
6.6.1	win	2022-12-27	12:02:38	12:12:05	566086	61351c3a1e3e96156bc86116	79033849	1	main_z	11	main_z	29	stimuli_distractor_diamondtriangles.svg	stimuli_distractor_trianglediamonds.svg	37	no	0	1	2000
6.6.1	win	2022-12-27	12:02:38	12:12:05	566086	61351c3a1e3e96156bc86116	79033849	1	main_z	11	advance_on_keypress_ZEE	30	stimuli_distractor_diamondtriangles.svg	stimuli_distractor_trianglediamonds.svg	37	no	57	0	410
6.6.1	win	2022-12-27	12:02:38	12:12:07	567972	61351c3a1e3e96156bc86116	79033849	1	main_z	11	main_z	31	stimuli_target_diamondcircles.svg	stimuli_distractor_diamondtriangles.svg	23	yes	44	1	841
6.6.1	win	2022-12-27	12:02:38	12:12:07	567972	61351c3a1e3e96156bc86116	79033849	1	main_z	11	advance_on_keypress_ZEE	32	stimuli_target_diamondcircles.svg	stimuli_distractor_diamondtriangles.svg	23	yes	57	0	342
6.6.1	win	2022-12-27	12:02:38	12:12:09	569863	61351c3a1e3e96156bc86116	79033849	1	main_z	11	main_z	33	stimuli_distractor_diamondtriangles.svg	stimuli_target_diamondcircles.svg	31	yes	44	1	928
6.6.1	win	2022-12-27	12:02:38	12:12:09	569863	61351c3a1e3e96156bc86116	79033849	1	main_z	11	advance_on_keypress_ZEE	34	stimuli_distractor_diamondtriangles.svg	stimuli_target_diamondcircles.svg	31	yes	57	0	314
6.6.1	win	2022-12-27	12:02:38	12:12:11	571647	61351c3a1e3e96156bc86116	79033849	1	main_z	11	main_z	35	stimuli_target_circletriangles.svg	stimuli_distractor_trianglediamonds.svg	1	yes	44	1	845
6.6.1	win	2022-12-27	12:02:38	12:12:11	571647	61351c3a1e3e96156bc86116	79033849	1	main_z	11	advance_on_keypress_ZEE	36	stimuli_target_circletriangles.svg	stimuli_distractor_trianglediamonds.svg	1	yes	57	0	267
6.6.1	win	2022-12-27	12:02:38	12:12:13	573559	61351c3a1e3e96156bc86116	79033849	1	main_z	11	main_z	37	stimuli_distractor_diamondtriangles.svg	stimuli_target_diamondsquares.svg	32	yes	44	1	1023
6.6.1	win	2022-12-27	12:02:38	12:12:13	573559	61351c3a1e3e96156bc86116	79033849	1	main_z	11	advance_on_keypress_ZEE	38	stimuli_distractor_diamondtriangles.svg	stimuli_target_diamondsquares.svg	32	yes	57	0	286
6.6.1	win	2022-12-27	12:02:38	12:12:16	576469	61351c3a1e3e96156bc86116	79033849	1	main_z	11	main_z	39	stimuli_distractor_trianglediamonds.svg	stimuli_distractor_trianglediamonds.svg	33	no	0	1	2000
6.6.1	win	2022-12-27	12:02:38	12:12:16	576469	61351c3a1e3e96156bc86116	79033849	1	main_z	11	advance_on_keypress_ZEE	40	stimuli_distractor_trianglediamonds.svg	stimuli_distractor_trianglediamonds.svg	33	no	57	0	313
6.6.1	win	2022-12-27	12:02:38	12:12:19	579403	61351c3a1e3e96156bc86116	79033849	1	main_z	11	main_z	41	stimuli_distractor_trianglediamonds.svg	stimuli_distractor_trianglediamonds.svg	34	no	0	1	2000
6.6.1	win	2022-12-27	12:02:38	12:12:19	579403	61351c3a1e3e96156bc86116	79033849	1	main_z	11	advance_on_keypress_ZEE	42	stimuli_distractor_trianglediamonds.svg	stimuli_distractor_trianglediamonds.svg	34	no	57	0	420
6.6.1	win	2022-12-27	12:02:38	12:12:20	581151	61351c3a1e3e96156bc86116	79033849	1	main_z	11	main_z	43	stimuli_distractor_diamondtriangles.svg	stimuli_target_circletriangles.svg	13	yes	44	1	706
6.6.1	win	2022-12-27	12:02:38	12:12:20	581151	61351c3a1e3e96156bc86116	79033849	1	main_z	11	advance_on_keypress_ZEE	44	stimuli_distractor_diamondtriangles.svg	stimuli_target_circletriangles.svg	13	yes	57	0	454
6.6.1	win	2022-12-27	12:02:38	12:12:22	582927	61351c3a1e3e96156bc86116	79033849	1	main_z	11	main_z	45	stimuli_target_squaretriangles.svg	stimuli_distractor_diamondtriangles.svg	7	yes	44	1	707
6.6.1	win	2022-12-27	12:02:38	12:12:22	582927	61351c3a1e3e96156bc86116	79033849	1	main_z	11	advance_on_keypress_ZEE	46	stimuli_target_squaretriangles.svg	stimuli_distractor_diamondtriangles.svg	7	yes	57	0	422
6.6.1	win	2022-12-27	12:02:38	12:12:25	585971	61351c3a1e3e96156bc86116	79033849	1	main_z	11	main_z	47	stimuli_distractor_trianglediamonds.svg	stimuli_distractor_diamondtriangles.svg	35	no	0	1	2000
6.6.1	win	2022-12-27	12:02:38	12:12:25	585971	61351c3a1e3e96156bc86116	79033849	1	main_z	11	advance_on_keypress_ZEE	48	stimuli_distractor_trianglediamonds.svg	stimuli_distractor_diamondtriangles.svg	35	no	57	0	308
6.6.1	win	2022-12-27	12:02:38	12:12:27	587615	61351c3a1e3e96156bc86116	79033849	1	main_z	11	main_z	49	stimuli_distractor_diamondtriangles.svg	stimuli_target_circlediamonds.svg	14	yes	44	1	711
6.6.1	win	2022-12-27	12:02:38	12:12:27	587615	61351c3a1e3e96156bc86116	79033849	1	main_z	11	advance_on_keypress_ZEE	50	stimuli_distractor_diamondtriangles.svg	stimuli_target_circlediamonds.svg	14	yes	57	0	354
6.6.1	win	2022-12-27	12:02:38	12:12:30	590588	61351c3a1e3e96156bc86116	79033849	1	main_z	11	main_z	51	stimuli_distractor_diamondtriangles.svg	stimuli_distractor_diamondtriangles.svg	40	no	0	1	2000
6.6.1	win	2022-12-27	12:02:38	12:12:30	590588	61351c3a1e3e96156bc86116	79033849	1	main_z	11	advance_on_keypress_ZEE	52	stimuli_distractor_diamondtriangles.svg	stimuli_distractor_diamondtriangles.svg	40	no	57	0	259
6.6.1	win	2022-12-27	12:02:38	12:12:33	593472	61351c3a1e3e96156bc86116	79033849	1	main_z	11	main_z	53	stimuli_distractor_diamondtriangles.svg	stimuli_distractor_diamondtriangles.svg	39	no	0	1	2000
6.6.1	win	2022-12-27	12:02:38	12:12:33	593472	61351c3a1e3e96156bc86116	79033849	1	main_z	11	advance_on_keypress_ZEE	54	stimuli_distractor_diamondtriangles.svg	stimuli_distractor_diamondtriangles.svg	39	no	57	0	239
6.6.1	win	2022-12-27	12:02:38	12:12:34	595039	61351c3a1e3e96156bc86116	79033849	1	main_z	11	main_z	55	stimuli_distractor_trianglediamonds.svg	stimuli_target_diamondcircles.svg	27	yes	44	1	709
6.6.1	win	2022-12-27	12:02:38	12:12:34	595039	61351c3a1e3e96156bc86116	79033849	1	main_z	11	advance_on_keypress_ZEE	56	stimuli_distractor_trianglediamonds.svg	stimuli_target_diamondcircles.svg	27	yes	57	0	336
6.6.1	win	2022-12-27	12:02:38	12:12:36	596864	61351c3a1e3e96156bc86116	79033849	1	main_z	11	main_z	57	stimuli_distractor_diamondtriangles.svg	stimuli_target_trianglecircles.svg	29	yes	44	1	866
6.6.1	win	2022-12-27	12:02:38	12:12:36	596864	61351c3a1e3e96156bc86116	79033849	1	main_z	11	advance_on_keypress_ZEE	58	stimuli_distractor_diamondtriangles.svg	stimuli_target_trianglecircles.svg	29	yes	57	0	247
6.6.1	win	2022-12-27	12:02:38	12:12:38	598471	61351c3a1e3e96156bc86116	79033849	1	main_z	11	main_z	59	stimuli_distractor_trianglediamonds.svg	stimuli_target_circlediamonds.svg	10	yes	44	1	741
6.6.1	win	2022-12-27	12:02:38	12:12:38	598471	61351c3a1e3e96156bc86116	79033849	1	main_z	11	advance_on_keypress_ZEE	60	stimuli_distractor_trianglediamonds.svg	stimuli_target_circlediamonds.svg	10	yes	57	0	358
6.6.1	win	2022-12-27	12:02:38	12:12:39	600168	61351c3a1e3e96156bc86116	79033849	1	main_z	11	main_z	61	stimuli_target_trianglecircles.svg	stimuli_distractor_diamondtriangles.svg	21	yes	44	1	711
6.6.1	win	2022-12-27	12:02:38	12:12:39	600168	61351c3a1e3e96156bc86116	79033849	1	main_z	11	advance_on_keypress_ZEE	62	stimuli_target_trianglecircles.svg	stimuli_distractor_diamondtriangles.svg	21	yes	57	0	355
6.6.1	win	2022-12-27	12:02:38	12:12:41	601783	61351c3a1e3e96156bc86116	79033849	1	main_z	11	main_z	63	stimuli_target_trianglecircles.svg	stimuli_distractor_trianglediamonds.svg	17	yes	44	1	644
6.6.1	win	2022-12-27	12:02:38	12:12:41	601783	61351c3a1e3e96156bc86116	79033849	1	main_z	11	advance_on_keypress_ZEE	64	stimuli_target_trianglecircles.svg	stimuli_distractor_trianglediamonds.svg	17	yes	57	0	338
6.6.1	win	2022-12-27	12:02:38	12:12:43	603303	61351c3a1e3e96156bc86116	79033849	1	main_z	11	main_z	65	stimuli_target_diamondcircles.svg	stimuli_distractor_trianglediamonds.svg	19	yes	44	1	564
6.6.1	win	2022-12-27	12:02:38	12:12:43	603303	61351c3a1e3e96156bc86116	79033849	1	main_z	11	advance_on_keypress_ZEE	66	stimuli_target_diamondcircles.svg	stimuli_distractor_trianglediamonds.svg	19	yes	57	0	317
6.6.1	win	2022-12-27	12:02:38	12:12:44	604736	61351c3a1e3e96156bc86116	79033849	1	main_z	11	main_z	67	stimuli_target_circlediamonds.svg	stimuli_distractor_trianglediamonds.svg	2	yes	44	1	495
6.6.1	win	2022-12-27	12:02:38	12:12:44	604736	61351c3a1e3e96156bc86116	79033849	1	main_z	11	advance_on_keypress_ZEE	68	stimuli_target_circlediamonds.svg	stimuli_distractor_trianglediamonds.svg	2	yes	57	0	331
6.6.1	win	2022-12-27	12:02:38	12:12:45	606159	61351c3a1e3e96156bc86116	79033849	1	main_z	11	main_z	69	stimuli_distractor_trianglediamonds.svg	stimuli_target_circletriangles.svg	9	yes	44	1	469
6.6.1	win	2022-12-27	12:02:38	12:12:45	606159	61351c3a1e3e96156bc86116	79033849	1	main_z	11	advance_on_keypress_ZEE	70	stimuli_distractor_trianglediamonds.svg	stimuli_target_circletriangles.svg	9	yes	57	0	338
6.6.1	win	2022-12-27	12:02:38	12:12:48	609116	61351c3a1e3e96156bc86116	79033849	1	main_z	11	main_z	71	stimuli_distractor_trianglediamonds.svg	stimuli_distractor_diamondtriangles.svg	36	no	0	1	2000
6.6.1	win	2022-12-27	12:02:38	12:12:48	609116	61351c3a1e3e96156bc86116	79033849	1	main_z	11	advance_on_keypress_ZEE	72	stimuli_distractor_trianglediamonds.svg	stimuli_distractor_diamondtriangles.svg	36	no	57	0	747
6.6.1	win	2022-12-27	12:02:38	12:12:50	610951	61351c3a1e3e96156bc86116	79033849	1	main_z	11	main_z	73	stimuli_distractor_trianglediamonds.svg	stimuli_target_squarediamonds.svg	12	yes	44	1	461
6.6.1	win	2022-12-27	12:02:38	12:12:50	610951	61351c3a1e3e96156bc86116	79033849	1	main_z	11	advance_on_keypress_ZEE	74	stimuli_distractor_trianglediamonds.svg	stimuli_target_squarediamonds.svg	12	yes	57	0	370
6.6.1	win	2022-12-27	12:02:38	12:12:52	612319	61351c3a1e3e96156bc86116	79033849	1	main_z	11	main_z	75	stimuli_target_squarediamonds.svg	stimuli_distractor_trianglediamonds.svg	4	yes	44	1	379
6.6.1	win	2022-12-27	12:02:38	12:12:52	612319	61351c3a1e3e96156bc86116	79033849	1	main_z	11	advance_on_keypress_ZEE	76	stimuli_target_squarediamonds.svg	stimuli_distractor_trianglediamonds.svg	4	yes	57	0	291
6.6.1	win	2022-12-27	12:02:38	12:12:53	613832	61351c3a1e3e96156bc86116	79033849	1	main_z	11	main_z	77	stimuli_target_diamondsquares.svg	stimuli_distractor_trianglediamonds.svg	20	yes	44	1	599
6.6.1	win	2022-12-27	12:02:38	12:12:53	613832	61351c3a1e3e96156bc86116	79033849	1	main_z	11	advance_on_keypress_ZEE	78	stimuli_target_diamondsquares.svg	stimuli_distractor_trianglediamonds.svg	20	yes	57	0	294
6.6.1	win	2022-12-27	12:02:38	12:12:54	615159	61351c3a1e3e96156bc86116	79033849	1	main_z	11	main_z	79	stimuli_target_trianglesquares.svg	stimuli_distractor_trianglediamonds.svg	18	yes	44	1	410
6.6.1	win	2022-12-27	12:02:38	12:12:54	615159	61351c3a1e3e96156bc86116	79033849	1	main_z	11	advance_on_keypress_ZEE	80	stimuli_target_trianglesquares.svg	stimuli_distractor_trianglediamonds.svg	18	yes	57	0	321
6.6.1	win	2022-12-27	12:02:38	12:12:56	616560	61351c3a1e3e96156bc86116	79033849	1	main_z	11	main_z	81	stimuli_distractor_diamondtriangles.svg	stimuli_target_trianglecircles.svg	29	yes	44	1	460
6.6.1	win	2022-12-27	12:02:38	12:12:56	616560	61351c3a1e3e96156bc86116	79033849	1	main_z	11	advance_on_keypress_ZEE	82	stimuli_distractor_diamondtriangles.svg	stimuli_target_trianglecircles.svg	29	yes	57	0	321
6.6.1	win	2022-12-27	12:02:38	12:12:57	617936	61351c3a1e3e96156bc86116	79033849	1	main_z	11	main_z	83	stimuli_distractor_trianglediamonds.svg	stimuli_target_circlediamonds.svg	10	yes	44	1	436
6.6.1	win	2022-12-27	12:02:38	12:12:57	617936	61351c3a1e3e96156bc86116	79033849	1	main_z	11	advance_on_keypress_ZEE	84	stimuli_distractor_trianglediamonds.svg	stimuli_target_circlediamonds.svg	10	yes	57	0	298
6.6.1	win	2022-12-27	12:02:38	12:12:59	619295	61351c3a1e3e96156bc86116	79033849	1	main_z	11	main_z	85	stimuli_target_trianglecircles.svg	stimuli_distractor_diamondtriangles.svg	21	yes	44	1	437
6.6.1	win	2022-12-27	12:02:38	12:12:59	619295	61351c3a1e3e96156bc86116	79033849	1	main_z	11	advance_on_keypress_ZEE	86	stimuli_target_trianglecircles.svg	stimuli_distractor_diamondtriangles.svg	21	yes	57	0	307
6.6.1	win	2022-12-27	12:02:38	12:13:00	620663	61351c3a1e3e96156bc86116	79033849	1	main_z	11	main_z	87	stimuli_target_diamondcircles.svg	stimuli_distractor_diamondtriangles.svg	23	yes	44	1	438
6.6.1	win	2022-12-27	12:02:38	12:13:00	620663	61351c3a1e3e96156bc86116	79033849	1	main_z	11	advance_on_keypress_ZEE	88	stimuli_target_diamondcircles.svg	stimuli_distractor_diamondtriangles.svg	23	yes	57	0	292
6.6.1	win	2022-12-27	12:02:38	12:13:03	623575	61351c3a1e3e96156bc86116	79033849	1	main_z	11	main_z	89	stimuli_distractor_diamondtriangles.svg	stimuli_distractor_trianglediamonds.svg	37	no	0	1	2000
6.6.1	win	2022-12-27	12:02:38	12:13:03	623575	61351c3a1e3e96156bc86116	79033849	1	main_z	11	advance_on_keypress_ZEE	90	stimuli_distractor_diamondtriangles.svg	stimuli_distractor_trianglediamonds.svg	37	no	57	0	391
6.6.1	win	2022-12-27	12:02:38	12:13:04	624984	61351c3a1e3e96156bc86116	79033849	1	main_z	11	main_z	91	stimuli_target_diamondcircles.svg	stimuli_distractor_trianglediamonds.svg	19	yes	44	1	391
6.6.1	win	2022-12-27	12:02:38	12:13:04	624984	61351c3a1e3e96156bc86116	79033849	1	main_z	11	advance_on_keypress_ZEE	92	stimuli_target_diamondcircles.svg	stimuli_distractor_trianglediamonds.svg	19	yes	57	0	335
6.6.1	win	2022-12-27	12:02:38	12:13:06	626303	61351c3a1e3e96156bc86116	79033849	1	main_z	11	main_z	93	stimuli_target_trianglesquares.svg	stimuli_distractor_trianglediamonds.svg	18	yes	44	1	361
6.6.1	win	2022-12-27	12:02:38	12:13:06	626303	61351c3a1e3e96156bc86116	79033849	1	main_z	11	advance_on_keypress_ZEE	94	stimuli_target_trianglesquares.svg	stimuli_distractor_trianglediamonds.svg	18	yes	57	0	370
6.6.1	win	2022-12-27	12:02:38	12:13:07	627760	61351c3a1e3e96156bc86116	79033849	1	main_z	11	main_z	95	stimuli_distractor_trianglediamonds.svg	stimuli_target_trianglecircles.svg	25	yes	44	1	467
6.6.1	win	2022-12-27	12:02:38	12:13:07	627760	61351c3a1e3e96156bc86116	79033849	1	main_z	11	advance_on_keypress_ZEE	96	stimuli_distractor_trianglediamonds.svg	stimuli_target_trianglecircles.svg	25	yes	57	0	303
6.6.1	win	2022-12-27	12:02:38	12:13:10	630685	61351c3a1e3e96156bc86116	79033849	1	main_z	11	main_z	97	stimuli_distractor_diamondtriangles.svg	stimuli_distractor_diamondtriangles.svg	40	no	0	1	2000
6.6.1	win	2022-12-27	12:02:38	12:13:10	630685	61351c3a1e3e96156bc86116	79033849	1	main_z	11	advance_on_keypress_ZEE	98	stimuli_distractor_diamondtriangles.svg	stimuli_distractor_diamondtriangles.svg	40	no	57	0	306
6.6.1	win	2022-12-27	12:02:38	12:13:11	631991	61351c3a1e3e96156bc86116	79033849	1	main_z	11	main_z	99	stimuli_distractor_trianglediamonds.svg	stimuli_target_squaretriangles.svg	11	yes	44	1	373
6.6.1	win	2022-12-27	12:02:38	12:13:11	631991	61351c3a1e3e96156bc86116	79033849	1	main_z	11	advance_on_keypress_ZEE	100	stimuli_distractor_trianglediamonds.svg	stimuli_target_squaretriangles.svg	11	yes	57	0	278
6.6.1	win	2022-12-27	12:02:38	12:13:13	633279	61351c3a1e3e96156bc86116	79033849	1	main_z	11	main_z	101	stimuli_target_circletriangles.svg	stimuli_distractor_diamondtriangles.svg	5	yes	44	1	394
6.6.1	win	2022-12-27	12:02:38	12:13:13	633279	61351c3a1e3e96156bc86116	79033849	1	main_z	11	advance_on_keypress_ZEE	102	stimuli_target_circletriangles.svg	stimuli_distractor_diamondtriangles.svg	5	yes	57	0	298
6.6.1	win	2022-12-27	12:02:38	12:13:14	634578	61351c3a1e3e96156bc86116	79033849	1	main_z	11	main_z	103	stimuli_distractor_trianglediamonds.svg	stimuli_target_diamondcircles.svg	27	yes	44	1	383
6.6.1	win	2022-12-27	12:02:38	12:13:14	634578	61351c3a1e3e96156bc86116	79033849	1	main_z	11	advance_on_keypress_ZEE	104	stimuli_distractor_trianglediamonds.svg	stimuli_target_diamondcircles.svg	27	yes	57	0	310
6.6.1	win	2022-12-27	12:02:38	12:13:15	635887	61351c3a1e3e96156bc86116	79033849	1	main_z	11	main_z	105	stimuli_target_squarediamonds.svg	stimuli_distractor_diamondtriangles.svg	8	yes	44	1	377
6.6.1	win	2022-12-27	12:02:38	12:13:15	635887	61351c3a1e3e96156bc86116	79033849	1	main_z	11	advance_on_keypress_ZEE	106	stimuli_target_squarediamonds.svg	stimuli_distractor_diamondtriangles.svg	8	yes	57	0	305
6.6.1	win	2022-12-27	12:02:38	12:13:17	637319	61351c3a1e3e96156bc86116	79033849	1	main_z	11	main_z	107	stimuli_distractor_diamondtriangles.svg	stimuli_target_squarediamonds.svg	16	yes	44	1	500
6.6.1	win	2022-12-27	12:02:38	12:13:17	637319	61351c3a1e3e96156bc86116	79033849	1	main_z	11	advance_on_keypress_ZEE	108	stimuli_distractor_diamondtriangles.svg	stimuli_target_squarediamonds.svg	16	yes	57	0	280
6.6.1	win	2022-12-27	12:02:38	12:13:18	638591	61351c3a1e3e96156bc86116	79033849	1	main_z	11	main_z	109	stimuli_target_trianglecircles.svg	stimuli_distractor_trianglediamonds.svg	17	yes	44	1	372
6.6.1	win	2022-12-27	12:02:38	12:13:18	638591	61351c3a1e3e96156bc86116	79033849	1	main_z	11	advance_on_keypress_ZEE	110	stimuli_target_trianglecircles.svg	stimuli_distractor_trianglediamonds.svg	17	yes	57	0	309
6.6.1	win	2022-12-27	12:02:38	12:13:19	640023	61351c3a1e3e96156bc86116	79033849	1	main_z	11	main_z	111	stimuli_distractor_trianglediamonds.svg	stimuli_distractor_diamondtriangles.svg	35	no	44	0	504
6.6.1	win	2022-12-27	12:02:38	12:13:19	640023	61351c3a1e3e96156bc86116	79033849	1	main_z	11	advance_on_keypress_ZEE	112	stimuli_distractor_trianglediamonds.svg	stimuli_distractor_diamondtriangles.svg	35	no	57	0	844
6.6.1	win	2022-12-27	12:02:38	12:13:21	642168	61351c3a1e3e96156bc86116	79033849	1	main_z	11	main_z	113	stimuli_distractor_diamondtriangles.svg	stimuli_target_trianglesquares.svg	30	yes	44	1	681
6.6.1	win	2022-12-27	12:02:38	12:13:21	642168	61351c3a1e3e96156bc86116	79033849	1	main_z	11	advance_on_keypress_ZEE	114	stimuli_distractor_diamondtriangles.svg	stimuli_target_trianglesquares.svg	30	yes	57	0	309
6.6.1	win	2022-12-27	12:02:38	12:13:23	643568	61351c3a1e3e96156bc86116	79033849	1	main_z	11	main_z	115	stimuli_distractor_diamondtriangles.svg	stimuli_target_diamondsquares.svg	32	yes	44	1	464
6.6.1	win	2022-12-27	12:02:38	12:13:23	643568	61351c3a1e3e96156bc86116	79033849	1	main_z	11	advance_on_keypress_ZEE	116	stimuli_distractor_diamondtriangles.svg	stimuli_target_diamondsquares.svg	32	yes	57	0	277
6.6.1	win	2022-12-27	12:02:38	12:13:24	645008	61351c3a1e3e96156bc86116	79033849	1	main_z	11	main_z	117	stimuli_target_circlediamonds.svg	stimuli_distractor_trianglediamonds.svg	2	yes	44	1	537
6.6.1	win	2022-12-27	12:02:38	12:13:24	645008	61351c3a1e3e96156bc86116	79033849	1	main_z	11	advance_on_keypress_ZEE	118	stimuli_target_circlediamonds.svg	stimuli_distractor_trianglediamonds.svg	2	yes	57	0	300
6.6.1	win	2022-12-27	12:02:38	12:13:26	646399	61351c3a1e3e96156bc86116	79033849	1	main_z	11	main_z	119	stimuli_target_diamondsquares.svg	stimuli_distractor_diamondtriangles.svg	24	yes	44	1	471
6.6.1	win	2022-12-27	12:02:38	12:13:26	646399	61351c3a1e3e96156bc86116	79033849	1	main_z	11	advance_on_keypress_ZEE	120	stimuli_target_diamondsquares.svg	stimuli_distractor_diamondtriangles.svg	24	yes	57	0	292
6.6.1	win	2022-12-27	12:02:38	12:13:27	647719	61351c3a1e3e96156bc86116	79033849	1	main_z	11	main_z	121	stimuli_target_diamondsquares.svg	stimuli_distractor_trianglediamonds.svg	20	yes	44	1	407
6.6.1	win	2022-12-27	12:02:38	12:13:27	647719	61351c3a1e3e96156bc86116	79033849	1	main_z	11	advance_on_keypress_ZEE	122	stimuli_target_diamondsquares.svg	stimuli_distractor_trianglediamonds.svg	20	yes	57	0	287
6.6.1	win	2022-12-27	12:02:38	12:13:30	650629	61351c3a1e3e96156bc86116	79033849	1	main_z	11	main_z	123	stimuli_distractor_trianglediamonds.svg	stimuli_distractor_trianglediamonds.svg	33	no	0	1	2000
6.6.1	win	2022-12-27	12:02:38	12:13:30	650629	61351c3a1e3e96156bc86116	79033849	1	main_z	11	advance_on_keypress_ZEE	124	stimuli_distractor_trianglediamonds.svg	stimuli_distractor_trianglediamonds.svg	33	no	57	0	738
6.6.1	win	2022-12-27	12:02:38	12:13:33	653987	61351c3a1e3e96156bc86116	79033849	1	main_z	11	main_z	125	stimuli_distractor_trianglediamonds.svg	stimuli_distractor_diamondtriangles.svg	36	no	0	1	2000
6.6.1	win	2022-12-27	12:02:38	12:13:33	653987	61351c3a1e3e96156bc86116	79033849	1	main_z	11	advance_on_keypress_ZEE	126	stimuli_distractor_trianglediamonds.svg	stimuli_distractor_diamondtriangles.svg	36	no	57	0	547
6.6.1	win	2022-12-27	12:02:38	12:13:35	655528	61351c3a1e3e96156bc86116	79033849	1	main_z	11	main_z	127	stimuli_target_circletriangles.svg	stimuli_distractor_trianglediamonds.svg	1	yes	44	1	373
6.6.1	win	2022-12-27	12:02:38	12:13:35	655528	61351c3a1e3e96156bc86116	79033849	1	main_z	11	advance_on_keypress_ZEE	128	stimuli_target_circletriangles.svg	stimuli_distractor_trianglediamonds.svg	1	yes	57	0	253
6.6.1	win	2022-12-27	12:02:38	12:13:36	656783	61351c3a1e3e96156bc86116	79033849	1	main_z	11	main_z	129	stimuli_distractor_trianglediamonds.svg	stimuli_target_circletriangles.svg	9	yes	44	1	379
6.6.1	win	2022-12-27	12:02:38	12:13:36	656783	61351c3a1e3e96156bc86116	79033849	1	main_z	11	advance_on_keypress_ZEE	130	stimuli_distractor_trianglediamonds.svg	stimuli_target_circletriangles.svg	9	yes	57	0	275
6.6.1	win	2022-12-27	12:02:38	12:13:37	658112	61351c3a1e3e96156bc86116	79033849	1	main_z	11	main_z	131	stimuli_distractor_diamondtriangles.svg	stimuli_target_diamondcircles.svg	31	yes	44	1	419
6.6.1	win	2022-12-27	12:02:38	12:13:37	658112	61351c3a1e3e96156bc86116	79033849	1	main_z	11	advance_on_keypress_ZEE	132	stimuli_distractor_diamondtriangles.svg	stimuli_target_diamondcircles.svg	31	yes	57	0	294
6.6.1	win	2022-12-27	12:02:38	12:13:39	659383	61351c3a1e3e96156bc86116	79033849	1	main_z	11	main_z	133	stimuli_distractor_trianglediamonds.svg	stimuli_target_trianglesquares.svg	26	yes	44	1	353
6.6.1	win	2022-12-27	12:02:38	12:13:39	659383	61351c3a1e3e96156bc86116	79033849	1	main_z	11	advance_on_keypress_ZEE	134	stimuli_distractor_trianglediamonds.svg	stimuli_target_trianglesquares.svg	26	yes	57	0	323
6.6.1	win	2022-12-27	12:02:38	12:13:42	662330	61351c3a1e3e96156bc86116	79033849	1	main_z	11	main_z	135	stimuli_distractor_diamondtriangles.svg	stimuli_distractor_diamondtriangles.svg	39	no	0	1	2000
6.6.1	win	2022-12-27	12:02:38	12:13:42	662330	61351c3a1e3e96156bc86116	79033849	1	main_z	11	advance_on_keypress_ZEE	136	stimuli_distractor_diamondtriangles.svg	stimuli_distractor_diamondtriangles.svg	39	no	57	0	372
6.6.1	win	2022-12-27	12:02:38	12:13:43	664103	61351c3a1e3e96156bc86116	79033849	1	main_z	11	main_z	137	stimuli_target_squaretriangles.svg	stimuli_distractor_trianglediamonds.svg	3	yes	44	1	781
6.6.1	win	2022-12-27	12:02:38	12:13:43	664103	61351c3a1e3e96156bc86116	79033849	1	main_z	11	advance_on_keypress_ZEE	138	stimuli_target_squaretriangles.svg	stimuli_distractor_trianglediamonds.svg	3	yes	57	0	518
6.6.1	win	2022-12-27	12:02:38	12:13:45	665800	61351c3a1e3e96156bc86116	79033849	1	main_z	11	main_z	139	stimuli_distractor_trianglediamonds.svg	stimuli_target_squarediamonds.svg	12	yes	44	1	560
6.6.1	win	2022-12-27	12:02:38	12:13:45	665800	61351c3a1e3e96156bc86116	79033849	1	main_z	11	advance_on_keypress_ZEE	140	stimuli_distractor_trianglediamonds.svg	stimuli_target_squarediamonds.svg	12	yes	57	0	265
6.6.1	win	2022-12-27	12:02:38	12:13:46	667081	61351c3a1e3e96156bc86116	79033849	1	main_z	11	main_z	141	stimuli_target_circlediamonds.svg	stimuli_distractor_diamondtriangles.svg	6	yes	44	1	390
6.6.1	win	2022-12-27	12:02:38	12:13:46	667081	61351c3a1e3e96156bc86116	79033849	1	main_z	11	advance_on_keypress_ZEE	142	stimuli_target_circlediamonds.svg	stimuli_distractor_diamondtriangles.svg	6	yes	57	0	278
6.6.1	win	2022-12-27	12:02:38	12:13:48	668583	61351c3a1e3e96156bc86116	79033849	1	main_z	11	main_z	143	stimuli_target_trianglesquares.svg	stimuli_distractor_diamondtriangles.svg	22	yes	44	1	602
6.6.1	win	2022-12-27	12:02:38	12:13:48	668583	61351c3a1e3e96156bc86116	79033849	1	main_z	11	advance_on_keypress_ZEE	144	stimuli_target_trianglesquares.svg	stimuli_distractor_diamondtriangles.svg	22	yes	57	0	274
6.6.1	win	2022-12-27	12:02:38	12:13:51	671482	61351c3a1e3e96156bc86116	79033849	1	main_z	11	main_z	145	stimuli_distractor_diamondtriangles.svg	stimuli_distractor_trianglediamonds.svg	38	no	0	1	2000
6.6.1	win	2022-12-27	12:02:38	12:13:51	671482	61351c3a1e3e96156bc86116	79033849	1	main_z	11	advance_on_keypress_ZEE	146	stimuli_distractor_diamondtriangles.svg	stimuli_distractor_trianglediamonds.svg	38	no	57	0	277
6.6.1	win	2022-12-27	12:02:38	12:13:52	673009	61351c3a1e3e96156bc86116	79033849	1	main_z	11	main_z	147	stimuli_target_squaretriangles.svg	stimuli_distractor_diamondtriangles.svg	7	yes	44	1	626
6.6.1	win	2022-12-27	12:02:38	12:13:52	673009	61351c3a1e3e96156bc86116	79033849	1	main_z	11	advance_on_keypress_ZEE	148	stimuli_target_squaretriangles.svg	stimuli_distractor_diamondtriangles.svg	7	yes	57	0	240
6.6.1	win	2022-12-27	12:02:38	12:13:54	674223	61351c3a1e3e96156bc86116	79033849	1	main_z	11	main_z	149	stimuli_distractor_diamondtriangles.svg	stimuli_target_circlediamonds.svg	14	yes	44	1	350
6.6.1	win	2022-12-27	12:02:38	12:13:54	674223	61351c3a1e3e96156bc86116	79033849	1	main_z	11	advance_on_keypress_ZEE	150	stimuli_distractor_diamondtriangles.svg	stimuli_target_circlediamonds.svg	14	yes	57	0	295
6.6.1	win	2022-12-27	12:02:38	12:13:55	675560	61351c3a1e3e96156bc86116	79033849	1	main_z	11	main_z	151	stimuli_distractor_trianglediamonds.svg	stimuli_target_diamondsquares.svg	28	yes	44	1	419
6.6.1	win	2022-12-27	12:02:38	12:13:55	675560	61351c3a1e3e96156bc86116	79033849	1	main_z	11	advance_on_keypress_ZEE	152	stimuli_distractor_trianglediamonds.svg	stimuli_target_diamondsquares.svg	28	yes	57	0	298
6.6.1	win	2022-12-27	12:02:38	12:13:58	678483	61351c3a1e3e96156bc86116	79033849	1	main_z	11	main_z	153	stimuli_distractor_trianglediamonds.svg	stimuli_distractor_trianglediamonds.svg	34	no	0	1	2000
6.6.1	win	2022-12-27	12:02:38	12:13:58	678483	61351c3a1e3e96156bc86116	79033849	1	main_z	11	advance_on_keypress_ZEE	154	stimuli_distractor_trianglediamonds.svg	stimuli_distractor_trianglediamonds.svg	34	no	57	0	316
6.6.1	win	2022-12-27	12:02:38	12:13:59	679831	61351c3a1e3e96156bc86116	79033849	1	main_z	11	main_z	155	stimuli_target_squarediamonds.svg	stimuli_distractor_trianglediamonds.svg	4	yes	44	1	407
6.6.1	win	2022-12-27	12:02:38	12:13:59	679831	61351c3a1e3e96156bc86116	79033849	1	main_z	11	advance_on_keypress_ZEE	156	stimuli_target_squarediamonds.svg	stimuli_distractor_trianglediamonds.svg	4	yes	57	0	254
6.6.1	win	2022-12-27	12:02:38	12:14:00	681159	61351c3a1e3e96156bc86116	79033849	1	main_z	11	main_z	157	stimuli_distractor_diamondtriangles.svg	stimuli_target_squaretriangles.svg	15	yes	44	1	452
6.6.1	win	2022-12-27	12:02:38	12:14:00	681159	61351c3a1e3e96156bc86116	79033849	1	main_z	11	advance_on_keypress_ZEE	158	stimuli_distractor_diamondtriangles.svg	stimuli_target_squaretriangles.svg	15	yes	57	0	273
6.6.1	win	2022-12-27	12:02:38	12:14:03	683399	61351c3a1e3e96156bc86116	79033849	1	main_z	11	main_z	159	stimuli_distractor_diamondtriangles.svg	stimuli_target_circletriangles.svg	13	yes	44	1	1341
6.6.1	win	2022-12-27	12:02:38	12:14:03	683399	61351c3a1e3e96156bc86116	79033849	1	main_z	11	advance_on_keypress_ZEE	160	stimuli_distractor_diamondtriangles.svg	stimuli_target_circletriangles.svg	13	yes	57	0	271