build	computer.platform	date	time	timestamp	time_elapsed_ms	subject	group	session	blockcode	blocknum	trialcode	trialnum	stimulus_left	stimulus_right	stim_index	target_present	response	correct	latency
6.6.1	win	2022-12-14	12:04:07	12:06:58	164447	5adef850eb60400001539109	167048994	1	practice_z	5	practice_z	1	stimuli_distractor_trianglediamonds.svg	stimuli_target_diamondcircles.svg	12	yes	44	1	1108
6.6.1	win	2022-12-14	12:04:07	12:06:58	164447	5adef850eb60400001539109	167048994	1	practice_z	5	advance_on_keypress_ZEE	2	stimuli_distractor_trianglediamonds.svg	stimuli_target_diamondcircles.svg	12	yes	57	0	677
6.6.1	win	2022-12-14	12:04:07	12:07:02	168789	5adef850eb60400001539109	167048994	1	practice_z	5	practice_z	3	stimuli_distractor_trianglediamonds.svg	stimuli_distractor_trianglediamonds.svg	15	no	0	1	2000
6.6.1	win	2022-12-14	12:04:07	12:07:02	168789	5adef850eb60400001539109	167048994	1	practice_z	5	advance_on_keypress_ZEE	4	stimuli_distractor_trianglediamonds.svg	stimuli_distractor_trianglediamonds.svg	15	no	57	0	520
6.6.1	win	2022-12-14	12:04:07	12:07:05	172085	5adef850eb60400001539109	167048994	1	practice_z	5	practice_z	5	stimuli_target_squarediamonds.svg	stimuli_distractor_diamondtriangles.svg	2	yes	44	1	1130
6.6.1	win	2022-12-14	12:04:07	12:07:05	172085	5adef850eb60400001539109	167048994	1	practice_z	5	advance_on_keypress_ZEE	6	stimuli_target_squarediamonds.svg	stimuli_distractor_diamondtriangles.svg	2	yes	57	0	828
6.6.1	win	2022-12-14	12:04:07	12:07:10	176573	5adef850eb60400001539109	167048994	1	practice_z	5	practice_z	7	stimuli_target_diamondsquares.svg	stimuli_distractor_diamondtriangles.svg	3	yes	0	0	2000
6.6.1	win	2022-12-14	12:04:07	12:07:10	176573	5adef850eb60400001539109	167048994	1	practice_z	5	advance_on_keypress_ZEE	8	stimuli_target_diamondsquares.svg	stimuli_distractor_diamondtriangles.svg	3	yes	57	0	441
6.6.1	win	2022-12-14	12:04:07	12:07:13	179526	5adef850eb60400001539109	167048994	1	practice_z	5	practice_z	9	stimuli_target_squarediamonds.svg	stimuli_distractor_trianglediamonds.svg	5	yes	44	1	853
6.6.1	win	2022-12-14	12:04:07	12:07:13	179526	5adef850eb60400001539109	167048994	1	practice_z	5	advance_on_keypress_ZEE	10	stimuli_target_squarediamonds.svg	stimuli_distractor_trianglediamonds.svg	5	yes	57	0	499
6.6.1	win	2022-12-14	12:04:07	12:07:16	183094	5adef850eb60400001539109	167048994	1	practice_z	5	practice_z	11	stimuli_target_diamondsquares.svg	stimuli_distractor_trianglediamonds.svg	6	yes	44	1	1421
6.6.1	win	2022-12-14	12:04:07	12:07:16	183094	5adef850eb60400001539109	167048994	1	practice_z	5	advance_on_keypress_ZEE	12	stimuli_target_diamondsquares.svg	stimuli_distractor_trianglediamonds.svg	6	yes	57	0	460
6.6.1	win	2022-12-14	12:04:07	12:07:20	186400	5adef850eb60400001539109	167048994	1	practice_z	5	practice_z	13	stimuli_distractor_diamondtriangles.svg	stimuli_distractor_trianglediamonds.svg	14	no	44	0	1192
6.6.1	win	2022-12-14	12:04:07	12:07:20	186400	5adef850eb60400001539109	167048994	1	practice_z	5	advance_on_keypress_ZEE	14	stimuli_distractor_diamondtriangles.svg	stimuli_distractor_trianglediamonds.svg	14	no	57	0	463
6.6.1	win	2022-12-14	12:04:07	12:07:23	189281	5adef850eb60400001539109	167048994	1	practice_z	5	practice_z	15	stimuli_distractor_trianglediamonds.svg	stimuli_target_squarediamonds.svg	11	yes	44	1	756
6.6.1	win	2022-12-14	12:04:07	12:07:23	189281	5adef850eb60400001539109	167048994	1	practice_z	5	advance_on_keypress_ZEE	16	stimuli_distractor_trianglediamonds.svg	stimuli_target_squarediamonds.svg	11	yes	57	0	652
6.6.1	win	2022-12-14	12:04:07	12:07:26	192327	5adef850eb60400001539109	167048994	1	practice_z	5	practice_z	17	stimuli_distractor_trianglediamonds.svg	stimuli_target_circlediamonds.svg	10	yes	44	1	737
6.6.1	win	2022-12-14	12:04:07	12:07:26	192327	5adef850eb60400001539109	167048994	1	practice_z	5	advance_on_keypress_ZEE	18	stimuli_distractor_trianglediamonds.svg	stimuli_target_circlediamonds.svg	10	yes	57	0	539
6.6.1	win	2022-12-14	12:04:07	12:07:28	195173	5adef850eb60400001539109	167048994	1	practice_z	5	practice_z	19	stimuli_target_circlediamonds.svg	stimuli_distractor_diamondtriangles.svg	1	yes	44	1	668
6.6.1	win	2022-12-14	12:04:07	12:07:28	195173	5adef850eb60400001539109	167048994	1	practice_z	5	advance_on_keypress_ZEE	20	stimuli_target_circlediamonds.svg	stimuli_distractor_diamondtriangles.svg	1	yes	57	0	713
6.6.1	win	2022-12-14	12:04:07	12:07:31	198192	5adef850eb60400001539109	167048994	1	practice_z	5	practice_z	21	stimuli_distractor_diamondtriangles.svg	stimuli_target_circletriangles.svg	7	yes	44	1	651
6.6.1	win	2022-12-14	12:04:07	12:07:31	198192	5adef850eb60400001539109	167048994	1	practice_z	5	advance_on_keypress_ZEE	22	stimuli_distractor_diamondtriangles.svg	stimuli_target_circletriangles.svg	7	yes	57	0	641
6.6.1	win	2022-12-14	12:04:07	12:07:35	201199	5adef850eb60400001539109	167048994	1	practice_z	5	practice_z	23	stimuli_distractor_diamondtriangles.svg	stimuli_target_diamondcircles.svg	8	yes	44	1	707
6.6.1	win	2022-12-14	12:04:07	12:07:35	201199	5adef850eb60400001539109	167048994	1	practice_z	5	advance_on_keypress_ZEE	24	stimuli_distractor_diamondtriangles.svg	stimuli_target_diamondcircles.svg	8	yes	57	0	607
6.6.1	win	2022-12-14	12:04:07	12:07:39	205473	5adef850eb60400001539109	167048994	1	practice_z	5	practice_z	25	stimuli_distractor_diamondtriangles.svg	stimuli_distractor_diamondtriangles.svg	13	no	0	1	2000
6.6.1	win	2022-12-14	12:04:07	12:07:39	205473	5adef850eb60400001539109	167048994	1	practice_z	5	advance_on_keypress_ZEE	26	stimuli_distractor_diamondtriangles.svg	stimuli_distractor_diamondtriangles.svg	13	no	57	0	1197
6.6.1	win	2022-12-14	12:04:07	12:07:43	209536	5adef850eb60400001539109	167048994	1	practice_z	5	practice_z	27	stimuli_distractor_trianglediamonds.svg	stimuli_distractor_diamondtriangles.svg	16	no	44	0	1211
6.6.1	win	2022-12-14	12:04:07	12:07:43	209536	5adef850eb60400001539109	167048994	1	practice_z	5	advance_on_keypress_ZEE	28	stimuli_distractor_trianglediamonds.svg	stimuli_distractor_diamondtriangles.svg	16	no	57	0	994
6.6.1	win	2022-12-14	12:04:07	12:07:46	212821	5adef850eb60400001539109	167048994	1	practice_z	5	practice_z	29	stimuli_distractor_diamondtriangles.svg	stimuli_target_trianglecircles.svg	9	yes	44	1	633
6.6.1	win	2022-12-14	12:04:07	12:07:46	212821	5adef850eb60400001539109	167048994	1	practice_z	5	advance_on_keypress_ZEE	30	stimuli_distractor_diamondtriangles.svg	stimuli_target_trianglecircles.svg	9	yes	57	0	1664
6.6.1	win	2022-12-14	12:04:07	12:07:50	216757	5adef850eb60400001539109	167048994	1	practice_z	5	practice_z	31	stimuli_target_circlediamonds.svg	stimuli_distractor_trianglediamonds.svg	4	yes	44	1	619
6.6.1	win	2022-12-14	12:04:07	12:07:50	216757	5adef850eb60400001539109	167048994	1	practice_z	5	advance_on_keypress_ZEE	32	stimuli_target_circlediamonds.svg	stimuli_distractor_trianglediamonds.svg	4	yes	57	0	753
6.6.1	win	2022-12-14	12:04:07	12:08:01	227853	5adef850eb60400001539109	167048994	1	main_z	7	main_z	1	stimuli_distractor_diamondtriangles.svg	stimuli_distractor_diamondtriangles.svg	40	no	0	1	2000
6.6.1	win	2022-12-14	12:04:07	12:08:01	227853	5adef850eb60400001539109	167048994	1	main_z	7	advance_on_keypress_ZEE	2	stimuli_distractor_diamondtriangles.svg	stimuli_distractor_diamondtriangles.svg	40	no	57	0	533
6.6.1	win	2022-12-14	12:04:07	12:08:03	229596	5adef850eb60400001539109	167048994	1	main_z	7	main_z	3	stimuli_distractor_trianglediamonds.svg	stimuli_target_trianglecircles.svg	25	yes	44	1	559
6.6.1	win	2022-12-14	12:04:07	12:08:03	229596	5adef850eb60400001539109	167048994	1	main_z	7	advance_on_keypress_ZEE	4	stimuli_distractor_trianglediamonds.svg	stimuli_target_trianglecircles.svg	25	yes	57	0	927
6.6.1	win	2022-12-14	12:04:07	12:08:05	231875	5adef850eb60400001539109	167048994	1	main_z	7	main_z	5	stimuli_target_squarediamonds.svg	stimuli_distractor_trianglediamonds.svg	4	yes	44	1	689
6.6.1	win	2022-12-14	12:04:07	12:08:05	231875	5adef850eb60400001539109	167048994	1	main_z	7	advance_on_keypress_ZEE	6	stimuli_target_squarediamonds.svg	stimuli_distractor_trianglediamonds.svg	4	yes	57	0	1013
6.6.1	win	2022-12-14	12:04:07	12:08:08	234531	5adef850eb60400001539109	167048994	1	main_z	7	main_z	7	stimuli_distractor_trianglediamonds.svg	stimuli_target_circletriangles.svg	9	yes	44	1	995
6.6.1	win	2022-12-14	12:04:07	12:08:08	234531	5adef850eb60400001539109	167048994	1	main_z	7	advance_on_keypress_ZEE	8	stimuli_distractor_trianglediamonds.svg	stimuli_target_circletriangles.svg	9	yes	57	0	362
6.6.1	win	2022-12-14	12:04:07	12:08:11	237554	5adef850eb60400001539109	167048994	1	main_z	7	main_z	9	stimuli_distractor_trianglediamonds.svg	stimuli_distractor_trianglediamonds.svg	33	no	0	1	2000
6.6.1	win	2022-12-14	12:04:07	12:08:11	237554	5adef850eb60400001539109	167048994	1	main_z	7	advance_on_keypress_ZEE	10	stimuli_distractor_trianglediamonds.svg	stimuli_distractor_trianglediamonds.svg	33	no	57	0	649
6.6.1	win	2022-12-14	12:04:07	12:08:13	239559	5adef850eb60400001539109	167048994	1	main_z	7	main_z	11	stimuli_target_diamondcircles.svg	stimuli_distractor_diamondtriangles.svg	23	yes	44	1	702
6.6.1	win	2022-12-14	12:04:07	12:08:13	239559	5adef850eb60400001539109	167048994	1	main_z	7	advance_on_keypress_ZEE	12	stimuli_target_diamondcircles.svg	stimuli_distractor_diamondtriangles.svg	23	yes	57	0	705
6.6.1	win	2022-12-14	12:04:07	12:08:15	241611	5adef850eb60400001539109	167048994	1	main_z	7	main_z	13	stimuli_distractor_trianglediamonds.svg	stimuli_target_diamondcircles.svg	27	yes	44	1	708
6.6.1	win	2022-12-14	12:04:07	12:08:15	241611	5adef850eb60400001539109	167048994	1	main_z	7	advance_on_keypress_ZEE	14	stimuli_distractor_trianglediamonds.svg	stimuli_target_diamondcircles.svg	27	yes	57	0	391
6.6.1	win	2022-12-14	12:04:07	12:08:17	243339	5adef850eb60400001539109	167048994	1	main_z	7	main_z	15	stimuli_target_diamondcircles.svg	stimuli_distractor_trianglediamonds.svg	19	yes	44	1	682
6.6.1	win	2022-12-14	12:04:07	12:08:17	243339	5adef850eb60400001539109	167048994	1	main_z	7	advance_on_keypress_ZEE	16	stimuli_target_diamondcircles.svg	stimuli_distractor_trianglediamonds.svg	19	yes	57	0	426
6.6.1	win	2022-12-14	12:04:07	12:08:18	245011	5adef850eb60400001539109	167048994	1	main_z	7	main_z	17	stimuli_distractor_trianglediamonds.svg	stimuli_target_squarediamonds.svg	12	yes	44	1	591
6.6.1	win	2022-12-14	12:04:07	12:08:18	245011	5adef850eb60400001539109	167048994	1	main_z	7	advance_on_keypress_ZEE	18	stimuli_distractor_trianglediamonds.svg	stimuli_target_squarediamonds.svg	12	yes	57	0	351
6.6.1	win	2022-12-14	12:04:07	12:08:20	246643	5adef850eb60400001539109	167048994	1	main_z	7	main_z	19	stimuli_distractor_diamondtriangles.svg	stimuli_target_trianglesquares.svg	30	yes	44	1	640
6.6.1	win	2022-12-14	12:04:07	12:08:20	246643	5adef850eb60400001539109	167048994	1	main_z	7	advance_on_keypress_ZEE	20	stimuli_distractor_diamondtriangles.svg	stimuli_target_trianglesquares.svg	30	yes	57	0	318
6.6.1	win	2022-12-14	12:04:07	12:08:22	248595	5adef850eb60400001539109	167048994	1	main_z	7	main_z	21	stimuli_target_squaretriangles.svg	stimuli_distractor_trianglediamonds.svg	3	yes	44	1	976
6.6.1	win	2022-12-14	12:04:07	12:08:22	248595	5adef850eb60400001539109	167048994	1	main_z	7	advance_on_keypress_ZEE	22	stimuli_target_squaretriangles.svg	stimuli_distractor_trianglediamonds.svg	3	yes	57	0	287
6.6.1	win	2022-12-14	12:04:07	12:08:24	250702	5adef850eb60400001539109	167048994	1	main_z	7	main_z	23	stimuli_distractor_trianglediamonds.svg	stimuli_target_diamondsquares.svg	28	yes	44	1	1163
6.6.1	win	2022-12-14	12:04:07	12:08:24	250702	5adef850eb60400001539109	167048994	1	main_z	7	advance_on_keypress_ZEE	24	stimuli_distractor_trianglediamonds.svg	stimuli_target_diamondsquares.svg	28	yes	57	0	307
6.6.1	win	2022-12-14	12:04:07	12:08:26	252355	5adef850eb60400001539109	167048994	1	main_z	7	main_z	25	stimuli_target_circletriangles.svg	stimuli_distractor_trianglediamonds.svg	1	yes	44	1	701
6.6.1	win	2022-12-14	12:04:07	12:08:26	252355	5adef850eb60400001539109	167048994	1	main_z	7	advance_on_keypress_ZEE	26	stimuli_target_circletriangles.svg	stimuli_distractor_trianglediamonds.svg	1	yes	57	0	305
6.6.1	win	2022-12-14	12:04:07	12:08:27	253963	5adef850eb60400001539109	167048994	1	main_z	7	main_z	27	stimuli_distractor_trianglediamonds.svg	stimuli_target_trianglesquares.svg	26	yes	44	1	660
6.6.1	win	2022-12-14	12:04:07	12:08:27	253963	5adef850eb60400001539109	167048994	1	main_z	7	advance_on_keypress_ZEE	28	stimuli_distractor_trianglediamonds.svg	stimuli_target_trianglesquares.svg	26	yes	57	0	161
6.6.1	win	2022-12-14	12:04:07	12:08:29	255499	5adef850eb60400001539109	167048994	1	main_z	7	main_z	29	stimuli_target_circlediamonds.svg	stimuli_distractor_diamondtriangles.svg	6	yes	44	1	710
6.6.1	win	2022-12-14	12:04:07	12:08:29	255499	5adef850eb60400001539109	167048994	1	main_z	7	advance_on_keypress_ZEE	30	stimuli_target_circlediamonds.svg	stimuli_distractor_diamondtriangles.svg	6	yes	57	0	147
6.6.1	win	2022-12-14	12:04:07	12:08:32	258303	5adef850eb60400001539109	167048994	1	main_z	7	main_z	31	stimuli_distractor_diamondtriangles.svg	stimuli_distractor_trianglediamonds.svg	37	no	0	1	2000
6.6.1	win	2022-12-14	12:04:07	12:08:32	258303	5adef850eb60400001539109	167048994	1	main_z	7	advance_on_keypress_ZEE	32	stimuli_distractor_diamondtriangles.svg	stimuli_distractor_trianglediamonds.svg	37	no	57	0	444
6.6.1	win	2022-12-14	12:04:07	12:08:33	260035	5adef850eb60400001539109	167048994	1	main_z	7	main_z	33	stimuli_distractor_trianglediamonds.svg	stimuli_target_circlediamonds.svg	10	yes	44	1	632
6.6.1	win	2022-12-14	12:04:07	12:08:33	260035	5adef850eb60400001539109	167048994	1	main_z	7	advance_on_keypress_ZEE	34	stimuli_distractor_trianglediamonds.svg	stimuli_target_circlediamonds.svg	10	yes	57	0	182
6.6.1	win	2022-12-14	12:04:07	12:08:35	261444	5adef850eb60400001539109	167048994	1	main_z	7	main_z	35	stimuli_distractor_diamondtriangles.svg	stimuli_target_circletriangles.svg	13	yes	44	1	573
6.6.1	win	2022-12-14	12:04:07	12:08:35	261444	5adef850eb60400001539109	167048994	1	main_z	7	advance_on_keypress_ZEE	36	stimuli_distractor_diamondtriangles.svg	stimuli_target_circletriangles.svg	13	yes	57	0	133
6.6.1	win	2022-12-14	12:04:07	12:08:36	262838	5adef850eb60400001539109	167048994	1	main_z	7	main_z	37	stimuli_target_squarediamonds.svg	stimuli_distractor_diamondtriangles.svg	8	yes	44	1	599
6.6.1	win	2022-12-14	12:04:07	12:08:36	262838	5adef850eb60400001539109	167048994	1	main_z	7	advance_on_keypress_ZEE	38	stimuli_target_squarediamonds.svg	stimuli_distractor_diamondtriangles.svg	8	yes	57	0	182
6.6.1	win	2022-12-14	12:04:07	12:08:38	264243	5adef850eb60400001539109	167048994	1	main_z	7	main_z	39	stimuli_target_circletriangles.svg	stimuli_distractor_diamondtriangles.svg	5	yes	44	1	573
6.6.1	win	2022-12-14	12:04:07	12:08:38	264243	5adef850eb60400001539109	167048994	1	main_z	7	advance_on_keypress_ZEE	40	stimuli_target_circletriangles.svg	stimuli_distractor_diamondtriangles.svg	5	yes	57	0	238
6.6.1	win	2022-12-14	12:04:07	12:08:40	267120	5adef850eb60400001539109	167048994	1	main_z	7	main_z	41	stimuli_target_squaretriangles.svg	stimuli_distractor_diamondtriangles.svg	7	yes	0	0	2000
6.6.1	win	2022-12-14	12:04:07	12:08:40	267120	5adef850eb60400001539109	167048994	1	main_z	7	advance_on_keypress_ZEE	42	stimuli_target_squaretriangles.svg	stimuli_distractor_diamondtriangles.svg	7	yes	57	0	475
6.6.1	win	2022-12-14	12:04:07	12:08:42	268968	5adef850eb60400001539109	167048994	1	main_z	7	main_z	43	stimuli_target_trianglesquares.svg	stimuli_distractor_trianglediamonds.svg	18	yes	44	1	710
6.6.1	win	2022-12-14	12:04:07	12:08:42	268968	5adef850eb60400001539109	167048994	1	main_z	7	advance_on_keypress_ZEE	44	stimuli_target_trianglesquares.svg	stimuli_distractor_trianglediamonds.svg	18	yes	57	0	217
6.6.1	win	2022-12-14	12:04:07	12:08:45	271837	5adef850eb60400001539109	167048994	1	main_z	7	main_z	45	stimuli_distractor_trianglediamonds.svg	stimuli_distractor_diamondtriangles.svg	36	no	0	1	2000
6.6.1	win	2022-12-14	12:04:07	12:08:45	271837	5adef850eb60400001539109	167048994	1	main_z	7	advance_on_keypress_ZEE	46	stimuli_distractor_trianglediamonds.svg	stimuli_distractor_diamondtriangles.svg	36	no	57	0	518
6.6.1	win	2022-12-14	12:04:07	12:08:48	275003	5adef850eb60400001539109	167048994	1	main_z	7	main_z	47	stimuli_distractor_trianglediamonds.svg	stimuli_distractor_trianglediamonds.svg	34	no	0	1	2000
6.6.1	win	2022-12-14	12:04:07	12:08:48	275003	5adef850eb60400001539109	167048994	1	main_z	7	advance_on_keypress_ZEE	48	stimuli_distractor_trianglediamonds.svg	stimuli_distractor_trianglediamonds.svg	34	no	57	0	487
6.6.1	win	2022-12-14	12:04:07	12:08:50	276787	5adef850eb60400001539109	167048994	1	main_z	7	main_z	49	stimuli_distractor_trianglediamonds.svg	stimuli_target_squaretriangles.svg	11	yes	44	1	651
6.6.1	win	2022-12-14	12:04:07	12:08:50	276787	5adef850eb60400001539109	167048994	1	main_z	7	advance_on_keypress_ZEE	50	stimuli_distractor_trianglediamonds.svg	stimuli_target_squaretriangles.svg	11	yes	57	0	320
6.6.1	win	2022-12-14	12:04:07	12:08:52	278555	5adef850eb60400001539109	167048994	1	main_z	7	main_z	51	stimuli_distractor_diamondtriangles.svg	stimuli_target_circlediamonds.svg	14	yes	44	1	803
6.6.1	win	2022-12-14	12:04:07	12:08:52	278555	5adef850eb60400001539109	167048994	1	main_z	7	advance_on_keypress_ZEE	52	stimuli_distractor_diamondtriangles.svg	stimuli_target_circlediamonds.svg	14	yes	57	0	265
6.6.1	win	2022-12-14	12:04:07	12:08:54	280331	5adef850eb60400001539109	167048994	1	main_z	7	main_z	53	stimuli_target_diamondsquares.svg	stimuli_distractor_diamondtriangles.svg	24	yes	44	1	861
6.6.1	win	2022-12-14	12:04:07	12:08:54	280331	5adef850eb60400001539109	167048994	1	main_z	7	advance_on_keypress_ZEE	54	stimuli_target_diamondsquares.svg	stimuli_distractor_diamondtriangles.svg	24	yes	57	0	218
6.6.1	win	2022-12-14	12:04:07	12:08:55	281923	5adef850eb60400001539109	167048994	1	main_z	7	main_z	55	stimuli_target_trianglecircles.svg	stimuli_distractor_trianglediamonds.svg	17	yes	44	1	720
6.6.1	win	2022-12-14	12:04:07	12:08:55	281923	5adef850eb60400001539109	167048994	1	main_z	7	advance_on_keypress_ZEE	56	stimuli_target_trianglecircles.svg	stimuli_distractor_trianglediamonds.svg	17	yes	57	0	291
6.6.1	win	2022-12-14	12:04:07	12:08:58	284853	5adef850eb60400001539109	167048994	1	main_z	7	main_z	57	stimuli_distractor_diamondtriangles.svg	stimuli_distractor_diamondtriangles.svg	39	no	0	1	2000
6.6.1	win	2022-12-14	12:04:07	12:08:58	284853	5adef850eb60400001539109	167048994	1	main_z	7	advance_on_keypress_ZEE	58	stimuli_distractor_diamondtriangles.svg	stimuli_distractor_diamondtriangles.svg	39	no	57	0	477
6.6.1	win	2022-12-14	12:04:07	12:09:00	286620	5adef850eb60400001539109	167048994	1	main_z	7	main_z	59	stimuli_target_trianglesquares.svg	stimuli_distractor_diamondtriangles.svg	22	yes	44	1	633
6.6.1	win	2022-12-14	12:04:07	12:09:00	286620	5adef850eb60400001539109	167048994	1	main_z	7	advance_on_keypress_ZEE	60	stimuli_target_trianglesquares.svg	stimuli_distractor_diamondtriangles.svg	22	yes	57	0	207
6.6.1	win	2022-12-14	12:04:07	12:09:02	288252	5adef850eb60400001539109	167048994	1	main_z	7	main_z	61	stimuli_distractor_diamondtriangles.svg	stimuli_target_diamondsquares.svg	32	yes	44	1	765
6.6.1	win	2022-12-14	12:04:07	12:09:02	288252	5adef850eb60400001539109	167048994	1	main_z	7	advance_on_keypress_ZEE	62	stimuli_distractor_diamondtriangles.svg	stimuli_target_diamondsquares.svg	32	yes	57	0	182
6.6.1	win	2022-12-14	12:04:07	12:09:04	291103	5adef850eb60400001539109	167048994	1	main_z	7	main_z	63	stimuli_distractor_diamondtriangles.svg	stimuli_distractor_trianglediamonds.svg	38	no	0	1	2000
6.6.1	win	2022-12-14	12:04:07	12:09:04	291103	5adef850eb60400001539109	167048994	1	main_z	7	advance_on_keypress_ZEE	64	stimuli_distractor_diamondtriangles.svg	stimuli_distractor_trianglediamonds.svg	38	no	57	0	443
6.6.1	win	2022-12-14	12:04:07	12:09:06	293093	5adef850eb60400001539109	167048994	1	main_z	7	main_z	65	stimuli_distractor_diamondtriangles.svg	stimuli_target_diamondcircles.svg	31	yes	44	1	888
6.6.1	win	2022-12-14	12:04:07	12:09:06	293093	5adef850eb60400001539109	167048994	1	main_z	7	advance_on_keypress_ZEE	66	stimuli_distractor_diamondtriangles.svg	stimuli_target_diamondcircles.svg	31	yes	57	0	228
6.6.1	win	2022-12-14	12:04:07	12:09:09	295330	5adef850eb60400001539109	167048994	1	main_z	7	main_z	67	stimuli_target_diamondsquares.svg	stimuli_distractor_trianglediamonds.svg	20	yes	44	1	1361
6.6.1	win	2022-12-14	12:04:07	12:09:09	295330	5adef850eb60400001539109	167048994	1	main_z	7	advance_on_keypress_ZEE	68	stimuli_target_diamondsquares.svg	stimuli_distractor_trianglediamonds.svg	20	yes	57	0	546
6.6.1	win	2022-12-14	12:04:07	12:09:11	297234	5adef850eb60400001539109	167048994	1	main_z	7	main_z	69	stimuli_distractor_diamondtriangles.svg	stimuli_target_squarediamonds.svg	16	yes	44	1	698
6.6.1	win	2022-12-14	12:04:07	12:09:11	297234	5adef850eb60400001539109	167048994	1	main_z	7	advance_on_keypress_ZEE	70	stimuli_distractor_diamondtriangles.svg	stimuli_target_squarediamonds.svg	16	yes	57	0	142
6.6.1	win	2022-12-14	12:04:07	12:09:13	300037	5adef850eb60400001539109	167048994	1	main_z	7	main_z	71	stimuli_distractor_trianglediamonds.svg	stimuli_distractor_diamondtriangles.svg	35	no	0	1	2000
6.6.1	win	2022-12-14	12:04:07	12:09:13	300037	5adef850eb60400001539109	167048994	1	main_z	7	advance_on_keypress_ZEE	72	stimuli_distractor_trianglediamonds.svg	stimuli_distractor_diamondtriangles.svg	35	no	57	0	630
6.6.1	win	2022-12-14	12:04:07	12:09:15	302051	5adef850eb60400001539109	167048994	1	main_z	7	main_z	73	stimuli_distractor_diamondtriangles.svg	stimuli_target_squaretriangles.svg	15	yes	44	1	731
6.6.1	win	2022-12-14	12:04:07	12:09:15	302051	5adef850eb60400001539109	167048994	1	main_z	7	advance_on_keypress_ZEE	74	stimuli_distractor_diamondtriangles.svg	stimuli_target_squaretriangles.svg	15	yes	57	0	165
6.6.1	win	2022-12-14	12:04:07	12:09:17	303443	5adef850eb60400001539109	167048994	1	main_z	7	main_z	75	stimuli_distractor_diamondtriangles.svg	stimuli_target_trianglecircles.svg	29	yes	44	1	573
6.6.1	win	2022-12-14	12:04:07	12:09:17	303443	5adef850eb60400001539109	167048994	1	main_z	7	advance_on_keypress_ZEE	76	stimuli_distractor_diamondtriangles.svg	stimuli_target_trianglecircles.svg	29	yes	57	0	133
6.6.1	win	2022-12-14	12:04:07	12:09:18	304771	5adef850eb60400001539109	167048994	1	main_z	7	main_z	77	stimuli_target_trianglecircles.svg	stimuli_distractor_diamondtriangles.svg	21	yes	44	1	535
6.6.1	win	2022-12-14	12:04:07	12:09:18	304771	5adef850eb60400001539109	167048994	1	main_z	7	advance_on_keypress_ZEE	78	stimuli_target_trianglecircles.svg	stimuli_distractor_diamondtriangles.svg	21	yes	57	0	209
6.6.1	win	2022-12-14	12:04:07	12:09:20	306313	5adef850eb60400001539109	167048994	1	main_z	7	main_z	79	stimuli_target_circlediamonds.svg	stimuli_distractor_trianglediamonds.svg	2	yes	44	1	671
6.6.1	win	2022-12-14	12:04:07	12:09:20	306313	5adef850eb60400001539109	167048994	1	main_z	7	advance_on_keypress_ZEE	80	stimuli_target_circlediamonds.svg	stimuli_distractor_trianglediamonds.svg	2	yes	57	0	154
6.6.1	win	2022-12-14	12:04:07	12:09:21	307659	5adef850eb60400001539109	167048994	1	main_z	7	main_z	81	stimuli_distractor_trianglediamonds.svg	stimuli_target_circletriangles.svg	9	yes	44	1	523
6.6.1	win	2022-12-14	12:04:07	12:09:21	307659	5adef850eb60400001539109	167048994	1	main_z	7	advance_on_keypress_ZEE	82	stimuli_distractor_trianglediamonds.svg	stimuli_target_circletriangles.svg	9	yes	57	0	165
6.6.1	win	2022-12-14	12:04:07	12:09:22	309083	5adef850eb60400001539109	167048994	1	main_z	7	main_z	83	stimuli_distractor_diamondtriangles.svg	stimuli_target_diamondcircles.svg	31	yes	44	1	613
6.6.1	win	2022-12-14	12:04:07	12:09:22	309083	5adef850eb60400001539109	167048994	1	main_z	7	advance_on_keypress_ZEE	84	stimuli_distractor_diamondtriangles.svg	stimuli_target_diamondcircles.svg	31	yes	57	0	84
6.6.1	win	2022-12-14	12:04:07	12:09:24	310459	5adef850eb60400001539109	167048994	1	main_z	7	main_z	85	stimuli_target_diamondcircles.svg	stimuli_distractor_trianglediamonds.svg	19	yes	44	1	639
6.6.1	win	2022-12-14	12:04:07	12:09:24	310459	5adef850eb60400001539109	167048994	1	main_z	7	advance_on_keypress_ZEE	86	stimuli_target_diamondcircles.svg	stimuli_distractor_trianglediamonds.svg	19	yes	57	0	149
6.6.1	win	2022-12-14	12:04:07	12:09:27	313255	5adef850eb60400001539109	167048994	1	main_z	7	main_z	87	stimuli_distractor_diamondtriangles.svg	stimuli_distractor_trianglediamonds.svg	37	no	0	1	2000
6.6.1	win	2022-12-14	12:04:07	12:09:27	313255	5adef850eb60400001539109	167048994	1	main_z	7	advance_on_keypress_ZEE	88	stimuli_distractor_diamondtriangles.svg	stimuli_distractor_trianglediamonds.svg	37	no	57	0	437
6.6.1	win	2022-12-14	12:04:07	12:09:28	314915	5adef850eb60400001539109	167048994	1	main_z	7	main_z	89	stimuli_target_circletriangles.svg	stimuli_distractor_diamondtriangles.svg	5	yes	44	1	579
6.6.1	win	2022-12-14	12:04:07	12:09:28	314915	5adef850eb60400001539109	167048994	1	main_z	7	advance_on_keypress_ZEE	90	stimuli_target_circletriangles.svg	stimuli_distractor_diamondtriangles.svg	5	yes	57	0	99
6.6.1	win	2022-12-14	12:04:07	12:09:30	316373	5adef850eb60400001539109	167048994	1	main_z	7	main_z	91	stimuli_distractor_diamondtriangles.svg	stimuli_target_diamondsquares.svg	32	yes	44	1	701
6.6.1	win	2022-12-14	12:04:07	12:09:30	316373	5adef850eb60400001539109	167048994	1	main_z	7	advance_on_keypress_ZEE	92	stimuli_distractor_diamondtriangles.svg	stimuli_target_diamondsquares.svg	32	yes	57	0	81
6.6.1	win	2022-12-14	12:04:07	12:09:31	317739	5adef850eb60400001539109	167048994	1	main_z	7	main_z	93	stimuli_distractor_trianglediamonds.svg	stimuli_target_trianglecircles.svg	25	yes	44	1	636
6.6.1	win	2022-12-14	12:04:07	12:09:31	317739	5adef850eb60400001539109	167048994	1	main_z	7	advance_on_keypress_ZEE	94	stimuli_distractor_trianglediamonds.svg	stimuli_target_trianglecircles.svg	25	yes	57	0	106
6.6.1	win	2022-12-14	12:04:07	12:09:32	319187	5adef850eb60400001539109	167048994	1	main_z	7	main_z	95	stimuli_distractor_diamondtriangles.svg	stimuli_target_trianglesquares.svg	30	yes	44	1	701
6.6.1	win	2022-12-14	12:04:07	12:09:32	319187	5adef850eb60400001539109	167048994	1	main_z	7	advance_on_keypress_ZEE	96	stimuli_distractor_diamondtriangles.svg	stimuli_target_trianglesquares.svg	30	yes	57	0	88
6.6.1	win	2022-12-14	12:04:07	12:09:34	320883	5adef850eb60400001539109	167048994	1	main_z	7	main_z	97	stimuli_target_squaretriangles.svg	stimuli_distractor_diamondtriangles.svg	7	yes	44	1	963
6.6.1	win	2022-12-14	12:04:07	12:09:34	320883	5adef850eb60400001539109	167048994	1	main_z	7	advance_on_keypress_ZEE	98	stimuli_target_squaretriangles.svg	stimuli_distractor_diamondtriangles.svg	7	yes	57	0	100
6.6.1	win	2022-12-14	12:04:07	12:09:36	322315	5adef850eb60400001539109	167048994	1	main_z	7	main_z	99	stimuli_target_circlediamonds.svg	stimuli_distractor_diamondtriangles.svg	6	yes	44	1	679
6.6.1	win	2022-12-14	12:04:07	12:09:36	322315	5adef850eb60400001539109	167048994	1	main_z	7	advance_on_keypress_ZEE	100	stimuli_target_circlediamonds.svg	stimuli_distractor_diamondtriangles.svg	6	yes	57	0	99
6.6.1	win	2022-12-14	12:04:07	12:09:38	325071	5adef850eb60400001539109	167048994	1	main_z	7	main_z	101	stimuli_distractor_trianglediamonds.svg	stimuli_distractor_diamondtriangles.svg	35	no	0	1	2000
6.6.1	win	2022-12-14	12:04:07	12:09:38	325071	5adef850eb60400001539109	167048994	1	main_z	7	advance_on_keypress_ZEE	102	stimuli_distractor_trianglediamonds.svg	stimuli_distractor_diamondtriangles.svg	35	no	57	0	477
6.6.1	win	2022-12-14	12:04:07	12:09:40	326835	5adef850eb60400001539109	167048994	1	main_z	7	main_z	103	stimuli_target_circlediamonds.svg	stimuli_distractor_trianglediamonds.svg	2	yes	44	1	632
6.6.1	win	2022-12-14	12:04:07	12:09:40	326835	5adef850eb60400001539109	167048994	1	main_z	7	advance_on_keypress_ZEE	104	stimuli_target_circlediamonds.svg	stimuli_distractor_trianglediamonds.svg	2	yes	57	0	142
6.6.1	win	2022-12-14	12:04:07	12:09:43	329636	5adef850eb60400001539109	167048994	1	main_z	7	main_z	105	stimuli_distractor_trianglediamonds.svg	stimuli_distractor_diamondtriangles.svg	36	no	0	1	2000
6.6.1	win	2022-12-14	12:04:07	12:09:43	329636	5adef850eb60400001539109	167048994	1	main_z	7	advance_on_keypress_ZEE	106	stimuli_distractor_trianglediamonds.svg	stimuli_distractor_diamondtriangles.svg	36	no	57	0	1142
6.6.1	win	2022-12-14	12:04:07	12:09:45	331987	5adef850eb60400001539109	167048994	1	main_z	7	main_z	107	stimuli_distractor_diamondtriangles.svg	stimuli_target_squarediamonds.svg	16	yes	44	1	551
6.6.1	win	2022-12-14	12:04:07	12:09:45	331987	5adef850eb60400001539109	167048994	1	main_z	7	advance_on_keypress_ZEE	108	stimuli_distractor_diamondtriangles.svg	stimuli_target_squarediamonds.svg	16	yes	57	0	80
6.6.1	win	2022-12-14	12:04:07	12:09:47	333299	5adef850eb60400001539109	167048994	1	main_z	7	main_z	109	stimuli_distractor_trianglediamonds.svg	stimuli_target_squarediamonds.svg	12	yes	44	1	579
6.6.1	win	2022-12-14	12:04:07	12:09:47	333299	5adef850eb60400001539109	167048994	1	main_z	7	advance_on_keypress_ZEE	110	stimuli_distractor_trianglediamonds.svg	stimuli_target_squarediamonds.svg	12	yes	57	0	83
6.6.1	win	2022-12-14	12:04:07	12:09:48	334639	5adef850eb60400001539109	167048994	1	main_z	7	main_z	111	stimuli_target_trianglesquares.svg	stimuli_distractor_trianglediamonds.svg	18	yes	44	1	599
6.6.1	win	2022-12-14	12:04:07	12:09:48	334639	5adef850eb60400001539109	167048994	1	main_z	7	advance_on_keypress_ZEE	112	stimuli_target_trianglesquares.svg	stimuli_distractor_trianglediamonds.svg	18	yes	57	0	62
6.6.1	win	2022-12-14	12:04:07	12:09:49	335923	5adef850eb60400001539109	167048994	1	main_z	7	main_z	113	stimuli_distractor_diamondtriangles.svg	stimuli_target_circletriangles.svg	13	yes	44	1	570
6.6.1	win	2022-12-14	12:04:07	12:09:49	335923	5adef850eb60400001539109	167048994	1	main_z	7	advance_on_keypress_ZEE	114	stimuli_distractor_diamondtriangles.svg	stimuli_target_circletriangles.svg	13	yes	57	0	90
6.6.1	win	2022-12-14	12:04:07	12:09:51	337544	5adef850eb60400001539109	167048994	1	main_z	7	main_z	115	stimuli_target_diamondsquares.svg	stimuli_distractor_trianglediamonds.svg	20	yes	44	1	889
6.6.1	win	2022-12-14	12:04:07	12:09:51	337544	5adef850eb60400001539109	167048994	1	main_z	7	advance_on_keypress_ZEE	116	stimuli_target_diamondsquares.svg	stimuli_distractor_trianglediamonds.svg	20	yes	57	0	49
6.6.1	win	2022-12-14	12:04:07	12:09:54	340253	5adef850eb60400001539109	167048994	1	main_z	7	main_z	117	stimuli_distractor_diamondtriangles.svg	stimuli_distractor_trianglediamonds.svg	38	no	0	1	2000
6.6.1	win	2022-12-14	12:04:07	12:09:54	340253	5adef850eb60400001539109	167048994	1	main_z	7	advance_on_keypress_ZEE	118	stimuli_distractor_diamondtriangles.svg	stimuli_distractor_trianglediamonds.svg	38	no	57	0	317
6.6.1	win	2022-12-14	12:04:07	12:09:57	343219	5adef850eb60400001539109	167048994	1	main_z	7	main_z	119	stimuli_distractor_trianglediamonds.svg	stimuli_distractor_trianglediamonds.svg	34	no	0	1	2000
6.6.1	win	2022-12-14	12:04:07	12:09:57	343219	5adef850eb60400001539109	167048994	1	main_z	7	advance_on_keypress_ZEE	120	stimuli_distractor_trianglediamonds.svg	stimuli_distractor_trianglediamonds.svg	34	no	57	0	447
6.6.1	win	2022-12-14	12:04:07	12:10:00	346330	5adef850eb60400001539109	167048994	1	main_z	7	main_z	121	stimuli_distractor_trianglediamonds.svg	stimuli_distractor_trianglediamonds.svg	33	no	0	1	2000
6.6.1	win	2022-12-14	12:04:07	12:10:00	346330	5adef850eb60400001539109	167048994	1	main_z	7	advance_on_keypress_ZEE	122	stimuli_distractor_trianglediamonds.svg	stimuli_distractor_trianglediamonds.svg	33	no	57	0	354
6.6.1	win	2022-12-14	12:04:07	12:10:01	347980	5adef850eb60400001539109	167048994	1	main_z	7	main_z	123	stimuli_distractor_trianglediamonds.svg	stimuli_target_trianglesquares.svg	26	yes	44	1	626
6.6.1	win	2022-12-14	12:04:07	12:10:01	347980	5adef850eb60400001539109	167048994	1	main_z	7	advance_on_keypress_ZEE	124	stimuli_distractor_trianglediamonds.svg	stimuli_target_trianglesquares.svg	26	yes	57	0	96
6.6.1	win	2022-12-14	12:04:07	12:10:04	350736	5adef850eb60400001539109	167048994	1	main_z	7	main_z	125	stimuli_distractor_diamondtriangles.svg	stimuli_distractor_diamondtriangles.svg	39	no	0	1	2000
6.6.1	win	2022-12-14	12:04:07	12:10:04	350736	5adef850eb60400001539109	167048994	1	main_z	7	advance_on_keypress_ZEE	126	stimuli_distractor_diamondtriangles.svg	stimuli_distractor_diamondtriangles.svg	39	no	57	0	409
6.6.1	win	2022-12-14	12:04:07	12:10:06	352448	5adef850eb60400001539109	167048994	1	main_z	7	main_z	127	stimuli_target_trianglecircles.svg	stimuli_distractor_trianglediamonds.svg	17	yes	44	1	624
6.6.1	win	2022-12-14	12:04:07	12:10:06	352448	5adef850eb60400001539109	167048994	1	main_z	7	advance_on_keypress_ZEE	128	stimuli_target_trianglecircles.svg	stimuli_distractor_trianglediamonds.svg	17	yes	57	0	137
6.6.1	win	2022-12-14	12:04:07	12:10:07	354019	5adef850eb60400001539109	167048994	1	main_z	7	main_z	129	stimuli_target_squarediamonds.svg	stimuli_distractor_diamondtriangles.svg	8	yes	44	1	766
6.6.1	win	2022-12-14	12:04:07	12:10:07	354019	5adef850eb60400001539109	167048994	1	main_z	7	advance_on_keypress_ZEE	130	stimuli_target_squarediamonds.svg	stimuli_distractor_diamondtriangles.svg	8	yes	57	0	87
6.6.1	win	2022-12-14	12:04:07	12:10:09	355451	5adef850eb60400001539109	167048994	1	main_z	7	main_z	131	stimuli_target_diamondsquares.svg	stimuli_distractor_diamondtriangles.svg	24	yes	44	1	698
6.6.1	win	2022-12-14	12:04:07	12:10:09	355451	5adef850eb60400001539109	167048994	1	main_z	7	advance_on_keypress_ZEE	132	stimuli_target_diamondsquares.svg	stimuli_distractor_diamondtriangles.svg	24	yes	57	0	125
6.6.1	win	2022-12-14	12:04:07	12:10:10	356883	5adef850eb60400001539109	167048994	1	main_z	7	main_z	133	stimuli_target_trianglesquares.svg	stimuli_distractor_diamondtriangles.svg	22	yes	44	1	647
6.6.1	win	2022-12-14	12:04:07	12:10:10	356883	5adef850eb60400001539109	167048994	1	main_z	7	advance_on_keypress_ZEE	134	stimuli_target_trianglesquares.svg	stimuli_distractor_diamondtriangles.svg	22	yes	57	0	100
6.6.1	win	2022-12-14	12:04:07	12:10:13	359643	5adef850eb60400001539109	167048994	1	main_z	7	main_z	135	stimuli_distractor_diamondtriangles.svg	stimuli_distractor_diamondtriangles.svg	40	no	0	1	2000
6.6.1	win	2022-12-14	12:04:07	12:10:13	359643	5adef850eb60400001539109	167048994	1	main_z	7	advance_on_keypress_ZEE	136	stimuli_distractor_diamondtriangles.svg	stimuli_distractor_diamondtriangles.svg	40	no	57	0	358
6.6.1	win	2022-12-14	12:04:07	12:10:15	361299	5adef850eb60400001539109	167048994	1	main_z	7	main_z	137	stimuli_distractor_trianglediamonds.svg	stimuli_target_circlediamonds.svg	10	yes	44	1	663
6.6.1	win	2022-12-14	12:04:07	12:10:15	361299	5adef850eb60400001539109	167048994	1	main_z	7	advance_on_keypress_ZEE	138	stimuli_distractor_trianglediamonds.svg	stimuli_target_circlediamonds.svg	10	yes	57	0	73
6.6.1	win	2022-12-14	12:04:07	12:10:16	362747	5adef850eb60400001539109	167048994	1	main_z	7	main_z	139	stimuli_target_squaretriangles.svg	stimuli_distractor_trianglediamonds.svg	3	yes	44	1	694
6.6.1	win	2022-12-14	12:04:07	12:10:16	362747	5adef850eb60400001539109	167048994	1	main_z	7	advance_on_keypress_ZEE	140	stimuli_target_squaretriangles.svg	stimuli_distractor_trianglediamonds.svg	3	yes	57	0	121
6.6.1	win	2022-12-14	12:04:07	12:10:18	364203	5adef850eb60400001539109	167048994	1	main_z	7	main_z	141	stimuli_target_circletriangles.svg	stimuli_distractor_trianglediamonds.svg	1	yes	44	1	683
6.6.1	win	2022-12-14	12:04:07	12:10:18	364203	5adef850eb60400001539109	167048994	1	main_z	7	advance_on_keypress_ZEE	142	stimuli_target_circletriangles.svg	stimuli_distractor_trianglediamonds.svg	1	yes	57	0	167
6.6.1	win	2022-12-14	12:04:07	12:10:20	367024	5adef850eb60400001539109	167048994	1	main_z	7	main_z	143	stimuli_distractor_trianglediamonds.svg	stimuli_target_squaretriangles.svg	11	yes	0	0	2000
6.6.1	win	2022-12-14	12:04:07	12:10:20	367024	5adef850eb60400001539109	167048994	1	main_z	7	advance_on_keypress_ZEE	144	stimuli_distractor_trianglediamonds.svg	stimuli_target_squaretriangles.svg	11	yes	57	0	935
6.6.1	win	2022-12-14	12:04:07	12:10:23	369284	5adef850eb60400001539109	167048994	1	main_z	7	main_z	145	stimuli_target_trianglecircles.svg	stimuli_distractor_diamondtriangles.svg	21	yes	44	1	680
6.6.1	win	2022-12-14	12:04:07	12:10:23	369284	5adef850eb60400001539109	167048994	1	main_z	7	advance_on_keypress_ZEE	146	stimuli_target_trianglecircles.svg	stimuli_distractor_diamondtriangles.svg	21	yes	57	0	76
6.6.1	win	2022-12-14	12:04:07	12:10:24	370748	5adef850eb60400001539109	167048994	1	main_z	7	main_z	147	stimuli_distractor_diamondtriangles.svg	stimuli_target_squaretriangles.svg	15	yes	44	1	728
6.6.1	win	2022-12-14	12:04:07	12:10:24	370748	5adef850eb60400001539109	167048994	1	main_z	7	advance_on_keypress_ZEE	148	stimuli_distractor_diamondtriangles.svg	stimuli_target_squaretriangles.svg	15	yes	57	0	161
6.6.1	win	2022-12-14	12:04:07	12:10:26	372411	5adef850eb60400001539109	167048994	1	main_z	7	main_z	149	stimuli_target_diamondcircles.svg	stimuli_distractor_diamondtriangles.svg	23	yes	44	1	808
6.6.1	win	2022-12-14	12:04:07	12:10:26	372411	5adef850eb60400001539109	167048994	1	main_z	7	advance_on_keypress_ZEE	150	stimuli_target_diamondcircles.svg	stimuli_distractor_diamondtriangles.svg	23	yes	57	0	119
6.6.1	win	2022-12-14	12:04:07	12:10:27	373843	5adef850eb60400001539109	167048994	1	main_z	7	main_z	151	stimuli_distractor_trianglediamonds.svg	stimuli_target_diamondcircles.svg	27	yes	44	1	657
6.6.1	win	2022-12-14	12:04:07	12:10:27	373843	5adef850eb60400001539109	167048994	1	main_z	7	advance_on_keypress_ZEE	152	stimuli_distractor_trianglediamonds.svg	stimuli_target_diamondcircles.svg	27	yes	57	0	86
6.6.1	win	2022-12-14	12:04:07	12:10:28	375188	5adef850eb60400001539109	167048994	1	main_z	7	main_z	153	stimuli_distractor_diamondtriangles.svg	stimuli_target_circlediamonds.svg	14	yes	44	1	617
6.6.1	win	2022-12-14	12:04:07	12:10:28	375188	5adef850eb60400001539109	167048994	1	main_z	7	advance_on_keypress_ZEE	154	stimuli_distractor_diamondtriangles.svg	stimuli_target_circlediamonds.svg	14	yes	57	0	248
6.6.1	win	2022-12-14	12:04:07	12:10:31	377875	5adef850eb60400001539109	167048994	1	main_z	7	main_z	155	stimuli_distractor_trianglediamonds.svg	stimuli_target_diamondsquares.svg	28	yes	44	1	1789
6.6.1	win	2022-12-14	12:04:07	12:10:31	377875	5adef850eb60400001539109	167048994	1	main_z	7	advance_on_keypress_ZEE	156	stimuli_distractor_trianglediamonds.svg	stimuli_target_diamondsquares.svg	28	yes	57	0	773
6.6.1	win	2022-12-14	12:04:07	12:10:33	379971	5adef850eb60400001539109	167048994	1	main_z	7	main_z	157	stimuli_target_squarediamonds.svg	stimuli_distractor_trianglediamonds.svg	4	yes	44	1	685
6.6.1	win	2022-12-14	12:04:07	12:10:33	379971	5adef850eb60400001539109	167048994	1	main_z	7	advance_on_keypress_ZEE	158	stimuli_target_squarediamonds.svg	stimuli_distractor_trianglediamonds.svg	4	yes	57	0	145
6.6.1	win	2022-12-14	12:04:07	12:10:35	382067	5adef850eb60400001539109	167048994	1	main_z	7	main_z	159	stimuli_distractor_diamondtriangles.svg	stimuli_target_trianglecircles.svg	29	yes	44	1	1297
6.6.1	win	2022-12-14	12:04:07	12:10:35	382067	5adef850eb60400001539109	167048994	1	main_z	7	advance_on_keypress_ZEE	160	stimuli_distractor_diamondtriangles.svg	stimuli_target_trianglecircles.svg	29	yes	57	0	2245
6.6.1	win	2022-12-14	12:04:07	12:11:04	410580	5adef850eb60400001539109	167048994	1	practice_slash	9	practice_slash	1	stimuli_distractor_trianglediamonds.svg	stimuli_target_squarediamonds.svg	11	yes	53	1	609
6.6.1	win	2022-12-14	12:04:07	12:11:04	410580	5adef850eb60400001539109	167048994	1	practice_slash	9	advance_on_keypress_SLASH	2	stimuli_distractor_trianglediamonds.svg	stimuli_target_squarediamonds.svg	11	yes	57	0	512
6.6.1	win	2022-12-14	12:04:07	12:11:08	414772	5adef850eb60400001539109	167048994	1	practice_slash	9	practice_slash	3	stimuli_distractor_diamondtriangles.svg	stimuli_distractor_diamondtriangles.svg	13	no	0	1	2000
6.6.1	win	2022-12-14	12:04:07	12:11:08	414772	5adef850eb60400001539109	167048994	1	practice_slash	9	advance_on_keypress_SLASH	4	stimuli_distractor_diamondtriangles.svg	stimuli_distractor_diamondtriangles.svg	13	no	57	0	505
6.6.1	win	2022-12-14	12:04:07	12:11:11	417562	5adef850eb60400001539109	167048994	1	practice_slash	9	practice_slash	5	stimuli_target_circlediamonds.svg	stimuli_distractor_diamondtriangles.svg	1	yes	53	1	635
6.6.1	win	2022-12-14	12:04:07	12:11:11	417562	5adef850eb60400001539109	167048994	1	practice_slash	9	advance_on_keypress_SLASH	6	stimuli_target_circlediamonds.svg	stimuli_distractor_diamondtriangles.svg	1	yes	57	0	441
6.6.1	win	2022-12-14	12:04:07	12:11:15	421658	5adef850eb60400001539109	167048994	1	practice_slash	9	practice_slash	7	stimuli_target_diamondsquares.svg	stimuli_distractor_trianglediamonds.svg	6	yes	0	0	2000
6.6.1	win	2022-12-14	12:04:07	12:11:15	421658	5adef850eb60400001539109	167048994	1	practice_slash	9	advance_on_keypress_SLASH	8	stimuli_target_diamondsquares.svg	stimuli_distractor_trianglediamonds.svg	6	yes	57	0	478
6.6.1	win	2022-12-14	12:04:07	12:11:18	424398	5adef850eb60400001539109	167048994	1	practice_slash	9	practice_slash	9	stimuli_distractor_diamondtriangles.svg	stimuli_target_diamondcircles.svg	8	yes	53	1	609
6.6.1	win	2022-12-14	12:04:07	12:11:18	424398	5adef850eb60400001539109	167048994	1	practice_slash	9	advance_on_keypress_SLASH	10	stimuli_distractor_diamondtriangles.svg	stimuli_target_diamondcircles.svg	8	yes	57	0	423
6.6.1	win	2022-12-14	12:04:07	12:11:22	428490	5adef850eb60400001539109	167048994	1	practice_slash	9	practice_slash	11	stimuli_target_diamondsquares.svg	stimuli_distractor_diamondtriangles.svg	3	yes	0	0	2000
6.6.1	win	2022-12-14	12:04:07	12:11:22	428490	5adef850eb60400001539109	167048994	1	practice_slash	9	advance_on_keypress_SLASH	12	stimuli_target_diamondsquares.svg	stimuli_distractor_diamondtriangles.svg	3	yes	57	0	435
6.6.1	win	2022-12-14	12:04:07	12:11:25	431248	5adef850eb60400001539109	167048994	1	practice_slash	9	practice_slash	13	stimuli_distractor_diamondtriangles.svg	stimuli_target_circletriangles.svg	7	yes	53	1	657
6.6.1	win	2022-12-14	12:04:07	12:11:25	431248	5adef850eb60400001539109	167048994	1	practice_slash	9	advance_on_keypress_SLASH	14	stimuli_distractor_diamondtriangles.svg	stimuli_target_circletriangles.svg	7	yes	57	0	388
6.6.1	win	2022-12-14	12:04:07	12:11:29	435302	5adef850eb60400001539109	167048994	1	practice_slash	9	practice_slash	15	stimuli_distractor_diamondtriangles.svg	stimuli_distractor_trianglediamonds.svg	14	no	0	1	2000
6.6.1	win	2022-12-14	12:04:07	12:11:29	435302	5adef850eb60400001539109	167048994	1	practice_slash	9	advance_on_keypress_SLASH	16	stimuli_distractor_diamondtriangles.svg	stimuli_distractor_trianglediamonds.svg	14	no	57	0	651
6.6.1	win	2022-12-14	12:04:07	12:11:32	438267	5adef850eb60400001539109	167048994	1	practice_slash	9	practice_slash	17	stimuli_distractor_trianglediamonds.svg	stimuli_target_circlediamonds.svg	10	yes	53	1	656
6.6.1	win	2022-12-14	12:04:07	12:11:32	438267	5adef850eb60400001539109	167048994	1	practice_slash	9	advance_on_keypress_SLASH	18	stimuli_distractor_trianglediamonds.svg	stimuli_target_circlediamonds.svg	10	yes	57	0	429
6.6.1	win	2022-12-14	12:04:07	12:11:36	442361	5adef850eb60400001539109	167048994	1	practice_slash	9	practice_slash	19	stimuli_distractor_trianglediamonds.svg	stimuli_distractor_diamondtriangles.svg	16	no	0	1	2000
6.6.1	win	2022-12-14	12:04:07	12:11:36	442361	5adef850eb60400001539109	167048994	1	practice_slash	9	advance_on_keypress_SLASH	20	stimuli_distractor_trianglediamonds.svg	stimuli_distractor_diamondtriangles.svg	16	no	57	0	481
6.6.1	win	2022-12-14	12:04:07	12:11:39	445318	5adef850eb60400001539109	167048994	1	practice_slash	9	practice_slash	21	stimuli_target_squarediamonds.svg	stimuli_distractor_diamondtriangles.svg	2	yes	53	1	812
6.6.1	win	2022-12-14	12:04:07	12:11:39	445318	5adef850eb60400001539109	167048994	1	practice_slash	9	advance_on_keypress_SLASH	22	stimuli_target_squarediamonds.svg	stimuli_distractor_diamondtriangles.svg	2	yes	57	0	427
6.6.1	win	2022-12-14	12:04:07	12:11:41	448118	5adef850eb60400001539109	167048994	1	practice_slash	9	practice_slash	23	stimuli_target_circlediamonds.svg	stimuli_distractor_trianglediamonds.svg	4	yes	53	1	712
6.6.1	win	2022-12-14	12:04:07	12:11:41	448118	5adef850eb60400001539109	167048994	1	practice_slash	9	advance_on_keypress_SLASH	24	stimuli_target_circlediamonds.svg	stimuli_distractor_trianglediamonds.svg	4	yes	57	0	267
6.6.1	win	2022-12-14	12:04:07	12:11:45	452040	5adef850eb60400001539109	167048994	1	practice_slash	9	practice_slash	25	stimuli_distractor_trianglediamonds.svg	stimuli_distractor_trianglediamonds.svg	15	no	0	1	2000
6.6.1	win	2022-12-14	12:04:07	12:11:45	452040	5adef850eb60400001539109	167048994	1	practice_slash	9	advance_on_keypress_SLASH	26	stimuli_distractor_trianglediamonds.svg	stimuli_distractor_trianglediamonds.svg	15	no	57	0	566
6.6.1	win	2022-12-14	12:04:07	12:11:48	454838	5adef850eb60400001539109	167048994	1	practice_slash	9	practice_slash	27	stimuli_distractor_diamondtriangles.svg	stimuli_target_trianglecircles.svg	9	yes	53	1	582
6.6.1	win	2022-12-14	12:04:07	12:11:48	454838	5adef850eb60400001539109	167048994	1	practice_slash	9	advance_on_keypress_SLASH	28	stimuli_distractor_diamondtriangles.svg	stimuli_target_trianglecircles.svg	9	yes	57	0	350
6.6.1	win	2022-12-14	12:04:07	12:11:51	457562	5adef850eb60400001539109	167048994	1	practice_slash	9	practice_slash	29	stimuli_target_squarediamonds.svg	stimuli_distractor_trianglediamonds.svg	5	yes	53	1	719
6.6.1	win	2022-12-14	12:04:07	12:11:51	457562	5adef850eb60400001539109	167048994	1	practice_slash	9	advance_on_keypress_SLASH	30	stimuli_target_squarediamonds.svg	stimuli_distractor_trianglediamonds.svg	5	yes	57	0	273
6.6.1	win	2022-12-14	12:04:07	12:11:54	460237	5adef850eb60400001539109	167048994	1	practice_slash	9	practice_slash	31	stimuli_distractor_trianglediamonds.svg	stimuli_target_diamondcircles.svg	12	yes	53	1	732
6.6.1	win	2022-12-14	12:04:07	12:11:54	460237	5adef850eb60400001539109	167048994	1	practice_slash	9	advance_on_keypress_SLASH	32	stimuli_distractor_trianglediamonds.svg	stimuli_target_diamondcircles.svg	12	yes	57	0	302
6.6.1	win	2022-12-14	12:04:07	12:11:57	464035	5adef850eb60400001539109	167048994	1	main_slash	11	main_slash	1	stimuli_distractor_trianglediamonds.svg	stimuli_target_squarediamonds.svg	12	yes	53	1	699
6.6.1	win	2022-12-14	12:04:07	12:11:57	464035	5adef850eb60400001539109	167048994	1	main_slash	11	advance_on_keypress_SLASH	2	stimuli_distractor_trianglediamonds.svg	stimuli_target_squarediamonds.svg	12	yes	57	0	446
6.6.1	win	2022-12-14	12:04:07	12:12:00	467137	5adef850eb60400001539109	167048994	1	main_slash	11	main_slash	3	stimuli_distractor_trianglediamonds.svg	stimuli_distractor_trianglediamonds.svg	34	no	0	1	2000
6.6.1	win	2022-12-14	12:04:07	12:12:00	467137	5adef850eb60400001539109	167048994	1	main_slash	11	advance_on_keypress_SLASH	4	stimuli_distractor_trianglediamonds.svg	stimuli_distractor_trianglediamonds.svg	34	no	57	0	434
6.6.1	win	2022-12-14	12:04:07	12:12:02	468860	5adef850eb60400001539109	167048994	1	main_slash	11	main_slash	5	stimuli_distractor_trianglediamonds.svg	stimuli_target_diamondcircles.svg	27	yes	53	1	639
6.6.1	win	2022-12-14	12:04:07	12:12:02	468860	5adef850eb60400001539109	167048994	1	main_slash	11	advance_on_keypress_SLASH	6	stimuli_distractor_trianglediamonds.svg	stimuli_target_diamondcircles.svg	27	yes	57	0	269
6.6.1	win	2022-12-14	12:04:07	12:12:05	471770	5adef850eb60400001539109	167048994	1	main_slash	11	main_slash	7	stimuli_distractor_trianglediamonds.svg	stimuli_distractor_trianglediamonds.svg	33	no	0	1	2000
6.6.1	win	2022-12-14	12:04:07	12:12:05	471770	5adef850eb60400001539109	167048994	1	main_slash	11	advance_on_keypress_SLASH	8	stimuli_distractor_trianglediamonds.svg	stimuli_distractor_trianglediamonds.svg	33	no	57	0	297
6.6.1	win	2022-12-14	12:04:07	12:12:07	473675	5adef850eb60400001539109	167048994	1	main_slash	11	main_slash	9	stimuli_target_diamondsquares.svg	stimuli_distractor_diamondtriangles.svg	24	yes	53	1	955
6.6.1	win	2022-12-14	12:04:07	12:12:07	473675	5adef850eb60400001539109	167048994	1	main_slash	11	advance_on_keypress_SLASH	10	stimuli_target_diamondsquares.svg	stimuli_distractor_diamondtriangles.svg	24	yes	57	0	189
6.6.1	win	2022-12-14	12:04:07	12:12:10	476504	5adef850eb60400001539109	167048994	1	main_slash	11	main_slash	11	stimuli_distractor_trianglediamonds.svg	stimuli_distractor_diamondtriangles.svg	35	no	0	1	2000
6.6.1	win	2022-12-14	12:04:07	12:12:10	476504	5adef850eb60400001539109	167048994	1	main_slash	11	advance_on_keypress_SLASH	12	stimuli_distractor_trianglediamonds.svg	stimuli_distractor_diamondtriangles.svg	35	no	57	0	163
6.6.1	win	2022-12-14	12:04:07	12:12:12	478236	5adef850eb60400001539109	167048994	1	main_slash	11	main_slash	13	stimuli_distractor_trianglediamonds.svg	stimuli_target_diamondsquares.svg	28	yes	53	1	915
6.6.1	win	2022-12-14	12:04:07	12:12:12	478236	5adef850eb60400001539109	167048994	1	main_slash	11	advance_on_keypress_SLASH	14	stimuli_distractor_trianglediamonds.svg	stimuli_target_diamondsquares.svg	28	yes	57	0	158
6.6.1	win	2022-12-14	12:04:07	12:12:14	481053	5adef850eb60400001539109	167048994	1	main_slash	11	main_slash	15	stimuli_distractor_diamondtriangles.svg	stimuli_target_circlediamonds.svg	14	yes	0	0	2000
6.6.1	win	2022-12-14	12:04:07	12:12:14	481053	5adef850eb60400001539109	167048994	1	main_slash	11	advance_on_keypress_SLASH	16	stimuli_distractor_diamondtriangles.svg	stimuli_target_circlediamonds.svg	14	yes	57	0	429
6.6.1	win	2022-12-14	12:04:07	12:12:16	483003	5adef850eb60400001539109	167048994	1	main_slash	11	main_slash	17	stimuli_target_diamondsquares.svg	stimuli_distractor_trianglediamonds.svg	20	yes	53	1	867
6.6.1	win	2022-12-14	12:04:07	12:12:16	483003	5adef850eb60400001539109	167048994	1	main_slash	11	advance_on_keypress_SLASH	18	stimuli_target_diamondsquares.svg	stimuli_distractor_trianglediamonds.svg	20	yes	57	0	144
6.6.1	win	2022-12-14	12:04:07	12:12:18	484651	5adef850eb60400001539109	167048994	1	main_slash	11	main_slash	19	stimuli_distractor_diamondtriangles.svg	stimuli_target_diamondsquares.svg	32	yes	53	1	848
6.6.1	win	2022-12-14	12:04:07	12:12:18	484651	5adef850eb60400001539109	167048994	1	main_slash	11	advance_on_keypress_SLASH	20	stimuli_distractor_diamondtriangles.svg	stimuli_target_diamondsquares.svg	32	yes	57	0	181
6.6.1	win	2022-12-14	12:04:07	12:12:20	486283	5adef850eb60400001539109	167048994	1	main_slash	11	main_slash	21	stimuli_distractor_trianglediamonds.svg	stimuli_target_trianglesquares.svg	26	yes	53	1	797
6.6.1	win	2022-12-14	12:04:07	12:12:20	486283	5adef850eb60400001539109	167048994	1	main_slash	11	advance_on_keypress_SLASH	22	stimuli_distractor_trianglediamonds.svg	stimuli_target_trianglesquares.svg	26	yes	57	0	268
6.6.1	win	2022-12-14	12:04:07	12:12:23	489203	5adef850eb60400001539109	167048994	1	main_slash	11	main_slash	23	stimuli_distractor_trianglediamonds.svg	stimuli_target_circletriangles.svg	9	yes	0	0	2000
6.6.1	win	2022-12-14	12:04:07	12:12:23	489203	5adef850eb60400001539109	167048994	1	main_slash	11	advance_on_keypress_SLASH	24	stimuli_distractor_trianglediamonds.svg	stimuli_target_circletriangles.svg	9	yes	57	0	431
6.6.1	win	2022-12-14	12:04:07	12:12:24	491043	5adef850eb60400001539109	167048994	1	main_slash	11	main_slash	25	stimuli_target_trianglecircles.svg	stimuli_distractor_trianglediamonds.svg	17	yes	53	1	756
6.6.1	win	2022-12-14	12:04:07	12:12:24	491043	5adef850eb60400001539109	167048994	1	main_slash	11	advance_on_keypress_SLASH	26	stimuli_target_trianglecircles.svg	stimuli_distractor_trianglediamonds.svg	17	yes	57	0	190
6.6.1	win	2022-12-14	12:04:07	12:12:27	493870	5adef850eb60400001539109	167048994	1	main_slash	11	main_slash	27	stimuli_distractor_diamondtriangles.svg	stimuli_distractor_diamondtriangles.svg	39	no	0	1	2000
6.6.1	win	2022-12-14	12:04:07	12:12:27	493870	5adef850eb60400001539109	167048994	1	main_slash	11	advance_on_keypress_SLASH	28	stimuli_distractor_diamondtriangles.svg	stimuli_distractor_diamondtriangles.svg	39	no	57	0	365
6.6.1	win	2022-12-14	12:04:07	12:12:29	495940	5adef850eb60400001539109	167048994	1	main_slash	11	main_slash	29	stimuli_distractor_diamondtriangles.svg	stimuli_target_diamondcircles.svg	31	yes	53	1	1053
6.6.1	win	2022-12-14	12:04:07	12:12:29	495940	5adef850eb60400001539109	167048994	1	main_slash	11	advance_on_keypress_SLASH	30	stimuli_distractor_diamondtriangles.svg	stimuli_target_diamondcircles.svg	31	yes	57	0	18218
6.6.1	win	2022-12-14	12:04:07	12:12:50	516803	5adef850eb60400001539109	167048994	1	main_slash	11	main_slash	31	stimuli_distractor_trianglediamonds.svg	stimuli_distractor_diamondtriangles.svg	36	no	0	1	2000
6.6.1	win	2022-12-14	12:04:07	12:12:50	516803	5adef850eb60400001539109	167048994	1	main_slash	11	advance_on_keypress_SLASH	32	stimuli_distractor_trianglediamonds.svg	stimuli_distractor_diamondtriangles.svg	36	no	57	0	752
6.6.1	win	2022-12-14	12:04:07	12:12:52	518923	5adef850eb60400001539109	167048994	1	main_slash	11	main_slash	33	stimuli_distractor_diamondtriangles.svg	stimuli_target_squaretriangles.svg	15	yes	53	1	719
6.6.1	win	2022-12-14	12:04:07	12:12:52	518923	5adef850eb60400001539109	167048994	1	main_slash	11	advance_on_keypress_SLASH	34	stimuli_distractor_diamondtriangles.svg	stimuli_target_squaretriangles.svg	15	yes	57	0	347
6.6.1	win	2022-12-14	12:04:07	12:12:54	520659	5adef850eb60400001539109	167048994	1	main_slash	11	main_slash	35	stimuli_target_trianglesquares.svg	stimuli_distractor_trianglediamonds.svg	18	yes	53	1	737
6.6.1	win	2022-12-14	12:04:07	12:12:54	520659	5adef850eb60400001539109	167048994	1	main_slash	11	advance_on_keypress_SLASH	36	stimuli_target_trianglesquares.svg	stimuli_distractor_trianglediamonds.svg	18	yes	57	0	325
6.6.1	win	2022-12-14	12:04:07	12:12:57	523641	5adef850eb60400001539109	167048994	1	main_slash	11	main_slash	37	stimuli_distractor_diamondtriangles.svg	stimuli_target_circletriangles.svg	13	yes	0	0	2000
6.6.1	win	2022-12-14	12:04:07	12:12:57	523641	5adef850eb60400001539109	167048994	1	main_slash	11	advance_on_keypress_SLASH	38	stimuli_distractor_diamondtriangles.svg	stimuli_target_circletriangles.svg	13	yes	57	0	2949
6.6.1	win	2022-12-14	12:04:07	12:13:03	529237	5adef850eb60400001539109	167048994	1	main_slash	11	main_slash	39	stimuli_distractor_diamondtriangles.svg	stimuli_distractor_trianglediamonds.svg	38	no	0	1	2000
6.6.1	win	2022-12-14	12:04:07	12:13:03	529237	5adef850eb60400001539109	167048994	1	main_slash	11	advance_on_keypress_SLASH	40	stimuli_distractor_diamondtriangles.svg	stimuli_distractor_trianglediamonds.svg	38	no	57	0	310
6.6.1	win	2022-12-14	12:04:07	12:13:06	532203	5adef850eb60400001539109	167048994	1	main_slash	11	main_slash	41	stimuli_distractor_diamondtriangles.svg	stimuli_distractor_diamondtriangles.svg	40	no	0	1	2000
6.6.1	win	2022-12-14	12:04:07	12:13:06	532203	5adef850eb60400001539109	167048994	1	main_slash	11	advance_on_keypress_SLASH	42	stimuli_distractor_diamondtriangles.svg	stimuli_distractor_diamondtriangles.svg	40	no	57	0	399
6.6.1	win	2022-12-14	12:04:07	12:13:07	534091	5adef850eb60400001539109	167048994	1	main_slash	11	main_slash	43	stimuli_target_squaretriangles.svg	stimuli_distractor_trianglediamonds.svg	3	yes	53	1	838
6.6.1	win	2022-12-14	12:04:07	12:13:07	534091	5adef850eb60400001539109	167048994	1	main_slash	11	advance_on_keypress_SLASH	44	stimuli_target_squaretriangles.svg	stimuli_distractor_trianglediamonds.svg	3	yes	57	0	364
6.6.1	win	2022-12-14	12:04:07	12:13:09	535882	5adef850eb60400001539109	167048994	1	main_slash	11	main_slash	45	stimuli_target_circlediamonds.svg	stimuli_distractor_trianglediamonds.svg	2	yes	53	1	780
6.6.1	win	2022-12-14	12:04:07	12:13:09	535882	5adef850eb60400001539109	167048994	1	main_slash	11	advance_on_keypress_SLASH	46	stimuli_target_circlediamonds.svg	stimuli_distractor_trianglediamonds.svg	2	yes	57	0	300
6.6.1	win	2022-12-14	12:04:07	12:13:11	537699	5adef850eb60400001539109	167048994	1	main_slash	11	main_slash	47	stimuli_distractor_diamondtriangles.svg	stimuli_target_trianglesquares.svg	30	yes	53	1	863
6.6.1	win	2022-12-14	12:04:07	12:13:11	537699	5adef850eb60400001539109	167048994	1	main_slash	11	advance_on_keypress_SLASH	48	stimuli_distractor_diamondtriangles.svg	stimuli_target_trianglesquares.svg	30	yes	57	0	283
6.6.1	win	2022-12-14	12:04:07	12:13:13	539474	5adef850eb60400001539109	167048994	1	main_slash	11	main_slash	49	stimuli_target_squarediamonds.svg	stimuli_distractor_diamondtriangles.svg	8	yes	53	1	839
6.6.1	win	2022-12-14	12:04:07	12:13:13	539474	5adef850eb60400001539109	167048994	1	main_slash	11	advance_on_keypress_SLASH	50	stimuli_target_squarediamonds.svg	stimuli_distractor_diamondtriangles.svg	8	yes	57	0	253
6.6.1	win	2022-12-14	12:04:07	12:13:15	541211	5adef850eb60400001539109	167048994	1	main_slash	11	main_slash	51	stimuli_target_trianglesquares.svg	stimuli_distractor_diamondtriangles.svg	22	yes	53	1	840
6.6.1	win	2022-12-14	12:04:07	12:13:15	541211	5adef850eb60400001539109	167048994	1	main_slash	11	advance_on_keypress_SLASH	52	stimuli_target_trianglesquares.svg	stimuli_distractor_diamondtriangles.svg	22	yes	57	0	255
6.6.1	win	2022-12-14	12:04:07	12:13:16	542963	5adef850eb60400001539109	167048994	1	main_slash	11	main_slash	53	stimuli_target_squarediamonds.svg	stimuli_distractor_trianglediamonds.svg	4	yes	53	1	842
6.6.1	win	2022-12-14	12:04:07	12:13:16	542963	5adef850eb60400001539109	167048994	1	main_slash	11	advance_on_keypress_SLASH	54	stimuli_target_squarediamonds.svg	stimuli_distractor_trianglediamonds.svg	4	yes	57	0	233
6.6.1	win	2022-12-14	12:04:07	12:13:19	545853	5adef850eb60400001539109	167048994	1	main_slash	11	main_slash	55	stimuli_target_squaretriangles.svg	stimuli_distractor_diamondtriangles.svg	7	yes	0	0	2000
6.6.1	win	2022-12-14	12:04:07	12:13:19	545853	5adef850eb60400001539109	167048994	1	main_slash	11	advance_on_keypress_SLASH	56	stimuli_target_squaretriangles.svg	stimuli_distractor_diamondtriangles.svg	7	yes	57	0	742
6.6.1	win	2022-12-14	12:04:07	12:13:21	548140	5adef850eb60400001539109	167048994	1	main_slash	11	main_slash	57	stimuli_target_trianglecircles.svg	stimuli_distractor_diamondtriangles.svg	21	yes	53	1	885
6.6.1	win	2022-12-14	12:04:07	12:13:21	548140	5adef850eb60400001539109	167048994	1	main_slash	11	advance_on_keypress_SLASH	58	stimuli_target_trianglecircles.svg	stimuli_distractor_diamondtriangles.svg	21	yes	57	0	210
6.6.1	win	2022-12-14	12:04:07	12:13:23	549891	5adef850eb60400001539109	167048994	1	main_slash	11	main_slash	59	stimuli_target_diamondcircles.svg	stimuli_distractor_trianglediamonds.svg	19	yes	53	1	887
6.6.1	win	2022-12-14	12:04:07	12:13:23	549891	5adef850eb60400001539109	167048994	1	main_slash	11	advance_on_keypress_SLASH	60	stimuli_target_diamondcircles.svg	stimuli_distractor_trianglediamonds.svg	19	yes	57	0	172
6.6.1	win	2022-12-14	12:04:07	12:13:25	551523	5adef850eb60400001539109	167048994	1	main_slash	11	main_slash	61	stimuli_distractor_diamondtriangles.svg	stimuli_target_trianglecircles.svg	29	yes	53	1	803
6.6.1	win	2022-12-14	12:04:07	12:13:25	551523	5adef850eb60400001539109	167048994	1	main_slash	11	advance_on_keypress_SLASH	62	stimuli_distractor_diamondtriangles.svg	stimuli_target_trianglecircles.svg	29	yes	57	0	187
6.6.1	win	2022-12-14	12:04:07	12:13:27	553195	5adef850eb60400001539109	167048994	1	main_slash	11	main_slash	63	stimuli_target_circletriangles.svg	stimuli_distractor_diamondtriangles.svg	5	yes	53	1	842
6.6.1	win	2022-12-14	12:04:07	12:13:27	553195	5adef850eb60400001539109	167048994	1	main_slash	11	advance_on_keypress_SLASH	64	stimuli_target_circletriangles.svg	stimuli_distractor_diamondtriangles.svg	5	yes	57	0	175
6.6.1	win	2022-12-14	12:04:07	12:13:28	554891	5adef850eb60400001539109	167048994	1	main_slash	11	main_slash	65	stimuli_target_circlediamonds.svg	stimuli_distractor_diamondtriangles.svg	6	yes	53	1	855
6.6.1	win	2022-12-14	12:04:07	12:13:28	554891	5adef850eb60400001539109	167048994	1	main_slash	11	advance_on_keypress_SLASH	66	stimuli_target_circlediamonds.svg	stimuli_distractor_diamondtriangles.svg	6	yes	57	0	148
6.6.1	win	2022-12-14	12:04:07	12:13:30	556699	5adef850eb60400001539109	167048994	1	main_slash	11	main_slash	67	stimuli_target_circletriangles.svg	stimuli_distractor_trianglediamonds.svg	1	yes	53	1	1013
6.6.1	win	2022-12-14	12:04:07	12:13:30	556699	5adef850eb60400001539109	167048994	1	main_slash	11	advance_on_keypress_SLASH	68	stimuli_target_circletriangles.svg	stimuli_distractor_trianglediamonds.svg	1	yes	57	0	147
6.6.1	win	2022-12-14	12:04:07	12:13:32	558317	5adef850eb60400001539109	167048994	1	main_slash	11	main_slash	69	stimuli_distractor_trianglediamonds.svg	stimuli_target_trianglecircles.svg	25	yes	53	1	812
6.6.1	win	2022-12-14	12:04:07	12:13:32	558317	5adef850eb60400001539109	167048994	1	main_slash	11	advance_on_keypress_SLASH	70	stimuli_distractor_trianglediamonds.svg	stimuli_target_trianglecircles.svg	25	yes	57	0	163
6.6.1	win	2022-12-14	12:04:07	12:13:34	561138	5adef850eb60400001539109	167048994	1	main_slash	11	main_slash	71	stimuli_distractor_diamondtriangles.svg	stimuli_distractor_trianglediamonds.svg	37	no	0	1	2000
6.6.1	win	2022-12-14	12:04:07	12:13:34	561138	5adef850eb60400001539109	167048994	1	main_slash	11	advance_on_keypress_SLASH	72	stimuli_distractor_diamondtriangles.svg	stimuli_distractor_trianglediamonds.svg	37	no	57	0	242
6.6.1	win	2022-12-14	12:04:07	12:13:36	562827	5adef850eb60400001539109	167048994	1	main_slash	11	main_slash	73	stimuli_target_diamondcircles.svg	stimuli_distractor_diamondtriangles.svg	23	yes	53	1	791
6.6.1	win	2022-12-14	12:04:07	12:13:36	562827	5adef850eb60400001539109	167048994	1	main_slash	11	advance_on_keypress_SLASH	74	stimuli_target_diamondcircles.svg	stimuli_distractor_diamondtriangles.svg	23	yes	57	0	271
6.6.1	win	2022-12-14	12:04:07	12:13:38	564659	5adef850eb60400001539109	167048994	1	main_slash	11	main_slash	75	stimuli_distractor_trianglediamonds.svg	stimuli_target_circlediamonds.svg	10	yes	53	1	923
6.6.1	win	2022-12-14	12:04:07	12:13:38	564659	5adef850eb60400001539109	167048994	1	main_slash	11	advance_on_keypress_SLASH	76	stimuli_distractor_trianglediamonds.svg	stimuli_target_circlediamonds.svg	10	yes	57	0	214
6.6.1	win	2022-12-14	12:04:07	12:13:40	566498	5adef850eb60400001539109	167048994	1	main_slash	11	main_slash	77	stimuli_distractor_diamondtriangles.svg	stimuli_target_squarediamonds.svg	16	yes	53	1	978
6.6.1	win	2022-12-14	12:04:07	12:13:40	566498	5adef850eb60400001539109	167048994	1	main_slash	11	advance_on_keypress_SLASH	78	stimuli_distractor_diamondtriangles.svg	stimuli_target_squarediamonds.svg	16	yes	57	0	196
6.6.1	win	2022-12-14	12:04:07	12:13:42	568347	5adef850eb60400001539109	167048994	1	main_slash	11	main_slash	79	stimuli_distractor_trianglediamonds.svg	stimuli_target_squaretriangles.svg	11	yes	53	1	994
6.6.1	win	2022-12-14	12:04:07	12:13:42	568347	5adef850eb60400001539109	167048994	1	main_slash	11	advance_on_keypress_SLASH	80	stimuli_distractor_trianglediamonds.svg	stimuli_target_squaretriangles.svg	11	yes	57	0	265
6.6.1	win	2022-12-14	12:04:07	12:13:44	570323	5adef850eb60400001539109	167048994	1	main_slash	11	main_slash	81	stimuli_target_diamondcircles.svg	stimuli_distractor_trianglediamonds.svg	19	yes	53	1	1053
6.6.1	win	2022-12-14	12:04:07	12:13:44	570323	5adef850eb60400001539109	167048994	1	main_slash	11	advance_on_keypress_SLASH	82	stimuli_target_diamondcircles.svg	stimuli_distractor_trianglediamonds.svg	19	yes	57	0	267
6.6.1	win	2022-12-14	12:04:07	12:13:46	572380	5adef850eb60400001539109	167048994	1	main_slash	11	main_slash	83	stimuli_target_trianglesquares.svg	stimuli_distractor_diamondtriangles.svg	22	yes	53	1	1142
6.6.1	win	2022-12-14	12:04:07	12:13:46	572380	5adef850eb60400001539109	167048994	1	main_slash	11	advance_on_keypress_SLASH	84	stimuli_target_trianglesquares.svg	stimuli_distractor_diamondtriangles.svg	22	yes	57	0	279
6.6.1	win	2022-12-14	12:04:07	12:13:49	575320	5adef850eb60400001539109	167048994	1	main_slash	11	main_slash	85	stimuli_distractor_diamondtriangles.svg	stimuli_distractor_trianglediamonds.svg	38	no	0	1	2000
6.6.1	win	2022-12-14	12:04:07	12:13:49	575320	5adef850eb60400001539109	167048994	1	main_slash	11	advance_on_keypress_SLASH	86	stimuli_distractor_diamondtriangles.svg	stimuli_distractor_trianglediamonds.svg	38	no	57	0	547
6.6.1	win	2022-12-14	12:04:07	12:13:52	578520	5adef850eb60400001539109	167048994	1	main_slash	11	main_slash	87	stimuli_distractor_trianglediamonds.svg	stimuli_distractor_trianglediamonds.svg	33	no	0	1	2000
6.6.1	win	2022-12-14	12:04:07	12:13:52	578520	5adef850eb60400001539109	167048994	1	main_slash	11	advance_on_keypress_SLASH	88	stimuli_distractor_trianglediamonds.svg	stimuli_distractor_trianglediamonds.svg	33	no	57	0	291
6.6.1	win	2022-12-14	12:04:07	12:13:54	580627	5adef850eb60400001539109	167048994	1	main_slash	11	main_slash	89	stimuli_distractor_trianglediamonds.svg	stimuli_target_diamondcircles.svg	27	yes	53	1	1174
6.6.1	win	2022-12-14	12:04:07	12:13:54	580627	5adef850eb60400001539109	167048994	1	main_slash	11	advance_on_keypress_SLASH	90	stimuli_distractor_trianglediamonds.svg	stimuli_target_diamondcircles.svg	27	yes	57	0	311
6.6.1	win	2022-12-14	12:04:07	12:13:56	582763	5adef850eb60400001539109	167048994	1	main_slash	11	main_slash	91	stimuli_distractor_diamondtriangles.svg	stimuli_target_trianglesquares.svg	30	yes	53	1	1177
6.6.1	win	2022-12-14	12:04:07	12:13:56	582763	5adef850eb60400001539109	167048994	1	main_slash	11	advance_on_keypress_SLASH	92	stimuli_distractor_diamondtriangles.svg	stimuli_target_trianglesquares.svg	30	yes	57	0	201
6.6.1	win	2022-12-14	12:04:07	12:13:58	584675	5adef850eb60400001539109	167048994	1	main_slash	11	main_slash	93	stimuli_distractor_trianglediamonds.svg	stimuli_target_circlediamonds.svg	10	yes	53	1	1055
6.6.1	win	2022-12-14	12:04:07	12:13:58	584675	5adef850eb60400001539109	167048994	1	main_slash	11	advance_on_keypress_SLASH	94	stimuli_distractor_trianglediamonds.svg	stimuli_target_circlediamonds.svg	10	yes	57	0	213
6.6.1	win	2022-12-14	12:04:07	12:14:01	587537	5adef850eb60400001539109	167048994	1	main_slash	11	main_slash	95	stimuli_distractor_trianglediamonds.svg	stimuli_distractor_diamondtriangles.svg	36	no	0	1	2000
6.6.1	win	2022-12-14	12:04:07	12:14:01	587537	5adef850eb60400001539109	167048994	1	main_slash	11	advance_on_keypress_SLASH	96	stimuli_distractor_trianglediamonds.svg	stimuli_distractor_diamondtriangles.svg	36	no	57	0	266
6.6.1	win	2022-12-14	12:04:07	12:14:03	589412	5adef850eb60400001539109	167048994	1	main_slash	11	main_slash	97	stimuli_distractor_diamondtriangles.svg	stimuli_target_circlediamonds.svg	14	yes	53	1	957
6.6.1	win	2022-12-14	12:04:07	12:14:03	589412	5adef850eb60400001539109	167048994	1	main_slash	11	advance_on_keypress_SLASH	98	stimuli_distractor_diamondtriangles.svg	stimuli_target_circlediamonds.svg	14	yes	57	0	215
6.6.1	win	2022-12-14	12:04:07	12:14:06	592288	5adef850eb60400001539109	167048994	1	main_slash	11	main_slash	99	stimuli_distractor_diamondtriangles.svg	stimuli_distractor_diamondtriangles.svg	40	no	0	1	2000
6.6.1	win	2022-12-14	12:04:07	12:14:06	592288	5adef850eb60400001539109	167048994	1	main_slash	11	advance_on_keypress_SLASH	100	stimuli_distractor_diamondtriangles.svg	stimuli_distractor_diamondtriangles.svg	40	no	57	0	500
6.6.1	win	2022-12-14	12:04:07	12:14:08	594315	5adef850eb60400001539109	167048994	1	main_slash	11	main_slash	101	stimuli_distractor_diamondtriangles.svg	stimuli_target_trianglecircles.svg	29	yes	53	1	879
6.6.1	win	2022-12-14	12:04:07	12:14:08	594315	5adef850eb60400001539109	167048994	1	main_slash	11	advance_on_keypress_SLASH	102	stimuli_distractor_diamondtriangles.svg	stimuli_target_trianglecircles.svg	29	yes	57	0	219
6.6.1	win	2022-12-14	12:04:07	12:14:10	597186	5adef850eb60400001539109	167048994	1	main_slash	11	main_slash	103	stimuli_distractor_trianglediamonds.svg	stimuli_distractor_diamondtriangles.svg	35	no	0	1	2000
6.6.1	win	2022-12-14	12:04:07	12:14:10	597186	5adef850eb60400001539109	167048994	1	main_slash	11	advance_on_keypress_SLASH	104	stimuli_distractor_trianglediamonds.svg	stimuli_distractor_diamondtriangles.svg	35	no	57	0	335
6.6.1	win	2022-12-14	12:04:07	12:14:13	599236	5adef850eb60400001539109	167048994	1	main_slash	11	main_slash	105	stimuli_target_squarediamonds.svg	stimuli_distractor_trianglediamonds.svg	4	yes	53	1	1066
6.6.1	win	2022-12-14	12:04:07	12:14:13	599236	5adef850eb60400001539109	167048994	1	main_slash	11	advance_on_keypress_SLASH	106	stimuli_target_squarediamonds.svg	stimuli_distractor_trianglediamonds.svg	4	yes	57	0	222
6.6.1	win	2022-12-14	12:04:07	12:14:15	601211	5adef850eb60400001539109	167048994	1	main_slash	11	main_slash	107	stimuli_target_squarediamonds.svg	stimuli_distractor_diamondtriangles.svg	8	yes	53	1	1092
6.6.1	win	2022-12-14	12:04:07	12:14:15	601211	5adef850eb60400001539109	167048994	1	main_slash	11	advance_on_keypress_SLASH	108	stimuli_target_squarediamonds.svg	stimuli_distractor_diamondtriangles.svg	8	yes	57	0	272
6.6.1	win	2022-12-14	12:04:07	12:14:17	603267	5adef850eb60400001539109	167048994	1	main_slash	11	main_slash	109	stimuli_target_squaretriangles.svg	stimuli_distractor_trianglediamonds.svg	3	yes	53	1	1148
6.6.1	win	2022-12-14	12:04:07	12:14:17	603267	5adef850eb60400001539109	167048994	1	main_slash	11	advance_on_keypress_SLASH	110	stimuli_target_squaretriangles.svg	stimuli_distractor_trianglediamonds.svg	3	yes	57	0	260
6.6.1	win	2022-12-14	12:04:07	12:14:19	605411	5adef850eb60400001539109	167048994	1	main_slash	11	main_slash	111	stimuli_distractor_trianglediamonds.svg	stimuli_target_trianglesquares.svg	26	yes	53	1	1225
6.6.1	win	2022-12-14	12:04:07	12:14:19	605411	5adef850eb60400001539109	167048994	1	main_slash	11	advance_on_keypress_SLASH	112	stimuli_distractor_trianglediamonds.svg	stimuli_target_trianglesquares.svg	26	yes	57	0	311
6.6.1	win	2022-12-14	12:04:07	12:14:21	607371	5adef850eb60400001539109	167048994	1	main_slash	11	main_slash	113	stimuli_target_trianglecircles.svg	stimuli_distractor_trianglediamonds.svg	17	yes	53	1	985
6.6.1	win	2022-12-14	12:04:07	12:14:21	607371	5adef850eb60400001539109	167048994	1	main_slash	11	advance_on_keypress_SLASH	114	stimuli_target_trianglecircles.svg	stimuli_distractor_trianglediamonds.svg	17	yes	57	0	193
6.6.1	win	2022-12-14	12:04:07	12:14:24	610220	5adef850eb60400001539109	167048994	1	main_slash	11	main_slash	115	stimuli_distractor_diamondtriangles.svg	stimuli_distractor_diamondtriangles.svg	39	no	0	1	2000
6.6.1	win	2022-12-14	12:04:07	12:14:24	610220	5adef850eb60400001539109	167048994	1	main_slash	11	advance_on_keypress_SLASH	116	stimuli_distractor_diamondtriangles.svg	stimuli_distractor_diamondtriangles.svg	39	no	57	0	279
6.6.1	win	2022-12-14	12:04:07	12:14:26	612242	5adef850eb60400001539109	167048994	1	main_slash	11	main_slash	117	stimuli_distractor_trianglediamonds.svg	stimuli_target_diamondsquares.svg	28	yes	53	1	1090
6.6.1	win	2022-12-14	12:04:07	12:14:26	612242	5adef850eb60400001539109	167048994	1	main_slash	11	advance_on_keypress_SLASH	118	stimuli_distractor_trianglediamonds.svg	stimuli_target_diamondsquares.svg	28	yes	57	0	134
6.6.1	win	2022-12-14	12:04:07	12:14:28	615020	5adef850eb60400001539109	167048994	1	main_slash	11	main_slash	119	stimuli_distractor_diamondtriangles.svg	stimuli_distractor_trianglediamonds.svg	37	no	0	1	2000
6.6.1	win	2022-12-14	12:04:07	12:14:28	615020	5adef850eb60400001539109	167048994	1	main_slash	11	advance_on_keypress_SLASH	120	stimuli_distractor_diamondtriangles.svg	stimuli_distractor_trianglediamonds.svg	37	no	57	0	494
6.6.1	win	2022-12-14	12:04:07	12:14:30	617145	5adef850eb60400001539109	167048994	1	main_slash	11	main_slash	121	stimuli_distractor_trianglediamonds.svg	stimuli_target_squarediamonds.svg	12	yes	53	1	970
6.6.1	win	2022-12-14	12:04:07	12:14:30	617145	5adef850eb60400001539109	167048994	1	main_slash	11	advance_on_keypress_SLASH	122	stimuli_distractor_trianglediamonds.svg	stimuli_target_squarediamonds.svg	12	yes	57	0	218
6.6.1	win	2022-12-14	12:04:07	12:14:32	618915	5adef850eb60400001539109	167048994	1	main_slash	11	main_slash	123	stimuli_target_circlediamonds.svg	stimuli_distractor_trianglediamonds.svg	2	yes	53	1	896
6.6.1	win	2022-12-14	12:04:07	12:14:32	618915	5adef850eb60400001539109	167048994	1	main_slash	11	advance_on_keypress_SLASH	124	stimuli_target_circlediamonds.svg	stimuli_distractor_trianglediamonds.svg	2	yes	57	0	123
6.6.1	win	2022-12-14	12:04:07	12:14:34	620403	5adef850eb60400001539109	167048994	1	main_slash	11	main_slash	125	stimuli_target_trianglecircles.svg	stimuli_distractor_diamondtriangles.svg	21	yes	53	1	717
6.6.1	win	2022-12-14	12:04:07	12:14:34	620403	5adef850eb60400001539109	167048994	1	main_slash	11	advance_on_keypress_SLASH	126	stimuli_target_trianglecircles.svg	stimuli_distractor_diamondtriangles.svg	21	yes	57	0	288
6.6.1	win	2022-12-14	12:04:07	12:14:35	622075	5adef850eb60400001539109	167048994	1	main_slash	11	main_slash	127	stimuli_target_circletriangles.svg	stimuli_distractor_diamondtriangles.svg	5	yes	53	1	722
6.6.1	win	2022-12-14	12:04:07	12:14:35	622075	5adef850eb60400001539109	167048994	1	main_slash	11	advance_on_keypress_SLASH	128	stimuli_target_circletriangles.svg	stimuli_distractor_diamondtriangles.svg	5	yes	57	0	373
6.6.1	win	2022-12-14	12:04:07	12:14:37	623972	5adef850eb60400001539109	167048994	1	main_slash	11	main_slash	129	stimuli_target_squaretriangles.svg	stimuli_distractor_diamondtriangles.svg	7	yes	53	1	885
6.6.1	win	2022-12-14	12:04:07	12:14:37	623972	5adef850eb60400001539109	167048994	1	main_slash	11	advance_on_keypress_SLASH	130	stimuli_target_squaretriangles.svg	stimuli_distractor_diamondtriangles.svg	7	yes	57	0	144
6.6.1	win	2022-12-14	12:04:07	12:14:39	625683	5adef850eb60400001539109	167048994	1	main_slash	11	main_slash	131	stimuli_distractor_trianglediamonds.svg	stimuli_target_circletriangles.svg	9	yes	53	1	914
6.6.1	win	2022-12-14	12:04:07	12:14:39	625683	5adef850eb60400001539109	167048994	1	main_slash	11	advance_on_keypress_SLASH	132	stimuli_distractor_trianglediamonds.svg	stimuli_target_circletriangles.svg	9	yes	57	0	148
6.6.1	win	2022-12-14	12:04:07	12:14:41	627460	5adef850eb60400001539109	167048994	1	main_slash	11	main_slash	133	stimuli_distractor_diamondtriangles.svg	stimuli_target_circletriangles.svg	13	yes	53	1	973
6.6.1	win	2022-12-14	12:04:07	12:14:41	627460	5adef850eb60400001539109	167048994	1	main_slash	11	advance_on_keypress_SLASH	134	stimuli_distractor_diamondtriangles.svg	stimuli_target_circletriangles.svg	13	yes	57	0	92
6.6.1	win	2022-12-14	12:04:07	12:14:42	629155	5adef850eb60400001539109	167048994	1	main_slash	11	main_slash	135	stimuli_target_circlediamonds.svg	stimuli_distractor_diamondtriangles.svg	6	yes	53	1	936
6.6.1	win	2022-12-14	12:04:07	12:14:42	629155	5adef850eb60400001539109	167048994	1	main_slash	11	advance_on_keypress_SLASH	136	stimuli_target_circlediamonds.svg	stimuli_distractor_diamondtriangles.svg	6	yes	57	0	121
6.6.1	win	2022-12-14	12:04:07	12:14:44	630747	5adef850eb60400001539109	167048994	1	main_slash	11	main_slash	137	stimuli_target_trianglesquares.svg	stimuli_distractor_trianglediamonds.svg	18	yes	53	1	828
6.6.1	win	2022-12-14	12:04:07	12:14:44	630747	5adef850eb60400001539109	167048994	1	main_slash	11	advance_on_keypress_SLASH	138	stimuli_target_trianglesquares.svg	stimuli_distractor_trianglediamonds.svg	18	yes	57	0	98
6.6.1	win	2022-12-14	12:04:07	12:14:46	632458	5adef850eb60400001539109	167048994	1	main_slash	11	main_slash	139	stimuli_target_diamondsquares.svg	stimuli_distractor_trianglediamonds.svg	20	yes	53	1	956
6.6.1	win	2022-12-14	12:04:07	12:14:46	632458	5adef850eb60400001539109	167048994	1	main_slash	11	advance_on_keypress_SLASH	140	stimuli_target_diamondsquares.svg	stimuli_distractor_trianglediamonds.svg	20	yes	57	0	86
6.6.1	win	2022-12-14	12:04:07	12:14:47	633971	5adef850eb60400001539109	167048994	1	main_slash	11	main_slash	141	stimuli_distractor_diamondtriangles.svg	stimuli_target_diamondcircles.svg	31	yes	53	1	785
6.6.1	win	2022-12-14	12:04:07	12:14:47	633971	5adef850eb60400001539109	167048994	1	main_slash	11	advance_on_keypress_SLASH	142	stimuli_distractor_diamondtriangles.svg	stimuli_target_diamondcircles.svg	31	yes	57	0	121
6.6.1	win	2022-12-14	12:04:07	12:14:49	635563	5adef850eb60400001539109	167048994	1	main_slash	11	main_slash	143	stimuli_distractor_trianglediamonds.svg	stimuli_target_trianglecircles.svg	25	yes	53	1	827
6.6.1	win	2022-12-14	12:04:07	12:14:49	635563	5adef850eb60400001539109	167048994	1	main_slash	11	advance_on_keypress_SLASH	144	stimuli_distractor_trianglediamonds.svg	stimuli_target_trianglecircles.svg	25	yes	57	0	121
6.6.1	win	2022-12-14	12:04:07	12:14:52	638336	5adef850eb60400001539109	167048994	1	main_slash	11	main_slash	145	stimuli_distractor_trianglediamonds.svg	stimuli_distractor_trianglediamonds.svg	34	no	0	1	2000
6.6.1	win	2022-12-14	12:04:07	12:14:52	638336	5adef850eb60400001539109	167048994	1	main_slash	11	advance_on_keypress_SLASH	146	stimuli_distractor_trianglediamonds.svg	stimuli_distractor_trianglediamonds.svg	34	no	57	0	618
6.6.1	win	2022-12-14	12:04:07	12:14:54	640258	5adef850eb60400001539109	167048994	1	main_slash	11	main_slash	147	stimuli_target_circletriangles.svg	stimuli_distractor_trianglediamonds.svg	1	yes	53	1	655
6.6.1	win	2022-12-14	12:04:07	12:14:54	640258	5adef850eb60400001539109	167048994	1	main_slash	11	advance_on_keypress_SLASH	148	stimuli_target_circletriangles.svg	stimuli_distractor_trianglediamonds.svg	1	yes	57	0	133
6.6.1	win	2022-12-14	12:04:07	12:14:55	641794	5adef850eb60400001539109	167048994	1	main_slash	11	main_slash	149	stimuli_distractor_diamondtriangles.svg	stimuli_target_diamondsquares.svg	32	yes	53	1	758
6.6.1	win	2022-12-14	12:04:07	12:14:55	641794	5adef850eb60400001539109	167048994	1	main_slash	11	advance_on_keypress_SLASH	150	stimuli_distractor_diamondtriangles.svg	stimuli_target_diamondsquares.svg	32	yes	57	0	176
6.6.1	win	2022-12-14	12:04:07	12:14:57	643323	5adef850eb60400001539109	167048994	1	main_slash	11	main_slash	151	stimuli_distractor_diamondtriangles.svg	stimuli_target_squarediamonds.svg	16	yes	53	1	686
6.6.1	win	2022-12-14	12:04:07	12:14:57	643323	5adef850eb60400001539109	167048994	1	main_slash	11	advance_on_keypress_SLASH	152	stimuli_distractor_diamondtriangles.svg	stimuli_target_squarediamonds.svg	16	yes	57	0	187
6.6.1	win	2022-12-14	12:04:07	12:14:58	644876	5adef850eb60400001539109	167048994	1	main_slash	11	main_slash	153	stimuli_target_diamondsquares.svg	stimuli_distractor_diamondtriangles.svg	24	yes	53	1	722
6.6.1	win	2022-12-14	12:04:07	12:14:58	644876	5adef850eb60400001539109	167048994	1	main_slash	11	advance_on_keypress_SLASH	154	stimuli_target_diamondsquares.svg	stimuli_distractor_diamondtriangles.svg	24	yes	57	0	132
6.6.1	win	2022-12-14	12:04:07	12:15:00	646347	5adef850eb60400001539109	167048994	1	main_slash	11	main_slash	155	stimuli_target_diamondcircles.svg	stimuli_distractor_diamondtriangles.svg	23	yes	53	1	694
6.6.1	win	2022-12-14	12:04:07	12:15:00	646347	5adef850eb60400001539109	167048994	1	main_slash	11	advance_on_keypress_SLASH	156	stimuli_target_diamondcircles.svg	stimuli_distractor_diamondtriangles.svg	23	yes	57	0	138
6.6.1	win	2022-12-14	12:04:07	12:15:01	647858	5adef850eb60400001539109	167048994	1	main_slash	11	main_slash	157	stimuli_distractor_trianglediamonds.svg	stimuli_target_squaretriangles.svg	11	yes	53	1	723
6.6.1	win	2022-12-14	12:04:07	12:15:01	647858	5adef850eb60400001539109	167048994	1	main_slash	11	advance_on_keypress_SLASH	158	stimuli_distractor_trianglediamonds.svg	stimuli_target_squaretriangles.svg	11	yes	57	0	149
6.6.1	win	2022-12-14	12:04:07	12:15:03	649331	5adef850eb60400001539109	167048994	1	main_slash	11	main_slash	159	stimuli_distractor_diamondtriangles.svg	stimuli_target_squaretriangles.svg	15	yes	53	1	678
6.6.1	win	2022-12-14	12:04:07	12:15:03	649331	5adef850eb60400001539109	167048994	1	main_slash	11	advance_on_keypress_SLASH	160	stimuli_distractor_diamondtriangles.svg	stimuli_target_squaretriangles.svg	15	yes	57	0	137