build	computer.platform	date	time	timestamp	time_elapsed_ms	subject	group	session	blockcode	blocknum	trialcode	trialnum	stimulus_left	stimulus_right	stim_index	target_present	response	correct	latency
6.6.1	win	2022-12-20	21:30:03	21:32:46	160194	62740a242f1f9493b90e351c	902254557	1	practice_slash	5	practice_slash	1	stimuli_distractor_diamondtriangles.svg	stimuli_distractor_trianglediamonds.svg	14	no	0	1	2000
6.6.1	win	2022-12-20	21:30:03	21:32:46	160194	62740a242f1f9493b90e351c	902254557	1	practice_slash	5	advance_on_keypress_SLASH	2	stimuli_distractor_diamondtriangles.svg	stimuli_distractor_trianglediamonds.svg	14	no	57	0	1108
6.6.1	win	2022-12-20	21:30:03	21:32:49	163468	62740a242f1f9493b90e351c	902254557	1	practice_slash	5	practice_slash	3	stimuli_target_circlediamonds.svg	stimuli_distractor_trianglediamonds.svg	4	yes	53	1	504
6.6.1	win	2022-12-20	21:30:03	21:32:49	163468	62740a242f1f9493b90e351c	902254557	1	practice_slash	5	advance_on_keypress_SLASH	4	stimuli_target_circlediamonds.svg	stimuli_distractor_trianglediamonds.svg	4	yes	57	0	591
6.6.1	win	2022-12-20	21:30:03	21:32:52	165975	62740a242f1f9493b90e351c	902254557	1	practice_slash	5	practice_slash	5	stimuli_distractor_trianglediamonds.svg	stimuli_distractor_diamondtriangles.svg	16	no	53	0	280
6.6.1	win	2022-12-20	21:30:03	21:32:52	165975	62740a242f1f9493b90e351c	902254557	1	practice_slash	5	advance_on_keypress_SLASH	6	stimuli_distractor_trianglediamonds.svg	stimuli_distractor_diamondtriangles.svg	16	no	57	0	859
6.6.1	win	2022-12-20	21:30:03	21:32:55	169251	62740a242f1f9493b90e351c	902254557	1	practice_slash	5	practice_slash	7	stimuli_target_squarediamonds.svg	stimuli_distractor_diamondtriangles.svg	2	yes	53	1	757
6.6.1	win	2022-12-20	21:30:03	21:32:55	169251	62740a242f1f9493b90e351c	902254557	1	practice_slash	5	advance_on_keypress_SLASH	8	stimuli_target_squarediamonds.svg	stimuli_distractor_diamondtriangles.svg	2	yes	57	0	999
6.6.1	win	2022-12-20	21:30:03	21:32:58	172440	62740a242f1f9493b90e351c	902254557	1	practice_slash	5	practice_slash	9	stimuli_distractor_trianglediamonds.svg	stimuli_target_diamondcircles.svg	12	yes	53	1	547
6.6.1	win	2022-12-20	21:30:03	21:32:58	172440	62740a242f1f9493b90e351c	902254557	1	practice_slash	5	advance_on_keypress_SLASH	10	stimuli_distractor_trianglediamonds.svg	stimuli_target_diamondcircles.svg	12	yes	57	0	1267
6.6.1	win	2022-12-20	21:30:03	21:33:03	177360	62740a242f1f9493b90e351c	902254557	1	practice_slash	5	practice_slash	11	stimuli_distractor_trianglediamonds.svg	stimuli_distractor_trianglediamonds.svg	15	no	0	1	2000
6.6.1	win	2022-12-20	21:30:03	21:33:03	177360	62740a242f1f9493b90e351c	902254557	1	practice_slash	5	advance_on_keypress_SLASH	12	stimuli_distractor_trianglediamonds.svg	stimuli_distractor_trianglediamonds.svg	15	no	57	0	864
6.6.1	win	2022-12-20	21:30:03	21:33:06	180403	62740a242f1f9493b90e351c	902254557	1	practice_slash	5	practice_slash	13	stimuli_distractor_diamondtriangles.svg	stimuli_target_trianglecircles.svg	9	yes	53	1	526
6.6.1	win	2022-12-20	21:30:03	21:33:06	180403	62740a242f1f9493b90e351c	902254557	1	practice_slash	5	advance_on_keypress_SLASH	14	stimuli_distractor_diamondtriangles.svg	stimuli_target_trianglecircles.svg	9	yes	57	0	1129
6.6.1	win	2022-12-20	21:30:03	21:33:10	183956	62740a242f1f9493b90e351c	902254557	1	practice_slash	5	practice_slash	15	stimuli_target_diamondsquares.svg	stimuli_distractor_diamondtriangles.svg	3	yes	53	1	762
6.6.1	win	2022-12-20	21:30:03	21:33:10	183956	62740a242f1f9493b90e351c	902254557	1	practice_slash	5	advance_on_keypress_SLASH	16	stimuli_target_diamondsquares.svg	stimuli_distractor_diamondtriangles.svg	3	yes	57	0	727
6.6.1	win	2022-12-20	21:30:03	21:33:12	186628	62740a242f1f9493b90e351c	902254557	1	practice_slash	5	practice_slash	17	stimuli_target_circlediamonds.svg	stimuli_distractor_diamondtriangles.svg	1	yes	53	1	284
6.6.1	win	2022-12-20	21:30:03	21:33:12	186628	62740a242f1f9493b90e351c	902254557	1	practice_slash	5	advance_on_keypress_SLASH	18	stimuli_target_circlediamonds.svg	stimuli_distractor_diamondtriangles.svg	1	yes	57	0	747
6.6.1	win	2022-12-20	21:30:03	21:33:15	189313	62740a242f1f9493b90e351c	902254557	1	practice_slash	5	practice_slash	19	stimuli_distractor_trianglediamonds.svg	stimuli_target_squarediamonds.svg	11	yes	53	1	286
6.6.1	win	2022-12-20	21:30:03	21:33:15	189313	62740a242f1f9493b90e351c	902254557	1	practice_slash	5	advance_on_keypress_SLASH	20	stimuli_distractor_trianglediamonds.svg	stimuli_target_squarediamonds.svg	11	yes	57	0	603
6.6.1	win	2022-12-20	21:30:03	21:33:18	191900	62740a242f1f9493b90e351c	902254557	1	practice_slash	5	practice_slash	21	stimuli_distractor_diamondtriangles.svg	stimuli_target_diamondcircles.svg	8	yes	53	1	340
6.6.1	win	2022-12-20	21:30:03	21:33:18	191900	62740a242f1f9493b90e351c	902254557	1	practice_slash	5	advance_on_keypress_SLASH	22	stimuli_distractor_diamondtriangles.svg	stimuli_target_diamondcircles.svg	8	yes	57	0	624
6.6.1	win	2022-12-20	21:30:03	21:33:20	194509	62740a242f1f9493b90e351c	902254557	1	practice_slash	5	practice_slash	23	stimuli_distractor_trianglediamonds.svg	stimuli_target_circlediamonds.svg	10	yes	53	1	349
6.6.1	win	2022-12-20	21:30:03	21:33:20	194509	62740a242f1f9493b90e351c	902254557	1	practice_slash	5	advance_on_keypress_SLASH	24	stimuli_distractor_trianglediamonds.svg	stimuli_target_circlediamonds.svg	10	yes	57	0	629
6.6.1	win	2022-12-20	21:30:03	21:33:23	197113	62740a242f1f9493b90e351c	902254557	1	practice_slash	5	practice_slash	25	stimuli_distractor_diamondtriangles.svg	stimuli_distractor_diamondtriangles.svg	13	no	53	0	319
6.6.1	win	2022-12-20	21:30:03	21:33:23	197113	62740a242f1f9493b90e351c	902254557	1	practice_slash	5	advance_on_keypress_SLASH	26	stimuli_distractor_diamondtriangles.svg	stimuli_distractor_diamondtriangles.svg	13	no	57	0	625
6.6.1	win	2022-12-20	21:30:03	21:33:26	199920	62740a242f1f9493b90e351c	902254557	1	practice_slash	5	practice_slash	27	stimuli_distractor_diamondtriangles.svg	stimuli_target_circletriangles.svg	7	yes	53	1	544
6.6.1	win	2022-12-20	21:30:03	21:33:26	199920	62740a242f1f9493b90e351c	902254557	1	practice_slash	5	advance_on_keypress_SLASH	28	stimuli_distractor_diamondtriangles.svg	stimuli_target_circletriangles.svg	7	yes	57	0	650
6.6.1	win	2022-12-20	21:30:03	21:33:28	202567	62740a242f1f9493b90e351c	902254557	1	practice_slash	5	practice_slash	29	stimuli_target_squarediamonds.svg	stimuli_distractor_trianglediamonds.svg	5	yes	53	1	339
6.6.1	win	2022-12-20	21:30:03	21:33:28	202567	62740a242f1f9493b90e351c	902254557	1	practice_slash	5	advance_on_keypress_SLASH	30	stimuli_target_squarediamonds.svg	stimuli_distractor_trianglediamonds.svg	5	yes	57	0	833
6.6.1	win	2022-12-20	21:30:03	21:33:31	205304	62740a242f1f9493b90e351c	902254557	1	practice_slash	5	practice_slash	31	stimuli_target_diamondsquares.svg	stimuli_distractor_trianglediamonds.svg	6	yes	53	1	261
6.6.1	win	2022-12-20	21:30:03	21:33:31	205304	62740a242f1f9493b90e351c	902254557	1	practice_slash	5	advance_on_keypress_SLASH	32	stimuli_target_diamondsquares.svg	stimuli_distractor_trianglediamonds.svg	6	yes	57	0	523
6.6.1	win	2022-12-20	21:30:03	21:33:37	211569	62740a242f1f9493b90e351c	902254557	1	main_slash	7	main_slash	1	stimuli_target_circletriangles.svg	stimuli_distractor_diamondtriangles.svg	5	yes	53	1	310
6.6.1	win	2022-12-20	21:30:03	21:33:37	211569	62740a242f1f9493b90e351c	902254557	1	main_slash	7	advance_on_keypress_SLASH	2	stimuli_target_circletriangles.svg	stimuli_distractor_diamondtriangles.svg	5	yes	57	0	3932
6.6.1	win	2022-12-20	21:30:03	21:33:42	216669	62740a242f1f9493b90e351c	902254557	1	main_slash	7	main_slash	3	stimuli_target_trianglecircles.svg	stimuli_distractor_diamondtriangles.svg	21	yes	53	1	528
6.6.1	win	2022-12-20	21:30:03	21:33:42	216669	62740a242f1f9493b90e351c	902254557	1	main_slash	7	advance_on_keypress_SLASH	4	stimuli_target_trianglecircles.svg	stimuli_distractor_diamondtriangles.svg	21	yes	57	0	1082
6.6.1	win	2022-12-20	21:30:03	21:33:46	220391	62740a242f1f9493b90e351c	902254557	1	main_slash	7	main_slash	5	stimuli_distractor_trianglediamonds.svg	stimuli_target_trianglesquares.svg	26	yes	0	0	2000
6.6.1	win	2022-12-20	21:30:03	21:33:46	220391	62740a242f1f9493b90e351c	902254557	1	main_slash	7	advance_on_keypress_SLASH	6	stimuli_distractor_trianglediamonds.svg	stimuli_target_trianglesquares.svg	26	yes	57	0	564
6.6.1	win	2022-12-20	21:30:03	21:33:49	223608	62740a242f1f9493b90e351c	902254557	1	main_slash	7	main_slash	7	stimuli_target_trianglesquares.svg	stimuli_distractor_diamondtriangles.svg	22	yes	0	0	2000
6.6.1	win	2022-12-20	21:30:03	21:33:49	223608	62740a242f1f9493b90e351c	902254557	1	main_slash	7	advance_on_keypress_SLASH	8	stimuli_target_trianglesquares.svg	stimuli_distractor_diamondtriangles.svg	22	yes	57	0	668
6.6.1	win	2022-12-20	21:30:03	21:33:53	226926	62740a242f1f9493b90e351c	902254557	1	main_slash	7	main_slash	9	stimuli_target_diamondcircles.svg	stimuli_distractor_trianglediamonds.svg	19	yes	0	0	2000
6.6.1	win	2022-12-20	21:30:03	21:33:53	226926	62740a242f1f9493b90e351c	902254557	1	main_slash	7	advance_on_keypress_SLASH	10	stimuli_target_diamondcircles.svg	stimuli_distractor_trianglediamonds.svg	19	yes	57	0	655
6.6.1	win	2022-12-20	21:30:03	21:33:54	228564	62740a242f1f9493b90e351c	902254557	1	main_slash	7	main_slash	11	stimuli_target_circlediamonds.svg	stimuli_distractor_trianglediamonds.svg	2	yes	53	1	340
6.6.1	win	2022-12-20	21:30:03	21:33:54	228564	62740a242f1f9493b90e351c	902254557	1	main_slash	7	advance_on_keypress_SLASH	12	stimuli_target_circlediamonds.svg	stimuli_distractor_trianglediamonds.svg	2	yes	57	0	1163
6.6.1	win	2022-12-20	21:30:03	21:33:57	231166	62740a242f1f9493b90e351c	902254557	1	main_slash	7	main_slash	13	stimuli_distractor_diamondtriangles.svg	stimuli_target_trianglecircles.svg	29	yes	53	1	792
6.6.1	win	2022-12-20	21:30:03	21:33:57	231166	62740a242f1f9493b90e351c	902254557	1	main_slash	7	advance_on_keypress_SLASH	14	stimuli_distractor_diamondtriangles.svg	stimuli_target_trianglecircles.svg	29	yes	57	0	967
6.6.1	win	2022-12-20	21:30:03	21:33:59	233135	62740a242f1f9493b90e351c	902254557	1	main_slash	7	main_slash	15	stimuli_distractor_trianglediamonds.svg	stimuli_target_circlediamonds.svg	10	yes	53	1	360
6.6.1	win	2022-12-20	21:30:03	21:33:59	233135	62740a242f1f9493b90e351c	902254557	1	main_slash	7	advance_on_keypress_SLASH	16	stimuli_distractor_trianglediamonds.svg	stimuli_target_circlediamonds.svg	10	yes	57	0	904
6.6.1	win	2022-12-20	21:30:03	21:34:01	234992	62740a242f1f9493b90e351c	902254557	1	main_slash	7	main_slash	17	stimuli_target_circletriangles.svg	stimuli_distractor_trianglediamonds.svg	1	yes	53	1	316
6.6.1	win	2022-12-20	21:30:03	21:34:01	234992	62740a242f1f9493b90e351c	902254557	1	main_slash	7	advance_on_keypress_SLASH	18	stimuli_target_circletriangles.svg	stimuli_distractor_trianglediamonds.svg	1	yes	57	0	612
6.6.1	win	2022-12-20	21:30:03	21:34:02	236631	62740a242f1f9493b90e351c	902254557	1	main_slash	7	main_slash	19	stimuli_distractor_trianglediamonds.svg	stimuli_target_squaretriangles.svg	11	yes	53	1	374
6.6.1	win	2022-12-20	21:30:03	21:34:02	236631	62740a242f1f9493b90e351c	902254557	1	main_slash	7	advance_on_keypress_SLASH	20	stimuli_distractor_trianglediamonds.svg	stimuli_target_squaretriangles.svg	11	yes	57	0	1002
6.6.1	win	2022-12-20	21:30:03	21:34:04	238696	62740a242f1f9493b90e351c	902254557	1	main_slash	7	main_slash	21	stimuli_target_squaretriangles.svg	stimuli_distractor_trianglediamonds.svg	3	yes	53	1	423
6.6.1	win	2022-12-20	21:30:03	21:34:04	238696	62740a242f1f9493b90e351c	902254557	1	main_slash	7	advance_on_keypress_SLASH	22	stimuli_target_squaretriangles.svg	stimuli_distractor_trianglediamonds.svg	3	yes	57	0	1162
6.6.1	win	2022-12-20	21:30:03	21:34:07	240993	62740a242f1f9493b90e351c	902254557	1	main_slash	7	main_slash	23	stimuli_target_squarediamonds.svg	stimuli_distractor_trianglediamonds.svg	4	yes	53	1	486
6.6.1	win	2022-12-20	21:30:03	21:34:07	240993	62740a242f1f9493b90e351c	902254557	1	main_slash	7	advance_on_keypress_SLASH	24	stimuli_target_squarediamonds.svg	stimuli_distractor_trianglediamonds.svg	4	yes	57	0	455
6.6.1	win	2022-12-20	21:30:03	21:34:08	242148	62740a242f1f9493b90e351c	902254557	1	main_slash	7	main_slash	25	stimuli_target_trianglecircles.svg	stimuli_distractor_trianglediamonds.svg	17	yes	53	1	58
6.6.1	win	2022-12-20	21:30:03	21:34:08	242148	62740a242f1f9493b90e351c	902254557	1	main_slash	7	advance_on_keypress_SLASH	26	stimuli_target_trianglecircles.svg	stimuli_distractor_trianglediamonds.svg	17	yes	57	0	1008
6.6.1	win	2022-12-20	21:30:03	21:34:12	245791	62740a242f1f9493b90e351c	902254557	1	main_slash	7	main_slash	27	stimuli_distractor_trianglediamonds.svg	stimuli_distractor_diamondtriangles.svg	36	no	0	1	2000
6.6.1	win	2022-12-20	21:30:03	21:34:12	245791	62740a242f1f9493b90e351c	902254557	1	main_slash	7	advance_on_keypress_SLASH	28	stimuli_distractor_trianglediamonds.svg	stimuli_distractor_diamondtriangles.svg	36	no	57	0	601
6.6.1	win	2022-12-20	21:30:03	21:34:15	249041	62740a242f1f9493b90e351c	902254557	1	main_slash	7	main_slash	29	stimuli_distractor_trianglediamonds.svg	stimuli_distractor_trianglediamonds.svg	33	no	0	1	2000
6.6.1	win	2022-12-20	21:30:03	21:34:15	249041	62740a242f1f9493b90e351c	902254557	1	main_slash	7	advance_on_keypress_SLASH	30	stimuli_distractor_trianglediamonds.svg	stimuli_distractor_trianglediamonds.svg	33	no	57	0	353
6.6.1	win	2022-12-20	21:30:03	21:34:17	250925	62740a242f1f9493b90e351c	902254557	1	main_slash	7	main_slash	31	stimuli_distractor_trianglediamonds.svg	stimuli_distractor_trianglediamonds.svg	34	no	53	0	883
6.6.1	win	2022-12-20	21:30:03	21:34:17	250925	62740a242f1f9493b90e351c	902254557	1	main_slash	7	advance_on_keypress_SLASH	32	stimuli_distractor_trianglediamonds.svg	stimuli_distractor_trianglediamonds.svg	34	no	57	0	630
6.6.1	win	2022-12-20	21:30:03	21:34:20	254208	62740a242f1f9493b90e351c	902254557	1	main_slash	7	main_slash	33	stimuli_distractor_diamondtriangles.svg	stimuli_target_diamondsquares.svg	32	yes	0	0	2000
6.6.1	win	2022-12-20	21:30:03	21:34:20	254208	62740a242f1f9493b90e351c	902254557	1	main_slash	7	advance_on_keypress_SLASH	34	stimuli_distractor_diamondtriangles.svg	stimuli_target_diamondsquares.svg	32	yes	57	0	851
6.6.1	win	2022-12-20	21:30:03	21:34:22	256221	62740a242f1f9493b90e351c	902254557	1	main_slash	7	main_slash	35	stimuli_distractor_diamondtriangles.svg	stimuli_target_circlediamonds.svg	14	yes	53	1	514
6.6.1	win	2022-12-20	21:30:03	21:34:22	256221	62740a242f1f9493b90e351c	902254557	1	main_slash	7	advance_on_keypress_SLASH	36	stimuli_distractor_diamondtriangles.svg	stimuli_target_circlediamonds.svg	14	yes	57	0	673
6.6.1	win	2022-12-20	21:30:03	21:34:24	258048	62740a242f1f9493b90e351c	902254557	1	main_slash	7	main_slash	37	stimuli_distractor_diamondtriangles.svg	stimuli_distractor_diamondtriangles.svg	39	no	53	0	508
6.6.1	win	2022-12-20	21:30:03	21:34:24	258048	62740a242f1f9493b90e351c	902254557	1	main_slash	7	advance_on_keypress_SLASH	38	stimuli_distractor_diamondtriangles.svg	stimuli_distractor_diamondtriangles.svg	39	no	57	0	1010
6.6.1	win	2022-12-20	21:30:03	21:34:26	260200	62740a242f1f9493b90e351c	902254557	1	main_slash	7	main_slash	39	stimuli_target_squaretriangles.svg	stimuli_distractor_diamondtriangles.svg	7	yes	53	1	509
6.6.1	win	2022-12-20	21:30:03	21:34:26	260200	62740a242f1f9493b90e351c	902254557	1	main_slash	7	advance_on_keypress_SLASH	40	stimuli_target_squaretriangles.svg	stimuli_distractor_diamondtriangles.svg	7	yes	57	0	667
6.6.1	win	2022-12-20	21:30:03	21:34:28	261913	62740a242f1f9493b90e351c	902254557	1	main_slash	7	main_slash	41	stimuli_target_diamondsquares.svg	stimuli_distractor_trianglediamonds.svg	20	yes	53	1	407
6.6.1	win	2022-12-20	21:30:03	21:34:28	261913	62740a242f1f9493b90e351c	902254557	1	main_slash	7	advance_on_keypress_SLASH	42	stimuli_target_diamondsquares.svg	stimuli_distractor_trianglediamonds.svg	20	yes	57	0	726
6.6.1	win	2022-12-20	21:30:03	21:34:31	265275	62740a242f1f9493b90e351c	902254557	1	main_slash	7	main_slash	43	stimuli_distractor_diamondtriangles.svg	stimuli_distractor_diamondtriangles.svg	40	no	0	1	2000
6.6.1	win	2022-12-20	21:30:03	21:34:31	265275	62740a242f1f9493b90e351c	902254557	1	main_slash	7	advance_on_keypress_SLASH	44	stimuli_distractor_diamondtriangles.svg	stimuli_distractor_diamondtriangles.svg	40	no	57	0	373
6.6.1	win	2022-12-20	21:30:03	21:34:32	266689	62740a242f1f9493b90e351c	902254557	1	main_slash	7	main_slash	45	stimuli_distractor_diamondtriangles.svg	stimuli_target_trianglesquares.svg	30	yes	53	1	399
6.6.1	win	2022-12-20	21:30:03	21:34:32	266689	62740a242f1f9493b90e351c	902254557	1	main_slash	7	advance_on_keypress_SLASH	46	stimuli_distractor_diamondtriangles.svg	stimuli_target_trianglesquares.svg	30	yes	57	0	1482
6.6.1	win	2022-12-20	21:30:03	21:34:37	270824	62740a242f1f9493b90e351c	902254557	1	main_slash	7	main_slash	47	stimuli_distractor_trianglediamonds.svg	stimuli_distractor_diamondtriangles.svg	35	no	0	1	2000
6.6.1	win	2022-12-20	21:30:03	21:34:37	270824	62740a242f1f9493b90e351c	902254557	1	main_slash	7	advance_on_keypress_SLASH	48	stimuli_distractor_trianglediamonds.svg	stimuli_distractor_diamondtriangles.svg	35	no	57	0	523
6.6.1	win	2022-12-20	21:30:03	21:34:40	273989	62740a242f1f9493b90e351c	902254557	1	main_slash	7	main_slash	49	stimuli_target_diamondcircles.svg	stimuli_distractor_diamondtriangles.svg	23	yes	53	1	1999
6.6.1	win	2022-12-20	21:30:03	21:34:40	273989	62740a242f1f9493b90e351c	902254557	1	main_slash	7	advance_on_keypress_SLASH	50	stimuli_target_diamondcircles.svg	stimuli_distractor_diamondtriangles.svg	23	yes	57	0	668
6.6.1	win	2022-12-20	21:30:03	21:34:42	275820	62740a242f1f9493b90e351c	902254557	1	main_slash	7	main_slash	51	stimuli_target_squarediamonds.svg	stimuli_distractor_diamondtriangles.svg	8	yes	53	1	514
6.6.1	win	2022-12-20	21:30:03	21:34:42	275820	62740a242f1f9493b90e351c	902254557	1	main_slash	7	advance_on_keypress_SLASH	52	stimuli_target_squarediamonds.svg	stimuli_distractor_diamondtriangles.svg	8	yes	57	0	885
6.6.1	win	2022-12-20	21:30:03	21:34:43	277625	62740a242f1f9493b90e351c	902254557	1	main_slash	7	main_slash	53	stimuli_target_trianglesquares.svg	stimuli_distractor_trianglediamonds.svg	18	yes	53	1	267
6.6.1	win	2022-12-20	21:30:03	21:34:43	277625	62740a242f1f9493b90e351c	902254557	1	main_slash	7	advance_on_keypress_SLASH	54	stimuli_target_trianglesquares.svg	stimuli_distractor_trianglediamonds.svg	18	yes	57	0	805
6.6.1	win	2022-12-20	21:30:03	21:34:45	279392	62740a242f1f9493b90e351c	902254557	1	main_slash	7	main_slash	55	stimuli_distractor_diamondtriangles.svg	stimuli_distractor_trianglediamonds.svg	38	no	53	0	318
6.6.1	win	2022-12-20	21:30:03	21:34:45	279392	62740a242f1f9493b90e351c	902254557	1	main_slash	7	advance_on_keypress_SLASH	56	stimuli_distractor_diamondtriangles.svg	stimuli_distractor_trianglediamonds.svg	38	no	57	0	440
6.6.1	win	2022-12-20	21:30:03	21:34:47	280993	62740a242f1f9493b90e351c	902254557	1	main_slash	7	main_slash	57	stimuli_distractor_diamondtriangles.svg	stimuli_target_squarediamonds.svg	16	yes	53	1	520
6.6.1	win	2022-12-20	21:30:03	21:34:47	280993	62740a242f1f9493b90e351c	902254557	1	main_slash	7	advance_on_keypress_SLASH	58	stimuli_distractor_diamondtriangles.svg	stimuli_target_squarediamonds.svg	16	yes	57	0	481
6.6.1	win	2022-12-20	21:30:03	21:34:48	282532	62740a242f1f9493b90e351c	902254557	1	main_slash	7	main_slash	59	stimuli_distractor_diamondtriangles.svg	stimuli_target_diamondcircles.svg	31	yes	53	1	409
6.6.1	win	2022-12-20	21:30:03	21:34:48	282532	62740a242f1f9493b90e351c	902254557	1	main_slash	7	advance_on_keypress_SLASH	60	stimuli_distractor_diamondtriangles.svg	stimuli_target_diamondcircles.svg	31	yes	57	0	311
6.6.1	win	2022-12-20	21:30:03	21:34:50	283945	62740a242f1f9493b90e351c	902254557	1	main_slash	7	main_slash	61	stimuli_distractor_diamondtriangles.svg	stimuli_distractor_trianglediamonds.svg	37	no	53	0	453
6.6.1	win	2022-12-20	21:30:03	21:34:50	283945	62740a242f1f9493b90e351c	902254557	1	main_slash	7	advance_on_keypress_SLASH	62	stimuli_distractor_diamondtriangles.svg	stimuli_distractor_trianglediamonds.svg	37	no	57	0	469
6.6.1	win	2022-12-20	21:30:03	21:34:53	287057	62740a242f1f9493b90e351c	902254557	1	main_slash	7	main_slash	63	stimuli_distractor_trianglediamonds.svg	stimuli_target_squarediamonds.svg	12	yes	0	0	2000
6.6.1	win	2022-12-20	21:30:03	21:34:53	287057	62740a242f1f9493b90e351c	902254557	1	main_slash	7	advance_on_keypress_SLASH	64	stimuli_distractor_trianglediamonds.svg	stimuli_target_squarediamonds.svg	12	yes	57	0	329
6.6.1	win	2022-12-20	21:30:03	21:34:54	288401	62740a242f1f9493b90e351c	902254557	1	main_slash	7	main_slash	65	stimuli_distractor_diamondtriangles.svg	stimuli_target_circletriangles.svg	13	yes	53	1	360
6.6.1	win	2022-12-20	21:30:03	21:34:54	288401	62740a242f1f9493b90e351c	902254557	1	main_slash	7	advance_on_keypress_SLASH	66	stimuli_distractor_diamondtriangles.svg	stimuli_target_circletriangles.svg	13	yes	57	0	335
6.6.1	win	2022-12-20	21:30:03	21:34:56	289762	62740a242f1f9493b90e351c	902254557	1	main_slash	7	main_slash	67	stimuli_target_circlediamonds.svg	stimuli_distractor_diamondtriangles.svg	6	yes	53	1	388
6.6.1	win	2022-12-20	21:30:03	21:34:56	289762	62740a242f1f9493b90e351c	902254557	1	main_slash	7	advance_on_keypress_SLASH	68	stimuli_target_circlediamonds.svg	stimuli_distractor_diamondtriangles.svg	6	yes	57	0	208
6.6.1	win	2022-12-20	21:30:03	21:34:57	290926	62740a242f1f9493b90e351c	902254557	1	main_slash	7	main_slash	69	stimuli_target_diamondsquares.svg	stimuli_distractor_diamondtriangles.svg	24	yes	53	1	319
6.6.1	win	2022-12-20	21:30:03	21:34:57	290926	62740a242f1f9493b90e351c	902254557	1	main_slash	7	advance_on_keypress_SLASH	70	stimuli_target_diamondsquares.svg	stimuli_distractor_diamondtriangles.svg	24	yes	57	0	245
6.6.1	win	2022-12-20	21:30:03	21:34:58	292186	62740a242f1f9493b90e351c	902254557	1	main_slash	7	main_slash	71	stimuli_distractor_trianglediamonds.svg	stimuli_target_trianglecircles.svg	25	yes	53	1	362
6.6.1	win	2022-12-20	21:30:03	21:34:58	292186	62740a242f1f9493b90e351c	902254557	1	main_slash	7	advance_on_keypress_SLASH	72	stimuli_distractor_trianglediamonds.svg	stimuli_target_trianglecircles.svg	25	yes	57	0	640
6.6.1	win	2022-12-20	21:30:03	21:35:00	293802	62740a242f1f9493b90e351c	902254557	1	main_slash	7	main_slash	73	stimuli_distractor_trianglediamonds.svg	stimuli_target_circletriangles.svg	9	yes	53	1	328
6.6.1	win	2022-12-20	21:30:03	21:35:00	293802	62740a242f1f9493b90e351c	902254557	1	main_slash	7	advance_on_keypress_SLASH	74	stimuli_distractor_trianglediamonds.svg	stimuli_target_circletriangles.svg	9	yes	57	0	784
6.6.1	win	2022-12-20	21:30:03	21:35:01	295611	62740a242f1f9493b90e351c	902254557	1	main_slash	7	main_slash	75	stimuli_distractor_diamondtriangles.svg	stimuli_target_squaretriangles.svg	15	yes	53	1	388
6.6.1	win	2022-12-20	21:30:03	21:35:01	295611	62740a242f1f9493b90e351c	902254557	1	main_slash	7	advance_on_keypress_SLASH	76	stimuli_distractor_diamondtriangles.svg	stimuli_target_squaretriangles.svg	15	yes	57	0	330
6.6.1	win	2022-12-20	21:30:03	21:35:03	296974	62740a242f1f9493b90e351c	902254557	1	main_slash	7	main_slash	77	stimuli_distractor_trianglediamonds.svg	stimuli_target_diamondcircles.svg	27	yes	53	1	384
6.6.1	win	2022-12-20	21:30:03	21:35:03	296974	62740a242f1f9493b90e351c	902254557	1	main_slash	7	advance_on_keypress_SLASH	78	stimuli_distractor_trianglediamonds.svg	stimuli_target_diamondcircles.svg	27	yes	57	0	335
6.6.1	win	2022-12-20	21:30:03	21:35:04	298333	62740a242f1f9493b90e351c	902254557	1	main_slash	7	main_slash	79	stimuli_distractor_trianglediamonds.svg	stimuli_target_diamondsquares.svg	28	yes	53	1	371
6.6.1	win	2022-12-20	21:30:03	21:35:04	298333	62740a242f1f9493b90e351c	902254557	1	main_slash	7	advance_on_keypress_SLASH	80	stimuli_distractor_trianglediamonds.svg	stimuli_target_diamondsquares.svg	28	yes	57	0	510
6.6.1	win	2022-12-20	21:30:03	21:35:06	299847	62740a242f1f9493b90e351c	902254557	1	main_slash	7	main_slash	81	stimuli_target_circlediamonds.svg	stimuli_distractor_trianglediamonds.svg	2	yes	53	1	372
6.6.1	win	2022-12-20	21:30:03	21:35:06	299847	62740a242f1f9493b90e351c	902254557	1	main_slash	7	advance_on_keypress_SLASH	82	stimuli_target_circlediamonds.svg	stimuli_distractor_trianglediamonds.svg	2	yes	57	0	312
6.6.1	win	2022-12-20	21:30:03	21:35:07	301103	62740a242f1f9493b90e351c	902254557	1	main_slash	7	main_slash	83	stimuli_distractor_trianglediamonds.svg	stimuli_distractor_diamondtriangles.svg	35	no	53	0	295
6.6.1	win	2022-12-20	21:30:03	21:35:07	301103	62740a242f1f9493b90e351c	902254557	1	main_slash	7	advance_on_keypress_SLASH	84	stimuli_distractor_trianglediamonds.svg	stimuli_distractor_diamondtriangles.svg	35	no	57	0	258
6.6.1	win	2022-12-20	21:30:03	21:35:08	302729	62740a242f1f9493b90e351c	902254557	1	main_slash	7	main_slash	85	stimuli_target_trianglesquares.svg	stimuli_distractor_trianglediamonds.svg	18	yes	53	1	722
6.6.1	win	2022-12-20	21:30:03	21:35:08	302729	62740a242f1f9493b90e351c	902254557	1	main_slash	7	advance_on_keypress_SLASH	86	stimuli_target_trianglesquares.svg	stimuli_distractor_trianglediamonds.svg	18	yes	57	0	407
6.6.1	win	2022-12-20	21:30:03	21:35:10	304386	62740a242f1f9493b90e351c	902254557	1	main_slash	7	main_slash	87	stimuli_target_circletriangles.svg	stimuli_distractor_trianglediamonds.svg	1	yes	53	1	612
6.6.1	win	2022-12-20	21:30:03	21:35:10	304386	62740a242f1f9493b90e351c	902254557	1	main_slash	7	advance_on_keypress_SLASH	88	stimuli_target_circletriangles.svg	stimuli_distractor_trianglediamonds.svg	1	yes	57	0	195
6.6.1	win	2022-12-20	21:30:03	21:35:12	305988	62740a242f1f9493b90e351c	902254557	1	main_slash	7	main_slash	89	stimuli_distractor_diamondtriangles.svg	stimuli_distractor_trianglediamonds.svg	38	no	53	0	747
6.6.1	win	2022-12-20	21:30:03	21:35:12	305988	62740a242f1f9493b90e351c	902254557	1	main_slash	7	advance_on_keypress_SLASH	90	stimuli_distractor_diamondtriangles.svg	stimuli_distractor_trianglediamonds.svg	38	no	57	0	237
6.6.1	win	2022-12-20	21:30:03	21:35:13	307581	62740a242f1f9493b90e351c	902254557	1	main_slash	7	main_slash	91	stimuli_distractor_trianglediamonds.svg	stimuli_target_diamondsquares.svg	28	yes	53	1	708
6.6.1	win	2022-12-20	21:30:03	21:35:13	307581	62740a242f1f9493b90e351c	902254557	1	main_slash	7	advance_on_keypress_SLASH	92	stimuli_distractor_trianglediamonds.svg	stimuli_target_diamondsquares.svg	28	yes	57	0	198
6.6.1	win	2022-12-20	21:30:03	21:35:15	308844	62740a242f1f9493b90e351c	902254557	1	main_slash	7	main_slash	93	stimuli_distractor_diamondtriangles.svg	stimuli_target_trianglesquares.svg	30	yes	53	1	420
6.6.1	win	2022-12-20	21:30:03	21:35:15	308844	62740a242f1f9493b90e351c	902254557	1	main_slash	7	advance_on_keypress_SLASH	94	stimuli_distractor_diamondtriangles.svg	stimuli_target_trianglesquares.svg	30	yes	57	0	269
6.6.1	win	2022-12-20	21:30:03	21:35:16	310162	62740a242f1f9493b90e351c	902254557	1	main_slash	7	main_slash	95	stimuli_distractor_trianglediamonds.svg	stimuli_target_squaretriangles.svg	11	yes	53	1	405
6.6.1	win	2022-12-20	21:30:03	21:35:16	310162	62740a242f1f9493b90e351c	902254557	1	main_slash	7	advance_on_keypress_SLASH	96	stimuli_distractor_trianglediamonds.svg	stimuli_target_squaretriangles.svg	11	yes	57	0	656
6.6.1	win	2022-12-20	21:30:03	21:35:19	313457	62740a242f1f9493b90e351c	902254557	1	main_slash	7	main_slash	97	stimuli_target_diamondsquares.svg	stimuli_distractor_trianglediamonds.svg	20	yes	0	0	2000
6.6.1	win	2022-12-20	21:30:03	21:35:19	313457	62740a242f1f9493b90e351c	902254557	1	main_slash	7	advance_on_keypress_SLASH	98	stimuli_target_diamondsquares.svg	stimuli_distractor_trianglediamonds.svg	20	yes	57	0	704
6.6.1	win	2022-12-20	21:30:03	21:35:21	315168	62740a242f1f9493b90e351c	902254557	1	main_slash	7	main_slash	99	stimuli_target_diamondcircles.svg	stimuli_distractor_trianglediamonds.svg	19	yes	53	1	361
6.6.1	win	2022-12-20	21:30:03	21:35:21	315168	62740a242f1f9493b90e351c	902254557	1	main_slash	7	advance_on_keypress_SLASH	100	stimuli_target_diamondcircles.svg	stimuli_distractor_trianglediamonds.svg	19	yes	57	0	527
6.6.1	win	2022-12-20	21:30:03	21:35:22	316658	62740a242f1f9493b90e351c	902254557	1	main_slash	7	main_slash	101	stimuli_target_squarediamonds.svg	stimuli_distractor_trianglediamonds.svg	4	yes	53	1	334
6.6.1	win	2022-12-20	21:30:03	21:35:22	316658	62740a242f1f9493b90e351c	902254557	1	main_slash	7	advance_on_keypress_SLASH	102	stimuli_target_squarediamonds.svg	stimuli_distractor_trianglediamonds.svg	4	yes	57	0	295
6.6.1	win	2022-12-20	21:30:03	21:35:24	317949	62740a242f1f9493b90e351c	902254557	1	main_slash	7	main_slash	103	stimuli_distractor_diamondtriangles.svg	stimuli_distractor_diamondtriangles.svg	39	no	53	0	343
6.6.1	win	2022-12-20	21:30:03	21:35:24	317949	62740a242f1f9493b90e351c	902254557	1	main_slash	7	advance_on_keypress_SLASH	104	stimuli_distractor_diamondtriangles.svg	stimuli_distractor_diamondtriangles.svg	39	no	57	0	1162
6.6.1	win	2022-12-20	21:30:03	21:35:26	320175	62740a242f1f9493b90e351c	902254557	1	main_slash	7	main_slash	105	stimuli_distractor_diamondtriangles.svg	stimuli_target_squaretriangles.svg	15	yes	53	1	418
6.6.1	win	2022-12-20	21:30:03	21:35:26	320175	62740a242f1f9493b90e351c	902254557	1	main_slash	7	advance_on_keypress_SLASH	106	stimuli_distractor_diamondtriangles.svg	stimuli_target_squaretriangles.svg	15	yes	57	0	341
6.6.1	win	2022-12-20	21:30:03	21:35:27	321582	62740a242f1f9493b90e351c	902254557	1	main_slash	7	main_slash	107	stimuli_target_trianglesquares.svg	stimuli_distractor_diamondtriangles.svg	22	yes	53	1	425
6.6.1	win	2022-12-20	21:30:03	21:35:27	321582	62740a242f1f9493b90e351c	902254557	1	main_slash	7	advance_on_keypress_SLASH	108	stimuli_target_trianglesquares.svg	stimuli_distractor_diamondtriangles.svg	22	yes	57	0	1141
6.6.1	win	2022-12-20	21:30:03	21:35:30	323809	62740a242f1f9493b90e351c	902254557	1	main_slash	7	main_slash	109	stimuli_target_trianglecircles.svg	stimuli_distractor_trianglediamonds.svg	17	yes	53	1	452
6.6.1	win	2022-12-20	21:30:03	21:35:30	323809	62740a242f1f9493b90e351c	902254557	1	main_slash	7	advance_on_keypress_SLASH	110	stimuli_target_trianglecircles.svg	stimuli_distractor_trianglediamonds.svg	17	yes	57	0	785
6.6.1	win	2022-12-20	21:30:03	21:35:32	325833	62740a242f1f9493b90e351c	902254557	1	main_slash	7	main_slash	111	stimuli_distractor_trianglediamonds.svg	stimuli_target_trianglecircles.svg	25	yes	53	1	592
6.6.1	win	2022-12-20	21:30:03	21:35:32	325833	62740a242f1f9493b90e351c	902254557	1	main_slash	7	advance_on_keypress_SLASH	112	stimuli_distractor_trianglediamonds.svg	stimuli_target_trianglecircles.svg	25	yes	57	0	397
6.6.1	win	2022-12-20	21:30:03	21:35:33	327234	62740a242f1f9493b90e351c	902254557	1	main_slash	7	main_slash	113	stimuli_distractor_diamondtriangles.svg	stimuli_distractor_trianglediamonds.svg	37	no	53	0	360
6.6.1	win	2022-12-20	21:30:03	21:35:33	327234	62740a242f1f9493b90e351c	902254557	1	main_slash	7	advance_on_keypress_SLASH	114	stimuli_distractor_diamondtriangles.svg	stimuli_distractor_trianglediamonds.svg	37	no	57	0	172
6.6.1	win	2022-12-20	21:30:03	21:35:36	330041	62740a242f1f9493b90e351c	902254557	1	main_slash	7	main_slash	115	stimuli_distractor_trianglediamonds.svg	stimuli_target_squarediamonds.svg	12	yes	0	0	2000
6.6.1	win	2022-12-20	21:30:03	21:35:36	330041	62740a242f1f9493b90e351c	902254557	1	main_slash	7	advance_on_keypress_SLASH	116	stimuli_distractor_trianglediamonds.svg	stimuli_target_squarediamonds.svg	12	yes	57	0	622
6.6.1	win	2022-12-20	21:30:03	21:35:39	333308	62740a242f1f9493b90e351c	902254557	1	main_slash	7	main_slash	117	stimuli_target_diamondsquares.svg	stimuli_distractor_diamondtriangles.svg	24	yes	0	0	2000
6.6.1	win	2022-12-20	21:30:03	21:35:39	333308	62740a242f1f9493b90e351c	902254557	1	main_slash	7	advance_on_keypress_SLASH	118	stimuli_target_diamondsquares.svg	stimuli_distractor_diamondtriangles.svg	24	yes	57	0	330
6.6.1	win	2022-12-20	21:30:03	21:35:41	334802	62740a242f1f9493b90e351c	902254557	1	main_slash	7	main_slash	119	stimuli_distractor_diamondtriangles.svg	stimuli_target_trianglecircles.svg	29	yes	53	1	510
6.6.1	win	2022-12-20	21:30:03	21:35:41	334802	62740a242f1f9493b90e351c	902254557	1	main_slash	7	advance_on_keypress_SLASH	120	stimuli_distractor_diamondtriangles.svg	stimuli_target_trianglecircles.svg	29	yes	57	0	168
6.6.1	win	2022-12-20	21:30:03	21:35:42	336204	62740a242f1f9493b90e351c	902254557	1	main_slash	7	main_slash	121	stimuli_target_diamondcircles.svg	stimuli_distractor_diamondtriangles.svg	23	yes	53	1	579
6.6.1	win	2022-12-20	21:30:03	21:35:42	336204	62740a242f1f9493b90e351c	902254557	1	main_slash	7	advance_on_keypress_SLASH	122	stimuli_target_diamondcircles.svg	stimuli_distractor_diamondtriangles.svg	23	yes	57	0	162
6.6.1	win	2022-12-20	21:30:03	21:35:43	337417	62740a242f1f9493b90e351c	902254557	1	main_slash	7	main_slash	123	stimuli_distractor_trianglediamonds.svg	stimuli_target_diamondcircles.svg	27	yes	53	1	392
6.6.1	win	2022-12-20	21:30:03	21:35:43	337417	62740a242f1f9493b90e351c	902254557	1	main_slash	7	advance_on_keypress_SLASH	124	stimuli_distractor_trianglediamonds.svg	stimuli_target_diamondcircles.svg	27	yes	57	0	199
6.6.1	win	2022-12-20	21:30:03	21:35:45	338765	62740a242f1f9493b90e351c	902254557	1	main_slash	7	main_slash	125	stimuli_distractor_diamondtriangles.svg	stimuli_target_circletriangles.svg	13	yes	53	1	509
6.6.1	win	2022-12-20	21:30:03	21:35:45	338765	62740a242f1f9493b90e351c	902254557	1	main_slash	7	advance_on_keypress_SLASH	126	stimuli_distractor_diamondtriangles.svg	stimuli_target_circletriangles.svg	13	yes	57	0	179
6.6.1	win	2022-12-20	21:30:03	21:35:46	339971	62740a242f1f9493b90e351c	902254557	1	main_slash	7	main_slash	127	stimuli_target_circlediamonds.svg	stimuli_distractor_diamondtriangles.svg	6	yes	53	1	380
6.6.1	win	2022-12-20	21:30:03	21:35:46	339971	62740a242f1f9493b90e351c	902254557	1	main_slash	7	advance_on_keypress_SLASH	128	stimuli_target_circlediamonds.svg	stimuli_distractor_diamondtriangles.svg	6	yes	57	0	246
6.6.1	win	2022-12-20	21:30:03	21:35:47	341250	62740a242f1f9493b90e351c	902254557	1	main_slash	7	main_slash	129	stimuli_target_trianglecircles.svg	stimuli_distractor_diamondtriangles.svg	21	yes	53	1	375
6.6.1	win	2022-12-20	21:30:03	21:35:47	341250	62740a242f1f9493b90e351c	902254557	1	main_slash	7	advance_on_keypress_SLASH	130	stimuli_target_trianglecircles.svg	stimuli_distractor_diamondtriangles.svg	21	yes	57	0	304
6.6.1	win	2022-12-20	21:30:03	21:35:50	344190	62740a242f1f9493b90e351c	902254557	1	main_slash	7	main_slash	131	stimuli_distractor_trianglediamonds.svg	stimuli_distractor_diamondtriangles.svg	36	no	0	1	2000
6.6.1	win	2022-12-20	21:30:03	21:35:50	344190	62740a242f1f9493b90e351c	902254557	1	main_slash	7	advance_on_keypress_SLASH	132	stimuli_distractor_trianglediamonds.svg	stimuli_distractor_diamondtriangles.svg	36	no	57	0	592
6.6.1	win	2022-12-20	21:30:03	21:35:52	345855	62740a242f1f9493b90e351c	902254557	1	main_slash	7	main_slash	133	stimuli_target_squaretriangles.svg	stimuli_distractor_trianglediamonds.svg	3	yes	53	1	430
6.6.1	win	2022-12-20	21:30:03	21:35:52	345855	62740a242f1f9493b90e351c	902254557	1	main_slash	7	advance_on_keypress_SLASH	134	stimuli_target_squaretriangles.svg	stimuli_distractor_trianglediamonds.svg	3	yes	57	0	248
6.6.1	win	2022-12-20	21:30:03	21:35:53	347157	62740a242f1f9493b90e351c	902254557	1	main_slash	7	main_slash	135	stimuli_distractor_trianglediamonds.svg	stimuli_target_circlediamonds.svg	10	yes	53	1	400
6.6.1	win	2022-12-20	21:30:03	21:35:53	347157	62740a242f1f9493b90e351c	902254557	1	main_slash	7	advance_on_keypress_SLASH	136	stimuli_distractor_trianglediamonds.svg	stimuli_target_circlediamonds.svg	10	yes	57	0	181
6.6.1	win	2022-12-20	21:30:03	21:35:54	348299	62740a242f1f9493b90e351c	902254557	1	main_slash	7	main_slash	137	stimuli_distractor_diamondtriangles.svg	stimuli_target_diamondsquares.svg	32	yes	53	1	309
6.6.1	win	2022-12-20	21:30:03	21:35:54	348299	62740a242f1f9493b90e351c	902254557	1	main_slash	7	advance_on_keypress_SLASH	138	stimuli_distractor_diamondtriangles.svg	stimuli_target_diamondsquares.svg	32	yes	57	0	268
6.6.1	win	2022-12-20	21:30:03	21:35:56	350246	62740a242f1f9493b90e351c	902254557	1	main_slash	7	main_slash	139	stimuli_target_squaretriangles.svg	stimuli_distractor_diamondtriangles.svg	7	yes	53	1	1039
6.6.1	win	2022-12-20	21:30:03	21:35:56	350246	62740a242f1f9493b90e351c	902254557	1	main_slash	7	advance_on_keypress_SLASH	140	stimuli_target_squaretriangles.svg	stimuli_distractor_diamondtriangles.svg	7	yes	57	0	323
6.6.1	win	2022-12-20	21:30:03	21:35:57	351533	62740a242f1f9493b90e351c	902254557	1	main_slash	7	main_slash	141	stimuli_distractor_trianglediamonds.svg	stimuli_target_trianglesquares.svg	26	yes	53	1	325
6.6.1	win	2022-12-20	21:30:03	21:35:57	351533	62740a242f1f9493b90e351c	902254557	1	main_slash	7	advance_on_keypress_SLASH	142	stimuli_distractor_trianglediamonds.svg	stimuli_target_trianglesquares.svg	26	yes	57	0	217
6.6.1	win	2022-12-20	21:30:03	21:35:59	352776	62740a242f1f9493b90e351c	902254557	1	main_slash	7	main_slash	143	stimuli_distractor_trianglediamonds.svg	stimuli_target_circletriangles.svg	9	yes	53	1	387
6.6.1	win	2022-12-20	21:30:03	21:35:59	352776	62740a242f1f9493b90e351c	902254557	1	main_slash	7	advance_on_keypress_SLASH	144	stimuli_distractor_trianglediamonds.svg	stimuli_target_circletriangles.svg	9	yes	57	0	273
6.6.1	win	2022-12-20	21:30:03	21:36:00	353997	62740a242f1f9493b90e351c	902254557	1	main_slash	7	main_slash	145	stimuli_distractor_trianglediamonds.svg	stimuli_distractor_trianglediamonds.svg	33	no	53	0	307
6.6.1	win	2022-12-20	21:30:03	21:36:00	353997	62740a242f1f9493b90e351c	902254557	1	main_slash	7	advance_on_keypress_SLASH	146	stimuli_distractor_trianglediamonds.svg	stimuli_distractor_trianglediamonds.svg	33	no	57	0	452
6.6.1	win	2022-12-20	21:30:03	21:36:01	355562	62740a242f1f9493b90e351c	902254557	1	main_slash	7	main_slash	147	stimuli_distractor_diamondtriangles.svg	stimuli_target_squarediamonds.svg	16	yes	53	1	472
6.6.1	win	2022-12-20	21:30:03	21:36:01	355562	62740a242f1f9493b90e351c	902254557	1	main_slash	7	advance_on_keypress_SLASH	148	stimuli_distractor_diamondtriangles.svg	stimuli_target_squarediamonds.svg	16	yes	57	0	267
6.6.1	win	2022-12-20	21:30:03	21:36:04	358474	62740a242f1f9493b90e351c	902254557	1	main_slash	7	main_slash	149	stimuli_distractor_diamondtriangles.svg	stimuli_distractor_diamondtriangles.svg	40	no	0	1	2000
6.6.1	win	2022-12-20	21:30:03	21:36:04	358474	62740a242f1f9493b90e351c	902254557	1	main_slash	7	advance_on_keypress_SLASH	150	stimuli_distractor_diamondtriangles.svg	stimuli_distractor_diamondtriangles.svg	40	no	57	0	447
6.6.1	win	2022-12-20	21:30:03	21:36:06	359981	62740a242f1f9493b90e351c	902254557	1	main_slash	7	main_slash	151	stimuli_distractor_diamondtriangles.svg	stimuli_target_diamondcircles.svg	31	yes	53	1	408
6.6.1	win	2022-12-20	21:30:03	21:36:06	359981	62740a242f1f9493b90e351c	902254557	1	main_slash	7	advance_on_keypress_SLASH	152	stimuli_distractor_diamondtriangles.svg	stimuli_target_diamondcircles.svg	31	yes	57	0	177
6.6.1	win	2022-12-20	21:30:03	21:36:09	362790	62740a242f1f9493b90e351c	902254557	1	main_slash	7	main_slash	153	stimuli_distractor_trianglediamonds.svg	stimuli_distractor_trianglediamonds.svg	34	no	0	1	2000
6.6.1	win	2022-12-20	21:30:03	21:36:09	362790	62740a242f1f9493b90e351c	902254557	1	main_slash	7	advance_on_keypress_SLASH	154	stimuli_distractor_trianglediamonds.svg	stimuli_distractor_trianglediamonds.svg	34	no	57	0	256
6.6.1	win	2022-12-20	21:30:03	21:36:10	364150	62740a242f1f9493b90e351c	902254557	1	main_slash	7	main_slash	155	stimuli_target_squarediamonds.svg	stimuli_distractor_diamondtriangles.svg	8	yes	53	1	459
6.6.1	win	2022-12-20	21:30:03	21:36:10	364150	62740a242f1f9493b90e351c	902254557	1	main_slash	7	advance_on_keypress_SLASH	156	stimuli_target_squarediamonds.svg	stimuli_distractor_diamondtriangles.svg	8	yes	57	0	183
6.6.1	win	2022-12-20	21:30:03	21:36:12	365974	62740a242f1f9493b90e351c	902254557	1	main_slash	7	main_slash	157	stimuli_distractor_diamondtriangles.svg	stimuli_target_circlediamonds.svg	14	yes	53	1	1000
6.6.1	win	2022-12-20	21:30:03	21:36:12	365974	62740a242f1f9493b90e351c	902254557	1	main_slash	7	advance_on_keypress_SLASH	158	stimuli_distractor_diamondtriangles.svg	stimuli_target_circlediamonds.svg	14	yes	57	0	324
6.6.1	win	2022-12-20	21:30:03	21:36:13	367277	62740a242f1f9493b90e351c	902254557	1	main_slash	7	main_slash	159	stimuli_target_circletriangles.svg	stimuli_distractor_diamondtriangles.svg	5	yes	53	1	337
6.6.1	win	2022-12-20	21:30:03	21:36:13	367277	62740a242f1f9493b90e351c	902254557	1	main_slash	7	advance_on_keypress_SLASH	160	stimuli_target_circletriangles.svg	stimuli_distractor_diamondtriangles.svg	5	yes	57	0	199
6.6.1	win	2022-12-20	21:30:03	21:36:45	398961	62740a242f1f9493b90e351c	902254557	1	practice_z	9	practice_z	1	stimuli_distractor_trianglediamonds.svg	stimuli_distractor_trianglediamonds.svg	15	no	0	1	2000
6.6.1	win	2022-12-20	21:30:03	21:36:45	398961	62740a242f1f9493b90e351c	902254557	1	practice_z	9	advance_on_keypress_ZEE	2	stimuli_distractor_trianglediamonds.svg	stimuli_distractor_trianglediamonds.svg	15	no	57	0	606
6.6.1	win	2022-12-20	21:30:03	21:36:47	401570	62740a242f1f9493b90e351c	902254557	1	practice_z	9	practice_z	3	stimuli_target_circlediamonds.svg	stimuli_distractor_diamondtriangles.svg	1	yes	44	1	360
6.6.1	win	2022-12-20	21:30:03	21:36:47	401570	62740a242f1f9493b90e351c	902254557	1	practice_z	9	advance_on_keypress_ZEE	4	stimuli_target_circlediamonds.svg	stimuli_distractor_diamondtriangles.svg	1	yes	57	0	462
6.6.1	win	2022-12-20	21:30:03	21:36:50	404099	62740a242f1f9493b90e351c	902254557	1	practice_z	9	practice_z	5	stimuli_distractor_diamondtriangles.svg	stimuli_target_diamondcircles.svg	8	yes	44	1	406
6.6.1	win	2022-12-20	21:30:03	21:36:50	404099	62740a242f1f9493b90e351c	902254557	1	practice_z	9	advance_on_keypress_ZEE	6	stimuli_distractor_diamondtriangles.svg	stimuli_target_diamondcircles.svg	8	yes	57	0	465
6.6.1	win	2022-12-20	21:30:03	21:36:52	406596	62740a242f1f9493b90e351c	902254557	1	practice_z	9	practice_z	7	stimuli_target_diamondsquares.svg	stimuli_distractor_trianglediamonds.svg	6	yes	44	1	386
6.6.1	win	2022-12-20	21:30:03	21:36:52	406596	62740a242f1f9493b90e351c	902254557	1	practice_z	9	advance_on_keypress_ZEE	8	stimuli_target_diamondsquares.svg	stimuli_distractor_trianglediamonds.svg	6	yes	57	0	565
6.6.1	win	2022-12-20	21:30:03	21:36:55	409151	62740a242f1f9493b90e351c	902254557	1	practice_z	9	practice_z	9	stimuli_target_squarediamonds.svg	stimuli_distractor_diamondtriangles.svg	2	yes	44	1	341
6.6.1	win	2022-12-20	21:30:03	21:36:55	409151	62740a242f1f9493b90e351c	902254557	1	practice_z	9	advance_on_keypress_ZEE	10	stimuli_target_squarediamonds.svg	stimuli_distractor_diamondtriangles.svg	2	yes	57	0	670
6.6.1	win	2022-12-20	21:30:03	21:36:58	411919	62740a242f1f9493b90e351c	902254557	1	practice_z	9	practice_z	11	stimuli_distractor_diamondtriangles.svg	stimuli_target_circletriangles.svg	7	yes	44	1	459
6.6.1	win	2022-12-20	21:30:03	21:36:58	411919	62740a242f1f9493b90e351c	902254557	1	practice_z	9	advance_on_keypress_ZEE	12	stimuli_distractor_diamondtriangles.svg	stimuli_target_circletriangles.svg	7	yes	57	0	516
6.6.1	win	2022-12-20	21:30:03	21:37:02	416095	62740a242f1f9493b90e351c	902254557	1	practice_z	9	practice_z	13	stimuli_distractor_diamondtriangles.svg	stimuli_distractor_diamondtriangles.svg	13	no	0	1	2000
6.6.1	win	2022-12-20	21:30:03	21:37:02	416095	62740a242f1f9493b90e351c	902254557	1	practice_z	9	advance_on_keypress_ZEE	14	stimuli_distractor_diamondtriangles.svg	stimuli_distractor_diamondtriangles.svg	13	no	57	0	533
6.6.1	win	2022-12-20	21:30:03	21:37:05	418794	62740a242f1f9493b90e351c	902254557	1	practice_z	9	practice_z	15	stimuli_target_diamondsquares.svg	stimuli_distractor_diamondtriangles.svg	3	yes	44	1	518
6.6.1	win	2022-12-20	21:30:03	21:37:05	418794	62740a242f1f9493b90e351c	902254557	1	practice_z	9	advance_on_keypress_ZEE	16	stimuli_target_diamondsquares.svg	stimuli_distractor_diamondtriangles.svg	3	yes	57	0	464
6.6.1	win	2022-12-20	21:30:03	21:37:09	422910	62740a242f1f9493b90e351c	902254557	1	practice_z	9	practice_z	17	stimuli_distractor_diamondtriangles.svg	stimuli_distractor_trianglediamonds.svg	14	no	0	1	2000
6.6.1	win	2022-12-20	21:30:03	21:37:09	422910	62740a242f1f9493b90e351c	902254557	1	practice_z	9	advance_on_keypress_ZEE	18	stimuli_distractor_diamondtriangles.svg	stimuli_distractor_trianglediamonds.svg	14	no	57	0	495
6.6.1	win	2022-12-20	21:30:03	21:37:11	425518	62740a242f1f9493b90e351c	902254557	1	practice_z	9	practice_z	19	stimuli_distractor_trianglediamonds.svg	stimuli_distractor_diamondtriangles.svg	16	no	44	0	458
6.6.1	win	2022-12-20	21:30:03	21:37:11	425518	62740a242f1f9493b90e351c	902254557	1	practice_z	9	advance_on_keypress_ZEE	20	stimuli_distractor_trianglediamonds.svg	stimuli_distractor_diamondtriangles.svg	16	no	57	0	485
6.6.1	win	2022-12-20	21:30:03	21:37:15	429643	62740a242f1f9493b90e351c	902254557	1	practice_z	9	practice_z	21	stimuli_distractor_trianglediamonds.svg	stimuli_target_circlediamonds.svg	10	yes	0	0	2000
6.6.1	win	2022-12-20	21:30:03	21:37:15	429643	62740a242f1f9493b90e351c	902254557	1	practice_z	9	advance_on_keypress_ZEE	22	stimuli_distractor_trianglediamonds.svg	stimuli_target_circlediamonds.svg	10	yes	57	0	460
6.6.1	win	2022-12-20	21:30:03	21:37:18	432081	62740a242f1f9493b90e351c	902254557	1	practice_z	9	practice_z	23	stimuli_distractor_diamondtriangles.svg	stimuli_target_trianglecircles.svg	9	yes	44	1	338
6.6.1	win	2022-12-20	21:30:03	21:37:18	432081	62740a242f1f9493b90e351c	902254557	1	practice_z	9	advance_on_keypress_ZEE	24	stimuli_distractor_diamondtriangles.svg	stimuli_target_trianglecircles.svg	9	yes	57	0	435
6.6.1	win	2022-12-20	21:30:03	21:37:20	434489	62740a242f1f9493b90e351c	902254557	1	practice_z	9	practice_z	25	stimuli_distractor_trianglediamonds.svg	stimuli_target_diamondcircles.svg	12	yes	44	1	328
6.6.1	win	2022-12-20	21:30:03	21:37:20	434489	62740a242f1f9493b90e351c	902254557	1	practice_z	9	advance_on_keypress_ZEE	26	stimuli_distractor_trianglediamonds.svg	stimuli_target_diamondcircles.svg	12	yes	57	0	511
6.6.1	win	2022-12-20	21:30:03	21:37:23	437002	62740a242f1f9493b90e351c	902254557	1	practice_z	9	practice_z	27	stimuli_distractor_trianglediamonds.svg	stimuli_target_squarediamonds.svg	11	yes	44	1	342
6.6.1	win	2022-12-20	21:30:03	21:37:23	437002	62740a242f1f9493b90e351c	902254557	1	practice_z	9	advance_on_keypress_ZEE	28	stimuli_distractor_trianglediamonds.svg	stimuli_target_squarediamonds.svg	11	yes	57	0	467
6.6.1	win	2022-12-20	21:30:03	21:37:25	439493	62740a242f1f9493b90e351c	902254557	1	practice_z	9	practice_z	29	stimuli_target_squarediamonds.svg	stimuli_distractor_trianglediamonds.svg	5	yes	44	1	365
6.6.1	win	2022-12-20	21:30:03	21:37:25	439493	62740a242f1f9493b90e351c	902254557	1	practice_z	9	advance_on_keypress_ZEE	30	stimuli_target_squarediamonds.svg	stimuli_distractor_trianglediamonds.svg	5	yes	57	0	691
6.6.1	win	2022-12-20	21:30:03	21:37:28	442312	62740a242f1f9493b90e351c	902254557	1	practice_z	9	practice_z	31	stimuli_target_circlediamonds.svg	stimuli_distractor_trianglediamonds.svg	4	yes	44	1	485
6.6.1	win	2022-12-20	21:30:03	21:37:28	442312	62740a242f1f9493b90e351c	902254557	1	practice_z	9	advance_on_keypress_ZEE	32	stimuli_target_circlediamonds.svg	stimuli_distractor_trianglediamonds.svg	4	yes	57	0	580
6.6.1	win	2022-12-20	21:30:03	21:37:37	450991	62740a242f1f9493b90e351c	902254557	1	main_z	11	main_z	1	stimuli_distractor_diamondtriangles.svg	stimuli_distractor_diamondtriangles.svg	40	no	0	1	2000
6.6.1	win	2022-12-20	21:30:03	21:37:37	450991	62740a242f1f9493b90e351c	902254557	1	main_z	11	advance_on_keypress_ZEE	2	stimuli_distractor_diamondtriangles.svg	stimuli_distractor_diamondtriangles.svg	40	no	57	0	426
6.6.1	win	2022-12-20	21:30:03	21:37:38	452509	62740a242f1f9493b90e351c	902254557	1	main_z	11	main_z	3	stimuli_distractor_diamondtriangles.svg	stimuli_target_diamondcircles.svg	31	yes	44	1	451
6.6.1	win	2022-12-20	21:30:03	21:37:38	452509	62740a242f1f9493b90e351c	902254557	1	main_z	11	advance_on_keypress_ZEE	4	stimuli_distractor_diamondtriangles.svg	stimuli_target_diamondcircles.svg	31	yes	57	0	779
6.6.1	win	2022-12-20	21:30:03	21:37:40	454292	62740a242f1f9493b90e351c	902254557	1	main_z	11	main_z	5	stimuli_target_circlediamonds.svg	stimuli_distractor_trianglediamonds.svg	2	yes	44	1	350
6.6.1	win	2022-12-20	21:30:03	21:37:40	454292	62740a242f1f9493b90e351c	902254557	1	main_z	11	advance_on_keypress_ZEE	6	stimuli_target_circlediamonds.svg	stimuli_distractor_trianglediamonds.svg	2	yes	57	0	603
6.6.1	win	2022-12-20	21:30:03	21:37:42	455918	62740a242f1f9493b90e351c	902254557	1	main_z	11	main_z	7	stimuli_target_trianglecircles.svg	stimuli_distractor_trianglediamonds.svg	17	yes	44	1	378
6.6.1	win	2022-12-20	21:30:03	21:37:42	455918	62740a242f1f9493b90e351c	902254557	1	main_z	11	advance_on_keypress_ZEE	8	stimuli_target_trianglecircles.svg	stimuli_distractor_trianglediamonds.svg	17	yes	57	0	435
6.6.1	win	2022-12-20	21:30:03	21:37:43	457357	62740a242f1f9493b90e351c	902254557	1	main_z	11	main_z	9	stimuli_target_squaretriangles.svg	stimuli_distractor_diamondtriangles.svg	7	yes	44	1	366
6.6.1	win	2022-12-20	21:30:03	21:37:43	457357	62740a242f1f9493b90e351c	902254557	1	main_z	11	advance_on_keypress_ZEE	10	stimuli_target_squaretriangles.svg	stimuli_distractor_diamondtriangles.svg	7	yes	57	0	514
6.6.1	win	2022-12-20	21:30:03	21:37:45	458898	62740a242f1f9493b90e351c	902254557	1	main_z	11	main_z	11	stimuli_target_squaretriangles.svg	stimuli_distractor_trianglediamonds.svg	3	yes	44	1	373
6.6.1	win	2022-12-20	21:30:03	21:37:45	458898	62740a242f1f9493b90e351c	902254557	1	main_z	11	advance_on_keypress_ZEE	12	stimuli_target_squaretriangles.svg	stimuli_distractor_trianglediamonds.svg	3	yes	57	0	377
6.6.1	win	2022-12-20	21:30:03	21:37:46	460223	62740a242f1f9493b90e351c	902254557	1	main_z	11	main_z	13	stimuli_target_squarediamonds.svg	stimuli_distractor_trianglediamonds.svg	4	yes	44	1	317
6.6.1	win	2022-12-20	21:30:03	21:37:46	460223	62740a242f1f9493b90e351c	902254557	1	main_z	11	advance_on_keypress_ZEE	14	stimuli_target_squarediamonds.svg	stimuli_distractor_trianglediamonds.svg	4	yes	57	0	502
6.6.1	win	2022-12-20	21:30:03	21:37:47	461646	62740a242f1f9493b90e351c	902254557	1	main_z	11	main_z	15	stimuli_distractor_diamondtriangles.svg	stimuli_target_trianglecircles.svg	29	yes	44	1	272
6.6.1	win	2022-12-20	21:30:03	21:37:47	461646	62740a242f1f9493b90e351c	902254557	1	main_z	11	advance_on_keypress_ZEE	16	stimuli_distractor_diamondtriangles.svg	stimuli_target_trianglecircles.svg	29	yes	57	0	429
6.6.1	win	2022-12-20	21:30:03	21:37:49	462938	62740a242f1f9493b90e351c	902254557	1	main_z	11	main_z	17	stimuli_distractor_diamondtriangles.svg	stimuli_distractor_trianglediamonds.svg	38	no	44	0	215
6.6.1	win	2022-12-20	21:30:03	21:37:49	462938	62740a242f1f9493b90e351c	902254557	1	main_z	11	advance_on_keypress_ZEE	18	stimuli_distractor_diamondtriangles.svg	stimuli_distractor_trianglediamonds.svg	38	no	57	0	432
6.6.1	win	2022-12-20	21:30:03	21:37:51	464999	62740a242f1f9493b90e351c	902254557	1	main_z	11	main_z	19	stimuli_distractor_diamondtriangles.svg	stimuli_target_squaretriangles.svg	15	yes	44	1	975
6.6.1	win	2022-12-20	21:30:03	21:37:51	464999	62740a242f1f9493b90e351c	902254557	1	main_z	11	advance_on_keypress_ZEE	20	stimuli_distractor_diamondtriangles.svg	stimuli_target_squaretriangles.svg	15	yes	57	0	397
6.6.1	win	2022-12-20	21:30:03	21:37:52	466380	62740a242f1f9493b90e351c	902254557	1	main_z	11	main_z	21	stimuli_target_circletriangles.svg	stimuli_distractor_trianglediamonds.svg	1	yes	44	1	340
6.6.1	win	2022-12-20	21:30:03	21:37:52	466380	62740a242f1f9493b90e351c	902254557	1	main_z	11	advance_on_keypress_ZEE	22	stimuli_target_circletriangles.svg	stimuli_distractor_trianglediamonds.svg	1	yes	57	0	335
6.6.1	win	2022-12-20	21:30:03	21:37:54	467766	62740a242f1f9493b90e351c	902254557	1	main_z	11	main_z	23	stimuli_target_circletriangles.svg	stimuli_distractor_diamondtriangles.svg	5	yes	44	1	410
6.6.1	win	2022-12-20	21:30:03	21:37:54	467766	62740a242f1f9493b90e351c	902254557	1	main_z	11	advance_on_keypress_ZEE	24	stimuli_target_circletriangles.svg	stimuli_distractor_diamondtriangles.svg	5	yes	57	0	350
6.6.1	win	2022-12-20	21:30:03	21:37:55	469102	62740a242f1f9493b90e351c	902254557	1	main_z	11	main_z	25	stimuli_distractor_trianglediamonds.svg	stimuli_target_diamondcircles.svg	27	yes	44	1	344
6.6.1	win	2022-12-20	21:30:03	21:37:55	469102	62740a242f1f9493b90e351c	902254557	1	main_z	11	advance_on_keypress_ZEE	26	stimuli_distractor_trianglediamonds.svg	stimuli_target_diamondcircles.svg	27	yes	57	0	328
6.6.1	win	2022-12-20	21:30:03	21:37:56	470411	62740a242f1f9493b90e351c	902254557	1	main_z	11	main_z	27	stimuli_target_diamondcircles.svg	stimuli_distractor_trianglediamonds.svg	19	yes	44	1	337
6.6.1	win	2022-12-20	21:30:03	21:37:56	470411	62740a242f1f9493b90e351c	902254557	1	main_z	11	advance_on_keypress_ZEE	28	stimuli_target_diamondcircles.svg	stimuli_distractor_trianglediamonds.svg	19	yes	57	0	295
6.6.1	win	2022-12-20	21:30:03	21:37:59	473357	62740a242f1f9493b90e351c	902254557	1	main_z	11	main_z	29	stimuli_distractor_trianglediamonds.svg	stimuli_distractor_trianglediamonds.svg	34	no	0	1	2000
6.6.1	win	2022-12-20	21:30:03	21:37:59	473357	62740a242f1f9493b90e351c	902254557	1	main_z	11	advance_on_keypress_ZEE	30	stimuli_distractor_trianglediamonds.svg	stimuli_distractor_trianglediamonds.svg	34	no	57	0	307
6.6.1	win	2022-12-20	21:30:03	21:38:02	476308	62740a242f1f9493b90e351c	902254557	1	main_z	11	main_z	31	stimuli_distractor_trianglediamonds.svg	stimuli_distractor_diamondtriangles.svg	35	no	0	1	2000
6.6.1	win	2022-12-20	21:30:03	21:38:02	476308	62740a242f1f9493b90e351c	902254557	1	main_z	11	advance_on_keypress_ZEE	32	stimuli_distractor_trianglediamonds.svg	stimuli_distractor_diamondtriangles.svg	35	no	57	0	507
6.6.1	win	2022-12-20	21:30:03	21:38:04	477775	62740a242f1f9493b90e351c	902254557	1	main_z	11	main_z	33	stimuli_distractor_trianglediamonds.svg	stimuli_target_diamondsquares.svg	28	yes	44	1	317
6.6.1	win	2022-12-20	21:30:03	21:38:04	477775	62740a242f1f9493b90e351c	902254557	1	main_z	11	advance_on_keypress_ZEE	34	stimuli_distractor_trianglediamonds.svg	stimuli_target_diamondsquares.svg	28	yes	57	0	248
6.6.1	win	2022-12-20	21:30:03	21:38:05	479063	62740a242f1f9493b90e351c	902254557	1	main_z	11	main_z	35	stimuli_distractor_diamondtriangles.svg	stimuli_distractor_trianglediamonds.svg	37	no	44	0	389
6.6.1	win	2022-12-20	21:30:03	21:38:05	479063	62740a242f1f9493b90e351c	902254557	1	main_z	11	advance_on_keypress_ZEE	36	stimuli_distractor_diamondtriangles.svg	stimuli_distractor_trianglediamonds.svg	37	no	57	0	568
6.6.1	win	2022-12-20	21:30:03	21:38:07	480759	62740a242f1f9493b90e351c	902254557	1	main_z	11	main_z	37	stimuli_distractor_diamondtriangles.svg	stimuli_target_squarediamonds.svg	16	yes	44	1	483
6.6.1	win	2022-12-20	21:30:03	21:38:07	480759	62740a242f1f9493b90e351c	902254557	1	main_z	11	advance_on_keypress_ZEE	38	stimuli_distractor_diamondtriangles.svg	stimuli_target_squarediamonds.svg	16	yes	57	0	254
6.6.1	win	2022-12-20	21:30:03	21:38:09	483656	62740a242f1f9493b90e351c	902254557	1	main_z	11	main_z	39	stimuli_distractor_trianglediamonds.svg	stimuli_distractor_diamondtriangles.svg	36	no	0	1	2000
6.6.1	win	2022-12-20	21:30:03	21:38:09	483656	62740a242f1f9493b90e351c	902254557	1	main_z	11	advance_on_keypress_ZEE	40	stimuli_distractor_trianglediamonds.svg	stimuli_distractor_diamondtriangles.svg	36	no	57	0	653
6.6.1	win	2022-12-20	21:30:03	21:38:11	485467	62740a242f1f9493b90e351c	902254557	1	main_z	11	main_z	41	stimuli_target_trianglesquares.svg	stimuli_distractor_trianglediamonds.svg	18	yes	44	1	510
6.6.1	win	2022-12-20	21:30:03	21:38:11	485467	62740a242f1f9493b90e351c	902254557	1	main_z	11	advance_on_keypress_ZEE	42	stimuli_target_trianglesquares.svg	stimuli_distractor_trianglediamonds.svg	18	yes	57	0	244
6.6.1	win	2022-12-20	21:30:03	21:38:12	486736	62740a242f1f9493b90e351c	902254557	1	main_z	11	main_z	43	stimuli_distractor_diamondtriangles.svg	stimuli_target_trianglesquares.svg	30	yes	44	1	396
6.6.1	win	2022-12-20	21:30:03	21:38:12	486736	62740a242f1f9493b90e351c	902254557	1	main_z	11	advance_on_keypress_ZEE	44	stimuli_distractor_diamondtriangles.svg	stimuli_target_trianglesquares.svg	30	yes	57	0	296
6.6.1	win	2022-12-20	21:30:03	21:38:14	488068	62740a242f1f9493b90e351c	902254557	1	main_z	11	main_z	45	stimuli_target_diamondsquares.svg	stimuli_distractor_diamondtriangles.svg	24	yes	44	1	379
6.6.1	win	2022-12-20	21:30:03	21:38:14	488068	62740a242f1f9493b90e351c	902254557	1	main_z	11	advance_on_keypress_ZEE	46	stimuli_target_diamondsquares.svg	stimuli_distractor_diamondtriangles.svg	24	yes	57	0	231
6.6.1	win	2022-12-20	21:30:03	21:38:17	490940	62740a242f1f9493b90e351c	902254557	1	main_z	11	main_z	47	stimuli_distractor_trianglediamonds.svg	stimuli_distractor_trianglediamonds.svg	33	no	0	1	2000
6.6.1	win	2022-12-20	21:30:03	21:38:17	490940	62740a242f1f9493b90e351c	902254557	1	main_z	11	advance_on_keypress_ZEE	48	stimuli_distractor_trianglediamonds.svg	stimuli_distractor_trianglediamonds.svg	33	no	57	0	278
6.6.1	win	2022-12-20	21:30:03	21:38:18	492166	62740a242f1f9493b90e351c	902254557	1	main_z	11	main_z	49	stimuli_distractor_diamondtriangles.svg	stimuli_target_circlediamonds.svg	14	yes	44	1	309
6.6.1	win	2022-12-20	21:30:03	21:38:18	492166	62740a242f1f9493b90e351c	902254557	1	main_z	11	advance_on_keypress_ZEE	50	stimuli_distractor_diamondtriangles.svg	stimuli_target_circlediamonds.svg	14	yes	57	0	178
6.6.1	win	2022-12-20	21:30:03	21:38:19	493385	62740a242f1f9493b90e351c	902254557	1	main_z	11	main_z	51	stimuli_distractor_trianglediamonds.svg	stimuli_target_squaretriangles.svg	11	yes	44	1	395
6.6.1	win	2022-12-20	21:30:03	21:38:19	493385	62740a242f1f9493b90e351c	902254557	1	main_z	11	advance_on_keypress_ZEE	52	stimuli_distractor_trianglediamonds.svg	stimuli_target_squaretriangles.svg	11	yes	57	0	190
6.6.1	win	2022-12-20	21:30:03	21:38:20	494547	62740a242f1f9493b90e351c	902254557	1	main_z	11	main_z	53	stimuli_distractor_trianglediamonds.svg	stimuli_target_circletriangles.svg	9	yes	44	1	324
6.6.1	win	2022-12-20	21:30:03	21:38:20	494547	62740a242f1f9493b90e351c	902254557	1	main_z	11	advance_on_keypress_ZEE	54	stimuli_distractor_trianglediamonds.svg	stimuli_target_circletriangles.svg	9	yes	57	0	240
6.6.1	win	2022-12-20	21:30:03	21:38:21	495639	62740a242f1f9493b90e351c	902254557	1	main_z	11	main_z	55	stimuli_target_circlediamonds.svg	stimuli_distractor_diamondtriangles.svg	6	yes	44	1	216
6.6.1	win	2022-12-20	21:30:03	21:38:21	495639	62740a242f1f9493b90e351c	902254557	1	main_z	11	advance_on_keypress_ZEE	56	stimuli_target_circlediamonds.svg	stimuli_distractor_diamondtriangles.svg	6	yes	57	0	431
6.6.1	win	2022-12-20	21:30:03	21:38:23	496931	62740a242f1f9493b90e351c	902254557	1	main_z	11	main_z	57	stimuli_distractor_diamondtriangles.svg	stimuli_distractor_diamondtriangles.svg	39	no	44	0	208
6.6.1	win	2022-12-20	21:30:03	21:38:23	496931	62740a242f1f9493b90e351c	902254557	1	main_z	11	advance_on_keypress_ZEE	58	stimuli_distractor_diamondtriangles.svg	stimuli_distractor_diamondtriangles.svg	39	no	57	0	321
6.6.1	win	2022-12-20	21:30:03	21:38:24	498652	62740a242f1f9493b90e351c	902254557	1	main_z	11	main_z	59	stimuli_distractor_trianglediamonds.svg	stimuli_target_squarediamonds.svg	12	yes	44	1	761
6.6.1	win	2022-12-20	21:30:03	21:38:24	498652	62740a242f1f9493b90e351c	902254557	1	main_z	11	advance_on_keypress_ZEE	60	stimuli_distractor_trianglediamonds.svg	stimuli_target_squarediamonds.svg	12	yes	57	0	203
6.6.1	win	2022-12-20	21:30:03	21:38:26	500481	62740a242f1f9493b90e351c	902254557	1	main_z	11	main_z	61	stimuli_distractor_diamondtriangles.svg	stimuli_target_diamondsquares.svg	32	yes	44	1	974
6.6.1	win	2022-12-20	21:30:03	21:38:26	500481	62740a242f1f9493b90e351c	902254557	1	main_z	11	advance_on_keypress_ZEE	62	stimuli_distractor_diamondtriangles.svg	stimuli_target_diamondsquares.svg	32	yes	57	0	300
6.6.1	win	2022-12-20	21:30:03	21:38:28	501863	62740a242f1f9493b90e351c	902254557	1	main_z	11	main_z	63	stimuli_distractor_trianglediamonds.svg	stimuli_target_trianglecircles.svg	25	yes	44	1	439
6.6.1	win	2022-12-20	21:30:03	21:38:28	501863	62740a242f1f9493b90e351c	902254557	1	main_z	11	advance_on_keypress_ZEE	64	stimuli_distractor_trianglediamonds.svg	stimuli_target_trianglecircles.svg	25	yes	57	0	303
6.6.1	win	2022-12-20	21:30:03	21:38:29	503145	62740a242f1f9493b90e351c	902254557	1	main_z	11	main_z	65	stimuli_distractor_trianglediamonds.svg	stimuli_target_circlediamonds.svg	10	yes	44	1	338
6.6.1	win	2022-12-20	21:30:03	21:38:29	503145	62740a242f1f9493b90e351c	902254557	1	main_z	11	advance_on_keypress_ZEE	66	stimuli_distractor_trianglediamonds.svg	stimuli_target_circlediamonds.svg	10	yes	57	0	237
6.6.1	win	2022-12-20	21:30:03	21:38:30	504355	62740a242f1f9493b90e351c	902254557	1	main_z	11	main_z	67	stimuli_distractor_trianglediamonds.svg	stimuli_target_trianglesquares.svg	26	yes	44	1	331
6.6.1	win	2022-12-20	21:30:03	21:38:30	504355	62740a242f1f9493b90e351c	902254557	1	main_z	11	advance_on_keypress_ZEE	68	stimuli_distractor_trianglediamonds.svg	stimuli_target_trianglesquares.svg	26	yes	57	0	298
6.6.1	win	2022-12-20	21:30:03	21:38:31	505652	62740a242f1f9493b90e351c	902254557	1	main_z	11	main_z	69	stimuli_target_diamondsquares.svg	stimuli_distractor_trianglediamonds.svg	20	yes	44	1	346
6.6.1	win	2022-12-20	21:30:03	21:38:31	505652	62740a242f1f9493b90e351c	902254557	1	main_z	11	advance_on_keypress_ZEE	70	stimuli_target_diamondsquares.svg	stimuli_distractor_trianglediamonds.svg	20	yes	57	0	203
6.6.1	win	2022-12-20	21:30:03	21:38:33	506761	62740a242f1f9493b90e351c	902254557	1	main_z	11	main_z	71	stimuli_target_trianglecircles.svg	stimuli_distractor_diamondtriangles.svg	21	yes	44	1	255
6.6.1	win	2022-12-20	21:30:03	21:38:33	506761	62740a242f1f9493b90e351c	902254557	1	main_z	11	advance_on_keypress_ZEE	72	stimuli_target_trianglecircles.svg	stimuli_distractor_diamondtriangles.svg	21	yes	57	0	233
6.6.1	win	2022-12-20	21:30:03	21:38:34	507893	62740a242f1f9493b90e351c	902254557	1	main_z	11	main_z	73	stimuli_target_squarediamonds.svg	stimuli_distractor_diamondtriangles.svg	8	yes	44	1	252
6.6.1	win	2022-12-20	21:30:03	21:38:34	507893	62740a242f1f9493b90e351c	902254557	1	main_z	11	advance_on_keypress_ZEE	74	stimuli_target_squarediamonds.svg	stimuli_distractor_diamondtriangles.svg	8	yes	57	0	191
6.6.1	win	2022-12-20	21:30:03	21:38:35	508752	62740a242f1f9493b90e351c	902254557	1	main_z	11	main_z	75	stimuli_target_diamondcircles.svg	stimuli_distractor_diamondtriangles.svg	23	yes	44	1	30
6.6.1	win	2022-12-20	21:30:03	21:38:35	508752	62740a242f1f9493b90e351c	902254557	1	main_z	11	advance_on_keypress_ZEE	76	stimuli_target_diamondcircles.svg	stimuli_distractor_diamondtriangles.svg	23	yes	57	0	325
6.6.1	win	2022-12-20	21:30:03	21:38:36	509980	62740a242f1f9493b90e351c	902254557	1	main_z	11	main_z	77	stimuli_target_trianglesquares.svg	stimuli_distractor_diamondtriangles.svg	22	yes	44	1	256
6.6.1	win	2022-12-20	21:30:03	21:38:36	509980	62740a242f1f9493b90e351c	902254557	1	main_z	11	advance_on_keypress_ZEE	78	stimuli_target_trianglesquares.svg	stimuli_distractor_diamondtriangles.svg	22	yes	57	0	166
6.6.1	win	2022-12-20	21:30:03	21:38:37	511040	62740a242f1f9493b90e351c	902254557	1	main_z	11	main_z	79	stimuli_distractor_diamondtriangles.svg	stimuli_target_circletriangles.svg	13	yes	44	1	249
6.6.1	win	2022-12-20	21:30:03	21:38:37	511040	62740a242f1f9493b90e351c	902254557	1	main_z	11	advance_on_keypress_ZEE	80	stimuli_distractor_diamondtriangles.svg	stimuli_target_circletriangles.svg	13	yes	57	0	140
6.6.1	win	2022-12-20	21:30:03	21:38:38	512109	62740a242f1f9493b90e351c	902254557	1	main_z	11	main_z	81	stimuli_target_squaretriangles.svg	stimuli_distractor_trianglediamonds.svg	3	yes	44	1	285
6.6.1	win	2022-12-20	21:30:03	21:38:38	512109	62740a242f1f9493b90e351c	902254557	1	main_z	11	advance_on_keypress_ZEE	82	stimuli_target_squaretriangles.svg	stimuli_distractor_trianglediamonds.svg	3	yes	57	0	187
6.6.1	win	2022-12-20	21:30:03	21:38:39	513213	62740a242f1f9493b90e351c	902254557	1	main_z	11	main_z	83	stimuli_distractor_diamondtriangles.svg	stimuli_distractor_trianglediamonds.svg	38	no	44	0	272
6.6.1	win	2022-12-20	21:30:03	21:38:39	513213	62740a242f1f9493b90e351c	902254557	1	main_z	11	advance_on_keypress_ZEE	84	stimuli_distractor_diamondtriangles.svg	stimuli_distractor_trianglediamonds.svg	38	no	57	0	148
6.6.1	win	2022-12-20	21:30:03	21:38:40	514500	62740a242f1f9493b90e351c	902254557	1	main_z	11	main_z	85	stimuli_distractor_diamondtriangles.svg	stimuli_target_diamondsquares.svg	32	yes	44	1	492
6.6.1	win	2022-12-20	21:30:03	21:38:40	514500	62740a242f1f9493b90e351c	902254557	1	main_z	11	advance_on_keypress_ZEE	86	stimuli_distractor_diamondtriangles.svg	stimuli_target_diamondsquares.svg	32	yes	57	0	179
6.6.1	win	2022-12-20	21:30:03	21:38:42	515746	62740a242f1f9493b90e351c	902254557	1	main_z	11	main_z	87	stimuli_distractor_diamondtriangles.svg	stimuli_target_squarediamonds.svg	16	yes	44	1	422
6.6.1	win	2022-12-20	21:30:03	21:38:42	515746	62740a242f1f9493b90e351c	902254557	1	main_z	11	advance_on_keypress_ZEE	88	stimuli_distractor_diamondtriangles.svg	stimuli_target_squarediamonds.svg	16	yes	57	0	249
6.6.1	win	2022-12-20	21:30:03	21:38:43	516953	62740a242f1f9493b90e351c	902254557	1	main_z	11	main_z	89	stimuli_target_circletriangles.svg	stimuli_distractor_diamondtriangles.svg	5	yes	44	1	312
6.6.1	win	2022-12-20	21:30:03	21:38:43	516953	62740a242f1f9493b90e351c	902254557	1	main_z	11	advance_on_keypress_ZEE	90	stimuli_target_circletriangles.svg	stimuli_distractor_diamondtriangles.svg	5	yes	57	0	165
6.6.1	win	2022-12-20	21:30:03	21:38:44	518111	62740a242f1f9493b90e351c	902254557	1	main_z	11	main_z	91	stimuli_distractor_diamondtriangles.svg	stimuli_distractor_diamondtriangles.svg	40	no	44	0	338
6.6.1	win	2022-12-20	21:30:03	21:38:44	518111	62740a242f1f9493b90e351c	902254557	1	main_z	11	advance_on_keypress_ZEE	92	stimuli_distractor_diamondtriangles.svg	stimuli_distractor_diamondtriangles.svg	40	no	57	0	1026
6.6.1	win	2022-12-20	21:30:03	21:38:46	520283	62740a242f1f9493b90e351c	902254557	1	main_z	11	main_z	93	stimuli_distractor_trianglediamonds.svg	stimuli_target_diamondcircles.svg	27	yes	44	1	509
6.6.1	win	2022-12-20	21:30:03	21:38:46	520283	62740a242f1f9493b90e351c	902254557	1	main_z	11	advance_on_keypress_ZEE	94	stimuli_distractor_trianglediamonds.svg	stimuli_target_diamondcircles.svg	27	yes	57	0	207
6.6.1	win	2022-12-20	21:30:03	21:38:47	521422	62740a242f1f9493b90e351c	902254557	1	main_z	11	main_z	95	stimuli_distractor_diamondtriangles.svg	stimuli_target_trianglesquares.svg	30	yes	44	1	299
6.6.1	win	2022-12-20	21:30:03	21:38:47	521422	62740a242f1f9493b90e351c	902254557	1	main_z	11	advance_on_keypress_ZEE	96	stimuli_distractor_diamondtriangles.svg	stimuli_target_trianglesquares.svg	30	yes	57	0	149
6.6.1	win	2022-12-20	21:30:03	21:38:48	522560	62740a242f1f9493b90e351c	902254557	1	main_z	11	main_z	97	stimuli_distractor_trianglediamonds.svg	stimuli_distractor_diamondtriangles.svg	35	no	44	0	337
6.6.1	win	2022-12-20	21:30:03	21:38:48	522560	62740a242f1f9493b90e351c	902254557	1	main_z	11	advance_on_keypress_ZEE	98	stimuli_distractor_trianglediamonds.svg	stimuli_distractor_diamondtriangles.svg	35	no	57	0	151
6.6.1	win	2022-12-20	21:30:03	21:38:49	523717	62740a242f1f9493b90e351c	902254557	1	main_z	11	main_z	99	stimuli_distractor_diamondtriangles.svg	stimuli_target_circletriangles.svg	13	yes	44	1	360
6.6.1	win	2022-12-20	21:30:03	21:38:49	523717	62740a242f1f9493b90e351c	902254557	1	main_z	11	advance_on_keypress_ZEE	100	stimuli_distractor_diamondtriangles.svg	stimuli_target_circletriangles.svg	13	yes	57	0	143
6.6.1	win	2022-12-20	21:30:03	21:38:51	524858	62740a242f1f9493b90e351c	902254557	1	main_z	11	main_z	101	stimuli_target_trianglecircles.svg	stimuli_distractor_trianglediamonds.svg	17	yes	44	1	334
6.6.1	win	2022-12-20	21:30:03	21:38:51	524858	62740a242f1f9493b90e351c	902254557	1	main_z	11	advance_on_keypress_ZEE	102	stimuli_target_trianglecircles.svg	stimuli_distractor_trianglediamonds.svg	17	yes	57	0	138
6.6.1	win	2022-12-20	21:30:03	21:38:52	525902	62740a242f1f9493b90e351c	902254557	1	main_z	11	main_z	103	stimuli_target_squarediamonds.svg	stimuli_distractor_diamondtriangles.svg	8	yes	44	1	261
6.6.1	win	2022-12-20	21:30:03	21:38:52	525902	62740a242f1f9493b90e351c	902254557	1	main_z	11	advance_on_keypress_ZEE	104	stimuli_target_squarediamonds.svg	stimuli_distractor_diamondtriangles.svg	8	yes	57	0	76
6.6.1	win	2022-12-20	21:30:03	21:38:53	526878	62740a242f1f9493b90e351c	902254557	1	main_z	11	main_z	105	stimuli_target_trianglecircles.svg	stimuli_distractor_diamondtriangles.svg	21	yes	44	1	254
6.6.1	win	2022-12-20	21:30:03	21:38:53	526878	62740a242f1f9493b90e351c	902254557	1	main_z	11	advance_on_keypress_ZEE	106	stimuli_target_trianglecircles.svg	stimuli_distractor_diamondtriangles.svg	21	yes	57	0	113
6.6.1	win	2022-12-20	21:30:03	21:38:54	527905	62740a242f1f9493b90e351c	902254557	1	main_z	11	main_z	107	stimuli_target_diamondcircles.svg	stimuli_distractor_trianglediamonds.svg	19	yes	44	1	264
6.6.1	win	2022-12-20	21:30:03	21:38:54	527905	62740a242f1f9493b90e351c	902254557	1	main_z	11	advance_on_keypress_ZEE	108	stimuli_target_diamondcircles.svg	stimuli_distractor_trianglediamonds.svg	19	yes	57	0	70
6.6.1	win	2022-12-20	21:30:03	21:38:55	528919	62740a242f1f9493b90e351c	902254557	1	main_z	11	main_z	109	stimuli_target_circletriangles.svg	stimuli_distractor_trianglediamonds.svg	1	yes	44	1	296
6.6.1	win	2022-12-20	21:30:03	21:38:55	528919	62740a242f1f9493b90e351c	902254557	1	main_z	11	advance_on_keypress_ZEE	110	stimuli_target_circletriangles.svg	stimuli_distractor_trianglediamonds.svg	1	yes	57	0	87
6.6.1	win	2022-12-20	21:30:03	21:38:56	529901	62740a242f1f9493b90e351c	902254557	1	main_z	11	main_z	111	stimuli_distractor_trianglediamonds.svg	stimuli_target_trianglesquares.svg	26	yes	44	1	245
6.6.1	win	2022-12-20	21:30:03	21:38:56	529901	62740a242f1f9493b90e351c	902254557	1	main_z	11	advance_on_keypress_ZEE	112	stimuli_distractor_trianglediamonds.svg	stimuli_target_trianglesquares.svg	26	yes	57	0	79
6.6.1	win	2022-12-20	21:30:03	21:38:58	532624	62740a242f1f9493b90e351c	902254557	1	main_z	11	main_z	113	stimuli_distractor_diamondtriangles.svg	stimuli_distractor_trianglediamonds.svg	37	no	0	1	2000
6.6.1	win	2022-12-20	21:30:03	21:38:58	532624	62740a242f1f9493b90e351c	902254557	1	main_z	11	advance_on_keypress_ZEE	114	stimuli_distractor_diamondtriangles.svg	stimuli_distractor_trianglediamonds.svg	37	no	57	0	375
6.6.1	win	2022-12-20	21:30:03	21:39:00	534024	62740a242f1f9493b90e351c	902254557	1	main_z	11	main_z	115	stimuli_target_squaretriangles.svg	stimuli_distractor_diamondtriangles.svg	7	yes	44	1	384
6.6.1	win	2022-12-20	21:30:03	21:39:00	534024	62740a242f1f9493b90e351c	902254557	1	main_z	11	advance_on_keypress_ZEE	116	stimuli_target_squaretriangles.svg	stimuli_distractor_diamondtriangles.svg	7	yes	57	0	155
6.6.1	win	2022-12-20	21:30:03	21:39:01	535083	62740a242f1f9493b90e351c	902254557	1	main_z	11	main_z	117	stimuli_distractor_diamondtriangles.svg	stimuli_target_squaretriangles.svg	15	yes	44	1	259
6.6.1	win	2022-12-20	21:30:03	21:39:01	535083	62740a242f1f9493b90e351c	902254557	1	main_z	11	advance_on_keypress_ZEE	118	stimuli_distractor_diamondtriangles.svg	stimuli_target_squaretriangles.svg	15	yes	57	0	127
6.6.1	win	2022-12-20	21:30:03	21:39:02	536180	62740a242f1f9493b90e351c	902254557	1	main_z	11	main_z	119	stimuli_target_squarediamonds.svg	stimuli_distractor_trianglediamonds.svg	4	yes	44	1	340
6.6.1	win	2022-12-20	21:30:03	21:39:02	536180	62740a242f1f9493b90e351c	902254557	1	main_z	11	advance_on_keypress_ZEE	120	stimuli_target_squarediamonds.svg	stimuli_distractor_trianglediamonds.svg	4	yes	57	0	212
6.6.1	win	2022-12-20	21:30:03	21:39:03	537308	62740a242f1f9493b90e351c	902254557	1	main_z	11	main_z	121	stimuli_distractor_trianglediamonds.svg	stimuli_distractor_trianglediamonds.svg	33	no	44	0	268
6.6.1	win	2022-12-20	21:30:03	21:39:03	537308	62740a242f1f9493b90e351c	902254557	1	main_z	11	advance_on_keypress_ZEE	122	stimuli_distractor_trianglediamonds.svg	stimuli_distractor_trianglediamonds.svg	33	no	57	0	123
6.6.1	win	2022-12-20	21:30:03	21:39:04	538585	62740a242f1f9493b90e351c	902254557	1	main_z	11	main_z	123	stimuli_distractor_diamondtriangles.svg	stimuli_target_circlediamonds.svg	14	yes	44	1	510
6.6.1	win	2022-12-20	21:30:03	21:39:04	538585	62740a242f1f9493b90e351c	902254557	1	main_z	11	advance_on_keypress_ZEE	124	stimuli_distractor_diamondtriangles.svg	stimuli_target_circlediamonds.svg	14	yes	57	0	134
6.6.1	win	2022-12-20	21:30:03	21:39:06	539974	62740a242f1f9493b90e351c	902254557	1	main_z	11	main_z	125	stimuli_target_trianglesquares.svg	stimuli_distractor_diamondtriangles.svg	22	yes	44	1	601
6.6.1	win	2022-12-20	21:30:03	21:39:06	539974	62740a242f1f9493b90e351c	902254557	1	main_z	11	advance_on_keypress_ZEE	126	stimuli_target_trianglesquares.svg	stimuli_distractor_diamondtriangles.svg	22	yes	57	0	129
6.6.1	win	2022-12-20	21:30:03	21:39:07	541040	62740a242f1f9493b90e351c	902254557	1	main_z	11	main_z	127	stimuli_target_diamondsquares.svg	stimuli_distractor_diamondtriangles.svg	24	yes	44	1	282
6.6.1	win	2022-12-20	21:30:03	21:39:07	541040	62740a242f1f9493b90e351c	902254557	1	main_z	11	advance_on_keypress_ZEE	128	stimuli_target_diamondsquares.svg	stimuli_distractor_diamondtriangles.svg	24	yes	57	0	100
6.6.1	win	2022-12-20	21:30:03	21:39:08	542008	62740a242f1f9493b90e351c	902254557	1	main_z	11	main_z	129	stimuli_target_diamondcircles.svg	stimuli_distractor_diamondtriangles.svg	23	yes	44	1	218
6.6.1	win	2022-12-20	21:30:03	21:39:08	542008	62740a242f1f9493b90e351c	902254557	1	main_z	11	advance_on_keypress_ZEE	130	stimuli_target_diamondcircles.svg	stimuli_distractor_diamondtriangles.svg	23	yes	57	0	116
6.6.1	win	2022-12-20	21:30:03	21:39:09	542985	62740a242f1f9493b90e351c	902254557	1	main_z	11	main_z	131	stimuli_distractor_trianglediamonds.svg	stimuli_target_trianglecircles.svg	25	yes	44	1	211
6.6.1	win	2022-12-20	21:30:03	21:39:09	542985	62740a242f1f9493b90e351c	902254557	1	main_z	11	advance_on_keypress_ZEE	132	stimuli_distractor_trianglediamonds.svg	stimuli_target_trianglecircles.svg	25	yes	57	0	35
6.6.1	win	2022-12-20	21:30:03	21:39:10	544068	62740a242f1f9493b90e351c	902254557	1	main_z	11	main_z	133	stimuli_distractor_trianglediamonds.svg	stimuli_distractor_trianglediamonds.svg	34	no	44	0	395
6.6.1	win	2022-12-20	21:30:03	21:39:10	544068	62740a242f1f9493b90e351c	902254557	1	main_z	11	advance_on_keypress_ZEE	134	stimuli_distractor_trianglediamonds.svg	stimuli_distractor_trianglediamonds.svg	34	no	57	0	764
6.6.1	win	2022-12-20	21:30:03	21:39:12	545879	62740a242f1f9493b90e351c	902254557	1	main_z	11	main_z	135	stimuli_distractor_diamondtriangles.svg	stimuli_target_trianglecircles.svg	29	yes	44	1	389
6.6.1	win	2022-12-20	21:30:03	21:39:12	545879	62740a242f1f9493b90e351c	902254557	1	main_z	11	advance_on_keypress_ZEE	136	stimuli_distractor_diamondtriangles.svg	stimuli_target_trianglecircles.svg	29	yes	57	0	164
6.6.1	win	2022-12-20	21:30:03	21:39:14	548690	62740a242f1f9493b90e351c	902254557	1	main_z	11	main_z	137	stimuli_distractor_diamondtriangles.svg	stimuli_distractor_diamondtriangles.svg	39	no	0	1	2000
6.6.1	win	2022-12-20	21:30:03	21:39:14	548690	62740a242f1f9493b90e351c	902254557	1	main_z	11	advance_on_keypress_ZEE	138	stimuli_distractor_diamondtriangles.svg	stimuli_distractor_diamondtriangles.svg	39	no	57	0	384
6.6.1	win	2022-12-20	21:30:03	21:39:16	550049	62740a242f1f9493b90e351c	902254557	1	main_z	11	main_z	139	stimuli_target_circlediamonds.svg	stimuli_distractor_trianglediamonds.svg	2	yes	44	1	325
6.6.1	win	2022-12-20	21:30:03	21:39:16	550049	62740a242f1f9493b90e351c	902254557	1	main_z	11	advance_on_keypress_ZEE	140	stimuli_target_circlediamonds.svg	stimuli_distractor_trianglediamonds.svg	2	yes	57	0	189
6.6.1	win	2022-12-20	21:30:03	21:39:17	551412	62740a242f1f9493b90e351c	902254557	1	main_z	11	main_z	141	stimuli_distractor_trianglediamonds.svg	stimuli_target_squarediamonds.svg	12	yes	44	1	540
6.6.1	win	2022-12-20	21:30:03	21:39:17	551412	62740a242f1f9493b90e351c	902254557	1	main_z	11	advance_on_keypress_ZEE	142	stimuli_distractor_trianglediamonds.svg	stimuli_target_squarediamonds.svg	12	yes	57	0	167
6.6.1	win	2022-12-20	21:30:03	21:39:18	552449	62740a242f1f9493b90e351c	902254557	1	main_z	11	main_z	143	stimuli_distractor_trianglediamonds.svg	stimuli_target_diamondsquares.svg	28	yes	44	1	225
6.6.1	win	2022-12-20	21:30:03	21:39:18	552449	62740a242f1f9493b90e351c	902254557	1	main_z	11	advance_on_keypress_ZEE	144	stimuli_distractor_trianglediamonds.svg	stimuli_target_diamondsquares.svg	28	yes	57	0	99
6.6.1	win	2022-12-20	21:30:03	21:39:19	553681	62740a242f1f9493b90e351c	902254557	1	main_z	11	main_z	145	stimuli_target_circlediamonds.svg	stimuli_distractor_diamondtriangles.svg	6	yes	44	1	490
6.6.1	win	2022-12-20	21:30:03	21:39:19	553681	62740a242f1f9493b90e351c	902254557	1	main_z	11	advance_on_keypress_ZEE	146	stimuli_target_circlediamonds.svg	stimuli_distractor_diamondtriangles.svg	6	yes	57	0	126
6.6.1	win	2022-12-20	21:30:03	21:39:20	554707	62740a242f1f9493b90e351c	902254557	1	main_z	11	main_z	147	stimuli_distractor_trianglediamonds.svg	stimuli_target_squaretriangles.svg	11	yes	44	1	267
6.6.1	win	2022-12-20	21:30:03	21:39:20	554707	62740a242f1f9493b90e351c	902254557	1	main_z	11	advance_on_keypress_ZEE	148	stimuli_distractor_trianglediamonds.svg	stimuli_target_squaretriangles.svg	11	yes	57	0	87
6.6.1	win	2022-12-20	21:30:03	21:39:21	555679	62740a242f1f9493b90e351c	902254557	1	main_z	11	main_z	149	stimuli_distractor_trianglediamonds.svg	stimuli_distractor_diamondtriangles.svg	36	no	44	0	238
6.6.1	win	2022-12-20	21:30:03	21:39:21	555679	62740a242f1f9493b90e351c	902254557	1	main_z	11	advance_on_keypress_ZEE	150	stimuli_distractor_trianglediamonds.svg	stimuli_distractor_diamondtriangles.svg	36	no	57	0	54
6.6.1	win	2022-12-20	21:30:03	21:39:23	556753	62740a242f1f9493b90e351c	902254557	1	main_z	11	main_z	151	stimuli_target_diamondsquares.svg	stimuli_distractor_trianglediamonds.svg	20	yes	44	1	381
6.6.1	win	2022-12-20	21:30:03	21:39:23	556753	62740a242f1f9493b90e351c	902254557	1	main_z	11	advance_on_keypress_ZEE	152	stimuli_target_diamondsquares.svg	stimuli_distractor_trianglediamonds.svg	20	yes	57	0	74
6.6.1	win	2022-12-20	21:30:03	21:39:24	557917	62740a242f1f9493b90e351c	902254557	1	main_z	11	main_z	153	stimuli_distractor_diamondtriangles.svg	stimuli_target_diamondcircles.svg	31	yes	44	1	444
6.6.1	win	2022-12-20	21:30:03	21:39:24	557917	62740a242f1f9493b90e351c	902254557	1	main_z	11	advance_on_keypress_ZEE	154	stimuli_distractor_diamondtriangles.svg	stimuli_target_diamondcircles.svg	31	yes	57	0	74
6.6.1	win	2022-12-20	21:30:03	21:39:25	558916	62740a242f1f9493b90e351c	902254557	1	main_z	11	main_z	155	stimuli_target_trianglesquares.svg	stimuli_distractor_trianglediamonds.svg	18	yes	44	1	293
6.6.1	win	2022-12-20	21:30:03	21:39:25	558916	62740a242f1f9493b90e351c	902254557	1	main_z	11	advance_on_keypress_ZEE	156	stimuli_target_trianglesquares.svg	stimuli_distractor_trianglediamonds.svg	18	yes	57	0	68
6.6.1	win	2022-12-20	21:30:03	21:39:26	559891	62740a242f1f9493b90e351c	902254557	1	main_z	11	main_z	157	stimuli_distractor_trianglediamonds.svg	stimuli_target_circlediamonds.svg	10	yes	44	1	266
6.6.1	win	2022-12-20	21:30:03	21:39:26	559891	62740a242f1f9493b90e351c	902254557	1	main_z	11	advance_on_keypress_ZEE	158	stimuli_distractor_trianglediamonds.svg	stimuli_target_circlediamonds.svg	10	yes	57	0	62
6.6.1	win	2022-12-20	21:30:03	21:39:27	561022	62740a242f1f9493b90e351c	902254557	1	main_z	11	main_z	159	stimuli_distractor_trianglediamonds.svg	stimuli_target_circletriangles.svg	9	yes	44	1	432
6.6.1	win	2022-12-20	21:30:03	21:39:27	561022	62740a242f1f9493b90e351c	902254557	1	main_z	11	advance_on_keypress_ZEE	160	stimuli_distractor_trianglediamonds.svg	stimuli_target_circletriangles.svg	9	yes	57	0	52