build	computer.platform	date	time	timestamp	time_elapsed_ms	subject	group	session	blockcode	blocknum	trialcode	trialnum	stimulus_left	stimulus_right	stim_index	target_present	response	correct	latency
6.6.0	win	2022-12-27	10:42:23	10:44:16	112168	5deb3c192235ad24f4a21826	698096341	1	practice_slash	5	practice_slash	1	stimuli_distractor_trianglediamonds.svg	stimuli_target_squarediamonds.svg	11	yes	53	1	509
6.6.0	win	2022-12-27	10:42:23	10:44:16	112168	5deb3c192235ad24f4a21826	698096341	1	practice_slash	5	advance_on_keypress_SLASH	2	stimuli_distractor_trianglediamonds.svg	stimuli_target_squarediamonds.svg	11	yes	57	0	4584
6.6.0	win	2022-12-27	10:42:23	10:44:23	119437	5deb3c192235ad24f4a21826	698096341	1	practice_slash	5	practice_slash	3	stimuli_distractor_trianglediamonds.svg	stimuli_target_circlediamonds.svg	10	yes	53	1	1020
6.6.0	win	2022-12-27	10:42:23	10:44:23	119437	5deb3c192235ad24f4a21826	698096341	1	practice_slash	5	advance_on_keypress_SLASH	4	stimuli_distractor_trianglediamonds.svg	stimuli_target_circlediamonds.svg	10	yes	57	0	1339
6.6.0	win	2022-12-27	10:42:23	10:44:28	124413	5deb3c192235ad24f4a21826	698096341	1	practice_slash	5	practice_slash	5	stimuli_distractor_trianglediamonds.svg	stimuli_distractor_trianglediamonds.svg	15	no	0	1	2000
6.6.0	win	2022-12-27	10:42:23	10:44:28	124413	5deb3c192235ad24f4a21826	698096341	1	practice_slash	5	advance_on_keypress_SLASH	6	stimuli_distractor_trianglediamonds.svg	stimuli_distractor_trianglediamonds.svg	15	no	57	0	787
6.6.0	win	2022-12-27	10:42:23	10:44:31	128072	5deb3c192235ad24f4a21826	698096341	1	practice_slash	5	practice_slash	7	stimuli_target_diamondsquares.svg	stimuli_distractor_diamondtriangles.svg	3	yes	53	1	1232
6.6.0	win	2022-12-27	10:42:23	10:44:31	128072	5deb3c192235ad24f4a21826	698096341	1	practice_slash	5	advance_on_keypress_SLASH	8	stimuli_target_diamondsquares.svg	stimuli_distractor_diamondtriangles.svg	3	yes	57	0	2940
6.6.0	win	2022-12-27	10:42:23	10:44:38	134651	5deb3c192235ad24f4a21826	698096341	1	practice_slash	5	practice_slash	9	stimuli_distractor_trianglediamonds.svg	stimuli_distractor_diamondtriangles.svg	16	no	0	1	2000
6.6.0	win	2022-12-27	10:42:23	10:44:38	134651	5deb3c192235ad24f4a21826	698096341	1	practice_slash	5	advance_on_keypress_SLASH	10	stimuli_distractor_trianglediamonds.svg	stimuli_distractor_diamondtriangles.svg	16	no	57	0	535
6.6.0	win	2022-12-27	10:42:23	10:44:42	138400	5deb3c192235ad24f4a21826	698096341	1	practice_slash	5	practice_slash	11	stimuli_target_circlediamonds.svg	stimuli_distractor_diamondtriangles.svg	1	yes	53	1	1572
6.6.0	win	2022-12-27	10:42:23	10:44:42	138400	5deb3c192235ad24f4a21826	698096341	1	practice_slash	5	advance_on_keypress_SLASH	12	stimuli_target_circlediamonds.svg	stimuli_distractor_diamondtriangles.svg	1	yes	57	0	754
6.6.0	win	2022-12-27	10:42:23	10:44:45	141817	5deb3c192235ad24f4a21826	698096341	1	practice_slash	5	practice_slash	13	stimuli_target_circlediamonds.svg	stimuli_distractor_trianglediamonds.svg	4	yes	53	1	1026
6.6.0	win	2022-12-27	10:42:23	10:44:45	141817	5deb3c192235ad24f4a21826	698096341	1	practice_slash	5	advance_on_keypress_SLASH	14	stimuli_target_circlediamonds.svg	stimuli_distractor_trianglediamonds.svg	4	yes	57	0	1945
6.6.0	win	2022-12-27	10:42:23	10:44:50	146498	5deb3c192235ad24f4a21826	698096341	1	practice_slash	5	practice_slash	15	stimuli_distractor_diamondtriangles.svg	stimuli_target_trianglecircles.svg	9	yes	53	1	1079
6.6.0	win	2022-12-27	10:42:23	10:44:50	146498	5deb3c192235ad24f4a21826	698096341	1	practice_slash	5	advance_on_keypress_SLASH	16	stimuli_distractor_diamondtriangles.svg	stimuli_target_trianglecircles.svg	9	yes	57	0	646
6.6.0	win	2022-12-27	10:42:23	10:44:53	149429	5deb3c192235ad24f4a21826	698096341	1	practice_slash	5	practice_slash	17	stimuli_target_squarediamonds.svg	stimuli_distractor_trianglediamonds.svg	5	yes	53	1	630
6.6.0	win	2022-12-27	10:42:23	10:44:53	149429	5deb3c192235ad24f4a21826	698096341	1	practice_slash	5	advance_on_keypress_SLASH	18	stimuli_target_squarediamonds.svg	stimuli_distractor_trianglediamonds.svg	5	yes	57	0	609
6.6.0	win	2022-12-27	10:42:23	10:44:56	152398	5deb3c192235ad24f4a21826	698096341	1	practice_slash	5	practice_slash	19	stimuli_distractor_diamondtriangles.svg	stimuli_target_circletriangles.svg	7	yes	53	1	703
6.6.0	win	2022-12-27	10:42:23	10:44:56	152398	5deb3c192235ad24f4a21826	698096341	1	practice_slash	5	advance_on_keypress_SLASH	20	stimuli_distractor_diamondtriangles.svg	stimuli_target_circletriangles.svg	7	yes	57	0	724
6.6.0	win	2022-12-27	10:42:23	10:45:00	156759	5deb3c192235ad24f4a21826	698096341	1	practice_slash	5	practice_slash	21	stimuli_distractor_trianglediamonds.svg	stimuli_target_diamondcircles.svg	12	yes	0	0	2000
6.6.0	win	2022-12-27	10:42:23	10:45:00	156759	5deb3c192235ad24f4a21826	698096341	1	practice_slash	5	advance_on_keypress_SLASH	22	stimuli_distractor_trianglediamonds.svg	stimuli_target_diamondcircles.svg	12	yes	57	0	633
6.6.0	win	2022-12-27	10:42:23	10:45:03	160057	5deb3c192235ad24f4a21826	698096341	1	practice_slash	5	practice_slash	23	stimuli_distractor_diamondtriangles.svg	stimuli_target_diamondcircles.svg	8	yes	53	1	1021
6.6.0	win	2022-12-27	10:42:23	10:45:03	160057	5deb3c192235ad24f4a21826	698096341	1	practice_slash	5	advance_on_keypress_SLASH	24	stimuli_distractor_diamondtriangles.svg	stimuli_target_diamondcircles.svg	8	yes	57	0	961
6.6.0	win	2022-12-27	10:42:23	10:45:07	163423	5deb3c192235ad24f4a21826	698096341	1	practice_slash	5	practice_slash	25	stimuli_distractor_diamondtriangles.svg	stimuli_distractor_diamondtriangles.svg	13	no	53	0	758
6.6.0	win	2022-12-27	10:42:23	10:45:07	163423	5deb3c192235ad24f4a21826	698096341	1	practice_slash	5	advance_on_keypress_SLASH	26	stimuli_distractor_diamondtriangles.svg	stimuli_distractor_diamondtriangles.svg	13	no	57	0	597
6.6.0	win	2022-12-27	10:42:23	10:45:11	167319	5deb3c192235ad24f4a21826	698096341	1	practice_slash	5	practice_slash	27	stimuli_distractor_diamondtriangles.svg	stimuli_distractor_trianglediamonds.svg	14	no	53	0	1655
6.6.0	win	2022-12-27	10:42:23	10:45:11	167319	5deb3c192235ad24f4a21826	698096341	1	practice_slash	5	advance_on_keypress_SLASH	28	stimuli_distractor_diamondtriangles.svg	stimuli_distractor_trianglediamonds.svg	14	no	57	0	443
6.6.0	win	2022-12-27	10:42:23	10:45:13	170056	5deb3c192235ad24f4a21826	698096341	1	practice_slash	5	practice_slash	29	stimuli_target_squarediamonds.svg	stimuli_distractor_diamondtriangles.svg	2	yes	53	1	664
6.6.0	win	2022-12-27	10:42:23	10:45:13	170056	5deb3c192235ad24f4a21826	698096341	1	practice_slash	5	advance_on_keypress_SLASH	30	stimuli_target_squarediamonds.svg	stimuli_distractor_diamondtriangles.svg	2	yes	57	0	587
6.6.0	win	2022-12-27	10:42:23	10:45:17	173721	5deb3c192235ad24f4a21826	698096341	1	practice_slash	5	practice_slash	31	stimuli_target_diamondsquares.svg	stimuli_distractor_trianglediamonds.svg	6	yes	53	1	1430
6.6.0	win	2022-12-27	10:42:23	10:45:17	173721	5deb3c192235ad24f4a21826	698096341	1	practice_slash	5	advance_on_keypress_SLASH	32	stimuli_target_diamondsquares.svg	stimuli_distractor_trianglediamonds.svg	6	yes	57	0	476
6.6.0	win	2022-12-27	10:42:23	10:45:26	182436	5deb3c192235ad24f4a21826	698096341	1	main_slash	7	main_slash	1	stimuli_distractor_trianglediamonds.svg	stimuli_target_diamondsquares.svg	28	yes	53	1	710
6.6.0	win	2022-12-27	10:42:23	10:45:26	182436	5deb3c192235ad24f4a21826	698096341	1	main_slash	7	advance_on_keypress_SLASH	2	stimuli_distractor_trianglediamonds.svg	stimuli_target_diamondsquares.svg	28	yes	57	0	767
6.6.0	win	2022-12-27	10:42:23	10:45:28	184685	5deb3c192235ad24f4a21826	698096341	1	main_slash	7	main_slash	3	stimuli_distractor_trianglediamonds.svg	stimuli_target_circletriangles.svg	9	yes	53	1	828
6.6.0	win	2022-12-27	10:42:23	10:45:28	184685	5deb3c192235ad24f4a21826	698096341	1	main_slash	7	advance_on_keypress_SLASH	4	stimuli_distractor_trianglediamonds.svg	stimuli_target_circletriangles.svg	9	yes	57	0	682
6.6.0	win	2022-12-27	10:42:23	10:45:30	186846	5deb3c192235ad24f4a21826	698096341	1	main_slash	7	main_slash	5	stimuli_target_diamondsquares.svg	stimuli_distractor_diamondtriangles.svg	24	yes	53	1	825
6.6.0	win	2022-12-27	10:42:23	10:45:30	186846	5deb3c192235ad24f4a21826	698096341	1	main_slash	7	advance_on_keypress_SLASH	6	stimuli_target_diamondsquares.svg	stimuli_distractor_diamondtriangles.svg	24	yes	57	0	497
6.6.0	win	2022-12-27	10:42:23	10:45:33	189183	5deb3c192235ad24f4a21826	698096341	1	main_slash	7	main_slash	7	stimuli_target_squarediamonds.svg	stimuli_distractor_trianglediamonds.svg	4	yes	53	1	1198
6.6.0	win	2022-12-27	10:42:23	10:45:33	189183	5deb3c192235ad24f4a21826	698096341	1	main_slash	7	advance_on_keypress_SLASH	8	stimuli_target_squarediamonds.svg	stimuli_distractor_trianglediamonds.svg	4	yes	57	0	730
6.6.0	win	2022-12-27	10:42:23	10:45:35	191902	5deb3c192235ad24f4a21826	698096341	1	main_slash	7	main_slash	9	stimuli_target_circletriangles.svg	stimuli_distractor_trianglediamonds.svg	1	yes	53	1	1337
6.6.0	win	2022-12-27	10:42:23	10:45:35	191902	5deb3c192235ad24f4a21826	698096341	1	main_slash	7	advance_on_keypress_SLASH	10	stimuli_target_circletriangles.svg	stimuli_distractor_trianglediamonds.svg	1	yes	57	0	522
6.6.0	win	2022-12-27	10:42:23	10:45:37	194133	5deb3c192235ad24f4a21826	698096341	1	main_slash	7	main_slash	11	stimuli_distractor_trianglediamonds.svg	stimuli_target_circlediamonds.svg	10	yes	53	1	1071
6.6.0	win	2022-12-27	10:42:23	10:45:37	194133	5deb3c192235ad24f4a21826	698096341	1	main_slash	7	advance_on_keypress_SLASH	12	stimuli_distractor_trianglediamonds.svg	stimuli_target_circlediamonds.svg	10	yes	57	0	681
6.6.0	win	2022-12-27	10:42:23	10:45:41	197459	5deb3c192235ad24f4a21826	698096341	1	main_slash	7	main_slash	13	stimuli_distractor_trianglediamonds.svg	stimuli_distractor_diamondtriangles.svg	36	no	0	1	2000
6.6.0	win	2022-12-27	10:42:23	10:45:41	197459	5deb3c192235ad24f4a21826	698096341	1	main_slash	7	advance_on_keypress_SLASH	14	stimuli_distractor_trianglediamonds.svg	stimuli_distractor_diamondtriangles.svg	36	no	57	0	599
6.6.0	win	2022-12-27	10:42:23	10:45:43	199407	5deb3c192235ad24f4a21826	698096341	1	main_slash	7	main_slash	15	stimuli_distractor_diamondtriangles.svg	stimuli_target_diamondcircles.svg	31	yes	53	1	702
6.6.0	win	2022-12-27	10:42:23	10:45:43	199407	5deb3c192235ad24f4a21826	698096341	1	main_slash	7	advance_on_keypress_SLASH	16	stimuli_distractor_diamondtriangles.svg	stimuli_target_diamondcircles.svg	31	yes	57	0	924
6.6.0	win	2022-12-27	10:42:23	10:45:45	201779	5deb3c192235ad24f4a21826	698096341	1	main_slash	7	main_slash	17	stimuli_target_squaretriangles.svg	stimuli_distractor_trianglediamonds.svg	3	yes	53	1	809
6.6.0	win	2022-12-27	10:42:23	10:45:45	201779	5deb3c192235ad24f4a21826	698096341	1	main_slash	7	advance_on_keypress_SLASH	18	stimuli_target_squaretriangles.svg	stimuli_distractor_trianglediamonds.svg	3	yes	57	0	689
6.6.0	win	2022-12-27	10:42:23	10:45:47	204146	5deb3c192235ad24f4a21826	698096341	1	main_slash	7	main_slash	19	stimuli_target_circlediamonds.svg	stimuli_distractor_trianglediamonds.svg	2	yes	53	1	1045
6.6.0	win	2022-12-27	10:42:23	10:45:47	204146	5deb3c192235ad24f4a21826	698096341	1	main_slash	7	advance_on_keypress_SLASH	20	stimuli_target_circlediamonds.svg	stimuli_distractor_trianglediamonds.svg	2	yes	57	0	1084
6.6.0	win	2022-12-27	10:42:23	10:45:50	206598	5deb3c192235ad24f4a21826	698096341	1	main_slash	7	main_slash	21	stimuli_distractor_trianglediamonds.svg	stimuli_target_trianglesquares.svg	26	yes	53	1	717
6.6.0	win	2022-12-27	10:42:23	10:45:50	206598	5deb3c192235ad24f4a21826	698096341	1	main_slash	7	advance_on_keypress_SLASH	22	stimuli_distractor_trianglediamonds.svg	stimuli_target_trianglesquares.svg	26	yes	57	0	527
6.6.0	win	2022-12-27	10:42:23	10:45:52	208980	5deb3c192235ad24f4a21826	698096341	1	main_slash	7	main_slash	23	stimuli_distractor_diamondtriangles.svg	stimuli_distractor_trianglediamonds.svg	38	no	53	0	1218
6.6.0	win	2022-12-27	10:42:23	10:45:52	208980	5deb3c192235ad24f4a21826	698096341	1	main_slash	7	advance_on_keypress_SLASH	24	stimuli_distractor_diamondtriangles.svg	stimuli_distractor_trianglediamonds.svg	38	no	57	0	611
6.6.0	win	2022-12-27	10:42:23	10:45:56	212226	5deb3c192235ad24f4a21826	698096341	1	main_slash	7	main_slash	25	stimuli_distractor_diamondtriangles.svg	stimuli_distractor_trianglediamonds.svg	37	no	0	1	2000
6.6.0	win	2022-12-27	10:42:23	10:45:56	212226	5deb3c192235ad24f4a21826	698096341	1	main_slash	7	advance_on_keypress_SLASH	26	stimuli_distractor_diamondtriangles.svg	stimuli_distractor_trianglediamonds.svg	37	no	57	0	483
6.6.0	win	2022-12-27	10:42:23	10:45:57	214120	5deb3c192235ad24f4a21826	698096341	1	main_slash	7	main_slash	27	stimuli_target_diamondcircles.svg	stimuli_distractor_trianglediamonds.svg	19	yes	53	1	765
6.6.0	win	2022-12-27	10:42:23	10:45:57	214120	5deb3c192235ad24f4a21826	698096341	1	main_slash	7	advance_on_keypress_SLASH	28	stimuli_target_diamondcircles.svg	stimuli_distractor_trianglediamonds.svg	19	yes	57	0	637
6.6.0	win	2022-12-27	10:42:23	10:46:00	216182	5deb3c192235ad24f4a21826	698096341	1	main_slash	7	main_slash	29	stimuli_distractor_trianglediamonds.svg	stimuli_distractor_trianglediamonds.svg	34	no	53	0	778
6.6.0	win	2022-12-27	10:42:23	10:46:00	216182	5deb3c192235ad24f4a21826	698096341	1	main_slash	7	advance_on_keypress_SLASH	30	stimuli_distractor_trianglediamonds.svg	stimuli_distractor_trianglediamonds.svg	34	no	57	0	739
6.6.0	win	2022-12-27	10:42:23	10:46:02	218765	5deb3c192235ad24f4a21826	698096341	1	main_slash	7	main_slash	31	stimuli_distractor_diamondtriangles.svg	stimuli_target_circletriangles.svg	13	yes	53	1	1197
6.6.0	win	2022-12-27	10:42:23	10:46:02	218765	5deb3c192235ad24f4a21826	698096341	1	main_slash	7	advance_on_keypress_SLASH	32	stimuli_distractor_diamondtriangles.svg	stimuli_target_circletriangles.svg	13	yes	57	0	444
6.6.0	win	2022-12-27	10:42:23	10:46:04	220500	5deb3c192235ad24f4a21826	698096341	1	main_slash	7	main_slash	33	stimuli_distractor_diamondtriangles.svg	stimuli_target_squaretriangles.svg	15	yes	53	1	653
6.6.0	win	2022-12-27	10:42:23	10:46:04	220500	5deb3c192235ad24f4a21826	698096341	1	main_slash	7	advance_on_keypress_SLASH	34	stimuli_distractor_diamondtriangles.svg	stimuli_target_squaretriangles.svg	15	yes	57	0	430
6.6.0	win	2022-12-27	10:42:23	10:46:06	222317	5deb3c192235ad24f4a21826	698096341	1	main_slash	7	main_slash	35	stimuli_distractor_trianglediamonds.svg	stimuli_target_squaretriangles.svg	11	yes	53	1	737
6.6.0	win	2022-12-27	10:42:23	10:46:06	222317	5deb3c192235ad24f4a21826	698096341	1	main_slash	7	advance_on_keypress_SLASH	36	stimuli_distractor_trianglediamonds.svg	stimuli_target_squaretriangles.svg	11	yes	57	0	563
6.6.0	win	2022-12-27	10:42:23	10:46:08	224798	5deb3c192235ad24f4a21826	698096341	1	main_slash	7	main_slash	37	stimuli_distractor_trianglediamonds.svg	stimuli_target_squarediamonds.svg	12	yes	53	1	1270
6.6.0	win	2022-12-27	10:42:23	10:46:08	224798	5deb3c192235ad24f4a21826	698096341	1	main_slash	7	advance_on_keypress_SLASH	38	stimuli_distractor_trianglediamonds.svg	stimuli_target_squarediamonds.svg	12	yes	57	0	352
6.6.0	win	2022-12-27	10:42:23	10:46:10	226517	5deb3c192235ad24f4a21826	698096341	1	main_slash	7	main_slash	39	stimuli_distractor_diamondtriangles.svg	stimuli_target_trianglecircles.svg	29	yes	53	1	725
6.6.0	win	2022-12-27	10:42:23	10:46:10	226517	5deb3c192235ad24f4a21826	698096341	1	main_slash	7	advance_on_keypress_SLASH	40	stimuli_distractor_diamondtriangles.svg	stimuli_target_trianglecircles.svg	29	yes	57	0	272
6.6.0	win	2022-12-27	10:42:23	10:46:11	228112	5deb3c192235ad24f4a21826	698096341	1	main_slash	7	main_slash	41	stimuli_target_trianglecircles.svg	stimuli_distractor_diamondtriangles.svg	21	yes	53	1	689
6.6.0	win	2022-12-27	10:42:23	10:46:11	228112	5deb3c192235ad24f4a21826	698096341	1	main_slash	7	advance_on_keypress_SLASH	42	stimuli_target_trianglecircles.svg	stimuli_distractor_diamondtriangles.svg	21	yes	57	0	288
6.6.0	win	2022-12-27	10:42:23	10:46:13	229700	5deb3c192235ad24f4a21826	698096341	1	main_slash	7	main_slash	43	stimuli_target_trianglesquares.svg	stimuli_distractor_trianglediamonds.svg	18	yes	53	1	662
6.6.0	win	2022-12-27	10:42:23	10:46:13	229700	5deb3c192235ad24f4a21826	698096341	1	main_slash	7	advance_on_keypress_SLASH	44	stimuli_target_trianglesquares.svg	stimuli_distractor_trianglediamonds.svg	18	yes	57	0	156
6.6.0	win	2022-12-27	10:42:23	10:46:16	232503	5deb3c192235ad24f4a21826	698096341	1	main_slash	7	main_slash	45	stimuli_distractor_trianglediamonds.svg	stimuli_distractor_trianglediamonds.svg	33	no	0	1	2000
6.6.0	win	2022-12-27	10:42:23	10:46:16	232503	5deb3c192235ad24f4a21826	698096341	1	main_slash	7	advance_on_keypress_SLASH	46	stimuli_distractor_trianglediamonds.svg	stimuli_distractor_trianglediamonds.svg	33	no	57	0	650
6.6.0	win	2022-12-27	10:42:23	10:46:18	234470	5deb3c192235ad24f4a21826	698096341	1	main_slash	7	main_slash	47	stimuli_target_circlediamonds.svg	stimuli_distractor_diamondtriangles.svg	6	yes	53	1	671
6.6.0	win	2022-12-27	10:42:23	10:46:18	234470	5deb3c192235ad24f4a21826	698096341	1	main_slash	7	advance_on_keypress_SLASH	48	stimuli_target_circlediamonds.svg	stimuli_distractor_diamondtriangles.svg	6	yes	57	0	511
6.6.0	win	2022-12-27	10:42:23	10:46:20	236394	5deb3c192235ad24f4a21826	698096341	1	main_slash	7	main_slash	49	stimuli_distractor_trianglediamonds.svg	stimuli_target_trianglecircles.svg	25	yes	53	1	780
6.6.0	win	2022-12-27	10:42:23	10:46:20	236394	5deb3c192235ad24f4a21826	698096341	1	main_slash	7	advance_on_keypress_SLASH	50	stimuli_distractor_trianglediamonds.svg	stimuli_target_trianglecircles.svg	25	yes	57	0	343
6.6.0	win	2022-12-27	10:42:23	10:46:22	238270	5deb3c192235ad24f4a21826	698096341	1	main_slash	7	main_slash	51	stimuli_target_diamondsquares.svg	stimuli_distractor_trianglediamonds.svg	20	yes	53	1	893
6.6.0	win	2022-12-27	10:42:23	10:46:22	238270	5deb3c192235ad24f4a21826	698096341	1	main_slash	7	advance_on_keypress_SLASH	52	stimuli_target_diamondsquares.svg	stimuli_distractor_trianglediamonds.svg	20	yes	57	0	277
6.6.0	win	2022-12-27	10:42:23	10:46:23	239850	5deb3c192235ad24f4a21826	698096341	1	main_slash	7	main_slash	53	stimuli_distractor_trianglediamonds.svg	stimuli_target_diamondcircles.svg	27	yes	53	1	674
6.6.0	win	2022-12-27	10:42:23	10:46:23	239850	5deb3c192235ad24f4a21826	698096341	1	main_slash	7	advance_on_keypress_SLASH	54	stimuli_distractor_trianglediamonds.svg	stimuli_target_diamondcircles.svg	27	yes	57	0	204
6.6.0	win	2022-12-27	10:42:23	10:46:25	241463	5deb3c192235ad24f4a21826	698096341	1	main_slash	7	main_slash	55	stimuli_target_trianglecircles.svg	stimuli_distractor_trianglediamonds.svg	17	yes	53	1	773
6.6.0	win	2022-12-27	10:42:23	10:46:25	241463	5deb3c192235ad24f4a21826	698096341	1	main_slash	7	advance_on_keypress_SLASH	56	stimuli_target_trianglecircles.svg	stimuli_distractor_trianglediamonds.svg	17	yes	57	0	238
6.6.0	win	2022-12-27	10:42:23	10:46:28	244339	5deb3c192235ad24f4a21826	698096341	1	main_slash	7	main_slash	57	stimuli_distractor_diamondtriangles.svg	stimuli_distractor_diamondtriangles.svg	40	no	0	1	2000
6.6.0	win	2022-12-27	10:42:23	10:46:28	244339	5deb3c192235ad24f4a21826	698096341	1	main_slash	7	advance_on_keypress_SLASH	58	stimuli_distractor_diamondtriangles.svg	stimuli_distractor_diamondtriangles.svg	40	no	57	0	960
6.6.0	win	2022-12-27	10:42:23	10:46:30	246395	5deb3c192235ad24f4a21826	698096341	1	main_slash	7	main_slash	59	stimuli_distractor_diamondtriangles.svg	stimuli_target_circlediamonds.svg	14	yes	53	1	460
6.6.0	win	2022-12-27	10:42:23	10:46:30	246395	5deb3c192235ad24f4a21826	698096341	1	main_slash	7	advance_on_keypress_SLASH	60	stimuli_distractor_diamondtriangles.svg	stimuli_target_circlediamonds.svg	14	yes	57	0	246
6.6.0	win	2022-12-27	10:42:23	10:46:32	248575	5deb3c192235ad24f4a21826	698096341	1	main_slash	7	main_slash	61	stimuli_distractor_trianglediamonds.svg	stimuli_distractor_diamondtriangles.svg	35	no	53	0	1291
6.6.0	win	2022-12-27	10:42:23	10:46:32	248575	5deb3c192235ad24f4a21826	698096341	1	main_slash	7	advance_on_keypress_SLASH	62	stimuli_distractor_trianglediamonds.svg	stimuli_distractor_diamondtriangles.svg	35	no	57	0	361
6.6.0	win	2022-12-27	10:42:23	10:46:34	250527	5deb3c192235ad24f4a21826	698096341	1	main_slash	7	main_slash	63	stimuli_distractor_diamondtriangles.svg	stimuli_target_squarediamonds.svg	16	yes	53	1	963
6.6.0	win	2022-12-27	10:42:23	10:46:34	250527	5deb3c192235ad24f4a21826	698096341	1	main_slash	7	advance_on_keypress_SLASH	64	stimuli_distractor_diamondtriangles.svg	stimuli_target_squarediamonds.svg	16	yes	57	0	216
6.6.0	win	2022-12-27	10:42:23	10:46:37	253395	5deb3c192235ad24f4a21826	698096341	1	main_slash	7	main_slash	65	stimuli_distractor_diamondtriangles.svg	stimuli_distractor_diamondtriangles.svg	39	no	0	1	2000
6.6.0	win	2022-12-27	10:42:23	10:46:37	253395	5deb3c192235ad24f4a21826	698096341	1	main_slash	7	advance_on_keypress_SLASH	66	stimuli_distractor_diamondtriangles.svg	stimuli_distractor_diamondtriangles.svg	39	no	57	0	522
6.6.0	win	2022-12-27	10:42:23	10:46:39	255237	5deb3c192235ad24f4a21826	698096341	1	main_slash	7	main_slash	67	stimuli_distractor_diamondtriangles.svg	stimuli_target_diamondsquares.svg	32	yes	53	1	679
6.6.0	win	2022-12-27	10:42:23	10:46:39	255237	5deb3c192235ad24f4a21826	698096341	1	main_slash	7	advance_on_keypress_SLASH	68	stimuli_distractor_diamondtriangles.svg	stimuli_target_diamondsquares.svg	32	yes	57	0	189
6.6.0	win	2022-12-27	10:42:23	10:46:40	256806	5deb3c192235ad24f4a21826	698096341	1	main_slash	7	main_slash	69	stimuli_target_circletriangles.svg	stimuli_distractor_diamondtriangles.svg	5	yes	53	1	731
6.6.0	win	2022-12-27	10:42:23	10:46:40	256806	5deb3c192235ad24f4a21826	698096341	1	main_slash	7	advance_on_keypress_SLASH	70	stimuli_target_circletriangles.svg	stimuli_distractor_diamondtriangles.svg	5	yes	57	0	297
6.6.0	win	2022-12-27	10:42:23	10:46:42	258490	5deb3c192235ad24f4a21826	698096341	1	main_slash	7	main_slash	71	stimuli_target_squarediamonds.svg	stimuli_distractor_diamondtriangles.svg	8	yes	53	1	735
6.6.0	win	2022-12-27	10:42:23	10:46:42	258490	5deb3c192235ad24f4a21826	698096341	1	main_slash	7	advance_on_keypress_SLASH	72	stimuli_target_squarediamonds.svg	stimuli_distractor_diamondtriangles.svg	8	yes	57	0	973
6.6.0	win	2022-12-27	10:42:23	10:46:44	260666	5deb3c192235ad24f4a21826	698096341	1	main_slash	7	main_slash	73	stimuli_target_trianglesquares.svg	stimuli_distractor_diamondtriangles.svg	22	yes	53	1	565
6.6.0	win	2022-12-27	10:42:23	10:46:44	260666	5deb3c192235ad24f4a21826	698096341	1	main_slash	7	advance_on_keypress_SLASH	74	stimuli_target_trianglesquares.svg	stimuli_distractor_diamondtriangles.svg	22	yes	57	0	1104
6.6.0	win	2022-12-27	10:42:23	10:46:46	263041	5deb3c192235ad24f4a21826	698096341	1	main_slash	7	main_slash	75	stimuli_distractor_diamondtriangles.svg	stimuli_target_trianglesquares.svg	30	yes	53	1	625
6.6.0	win	2022-12-27	10:42:23	10:46:46	263041	5deb3c192235ad24f4a21826	698096341	1	main_slash	7	advance_on_keypress_SLASH	76	stimuli_distractor_diamondtriangles.svg	stimuli_target_trianglesquares.svg	30	yes	57	0	539
6.6.0	win	2022-12-27	10:42:23	10:46:48	264760	5deb3c192235ad24f4a21826	698096341	1	main_slash	7	main_slash	77	stimuli_target_diamondcircles.svg	stimuli_distractor_diamondtriangles.svg	23	yes	53	1	546
6.6.0	win	2022-12-27	10:42:23	10:46:48	264760	5deb3c192235ad24f4a21826	698096341	1	main_slash	7	advance_on_keypress_SLASH	78	stimuli_target_diamondcircles.svg	stimuli_distractor_diamondtriangles.svg	23	yes	57	0	184
6.6.0	win	2022-12-27	10:42:23	10:46:50	266399	5deb3c192235ad24f4a21826	698096341	1	main_slash	7	main_slash	79	stimuli_target_squaretriangles.svg	stimuli_distractor_diamondtriangles.svg	7	yes	53	1	803
6.6.0	win	2022-12-27	10:42:23	10:46:50	266399	5deb3c192235ad24f4a21826	698096341	1	main_slash	7	advance_on_keypress_SLASH	80	stimuli_target_squaretriangles.svg	stimuli_distractor_diamondtriangles.svg	7	yes	57	0	1051
6.6.0	win	2022-12-27	10:42:23	10:46:52	268746	5deb3c192235ad24f4a21826	698096341	1	main_slash	7	main_slash	81	stimuli_target_trianglesquares.svg	stimuli_distractor_trianglediamonds.svg	18	yes	53	1	653
6.6.0	win	2022-12-27	10:42:23	10:46:52	268746	5deb3c192235ad24f4a21826	698096341	1	main_slash	7	advance_on_keypress_SLASH	82	stimuli_target_trianglesquares.svg	stimuli_distractor_trianglediamonds.svg	18	yes	57	0	153
6.6.0	win	2022-12-27	10:42:23	10:46:54	270595	5deb3c192235ad24f4a21826	698096341	1	main_slash	7	main_slash	83	stimuli_distractor_diamondtriangles.svg	stimuli_target_trianglesquares.svg	30	yes	53	1	1054
6.6.0	win	2022-12-27	10:42:23	10:46:54	270595	5deb3c192235ad24f4a21826	698096341	1	main_slash	7	advance_on_keypress_SLASH	84	stimuli_distractor_diamondtriangles.svg	stimuli_target_trianglesquares.svg	30	yes	57	0	1165
6.6.0	win	2022-12-27	10:42:23	10:46:56	273033	5deb3c192235ad24f4a21826	698096341	1	main_slash	7	main_slash	85	stimuli_target_circlediamonds.svg	stimuli_distractor_diamondtriangles.svg	6	yes	53	1	629
6.6.0	win	2022-12-27	10:42:23	10:46:56	273033	5deb3c192235ad24f4a21826	698096341	1	main_slash	7	advance_on_keypress_SLASH	86	stimuli_target_circlediamonds.svg	stimuli_distractor_diamondtriangles.svg	6	yes	57	0	253
6.6.0	win	2022-12-27	10:42:23	10:46:58	274665	5deb3c192235ad24f4a21826	698096341	1	main_slash	7	main_slash	87	stimuli_distractor_trianglediamonds.svg	stimuli_target_diamondsquares.svg	28	yes	53	1	729
6.6.0	win	2022-12-27	10:42:23	10:46:58	274665	5deb3c192235ad24f4a21826	698096341	1	main_slash	7	advance_on_keypress_SLASH	88	stimuli_distractor_trianglediamonds.svg	stimuli_target_diamondsquares.svg	28	yes	57	0	779
6.6.0	win	2022-12-27	10:42:23	10:47:00	276623	5deb3c192235ad24f4a21826	698096341	1	main_slash	7	main_slash	89	stimuli_target_diamondcircles.svg	stimuli_distractor_trianglediamonds.svg	19	yes	53	1	523
6.6.0	win	2022-12-27	10:42:23	10:47:00	276623	5deb3c192235ad24f4a21826	698096341	1	main_slash	7	advance_on_keypress_SLASH	90	stimuli_target_diamondcircles.svg	stimuli_distractor_trianglediamonds.svg	19	yes	57	0	687
6.6.0	win	2022-12-27	10:42:23	10:47:03	279948	5deb3c192235ad24f4a21826	698096341	1	main_slash	7	main_slash	91	stimuli_distractor_diamondtriangles.svg	stimuli_distractor_diamondtriangles.svg	40	no	0	1	2000
6.6.0	win	2022-12-27	10:42:23	10:47:03	279948	5deb3c192235ad24f4a21826	698096341	1	main_slash	7	advance_on_keypress_SLASH	92	stimuli_distractor_diamondtriangles.svg	stimuli_distractor_diamondtriangles.svg	40	no	57	0	455
6.6.0	win	2022-12-27	10:42:23	10:47:06	283044	5deb3c192235ad24f4a21826	698096341	1	main_slash	7	main_slash	93	stimuli_distractor_trianglediamonds.svg	stimuli_distractor_diamondtriangles.svg	35	no	0	1	2000
6.6.0	win	2022-12-27	10:42:23	10:47:06	283044	5deb3c192235ad24f4a21826	698096341	1	main_slash	7	advance_on_keypress_SLASH	94	stimuli_distractor_trianglediamonds.svg	stimuli_distractor_diamondtriangles.svg	35	no	57	0	435
6.6.0	win	2022-12-27	10:42:23	10:47:09	286125	5deb3c192235ad24f4a21826	698096341	1	main_slash	7	main_slash	95	stimuli_distractor_trianglediamonds.svg	stimuli_distractor_diamondtriangles.svg	36	no	0	1	2000
6.6.0	win	2022-12-27	10:42:23	10:47:09	286125	5deb3c192235ad24f4a21826	698096341	1	main_slash	7	advance_on_keypress_SLASH	96	stimuli_distractor_trianglediamonds.svg	stimuli_distractor_diamondtriangles.svg	36	no	57	0	496
6.6.0	win	2022-12-27	10:42:23	10:47:12	288447	5deb3c192235ad24f4a21826	698096341	1	main_slash	7	main_slash	97	stimuli_distractor_diamondtriangles.svg	stimuli_target_squaretriangles.svg	15	yes	53	1	1193
6.6.0	win	2022-12-27	10:42:23	10:47:12	288447	5deb3c192235ad24f4a21826	698096341	1	main_slash	7	advance_on_keypress_SLASH	98	stimuli_distractor_diamondtriangles.svg	stimuli_target_squaretriangles.svg	15	yes	57	0	700
6.6.0	win	2022-12-27	10:42:23	10:47:14	290791	5deb3c192235ad24f4a21826	698096341	1	main_slash	7	main_slash	99	stimuli_distractor_trianglediamonds.svg	stimuli_target_squarediamonds.svg	12	yes	53	1	1007
6.6.0	win	2022-12-27	10:42:23	10:47:14	290791	5deb3c192235ad24f4a21826	698096341	1	main_slash	7	advance_on_keypress_SLASH	100	stimuli_distractor_trianglediamonds.svg	stimuli_target_squarediamonds.svg	12	yes	57	0	560
6.6.0	win	2022-12-27	10:42:23	10:47:16	292654	5deb3c192235ad24f4a21826	698096341	1	main_slash	7	main_slash	101	stimuli_distractor_diamondtriangles.svg	stimuli_target_circletriangles.svg	13	yes	53	1	672
6.6.0	win	2022-12-27	10:42:23	10:47:16	292654	5deb3c192235ad24f4a21826	698096341	1	main_slash	7	advance_on_keypress_SLASH	102	stimuli_distractor_diamondtriangles.svg	stimuli_target_circletriangles.svg	13	yes	57	0	507
6.6.0	win	2022-12-27	10:42:23	10:47:18	294380	5deb3c192235ad24f4a21826	698096341	1	main_slash	7	main_slash	103	stimuli_target_circletriangles.svg	stimuli_distractor_diamondtriangles.svg	5	yes	53	1	584
6.6.0	win	2022-12-27	10:42:23	10:47:18	294380	5deb3c192235ad24f4a21826	698096341	1	main_slash	7	advance_on_keypress_SLASH	104	stimuli_target_circletriangles.svg	stimuli_distractor_diamondtriangles.svg	5	yes	57	0	203
6.6.0	win	2022-12-27	10:42:23	10:47:19	295922	5deb3c192235ad24f4a21826	698096341	1	main_slash	7	main_slash	105	stimuli_distractor_diamondtriangles.svg	stimuli_target_circlediamonds.svg	14	yes	53	1	693
6.6.0	win	2022-12-27	10:42:23	10:47:19	295922	5deb3c192235ad24f4a21826	698096341	1	main_slash	7	advance_on_keypress_SLASH	106	stimuli_distractor_diamondtriangles.svg	stimuli_target_circlediamonds.svg	14	yes	57	0	246
6.6.0	win	2022-12-27	10:42:23	10:47:21	297470	5deb3c192235ad24f4a21826	698096341	1	main_slash	7	main_slash	107	stimuli_target_diamondsquares.svg	stimuli_distractor_diamondtriangles.svg	24	yes	53	1	677
6.6.0	win	2022-12-27	10:42:23	10:47:21	297470	5deb3c192235ad24f4a21826	698096341	1	main_slash	7	advance_on_keypress_SLASH	108	stimuli_target_diamondsquares.svg	stimuli_distractor_diamondtriangles.svg	24	yes	57	0	192
6.6.0	win	2022-12-27	10:42:23	10:47:22	298978	5deb3c192235ad24f4a21826	698096341	1	main_slash	7	main_slash	109	stimuli_target_trianglesquares.svg	stimuli_distractor_diamondtriangles.svg	22	yes	53	1	686
6.6.0	win	2022-12-27	10:42:23	10:47:22	298978	5deb3c192235ad24f4a21826	698096341	1	main_slash	7	advance_on_keypress_SLASH	110	stimuli_target_trianglesquares.svg	stimuli_distractor_diamondtriangles.svg	22	yes	57	0	239
6.6.0	win	2022-12-27	10:42:23	10:47:24	301034	5deb3c192235ad24f4a21826	698096341	1	main_slash	7	main_slash	111	stimuli_target_circlediamonds.svg	stimuli_distractor_trianglediamonds.svg	2	yes	53	1	1177
6.6.0	win	2022-12-27	10:42:23	10:47:24	301034	5deb3c192235ad24f4a21826	698096341	1	main_slash	7	advance_on_keypress_SLASH	112	stimuli_target_circlediamonds.svg	stimuli_distractor_trianglediamonds.svg	2	yes	57	0	717
6.6.0	win	2022-12-27	10:42:23	10:47:26	303048	5deb3c192235ad24f4a21826	698096341	1	main_slash	7	main_slash	113	stimuli_target_squaretriangles.svg	stimuli_distractor_trianglediamonds.svg	3	yes	53	1	645
6.6.0	win	2022-12-27	10:42:23	10:47:26	303048	5deb3c192235ad24f4a21826	698096341	1	main_slash	7	advance_on_keypress_SLASH	114	stimuli_target_squaretriangles.svg	stimuli_distractor_trianglediamonds.svg	3	yes	57	0	267
6.6.0	win	2022-12-27	10:42:23	10:47:28	304664	5deb3c192235ad24f4a21826	698096341	1	main_slash	7	main_slash	115	stimuli_distractor_trianglediamonds.svg	stimuli_target_circlediamonds.svg	10	yes	53	1	712
6.6.0	win	2022-12-27	10:42:23	10:47:28	304664	5deb3c192235ad24f4a21826	698096341	1	main_slash	7	advance_on_keypress_SLASH	116	stimuli_distractor_trianglediamonds.svg	stimuli_target_circlediamonds.svg	10	yes	57	0	412
6.6.0	win	2022-12-27	10:42:23	10:47:30	306274	5deb3c192235ad24f4a21826	698096341	1	main_slash	7	main_slash	117	stimuli_distractor_diamondtriangles.svg	stimuli_distractor_trianglediamonds.svg	37	no	53	0	557
6.6.0	win	2022-12-27	10:42:23	10:47:30	306274	5deb3c192235ad24f4a21826	698096341	1	main_slash	7	advance_on_keypress_SLASH	118	stimuli_distractor_diamondtriangles.svg	stimuli_distractor_trianglediamonds.svg	37	no	57	0	347
6.6.0	win	2022-12-27	10:42:23	10:47:31	307837	5deb3c192235ad24f4a21826	698096341	1	main_slash	7	main_slash	119	stimuli_target_diamondsquares.svg	stimuli_distractor_trianglediamonds.svg	20	yes	53	1	572
6.6.0	win	2022-12-27	10:42:23	10:47:31	307837	5deb3c192235ad24f4a21826	698096341	1	main_slash	7	advance_on_keypress_SLASH	120	stimuli_target_diamondsquares.svg	stimuli_distractor_trianglediamonds.svg	20	yes	57	0	784
6.6.0	win	2022-12-27	10:42:23	10:47:33	309816	5deb3c192235ad24f4a21826	698096341	1	main_slash	7	main_slash	121	stimuli_target_trianglecircles.svg	stimuli_distractor_diamondtriangles.svg	21	yes	53	1	553
6.6.0	win	2022-12-27	10:42:23	10:47:33	309816	5deb3c192235ad24f4a21826	698096341	1	main_slash	7	advance_on_keypress_SLASH	122	stimuli_target_trianglecircles.svg	stimuli_distractor_diamondtriangles.svg	21	yes	57	0	548
6.6.0	win	2022-12-27	10:42:23	10:47:36	312641	5deb3c192235ad24f4a21826	698096341	1	main_slash	7	main_slash	123	stimuli_target_circletriangles.svg	stimuli_distractor_trianglediamonds.svg	1	yes	53	1	1631
6.6.0	win	2022-12-27	10:42:23	10:47:36	312641	5deb3c192235ad24f4a21826	698096341	1	main_slash	7	advance_on_keypress_SLASH	124	stimuli_target_circletriangles.svg	stimuli_distractor_trianglediamonds.svg	1	yes	57	0	483
6.6.0	win	2022-12-27	10:42:23	10:47:38	314478	5deb3c192235ad24f4a21826	698096341	1	main_slash	7	main_slash	125	stimuli_distractor_trianglediamonds.svg	stimuli_target_circletriangles.svg	9	yes	53	1	705
6.6.0	win	2022-12-27	10:42:23	10:47:38	314478	5deb3c192235ad24f4a21826	698096341	1	main_slash	7	advance_on_keypress_SLASH	126	stimuli_distractor_trianglediamonds.svg	stimuli_target_circletriangles.svg	9	yes	57	0	385
6.6.0	win	2022-12-27	10:42:23	10:47:41	317506	5deb3c192235ad24f4a21826	698096341	1	main_slash	7	main_slash	127	stimuli_distractor_trianglediamonds.svg	stimuli_distractor_trianglediamonds.svg	34	no	0	1	2000
6.6.0	win	2022-12-27	10:42:23	10:47:41	317506	5deb3c192235ad24f4a21826	698096341	1	main_slash	7	advance_on_keypress_SLASH	128	stimuli_distractor_trianglediamonds.svg	stimuli_distractor_trianglediamonds.svg	34	no	57	0	417
6.6.0	win	2022-12-27	10:42:23	10:47:43	319304	5deb3c192235ad24f4a21826	698096341	1	main_slash	7	main_slash	129	stimuli_distractor_diamondtriangles.svg	stimuli_target_squarediamonds.svg	16	yes	53	1	736
6.6.0	win	2022-12-27	10:42:23	10:47:43	319304	5deb3c192235ad24f4a21826	698096341	1	main_slash	7	advance_on_keypress_SLASH	130	stimuli_distractor_diamondtriangles.svg	stimuli_target_squarediamonds.svg	16	yes	57	0	380
6.6.0	win	2022-12-27	10:42:23	10:47:44	321131	5deb3c192235ad24f4a21826	698096341	1	main_slash	7	main_slash	131	stimuli_target_diamondcircles.svg	stimuli_distractor_diamondtriangles.svg	23	yes	53	1	798
6.6.0	win	2022-12-27	10:42:23	10:47:44	321131	5deb3c192235ad24f4a21826	698096341	1	main_slash	7	advance_on_keypress_SLASH	132	stimuli_target_diamondcircles.svg	stimuli_distractor_diamondtriangles.svg	23	yes	57	0	405
6.6.0	win	2022-12-27	10:42:23	10:47:48	324181	5deb3c192235ad24f4a21826	698096341	1	main_slash	7	main_slash	133	stimuli_distractor_trianglediamonds.svg	stimuli_distractor_trianglediamonds.svg	33	no	0	1	2000
6.6.0	win	2022-12-27	10:42:23	10:47:48	324181	5deb3c192235ad24f4a21826	698096341	1	main_slash	7	advance_on_keypress_SLASH	134	stimuli_distractor_trianglediamonds.svg	stimuli_distractor_trianglediamonds.svg	33	no	57	0	419
6.6.0	win	2022-12-27	10:42:23	10:47:49	325885	5deb3c192235ad24f4a21826	698096341	1	main_slash	7	main_slash	135	stimuli_distractor_trianglediamonds.svg	stimuli_target_squaretriangles.svg	11	yes	53	1	642
6.6.0	win	2022-12-27	10:42:23	10:47:49	325885	5deb3c192235ad24f4a21826	698096341	1	main_slash	7	advance_on_keypress_SLASH	136	stimuli_distractor_trianglediamonds.svg	stimuli_target_squaretriangles.svg	11	yes	57	0	173
6.6.0	win	2022-12-27	10:42:23	10:47:51	327465	5deb3c192235ad24f4a21826	698096341	1	main_slash	7	main_slash	137	stimuli_distractor_diamondtriangles.svg	stimuli_target_trianglecircles.svg	29	yes	53	1	772
6.6.0	win	2022-12-27	10:42:23	10:47:51	327465	5deb3c192235ad24f4a21826	698096341	1	main_slash	7	advance_on_keypress_SLASH	138	stimuli_distractor_diamondtriangles.svg	stimuli_target_trianglecircles.svg	29	yes	57	0	323
6.6.0	win	2022-12-27	10:42:23	10:47:52	329100	5deb3c192235ad24f4a21826	698096341	1	main_slash	7	main_slash	139	stimuli_target_trianglecircles.svg	stimuli_distractor_trianglediamonds.svg	17	yes	53	1	677
6.6.0	win	2022-12-27	10:42:23	10:47:52	329100	5deb3c192235ad24f4a21826	698096341	1	main_slash	7	advance_on_keypress_SLASH	140	stimuli_target_trianglecircles.svg	stimuli_distractor_trianglediamonds.svg	17	yes	57	0	268
6.6.0	win	2022-12-27	10:42:23	10:47:54	330675	5deb3c192235ad24f4a21826	698096341	1	main_slash	7	main_slash	141	stimuli_distractor_diamondtriangles.svg	stimuli_target_diamondcircles.svg	31	yes	53	1	671
6.6.0	win	2022-12-27	10:42:23	10:47:54	330675	5deb3c192235ad24f4a21826	698096341	1	main_slash	7	advance_on_keypress_SLASH	142	stimuli_distractor_diamondtriangles.svg	stimuli_target_diamondcircles.svg	31	yes	57	0	217
6.6.0	win	2022-12-27	10:42:23	10:47:56	332213	5deb3c192235ad24f4a21826	698096341	1	main_slash	7	main_slash	143	stimuli_distractor_trianglediamonds.svg	stimuli_target_trianglesquares.svg	26	yes	53	1	676
6.6.0	win	2022-12-27	10:42:23	10:47:56	332213	5deb3c192235ad24f4a21826	698096341	1	main_slash	7	advance_on_keypress_SLASH	144	stimuli_distractor_trianglediamonds.svg	stimuli_target_trianglesquares.svg	26	yes	57	0	356
6.6.0	win	2022-12-27	10:42:23	10:47:57	334026	5deb3c192235ad24f4a21826	698096341	1	main_slash	7	main_slash	145	stimuli_distractor_diamondtriangles.svg	stimuli_distractor_diamondtriangles.svg	39	no	53	0	824
6.6.0	win	2022-12-27	10:42:23	10:47:57	334026	5deb3c192235ad24f4a21826	698096341	1	main_slash	7	advance_on_keypress_SLASH	146	stimuli_distractor_diamondtriangles.svg	stimuli_distractor_diamondtriangles.svg	39	no	57	0	333
6.6.0	win	2022-12-27	10:42:23	10:47:59	335843	5deb3c192235ad24f4a21826	698096341	1	main_slash	7	main_slash	147	stimuli_target_squarediamonds.svg	stimuli_distractor_diamondtriangles.svg	8	yes	53	1	843
6.6.0	win	2022-12-27	10:42:23	10:47:59	335843	5deb3c192235ad24f4a21826	698096341	1	main_slash	7	advance_on_keypress_SLASH	148	stimuli_target_squarediamonds.svg	stimuli_distractor_diamondtriangles.svg	8	yes	57	0	412
6.6.0	win	2022-12-27	10:42:23	10:48:01	337692	5deb3c192235ad24f4a21826	698096341	1	main_slash	7	main_slash	149	stimuli_target_squaretriangles.svg	stimuli_distractor_diamondtriangles.svg	7	yes	53	1	811
6.6.0	win	2022-12-27	10:42:23	10:48:01	337692	5deb3c192235ad24f4a21826	698096341	1	main_slash	7	advance_on_keypress_SLASH	150	stimuli_target_squaretriangles.svg	stimuli_distractor_diamondtriangles.svg	7	yes	57	0	835
6.6.0	win	2022-12-27	10:42:23	10:48:03	339885	5deb3c192235ad24f4a21826	698096341	1	main_slash	7	main_slash	151	stimuli_distractor_diamondtriangles.svg	stimuli_distractor_trianglediamonds.svg	38	no	53	0	724
6.6.0	win	2022-12-27	10:42:23	10:48:03	339885	5deb3c192235ad24f4a21826	698096341	1	main_slash	7	advance_on_keypress_SLASH	152	stimuli_distractor_diamondtriangles.svg	stimuli_distractor_trianglediamonds.svg	38	no	57	0	799
6.6.0	win	2022-12-27	10:42:23	10:48:05	341963	5deb3c192235ad24f4a21826	698096341	1	main_slash	7	main_slash	153	stimuli_distractor_trianglediamonds.svg	stimuli_target_trianglecircles.svg	25	yes	53	1	637
6.6.0	win	2022-12-27	10:42:23	10:48:05	341963	5deb3c192235ad24f4a21826	698096341	1	main_slash	7	advance_on_keypress_SLASH	154	stimuli_distractor_trianglediamonds.svg	stimuli_target_trianglecircles.svg	25	yes	57	0	1211
6.6.0	win	2022-12-27	10:42:23	10:48:08	344900	5deb3c192235ad24f4a21826	698096341	1	main_slash	7	main_slash	155	stimuli_distractor_diamondtriangles.svg	stimuli_target_diamondsquares.svg	32	yes	53	1	1078
6.6.0	win	2022-12-27	10:42:23	10:48:08	344900	5deb3c192235ad24f4a21826	698096341	1	main_slash	7	advance_on_keypress_SLASH	156	stimuli_distractor_diamondtriangles.svg	stimuli_target_diamondsquares.svg	32	yes	57	0	1256
6.6.0	win	2022-12-27	10:42:23	10:48:11	347412	5deb3c192235ad24f4a21826	698096341	1	main_slash	7	main_slash	157	stimuli_target_squarediamonds.svg	stimuli_distractor_trianglediamonds.svg	4	yes	53	1	626
6.6.0	win	2022-12-27	10:42:23	10:48:11	347412	5deb3c192235ad24f4a21826	698096341	1	main_slash	7	advance_on_keypress_SLASH	158	stimuli_target_squarediamonds.svg	stimuli_distractor_trianglediamonds.svg	4	yes	57	0	417
6.6.0	win	2022-12-27	10:42:23	10:48:13	349188	5deb3c192235ad24f4a21826	698096341	1	main_slash	7	main_slash	159	stimuli_distractor_trianglediamonds.svg	stimuli_target_diamondcircles.svg	27	yes	53	1	721
6.6.0	win	2022-12-27	10:42:23	10:48:13	349188	5deb3c192235ad24f4a21826	698096341	1	main_slash	7	advance_on_keypress_SLASH	160	stimuli_distractor_trianglediamonds.svg	stimuli_target_diamondcircles.svg	27	yes	57	0	403
6.6.0	win	2022-12-27	10:42:23	10:48:27	363908	5deb3c192235ad24f4a21826	698096341	1	practice_z	9	practice_z	1	stimuli_target_circlediamonds.svg	stimuli_distractor_diamondtriangles.svg	1	yes	44	1	1021
6.6.0	win	2022-12-27	10:42:23	10:48:27	363908	5deb3c192235ad24f4a21826	698096341	1	practice_z	9	advance_on_keypress_ZEE	2	stimuli_target_circlediamonds.svg	stimuli_distractor_diamondtriangles.svg	1	yes	57	0	585
6.6.0	win	2022-12-27	10:42:23	10:48:30	366778	5deb3c192235ad24f4a21826	698096341	1	practice_z	9	practice_z	3	stimuli_target_diamondsquares.svg	stimuli_distractor_trianglediamonds.svg	6	yes	44	1	645
6.6.0	win	2022-12-27	10:42:23	10:48:30	366778	5deb3c192235ad24f4a21826	698096341	1	practice_z	9	advance_on_keypress_ZEE	4	stimuli_target_diamondsquares.svg	stimuli_distractor_trianglediamonds.svg	6	yes	57	0	371
6.6.0	win	2022-12-27	10:42:23	10:48:33	369402	5deb3c192235ad24f4a21826	698096341	1	practice_z	9	practice_z	5	stimuli_distractor_diamondtriangles.svg	stimuli_distractor_trianglediamonds.svg	14	no	44	0	606
6.6.0	win	2022-12-27	10:42:23	10:48:33	369402	5deb3c192235ad24f4a21826	698096341	1	practice_z	9	advance_on_keypress_ZEE	6	stimuli_distractor_diamondtriangles.svg	stimuli_distractor_trianglediamonds.svg	14	no	57	0	26
6.6.0	win	2022-12-27	10:42:23	10:48:36	372686	5deb3c192235ad24f4a21826	698096341	1	practice_z	9	practice_z	7	stimuli_target_circlediamonds.svg	stimuli_distractor_trianglediamonds.svg	4	yes	44	1	1625
6.6.0	win	2022-12-27	10:42:23	10:48:36	372686	5deb3c192235ad24f4a21826	698096341	1	practice_z	9	advance_on_keypress_ZEE	8	stimuli_target_circlediamonds.svg	stimuli_distractor_trianglediamonds.svg	4	yes	57	0	368
6.6.0	win	2022-12-27	10:42:23	10:48:39	375285	5deb3c192235ad24f4a21826	698096341	1	practice_z	9	practice_z	9	stimuli_distractor_diamondtriangles.svg	stimuli_target_trianglecircles.svg	9	yes	44	1	579
6.6.0	win	2022-12-27	10:42:23	10:48:39	375285	5deb3c192235ad24f4a21826	698096341	1	practice_z	9	advance_on_keypress_ZEE	10	stimuli_distractor_diamondtriangles.svg	stimuli_target_trianglecircles.svg	9	yes	57	0	267
6.6.0	win	2022-12-27	10:42:23	10:48:41	377661	5deb3c192235ad24f4a21826	698096341	1	practice_z	9	practice_z	11	stimuli_distractor_trianglediamonds.svg	stimuli_target_circlediamonds.svg	10	yes	44	1	458
6.6.0	win	2022-12-27	10:42:23	10:48:41	377661	5deb3c192235ad24f4a21826	698096341	1	practice_z	9	advance_on_keypress_ZEE	12	stimuli_distractor_trianglediamonds.svg	stimuli_target_circlediamonds.svg	10	yes	57	0	462
6.6.0	win	2022-12-27	10:42:23	10:48:45	381768	5deb3c192235ad24f4a21826	698096341	1	practice_z	9	practice_z	13	stimuli_distractor_diamondtriangles.svg	stimuli_distractor_diamondtriangles.svg	13	no	0	1	2000
6.6.0	win	2022-12-27	10:42:23	10:48:45	381768	5deb3c192235ad24f4a21826	698096341	1	practice_z	9	advance_on_keypress_ZEE	14	stimuli_distractor_diamondtriangles.svg	stimuli_distractor_diamondtriangles.svg	13	no	57	0	307
6.6.0	win	2022-12-27	10:42:23	10:48:48	384344	5deb3c192235ad24f4a21826	698096341	1	practice_z	9	practice_z	15	stimuli_distractor_diamondtriangles.svg	stimuli_target_circletriangles.svg	7	yes	44	1	631
6.6.0	win	2022-12-27	10:42:23	10:48:48	384344	5deb3c192235ad24f4a21826	698096341	1	practice_z	9	advance_on_keypress_ZEE	16	stimuli_distractor_diamondtriangles.svg	stimuli_target_circletriangles.svg	7	yes	57	0	393
6.6.0	win	2022-12-27	10:42:23	10:48:50	386782	5deb3c192235ad24f4a21826	698096341	1	practice_z	9	practice_z	17	stimuli_distractor_trianglediamonds.svg	stimuli_target_diamondcircles.svg	12	yes	44	1	406
6.6.0	win	2022-12-27	10:42:23	10:48:50	386782	5deb3c192235ad24f4a21826	698096341	1	practice_z	9	advance_on_keypress_ZEE	18	stimuli_distractor_trianglediamonds.svg	stimuli_target_diamondcircles.svg	12	yes	57	0	370
6.6.0	win	2022-12-27	10:42:23	10:48:53	389245	5deb3c192235ad24f4a21826	698096341	1	practice_z	9	practice_z	19	stimuli_distractor_trianglediamonds.svg	stimuli_distractor_diamondtriangles.svg	16	no	44	0	454
6.6.0	win	2022-12-27	10:42:23	10:48:53	389245	5deb3c192235ad24f4a21826	698096341	1	practice_z	9	advance_on_keypress_ZEE	20	stimuli_distractor_trianglediamonds.svg	stimuli_distractor_diamondtriangles.svg	16	no	57	0	356
6.6.0	win	2022-12-27	10:42:23	10:48:55	391866	5deb3c192235ad24f4a21826	698096341	1	practice_z	9	practice_z	21	stimuli_target_squarediamonds.svg	stimuli_distractor_trianglediamonds.svg	5	yes	44	1	629
6.6.0	win	2022-12-27	10:42:23	10:48:55	391866	5deb3c192235ad24f4a21826	698096341	1	practice_z	9	advance_on_keypress_ZEE	22	stimuli_target_squarediamonds.svg	stimuli_distractor_trianglediamonds.svg	5	yes	57	0	356
6.6.0	win	2022-12-27	10:42:23	10:48:59	395868	5deb3c192235ad24f4a21826	698096341	1	practice_z	9	practice_z	23	stimuli_distractor_trianglediamonds.svg	stimuli_distractor_trianglediamonds.svg	15	no	0	1	2000
6.6.0	win	2022-12-27	10:42:23	10:48:59	395868	5deb3c192235ad24f4a21826	698096341	1	practice_z	9	advance_on_keypress_ZEE	24	stimuli_distractor_trianglediamonds.svg	stimuli_distractor_trianglediamonds.svg	15	no	57	0	416
6.6.0	win	2022-12-27	10:42:23	10:49:02	398734	5deb3c192235ad24f4a21826	698096341	1	practice_z	9	practice_z	25	stimuli_distractor_trianglediamonds.svg	stimuli_target_squarediamonds.svg	11	yes	44	1	804
6.6.0	win	2022-12-27	10:42:23	10:49:02	398734	5deb3c192235ad24f4a21826	698096341	1	practice_z	9	advance_on_keypress_ZEE	26	stimuli_distractor_trianglediamonds.svg	stimuli_target_squarediamonds.svg	11	yes	57	0	513
6.6.0	win	2022-12-27	10:42:23	10:49:05	401651	5deb3c192235ad24f4a21826	698096341	1	practice_z	9	practice_z	27	stimuli_distractor_diamondtriangles.svg	stimuli_target_diamondcircles.svg	8	yes	44	1	757
6.6.0	win	2022-12-27	10:42:23	10:49:05	401651	5deb3c192235ad24f4a21826	698096341	1	practice_z	9	advance_on_keypress_ZEE	28	stimuli_distractor_diamondtriangles.svg	stimuli_target_diamondcircles.svg	8	yes	57	0	400
6.6.0	win	2022-12-27	10:42:23	10:49:08	404349	5deb3c192235ad24f4a21826	698096341	1	practice_z	9	practice_z	29	stimuli_target_squarediamonds.svg	stimuli_distractor_diamondtriangles.svg	2	yes	44	1	658
6.6.0	win	2022-12-27	10:42:23	10:49:08	404349	5deb3c192235ad24f4a21826	698096341	1	practice_z	9	advance_on_keypress_ZEE	30	stimuli_target_squarediamonds.svg	stimuli_distractor_diamondtriangles.svg	2	yes	57	0	492
6.6.0	win	2022-12-27	10:42:23	10:49:11	407210	5deb3c192235ad24f4a21826	698096341	1	practice_z	9	practice_z	31	stimuli_target_diamondsquares.svg	stimuli_distractor_diamondtriangles.svg	3	yes	44	1	723
6.6.0	win	2022-12-27	10:42:23	10:49:11	407210	5deb3c192235ad24f4a21826	698096341	1	practice_z	9	advance_on_keypress_ZEE	32	stimuli_target_diamondsquares.svg	stimuli_distractor_diamondtriangles.svg	3	yes	57	0	456
6.6.0	win	2022-12-27	10:42:23	10:49:14	410403	5deb3c192235ad24f4a21826	698096341	1	main_z	11	main_z	1	stimuli_distractor_trianglediamonds.svg	stimuli_target_squaretriangles.svg	11	yes	44	1	672
6.6.0	win	2022-12-27	10:42:23	10:49:14	410403	5deb3c192235ad24f4a21826	698096341	1	main_z	11	advance_on_keypress_ZEE	2	stimuli_distractor_trianglediamonds.svg	stimuli_target_squaretriangles.svg	11	yes	57	0	619
6.6.0	win	2022-12-27	10:42:23	10:49:16	412333	5deb3c192235ad24f4a21826	698096341	1	main_z	11	main_z	3	stimuli_distractor_diamondtriangles.svg	stimuli_target_trianglesquares.svg	30	yes	44	1	671
6.6.0	win	2022-12-27	10:42:23	10:49:16	412333	5deb3c192235ad24f4a21826	698096341	1	main_z	11	advance_on_keypress_ZEE	4	stimuli_distractor_diamondtriangles.svg	stimuli_target_trianglesquares.svg	30	yes	57	0	517
6.6.0	win	2022-12-27	10:42:23	10:49:18	414165	5deb3c192235ad24f4a21826	698096341	1	main_z	11	main_z	5	stimuli_distractor_trianglediamonds.svg	stimuli_target_diamondcircles.svg	27	yes	44	1	672
6.6.0	win	2022-12-27	10:42:23	10:49:18	414165	5deb3c192235ad24f4a21826	698096341	1	main_z	11	advance_on_keypress_ZEE	6	stimuli_distractor_trianglediamonds.svg	stimuli_target_diamondcircles.svg	27	yes	57	0	768
6.6.0	win	2022-12-27	10:42:23	10:49:20	416293	5deb3c192235ad24f4a21826	698096341	1	main_z	11	main_z	7	stimuli_target_trianglecircles.svg	stimuli_distractor_trianglediamonds.svg	17	yes	44	1	719
6.6.0	win	2022-12-27	10:42:23	10:49:20	416293	5deb3c192235ad24f4a21826	698096341	1	main_z	11	advance_on_keypress_ZEE	8	stimuli_target_trianglecircles.svg	stimuli_distractor_trianglediamonds.svg	17	yes	57	0	476
6.6.0	win	2022-12-27	10:42:23	10:49:21	418133	5deb3c192235ad24f4a21826	698096341	1	main_z	11	main_z	9	stimuli_target_trianglecircles.svg	stimuli_distractor_diamondtriangles.svg	21	yes	44	1	728
6.6.0	win	2022-12-27	10:42:23	10:49:21	418133	5deb3c192235ad24f4a21826	698096341	1	main_z	11	advance_on_keypress_ZEE	10	stimuli_target_trianglecircles.svg	stimuli_distractor_diamondtriangles.svg	21	yes	57	0	461
6.6.0	win	2022-12-27	10:42:23	10:49:23	420140	5deb3c192235ad24f4a21826	698096341	1	main_z	11	main_z	11	stimuli_target_circlediamonds.svg	stimuli_distractor_trianglediamonds.svg	2	yes	44	1	920
6.6.0	win	2022-12-27	10:42:23	10:49:23	420140	5deb3c192235ad24f4a21826	698096341	1	main_z	11	advance_on_keypress_ZEE	12	stimuli_target_circlediamonds.svg	stimuli_distractor_trianglediamonds.svg	2	yes	57	0	534
6.6.0	win	2022-12-27	10:42:23	10:49:25	422036	5deb3c192235ad24f4a21826	698096341	1	main_z	11	main_z	13	stimuli_distractor_trianglediamonds.svg	stimuli_target_diamondsquares.svg	28	yes	44	1	719
6.6.0	win	2022-12-27	10:42:23	10:49:25	422036	5deb3c192235ad24f4a21826	698096341	1	main_z	11	advance_on_keypress_ZEE	14	stimuli_distractor_trianglediamonds.svg	stimuli_target_diamondsquares.svg	28	yes	57	0	462
6.6.0	win	2022-12-27	10:42:23	10:49:27	423833	5deb3c192235ad24f4a21826	698096341	1	main_z	11	main_z	15	stimuli_target_squarediamonds.svg	stimuli_distractor_trianglediamonds.svg	4	yes	44	1	701
6.6.0	win	2022-12-27	10:42:23	10:49:27	423833	5deb3c192235ad24f4a21826	698096341	1	main_z	11	advance_on_keypress_ZEE	16	stimuli_target_squarediamonds.svg	stimuli_distractor_trianglediamonds.svg	4	yes	57	0	469
6.6.0	win	2022-12-27	10:42:23	10:49:30	426946	5deb3c192235ad24f4a21826	698096341	1	main_z	11	main_z	17	stimuli_distractor_trianglediamonds.svg	stimuli_distractor_diamondtriangles.svg	36	no	0	1	2000
6.6.0	win	2022-12-27	10:42:23	10:49:30	426946	5deb3c192235ad24f4a21826	698096341	1	main_z	11	advance_on_keypress_ZEE	18	stimuli_distractor_trianglediamonds.svg	stimuli_distractor_diamondtriangles.svg	36	no	57	0	363
6.6.0	win	2022-12-27	10:42:23	10:49:32	428579	5deb3c192235ad24f4a21826	698096341	1	main_z	11	main_z	19	stimuli_target_trianglesquares.svg	stimuli_distractor_trianglediamonds.svg	18	yes	44	1	619
6.6.0	win	2022-12-27	10:42:23	10:49:32	428579	5deb3c192235ad24f4a21826	698096341	1	main_z	11	advance_on_keypress_ZEE	20	stimuli_target_trianglesquares.svg	stimuli_distractor_trianglediamonds.svg	18	yes	57	0	448
6.6.0	win	2022-12-27	10:42:23	10:49:34	430540	5deb3c192235ad24f4a21826	698096341	1	main_z	11	main_z	21	stimuli_target_squaretriangles.svg	stimuli_distractor_diamondtriangles.svg	7	yes	44	1	865
6.6.0	win	2022-12-27	10:42:23	10:49:34	430540	5deb3c192235ad24f4a21826	698096341	1	main_z	11	advance_on_keypress_ZEE	22	stimuli_target_squaretriangles.svg	stimuli_distractor_diamondtriangles.svg	7	yes	57	0	485
6.6.0	win	2022-12-27	10:42:23	10:49:36	432403	5deb3c192235ad24f4a21826	698096341	1	main_z	11	main_z	23	stimuli_distractor_diamondtriangles.svg	stimuli_target_diamondsquares.svg	32	yes	44	1	730
6.6.0	win	2022-12-27	10:42:23	10:49:36	432403	5deb3c192235ad24f4a21826	698096341	1	main_z	11	advance_on_keypress_ZEE	24	stimuli_distractor_diamondtriangles.svg	stimuli_target_diamondsquares.svg	32	yes	57	0	508
6.6.0	win	2022-12-27	10:42:23	10:49:38	434319	5deb3c192235ad24f4a21826	698096341	1	main_z	11	main_z	25	stimuli_distractor_diamondtriangles.svg	stimuli_target_trianglecircles.svg	29	yes	44	1	765
6.6.0	win	2022-12-27	10:42:23	10:49:38	434319	5deb3c192235ad24f4a21826	698096341	1	main_z	11	advance_on_keypress_ZEE	26	stimuli_distractor_diamondtriangles.svg	stimuli_target_trianglecircles.svg	29	yes	57	0	536
6.6.0	win	2022-12-27	10:42:23	10:49:41	437501	5deb3c192235ad24f4a21826	698096341	1	main_z	11	main_z	27	stimuli_distractor_diamondtriangles.svg	stimuli_distractor_diamondtriangles.svg	39	no	0	1	2000
6.6.0	win	2022-12-27	10:42:23	10:49:41	437501	5deb3c192235ad24f4a21826	698096341	1	main_z	11	advance_on_keypress_ZEE	28	stimuli_distractor_diamondtriangles.svg	stimuli_distractor_diamondtriangles.svg	39	no	57	0	510
6.6.0	win	2022-12-27	10:42:23	10:49:43	439270	5deb3c192235ad24f4a21826	698096341	1	main_z	11	main_z	29	stimuli_target_squaretriangles.svg	stimuli_distractor_trianglediamonds.svg	3	yes	44	1	622
6.6.0	win	2022-12-27	10:42:23	10:49:43	439270	5deb3c192235ad24f4a21826	698096341	1	main_z	11	advance_on_keypress_ZEE	30	stimuli_target_squaretriangles.svg	stimuli_distractor_trianglediamonds.svg	3	yes	57	0	544
6.6.0	win	2022-12-27	10:42:23	10:49:45	441559	5deb3c192235ad24f4a21826	698096341	1	main_z	11	main_z	31	stimuli_target_circlediamonds.svg	stimuli_distractor_diamondtriangles.svg	6	yes	44	1	1115
6.6.0	win	2022-12-27	10:42:23	10:49:45	441559	5deb3c192235ad24f4a21826	698096341	1	main_z	11	advance_on_keypress_ZEE	32	stimuli_target_circlediamonds.svg	stimuli_distractor_diamondtriangles.svg	6	yes	57	0	442
6.6.0	win	2022-12-27	10:42:23	10:49:48	444643	5deb3c192235ad24f4a21826	698096341	1	main_z	11	main_z	33	stimuli_distractor_diamondtriangles.svg	stimuli_distractor_diamondtriangles.svg	40	no	0	1	2000
6.6.0	win	2022-12-27	10:42:23	10:49:48	444643	5deb3c192235ad24f4a21826	698096341	1	main_z	11	advance_on_keypress_ZEE	34	stimuli_distractor_diamondtriangles.svg	stimuli_distractor_diamondtriangles.svg	40	no	57	0	331
6.6.0	win	2022-12-27	10:42:23	10:49:50	446278	5deb3c192235ad24f4a21826	698096341	1	main_z	11	main_z	35	stimuli_distractor_diamondtriangles.svg	stimuli_target_diamondcircles.svg	31	yes	44	1	655
6.6.0	win	2022-12-27	10:42:23	10:49:50	446278	5deb3c192235ad24f4a21826	698096341	1	main_z	11	advance_on_keypress_ZEE	36	stimuli_distractor_diamondtriangles.svg	stimuli_target_diamondcircles.svg	31	yes	57	0	490
6.6.0	win	2022-12-27	10:42:23	10:49:52	448148	5deb3c192235ad24f4a21826	698096341	1	main_z	11	main_z	37	stimuli_target_diamondcircles.svg	stimuli_distractor_trianglediamonds.svg	19	yes	44	1	744
6.6.0	win	2022-12-27	10:42:23	10:49:52	448148	5deb3c192235ad24f4a21826	698096341	1	main_z	11	advance_on_keypress_ZEE	38	stimuli_target_diamondcircles.svg	stimuli_distractor_trianglediamonds.svg	19	yes	57	0	489
6.6.0	win	2022-12-27	10:42:23	10:49:54	450226	5deb3c192235ad24f4a21826	698096341	1	main_z	11	main_z	39	stimuli_distractor_trianglediamonds.svg	stimuli_target_trianglecircles.svg	25	yes	44	1	957
6.6.0	win	2022-12-27	10:42:23	10:49:54	450226	5deb3c192235ad24f4a21826	698096341	1	main_z	11	advance_on_keypress_ZEE	40	stimuli_distractor_trianglediamonds.svg	stimuli_target_trianglecircles.svg	25	yes	57	0	483
6.6.0	win	2022-12-27	10:42:23	10:49:55	452078	5deb3c192235ad24f4a21826	698096341	1	main_z	11	main_z	41	stimuli_distractor_diamondtriangles.svg	stimuli_target_squarediamonds.svg	16	yes	44	1	728
6.6.0	win	2022-12-27	10:42:23	10:49:55	452078	5deb3c192235ad24f4a21826	698096341	1	main_z	11	advance_on_keypress_ZEE	42	stimuli_distractor_diamondtriangles.svg	stimuli_target_squarediamonds.svg	16	yes	57	0	432
6.6.0	win	2022-12-27	10:42:23	10:49:57	453734	5deb3c192235ad24f4a21826	698096341	1	main_z	11	main_z	43	stimuli_distractor_diamondtriangles.svg	stimuli_target_circlediamonds.svg	14	yes	44	1	569
6.6.0	win	2022-12-27	10:42:23	10:49:57	453734	5deb3c192235ad24f4a21826	698096341	1	main_z	11	advance_on_keypress_ZEE	44	stimuli_distractor_diamondtriangles.svg	stimuli_target_circlediamonds.svg	14	yes	57	0	421
6.6.0	win	2022-12-27	10:42:23	10:49:59	455369	5deb3c192235ad24f4a21826	698096341	1	main_z	11	main_z	45	stimuli_target_circletriangles.svg	stimuli_distractor_trianglediamonds.svg	1	yes	44	1	573
6.6.0	win	2022-12-27	10:42:23	10:49:59	455369	5deb3c192235ad24f4a21826	698096341	1	main_z	11	advance_on_keypress_ZEE	46	stimuli_target_circletriangles.svg	stimuli_distractor_trianglediamonds.svg	1	yes	57	0	285
6.6.0	win	2022-12-27	10:42:23	10:50:00	456918	5deb3c192235ad24f4a21826	698096341	1	main_z	11	main_z	47	stimuli_distractor_trianglediamonds.svg	stimuli_target_circlediamonds.svg	10	yes	44	1	624
6.6.0	win	2022-12-27	10:42:23	10:50:00	456918	5deb3c192235ad24f4a21826	698096341	1	main_z	11	advance_on_keypress_ZEE	48	stimuli_distractor_trianglediamonds.svg	stimuli_target_circlediamonds.svg	10	yes	57	0	304
6.6.0	win	2022-12-27	10:42:23	10:50:02	458495	5deb3c192235ad24f4a21826	698096341	1	main_z	11	main_z	49	stimuli_distractor_diamondtriangles.svg	stimuli_target_squaretriangles.svg	15	yes	44	1	637
6.6.0	win	2022-12-27	10:42:23	10:50:02	458495	5deb3c192235ad24f4a21826	698096341	1	main_z	11	advance_on_keypress_ZEE	50	stimuli_distractor_diamondtriangles.svg	stimuli_target_squaretriangles.svg	15	yes	57	0	397
6.6.0	win	2022-12-27	10:42:23	10:50:04	460216	5deb3c192235ad24f4a21826	698096341	1	main_z	11	main_z	51	stimuli_distractor_trianglediamonds.svg	stimuli_target_trianglesquares.svg	26	yes	44	1	676
6.6.0	win	2022-12-27	10:42:23	10:50:04	460216	5deb3c192235ad24f4a21826	698096341	1	main_z	11	advance_on_keypress_ZEE	52	stimuli_distractor_trianglediamonds.svg	stimuli_target_trianglesquares.svg	26	yes	57	0	443
6.6.0	win	2022-12-27	10:42:23	10:50:05	462114	5deb3c192235ad24f4a21826	698096341	1	main_z	11	main_z	53	stimuli_target_diamondsquares.svg	stimuli_distractor_diamondtriangles.svg	24	yes	44	1	825
6.6.0	win	2022-12-27	10:42:23	10:50:05	462114	5deb3c192235ad24f4a21826	698096341	1	main_z	11	advance_on_keypress_ZEE	54	stimuli_target_diamondsquares.svg	stimuli_distractor_diamondtriangles.svg	24	yes	57	0	465
6.6.0	win	2022-12-27	10:42:23	10:50:09	465219	5deb3c192235ad24f4a21826	698096341	1	main_z	11	main_z	55	stimuli_distractor_trianglediamonds.svg	stimuli_distractor_diamondtriangles.svg	35	no	0	1	2000
6.6.0	win	2022-12-27	10:42:23	10:50:09	465219	5deb3c192235ad24f4a21826	698096341	1	main_z	11	advance_on_keypress_ZEE	56	stimuli_distractor_trianglediamonds.svg	stimuli_distractor_diamondtriangles.svg	35	no	57	0	349
6.6.0	win	2022-12-27	10:42:23	10:50:12	468215	5deb3c192235ad24f4a21826	698096341	1	main_z	11	main_z	57	stimuli_distractor_trianglediamonds.svg	stimuli_distractor_trianglediamonds.svg	33	no	0	1	2000
6.6.0	win	2022-12-27	10:42:23	10:50:12	468215	5deb3c192235ad24f4a21826	698096341	1	main_z	11	advance_on_keypress_ZEE	58	stimuli_distractor_trianglediamonds.svg	stimuli_distractor_trianglediamonds.svg	33	no	57	0	4
6.6.0	win	2022-12-27	10:42:23	10:50:14	470880	5deb3c192235ad24f4a21826	698096341	1	main_z	11	main_z	59	stimuli_distractor_diamondtriangles.svg	stimuli_distractor_trianglediamonds.svg	37	no	0	1	2000
6.6.0	win	2022-12-27	10:42:23	10:50:14	470880	5deb3c192235ad24f4a21826	698096341	1	main_z	11	advance_on_keypress_ZEE	60	stimuli_distractor_diamondtriangles.svg	stimuli_distractor_trianglediamonds.svg	37	no	57	0	348
6.6.0	win	2022-12-27	10:42:23	10:50:16	472749	5deb3c192235ad24f4a21826	698096341	1	main_z	11	main_z	61	stimuli_distractor_trianglediamonds.svg	stimuli_target_squarediamonds.svg	12	yes	44	1	873
6.6.0	win	2022-12-27	10:42:23	10:50:16	472749	5deb3c192235ad24f4a21826	698096341	1	main_z	11	advance_on_keypress_ZEE	62	stimuli_distractor_trianglediamonds.svg	stimuli_target_squarediamonds.svg	12	yes	57	0	578
6.6.0	win	2022-12-27	10:42:23	10:50:18	474704	5deb3c192235ad24f4a21826	698096341	1	main_z	11	main_z	63	stimuli_distractor_diamondtriangles.svg	stimuli_target_circletriangles.svg	13	yes	44	1	747
6.6.0	win	2022-12-27	10:42:23	10:50:18	474704	5deb3c192235ad24f4a21826	698096341	1	main_z	11	advance_on_keypress_ZEE	64	stimuli_distractor_diamondtriangles.svg	stimuli_target_circletriangles.svg	13	yes	57	0	472
6.6.0	win	2022-12-27	10:42:23	10:50:20	476462	5deb3c192235ad24f4a21826	698096341	1	main_z	11	main_z	65	stimuli_target_circletriangles.svg	stimuli_distractor_diamondtriangles.svg	5	yes	44	1	640
6.6.0	win	2022-12-27	10:42:23	10:50:20	476462	5deb3c192235ad24f4a21826	698096341	1	main_z	11	advance_on_keypress_ZEE	66	stimuli_target_circletriangles.svg	stimuli_distractor_diamondtriangles.svg	5	yes	57	0	480
6.6.0	win	2022-12-27	10:42:23	10:50:22	478261	5deb3c192235ad24f4a21826	698096341	1	main_z	11	main_z	67	stimuli_target_diamondcircles.svg	stimuli_distractor_diamondtriangles.svg	23	yes	44	1	676
6.6.0	win	2022-12-27	10:42:23	10:50:22	478261	5deb3c192235ad24f4a21826	698096341	1	main_z	11	advance_on_keypress_ZEE	68	stimuli_target_diamondcircles.svg	stimuli_distractor_diamondtriangles.svg	23	yes	57	0	453
6.6.0	win	2022-12-27	10:42:23	10:50:24	480846	5deb3c192235ad24f4a21826	698096341	1	main_z	11	main_z	69	stimuli_distractor_trianglediamonds.svg	stimuli_distractor_trianglediamonds.svg	34	no	44	0	1496
6.6.0	win	2022-12-27	10:42:23	10:50:24	480846	5deb3c192235ad24f4a21826	698096341	1	main_z	11	advance_on_keypress_ZEE	70	stimuli_distractor_trianglediamonds.svg	stimuli_distractor_trianglediamonds.svg	34	no	57	0	570
6.6.0	win	2022-12-27	10:42:23	10:50:26	483008	5deb3c192235ad24f4a21826	698096341	1	main_z	11	main_z	71	stimuli_target_trianglesquares.svg	stimuli_distractor_diamondtriangles.svg	22	yes	44	1	943
6.6.0	win	2022-12-27	10:42:23	10:50:26	483008	5deb3c192235ad24f4a21826	698096341	1	main_z	11	advance_on_keypress_ZEE	72	stimuli_target_trianglesquares.svg	stimuli_distractor_diamondtriangles.svg	22	yes	57	0	426
6.6.0	win	2022-12-27	10:42:23	10:50:28	485047	5deb3c192235ad24f4a21826	698096341	1	main_z	11	main_z	73	stimuli_target_diamondsquares.svg	stimuli_distractor_trianglediamonds.svg	20	yes	44	1	985
6.6.0	win	2022-12-27	10:42:23	10:50:28	485047	5deb3c192235ad24f4a21826	698096341	1	main_z	11	advance_on_keypress_ZEE	74	stimuli_target_diamondsquares.svg	stimuli_distractor_trianglediamonds.svg	20	yes	57	0	505
6.6.0	win	2022-12-27	10:42:23	10:50:31	487236	5deb3c192235ad24f4a21826	698096341	1	main_z	11	main_z	75	stimuli_distractor_diamondtriangles.svg	stimuli_distractor_trianglediamonds.svg	38	no	44	0	1044
6.6.0	win	2022-12-27	10:42:23	10:50:31	487236	5deb3c192235ad24f4a21826	698096341	1	main_z	11	advance_on_keypress_ZEE	76	stimuli_distractor_diamondtriangles.svg	stimuli_distractor_trianglediamonds.svg	38	no	57	0	568
6.6.0	win	2022-12-27	10:42:23	10:50:32	489132	5deb3c192235ad24f4a21826	698096341	1	main_z	11	main_z	77	stimuli_target_squarediamonds.svg	stimuli_distractor_diamondtriangles.svg	8	yes	44	1	692
6.6.0	win	2022-12-27	10:42:23	10:50:32	489132	5deb3c192235ad24f4a21826	698096341	1	main_z	11	advance_on_keypress_ZEE	78	stimuli_target_squarediamonds.svg	stimuli_distractor_diamondtriangles.svg	8	yes	57	0	350
6.6.0	win	2022-12-27	10:42:23	10:50:34	490750	5deb3c192235ad24f4a21826	698096341	1	main_z	11	main_z	79	stimuli_distractor_trianglediamonds.svg	stimuli_target_circletriangles.svg	9	yes	44	1	628
6.6.0	win	2022-12-27	10:42:23	10:50:34	490750	5deb3c192235ad24f4a21826	698096341	1	main_z	11	advance_on_keypress_ZEE	80	stimuli_distractor_trianglediamonds.svg	stimuli_target_circletriangles.svg	9	yes	57	0	403
6.6.0	win	2022-12-27	10:42:23	10:50:36	492440	5deb3c192235ad24f4a21826	698096341	1	main_z	11	main_z	81	stimuli_target_trianglecircles.svg	stimuli_distractor_diamondtriangles.svg	21	yes	44	1	654
6.6.0	win	2022-12-27	10:42:23	10:50:36	492440	5deb3c192235ad24f4a21826	698096341	1	main_z	11	advance_on_keypress_ZEE	82	stimuli_target_trianglecircles.svg	stimuli_distractor_diamondtriangles.svg	21	yes	57	0	430
6.6.0	win	2022-12-27	10:42:23	10:50:38	494369	5deb3c192235ad24f4a21826	698096341	1	main_z	11	main_z	83	stimuli_distractor_diamondtriangles.svg	stimuli_target_circletriangles.svg	13	yes	44	1	851
6.6.0	win	2022-12-27	10:42:23	10:50:38	494369	5deb3c192235ad24f4a21826	698096341	1	main_z	11	advance_on_keypress_ZEE	84	stimuli_distractor_diamondtriangles.svg	stimuli_target_circletriangles.svg	13	yes	57	0	378
6.6.0	win	2022-12-27	10:42:23	10:50:40	496188	5deb3c192235ad24f4a21826	698096341	1	main_z	11	main_z	85	stimuli_distractor_trianglediamonds.svg	stimuli_target_squaretriangles.svg	11	yes	44	1	805
6.6.0	win	2022-12-27	10:42:23	10:50:40	496188	5deb3c192235ad24f4a21826	698096341	1	main_z	11	advance_on_keypress_ZEE	86	stimuli_distractor_trianglediamonds.svg	stimuli_target_squaretriangles.svg	11	yes	57	0	472
6.6.0	win	2022-12-27	10:42:23	10:50:41	498008	5deb3c192235ad24f4a21826	698096341	1	main_z	11	main_z	87	stimuli_distractor_diamondtriangles.svg	stimuli_target_squaretriangles.svg	15	yes	44	1	711
6.6.0	win	2022-12-27	10:42:23	10:50:41	498008	5deb3c192235ad24f4a21826	698096341	1	main_z	11	advance_on_keypress_ZEE	88	stimuli_distractor_diamondtriangles.svg	stimuli_target_squaretriangles.svg	15	yes	57	0	639
6.6.0	win	2022-12-27	10:42:23	10:50:44	500254	5deb3c192235ad24f4a21826	698096341	1	main_z	11	main_z	89	stimuli_target_diamondsquares.svg	stimuli_distractor_diamondtriangles.svg	24	yes	44	1	976
6.6.0	win	2022-12-27	10:42:23	10:50:44	500254	5deb3c192235ad24f4a21826	698096341	1	main_z	11	advance_on_keypress_ZEE	90	stimuli_target_diamondsquares.svg	stimuli_distractor_diamondtriangles.svg	24	yes	57	0	525
6.6.0	win	2022-12-27	10:42:23	10:50:46	502450	5deb3c192235ad24f4a21826	698096341	1	main_z	11	main_z	91	stimuli_distractor_trianglediamonds.svg	stimuli_target_diamondsquares.svg	28	yes	44	1	1041
6.6.0	win	2022-12-27	10:42:23	10:50:46	502450	5deb3c192235ad24f4a21826	698096341	1	main_z	11	advance_on_keypress_ZEE	92	stimuli_distractor_trianglediamonds.svg	stimuli_target_diamondsquares.svg	28	yes	57	0	642
6.6.0	win	2022-12-27	10:42:23	10:50:48	504703	5deb3c192235ad24f4a21826	698096341	1	main_z	11	main_z	93	stimuli_target_trianglecircles.svg	stimuli_distractor_trianglediamonds.svg	17	yes	44	1	980
6.6.0	win	2022-12-27	10:42:23	10:50:48	504703	5deb3c192235ad24f4a21826	698096341	1	main_z	11	advance_on_keypress_ZEE	94	stimuli_target_trianglecircles.svg	stimuli_distractor_trianglediamonds.svg	17	yes	57	0	334
6.6.0	win	2022-12-27	10:42:23	10:50:50	506707	5deb3c192235ad24f4a21826	698096341	1	main_z	11	main_z	95	stimuli_distractor_trianglediamonds.svg	stimuli_target_diamondcircles.svg	27	yes	44	1	1020
6.6.0	win	2022-12-27	10:42:23	10:50:50	506707	5deb3c192235ad24f4a21826	698096341	1	main_z	11	advance_on_keypress_ZEE	96	stimuli_distractor_trianglediamonds.svg	stimuli_target_diamondcircles.svg	27	yes	57	0	1234
6.6.0	win	2022-12-27	10:42:23	10:50:53	509186	5deb3c192235ad24f4a21826	698096341	1	main_z	11	main_z	97	stimuli_target_diamondcircles.svg	stimuli_distractor_diamondtriangles.svg	23	yes	44	1	603
6.6.0	win	2022-12-27	10:42:23	10:50:53	509186	5deb3c192235ad24f4a21826	698096341	1	main_z	11	advance_on_keypress_ZEE	98	stimuli_target_diamondcircles.svg	stimuli_distractor_diamondtriangles.svg	23	yes	57	0	407
6.6.0	win	2022-12-27	10:42:23	10:50:56	512232	5deb3c192235ad24f4a21826	698096341	1	main_z	11	main_z	99	stimuli_distractor_trianglediamonds.svg	stimuli_distractor_diamondtriangles.svg	35	no	0	1	2000
6.6.0	win	2022-12-27	10:42:23	10:50:56	512232	5deb3c192235ad24f4a21826	698096341	1	main_z	11	advance_on_keypress_ZEE	100	stimuli_distractor_trianglediamonds.svg	stimuli_distractor_diamondtriangles.svg	35	no	57	0	430
6.6.0	win	2022-12-27	10:42:23	10:50:57	514060	5deb3c192235ad24f4a21826	698096341	1	main_z	11	main_z	101	stimuli_target_squarediamonds.svg	stimuli_distractor_trianglediamonds.svg	4	yes	44	1	748
6.6.0	win	2022-12-27	10:42:23	10:50:57	514060	5deb3c192235ad24f4a21826	698096341	1	main_z	11	advance_on_keypress_ZEE	102	stimuli_target_squarediamonds.svg	stimuli_distractor_trianglediamonds.svg	4	yes	57	0	406
6.6.0	win	2022-12-27	10:42:23	10:50:59	515822	5deb3c192235ad24f4a21826	698096341	1	main_z	11	main_z	103	stimuli_target_circletriangles.svg	stimuli_distractor_trianglediamonds.svg	1	yes	44	1	712
6.6.0	win	2022-12-27	10:42:23	10:50:59	515822	5deb3c192235ad24f4a21826	698096341	1	main_z	11	advance_on_keypress_ZEE	104	stimuli_target_circletriangles.svg	stimuli_distractor_trianglediamonds.svg	1	yes	57	0	658
6.6.0	win	2022-12-27	10:42:23	10:51:01	518131	5deb3c192235ad24f4a21826	698096341	1	main_z	11	main_z	105	stimuli_distractor_diamondtriangles.svg	stimuli_target_diamondsquares.svg	32	yes	44	1	1007
6.6.0	win	2022-12-27	10:42:23	10:51:01	518131	5deb3c192235ad24f4a21826	698096341	1	main_z	11	advance_on_keypress_ZEE	106	stimuli_distractor_diamondtriangles.svg	stimuli_target_diamondsquares.svg	32	yes	57	0	434
6.6.0	win	2022-12-27	10:42:23	10:51:05	521206	5deb3c192235ad24f4a21826	698096341	1	main_z	11	main_z	107	stimuli_distractor_diamondtriangles.svg	stimuli_distractor_diamondtriangles.svg	40	no	0	1	2000
6.6.0	win	2022-12-27	10:42:23	10:51:05	521206	5deb3c192235ad24f4a21826	698096341	1	main_z	11	advance_on_keypress_ZEE	108	stimuli_distractor_diamondtriangles.svg	stimuli_distractor_diamondtriangles.svg	40	no	57	0	352
6.6.0	win	2022-12-27	10:42:23	10:51:06	522795	5deb3c192235ad24f4a21826	698096341	1	main_z	11	main_z	109	stimuli_target_circletriangles.svg	stimuli_distractor_diamondtriangles.svg	5	yes	44	1	594
6.6.0	win	2022-12-27	10:42:23	10:51:06	522795	5deb3c192235ad24f4a21826	698096341	1	main_z	11	advance_on_keypress_ZEE	110	stimuli_target_circletriangles.svg	stimuli_distractor_diamondtriangles.svg	5	yes	57	0	494
6.6.0	win	2022-12-27	10:42:23	10:51:08	524654	5deb3c192235ad24f4a21826	698096341	1	main_z	11	main_z	111	stimuli_distractor_trianglediamonds.svg	stimuli_target_circlediamonds.svg	10	yes	44	1	738
6.6.0	win	2022-12-27	10:42:23	10:51:08	524654	5deb3c192235ad24f4a21826	698096341	1	main_z	11	advance_on_keypress_ZEE	112	stimuli_distractor_trianglediamonds.svg	stimuli_target_circlediamonds.svg	10	yes	57	0	494
6.6.0	win	2022-12-27	10:42:23	10:51:10	526535	5deb3c192235ad24f4a21826	698096341	1	main_z	11	main_z	113	stimuli_target_squaretriangles.svg	stimuli_distractor_diamondtriangles.svg	7	yes	44	1	755
6.6.0	win	2022-12-27	10:42:23	10:51:10	526535	5deb3c192235ad24f4a21826	698096341	1	main_z	11	advance_on_keypress_ZEE	114	stimuli_target_squaretriangles.svg	stimuli_distractor_diamondtriangles.svg	7	yes	57	0	438
6.6.0	win	2022-12-27	10:42:23	10:51:12	528631	5deb3c192235ad24f4a21826	698096341	1	main_z	11	main_z	115	stimuli_distractor_diamondtriangles.svg	stimuli_target_trianglesquares.svg	30	yes	44	1	1019
6.6.0	win	2022-12-27	10:42:23	10:51:12	528631	5deb3c192235ad24f4a21826	698096341	1	main_z	11	advance_on_keypress_ZEE	116	stimuli_distractor_diamondtriangles.svg	stimuli_target_trianglesquares.svg	30	yes	57	0	501
6.6.0	win	2022-12-27	10:42:23	10:51:14	530450	5deb3c192235ad24f4a21826	698096341	1	main_z	11	main_z	117	stimuli_distractor_trianglediamonds.svg	stimuli_target_circletriangles.svg	9	yes	44	1	675
6.6.0	win	2022-12-27	10:42:23	10:51:14	530450	5deb3c192235ad24f4a21826	698096341	1	main_z	11	advance_on_keypress_ZEE	118	stimuli_distractor_trianglediamonds.svg	stimuli_target_circletriangles.svg	9	yes	57	0	475
6.6.0	win	2022-12-27	10:42:23	10:51:16	532173	5deb3c192235ad24f4a21826	698096341	1	main_z	11	main_z	119	stimuli_distractor_diamondtriangles.svg	stimuli_target_diamondcircles.svg	31	yes	44	1	615
6.6.0	win	2022-12-27	10:42:23	10:51:16	532173	5deb3c192235ad24f4a21826	698096341	1	main_z	11	advance_on_keypress_ZEE	120	stimuli_distractor_diamondtriangles.svg	stimuli_target_diamondcircles.svg	31	yes	57	0	515
6.6.0	win	2022-12-27	10:42:23	10:51:17	533929	5deb3c192235ad24f4a21826	698096341	1	main_z	11	main_z	121	stimuli_target_diamondcircles.svg	stimuli_distractor_trianglediamonds.svg	19	yes	44	1	590
6.6.0	win	2022-12-27	10:42:23	10:51:17	533929	5deb3c192235ad24f4a21826	698096341	1	main_z	11	advance_on_keypress_ZEE	122	stimuli_target_diamondcircles.svg	stimuli_distractor_trianglediamonds.svg	19	yes	57	0	426
6.6.0	win	2022-12-27	10:42:23	10:51:19	535568	5deb3c192235ad24f4a21826	698096341	1	main_z	11	main_z	123	stimuli_distractor_diamondtriangles.svg	stimuli_target_trianglecircles.svg	29	yes	44	1	582
6.6.0	win	2022-12-27	10:42:23	10:51:19	535568	5deb3c192235ad24f4a21826	698096341	1	main_z	11	advance_on_keypress_ZEE	124	stimuli_distractor_diamondtriangles.svg	stimuli_target_trianglecircles.svg	29	yes	57	0	458
6.6.0	win	2022-12-27	10:42:23	10:51:21	538083	5deb3c192235ad24f4a21826	698096341	1	main_z	11	main_z	125	stimuli_target_squarediamonds.svg	stimuli_distractor_diamondtriangles.svg	8	yes	44	1	1415
6.6.0	win	2022-12-27	10:42:23	10:51:21	538083	5deb3c192235ad24f4a21826	698096341	1	main_z	11	advance_on_keypress_ZEE	126	stimuli_target_squarediamonds.svg	stimuli_distractor_diamondtriangles.svg	8	yes	57	0	525
6.6.0	win	2022-12-27	10:42:23	10:51:23	539857	5deb3c192235ad24f4a21826	698096341	1	main_z	11	main_z	127	stimuli_distractor_diamondtriangles.svg	stimuli_target_squarediamonds.svg	16	yes	44	1	609
6.6.0	win	2022-12-27	10:42:23	10:51:23	539857	5deb3c192235ad24f4a21826	698096341	1	main_z	11	advance_on_keypress_ZEE	128	stimuli_distractor_diamondtriangles.svg	stimuli_target_squarediamonds.svg	16	yes	57	0	401
6.6.0	win	2022-12-27	10:42:23	10:51:25	541467	5deb3c192235ad24f4a21826	698096341	1	main_z	11	main_z	129	stimuli_distractor_trianglediamonds.svg	stimuli_target_squarediamonds.svg	12	yes	44	1	570
6.6.0	win	2022-12-27	10:42:23	10:51:25	541467	5deb3c192235ad24f4a21826	698096341	1	main_z	11	advance_on_keypress_ZEE	130	stimuli_distractor_trianglediamonds.svg	stimuli_target_squarediamonds.svg	12	yes	57	0	338
6.6.0	win	2022-12-27	10:42:23	10:51:26	543006	5deb3c192235ad24f4a21826	698096341	1	main_z	11	main_z	131	stimuli_distractor_diamondtriangles.svg	stimuli_distractor_trianglediamonds.svg	38	no	44	0	561
6.6.0	win	2022-12-27	10:42:23	10:51:26	543006	5deb3c192235ad24f4a21826	698096341	1	main_z	11	advance_on_keypress_ZEE	132	stimuli_distractor_diamondtriangles.svg	stimuli_distractor_trianglediamonds.svg	38	no	57	0	404
6.6.0	win	2022-12-27	10:42:23	10:51:28	544895	5deb3c192235ad24f4a21826	698096341	1	main_z	11	main_z	133	stimuli_target_circlediamonds.svg	stimuli_distractor_trianglediamonds.svg	2	yes	44	1	852
6.6.0	win	2022-12-27	10:42:23	10:51:28	544895	5deb3c192235ad24f4a21826	698096341	1	main_z	11	advance_on_keypress_ZEE	134	stimuli_target_circlediamonds.svg	stimuli_distractor_trianglediamonds.svg	2	yes	57	0	313
6.6.0	win	2022-12-27	10:42:23	10:51:31	547858	5deb3c192235ad24f4a21826	698096341	1	main_z	11	main_z	135	stimuli_distractor_trianglediamonds.svg	stimuli_distractor_trianglediamonds.svg	34	no	0	1	2000
6.6.0	win	2022-12-27	10:42:23	10:51:31	547858	5deb3c192235ad24f4a21826	698096341	1	main_z	11	advance_on_keypress_ZEE	136	stimuli_distractor_trianglediamonds.svg	stimuli_distractor_trianglediamonds.svg	34	no	57	0	317
6.6.0	win	2022-12-27	10:42:23	10:51:33	549517	5deb3c192235ad24f4a21826	698096341	1	main_z	11	main_z	137	stimuli_distractor_diamondtriangles.svg	stimuli_target_circlediamonds.svg	14	yes	44	1	696
6.6.0	win	2022-12-27	10:42:23	10:51:33	549517	5deb3c192235ad24f4a21826	698096341	1	main_z	11	advance_on_keypress_ZEE	138	stimuli_distractor_diamondtriangles.svg	stimuli_target_circlediamonds.svg	14	yes	57	0	464
6.6.0	win	2022-12-27	10:42:23	10:51:35	551297	5deb3c192235ad24f4a21826	698096341	1	main_z	11	main_z	139	stimuli_target_circlediamonds.svg	stimuli_distractor_diamondtriangles.svg	6	yes	44	1	662
6.6.0	win	2022-12-27	10:42:23	10:51:35	551297	5deb3c192235ad24f4a21826	698096341	1	main_z	11	advance_on_keypress_ZEE	140	stimuli_target_circlediamonds.svg	stimuli_distractor_diamondtriangles.svg	6	yes	57	0	313
6.6.0	win	2022-12-27	10:42:23	10:51:37	553407	5deb3c192235ad24f4a21826	698096341	1	main_z	11	main_z	141	stimuli_target_trianglesquares.svg	stimuli_distractor_trianglediamonds.svg	18	yes	44	1	1140
6.6.0	win	2022-12-27	10:42:23	10:51:37	553407	5deb3c192235ad24f4a21826	698096341	1	main_z	11	advance_on_keypress_ZEE	142	stimuli_target_trianglesquares.svg	stimuli_distractor_trianglediamonds.svg	18	yes	57	0	563
6.6.0	win	2022-12-27	10:42:23	10:51:39	555226	5deb3c192235ad24f4a21826	698096341	1	main_z	11	main_z	143	stimuli_distractor_diamondtriangles.svg	stimuli_distractor_trianglediamonds.svg	37	no	44	0	611
6.6.0	win	2022-12-27	10:42:23	10:51:39	555226	5deb3c192235ad24f4a21826	698096341	1	main_z	11	advance_on_keypress_ZEE	144	stimuli_distractor_diamondtriangles.svg	stimuli_distractor_trianglediamonds.svg	37	no	57	0	482
6.6.0	win	2022-12-27	10:42:23	10:51:40	557018	5deb3c192235ad24f4a21826	698096341	1	main_z	11	main_z	145	stimuli_target_squaretriangles.svg	stimuli_distractor_trianglediamonds.svg	3	yes	44	1	673
6.6.0	win	2022-12-27	10:42:23	10:51:40	557018	5deb3c192235ad24f4a21826	698096341	1	main_z	11	advance_on_keypress_ZEE	146	stimuli_target_squaretriangles.svg	stimuli_distractor_trianglediamonds.svg	3	yes	57	0	617
6.6.0	win	2022-12-27	10:42:23	10:51:44	560277	5deb3c192235ad24f4a21826	698096341	1	main_z	11	main_z	147	stimuli_distractor_trianglediamonds.svg	stimuli_distractor_diamondtriangles.svg	36	no	0	1	2000
6.6.0	win	2022-12-27	10:42:23	10:51:44	560277	5deb3c192235ad24f4a21826	698096341	1	main_z	11	advance_on_keypress_ZEE	148	stimuli_distractor_trianglediamonds.svg	stimuli_distractor_diamondtriangles.svg	36	no	57	0	558
6.6.0	win	2022-12-27	10:42:23	10:51:45	562079	5deb3c192235ad24f4a21826	698096341	1	main_z	11	main_z	149	stimuli_distractor_trianglediamonds.svg	stimuli_target_trianglecircles.svg	25	yes	44	1	606
6.6.0	win	2022-12-27	10:42:23	10:51:45	562079	5deb3c192235ad24f4a21826	698096341	1	main_z	11	advance_on_keypress_ZEE	150	stimuli_distractor_trianglediamonds.svg	stimuli_target_trianglecircles.svg	25	yes	57	0	277
6.6.0	win	2022-12-27	10:42:23	10:51:47	563641	5deb3c192235ad24f4a21826	698096341	1	main_z	11	main_z	151	stimuli_target_diamondsquares.svg	stimuli_distractor_trianglediamonds.svg	20	yes	44	1	653
6.6.0	win	2022-12-27	10:42:23	10:51:47	563641	5deb3c192235ad24f4a21826	698096341	1	main_z	11	advance_on_keypress_ZEE	152	stimuli_target_diamondsquares.svg	stimuli_distractor_trianglediamonds.svg	20	yes	57	0	390
6.6.0	win	2022-12-27	10:42:23	10:51:50	566670	5deb3c192235ad24f4a21826	698096341	1	main_z	11	main_z	153	stimuli_distractor_trianglediamonds.svg	stimuli_distractor_trianglediamonds.svg	33	no	0	1	2000
6.6.0	win	2022-12-27	10:42:23	10:51:50	566670	5deb3c192235ad24f4a21826	698096341	1	main_z	11	advance_on_keypress_ZEE	154	stimuli_distractor_trianglediamonds.svg	stimuli_distractor_trianglediamonds.svg	33	no	57	0	352
6.6.0	win	2022-12-27	10:42:23	10:51:53	569666	5deb3c192235ad24f4a21826	698096341	1	main_z	11	main_z	155	stimuli_distractor_diamondtriangles.svg	stimuli_distractor_diamondtriangles.svg	39	no	0	1	2000
6.6.0	win	2022-12-27	10:42:23	10:51:53	569666	5deb3c192235ad24f4a21826	698096341	1	main_z	11	advance_on_keypress_ZEE	156	stimuli_distractor_diamondtriangles.svg	stimuli_distractor_diamondtriangles.svg	39	no	57	0	395
6.6.0	win	2022-12-27	10:42:23	10:51:55	571322	5deb3c192235ad24f4a21826	698096341	1	main_z	11	main_z	157	stimuli_distractor_trianglediamonds.svg	stimuli_target_trianglesquares.svg	26	yes	44	1	627
6.6.0	win	2022-12-27	10:42:23	10:51:55	571322	5deb3c192235ad24f4a21826	698096341	1	main_z	11	advance_on_keypress_ZEE	158	stimuli_distractor_trianglediamonds.svg	stimuli_target_trianglesquares.svg	26	yes	57	0	431
6.6.0	win	2022-12-27	10:42:23	10:51:58	574394	5deb3c192235ad24f4a21826	698096341	1	main_z	11	main_z	159	stimuli_target_trianglesquares.svg	stimuli_distractor_diamondtriangles.svg	22	yes	0	0	2000
6.6.0	win	2022-12-27	10:42:23	10:51:58	574394	5deb3c192235ad24f4a21826	698096341	1	main_z	11	advance_on_keypress_ZEE	160	stimuli_target_trianglesquares.svg	stimuli_distractor_diamondtriangles.svg	22	yes	57	0	852