build	computer.platform	date	time	timestamp	time_elapsed_ms	subject	group	session	blockcode	blocknum	trialcode	trialnum	stimulus_left	stimulus_right	stim_index	target_present	response	correct	latency
6.6.1	mac	2022-12-14	22:39:48	22:43:47	237247	62df4f5f6812864868e9ea66	402217291	1	practice_slash	5	practice_slash	1	stimuli_target_squarediamonds.svg	stimuli_distractor_trianglediamonds.svg	5	yes	0	0	2000
6.6.1	mac	2022-12-14	22:39:48	22:43:47	237247	62df4f5f6812864868e9ea66	402217291	1	practice_slash	5	advance_on_keypress_SLASH	2	stimuli_target_squarediamonds.svg	stimuli_distractor_trianglediamonds.svg	5	yes	57	0	1058
6.6.1	mac	2022-12-14	22:39:48	22:43:50	240746	62df4f5f6812864868e9ea66	402217291	1	practice_slash	5	practice_slash	3	stimuli_distractor_trianglediamonds.svg	stimuli_distractor_trianglediamonds.svg	15	no	53	0	819
6.6.1	mac	2022-12-14	22:39:48	22:43:50	240746	62df4f5f6812864868e9ea66	402217291	1	practice_slash	5	advance_on_keypress_SLASH	4	stimuli_distractor_trianglediamonds.svg	stimuli_distractor_trianglediamonds.svg	15	no	57	0	102
6.6.1	mac	2022-12-14	22:39:48	22:43:53	243023	62df4f5f6812864868e9ea66	402217291	1	practice_slash	5	practice_slash	5	stimuli_target_circlediamonds.svg	stimuli_distractor_trianglediamonds.svg	4	yes	53	1	546
6.6.1	mac	2022-12-14	22:39:48	22:43:53	243023	62df4f5f6812864868e9ea66	402217291	1	practice_slash	5	advance_on_keypress_SLASH	6	stimuli_target_circlediamonds.svg	stimuli_distractor_trianglediamonds.svg	4	yes	57	0	3366
6.6.1	mac	2022-12-14	22:39:48	22:44:00	250026	62df4f5f6812864868e9ea66	402217291	1	practice_slash	5	practice_slash	7	stimuli_distractor_diamondtriangles.svg	stimuli_distractor_trianglediamonds.svg	14	no	0	1	2000
6.6.1	mac	2022-12-14	22:39:48	22:44:00	250026	62df4f5f6812864868e9ea66	402217291	1	practice_slash	5	advance_on_keypress_SLASH	8	stimuli_distractor_diamondtriangles.svg	stimuli_distractor_trianglediamonds.svg	14	no	57	0	603
6.6.1	mac	2022-12-14	22:39:48	22:44:03	253188	62df4f5f6812864868e9ea66	402217291	1	practice_slash	5	practice_slash	9	stimuli_target_circlediamonds.svg	stimuli_distractor_diamondtriangles.svg	1	yes	53	1	928
6.6.1	mac	2022-12-14	22:39:48	22:44:03	253188	62df4f5f6812864868e9ea66	402217291	1	practice_slash	5	advance_on_keypress_SLASH	10	stimuli_target_circlediamonds.svg	stimuli_distractor_diamondtriangles.svg	1	yes	57	0	827
6.6.1	mac	2022-12-14	22:39:48	22:44:07	257659	62df4f5f6812864868e9ea66	402217291	1	practice_slash	5	practice_slash	11	stimuli_target_diamondsquares.svg	stimuli_distractor_trianglediamonds.svg	6	yes	0	0	2000
6.6.1	mac	2022-12-14	22:39:48	22:44:07	257659	62df4f5f6812864868e9ea66	402217291	1	practice_slash	5	advance_on_keypress_SLASH	12	stimuli_target_diamondsquares.svg	stimuli_distractor_trianglediamonds.svg	6	yes	57	0	663
6.6.1	mac	2022-12-14	22:39:48	22:44:11	261364	62df4f5f6812864868e9ea66	402217291	1	practice_slash	5	practice_slash	13	stimuli_distractor_trianglediamonds.svg	stimuli_distractor_diamondtriangles.svg	16	no	53	0	1404
6.6.1	mac	2022-12-14	22:39:48	22:44:11	261364	62df4f5f6812864868e9ea66	402217291	1	practice_slash	5	advance_on_keypress_SLASH	14	stimuli_distractor_trianglediamonds.svg	stimuli_distractor_diamondtriangles.svg	16	no	57	0	566
6.6.1	mac	2022-12-14	22:39:48	22:44:15	265559	62df4f5f6812864868e9ea66	402217291	1	practice_slash	5	practice_slash	15	stimuli_distractor_diamondtriangles.svg	stimuli_distractor_diamondtriangles.svg	13	no	0	1	2000
6.6.1	mac	2022-12-14	22:39:48	22:44:15	265559	62df4f5f6812864868e9ea66	402217291	1	practice_slash	5	advance_on_keypress_SLASH	16	stimuli_distractor_diamondtriangles.svg	stimuli_distractor_diamondtriangles.svg	13	no	57	0	611
6.6.1	mac	2022-12-14	22:39:48	22:44:19	269013	62df4f5f6812864868e9ea66	402217291	1	practice_slash	5	practice_slash	17	stimuli_distractor_trianglediamonds.svg	stimuli_target_squarediamonds.svg	11	yes	53	1	1204
6.6.1	mac	2022-12-14	22:39:48	22:44:19	269013	62df4f5f6812864868e9ea66	402217291	1	practice_slash	5	advance_on_keypress_SLASH	18	stimuli_distractor_trianglediamonds.svg	stimuli_target_squarediamonds.svg	11	yes	57	0	603
6.6.1	mac	2022-12-14	22:39:48	22:44:22	272122	62df4f5f6812864868e9ea66	402217291	1	practice_slash	5	practice_slash	19	stimuli_distractor_diamondtriangles.svg	stimuli_target_circletriangles.svg	7	yes	53	1	878
6.6.1	mac	2022-12-14	22:39:48	22:44:22	272122	62df4f5f6812864868e9ea66	402217291	1	practice_slash	5	advance_on_keypress_SLASH	20	stimuli_distractor_diamondtriangles.svg	stimuli_target_circletriangles.svg	7	yes	57	0	674
6.6.1	mac	2022-12-14	22:39:48	22:44:25	275342	62df4f5f6812864868e9ea66	402217291	1	practice_slash	5	practice_slash	21	stimuli_target_squarediamonds.svg	stimuli_distractor_diamondtriangles.svg	2	yes	53	1	915
6.6.1	mac	2022-12-14	22:39:48	22:44:25	275342	62df4f5f6812864868e9ea66	402217291	1	practice_slash	5	advance_on_keypress_SLASH	22	stimuli_target_squarediamonds.svg	stimuli_distractor_diamondtriangles.svg	2	yes	57	0	1976
6.6.1	mac	2022-12-14	22:39:48	22:44:30	280333	62df4f5f6812864868e9ea66	402217291	1	practice_slash	5	practice_slash	23	stimuli_distractor_diamondtriangles.svg	stimuli_target_trianglecircles.svg	9	yes	53	1	1373
6.6.1	mac	2022-12-14	22:39:48	22:44:30	280333	62df4f5f6812864868e9ea66	402217291	1	practice_slash	5	advance_on_keypress_SLASH	24	stimuli_distractor_diamondtriangles.svg	stimuli_target_trianglecircles.svg	9	yes	57	0	787
6.6.1	mac	2022-12-14	22:39:48	22:44:34	283913	62df4f5f6812864868e9ea66	402217291	1	practice_slash	5	practice_slash	25	stimuli_target_diamondsquares.svg	stimuli_distractor_diamondtriangles.svg	3	yes	53	1	1169
6.6.1	mac	2022-12-14	22:39:48	22:44:34	283913	62df4f5f6812864868e9ea66	402217291	1	practice_slash	5	advance_on_keypress_SLASH	26	stimuli_target_diamondsquares.svg	stimuli_distractor_diamondtriangles.svg	3	yes	57	0	666
6.6.1	mac	2022-12-14	22:39:48	22:44:37	287214	62df4f5f6812864868e9ea66	402217291	1	practice_slash	5	practice_slash	27	stimuli_distractor_diamondtriangles.svg	stimuli_target_diamondcircles.svg	8	yes	53	1	1002
6.6.1	mac	2022-12-14	22:39:48	22:44:37	287214	62df4f5f6812864868e9ea66	402217291	1	practice_slash	5	advance_on_keypress_SLASH	28	stimuli_distractor_diamondtriangles.svg	stimuli_target_diamondcircles.svg	8	yes	57	0	661
6.6.1	mac	2022-12-14	22:39:48	22:44:40	290515	62df4f5f6812864868e9ea66	402217291	1	practice_slash	5	practice_slash	29	stimuli_distractor_trianglediamonds.svg	stimuli_target_diamondcircles.svg	12	yes	53	1	1005
6.6.1	mac	2022-12-14	22:39:48	22:44:40	290515	62df4f5f6812864868e9ea66	402217291	1	practice_slash	5	advance_on_keypress_SLASH	30	stimuli_distractor_trianglediamonds.svg	stimuli_target_diamondcircles.svg	12	yes	57	0	1369
6.6.1	mac	2022-12-14	22:39:48	22:44:45	294919	62df4f5f6812864868e9ea66	402217291	1	practice_slash	5	practice_slash	31	stimuli_distractor_trianglediamonds.svg	stimuli_target_circlediamonds.svg	10	yes	53	1	1407
6.6.1	mac	2022-12-14	22:39:48	22:44:45	294919	62df4f5f6812864868e9ea66	402217291	1	practice_slash	5	advance_on_keypress_SLASH	32	stimuli_distractor_trianglediamonds.svg	stimuli_target_circlediamonds.svg	10	yes	57	0	1002
6.6.1	mac	2022-12-14	22:39:48	22:44:57	307128	62df4f5f6812864868e9ea66	402217291	1	main_slash	7	main_slash	1	stimuli_target_circletriangles.svg	stimuli_distractor_diamondtriangles.svg	5	yes	53	1	967
6.6.1	mac	2022-12-14	22:39:48	22:44:57	307128	62df4f5f6812864868e9ea66	402217291	1	main_slash	7	advance_on_keypress_SLASH	2	stimuli_target_circletriangles.svg	stimuli_distractor_diamondtriangles.svg	5	yes	57	0	1519
6.6.1	mac	2022-12-14	22:39:48	22:45:00	310033	62df4f5f6812864868e9ea66	402217291	1	main_slash	7	main_slash	3	stimuli_distractor_diamondtriangles.svg	stimuli_target_diamondcircles.svg	31	yes	53	1	757
6.6.1	mac	2022-12-14	22:39:48	22:45:00	310033	62df4f5f6812864868e9ea66	402217291	1	main_slash	7	advance_on_keypress_SLASH	4	stimuli_distractor_diamondtriangles.svg	stimuli_target_diamondcircles.svg	31	yes	57	0	912
6.6.1	mac	2022-12-14	22:39:48	22:45:02	312207	62df4f5f6812864868e9ea66	402217291	1	main_slash	7	main_slash	5	stimuli_distractor_diamondtriangles.svg	stimuli_target_circlediamonds.svg	14	yes	53	1	630
6.6.1	mac	2022-12-14	22:39:48	22:45:02	312207	62df4f5f6812864868e9ea66	402217291	1	main_slash	7	advance_on_keypress_SLASH	6	stimuli_distractor_diamondtriangles.svg	stimuli_target_circlediamonds.svg	14	yes	57	0	1203
6.6.1	mac	2022-12-14	22:39:48	22:45:04	314667	62df4f5f6812864868e9ea66	402217291	1	main_slash	7	main_slash	7	stimuli_distractor_diamondtriangles.svg	stimuli_target_squarediamonds.svg	16	yes	53	1	624
6.6.1	mac	2022-12-14	22:39:48	22:45:04	314667	62df4f5f6812864868e9ea66	402217291	1	main_slash	7	advance_on_keypress_SLASH	8	stimuli_distractor_diamondtriangles.svg	stimuli_target_squarediamonds.svg	16	yes	57	0	777
6.6.1	mac	2022-12-14	22:39:48	22:45:06	316858	62df4f5f6812864868e9ea66	402217291	1	main_slash	7	main_slash	9	stimuli_target_diamondcircles.svg	stimuli_distractor_diamondtriangles.svg	23	yes	53	1	782
6.6.1	mac	2022-12-14	22:39:48	22:45:06	316858	62df4f5f6812864868e9ea66	402217291	1	main_slash	7	advance_on_keypress_SLASH	10	stimuli_target_diamondcircles.svg	stimuli_distractor_diamondtriangles.svg	23	yes	57	0	820
6.6.1	mac	2022-12-14	22:39:48	22:45:10	320309	62df4f5f6812864868e9ea66	402217291	1	main_slash	7	main_slash	11	stimuli_target_diamondsquares.svg	stimuli_distractor_trianglediamonds.svg	20	yes	0	0	2000
6.6.1	mac	2022-12-14	22:39:48	22:45:10	320309	62df4f5f6812864868e9ea66	402217291	1	main_slash	7	advance_on_keypress_SLASH	12	stimuli_target_diamondsquares.svg	stimuli_distractor_trianglediamonds.svg	20	yes	57	0	866
6.6.1	mac	2022-12-14	22:39:48	22:45:13	323809	62df4f5f6812864868e9ea66	402217291	1	main_slash	7	main_slash	13	stimuli_distractor_diamondtriangles.svg	stimuli_distractor_diamondtriangles.svg	40	no	0	1	2000
6.6.1	mac	2022-12-14	22:39:48	22:45:13	323809	62df4f5f6812864868e9ea66	402217291	1	main_slash	7	advance_on_keypress_SLASH	14	stimuli_distractor_diamondtriangles.svg	stimuli_distractor_diamondtriangles.svg	40	no	57	0	754
6.6.1	mac	2022-12-14	22:39:48	22:45:15	325743	62df4f5f6812864868e9ea66	402217291	1	main_slash	7	main_slash	15	stimuli_target_circletriangles.svg	stimuli_distractor_trianglediamonds.svg	1	yes	53	1	551
6.6.1	mac	2022-12-14	22:39:48	22:45:15	325743	62df4f5f6812864868e9ea66	402217291	1	main_slash	7	advance_on_keypress_SLASH	16	stimuli_target_circletriangles.svg	stimuli_distractor_trianglediamonds.svg	1	yes	57	0	911
6.6.1	mac	2022-12-14	22:39:48	22:45:18	327974	62df4f5f6812864868e9ea66	402217291	1	main_slash	7	main_slash	17	stimuli_distractor_trianglediamonds.svg	stimuli_target_trianglecircles.svg	25	yes	53	1	681
6.6.1	mac	2022-12-14	22:39:48	22:45:18	327974	62df4f5f6812864868e9ea66	402217291	1	main_slash	7	advance_on_keypress_SLASH	18	stimuli_distractor_trianglediamonds.svg	stimuli_target_trianglecircles.svg	25	yes	57	0	976
6.6.1	mac	2022-12-14	22:39:48	22:45:20	330218	62df4f5f6812864868e9ea66	402217291	1	main_slash	7	main_slash	19	stimuli_target_trianglecircles.svg	stimuli_distractor_trianglediamonds.svg	17	yes	53	1	642
6.6.1	mac	2022-12-14	22:39:48	22:45:20	330218	62df4f5f6812864868e9ea66	402217291	1	main_slash	7	advance_on_keypress_SLASH	20	stimuli_target_trianglecircles.svg	stimuli_distractor_trianglediamonds.svg	17	yes	57	0	980
6.6.1	mac	2022-12-14	22:39:48	22:45:22	332487	62df4f5f6812864868e9ea66	402217291	1	main_slash	7	main_slash	21	stimuli_distractor_diamondtriangles.svg	stimuli_target_diamondsquares.svg	32	yes	53	1	661
6.6.1	mac	2022-12-14	22:39:48	22:45:22	332487	62df4f5f6812864868e9ea66	402217291	1	main_slash	7	advance_on_keypress_SLASH	22	stimuli_distractor_diamondtriangles.svg	stimuli_target_diamondsquares.svg	32	yes	57	0	782
6.6.1	mac	2022-12-14	22:39:48	22:45:26	335909	62df4f5f6812864868e9ea66	402217291	1	main_slash	7	main_slash	23	stimuli_distractor_diamondtriangles.svg	stimuli_distractor_trianglediamonds.svg	37	no	0	1	2000
6.6.1	mac	2022-12-14	22:39:48	22:45:26	335909	62df4f5f6812864868e9ea66	402217291	1	main_slash	7	advance_on_keypress_SLASH	24	stimuli_distractor_diamondtriangles.svg	stimuli_distractor_trianglediamonds.svg	37	no	57	0	641
6.6.1	mac	2022-12-14	22:39:48	22:45:27	337680	62df4f5f6812864868e9ea66	402217291	1	main_slash	7	main_slash	25	stimuli_distractor_diamondtriangles.svg	stimuli_target_trianglesquares.svg	30	yes	53	1	504
6.6.1	mac	2022-12-14	22:39:48	22:45:27	337680	62df4f5f6812864868e9ea66	402217291	1	main_slash	7	advance_on_keypress_SLASH	26	stimuli_distractor_diamondtriangles.svg	stimuli_target_trianglesquares.svg	30	yes	57	0	1256
6.6.1	mac	2022-12-14	22:39:48	22:45:31	341576	62df4f5f6812864868e9ea66	402217291	1	main_slash	7	main_slash	27	stimuli_distractor_trianglediamonds.svg	stimuli_distractor_diamondtriangles.svg	36	no	0	1	2000
6.6.1	mac	2022-12-14	22:39:48	22:45:31	341576	62df4f5f6812864868e9ea66	402217291	1	main_slash	7	advance_on_keypress_SLASH	28	stimuli_distractor_trianglediamonds.svg	stimuli_distractor_diamondtriangles.svg	36	no	57	0	964
6.6.1	mac	2022-12-14	22:39:48	22:45:33	343647	62df4f5f6812864868e9ea66	402217291	1	main_slash	7	main_slash	29	stimuli_target_squarediamonds.svg	stimuli_distractor_diamondtriangles.svg	8	yes	53	1	471
6.6.1	mac	2022-12-14	22:39:48	22:45:33	343647	62df4f5f6812864868e9ea66	402217291	1	main_slash	7	advance_on_keypress_SLASH	30	stimuli_target_squarediamonds.svg	stimuli_distractor_diamondtriangles.svg	8	yes	57	0	652
6.6.1	mac	2022-12-14	22:39:48	22:45:35	345568	62df4f5f6812864868e9ea66	402217291	1	main_slash	7	main_slash	31	stimuli_target_trianglesquares.svg	stimuli_distractor_trianglediamonds.svg	18	yes	53	1	643
6.6.1	mac	2022-12-14	22:39:48	22:45:35	345568	62df4f5f6812864868e9ea66	402217291	1	main_slash	7	advance_on_keypress_SLASH	32	stimuli_target_trianglesquares.svg	stimuli_distractor_trianglediamonds.svg	18	yes	57	0	608
6.6.1	mac	2022-12-14	22:39:48	22:45:37	347326	62df4f5f6812864868e9ea66	402217291	1	main_slash	7	main_slash	33	stimuli_target_squaretriangles.svg	stimuli_distractor_diamondtriangles.svg	7	yes	53	1	519
6.6.1	mac	2022-12-14	22:39:48	22:45:37	347326	62df4f5f6812864868e9ea66	402217291	1	main_slash	7	advance_on_keypress_SLASH	34	stimuli_target_squaretriangles.svg	stimuli_distractor_diamondtriangles.svg	7	yes	57	0	559
6.6.1	mac	2022-12-14	22:39:48	22:45:39	349097	62df4f5f6812864868e9ea66	402217291	1	main_slash	7	main_slash	35	stimuli_distractor_trianglediamonds.svg	stimuli_target_squarediamonds.svg	12	yes	53	1	572
6.6.1	mac	2022-12-14	22:39:48	22:45:39	349097	62df4f5f6812864868e9ea66	402217291	1	main_slash	7	advance_on_keypress_SLASH	36	stimuli_distractor_trianglediamonds.svg	stimuli_target_squarediamonds.svg	12	yes	57	0	603
6.6.1	mac	2022-12-14	22:39:48	22:45:40	350830	62df4f5f6812864868e9ea66	402217291	1	main_slash	7	main_slash	37	stimuli_distractor_trianglediamonds.svg	stimuli_target_diamondcircles.svg	27	yes	53	1	504
6.6.1	mac	2022-12-14	22:39:48	22:45:40	350830	62df4f5f6812864868e9ea66	402217291	1	main_slash	7	advance_on_keypress_SLASH	38	stimuli_distractor_trianglediamonds.svg	stimuli_target_diamondcircles.svg	27	yes	57	0	636
6.6.1	mac	2022-12-14	22:39:48	22:45:42	352498	62df4f5f6812864868e9ea66	402217291	1	main_slash	7	main_slash	39	stimuli_distractor_trianglediamonds.svg	stimuli_distractor_trianglediamonds.svg	33	no	53	0	405
6.6.1	mac	2022-12-14	22:39:48	22:45:42	352498	62df4f5f6812864868e9ea66	402217291	1	main_slash	7	advance_on_keypress_SLASH	40	stimuli_distractor_trianglediamonds.svg	stimuli_distractor_trianglediamonds.svg	33	no	57	0	1239
6.6.1	mac	2022-12-14	22:39:48	22:45:46	356358	62df4f5f6812864868e9ea66	402217291	1	main_slash	7	main_slash	41	stimuli_distractor_diamondtriangles.svg	stimuli_distractor_diamondtriangles.svg	39	no	0	1	2000
6.6.1	mac	2022-12-14	22:39:48	22:45:46	356358	62df4f5f6812864868e9ea66	402217291	1	main_slash	7	advance_on_keypress_SLASH	42	stimuli_distractor_diamondtriangles.svg	stimuli_distractor_diamondtriangles.svg	39	no	57	0	658
6.6.1	mac	2022-12-14	22:39:48	22:45:48	358254	62df4f5f6812864868e9ea66	402217291	1	main_slash	7	main_slash	43	stimuli_distractor_trianglediamonds.svg	stimuli_target_circletriangles.svg	9	yes	53	1	611
6.6.1	mac	2022-12-14	22:39:48	22:45:48	358254	62df4f5f6812864868e9ea66	402217291	1	main_slash	7	advance_on_keypress_SLASH	44	stimuli_distractor_trianglediamonds.svg	stimuli_target_circletriangles.svg	9	yes	57	0	616
6.6.1	mac	2022-12-14	22:39:48	22:45:50	360049	62df4f5f6812864868e9ea66	402217291	1	main_slash	7	main_slash	45	stimuli_distractor_diamondtriangles.svg	stimuli_target_trianglecircles.svg	29	yes	53	1	556
6.6.1	mac	2022-12-14	22:39:48	22:45:50	360049	62df4f5f6812864868e9ea66	402217291	1	main_slash	7	advance_on_keypress_SLASH	46	stimuli_distractor_diamondtriangles.svg	stimuli_target_trianglecircles.svg	29	yes	57	0	574
6.6.1	mac	2022-12-14	22:39:48	22:45:52	362546	62df4f5f6812864868e9ea66	402217291	1	main_slash	7	main_slash	47	stimuli_distractor_trianglediamonds.svg	stimuli_target_diamondsquares.svg	28	yes	53	1	1303
6.6.1	mac	2022-12-14	22:39:48	22:45:52	362546	62df4f5f6812864868e9ea66	402217291	1	main_slash	7	advance_on_keypress_SLASH	48	stimuli_distractor_trianglediamonds.svg	stimuli_target_diamondsquares.svg	28	yes	57	0	850
6.6.1	mac	2022-12-14	22:39:48	22:45:55	365623	62df4f5f6812864868e9ea66	402217291	1	main_slash	7	main_slash	49	stimuli_target_squarediamonds.svg	stimuli_distractor_trianglediamonds.svg	4	yes	53	1	1595
6.6.1	mac	2022-12-14	22:39:48	22:45:55	365623	62df4f5f6812864868e9ea66	402217291	1	main_slash	7	advance_on_keypress_SLASH	50	stimuli_target_squarediamonds.svg	stimuli_distractor_trianglediamonds.svg	4	yes	57	0	1248
6.6.1	mac	2022-12-14	22:39:48	22:45:59	369509	62df4f5f6812864868e9ea66	402217291	1	main_slash	7	main_slash	51	stimuli_distractor_diamondtriangles.svg	stimuli_distractor_trianglediamonds.svg	38	no	0	1	2000
6.6.1	mac	2022-12-14	22:39:48	22:45:59	369509	62df4f5f6812864868e9ea66	402217291	1	main_slash	7	advance_on_keypress_SLASH	52	stimuli_distractor_diamondtriangles.svg	stimuli_distractor_trianglediamonds.svg	38	no	57	0	1009
6.6.1	mac	2022-12-14	22:39:48	22:46:01	371714	62df4f5f6812864868e9ea66	402217291	1	main_slash	7	main_slash	53	stimuli_distractor_trianglediamonds.svg	stimuli_target_trianglesquares.svg	26	yes	53	1	555
6.6.1	mac	2022-12-14	22:39:48	22:46:01	371714	62df4f5f6812864868e9ea66	402217291	1	main_slash	7	advance_on_keypress_SLASH	54	stimuli_distractor_trianglediamonds.svg	stimuli_target_trianglesquares.svg	26	yes	57	0	1680
6.6.1	mac	2022-12-14	22:39:48	22:46:04	374532	62df4f5f6812864868e9ea66	402217291	1	main_slash	7	main_slash	55	stimuli_target_circlediamonds.svg	stimuli_distractor_diamondtriangles.svg	6	yes	53	1	506
6.6.1	mac	2022-12-14	22:39:48	22:46:04	374532	62df4f5f6812864868e9ea66	402217291	1	main_slash	7	advance_on_keypress_SLASH	56	stimuli_target_circlediamonds.svg	stimuli_distractor_diamondtriangles.svg	6	yes	57	0	628
6.6.1	mac	2022-12-14	22:39:48	22:46:06	376231	62df4f5f6812864868e9ea66	402217291	1	main_slash	7	main_slash	57	stimuli_target_trianglecircles.svg	stimuli_distractor_diamondtriangles.svg	21	yes	53	1	438
6.6.1	mac	2022-12-14	22:39:48	22:46:06	376231	62df4f5f6812864868e9ea66	402217291	1	main_slash	7	advance_on_keypress_SLASH	58	stimuli_target_trianglecircles.svg	stimuli_distractor_diamondtriangles.svg	21	yes	57	0	611
6.6.1	mac	2022-12-14	22:39:48	22:46:08	378141	62df4f5f6812864868e9ea66	402217291	1	main_slash	7	main_slash	59	stimuli_distractor_trianglediamonds.svg	stimuli_distractor_diamondtriangles.svg	35	no	53	0	665
6.6.1	mac	2022-12-14	22:39:48	22:46:08	378141	62df4f5f6812864868e9ea66	402217291	1	main_slash	7	advance_on_keypress_SLASH	60	stimuli_distractor_trianglediamonds.svg	stimuli_distractor_diamondtriangles.svg	35	no	57	0	911
6.6.1	mac	2022-12-14	22:39:48	22:46:10	380310	62df4f5f6812864868e9ea66	402217291	1	main_slash	7	main_slash	61	stimuli_distractor_diamondtriangles.svg	stimuli_target_squaretriangles.svg	15	yes	53	1	617
6.6.1	mac	2022-12-14	22:39:48	22:46:10	380310	62df4f5f6812864868e9ea66	402217291	1	main_slash	7	advance_on_keypress_SLASH	62	stimuli_distractor_diamondtriangles.svg	stimuli_target_squaretriangles.svg	15	yes	57	0	553
6.6.1	mac	2022-12-14	22:39:48	22:46:12	382201	62df4f5f6812864868e9ea66	402217291	1	main_slash	7	main_slash	63	stimuli_target_diamondsquares.svg	stimuli_distractor_diamondtriangles.svg	24	yes	53	1	709
6.6.1	mac	2022-12-14	22:39:48	22:46:12	382201	62df4f5f6812864868e9ea66	402217291	1	main_slash	7	advance_on_keypress_SLASH	64	stimuli_target_diamondsquares.svg	stimuli_distractor_diamondtriangles.svg	24	yes	57	0	560
6.6.1	mac	2022-12-14	22:39:48	22:46:14	383995	62df4f5f6812864868e9ea66	402217291	1	main_slash	7	main_slash	65	stimuli_distractor_trianglediamonds.svg	stimuli_target_circlediamonds.svg	10	yes	53	1	602
6.6.1	mac	2022-12-14	22:39:48	22:46:14	383995	62df4f5f6812864868e9ea66	402217291	1	main_slash	7	advance_on_keypress_SLASH	66	stimuli_distractor_trianglediamonds.svg	stimuli_target_circlediamonds.svg	10	yes	57	0	575
6.6.1	mac	2022-12-14	22:39:48	22:46:15	385640	62df4f5f6812864868e9ea66	402217291	1	main_slash	7	main_slash	67	stimuli_distractor_diamondtriangles.svg	stimuli_target_circletriangles.svg	13	yes	53	1	446
6.6.1	mac	2022-12-14	22:39:48	22:46:15	385640	62df4f5f6812864868e9ea66	402217291	1	main_slash	7	advance_on_keypress_SLASH	68	stimuli_distractor_diamondtriangles.svg	stimuli_target_circletriangles.svg	13	yes	57	0	474
6.6.1	mac	2022-12-14	22:39:48	22:46:17	387326	62df4f5f6812864868e9ea66	402217291	1	main_slash	7	main_slash	69	stimuli_distractor_trianglediamonds.svg	stimuli_target_squaretriangles.svg	11	yes	53	1	583
6.6.1	mac	2022-12-14	22:39:48	22:46:17	387326	62df4f5f6812864868e9ea66	402217291	1	main_slash	7	advance_on_keypress_SLASH	70	stimuli_distractor_trianglediamonds.svg	stimuli_target_squaretriangles.svg	11	yes	57	0	815
6.6.1	mac	2022-12-14	22:39:48	22:46:19	389467	62df4f5f6812864868e9ea66	402217291	1	main_slash	7	main_slash	71	stimuli_target_diamondcircles.svg	stimuli_distractor_trianglediamonds.svg	19	yes	53	1	690
6.6.1	mac	2022-12-14	22:39:48	22:46:19	389467	62df4f5f6812864868e9ea66	402217291	1	main_slash	7	advance_on_keypress_SLASH	72	stimuli_target_diamondcircles.svg	stimuli_distractor_trianglediamonds.svg	19	yes	57	0	798
6.6.1	mac	2022-12-14	22:39:48	22:46:23	392892	62df4f5f6812864868e9ea66	402217291	1	main_slash	7	main_slash	73	stimuli_distractor_trianglediamonds.svg	stimuli_distractor_trianglediamonds.svg	34	no	0	1	2000
6.6.1	mac	2022-12-14	22:39:48	22:46:23	392892	62df4f5f6812864868e9ea66	402217291	1	main_slash	7	advance_on_keypress_SLASH	74	stimuli_distractor_trianglediamonds.svg	stimuli_distractor_trianglediamonds.svg	34	no	57	0	484
6.6.1	mac	2022-12-14	22:39:48	22:46:24	394389	62df4f5f6812864868e9ea66	402217291	1	main_slash	7	main_slash	75	stimuli_target_circlediamonds.svg	stimuli_distractor_trianglediamonds.svg	2	yes	53	1	381
6.6.1	mac	2022-12-14	22:39:48	22:46:24	394389	62df4f5f6812864868e9ea66	402217291	1	main_slash	7	advance_on_keypress_SLASH	76	stimuli_target_circlediamonds.svg	stimuli_distractor_trianglediamonds.svg	2	yes	57	0	855
6.6.1	mac	2022-12-14	22:39:48	22:46:26	396512	62df4f5f6812864868e9ea66	402217291	1	main_slash	7	main_slash	77	stimuli_target_trianglesquares.svg	stimuli_distractor_diamondtriangles.svg	22	yes	53	1	619
6.6.1	mac	2022-12-14	22:39:48	22:46:26	396512	62df4f5f6812864868e9ea66	402217291	1	main_slash	7	advance_on_keypress_SLASH	78	stimuli_target_trianglesquares.svg	stimuli_distractor_diamondtriangles.svg	22	yes	57	0	534
6.6.1	mac	2022-12-14	22:39:48	22:46:28	398323	62df4f5f6812864868e9ea66	402217291	1	main_slash	7	main_slash	79	stimuli_target_squaretriangles.svg	stimuli_distractor_trianglediamonds.svg	3	yes	53	1	648
6.6.1	mac	2022-12-14	22:39:48	22:46:28	398323	62df4f5f6812864868e9ea66	402217291	1	main_slash	7	advance_on_keypress_SLASH	80	stimuli_target_squaretriangles.svg	stimuli_distractor_trianglediamonds.svg	3	yes	57	0	1260
6.6.1	mac	2022-12-14	22:39:48	22:46:30	400706	62df4f5f6812864868e9ea66	402217291	1	main_slash	7	main_slash	81	stimuli_target_squaretriangles.svg	stimuli_distractor_diamondtriangles.svg	7	yes	53	1	479
6.6.1	mac	2022-12-14	22:39:48	22:46:30	400706	62df4f5f6812864868e9ea66	402217291	1	main_slash	7	advance_on_keypress_SLASH	82	stimuli_target_squaretriangles.svg	stimuli_distractor_diamondtriangles.svg	7	yes	57	0	672
6.6.1	mac	2022-12-14	22:39:48	22:46:34	404009	62df4f5f6812864868e9ea66	402217291	1	main_slash	7	main_slash	83	stimuli_distractor_trianglediamonds.svg	stimuli_distractor_diamondtriangles.svg	36	no	0	1	2000
6.6.1	mac	2022-12-14	22:39:48	22:46:34	404009	62df4f5f6812864868e9ea66	402217291	1	main_slash	7	advance_on_keypress_SLASH	84	stimuli_distractor_trianglediamonds.svg	stimuli_distractor_diamondtriangles.svg	36	no	57	0	261
6.6.1	mac	2022-12-14	22:39:48	22:46:35	405536	62df4f5f6812864868e9ea66	402217291	1	main_slash	7	main_slash	85	stimuli_distractor_trianglediamonds.svg	stimuli_target_circletriangles.svg	9	yes	53	1	626
6.6.1	mac	2022-12-14	22:39:48	22:46:35	405536	62df4f5f6812864868e9ea66	402217291	1	main_slash	7	advance_on_keypress_SLASH	86	stimuli_distractor_trianglediamonds.svg	stimuli_target_circletriangles.svg	9	yes	57	0	972
6.6.1	mac	2022-12-14	22:39:48	22:46:37	407659	62df4f5f6812864868e9ea66	402217291	1	main_slash	7	main_slash	87	stimuli_distractor_diamondtriangles.svg	stimuli_target_trianglecircles.svg	29	yes	53	1	534
6.6.1	mac	2022-12-14	22:39:48	22:46:37	407659	62df4f5f6812864868e9ea66	402217291	1	main_slash	7	advance_on_keypress_SLASH	88	stimuli_distractor_diamondtriangles.svg	stimuli_target_trianglecircles.svg	29	yes	57	0	716
6.6.1	mac	2022-12-14	22:39:48	22:46:41	411010	62df4f5f6812864868e9ea66	402217291	1	main_slash	7	main_slash	89	stimuli_distractor_diamondtriangles.svg	stimuli_distractor_diamondtriangles.svg	40	no	0	1	2000
6.6.1	mac	2022-12-14	22:39:48	22:46:41	411010	62df4f5f6812864868e9ea66	402217291	1	main_slash	7	advance_on_keypress_SLASH	90	stimuli_distractor_diamondtriangles.svg	stimuli_distractor_diamondtriangles.svg	40	no	57	0	501
6.6.1	mac	2022-12-14	22:39:48	22:46:43	413095	62df4f5f6812864868e9ea66	402217291	1	main_slash	7	main_slash	91	stimuli_target_trianglesquares.svg	stimuli_distractor_diamondtriangles.svg	22	yes	53	1	952
6.6.1	mac	2022-12-14	22:39:48	22:46:43	413095	62df4f5f6812864868e9ea66	402217291	1	main_slash	7	advance_on_keypress_SLASH	92	stimuli_target_trianglesquares.svg	stimuli_distractor_diamondtriangles.svg	22	yes	57	0	911
6.6.1	mac	2022-12-14	22:39:48	22:46:46	416642	62df4f5f6812864868e9ea66	402217291	1	main_slash	7	main_slash	93	stimuli_distractor_trianglediamonds.svg	stimuli_distractor_trianglediamonds.svg	33	no	0	1	2000
6.6.1	mac	2022-12-14	22:39:48	22:46:46	416642	62df4f5f6812864868e9ea66	402217291	1	main_slash	7	advance_on_keypress_SLASH	94	stimuli_distractor_trianglediamonds.svg	stimuli_distractor_trianglediamonds.svg	33	no	57	0	1256
6.6.1	mac	2022-12-14	22:39:48	22:46:49	419126	62df4f5f6812864868e9ea66	402217291	1	main_slash	7	main_slash	95	stimuli_distractor_trianglediamonds.svg	stimuli_target_diamondsquares.svg	28	yes	53	1	600
6.6.1	mac	2022-12-14	22:39:48	22:46:49	419126	62df4f5f6812864868e9ea66	402217291	1	main_slash	7	advance_on_keypress_SLASH	96	stimuli_distractor_trianglediamonds.svg	stimuli_target_diamondsquares.svg	28	yes	57	0	944
6.6.1	mac	2022-12-14	22:39:48	22:46:51	421362	62df4f5f6812864868e9ea66	402217291	1	main_slash	7	main_slash	97	stimuli_target_circletriangles.svg	stimuli_distractor_trianglediamonds.svg	1	yes	53	1	653
6.6.1	mac	2022-12-14	22:39:48	22:46:51	421362	62df4f5f6812864868e9ea66	402217291	1	main_slash	7	advance_on_keypress_SLASH	98	stimuli_target_circletriangles.svg	stimuli_distractor_trianglediamonds.svg	1	yes	57	0	780
6.6.1	mac	2022-12-14	22:39:48	22:46:53	423425	62df4f5f6812864868e9ea66	402217291	1	main_slash	7	main_slash	99	stimuli_distractor_trianglediamonds.svg	stimuli_target_squarediamonds.svg	12	yes	53	1	649
6.6.1	mac	2022-12-14	22:39:48	22:46:53	423425	62df4f5f6812864868e9ea66	402217291	1	main_slash	7	advance_on_keypress_SLASH	100	stimuli_distractor_trianglediamonds.svg	stimuli_target_squarediamonds.svg	12	yes	57	0	812
6.6.1	mac	2022-12-14	22:39:48	22:46:55	425414	62df4f5f6812864868e9ea66	402217291	1	main_slash	7	main_slash	101	stimuli_distractor_diamondtriangles.svg	stimuli_target_circletriangles.svg	13	yes	53	1	535
6.6.1	mac	2022-12-14	22:39:48	22:46:55	425414	62df4f5f6812864868e9ea66	402217291	1	main_slash	7	advance_on_keypress_SLASH	102	stimuli_distractor_diamondtriangles.svg	stimuli_target_circletriangles.svg	13	yes	57	0	1538
6.6.1	mac	2022-12-14	22:39:48	22:46:58	428086	62df4f5f6812864868e9ea66	402217291	1	main_slash	7	main_slash	103	stimuli_distractor_trianglediamonds.svg	stimuli_target_squaretriangles.svg	11	yes	53	1	493
6.6.1	mac	2022-12-14	22:39:48	22:46:58	428086	62df4f5f6812864868e9ea66	402217291	1	main_slash	7	advance_on_keypress_SLASH	104	stimuli_distractor_trianglediamonds.svg	stimuli_target_squaretriangles.svg	11	yes	57	0	1126
6.6.1	mac	2022-12-14	22:39:48	22:47:00	430827	62df4f5f6812864868e9ea66	402217291	1	main_slash	7	main_slash	105	stimuli_target_diamondsquares.svg	stimuli_distractor_diamondtriangles.svg	24	yes	53	1	983
6.6.1	mac	2022-12-14	22:39:48	22:47:00	430827	62df4f5f6812864868e9ea66	402217291	1	main_slash	7	advance_on_keypress_SLASH	106	stimuli_target_diamondsquares.svg	stimuli_distractor_diamondtriangles.svg	24	yes	57	0	652
6.6.1	mac	2022-12-14	22:39:48	22:47:02	432653	62df4f5f6812864868e9ea66	402217291	1	main_slash	7	main_slash	107	stimuli_target_diamondsquares.svg	stimuli_distractor_trianglediamonds.svg	20	yes	53	1	543
6.6.1	mac	2022-12-14	22:39:48	22:47:02	432653	62df4f5f6812864868e9ea66	402217291	1	main_slash	7	advance_on_keypress_SLASH	108	stimuli_target_diamondsquares.svg	stimuli_distractor_trianglediamonds.svg	20	yes	57	0	677
6.6.1	mac	2022-12-14	22:39:48	22:47:04	434562	62df4f5f6812864868e9ea66	402217291	1	main_slash	7	main_slash	109	stimuli_distractor_diamondtriangles.svg	stimuli_target_diamondsquares.svg	32	yes	53	1	602
6.6.1	mac	2022-12-14	22:39:48	22:47:04	434562	62df4f5f6812864868e9ea66	402217291	1	main_slash	7	advance_on_keypress_SLASH	110	stimuli_distractor_diamondtriangles.svg	stimuli_target_diamondsquares.svg	32	yes	57	0	618
6.6.1	mac	2022-12-14	22:39:48	22:47:06	436452	62df4f5f6812864868e9ea66	402217291	1	main_slash	7	main_slash	111	stimuli_target_trianglecircles.svg	stimuli_distractor_diamondtriangles.svg	21	yes	53	1	642
6.6.1	mac	2022-12-14	22:39:48	22:47:06	436452	62df4f5f6812864868e9ea66	402217291	1	main_slash	7	advance_on_keypress_SLASH	112	stimuli_target_trianglecircles.svg	stimuli_distractor_diamondtriangles.svg	21	yes	57	0	990
6.6.1	mac	2022-12-14	22:39:48	22:47:10	440059	62df4f5f6812864868e9ea66	402217291	1	main_slash	7	main_slash	113	stimuli_distractor_trianglediamonds.svg	stimuli_distractor_trianglediamonds.svg	34	no	0	1	2000
6.6.1	mac	2022-12-14	22:39:48	22:47:10	440059	62df4f5f6812864868e9ea66	402217291	1	main_slash	7	advance_on_keypress_SLASH	114	stimuli_distractor_trianglediamonds.svg	stimuli_distractor_trianglediamonds.svg	34	no	57	0	603
6.6.1	mac	2022-12-14	22:39:48	22:47:11	441690	62df4f5f6812864868e9ea66	402217291	1	main_slash	7	main_slash	115	stimuli_distractor_diamondtriangles.svg	stimuli_target_diamondcircles.svg	31	yes	53	1	398
6.6.1	mac	2022-12-14	22:39:48	22:47:11	441690	62df4f5f6812864868e9ea66	402217291	1	main_slash	7	advance_on_keypress_SLASH	116	stimuli_distractor_diamondtriangles.svg	stimuli_target_diamondcircles.svg	31	yes	57	0	824
6.6.1	mac	2022-12-14	22:39:48	22:47:13	443702	62df4f5f6812864868e9ea66	402217291	1	main_slash	7	main_slash	117	stimuli_target_diamondcircles.svg	stimuli_distractor_diamondtriangles.svg	23	yes	53	1	558
6.6.1	mac	2022-12-14	22:39:48	22:47:13	443702	62df4f5f6812864868e9ea66	402217291	1	main_slash	7	advance_on_keypress_SLASH	118	stimuli_target_diamondcircles.svg	stimuli_distractor_diamondtriangles.svg	23	yes	57	0	989
6.6.1	mac	2022-12-14	22:39:48	22:47:16	446194	62df4f5f6812864868e9ea66	402217291	1	main_slash	7	main_slash	119	stimuli_target_circletriangles.svg	stimuli_distractor_diamondtriangles.svg	5	yes	53	1	868
6.6.1	mac	2022-12-14	22:39:48	22:47:16	446194	62df4f5f6812864868e9ea66	402217291	1	main_slash	7	advance_on_keypress_SLASH	120	stimuli_target_circletriangles.svg	stimuli_distractor_diamondtriangles.svg	5	yes	57	0	1386
6.6.1	mac	2022-12-14	22:39:48	22:47:18	448854	62df4f5f6812864868e9ea66	402217291	1	main_slash	7	main_slash	121	stimuli_target_trianglesquares.svg	stimuli_distractor_trianglediamonds.svg	18	yes	53	1	644
6.6.1	mac	2022-12-14	22:39:48	22:47:18	448854	62df4f5f6812864868e9ea66	402217291	1	main_slash	7	advance_on_keypress_SLASH	122	stimuli_target_trianglesquares.svg	stimuli_distractor_trianglediamonds.svg	18	yes	57	0	662
6.6.1	mac	2022-12-14	22:39:48	22:47:20	450695	62df4f5f6812864868e9ea66	402217291	1	main_slash	7	main_slash	123	stimuli_distractor_diamondtriangles.svg	stimuli_distractor_trianglediamonds.svg	38	no	53	0	535
6.6.1	mac	2022-12-14	22:39:48	22:47:20	450695	62df4f5f6812864868e9ea66	402217291	1	main_slash	7	advance_on_keypress_SLASH	124	stimuli_distractor_diamondtriangles.svg	stimuli_distractor_trianglediamonds.svg	38	no	57	0	1157
6.6.1	mac	2022-12-14	22:39:48	22:47:23	453155	62df4f5f6812864868e9ea66	402217291	1	main_slash	7	main_slash	125	stimuli_target_circlediamonds.svg	stimuli_distractor_diamondtriangles.svg	6	yes	53	1	662
6.6.1	mac	2022-12-14	22:39:48	22:47:23	453155	62df4f5f6812864868e9ea66	402217291	1	main_slash	7	advance_on_keypress_SLASH	126	stimuli_target_circlediamonds.svg	stimuli_distractor_diamondtriangles.svg	6	yes	57	0	1028
6.6.1	mac	2022-12-14	22:39:48	22:47:26	456825	62df4f5f6812864868e9ea66	402217291	1	main_slash	7	main_slash	127	stimuli_distractor_diamondtriangles.svg	stimuli_target_squaretriangles.svg	15	yes	0	0	2000
6.6.1	mac	2022-12-14	22:39:48	22:47:26	456825	62df4f5f6812864868e9ea66	402217291	1	main_slash	7	advance_on_keypress_SLASH	128	stimuli_distractor_diamondtriangles.svg	stimuli_target_squaretriangles.svg	15	yes	57	0	551
6.6.1	mac	2022-12-14	22:39:48	22:47:30	460009	62df4f5f6812864868e9ea66	402217291	1	main_slash	7	main_slash	129	stimuli_distractor_diamondtriangles.svg	stimuli_distractor_trianglediamonds.svg	37	no	0	1	2000
6.6.1	mac	2022-12-14	22:39:48	22:47:30	460009	62df4f5f6812864868e9ea66	402217291	1	main_slash	7	advance_on_keypress_SLASH	130	stimuli_distractor_diamondtriangles.svg	stimuli_distractor_trianglediamonds.svg	37	no	57	0	409
6.6.1	mac	2022-12-14	22:39:48	22:47:31	461640	62df4f5f6812864868e9ea66	402217291	1	main_slash	7	main_slash	131	stimuli_target_diamondcircles.svg	stimuli_distractor_trianglediamonds.svg	19	yes	53	1	596
6.6.1	mac	2022-12-14	22:39:48	22:47:31	461640	62df4f5f6812864868e9ea66	402217291	1	main_slash	7	advance_on_keypress_SLASH	132	stimuli_target_diamondcircles.svg	stimuli_distractor_trianglediamonds.svg	19	yes	57	0	2336
6.6.1	mac	2022-12-14	22:39:48	22:47:35	465271	62df4f5f6812864868e9ea66	402217291	1	main_slash	7	main_slash	133	stimuli_distractor_diamondtriangles.svg	stimuli_target_circlediamonds.svg	14	yes	53	1	661
6.6.1	mac	2022-12-14	22:39:48	22:47:35	465271	62df4f5f6812864868e9ea66	402217291	1	main_slash	7	advance_on_keypress_SLASH	134	stimuli_distractor_diamondtriangles.svg	stimuli_target_circlediamonds.svg	14	yes	57	0	1706
6.6.1	mac	2022-12-14	22:39:48	22:47:38	468234	62df4f5f6812864868e9ea66	402217291	1	main_slash	7	main_slash	135	stimuli_target_squarediamonds.svg	stimuli_distractor_trianglediamonds.svg	4	yes	53	1	624
6.6.1	mac	2022-12-14	22:39:48	22:47:38	468234	62df4f5f6812864868e9ea66	402217291	1	main_slash	7	advance_on_keypress_SLASH	136	stimuli_target_squarediamonds.svg	stimuli_distractor_trianglediamonds.svg	4	yes	57	0	813
6.6.1	mac	2022-12-14	22:39:48	22:47:40	470267	62df4f5f6812864868e9ea66	402217291	1	main_slash	7	main_slash	137	stimuli_target_trianglecircles.svg	stimuli_distractor_trianglediamonds.svg	17	yes	53	1	574
6.6.1	mac	2022-12-14	22:39:48	22:47:40	470267	62df4f5f6812864868e9ea66	402217291	1	main_slash	7	advance_on_keypress_SLASH	138	stimuli_target_trianglecircles.svg	stimuli_distractor_trianglediamonds.svg	17	yes	57	0	757
6.6.1	mac	2022-12-14	22:39:48	22:47:42	472311	62df4f5f6812864868e9ea66	402217291	1	main_slash	7	main_slash	139	stimuli_distractor_diamondtriangles.svg	stimuli_target_trianglesquares.svg	30	yes	53	1	652
6.6.1	mac	2022-12-14	22:39:48	22:47:42	472311	62df4f5f6812864868e9ea66	402217291	1	main_slash	7	advance_on_keypress_SLASH	140	stimuli_distractor_diamondtriangles.svg	stimuli_target_trianglesquares.svg	30	yes	57	0	581
6.6.1	mac	2022-12-14	22:39:48	22:47:44	474048	62df4f5f6812864868e9ea66	402217291	1	main_slash	7	main_slash	141	stimuli_distractor_trianglediamonds.svg	stimuli_target_trianglecircles.svg	25	yes	53	1	522
6.6.1	mac	2022-12-14	22:39:48	22:47:44	474048	62df4f5f6812864868e9ea66	402217291	1	main_slash	7	advance_on_keypress_SLASH	142	stimuli_distractor_trianglediamonds.svg	stimuli_target_trianglecircles.svg	25	yes	57	0	787
6.6.1	mac	2022-12-14	22:39:48	22:47:46	476827	62df4f5f6812864868e9ea66	402217291	1	main_slash	7	main_slash	143	stimuli_target_circlediamonds.svg	stimuli_distractor_trianglediamonds.svg	2	yes	53	1	1348
6.6.1	mac	2022-12-14	22:39:48	22:47:46	476827	62df4f5f6812864868e9ea66	402217291	1	main_slash	7	advance_on_keypress_SLASH	144	stimuli_target_circlediamonds.svg	stimuli_distractor_trianglediamonds.svg	2	yes	57	0	884
6.6.1	mac	2022-12-14	22:39:48	22:47:49	478935	62df4f5f6812864868e9ea66	402217291	1	main_slash	7	main_slash	145	stimuli_distractor_trianglediamonds.svg	stimuli_target_diamondcircles.svg	27	yes	53	1	592
6.6.1	mac	2022-12-14	22:39:48	22:47:49	478935	62df4f5f6812864868e9ea66	402217291	1	main_slash	7	advance_on_keypress_SLASH	146	stimuli_distractor_trianglediamonds.svg	stimuli_target_diamondcircles.svg	27	yes	57	0	1076
6.6.1	mac	2022-12-14	22:39:48	22:47:51	481247	62df4f5f6812864868e9ea66	402217291	1	main_slash	7	main_slash	147	stimuli_target_squarediamonds.svg	stimuli_distractor_diamondtriangles.svg	8	yes	53	1	622
6.6.1	mac	2022-12-14	22:39:48	22:47:51	481247	62df4f5f6812864868e9ea66	402217291	1	main_slash	7	advance_on_keypress_SLASH	148	stimuli_target_squarediamonds.svg	stimuli_distractor_diamondtriangles.svg	8	yes	57	0	852
6.6.1	mac	2022-12-14	22:39:48	22:47:53	483436	62df4f5f6812864868e9ea66	402217291	1	main_slash	7	main_slash	149	stimuli_distractor_trianglediamonds.svg	stimuli_target_trianglesquares.svg	26	yes	53	1	690
6.6.1	mac	2022-12-14	22:39:48	22:47:53	483436	62df4f5f6812864868e9ea66	402217291	1	main_slash	7	advance_on_keypress_SLASH	150	stimuli_distractor_trianglediamonds.svg	stimuli_target_trianglesquares.svg	26	yes	57	0	928
6.6.1	mac	2022-12-14	22:39:48	22:47:55	485503	62df4f5f6812864868e9ea66	402217291	1	main_slash	7	main_slash	151	stimuli_distractor_trianglediamonds.svg	stimuli_distractor_diamondtriangles.svg	35	no	53	0	510
6.6.1	mac	2022-12-14	22:39:48	22:47:55	485503	62df4f5f6812864868e9ea66	402217291	1	main_slash	7	advance_on_keypress_SLASH	152	stimuli_distractor_trianglediamonds.svg	stimuli_distractor_diamondtriangles.svg	35	no	57	0	1253
6.6.1	mac	2022-12-14	22:39:48	22:47:58	487948	62df4f5f6812864868e9ea66	402217291	1	main_slash	7	main_slash	153	stimuli_target_squaretriangles.svg	stimuli_distractor_trianglediamonds.svg	3	yes	53	1	555
6.6.1	mac	2022-12-14	22:39:48	22:47:58	487948	62df4f5f6812864868e9ea66	402217291	1	main_slash	7	advance_on_keypress_SLASH	154	stimuli_target_squaretriangles.svg	stimuli_distractor_trianglediamonds.svg	3	yes	57	0	587
6.6.1	mac	2022-12-14	22:39:48	22:48:01	491176	62df4f5f6812864868e9ea66	402217291	1	main_slash	7	main_slash	155	stimuli_distractor_diamondtriangles.svg	stimuli_target_squarediamonds.svg	16	yes	0	0	2000
6.6.1	mac	2022-12-14	22:39:48	22:48:01	491176	62df4f5f6812864868e9ea66	402217291	1	main_slash	7	advance_on_keypress_SLASH	156	stimuli_distractor_diamondtriangles.svg	stimuli_target_squarediamonds.svg	16	yes	57	0	435
6.6.1	mac	2022-12-14	22:39:48	22:48:02	492846	62df4f5f6812864868e9ea66	402217291	1	main_slash	7	main_slash	157	stimuli_distractor_trianglediamonds.svg	stimuli_target_circlediamonds.svg	10	yes	53	1	603
6.6.1	mac	2022-12-14	22:39:48	22:48:02	492846	62df4f5f6812864868e9ea66	402217291	1	main_slash	7	advance_on_keypress_SLASH	158	stimuli_distractor_trianglediamonds.svg	stimuli_target_circlediamonds.svg	10	yes	57	0	651
6.6.1	mac	2022-12-14	22:39:48	22:48:06	496142	62df4f5f6812864868e9ea66	402217291	1	main_slash	7	main_slash	159	stimuli_distractor_diamondtriangles.svg	stimuli_distractor_diamondtriangles.svg	39	no	0	1	2000
6.6.1	mac	2022-12-14	22:39:48	22:48:06	496142	62df4f5f6812864868e9ea66	402217291	1	main_slash	7	advance_on_keypress_SLASH	160	stimuli_distractor_diamondtriangles.svg	stimuli_distractor_diamondtriangles.svg	39	no	57	0	438
6.6.1	mac	2022-12-14	22:39:48	22:48:29	519134	62df4f5f6812864868e9ea66	402217291	1	practice_z	9	practice_z	1	stimuli_target_circlediamonds.svg	stimuli_distractor_diamondtriangles.svg	1	yes	44	1	673
6.6.1	mac	2022-12-14	22:39:48	22:48:29	519134	62df4f5f6812864868e9ea66	402217291	1	practice_z	9	advance_on_keypress_ZEE	2	stimuli_target_circlediamonds.svg	stimuli_distractor_diamondtriangles.svg	1	yes	57	0	1148
6.6.1	mac	2022-12-14	22:39:48	22:48:32	522714	62df4f5f6812864868e9ea66	402217291	1	practice_z	9	practice_z	3	stimuli_target_diamondsquares.svg	stimuli_distractor_diamondtriangles.svg	3	yes	44	1	787
6.6.1	mac	2022-12-14	22:39:48	22:48:32	522714	62df4f5f6812864868e9ea66	402217291	1	practice_z	9	advance_on_keypress_ZEE	4	stimuli_target_diamondsquares.svg	stimuli_distractor_diamondtriangles.svg	3	yes	57	0	976
6.6.1	mac	2022-12-14	22:39:48	22:48:35	525890	62df4f5f6812864868e9ea66	402217291	1	practice_z	9	practice_z	5	stimuli_target_circlediamonds.svg	stimuli_distractor_trianglediamonds.svg	4	yes	44	1	564
6.6.1	mac	2022-12-14	22:39:48	22:48:35	525890	62df4f5f6812864868e9ea66	402217291	1	practice_z	9	advance_on_keypress_ZEE	6	stimuli_target_circlediamonds.svg	stimuli_distractor_trianglediamonds.svg	4	yes	57	0	596
6.6.1	mac	2022-12-14	22:39:48	22:48:38	528738	62df4f5f6812864868e9ea66	402217291	1	practice_z	9	practice_z	7	stimuli_distractor_trianglediamonds.svg	stimuli_distractor_diamondtriangles.svg	16	no	44	0	613
6.6.1	mac	2022-12-14	22:39:48	22:48:38	528738	62df4f5f6812864868e9ea66	402217291	1	practice_z	9	advance_on_keypress_ZEE	8	stimuli_distractor_trianglediamonds.svg	stimuli_distractor_diamondtriangles.svg	16	no	57	0	816
6.6.1	mac	2022-12-14	22:39:48	22:48:41	531765	62df4f5f6812864868e9ea66	402217291	1	practice_z	9	practice_z	9	stimuli_distractor_diamondtriangles.svg	stimuli_target_diamondcircles.svg	8	yes	44	1	556
6.6.1	mac	2022-12-14	22:39:48	22:48:41	531765	62df4f5f6812864868e9ea66	402217291	1	practice_z	9	advance_on_keypress_ZEE	10	stimuli_distractor_diamondtriangles.svg	stimuli_target_diamondcircles.svg	8	yes	57	0	655
6.6.1	mac	2022-12-14	22:39:48	22:48:44	534719	62df4f5f6812864868e9ea66	402217291	1	practice_z	9	practice_z	11	stimuli_distractor_trianglediamonds.svg	stimuli_target_squarediamonds.svg	11	yes	44	1	674
6.6.1	mac	2022-12-14	22:39:48	22:48:44	534719	62df4f5f6812864868e9ea66	402217291	1	practice_z	9	advance_on_keypress_ZEE	12	stimuli_distractor_trianglediamonds.svg	stimuli_target_squarediamonds.svg	11	yes	57	0	989
6.6.1	mac	2022-12-14	22:39:48	22:48:48	538052	62df4f5f6812864868e9ea66	402217291	1	practice_z	9	practice_z	13	stimuli_distractor_diamondtriangles.svg	stimuli_target_circletriangles.svg	7	yes	44	1	726
6.6.1	mac	2022-12-14	22:39:48	22:48:48	538052	62df4f5f6812864868e9ea66	402217291	1	practice_z	9	advance_on_keypress_ZEE	14	stimuli_distractor_diamondtriangles.svg	stimuli_target_circletriangles.svg	7	yes	57	0	139
6.6.1	mac	2022-12-14	22:39:48	22:48:50	540841	62df4f5f6812864868e9ea66	402217291	1	practice_z	9	practice_z	15	stimuli_target_squarediamonds.svg	stimuli_distractor_diamondtriangles.svg	2	yes	44	1	1014
6.6.1	mac	2022-12-14	22:39:48	22:48:50	540841	62df4f5f6812864868e9ea66	402217291	1	practice_z	9	advance_on_keypress_ZEE	16	stimuli_target_squarediamonds.svg	stimuli_distractor_diamondtriangles.svg	2	yes	57	0	1453
6.6.1	mac	2022-12-14	22:39:48	22:48:56	545926	62df4f5f6812864868e9ea66	402217291	1	practice_z	9	practice_z	17	stimuli_distractor_diamondtriangles.svg	stimuli_distractor_diamondtriangles.svg	13	no	0	1	2000
6.6.1	mac	2022-12-14	22:39:48	22:48:56	545926	62df4f5f6812864868e9ea66	402217291	1	practice_z	9	advance_on_keypress_ZEE	18	stimuli_distractor_diamondtriangles.svg	stimuli_distractor_diamondtriangles.svg	13	no	57	0	738
6.6.1	mac	2022-12-14	22:39:48	22:49:00	550310	62df4f5f6812864868e9ea66	402217291	1	practice_z	9	practice_z	19	stimuli_distractor_diamondtriangles.svg	stimuli_distractor_trianglediamonds.svg	14	no	0	1	2000
6.6.1	mac	2022-12-14	22:39:48	22:49:00	550310	62df4f5f6812864868e9ea66	402217291	1	practice_z	9	advance_on_keypress_ZEE	20	stimuli_distractor_diamondtriangles.svg	stimuli_distractor_trianglediamonds.svg	14	no	57	0	1491
6.6.1	mac	2022-12-14	22:39:48	22:49:04	554026	62df4f5f6812864868e9ea66	402217291	1	practice_z	9	practice_z	21	stimuli_distractor_diamondtriangles.svg	stimuli_target_trianglecircles.svg	9	yes	44	1	601
6.6.1	mac	2022-12-14	22:39:48	22:49:04	554026	62df4f5f6812864868e9ea66	402217291	1	practice_z	9	advance_on_keypress_ZEE	22	stimuli_distractor_diamondtriangles.svg	stimuli_target_trianglecircles.svg	9	yes	57	0	585
6.6.1	mac	2022-12-14	22:39:48	22:49:07	557318	62df4f5f6812864868e9ea66	402217291	1	practice_z	9	practice_z	23	stimuli_target_squarediamonds.svg	stimuli_distractor_trianglediamonds.svg	5	yes	44	1	1058
6.6.1	mac	2022-12-14	22:39:48	22:49:07	557318	62df4f5f6812864868e9ea66	402217291	1	practice_z	9	advance_on_keypress_ZEE	24	stimuli_target_squarediamonds.svg	stimuli_distractor_trianglediamonds.svg	5	yes	57	0	527
6.6.1	mac	2022-12-14	22:39:48	22:49:10	560675	62df4f5f6812864868e9ea66	402217291	1	practice_z	9	practice_z	25	stimuli_target_diamondsquares.svg	stimuli_distractor_trianglediamonds.svg	6	yes	44	1	1197
6.6.1	mac	2022-12-14	22:39:48	22:49:10	560675	62df4f5f6812864868e9ea66	402217291	1	practice_z	9	advance_on_keypress_ZEE	26	stimuli_target_diamondsquares.svg	stimuli_distractor_trianglediamonds.svg	6	yes	57	0	104
6.6.1	mac	2022-12-14	22:39:48	22:49:13	563247	62df4f5f6812864868e9ea66	402217291	1	practice_z	9	practice_z	27	stimuli_distractor_trianglediamonds.svg	stimuli_target_circlediamonds.svg	10	yes	44	1	820
6.6.1	mac	2022-12-14	22:39:48	22:49:13	563247	62df4f5f6812864868e9ea66	402217291	1	practice_z	9	advance_on_keypress_ZEE	28	stimuli_distractor_trianglediamonds.svg	stimuli_target_circlediamonds.svg	10	yes	57	0	1281
6.6.1	mac	2022-12-14	22:39:48	22:49:18	568160	62df4f5f6812864868e9ea66	402217291	1	practice_z	9	practice_z	29	stimuli_distractor_trianglediamonds.svg	stimuli_distractor_trianglediamonds.svg	15	no	0	1	2000
6.6.1	mac	2022-12-14	22:39:48	22:49:18	568160	62df4f5f6812864868e9ea66	402217291	1	practice_z	9	advance_on_keypress_ZEE	30	stimuli_distractor_trianglediamonds.svg	stimuli_distractor_trianglediamonds.svg	15	no	57	0	86
6.6.1	mac	2022-12-14	22:39:48	22:49:20	570424	62df4f5f6812864868e9ea66	402217291	1	practice_z	9	practice_z	31	stimuli_distractor_trianglediamonds.svg	stimuli_target_diamondcircles.svg	12	yes	44	1	549
6.6.1	mac	2022-12-14	22:39:48	22:49:20	570424	62df4f5f6812864868e9ea66	402217291	1	practice_z	9	advance_on_keypress_ZEE	32	stimuli_distractor_trianglediamonds.svg	stimuli_target_diamondcircles.svg	12	yes	57	0	568
6.6.1	mac	2022-12-14	22:39:48	22:49:25	575227	62df4f5f6812864868e9ea66	402217291	1	main_z	11	main_z	1	stimuli_distractor_trianglediamonds.svg	stimuli_target_diamondcircles.svg	27	yes	44	1	750
6.6.1	mac	2022-12-14	22:39:48	22:49:25	575227	62df4f5f6812864868e9ea66	402217291	1	main_z	11	advance_on_keypress_ZEE	2	stimuli_distractor_trianglediamonds.svg	stimuli_target_diamondcircles.svg	27	yes	57	0	1216
6.6.1	mac	2022-12-14	22:39:48	22:49:27	577559	62df4f5f6812864868e9ea66	402217291	1	main_z	11	main_z	3	stimuli_distractor_diamondtriangles.svg	stimuli_target_squaretriangles.svg	15	yes	44	1	466
6.6.1	mac	2022-12-14	22:39:48	22:49:27	577559	62df4f5f6812864868e9ea66	402217291	1	main_z	11	advance_on_keypress_ZEE	4	stimuli_distractor_diamondtriangles.svg	stimuli_target_squaretriangles.svg	15	yes	57	0	576
6.6.1	mac	2022-12-14	22:39:48	22:49:29	579338	62df4f5f6812864868e9ea66	402217291	1	main_z	11	main_z	5	stimuli_distractor_diamondtriangles.svg	stimuli_target_trianglesquares.svg	30	yes	44	1	562
6.6.1	mac	2022-12-14	22:39:48	22:49:29	579338	62df4f5f6812864868e9ea66	402217291	1	main_z	11	advance_on_keypress_ZEE	6	stimuli_distractor_diamondtriangles.svg	stimuli_target_trianglesquares.svg	30	yes	57	0	526
6.6.1	mac	2022-12-14	22:39:48	22:49:32	582492	62df4f5f6812864868e9ea66	402217291	1	main_z	11	main_z	7	stimuli_distractor_diamondtriangles.svg	stimuli_distractor_diamondtriangles.svg	40	no	0	1	2000
6.6.1	mac	2022-12-14	22:39:48	22:49:32	582492	62df4f5f6812864868e9ea66	402217291	1	main_z	11	advance_on_keypress_ZEE	8	stimuli_distractor_diamondtriangles.svg	stimuli_distractor_diamondtriangles.svg	40	no	57	0	770
6.6.1	mac	2022-12-14	22:39:48	22:49:36	585893	62df4f5f6812864868e9ea66	402217291	1	main_z	11	main_z	9	stimuli_distractor_trianglediamonds.svg	stimuli_distractor_trianglediamonds.svg	33	no	0	1	2000
6.6.1	mac	2022-12-14	22:39:48	22:49:36	585893	62df4f5f6812864868e9ea66	402217291	1	main_z	11	advance_on_keypress_ZEE	10	stimuli_distractor_trianglediamonds.svg	stimuli_distractor_trianglediamonds.svg	33	no	57	0	642
6.6.1	mac	2022-12-14	22:39:48	22:49:38	588352	62df4f5f6812864868e9ea66	402217291	1	main_z	11	main_z	11	stimuli_distractor_diamondtriangles.svg	stimuli_target_trianglecircles.svg	29	yes	44	1	1194
6.6.1	mac	2022-12-14	22:39:48	22:49:38	588352	62df4f5f6812864868e9ea66	402217291	1	main_z	11	advance_on_keypress_ZEE	12	stimuli_distractor_diamondtriangles.svg	stimuli_target_trianglecircles.svg	29	yes	57	0	1200
6.6.1	mac	2022-12-14	22:39:48	22:49:40	590891	62df4f5f6812864868e9ea66	402217291	1	main_z	11	main_z	13	stimuli_distractor_trianglediamonds.svg	stimuli_target_squaretriangles.svg	11	yes	44	1	716
6.6.1	mac	2022-12-14	22:39:48	22:49:40	590891	62df4f5f6812864868e9ea66	402217291	1	main_z	11	advance_on_keypress_ZEE	14	stimuli_distractor_trianglediamonds.svg	stimuli_target_squaretriangles.svg	11	yes	57	0	715
6.6.1	mac	2022-12-14	22:39:48	22:49:42	592684	62df4f5f6812864868e9ea66	402217291	1	main_z	11	main_z	15	stimuli_target_circletriangles.svg	stimuli_distractor_trianglediamonds.svg	1	yes	44	1	441
6.6.1	mac	2022-12-14	22:39:48	22:49:42	592684	62df4f5f6812864868e9ea66	402217291	1	main_z	11	advance_on_keypress_ZEE	16	stimuli_target_circletriangles.svg	stimuli_distractor_trianglediamonds.svg	1	yes	57	0	559
6.6.1	mac	2022-12-14	22:39:48	22:49:44	594357	62df4f5f6812864868e9ea66	402217291	1	main_z	11	main_z	17	stimuli_target_circlediamonds.svg	stimuli_distractor_trianglediamonds.svg	2	yes	44	1	499
6.6.1	mac	2022-12-14	22:39:48	22:49:44	594357	62df4f5f6812864868e9ea66	402217291	1	main_z	11	advance_on_keypress_ZEE	18	stimuli_target_circlediamonds.svg	stimuli_distractor_trianglediamonds.svg	2	yes	57	0	389
6.6.1	mac	2022-12-14	22:39:48	22:49:46	596058	62df4f5f6812864868e9ea66	402217291	1	main_z	11	main_z	19	stimuli_target_trianglesquares.svg	stimuli_distractor_trianglediamonds.svg	18	yes	44	1	665
6.6.1	mac	2022-12-14	22:39:48	22:49:46	596058	62df4f5f6812864868e9ea66	402217291	1	main_z	11	advance_on_keypress_ZEE	20	stimuli_target_trianglesquares.svg	stimuli_distractor_trianglediamonds.svg	18	yes	57	0	439
6.6.1	mac	2022-12-14	22:39:48	22:49:47	597644	62df4f5f6812864868e9ea66	402217291	1	main_z	11	main_z	21	stimuli_target_circlediamonds.svg	stimuli_distractor_diamondtriangles.svg	6	yes	44	1	519
6.6.1	mac	2022-12-14	22:39:48	22:49:47	597644	62df4f5f6812864868e9ea66	402217291	1	main_z	11	advance_on_keypress_ZEE	22	stimuli_target_circlediamonds.svg	stimuli_distractor_diamondtriangles.svg	6	yes	57	0	373
6.6.1	mac	2022-12-14	22:39:48	22:49:50	600642	62df4f5f6812864868e9ea66	402217291	1	main_z	11	main_z	23	stimuli_distractor_diamondtriangles.svg	stimuli_distractor_trianglediamonds.svg	38	no	0	1	2000
6.6.1	mac	2022-12-14	22:39:48	22:49:50	600642	62df4f5f6812864868e9ea66	402217291	1	main_z	11	advance_on_keypress_ZEE	24	stimuli_distractor_diamondtriangles.svg	stimuli_distractor_trianglediamonds.svg	38	no	57	0	668
6.6.1	mac	2022-12-14	22:39:48	22:49:52	602651	62df4f5f6812864868e9ea66	402217291	1	main_z	11	main_z	25	stimuli_target_diamondsquares.svg	stimuli_distractor_trianglediamonds.svg	20	yes	44	1	708
6.6.1	mac	2022-12-14	22:39:48	22:49:52	602651	62df4f5f6812864868e9ea66	402217291	1	main_z	11	advance_on_keypress_ZEE	26	stimuli_target_diamondsquares.svg	stimuli_distractor_trianglediamonds.svg	20	yes	57	0	903
6.6.1	mac	2022-12-14	22:39:48	22:49:55	604933	62df4f5f6812864868e9ea66	402217291	1	main_z	11	main_z	27	stimuli_target_squaretriangles.svg	stimuli_distractor_diamondtriangles.svg	7	yes	44	1	757
6.6.1	mac	2022-12-14	22:39:48	22:49:55	604933	62df4f5f6812864868e9ea66	402217291	1	main_z	11	advance_on_keypress_ZEE	28	stimuli_target_squaretriangles.svg	stimuli_distractor_diamondtriangles.svg	7	yes	57	0	478
6.6.1	mac	2022-12-14	22:39:48	22:49:56	606545	62df4f5f6812864868e9ea66	402217291	1	main_z	11	main_z	29	stimuli_target_diamondcircles.svg	stimuli_distractor_trianglediamonds.svg	19	yes	44	1	521
6.6.1	mac	2022-12-14	22:39:48	22:49:56	606545	62df4f5f6812864868e9ea66	402217291	1	main_z	11	advance_on_keypress_ZEE	30	stimuli_target_diamondcircles.svg	stimuli_distractor_trianglediamonds.svg	19	yes	57	0	593
6.6.1	mac	2022-12-14	22:39:48	22:49:58	608173	62df4f5f6812864868e9ea66	402217291	1	main_z	11	main_z	31	stimuli_distractor_trianglediamonds.svg	stimuli_distractor_diamondtriangles.svg	35	no	44	0	414
6.6.1	mac	2022-12-14	22:39:48	22:49:58	608173	62df4f5f6812864868e9ea66	402217291	1	main_z	11	advance_on_keypress_ZEE	32	stimuli_distractor_trianglediamonds.svg	stimuli_distractor_diamondtriangles.svg	35	no	57	0	1668
6.6.1	mac	2022-12-14	22:39:48	22:50:01	611085	62df4f5f6812864868e9ea66	402217291	1	main_z	11	main_z	33	stimuli_distractor_trianglediamonds.svg	stimuli_target_trianglecircles.svg	25	yes	44	1	608
6.6.1	mac	2022-12-14	22:39:48	22:50:01	611085	62df4f5f6812864868e9ea66	402217291	1	main_z	11	advance_on_keypress_ZEE	34	stimuli_distractor_trianglediamonds.svg	stimuli_target_trianglecircles.svg	25	yes	57	0	840
6.6.1	mac	2022-12-14	22:39:48	22:50:03	613105	62df4f5f6812864868e9ea66	402217291	1	main_z	11	main_z	35	stimuli_target_squarediamonds.svg	stimuli_distractor_trianglediamonds.svg	4	yes	44	1	562
6.6.1	mac	2022-12-14	22:39:48	22:50:03	613105	62df4f5f6812864868e9ea66	402217291	1	main_z	11	advance_on_keypress_ZEE	36	stimuli_target_squarediamonds.svg	stimuli_distractor_trianglediamonds.svg	4	yes	57	0	752
6.6.1	mac	2022-12-14	22:39:48	22:50:04	614857	62df4f5f6812864868e9ea66	402217291	1	main_z	11	main_z	37	stimuli_distractor_diamondtriangles.svg	stimuli_distractor_diamondtriangles.svg	39	no	44	0	365
6.6.1	mac	2022-12-14	22:39:48	22:50:04	614857	62df4f5f6812864868e9ea66	402217291	1	main_z	11	advance_on_keypress_ZEE	38	stimuli_distractor_diamondtriangles.svg	stimuli_distractor_diamondtriangles.svg	39	no	57	0	1947
6.6.1	mac	2022-12-14	22:39:48	22:50:07	617885	62df4f5f6812864868e9ea66	402217291	1	main_z	11	main_z	39	stimuli_target_trianglecircles.svg	stimuli_distractor_diamondtriangles.svg	21	yes	44	1	425
6.6.1	mac	2022-12-14	22:39:48	22:50:07	617885	62df4f5f6812864868e9ea66	402217291	1	main_z	11	advance_on_keypress_ZEE	40	stimuli_target_trianglecircles.svg	stimuli_distractor_diamondtriangles.svg	21	yes	57	0	621
6.6.1	mac	2022-12-14	22:39:48	22:50:09	619745	62df4f5f6812864868e9ea66	402217291	1	main_z	11	main_z	41	stimuli_target_squarediamonds.svg	stimuli_distractor_diamondtriangles.svg	8	yes	44	1	619
6.6.1	mac	2022-12-14	22:39:48	22:50:09	619745	62df4f5f6812864868e9ea66	402217291	1	main_z	11	advance_on_keypress_ZEE	42	stimuli_target_squarediamonds.svg	stimuli_distractor_diamondtriangles.svg	8	yes	57	0	2423
6.6.1	mac	2022-12-14	22:39:48	22:50:14	624792	62df4f5f6812864868e9ea66	402217291	1	main_z	11	main_z	43	stimuli_distractor_trianglediamonds.svg	stimuli_distractor_diamondtriangles.svg	36	no	0	1	2000
6.6.1	mac	2022-12-14	22:39:48	22:50:14	624792	62df4f5f6812864868e9ea66	402217291	1	main_z	11	advance_on_keypress_ZEE	44	stimuli_distractor_trianglediamonds.svg	stimuli_distractor_diamondtriangles.svg	36	no	57	0	938
6.6.1	mac	2022-12-14	22:39:48	22:50:18	628358	62df4f5f6812864868e9ea66	402217291	1	main_z	11	main_z	45	stimuli_distractor_diamondtriangles.svg	stimuli_distractor_trianglediamonds.svg	37	no	0	1	2000
6.6.1	mac	2022-12-14	22:39:48	22:50:18	628358	62df4f5f6812864868e9ea66	402217291	1	main_z	11	advance_on_keypress_ZEE	46	stimuli_distractor_diamondtriangles.svg	stimuli_distractor_trianglediamonds.svg	37	no	57	0	559
6.6.1	mac	2022-12-14	22:39:48	22:50:21	631542	62df4f5f6812864868e9ea66	402217291	1	main_z	11	main_z	47	stimuli_target_squaretriangles.svg	stimuli_distractor_trianglediamonds.svg	3	yes	0	0	2000
6.6.1	mac	2022-12-14	22:39:48	22:50:21	631542	62df4f5f6812864868e9ea66	402217291	1	main_z	11	advance_on_keypress_ZEE	48	stimuli_target_squaretriangles.svg	stimuli_distractor_trianglediamonds.svg	3	yes	57	0	690
6.6.1	mac	2022-12-14	22:39:48	22:50:23	633556	62df4f5f6812864868e9ea66	402217291	1	main_z	11	main_z	49	stimuli_target_circletriangles.svg	stimuli_distractor_diamondtriangles.svg	5	yes	44	1	697
6.6.1	mac	2022-12-14	22:39:48	22:50:23	633556	62df4f5f6812864868e9ea66	402217291	1	main_z	11	advance_on_keypress_ZEE	50	stimuli_target_circletriangles.svg	stimuli_distractor_diamondtriangles.svg	5	yes	57	0	505
6.6.1	mac	2022-12-14	22:39:48	22:50:25	635558	62df4f5f6812864868e9ea66	402217291	1	main_z	11	main_z	51	stimuli_target_trianglesquares.svg	stimuli_distractor_diamondtriangles.svg	22	yes	44	1	865
6.6.1	mac	2022-12-14	22:39:48	22:50:25	635558	62df4f5f6812864868e9ea66	402217291	1	main_z	11	advance_on_keypress_ZEE	52	stimuli_target_trianglesquares.svg	stimuli_distractor_diamondtriangles.svg	22	yes	57	0	509
6.6.1	mac	2022-12-14	22:39:48	22:50:27	637386	62df4f5f6812864868e9ea66	402217291	1	main_z	11	main_z	53	stimuli_distractor_diamondtriangles.svg	stimuli_target_circlediamonds.svg	14	yes	44	1	694
6.6.1	mac	2022-12-14	22:39:48	22:50:27	637386	62df4f5f6812864868e9ea66	402217291	1	main_z	11	advance_on_keypress_ZEE	54	stimuli_distractor_diamondtriangles.svg	stimuli_target_circlediamonds.svg	14	yes	57	0	451
6.6.1	mac	2022-12-14	22:39:48	22:50:29	639057	62df4f5f6812864868e9ea66	402217291	1	main_z	11	main_z	55	stimuli_distractor_trianglediamonds.svg	stimuli_target_circletriangles.svg	9	yes	44	1	598
6.6.1	mac	2022-12-14	22:39:48	22:50:29	639057	62df4f5f6812864868e9ea66	402217291	1	main_z	11	advance_on_keypress_ZEE	56	stimuli_distractor_trianglediamonds.svg	stimuli_target_circletriangles.svg	9	yes	57	0	425
6.6.1	mac	2022-12-14	22:39:48	22:50:30	640730	62df4f5f6812864868e9ea66	402217291	1	main_z	11	main_z	57	stimuli_target_diamondsquares.svg	stimuli_distractor_diamondtriangles.svg	24	yes	44	1	622
6.6.1	mac	2022-12-14	22:39:48	22:50:30	640730	62df4f5f6812864868e9ea66	402217291	1	main_z	11	advance_on_keypress_ZEE	58	stimuli_target_diamondsquares.svg	stimuli_distractor_diamondtriangles.svg	24	yes	57	0	419
6.6.1	mac	2022-12-14	22:39:48	22:50:32	642266	62df4f5f6812864868e9ea66	402217291	1	main_z	11	main_z	59	stimuli_distractor_diamondtriangles.svg	stimuli_target_diamondsquares.svg	32	yes	44	1	490
6.6.1	mac	2022-12-14	22:39:48	22:50:32	642266	62df4f5f6812864868e9ea66	402217291	1	main_z	11	advance_on_keypress_ZEE	60	stimuli_distractor_diamondtriangles.svg	stimuli_target_diamondsquares.svg	32	yes	57	0	416
6.6.1	mac	2022-12-14	22:39:48	22:50:34	643910	62df4f5f6812864868e9ea66	402217291	1	main_z	11	main_z	61	stimuli_target_diamondcircles.svg	stimuli_distractor_diamondtriangles.svg	23	yes	44	1	602
6.6.1	mac	2022-12-14	22:39:48	22:50:34	643910	62df4f5f6812864868e9ea66	402217291	1	main_z	11	advance_on_keypress_ZEE	62	stimuli_target_diamondcircles.svg	stimuli_distractor_diamondtriangles.svg	23	yes	57	0	397
6.6.1	mac	2022-12-14	22:39:48	22:50:35	645683	62df4f5f6812864868e9ea66	402217291	1	main_z	11	main_z	63	stimuli_distractor_trianglediamonds.svg	stimuli_distractor_trianglediamonds.svg	34	no	44	0	740
6.6.1	mac	2022-12-14	22:39:48	22:50:35	645683	62df4f5f6812864868e9ea66	402217291	1	main_z	11	advance_on_keypress_ZEE	64	stimuli_distractor_trianglediamonds.svg	stimuli_distractor_trianglediamonds.svg	34	no	57	0	515
6.6.1	mac	2022-12-14	22:39:48	22:50:37	647520	62df4f5f6812864868e9ea66	402217291	1	main_z	11	main_z	65	stimuli_distractor_trianglediamonds.svg	stimuli_target_trianglesquares.svg	26	yes	44	1	694
6.6.1	mac	2022-12-14	22:39:48	22:50:37	647520	62df4f5f6812864868e9ea66	402217291	1	main_z	11	advance_on_keypress_ZEE	66	stimuli_distractor_trianglediamonds.svg	stimuli_target_trianglesquares.svg	26	yes	57	0	390
6.6.1	mac	2022-12-14	22:39:48	22:50:39	649358	62df4f5f6812864868e9ea66	402217291	1	main_z	11	main_z	67	stimuli_distractor_trianglediamonds.svg	stimuli_target_squarediamonds.svg	12	yes	44	1	833
6.6.1	mac	2022-12-14	22:39:48	22:50:39	649358	62df4f5f6812864868e9ea66	402217291	1	main_z	11	advance_on_keypress_ZEE	68	stimuli_distractor_trianglediamonds.svg	stimuli_target_squarediamonds.svg	12	yes	57	0	372
6.6.1	mac	2022-12-14	22:39:48	22:50:41	651292	62df4f5f6812864868e9ea66	402217291	1	main_z	11	main_z	69	stimuli_target_trianglecircles.svg	stimuli_distractor_trianglediamonds.svg	17	yes	44	1	933
6.6.1	mac	2022-12-14	22:39:48	22:50:41	651292	62df4f5f6812864868e9ea66	402217291	1	main_z	11	advance_on_keypress_ZEE	70	stimuli_target_trianglecircles.svg	stimuli_distractor_trianglediamonds.svg	17	yes	57	0	408
6.6.1	mac	2022-12-14	22:39:48	22:50:42	652888	62df4f5f6812864868e9ea66	402217291	1	main_z	11	main_z	71	stimuli_distractor_trianglediamonds.svg	stimuli_target_diamondsquares.svg	28	yes	44	1	562
6.6.1	mac	2022-12-14	22:39:48	22:50:42	652888	62df4f5f6812864868e9ea66	402217291	1	main_z	11	advance_on_keypress_ZEE	72	stimuli_distractor_trianglediamonds.svg	stimuli_target_diamondsquares.svg	28	yes	57	0	365
6.6.1	mac	2022-12-14	22:39:48	22:50:45	655892	62df4f5f6812864868e9ea66	402217291	1	main_z	11	main_z	73	stimuli_distractor_diamondtriangles.svg	stimuli_target_circletriangles.svg	13	yes	0	0	2000
6.6.1	mac	2022-12-14	22:39:48	22:50:45	655892	62df4f5f6812864868e9ea66	402217291	1	main_z	11	advance_on_keypress_ZEE	74	stimuli_distractor_diamondtriangles.svg	stimuli_target_circletriangles.svg	13	yes	57	0	1667
6.6.1	mac	2022-12-14	22:39:48	22:50:49	659142	62df4f5f6812864868e9ea66	402217291	1	main_z	11	main_z	75	stimuli_distractor_diamondtriangles.svg	stimuli_target_squarediamonds.svg	16	yes	44	1	949
6.6.1	mac	2022-12-14	22:39:48	22:50:49	659142	62df4f5f6812864868e9ea66	402217291	1	main_z	11	advance_on_keypress_ZEE	76	stimuli_distractor_diamondtriangles.svg	stimuli_target_squarediamonds.svg	16	yes	57	0	345
6.6.1	mac	2022-12-14	22:39:48	22:50:50	660537	62df4f5f6812864868e9ea66	402217291	1	main_z	11	main_z	77	stimuli_distractor_trianglediamonds.svg	stimuli_target_circlediamonds.svg	10	yes	44	1	411
6.6.1	mac	2022-12-14	22:39:48	22:50:50	660537	62df4f5f6812864868e9ea66	402217291	1	main_z	11	advance_on_keypress_ZEE	78	stimuli_distractor_trianglediamonds.svg	stimuli_target_circlediamonds.svg	10	yes	57	0	367
6.6.1	mac	2022-12-14	22:39:48	22:50:52	662131	62df4f5f6812864868e9ea66	402217291	1	main_z	11	main_z	79	stimuli_distractor_diamondtriangles.svg	stimuli_target_diamondcircles.svg	31	yes	44	1	605
6.6.1	mac	2022-12-14	22:39:48	22:50:52	662131	62df4f5f6812864868e9ea66	402217291	1	main_z	11	advance_on_keypress_ZEE	80	stimuli_distractor_diamondtriangles.svg	stimuli_target_diamondcircles.svg	31	yes	57	0	341
6.6.1	mac	2022-12-14	22:39:48	22:50:55	665092	62df4f5f6812864868e9ea66	402217291	1	main_z	11	main_z	81	stimuli_distractor_diamondtriangles.svg	stimuli_distractor_trianglediamonds.svg	38	no	0	1	2000
6.6.1	mac	2022-12-14	22:39:48	22:50:55	665092	62df4f5f6812864868e9ea66	402217291	1	main_z	11	advance_on_keypress_ZEE	82	stimuli_distractor_diamondtriangles.svg	stimuli_distractor_trianglediamonds.svg	38	no	57	0	848
6.6.1	mac	2022-12-14	22:39:48	22:50:57	667389	62df4f5f6812864868e9ea66	402217291	1	main_z	11	main_z	83	stimuli_distractor_trianglediamonds.svg	stimuli_target_circlediamonds.svg	10	yes	44	1	813
6.6.1	mac	2022-12-14	22:39:48	22:50:57	667389	62df4f5f6812864868e9ea66	402217291	1	main_z	11	advance_on_keypress_ZEE	84	stimuli_distractor_trianglediamonds.svg	stimuli_target_circlediamonds.svg	10	yes	57	0	402
6.6.1	mac	2022-12-14	22:39:48	22:50:59	669022	62df4f5f6812864868e9ea66	402217291	1	main_z	11	main_z	85	stimuli_target_squarediamonds.svg	stimuli_distractor_trianglediamonds.svg	4	yes	44	1	596
6.6.1	mac	2022-12-14	22:39:48	22:50:59	669022	62df4f5f6812864868e9ea66	402217291	1	main_z	11	advance_on_keypress_ZEE	86	stimuli_target_squarediamonds.svg	stimuli_distractor_trianglediamonds.svg	4	yes	57	0	339
6.6.1	mac	2022-12-14	22:39:48	22:51:00	670682	62df4f5f6812864868e9ea66	402217291	1	main_z	11	main_z	87	stimuli_distractor_trianglediamonds.svg	stimuli_distractor_diamondtriangles.svg	35	no	44	0	689
6.6.1	mac	2022-12-14	22:39:48	22:51:00	670682	62df4f5f6812864868e9ea66	402217291	1	main_z	11	advance_on_keypress_ZEE	88	stimuli_distractor_trianglediamonds.svg	stimuli_distractor_diamondtriangles.svg	35	no	57	0	964
6.6.1	mac	2022-12-14	22:39:48	22:51:03	672977	62df4f5f6812864868e9ea66	402217291	1	main_z	11	main_z	89	stimuli_target_diamondsquares.svg	stimuli_distractor_trianglediamonds.svg	20	yes	44	1	702
6.6.1	mac	2022-12-14	22:39:48	22:51:03	672977	62df4f5f6812864868e9ea66	402217291	1	main_z	11	advance_on_keypress_ZEE	90	stimuli_target_diamondsquares.svg	stimuli_distractor_trianglediamonds.svg	20	yes	57	0	869
6.6.1	mac	2022-12-14	22:39:48	22:51:05	675002	62df4f5f6812864868e9ea66	402217291	1	main_z	11	main_z	91	stimuli_target_trianglecircles.svg	stimuli_distractor_trianglediamonds.svg	17	yes	44	1	525
6.6.1	mac	2022-12-14	22:39:48	22:51:05	675002	62df4f5f6812864868e9ea66	402217291	1	main_z	11	advance_on_keypress_ZEE	92	stimuli_target_trianglecircles.svg	stimuli_distractor_trianglediamonds.svg	17	yes	57	0	385
6.6.1	mac	2022-12-14	22:39:48	22:51:08	678009	62df4f5f6812864868e9ea66	402217291	1	main_z	11	main_z	93	stimuli_distractor_diamondtriangles.svg	stimuli_distractor_trianglediamonds.svg	37	no	0	1	2000
6.6.1	mac	2022-12-14	22:39:48	22:51:08	678009	62df4f5f6812864868e9ea66	402217291	1	main_z	11	advance_on_keypress_ZEE	94	stimuli_distractor_diamondtriangles.svg	stimuli_distractor_trianglediamonds.svg	37	no	57	0	649
6.6.1	mac	2022-12-14	22:39:48	22:51:11	681292	62df4f5f6812864868e9ea66	402217291	1	main_z	11	main_z	95	stimuli_target_circletriangles.svg	stimuli_distractor_trianglediamonds.svg	1	yes	0	0	2000
6.6.1	mac	2022-12-14	22:39:48	22:51:11	681292	62df4f5f6812864868e9ea66	402217291	1	main_z	11	advance_on_keypress_ZEE	96	stimuli_target_circletriangles.svg	stimuli_distractor_trianglediamonds.svg	1	yes	57	0	1577
6.6.1	mac	2022-12-14	22:39:48	22:51:14	683991	62df4f5f6812864868e9ea66	402217291	1	main_z	11	main_z	97	stimuli_distractor_diamondtriangles.svg	stimuli_target_squaretriangles.svg	15	yes	44	1	483
6.6.1	mac	2022-12-14	22:39:48	22:51:14	683991	62df4f5f6812864868e9ea66	402217291	1	main_z	11	advance_on_keypress_ZEE	98	stimuli_distractor_diamondtriangles.svg	stimuli_target_squaretriangles.svg	15	yes	57	0	1169
6.6.1	mac	2022-12-14	22:39:48	22:51:16	686254	62df4f5f6812864868e9ea66	402217291	1	main_z	11	main_z	99	stimuli_distractor_trianglediamonds.svg	stimuli_target_diamondcircles.svg	27	yes	44	1	461
6.6.1	mac	2022-12-14	22:39:48	22:51:16	686254	62df4f5f6812864868e9ea66	402217291	1	main_z	11	advance_on_keypress_ZEE	100	stimuli_distractor_trianglediamonds.svg	stimuli_target_diamondcircles.svg	27	yes	57	0	395
6.6.1	mac	2022-12-14	22:39:48	22:51:17	687642	62df4f5f6812864868e9ea66	402217291	1	main_z	11	main_z	101	stimuli_target_trianglecircles.svg	stimuli_distractor_diamondtriangles.svg	21	yes	44	1	348
6.6.1	mac	2022-12-14	22:39:48	22:51:17	687642	62df4f5f6812864868e9ea66	402217291	1	main_z	11	advance_on_keypress_ZEE	102	stimuli_target_trianglecircles.svg	stimuli_distractor_diamondtriangles.svg	21	yes	57	0	351
6.6.1	mac	2022-12-14	22:39:48	22:51:19	689088	62df4f5f6812864868e9ea66	402217291	1	main_z	11	main_z	103	stimuli_distractor_trianglediamonds.svg	stimuli_target_squarediamonds.svg	12	yes	44	1	462
6.6.1	mac	2022-12-14	22:39:48	22:51:19	689088	62df4f5f6812864868e9ea66	402217291	1	main_z	11	advance_on_keypress_ZEE	104	stimuli_distractor_trianglediamonds.svg	stimuli_target_squarediamonds.svg	12	yes	57	0	362
6.6.1	mac	2022-12-14	22:39:48	22:51:20	690527	62df4f5f6812864868e9ea66	402217291	1	main_z	11	main_z	105	stimuli_target_squarediamonds.svg	stimuli_distractor_diamondtriangles.svg	8	yes	44	1	434
6.6.1	mac	2022-12-14	22:39:48	22:51:20	690527	62df4f5f6812864868e9ea66	402217291	1	main_z	11	advance_on_keypress_ZEE	106	stimuli_target_squarediamonds.svg	stimuli_distractor_diamondtriangles.svg	8	yes	57	0	814
6.6.1	mac	2022-12-14	22:39:48	22:51:22	692364	62df4f5f6812864868e9ea66	402217291	1	main_z	11	main_z	107	stimuli_target_squaretriangles.svg	stimuli_distractor_diamondtriangles.svg	7	yes	44	1	389
6.6.1	mac	2022-12-14	22:39:48	22:51:22	692364	62df4f5f6812864868e9ea66	402217291	1	main_z	11	advance_on_keypress_ZEE	108	stimuli_target_squaretriangles.svg	stimuli_distractor_diamondtriangles.svg	7	yes	57	0	318
6.6.1	mac	2022-12-14	22:39:48	22:51:23	693625	62df4f5f6812864868e9ea66	402217291	1	main_z	11	main_z	109	stimuli_target_trianglesquares.svg	stimuli_distractor_diamondtriangles.svg	22	yes	44	1	316
6.6.1	mac	2022-12-14	22:39:48	22:51:23	693625	62df4f5f6812864868e9ea66	402217291	1	main_z	11	advance_on_keypress_ZEE	110	stimuli_target_trianglesquares.svg	stimuli_distractor_diamondtriangles.svg	22	yes	57	0	1076
6.6.1	mac	2022-12-14	22:39:48	22:51:25	695847	62df4f5f6812864868e9ea66	402217291	1	main_z	11	main_z	111	stimuli_target_circlediamonds.svg	stimuli_distractor_trianglediamonds.svg	2	yes	44	1	504
6.6.1	mac	2022-12-14	22:39:48	22:51:25	695847	62df4f5f6812864868e9ea66	402217291	1	main_z	11	advance_on_keypress_ZEE	112	stimuli_target_circlediamonds.svg	stimuli_distractor_trianglediamonds.svg	2	yes	57	0	354
6.6.1	mac	2022-12-14	22:39:48	22:51:27	697393	62df4f5f6812864868e9ea66	402217291	1	main_z	11	main_z	113	stimuli_target_diamondcircles.svg	stimuli_distractor_diamondtriangles.svg	23	yes	44	1	568
6.6.1	mac	2022-12-14	22:39:48	22:51:27	697393	62df4f5f6812864868e9ea66	402217291	1	main_z	11	advance_on_keypress_ZEE	114	stimuli_target_diamondcircles.svg	stimuli_distractor_diamondtriangles.svg	23	yes	57	0	351
6.6.1	mac	2022-12-14	22:39:48	22:51:29	699036	62df4f5f6812864868e9ea66	402217291	1	main_z	11	main_z	115	stimuli_distractor_diamondtriangles.svg	stimuli_target_circlediamonds.svg	14	yes	44	1	661
6.6.1	mac	2022-12-14	22:39:48	22:51:29	699036	62df4f5f6812864868e9ea66	402217291	1	main_z	11	advance_on_keypress_ZEE	116	stimuli_distractor_diamondtriangles.svg	stimuli_target_circlediamonds.svg	14	yes	57	0	312
6.6.1	mac	2022-12-14	22:39:48	22:51:30	700552	62df4f5f6812864868e9ea66	402217291	1	main_z	11	main_z	117	stimuli_distractor_diamondtriangles.svg	stimuli_target_squarediamonds.svg	16	yes	44	1	576
6.6.1	mac	2022-12-14	22:39:48	22:51:30	700552	62df4f5f6812864868e9ea66	402217291	1	main_z	11	advance_on_keypress_ZEE	118	stimuli_distractor_diamondtriangles.svg	stimuli_target_squarediamonds.svg	16	yes	57	0	317
6.6.1	mac	2022-12-14	22:39:48	22:51:32	702103	62df4f5f6812864868e9ea66	402217291	1	main_z	11	main_z	119	stimuli_distractor_trianglediamonds.svg	stimuli_target_trianglesquares.svg	26	yes	44	1	610
6.6.1	mac	2022-12-14	22:39:48	22:51:32	702103	62df4f5f6812864868e9ea66	402217291	1	main_z	11	advance_on_keypress_ZEE	120	stimuli_distractor_trianglediamonds.svg	stimuli_target_trianglesquares.svg	26	yes	57	0	338
6.6.1	mac	2022-12-14	22:39:48	22:51:33	703584	62df4f5f6812864868e9ea66	402217291	1	main_z	11	main_z	121	stimuli_distractor_diamondtriangles.svg	stimuli_target_circletriangles.svg	13	yes	44	1	527
6.6.1	mac	2022-12-14	22:39:48	22:51:33	703584	62df4f5f6812864868e9ea66	402217291	1	main_z	11	advance_on_keypress_ZEE	122	stimuli_distractor_diamondtriangles.svg	stimuli_target_circletriangles.svg	13	yes	57	0	315
6.6.1	mac	2022-12-14	22:39:48	22:51:36	706526	62df4f5f6812864868e9ea66	402217291	1	main_z	11	main_z	123	stimuli_distractor_trianglediamonds.svg	stimuli_distractor_diamondtriangles.svg	36	no	0	1	2000
6.6.1	mac	2022-12-14	22:39:48	22:51:36	706526	62df4f5f6812864868e9ea66	402217291	1	main_z	11	advance_on_keypress_ZEE	124	stimuli_distractor_trianglediamonds.svg	stimuli_distractor_diamondtriangles.svg	36	no	57	0	514
6.6.1	mac	2022-12-14	22:39:48	22:51:39	709676	62df4f5f6812864868e9ea66	402217291	1	main_z	11	main_z	125	stimuli_distractor_trianglediamonds.svg	stimuli_distractor_trianglediamonds.svg	34	no	0	1	2000
6.6.1	mac	2022-12-14	22:39:48	22:51:39	709676	62df4f5f6812864868e9ea66	402217291	1	main_z	11	advance_on_keypress_ZEE	126	stimuli_distractor_trianglediamonds.svg	stimuli_distractor_trianglediamonds.svg	34	no	57	0	623
6.6.1	mac	2022-12-14	22:39:48	22:51:42	712016	62df4f5f6812864868e9ea66	402217291	1	main_z	11	main_z	127	stimuli_distractor_diamondtriangles.svg	stimuli_target_trianglecircles.svg	29	yes	44	1	1090
6.6.1	mac	2022-12-14	22:39:48	22:51:42	712016	62df4f5f6812864868e9ea66	402217291	1	main_z	11	advance_on_keypress_ZEE	128	stimuli_distractor_diamondtriangles.svg	stimuli_target_trianglecircles.svg	29	yes	57	0	915
6.6.1	mac	2022-12-14	22:39:48	22:51:44	714156	62df4f5f6812864868e9ea66	402217291	1	main_z	11	main_z	129	stimuli_target_squaretriangles.svg	stimuli_distractor_trianglediamonds.svg	3	yes	44	1	598
6.6.1	mac	2022-12-14	22:39:48	22:51:44	714156	62df4f5f6812864868e9ea66	402217291	1	main_z	11	advance_on_keypress_ZEE	130	stimuli_target_squaretriangles.svg	stimuli_distractor_trianglediamonds.svg	3	yes	57	0	355
6.6.1	mac	2022-12-14	22:39:48	22:51:45	715515	62df4f5f6812864868e9ea66	402217291	1	main_z	11	main_z	131	stimuli_target_trianglesquares.svg	stimuli_distractor_trianglediamonds.svg	18	yes	44	1	372
6.6.1	mac	2022-12-14	22:39:48	22:51:45	715515	62df4f5f6812864868e9ea66	402217291	1	main_z	11	advance_on_keypress_ZEE	132	stimuli_target_trianglesquares.svg	stimuli_distractor_trianglediamonds.svg	18	yes	57	0	370
6.6.1	mac	2022-12-14	22:39:48	22:51:47	716941	62df4f5f6812864868e9ea66	402217291	1	main_z	11	main_z	133	stimuli_distractor_trianglediamonds.svg	stimuli_target_diamondsquares.svg	28	yes	44	1	430
6.6.1	mac	2022-12-14	22:39:48	22:51:47	716941	62df4f5f6812864868e9ea66	402217291	1	main_z	11	advance_on_keypress_ZEE	134	stimuli_distractor_trianglediamonds.svg	stimuli_target_diamondsquares.svg	28	yes	57	0	385
6.6.1	mac	2022-12-14	22:39:48	22:51:48	718455	62df4f5f6812864868e9ea66	402217291	1	main_z	11	main_z	135	stimuli_target_diamondsquares.svg	stimuli_distractor_diamondtriangles.svg	24	yes	44	1	496
6.6.1	mac	2022-12-14	22:39:48	22:51:48	718455	62df4f5f6812864868e9ea66	402217291	1	main_z	11	advance_on_keypress_ZEE	136	stimuli_target_diamondsquares.svg	stimuli_distractor_diamondtriangles.svg	24	yes	57	0	340
6.6.1	mac	2022-12-14	22:39:48	22:51:49	719834	62df4f5f6812864868e9ea66	402217291	1	main_z	11	main_z	137	stimuli_distractor_diamondtriangles.svg	stimuli_target_diamondcircles.svg	31	yes	44	1	408
6.6.1	mac	2022-12-14	22:39:48	22:51:49	719834	62df4f5f6812864868e9ea66	402217291	1	main_z	11	advance_on_keypress_ZEE	138	stimuli_distractor_diamondtriangles.svg	stimuli_target_diamondcircles.svg	31	yes	57	0	356
6.6.1	mac	2022-12-14	22:39:48	22:51:51	721292	62df4f5f6812864868e9ea66	402217291	1	main_z	11	main_z	139	stimuli_target_circletriangles.svg	stimuli_distractor_diamondtriangles.svg	5	yes	44	1	483
6.6.1	mac	2022-12-14	22:39:48	22:51:51	721292	62df4f5f6812864868e9ea66	402217291	1	main_z	11	advance_on_keypress_ZEE	140	stimuli_target_circletriangles.svg	stimuli_distractor_diamondtriangles.svg	5	yes	57	0	329
6.6.1	mac	2022-12-14	22:39:48	22:51:52	722646	62df4f5f6812864868e9ea66	402217291	1	main_z	11	main_z	141	stimuli_distractor_trianglediamonds.svg	stimuli_target_trianglecircles.svg	25	yes	44	1	387
6.6.1	mac	2022-12-14	22:39:48	22:51:52	722646	62df4f5f6812864868e9ea66	402217291	1	main_z	11	advance_on_keypress_ZEE	142	stimuli_distractor_trianglediamonds.svg	stimuli_target_trianglecircles.svg	25	yes	57	0	363
6.6.1	mac	2022-12-14	22:39:48	22:51:54	723970	62df4f5f6812864868e9ea66	402217291	1	main_z	11	main_z	143	stimuli_target_circlediamonds.svg	stimuli_distractor_diamondtriangles.svg	6	yes	44	1	327
6.6.1	mac	2022-12-14	22:39:48	22:51:54	723970	62df4f5f6812864868e9ea66	402217291	1	main_z	11	advance_on_keypress_ZEE	144	stimuli_target_circlediamonds.svg	stimuli_distractor_diamondtriangles.svg	6	yes	57	0	304
6.6.1	mac	2022-12-14	22:39:48	22:51:55	725405	62df4f5f6812864868e9ea66	402217291	1	main_z	11	main_z	145	stimuli_distractor_trianglediamonds.svg	stimuli_target_squaretriangles.svg	11	yes	44	1	496
6.6.1	mac	2022-12-14	22:39:48	22:51:55	725405	62df4f5f6812864868e9ea66	402217291	1	main_z	11	advance_on_keypress_ZEE	146	stimuli_distractor_trianglediamonds.svg	stimuli_target_squaretriangles.svg	11	yes	57	0	541
6.6.1	mac	2022-12-14	22:39:48	22:51:58	728575	62df4f5f6812864868e9ea66	402217291	1	main_z	11	main_z	147	stimuli_distractor_diamondtriangles.svg	stimuli_distractor_diamondtriangles.svg	39	no	0	1	2000
6.6.1	mac	2022-12-14	22:39:48	22:51:58	728575	62df4f5f6812864868e9ea66	402217291	1	main_z	11	advance_on_keypress_ZEE	148	stimuli_distractor_diamondtriangles.svg	stimuli_distractor_diamondtriangles.svg	39	no	57	0	391
6.6.1	mac	2022-12-14	22:39:48	22:52:00	730454	62df4f5f6812864868e9ea66	402217291	1	main_z	11	main_z	149	stimuli_distractor_trianglediamonds.svg	stimuli_target_circletriangles.svg	9	yes	44	1	861
6.6.1	mac	2022-12-14	22:39:48	22:52:00	730454	62df4f5f6812864868e9ea66	402217291	1	main_z	11	advance_on_keypress_ZEE	150	stimuli_distractor_trianglediamonds.svg	stimuli_target_circletriangles.svg	9	yes	57	0	692
6.6.1	mac	2022-12-14	22:39:48	22:52:02	732290	62df4f5f6812864868e9ea66	402217291	1	main_z	11	main_z	151	stimuli_target_diamondcircles.svg	stimuli_distractor_trianglediamonds.svg	19	yes	44	1	515
6.6.1	mac	2022-12-14	22:39:48	22:52:02	732290	62df4f5f6812864868e9ea66	402217291	1	main_z	11	advance_on_keypress_ZEE	152	stimuli_target_diamondcircles.svg	stimuli_distractor_trianglediamonds.svg	19	yes	57	0	309
6.6.1	mac	2022-12-14	22:39:48	22:52:03	733497	62df4f5f6812864868e9ea66	402217291	1	main_z	11	main_z	153	stimuli_distractor_diamondtriangles.svg	stimuli_distractor_diamondtriangles.svg	40	no	44	0	272
6.6.1	mac	2022-12-14	22:39:48	22:52:03	733497	62df4f5f6812864868e9ea66	402217291	1	main_z	11	advance_on_keypress_ZEE	154	stimuli_distractor_diamondtriangles.svg	stimuli_distractor_diamondtriangles.svg	40	no	57	0	890
6.6.1	mac	2022-12-14	22:39:48	22:52:05	735623	62df4f5f6812864868e9ea66	402217291	1	main_z	11	main_z	155	stimuli_distractor_diamondtriangles.svg	stimuli_target_diamondsquares.svg	32	yes	44	1	615
6.6.1	mac	2022-12-14	22:39:48	22:52:05	735623	62df4f5f6812864868e9ea66	402217291	1	main_z	11	advance_on_keypress_ZEE	156	stimuli_distractor_diamondtriangles.svg	stimuli_target_diamondsquares.svg	32	yes	57	0	340
6.6.1	mac	2022-12-14	22:39:48	22:52:07	737067	62df4f5f6812864868e9ea66	402217291	1	main_z	11	main_z	157	stimuli_distractor_diamondtriangles.svg	stimuli_target_trianglesquares.svg	30	yes	44	1	475
6.6.1	mac	2022-12-14	22:39:48	22:52:07	737067	62df4f5f6812864868e9ea66	402217291	1	main_z	11	advance_on_keypress_ZEE	158	stimuli_distractor_diamondtriangles.svg	stimuli_target_trianglesquares.svg	30	yes	57	0	361
6.6.1	mac	2022-12-14	22:39:48	22:52:10	740059	62df4f5f6812864868e9ea66	402217291	1	main_z	11	main_z	159	stimuli_distractor_trianglediamonds.svg	stimuli_distractor_trianglediamonds.svg	33	no	0	1	2000
6.6.1	mac	2022-12-14	22:39:48	22:52:10	740059	62df4f5f6812864868e9ea66	402217291	1	main_z	11	advance_on_keypress_ZEE	160	stimuli_distractor_trianglediamonds.svg	stimuli_distractor_trianglediamonds.svg	33	no	57	0	361