build	computer.platform	date	time	timestamp	time_elapsed_ms	subject	group	session	blockcode	blocknum	trialcode	trialnum	stimulus_left	stimulus_right	stim_index	target_present	response	correct	latency
6.6.1	win	2022-12-14	18:00:58	18:03:15	135278	607778a26ff3de83125f50c5	681343051	1	practice_slash	5	practice_slash	1	stimuli_distractor_trianglediamonds.svg	stimuli_distractor_trianglediamonds.svg	15	no	0	1	2000
6.6.1	win	2022-12-14	18:00:58	18:03:15	135278	607778a26ff3de83125f50c5	681343051	1	practice_slash	5	advance_on_keypress_SLASH	2	stimuli_distractor_trianglediamonds.svg	stimuli_distractor_trianglediamonds.svg	15	no	57	0	1577
6.6.1	win	2022-12-14	18:00:58	18:03:19	139332	607778a26ff3de83125f50c5	681343051	1	practice_slash	5	practice_slash	3	stimuli_target_squarediamonds.svg	stimuli_distractor_trianglediamonds.svg	5	yes	53	1	841
6.6.1	win	2022-12-14	18:00:58	18:03:19	139332	607778a26ff3de83125f50c5	681343051	1	practice_slash	5	advance_on_keypress_SLASH	4	stimuli_target_squarediamonds.svg	stimuli_distractor_trianglediamonds.svg	5	yes	57	0	780
6.6.1	win	2022-12-14	18:00:58	18:03:22	142404	607778a26ff3de83125f50c5	681343051	1	practice_slash	5	practice_slash	5	stimuli_target_squarediamonds.svg	stimuli_distractor_diamondtriangles.svg	2	yes	53	1	661
6.6.1	win	2022-12-14	18:00:58	18:03:22	142404	607778a26ff3de83125f50c5	681343051	1	practice_slash	5	advance_on_keypress_SLASH	6	stimuli_target_squarediamonds.svg	stimuli_distractor_diamondtriangles.svg	2	yes	57	0	474
6.6.1	win	2022-12-14	18:00:58	18:03:25	145869	607778a26ff3de83125f50c5	681343051	1	practice_slash	5	practice_slash	7	stimuli_target_circlediamonds.svg	stimuli_distractor_diamondtriangles.svg	1	yes	53	1	1365
6.6.1	win	2022-12-14	18:00:58	18:03:25	145869	607778a26ff3de83125f50c5	681343051	1	practice_slash	5	advance_on_keypress_SLASH	8	stimuli_target_circlediamonds.svg	stimuli_distractor_diamondtriangles.svg	1	yes	57	0	447
6.6.1	win	2022-12-14	18:00:58	18:03:28	148773	607778a26ff3de83125f50c5	681343051	1	practice_slash	5	practice_slash	9	stimuli_distractor_trianglediamonds.svg	stimuli_target_diamondcircles.svg	12	yes	53	1	815
6.6.1	win	2022-12-14	18:00:58	18:03:28	148773	607778a26ff3de83125f50c5	681343051	1	practice_slash	5	advance_on_keypress_SLASH	10	stimuli_distractor_trianglediamonds.svg	stimuli_target_diamondcircles.svg	12	yes	57	0	357
6.6.1	win	2022-12-14	18:00:58	18:03:32	152770	607778a26ff3de83125f50c5	681343051	1	practice_slash	5	practice_slash	11	stimuli_distractor_diamondtriangles.svg	stimuli_distractor_diamondtriangles.svg	13	no	0	1	2000
6.6.1	win	2022-12-14	18:00:58	18:03:32	152770	607778a26ff3de83125f50c5	681343051	1	practice_slash	5	advance_on_keypress_SLASH	12	stimuli_distractor_diamondtriangles.svg	stimuli_distractor_diamondtriangles.svg	13	no	57	0	502
6.6.1	win	2022-12-14	18:00:58	18:03:35	155670	607778a26ff3de83125f50c5	681343051	1	practice_slash	5	practice_slash	13	stimuli_target_diamondsquares.svg	stimuli_distractor_trianglediamonds.svg	6	yes	53	1	752
6.6.1	win	2022-12-14	18:00:58	18:03:35	155670	607778a26ff3de83125f50c5	681343051	1	practice_slash	5	advance_on_keypress_SLASH	14	stimuli_target_diamondsquares.svg	stimuli_distractor_trianglediamonds.svg	6	yes	57	0	401
6.6.1	win	2022-12-14	18:00:58	18:03:38	158342	607778a26ff3de83125f50c5	681343051	1	practice_slash	5	practice_slash	15	stimuli_distractor_diamondtriangles.svg	stimuli_target_trianglecircles.svg	9	yes	53	1	638
6.6.1	win	2022-12-14	18:00:58	18:03:38	158342	607778a26ff3de83125f50c5	681343051	1	practice_slash	5	advance_on_keypress_SLASH	16	stimuli_distractor_diamondtriangles.svg	stimuli_target_trianglecircles.svg	9	yes	57	0	377
6.6.1	win	2022-12-14	18:00:58	18:03:40	161111	607778a26ff3de83125f50c5	681343051	1	practice_slash	5	practice_slash	17	stimuli_target_circlediamonds.svg	stimuli_distractor_trianglediamonds.svg	4	yes	53	1	754
6.6.1	win	2022-12-14	18:00:58	18:03:40	161111	607778a26ff3de83125f50c5	681343051	1	practice_slash	5	advance_on_keypress_SLASH	18	stimuli_target_circlediamonds.svg	stimuli_distractor_trianglediamonds.svg	4	yes	57	0	330
6.6.1	win	2022-12-14	18:00:58	18:03:43	163919	607778a26ff3de83125f50c5	681343051	1	practice_slash	5	practice_slash	19	stimuli_distractor_trianglediamonds.svg	stimuli_target_circlediamonds.svg	10	yes	53	1	842
6.6.1	win	2022-12-14	18:00:58	18:03:43	163919	607778a26ff3de83125f50c5	681343051	1	practice_slash	5	advance_on_keypress_SLASH	20	stimuli_distractor_trianglediamonds.svg	stimuli_target_circlediamonds.svg	10	yes	57	0	797
6.6.1	win	2022-12-14	18:00:58	18:03:46	167104	607778a26ff3de83125f50c5	681343051	1	practice_slash	5	practice_slash	21	stimuli_target_diamondsquares.svg	stimuli_distractor_diamondtriangles.svg	3	yes	53	1	746
6.6.1	win	2022-12-14	18:00:58	18:03:46	167104	607778a26ff3de83125f50c5	681343051	1	practice_slash	5	advance_on_keypress_SLASH	22	stimuli_target_diamondsquares.svg	stimuli_distractor_diamondtriangles.svg	3	yes	57	0	386
6.6.1	win	2022-12-14	18:00:58	18:03:50	171130	607778a26ff3de83125f50c5	681343051	1	practice_slash	5	practice_slash	23	stimuli_distractor_trianglediamonds.svg	stimuli_distractor_diamondtriangles.svg	16	no	0	1	2000
6.6.1	win	2022-12-14	18:00:58	18:03:50	171130	607778a26ff3de83125f50c5	681343051	1	practice_slash	5	advance_on_keypress_SLASH	24	stimuli_distractor_trianglediamonds.svg	stimuli_distractor_diamondtriangles.svg	16	no	57	0	361
6.6.1	win	2022-12-14	18:00:58	18:03:53	173832	607778a26ff3de83125f50c5	681343051	1	practice_slash	5	practice_slash	25	stimuli_distractor_trianglediamonds.svg	stimuli_target_squarediamonds.svg	11	yes	53	1	702
6.6.1	win	2022-12-14	18:00:58	18:03:53	173832	607778a26ff3de83125f50c5	681343051	1	practice_slash	5	advance_on_keypress_SLASH	26	stimuli_distractor_trianglediamonds.svg	stimuli_target_squarediamonds.svg	11	yes	57	0	350
6.6.1	win	2022-12-14	18:00:58	18:03:56	176496	607778a26ff3de83125f50c5	681343051	1	practice_slash	5	practice_slash	27	stimuli_distractor_diamondtriangles.svg	stimuli_target_diamondcircles.svg	8	yes	53	1	674
6.6.1	win	2022-12-14	18:00:58	18:03:56	176496	607778a26ff3de83125f50c5	681343051	1	practice_slash	5	advance_on_keypress_SLASH	28	stimuli_distractor_diamondtriangles.svg	stimuli_target_diamondcircles.svg	8	yes	57	0	522
6.6.1	win	2022-12-14	18:00:58	18:04:00	180649	607778a26ff3de83125f50c5	681343051	1	practice_slash	5	practice_slash	29	stimuli_distractor_diamondtriangles.svg	stimuli_distractor_trianglediamonds.svg	14	no	0	1	2000
6.6.1	win	2022-12-14	18:00:58	18:04:00	180649	607778a26ff3de83125f50c5	681343051	1	practice_slash	5	advance_on_keypress_SLASH	30	stimuli_distractor_diamondtriangles.svg	stimuli_distractor_trianglediamonds.svg	14	no	57	0	274
6.6.1	win	2022-12-14	18:00:58	18:04:03	183377	607778a26ff3de83125f50c5	681343051	1	practice_slash	5	practice_slash	31	stimuli_distractor_diamondtriangles.svg	stimuli_target_circletriangles.svg	7	yes	53	1	807
6.6.1	win	2022-12-14	18:00:58	18:04:03	183377	607778a26ff3de83125f50c5	681343051	1	practice_slash	5	advance_on_keypress_SLASH	32	stimuli_distractor_diamondtriangles.svg	stimuli_target_circletriangles.svg	7	yes	57	0	414
6.6.1	win	2022-12-14	18:00:58	18:04:41	222156	607778a26ff3de83125f50c5	681343051	1	main_slash	7	main_slash	1	stimuli_target_trianglesquares.svg	stimuli_distractor_trianglediamonds.svg	18	yes	53	1	1149
6.6.1	win	2022-12-14	18:00:58	18:04:41	222156	607778a26ff3de83125f50c5	681343051	1	main_slash	7	advance_on_keypress_SLASH	2	stimuli_target_trianglesquares.svg	stimuli_distractor_trianglediamonds.svg	18	yes	57	0	1326
6.6.1	win	2022-12-14	18:00:58	18:04:45	226113	607778a26ff3de83125f50c5	681343051	1	main_slash	7	main_slash	3	stimuli_distractor_trianglediamonds.svg	stimuli_distractor_diamondtriangles.svg	36	no	0	1	2000
6.6.1	win	2022-12-14	18:00:58	18:04:45	226113	607778a26ff3de83125f50c5	681343051	1	main_slash	7	advance_on_keypress_SLASH	4	stimuli_distractor_trianglediamonds.svg	stimuli_distractor_diamondtriangles.svg	36	no	57	0	535
6.6.1	win	2022-12-14	18:00:58	18:04:47	227972	607778a26ff3de83125f50c5	681343051	1	main_slash	7	main_slash	5	stimuli_target_circletriangles.svg	stimuli_distractor_trianglediamonds.svg	1	yes	53	1	687
6.6.1	win	2022-12-14	18:00:58	18:04:47	227972	607778a26ff3de83125f50c5	681343051	1	main_slash	7	advance_on_keypress_SLASH	6	stimuli_target_circletriangles.svg	stimuli_distractor_trianglediamonds.svg	1	yes	57	0	1441
6.6.1	win	2022-12-14	18:00:58	18:04:51	232046	607778a26ff3de83125f50c5	681343051	1	main_slash	7	main_slash	7	stimuli_distractor_diamondtriangles.svg	stimuli_distractor_diamondtriangles.svg	40	no	0	1	2000
6.6.1	win	2022-12-14	18:00:58	18:04:51	232046	607778a26ff3de83125f50c5	681343051	1	main_slash	7	advance_on_keypress_SLASH	8	stimuli_distractor_diamondtriangles.svg	stimuli_distractor_diamondtriangles.svg	40	no	57	0	457
6.6.1	win	2022-12-14	18:00:58	18:04:53	233893	607778a26ff3de83125f50c5	681343051	1	main_slash	7	main_slash	9	stimuli_distractor_trianglediamonds.svg	stimuli_target_circletriangles.svg	9	yes	53	1	754
6.6.1	win	2022-12-14	18:00:58	18:04:53	233893	607778a26ff3de83125f50c5	681343051	1	main_slash	7	advance_on_keypress_SLASH	10	stimuli_distractor_trianglediamonds.svg	stimuli_target_circletriangles.svg	9	yes	57	0	771
6.6.1	win	2022-12-14	18:00:58	18:04:55	236149	607778a26ff3de83125f50c5	681343051	1	main_slash	7	main_slash	11	stimuli_target_diamondsquares.svg	stimuli_distractor_trianglediamonds.svg	20	yes	53	1	851
6.6.1	win	2022-12-14	18:00:58	18:04:55	236149	607778a26ff3de83125f50c5	681343051	1	main_slash	7	advance_on_keypress_SLASH	12	stimuli_target_diamondsquares.svg	stimuli_distractor_trianglediamonds.svg	20	yes	57	0	552
6.6.1	win	2022-12-14	18:00:58	18:04:59	239339	607778a26ff3de83125f50c5	681343051	1	main_slash	7	main_slash	13	stimuli_distractor_diamondtriangles.svg	stimuli_distractor_trianglediamonds.svg	38	no	0	1	2000
6.6.1	win	2022-12-14	18:00:58	18:04:59	239339	607778a26ff3de83125f50c5	681343051	1	main_slash	7	advance_on_keypress_SLASH	14	stimuli_distractor_diamondtriangles.svg	stimuli_distractor_trianglediamonds.svg	38	no	57	0	413
6.6.1	win	2022-12-14	18:00:58	18:05:00	241070	607778a26ff3de83125f50c5	681343051	1	main_slash	7	main_slash	15	stimuli_target_squaretriangles.svg	stimuli_distractor_trianglediamonds.svg	3	yes	53	1	678
6.6.1	win	2022-12-14	18:00:58	18:05:00	241070	607778a26ff3de83125f50c5	681343051	1	main_slash	7	advance_on_keypress_SLASH	16	stimuli_target_squaretriangles.svg	stimuli_distractor_trianglediamonds.svg	3	yes	57	0	4641
6.6.1	win	2022-12-14	18:00:58	18:05:06	247047	607778a26ff3de83125f50c5	681343051	1	main_slash	7	main_slash	17	stimuli_target_diamondsquares.svg	stimuli_distractor_diamondtriangles.svg	24	yes	53	1	695
6.6.1	win	2022-12-14	18:00:58	18:05:06	247047	607778a26ff3de83125f50c5	681343051	1	main_slash	7	advance_on_keypress_SLASH	18	stimuli_target_diamondsquares.svg	stimuli_distractor_diamondtriangles.svg	24	yes	57	0	796
6.6.1	win	2022-12-14	18:00:58	18:05:08	249127	607778a26ff3de83125f50c5	681343051	1	main_slash	7	main_slash	19	stimuli_distractor_trianglediamonds.svg	stimuli_target_trianglecircles.svg	25	yes	53	1	655
6.6.1	win	2022-12-14	18:00:58	18:05:08	249127	607778a26ff3de83125f50c5	681343051	1	main_slash	7	advance_on_keypress_SLASH	20	stimuli_distractor_trianglediamonds.svg	stimuli_target_trianglecircles.svg	25	yes	57	0	708
6.6.1	win	2022-12-14	18:00:58	18:05:12	252472	607778a26ff3de83125f50c5	681343051	1	main_slash	7	main_slash	21	stimuli_distractor_trianglediamonds.svg	stimuli_distractor_trianglediamonds.svg	34	no	0	1	2000
6.6.1	win	2022-12-14	18:00:58	18:05:12	252472	607778a26ff3de83125f50c5	681343051	1	main_slash	7	advance_on_keypress_SLASH	22	stimuli_distractor_trianglediamonds.svg	stimuli_distractor_trianglediamonds.svg	34	no	57	0	443
6.6.1	win	2022-12-14	18:00:58	18:05:13	254167	607778a26ff3de83125f50c5	681343051	1	main_slash	7	main_slash	23	stimuli_target_circlediamonds.svg	stimuli_distractor_diamondtriangles.svg	6	yes	53	1	616
6.6.1	win	2022-12-14	18:00:58	18:05:13	254167	607778a26ff3de83125f50c5	681343051	1	main_slash	7	advance_on_keypress_SLASH	24	stimuli_target_circlediamonds.svg	stimuli_distractor_diamondtriangles.svg	6	yes	57	0	733
6.6.1	win	2022-12-14	18:00:58	18:05:15	256224	607778a26ff3de83125f50c5	681343051	1	main_slash	7	main_slash	25	stimuli_distractor_diamondtriangles.svg	stimuli_target_diamondsquares.svg	32	yes	53	1	685
6.6.1	win	2022-12-14	18:00:58	18:05:15	256224	607778a26ff3de83125f50c5	681343051	1	main_slash	7	advance_on_keypress_SLASH	26	stimuli_distractor_diamondtriangles.svg	stimuli_target_diamondsquares.svg	32	yes	57	0	472
6.6.1	win	2022-12-14	18:00:58	18:05:17	258080	607778a26ff3de83125f50c5	681343051	1	main_slash	7	main_slash	27	stimuli_distractor_diamondtriangles.svg	stimuli_target_diamondcircles.svg	31	yes	53	1	755
6.6.1	win	2022-12-14	18:00:58	18:05:17	258080	607778a26ff3de83125f50c5	681343051	1	main_slash	7	advance_on_keypress_SLASH	28	stimuli_distractor_diamondtriangles.svg	stimuli_target_diamondcircles.svg	31	yes	57	0	507
6.6.1	win	2022-12-14	18:00:58	18:05:19	259856	607778a26ff3de83125f50c5	681343051	1	main_slash	7	main_slash	29	stimuli_distractor_diamondtriangles.svg	stimuli_target_squarediamonds.svg	16	yes	53	1	638
6.6.1	win	2022-12-14	18:00:58	18:05:19	259856	607778a26ff3de83125f50c5	681343051	1	main_slash	7	advance_on_keypress_SLASH	30	stimuli_distractor_diamondtriangles.svg	stimuli_target_squarediamonds.svg	16	yes	57	0	456
6.6.1	win	2022-12-14	18:00:58	18:05:21	261617	607778a26ff3de83125f50c5	681343051	1	main_slash	7	main_slash	31	stimuli_distractor_trianglediamonds.svg	stimuli_target_diamondsquares.svg	28	yes	53	1	665
6.6.1	win	2022-12-14	18:00:58	18:05:21	261617	607778a26ff3de83125f50c5	681343051	1	main_slash	7	advance_on_keypress_SLASH	32	stimuli_distractor_trianglediamonds.svg	stimuli_target_diamondsquares.svg	28	yes	57	0	385
6.6.1	win	2022-12-14	18:00:58	18:05:23	263281	607778a26ff3de83125f50c5	681343051	1	main_slash	7	main_slash	33	stimuli_target_squarediamonds.svg	stimuli_distractor_trianglediamonds.svg	4	yes	53	1	636
6.6.1	win	2022-12-14	18:00:58	18:05:23	263281	607778a26ff3de83125f50c5	681343051	1	main_slash	7	advance_on_keypress_SLASH	34	stimuli_target_squarediamonds.svg	stimuli_distractor_trianglediamonds.svg	4	yes	57	0	444
6.6.1	win	2022-12-14	18:00:58	18:05:24	264969	607778a26ff3de83125f50c5	681343051	1	main_slash	7	main_slash	35	stimuli_distractor_diamondtriangles.svg	stimuli_target_trianglecircles.svg	29	yes	53	1	617
6.6.1	win	2022-12-14	18:00:58	18:05:24	264969	607778a26ff3de83125f50c5	681343051	1	main_slash	7	advance_on_keypress_SLASH	36	stimuli_distractor_diamondtriangles.svg	stimuli_target_trianglecircles.svg	29	yes	57	0	391
6.6.1	win	2022-12-14	18:00:58	18:05:26	266641	607778a26ff3de83125f50c5	681343051	1	main_slash	7	main_slash	37	stimuli_distractor_diamondtriangles.svg	stimuli_target_circlediamonds.svg	14	yes	53	1	649
6.6.1	win	2022-12-14	18:00:58	18:05:26	266641	607778a26ff3de83125f50c5	681343051	1	main_slash	7	advance_on_keypress_SLASH	38	stimuli_distractor_diamondtriangles.svg	stimuli_target_circlediamonds.svg	14	yes	57	0	396
6.6.1	win	2022-12-14	18:00:58	18:05:28	268313	607778a26ff3de83125f50c5	681343051	1	main_slash	7	main_slash	39	stimuli_target_squaretriangles.svg	stimuli_distractor_diamondtriangles.svg	7	yes	53	1	655
6.6.1	win	2022-12-14	18:00:58	18:05:28	268313	607778a26ff3de83125f50c5	681343051	1	main_slash	7	advance_on_keypress_SLASH	40	stimuli_target_squaretriangles.svg	stimuli_distractor_diamondtriangles.svg	7	yes	57	0	420
6.6.1	win	2022-12-14	18:00:58	18:05:29	270058	607778a26ff3de83125f50c5	681343051	1	main_slash	7	main_slash	41	stimuli_distractor_trianglediamonds.svg	stimuli_target_trianglesquares.svg	26	yes	53	1	693
6.6.1	win	2022-12-14	18:00:58	18:05:29	270058	607778a26ff3de83125f50c5	681343051	1	main_slash	7	advance_on_keypress_SLASH	42	stimuli_distractor_trianglediamonds.svg	stimuli_target_trianglesquares.svg	26	yes	57	0	362
6.6.1	win	2022-12-14	18:00:58	18:05:32	273058	607778a26ff3de83125f50c5	681343051	1	main_slash	7	main_slash	43	stimuli_target_diamondcircles.svg	stimuli_distractor_trianglediamonds.svg	19	yes	0	0	2000
6.6.1	win	2022-12-14	18:00:58	18:05:32	273058	607778a26ff3de83125f50c5	681343051	1	main_slash	7	advance_on_keypress_SLASH	44	stimuli_target_diamondcircles.svg	stimuli_distractor_trianglediamonds.svg	19	yes	57	0	347
6.6.1	win	2022-12-14	18:00:58	18:05:34	274714	607778a26ff3de83125f50c5	681343051	1	main_slash	7	main_slash	45	stimuli_distractor_trianglediamonds.svg	stimuli_target_squarediamonds.svg	12	yes	53	1	669
6.6.1	win	2022-12-14	18:00:58	18:05:34	274714	607778a26ff3de83125f50c5	681343051	1	main_slash	7	advance_on_keypress_SLASH	46	stimuli_distractor_trianglediamonds.svg	stimuli_target_squarediamonds.svg	12	yes	57	0	429
6.6.1	win	2022-12-14	18:00:58	18:05:36	276618	607778a26ff3de83125f50c5	681343051	1	main_slash	7	main_slash	47	stimuli_target_trianglesquares.svg	stimuli_distractor_diamondtriangles.svg	22	yes	53	1	841
6.6.1	win	2022-12-14	18:00:58	18:05:36	276618	607778a26ff3de83125f50c5	681343051	1	main_slash	7	advance_on_keypress_SLASH	48	stimuli_target_trianglesquares.svg	stimuli_distractor_diamondtriangles.svg	22	yes	57	0	348
6.6.1	win	2022-12-14	18:00:58	18:05:38	278411	607778a26ff3de83125f50c5	681343051	1	main_slash	7	main_slash	49	stimuli_target_trianglecircles.svg	stimuli_distractor_trianglediamonds.svg	17	yes	53	1	806
6.6.1	win	2022-12-14	18:00:58	18:05:38	278411	607778a26ff3de83125f50c5	681343051	1	main_slash	7	advance_on_keypress_SLASH	50	stimuli_target_trianglecircles.svg	stimuli_distractor_trianglediamonds.svg	17	yes	57	0	457
6.6.1	win	2022-12-14	18:00:58	18:05:39	280219	607778a26ff3de83125f50c5	681343051	1	main_slash	7	main_slash	51	stimuli_target_circletriangles.svg	stimuli_distractor_diamondtriangles.svg	5	yes	53	1	721
6.6.1	win	2022-12-14	18:00:58	18:05:39	280219	607778a26ff3de83125f50c5	681343051	1	main_slash	7	advance_on_keypress_SLASH	52	stimuli_target_circletriangles.svg	stimuli_distractor_diamondtriangles.svg	5	yes	57	0	380
6.6.1	win	2022-12-14	18:00:58	18:05:42	283231	607778a26ff3de83125f50c5	681343051	1	main_slash	7	main_slash	53	stimuli_distractor_trianglediamonds.svg	stimuli_distractor_diamondtriangles.svg	35	no	0	1	2000
6.6.1	win	2022-12-14	18:00:58	18:05:42	283231	607778a26ff3de83125f50c5	681343051	1	main_slash	7	advance_on_keypress_SLASH	54	stimuli_distractor_trianglediamonds.svg	stimuli_distractor_diamondtriangles.svg	35	no	57	0	304
6.6.1	win	2022-12-14	18:00:58	18:05:44	284851	607778a26ff3de83125f50c5	681343051	1	main_slash	7	main_slash	55	stimuli_target_squarediamonds.svg	stimuli_distractor_diamondtriangles.svg	8	yes	53	1	687
6.6.1	win	2022-12-14	18:00:58	18:05:44	284851	607778a26ff3de83125f50c5	681343051	1	main_slash	7	advance_on_keypress_SLASH	56	stimuli_target_squarediamonds.svg	stimuli_distractor_diamondtriangles.svg	8	yes	57	0	410
6.6.1	win	2022-12-14	18:00:58	18:05:46	286564	607778a26ff3de83125f50c5	681343051	1	main_slash	7	main_slash	57	stimuli_distractor_diamondtriangles.svg	stimuli_target_circletriangles.svg	13	yes	53	1	680
6.6.1	win	2022-12-14	18:00:58	18:05:46	286564	607778a26ff3de83125f50c5	681343051	1	main_slash	7	advance_on_keypress_SLASH	58	stimuli_distractor_diamondtriangles.svg	stimuli_target_circletriangles.svg	13	yes	57	0	362
6.6.1	win	2022-12-14	18:00:58	18:05:47	288268	607778a26ff3de83125f50c5	681343051	1	main_slash	7	main_slash	59	stimuli_distractor_trianglediamonds.svg	stimuli_target_squaretriangles.svg	11	yes	53	1	704
6.6.1	win	2022-12-14	18:00:58	18:05:47	288268	607778a26ff3de83125f50c5	681343051	1	main_slash	7	advance_on_keypress_SLASH	60	stimuli_distractor_trianglediamonds.svg	stimuli_target_squaretriangles.svg	11	yes	57	0	320
6.6.1	win	2022-12-14	18:00:58	18:05:50	291231	607778a26ff3de83125f50c5	681343051	1	main_slash	7	main_slash	61	stimuli_distractor_diamondtriangles.svg	stimuli_distractor_trianglediamonds.svg	37	no	0	1	2000
6.6.1	win	2022-12-14	18:00:58	18:05:50	291231	607778a26ff3de83125f50c5	681343051	1	main_slash	7	advance_on_keypress_SLASH	62	stimuli_distractor_diamondtriangles.svg	stimuli_distractor_trianglediamonds.svg	37	no	57	0	280
6.6.1	win	2022-12-14	18:00:58	18:05:52	292732	607778a26ff3de83125f50c5	681343051	1	main_slash	7	main_slash	63	stimuli_distractor_trianglediamonds.svg	stimuli_target_circlediamonds.svg	10	yes	53	1	581
6.6.1	win	2022-12-14	18:00:58	18:05:52	292732	607778a26ff3de83125f50c5	681343051	1	main_slash	7	advance_on_keypress_SLASH	64	stimuli_distractor_trianglediamonds.svg	stimuli_target_circlediamonds.svg	10	yes	57	0	475
6.6.1	win	2022-12-14	18:00:58	18:05:54	294780	607778a26ff3de83125f50c5	681343051	1	main_slash	7	main_slash	65	stimuli_target_diamondcircles.svg	stimuli_distractor_diamondtriangles.svg	23	yes	53	1	950
6.6.1	win	2022-12-14	18:00:58	18:05:54	294780	607778a26ff3de83125f50c5	681343051	1	main_slash	7	advance_on_keypress_SLASH	66	stimuli_target_diamondcircles.svg	stimuli_distractor_diamondtriangles.svg	23	yes	57	0	350
6.6.1	win	2022-12-14	18:00:58	18:05:56	296557	607778a26ff3de83125f50c5	681343051	1	main_slash	7	main_slash	67	stimuli_distractor_diamondtriangles.svg	stimuli_target_trianglesquares.svg	30	yes	53	1	793
6.6.1	win	2022-12-14	18:00:58	18:05:56	296557	607778a26ff3de83125f50c5	681343051	1	main_slash	7	advance_on_keypress_SLASH	68	stimuli_distractor_diamondtriangles.svg	stimuli_target_trianglesquares.svg	30	yes	57	0	353
6.6.1	win	2022-12-14	18:00:58	18:05:59	299537	607778a26ff3de83125f50c5	681343051	1	main_slash	7	main_slash	69	stimuli_distractor_trianglediamonds.svg	stimuli_distractor_trianglediamonds.svg	33	no	0	1	2000
6.6.1	win	2022-12-14	18:00:58	18:05:59	299537	607778a26ff3de83125f50c5	681343051	1	main_slash	7	advance_on_keypress_SLASH	70	stimuli_distractor_trianglediamonds.svg	stimuli_distractor_trianglediamonds.svg	33	no	57	0	334
6.6.1	win	2022-12-14	18:00:58	18:06:00	301101	607778a26ff3de83125f50c5	681343051	1	main_slash	7	main_slash	71	stimuli_distractor_diamondtriangles.svg	stimuli_target_squaretriangles.svg	15	yes	53	1	591
6.6.1	win	2022-12-14	18:00:58	18:06:00	301101	607778a26ff3de83125f50c5	681343051	1	main_slash	7	advance_on_keypress_SLASH	72	stimuli_distractor_diamondtriangles.svg	stimuli_target_squaretriangles.svg	15	yes	57	0	351
6.6.1	win	2022-12-14	18:00:58	18:06:02	302933	607778a26ff3de83125f50c5	681343051	1	main_slash	7	main_slash	73	stimuli_distractor_trianglediamonds.svg	stimuli_target_diamondcircles.svg	27	yes	53	1	849
6.6.1	win	2022-12-14	18:00:58	18:06:02	302933	607778a26ff3de83125f50c5	681343051	1	main_slash	7	advance_on_keypress_SLASH	74	stimuli_distractor_trianglediamonds.svg	stimuli_target_diamondcircles.svg	27	yes	57	0	325
6.6.1	win	2022-12-14	18:00:58	18:06:05	305884	607778a26ff3de83125f50c5	681343051	1	main_slash	7	main_slash	75	stimuli_distractor_diamondtriangles.svg	stimuli_distractor_diamondtriangles.svg	39	no	0	1	2000
6.6.1	win	2022-12-14	18:00:58	18:06:05	305884	607778a26ff3de83125f50c5	681343051	1	main_slash	7	advance_on_keypress_SLASH	76	stimuli_distractor_diamondtriangles.svg	stimuli_distractor_diamondtriangles.svg	39	no	57	0	317
6.6.1	win	2022-12-14	18:00:58	18:06:07	307406	607778a26ff3de83125f50c5	681343051	1	main_slash	7	main_slash	77	stimuli_target_trianglecircles.svg	stimuli_distractor_diamondtriangles.svg	21	yes	53	1	562
6.6.1	win	2022-12-14	18:00:58	18:06:07	307406	607778a26ff3de83125f50c5	681343051	1	main_slash	7	advance_on_keypress_SLASH	78	stimuli_target_trianglecircles.svg	stimuli_distractor_diamondtriangles.svg	21	yes	57	0	333
6.6.1	win	2022-12-14	18:00:58	18:06:08	308998	607778a26ff3de83125f50c5	681343051	1	main_slash	7	main_slash	79	stimuli_target_circlediamonds.svg	stimuli_distractor_trianglediamonds.svg	2	yes	53	1	621
6.6.1	win	2022-12-14	18:00:58	18:06:08	308998	607778a26ff3de83125f50c5	681343051	1	main_slash	7	advance_on_keypress_SLASH	80	stimuli_target_circlediamonds.svg	stimuli_distractor_trianglediamonds.svg	2	yes	57	0	308
6.6.1	win	2022-12-14	18:00:58	18:06:10	310518	607778a26ff3de83125f50c5	681343051	1	main_slash	7	main_slash	81	stimuli_target_trianglecircles.svg	stimuli_distractor_diamondtriangles.svg	21	yes	53	1	581
6.6.1	win	2022-12-14	18:00:58	18:06:10	310518	607778a26ff3de83125f50c5	681343051	1	main_slash	7	advance_on_keypress_SLASH	82	stimuli_target_trianglecircles.svg	stimuli_distractor_diamondtriangles.svg	21	yes	57	0	275
6.6.1	win	2022-12-14	18:00:58	18:06:11	312102	607778a26ff3de83125f50c5	681343051	1	main_slash	7	main_slash	83	stimuli_target_diamondsquares.svg	stimuli_distractor_trianglediamonds.svg	20	yes	53	1	686
6.6.1	win	2022-12-14	18:00:58	18:06:11	312102	607778a26ff3de83125f50c5	681343051	1	main_slash	7	advance_on_keypress_SLASH	84	stimuli_target_diamondsquares.svg	stimuli_distractor_trianglediamonds.svg	20	yes	57	0	305
6.6.1	win	2022-12-14	18:00:58	18:06:13	313727	607778a26ff3de83125f50c5	681343051	1	main_slash	7	main_slash	85	stimuli_target_circletriangles.svg	stimuli_distractor_diamondtriangles.svg	5	yes	53	1	683
6.6.1	win	2022-12-14	18:00:58	18:06:13	313727	607778a26ff3de83125f50c5	681343051	1	main_slash	7	advance_on_keypress_SLASH	86	stimuli_target_circletriangles.svg	stimuli_distractor_diamondtriangles.svg	5	yes	57	0	206
6.6.1	win	2022-12-14	18:00:58	18:06:14	315111	607778a26ff3de83125f50c5	681343051	1	main_slash	7	main_slash	87	stimuli_distractor_trianglediamonds.svg	stimuli_target_trianglesquares.svg	26	yes	53	1	548
6.6.1	win	2022-12-14	18:00:58	18:06:14	315111	607778a26ff3de83125f50c5	681343051	1	main_slash	7	advance_on_keypress_SLASH	88	stimuli_distractor_trianglediamonds.svg	stimuli_target_trianglesquares.svg	26	yes	57	0	244
6.6.1	win	2022-12-14	18:00:58	18:06:16	316551	607778a26ff3de83125f50c5	681343051	1	main_slash	7	main_slash	89	stimuli_target_squaretriangles.svg	stimuli_distractor_trianglediamonds.svg	3	yes	53	1	561
6.6.1	win	2022-12-14	18:00:58	18:06:16	316551	607778a26ff3de83125f50c5	681343051	1	main_slash	7	advance_on_keypress_SLASH	90	stimuli_target_squaretriangles.svg	stimuli_distractor_trianglediamonds.svg	3	yes	57	0	244
6.6.1	win	2022-12-14	18:00:58	18:06:17	317953	607778a26ff3de83125f50c5	681343051	1	main_slash	7	main_slash	91	stimuli_distractor_trianglediamonds.svg	stimuli_target_diamondcircles.svg	27	yes	53	1	521
6.6.1	win	2022-12-14	18:00:58	18:06:17	317953	607778a26ff3de83125f50c5	681343051	1	main_slash	7	advance_on_keypress_SLASH	92	stimuli_distractor_trianglediamonds.svg	stimuli_target_diamondcircles.svg	27	yes	57	0	236
6.6.1	win	2022-12-14	18:00:58	18:06:19	319303	607778a26ff3de83125f50c5	681343051	1	main_slash	7	main_slash	93	stimuli_distractor_diamondtriangles.svg	stimuli_target_squarediamonds.svg	16	yes	53	1	486
6.6.1	win	2022-12-14	18:00:58	18:06:19	319303	607778a26ff3de83125f50c5	681343051	1	main_slash	7	advance_on_keypress_SLASH	94	stimuli_distractor_diamondtriangles.svg	stimuli_target_squarediamonds.svg	16	yes	57	0	225
6.6.1	win	2022-12-14	18:00:58	18:06:21	322163	607778a26ff3de83125f50c5	681343051	1	main_slash	7	main_slash	95	stimuli_distractor_diamondtriangles.svg	stimuli_distractor_diamondtriangles.svg	40	no	0	1	2000
6.6.1	win	2022-12-14	18:00:58	18:06:21	322163	607778a26ff3de83125f50c5	681343051	1	main_slash	7	advance_on_keypress_SLASH	96	stimuli_distractor_diamondtriangles.svg	stimuli_distractor_diamondtriangles.svg	40	no	57	0	351
6.6.1	win	2022-12-14	18:00:58	18:06:23	323584	607778a26ff3de83125f50c5	681343051	1	main_slash	7	main_slash	97	stimuli_distractor_trianglediamonds.svg	stimuli_target_squaretriangles.svg	11	yes	53	1	434
6.6.1	win	2022-12-14	18:00:58	18:06:23	323584	607778a26ff3de83125f50c5	681343051	1	main_slash	7	advance_on_keypress_SLASH	98	stimuli_distractor_trianglediamonds.svg	stimuli_target_squaretriangles.svg	11	yes	57	0	274
6.6.1	win	2022-12-14	18:00:58	18:06:24	324928	607778a26ff3de83125f50c5	681343051	1	main_slash	7	main_slash	99	stimuli_distractor_diamondtriangles.svg	stimuli_target_diamondsquares.svg	32	yes	53	1	445
6.6.1	win	2022-12-14	18:00:58	18:06:24	324928	607778a26ff3de83125f50c5	681343051	1	main_slash	7	advance_on_keypress_SLASH	100	stimuli_distractor_diamondtriangles.svg	stimuli_target_diamondsquares.svg	32	yes	57	0	248
6.6.1	win	2022-12-14	18:00:58	18:06:25	326272	607778a26ff3de83125f50c5	681343051	1	main_slash	7	main_slash	101	stimuli_target_diamondsquares.svg	stimuli_distractor_diamondtriangles.svg	24	yes	53	1	469
6.6.1	win	2022-12-14	18:00:58	18:06:25	326272	607778a26ff3de83125f50c5	681343051	1	main_slash	7	advance_on_keypress_SLASH	102	stimuli_target_diamondsquares.svg	stimuli_distractor_diamondtriangles.svg	24	yes	57	0	277
6.6.1	win	2022-12-14	18:00:58	18:06:27	327656	607778a26ff3de83125f50c5	681343051	1	main_slash	7	main_slash	103	stimuli_target_diamondcircles.svg	stimuli_distractor_trianglediamonds.svg	19	yes	53	1	467
6.6.1	win	2022-12-14	18:00:58	18:06:27	327656	607778a26ff3de83125f50c5	681343051	1	main_slash	7	advance_on_keypress_SLASH	104	stimuli_target_diamondcircles.svg	stimuli_distractor_trianglediamonds.svg	19	yes	57	0	219
6.6.1	win	2022-12-14	18:00:58	18:06:28	328944	607778a26ff3de83125f50c5	681343051	1	main_slash	7	main_slash	105	stimuli_distractor_trianglediamonds.svg	stimuli_target_diamondsquares.svg	28	yes	53	1	435
6.6.1	win	2022-12-14	18:00:58	18:06:28	328944	607778a26ff3de83125f50c5	681343051	1	main_slash	7	advance_on_keypress_SLASH	106	stimuli_distractor_trianglediamonds.svg	stimuli_target_diamondsquares.svg	28	yes	57	0	284
6.6.1	win	2022-12-14	18:00:58	18:06:31	331856	607778a26ff3de83125f50c5	681343051	1	main_slash	7	main_slash	107	stimuli_distractor_diamondtriangles.svg	stimuli_distractor_trianglediamonds.svg	38	no	0	1	2000
6.6.1	win	2022-12-14	18:00:58	18:06:31	331856	607778a26ff3de83125f50c5	681343051	1	main_slash	7	advance_on_keypress_SLASH	108	stimuli_distractor_diamondtriangles.svg	stimuli_distractor_trianglediamonds.svg	38	no	57	0	316
6.6.1	win	2022-12-14	18:00:58	18:06:33	333329	607778a26ff3de83125f50c5	681343051	1	main_slash	7	main_slash	109	stimuli_target_squaretriangles.svg	stimuli_distractor_diamondtriangles.svg	7	yes	53	1	526
6.6.1	win	2022-12-14	18:00:58	18:06:33	333329	607778a26ff3de83125f50c5	681343051	1	main_slash	7	advance_on_keypress_SLASH	110	stimuli_target_squaretriangles.svg	stimuli_distractor_diamondtriangles.svg	7	yes	57	0	257
6.6.1	win	2022-12-14	18:00:58	18:06:34	334641	607778a26ff3de83125f50c5	681343051	1	main_slash	7	main_slash	111	stimuli_target_squarediamonds.svg	stimuli_distractor_diamondtriangles.svg	8	yes	53	1	425
6.6.1	win	2022-12-14	18:00:58	18:06:34	334641	607778a26ff3de83125f50c5	681343051	1	main_slash	7	advance_on_keypress_SLASH	112	stimuli_target_squarediamonds.svg	stimuli_distractor_diamondtriangles.svg	8	yes	57	0	209
6.6.1	win	2022-12-14	18:00:58	18:06:35	335953	607778a26ff3de83125f50c5	681343051	1	main_slash	7	main_slash	113	stimuli_target_trianglesquares.svg	stimuli_distractor_diamondtriangles.svg	22	yes	53	1	470
6.6.1	win	2022-12-14	18:00:58	18:06:35	335953	607778a26ff3de83125f50c5	681343051	1	main_slash	7	advance_on_keypress_SLASH	114	stimuli_target_trianglesquares.svg	stimuli_distractor_diamondtriangles.svg	22	yes	57	0	199
6.6.1	win	2022-12-14	18:00:58	18:06:37	337457	607778a26ff3de83125f50c5	681343051	1	main_slash	7	main_slash	115	stimuli_distractor_diamondtriangles.svg	stimuli_target_circletriangles.svg	13	yes	53	1	669
6.6.1	win	2022-12-14	18:00:58	18:06:37	337457	607778a26ff3de83125f50c5	681343051	1	main_slash	7	advance_on_keypress_SLASH	116	stimuli_distractor_diamondtriangles.svg	stimuli_target_circletriangles.svg	13	yes	57	0	269
6.6.1	win	2022-12-14	18:00:58	18:06:38	338898	607778a26ff3de83125f50c5	681343051	1	main_slash	7	main_slash	117	stimuli_distractor_trianglediamonds.svg	stimuli_target_squarediamonds.svg	12	yes	53	1	535
6.6.1	win	2022-12-14	18:00:58	18:06:38	338898	607778a26ff3de83125f50c5	681343051	1	main_slash	7	advance_on_keypress_SLASH	118	stimuli_distractor_trianglediamonds.svg	stimuli_target_squarediamonds.svg	12	yes	57	0	197
6.6.1	win	2022-12-14	18:00:58	18:06:39	340186	607778a26ff3de83125f50c5	681343051	1	main_slash	7	main_slash	119	stimuli_target_squarediamonds.svg	stimuli_distractor_trianglediamonds.svg	4	yes	53	1	450
6.6.1	win	2022-12-14	18:00:58	18:06:39	340186	607778a26ff3de83125f50c5	681343051	1	main_slash	7	advance_on_keypress_SLASH	120	stimuli_target_squarediamonds.svg	stimuli_distractor_trianglediamonds.svg	4	yes	57	0	175
6.6.1	win	2022-12-14	18:00:58	18:06:41	341426	607778a26ff3de83125f50c5	681343051	1	main_slash	7	main_slash	121	stimuli_distractor_diamondtriangles.svg	stimuli_target_circlediamonds.svg	14	yes	53	1	424
6.6.1	win	2022-12-14	18:00:58	18:06:41	341426	607778a26ff3de83125f50c5	681343051	1	main_slash	7	advance_on_keypress_SLASH	122	stimuli_distractor_diamondtriangles.svg	stimuli_target_circlediamonds.svg	14	yes	57	0	335
6.6.1	win	2022-12-14	18:00:58	18:06:42	342925	607778a26ff3de83125f50c5	681343051	1	main_slash	7	main_slash	123	stimuli_distractor_diamondtriangles.svg	stimuli_target_trianglesquares.svg	30	yes	53	1	520
6.6.1	win	2022-12-14	18:00:58	18:06:42	342925	607778a26ff3de83125f50c5	681343051	1	main_slash	7	advance_on_keypress_SLASH	124	stimuli_distractor_diamondtriangles.svg	stimuli_target_trianglesquares.svg	30	yes	57	0	210
6.6.1	win	2022-12-14	18:00:58	18:06:43	344210	607778a26ff3de83125f50c5	681343051	1	main_slash	7	main_slash	125	stimuli_distractor_diamondtriangles.svg	stimuli_target_squaretriangles.svg	15	yes	53	1	435
6.6.1	win	2022-12-14	18:00:58	18:06:43	344210	607778a26ff3de83125f50c5	681343051	1	main_slash	7	advance_on_keypress_SLASH	126	stimuli_distractor_diamondtriangles.svg	stimuli_target_squaretriangles.svg	15	yes	57	0	194
6.6.1	win	2022-12-14	18:00:58	18:06:45	345466	607778a26ff3de83125f50c5	681343051	1	main_slash	7	main_slash	127	stimuli_target_circletriangles.svg	stimuli_distractor_trianglediamonds.svg	1	yes	53	1	438
6.6.1	win	2022-12-14	18:00:58	18:06:45	345466	607778a26ff3de83125f50c5	681343051	1	main_slash	7	advance_on_keypress_SLASH	128	stimuli_target_circletriangles.svg	stimuli_distractor_trianglediamonds.svg	1	yes	57	0	169
6.6.1	win	2022-12-14	18:00:58	18:06:46	346739	607778a26ff3de83125f50c5	681343051	1	main_slash	7	main_slash	129	stimuli_distractor_diamondtriangles.svg	stimuli_target_diamondcircles.svg	31	yes	53	1	470
6.6.1	win	2022-12-14	18:00:58	18:06:46	346739	607778a26ff3de83125f50c5	681343051	1	main_slash	7	advance_on_keypress_SLASH	130	stimuli_distractor_diamondtriangles.svg	stimuli_target_diamondcircles.svg	31	yes	57	0	230
6.6.1	win	2022-12-14	18:00:58	18:06:47	348027	607778a26ff3de83125f50c5	681343051	1	main_slash	7	main_slash	131	stimuli_distractor_trianglediamonds.svg	stimuli_target_circlediamonds.svg	10	yes	53	1	425
6.6.1	win	2022-12-14	18:00:58	18:06:47	348027	607778a26ff3de83125f50c5	681343051	1	main_slash	7	advance_on_keypress_SLASH	132	stimuli_distractor_trianglediamonds.svg	stimuli_target_circlediamonds.svg	10	yes	57	0	161
6.6.1	win	2022-12-14	18:00:58	18:06:50	350829	607778a26ff3de83125f50c5	681343051	1	main_slash	7	main_slash	133	stimuli_distractor_trianglediamonds.svg	stimuli_distractor_diamondtriangles.svg	35	no	0	1	2000
6.6.1	win	2022-12-14	18:00:58	18:06:50	350829	607778a26ff3de83125f50c5	681343051	1	main_slash	7	advance_on_keypress_SLASH	134	stimuli_distractor_trianglediamonds.svg	stimuli_distractor_diamondtriangles.svg	35	no	57	0	329
6.6.1	win	2022-12-14	18:00:58	18:06:52	352363	607778a26ff3de83125f50c5	681343051	1	main_slash	7	main_slash	135	stimuli_target_trianglesquares.svg	stimuli_distractor_trianglediamonds.svg	18	yes	53	1	574
6.6.1	win	2022-12-14	18:00:58	18:06:52	352363	607778a26ff3de83125f50c5	681343051	1	main_slash	7	advance_on_keypress_SLASH	136	stimuli_target_trianglesquares.svg	stimuli_distractor_trianglediamonds.svg	18	yes	57	0	165
6.6.1	win	2022-12-14	18:00:58	18:06:53	353595	607778a26ff3de83125f50c5	681343051	1	main_slash	7	main_slash	137	stimuli_target_trianglecircles.svg	stimuli_distractor_trianglediamonds.svg	17	yes	53	1	434
6.6.1	win	2022-12-14	18:00:58	18:06:53	353595	607778a26ff3de83125f50c5	681343051	1	main_slash	7	advance_on_keypress_SLASH	138	stimuli_target_trianglecircles.svg	stimuli_distractor_trianglediamonds.svg	17	yes	57	0	177
6.6.1	win	2022-12-14	18:00:58	18:06:56	356402	607778a26ff3de83125f50c5	681343051	1	main_slash	7	main_slash	139	stimuli_distractor_trianglediamonds.svg	stimuli_distractor_trianglediamonds.svg	34	no	0	1	2000
6.6.1	win	2022-12-14	18:00:58	18:06:56	356402	607778a26ff3de83125f50c5	681343051	1	main_slash	7	advance_on_keypress_SLASH	140	stimuli_distractor_trianglediamonds.svg	stimuli_distractor_trianglediamonds.svg	34	no	57	0	1053
6.6.1	win	2022-12-14	18:00:58	18:06:58	358532	607778a26ff3de83125f50c5	681343051	1	main_slash	7	main_slash	141	stimuli_distractor_diamondtriangles.svg	stimuli_target_trianglecircles.svg	29	yes	53	1	437
6.6.1	win	2022-12-14	18:00:58	18:06:58	358532	607778a26ff3de83125f50c5	681343051	1	main_slash	7	advance_on_keypress_SLASH	142	stimuli_distractor_diamondtriangles.svg	stimuli_target_trianglecircles.svg	29	yes	57	0	199
6.6.1	win	2022-12-14	18:00:58	18:06:59	359876	607778a26ff3de83125f50c5	681343051	1	main_slash	7	main_slash	143	stimuli_distractor_trianglediamonds.svg	stimuli_target_trianglecircles.svg	25	yes	53	1	501
6.6.1	win	2022-12-14	18:00:58	18:06:59	359876	607778a26ff3de83125f50c5	681343051	1	main_slash	7	advance_on_keypress_SLASH	144	stimuli_distractor_trianglediamonds.svg	stimuli_target_trianglecircles.svg	25	yes	57	0	162
6.6.1	win	2022-12-14	18:00:58	18:07:00	361260	607778a26ff3de83125f50c5	681343051	1	main_slash	7	main_slash	145	stimuli_target_diamondcircles.svg	stimuli_distractor_diamondtriangles.svg	23	yes	53	1	593
6.6.1	win	2022-12-14	18:00:58	18:07:00	361260	607778a26ff3de83125f50c5	681343051	1	main_slash	7	advance_on_keypress_SLASH	146	stimuli_target_diamondcircles.svg	stimuli_distractor_diamondtriangles.svg	23	yes	57	0	192
6.6.1	win	2022-12-14	18:00:58	18:07:02	362660	607778a26ff3de83125f50c5	681343051	1	main_slash	7	main_slash	147	stimuli_distractor_trianglediamonds.svg	stimuli_target_circletriangles.svg	9	yes	53	1	579
6.6.1	win	2022-12-14	18:00:58	18:07:02	362660	607778a26ff3de83125f50c5	681343051	1	main_slash	7	advance_on_keypress_SLASH	148	stimuli_distractor_trianglediamonds.svg	stimuli_target_circletriangles.svg	9	yes	57	0	209
6.6.1	win	2022-12-14	18:00:58	18:07:05	365495	607778a26ff3de83125f50c5	681343051	1	main_slash	7	main_slash	149	stimuli_distractor_diamondtriangles.svg	stimuli_distractor_diamondtriangles.svg	39	no	0	1	2000
6.6.1	win	2022-12-14	18:00:58	18:07:05	365495	607778a26ff3de83125f50c5	681343051	1	main_slash	7	advance_on_keypress_SLASH	150	stimuli_distractor_diamondtriangles.svg	stimuli_distractor_diamondtriangles.svg	39	no	57	0	281
6.6.1	win	2022-12-14	18:00:58	18:07:08	368415	607778a26ff3de83125f50c5	681343051	1	main_slash	7	main_slash	151	stimuli_distractor_trianglediamonds.svg	stimuli_distractor_trianglediamonds.svg	33	no	0	1	2000
6.6.1	win	2022-12-14	18:00:58	18:07:08	368415	607778a26ff3de83125f50c5	681343051	1	main_slash	7	advance_on_keypress_SLASH	152	stimuli_distractor_trianglediamonds.svg	stimuli_distractor_trianglediamonds.svg	33	no	57	0	281
6.6.1	win	2022-12-14	18:00:58	18:07:09	369773	607778a26ff3de83125f50c5	681343051	1	main_slash	7	main_slash	153	stimuli_target_circlediamonds.svg	stimuli_distractor_trianglediamonds.svg	2	yes	53	1	438
6.6.1	win	2022-12-14	18:00:58	18:07:09	369773	607778a26ff3de83125f50c5	681343051	1	main_slash	7	advance_on_keypress_SLASH	154	stimuli_target_circlediamonds.svg	stimuli_distractor_trianglediamonds.svg	2	yes	57	0	265
6.6.1	win	2022-12-14	18:00:58	18:07:10	371165	607778a26ff3de83125f50c5	681343051	1	main_slash	7	main_slash	155	stimuli_target_circlediamonds.svg	stimuli_distractor_diamondtriangles.svg	6	yes	53	1	484
6.6.1	win	2022-12-14	18:00:58	18:07:10	371165	607778a26ff3de83125f50c5	681343051	1	main_slash	7	advance_on_keypress_SLASH	156	stimuli_target_circlediamonds.svg	stimuli_distractor_diamondtriangles.svg	6	yes	57	0	151
6.6.1	win	2022-12-14	18:00:58	18:07:13	373961	607778a26ff3de83125f50c5	681343051	1	main_slash	7	main_slash	157	stimuli_distractor_trianglediamonds.svg	stimuli_distractor_diamondtriangles.svg	36	no	0	1	2000
6.6.1	win	2022-12-14	18:00:58	18:07:13	373961	607778a26ff3de83125f50c5	681343051	1	main_slash	7	advance_on_keypress_SLASH	158	stimuli_distractor_trianglediamonds.svg	stimuli_distractor_diamondtriangles.svg	36	no	57	0	279
6.6.1	win	2022-12-14	18:00:58	18:07:16	376881	607778a26ff3de83125f50c5	681343051	1	main_slash	7	main_slash	159	stimuli_distractor_diamondtriangles.svg	stimuli_distractor_trianglediamonds.svg	37	no	0	1	2000
6.6.1	win	2022-12-14	18:00:58	18:07:16	376881	607778a26ff3de83125f50c5	681343051	1	main_slash	7	advance_on_keypress_SLASH	160	stimuli_distractor_diamondtriangles.svg	stimuli_distractor_trianglediamonds.svg	37	no	57	0	287
6.6.1	win	2022-12-14	18:00:58	18:07:32	392802	607778a26ff3de83125f50c5	681343051	1	practice_z	9	practice_z	1	stimuli_distractor_diamondtriangles.svg	stimuli_distractor_trianglediamonds.svg	14	no	0	1	2000
6.6.1	win	2022-12-14	18:00:58	18:07:32	392802	607778a26ff3de83125f50c5	681343051	1	practice_z	9	advance_on_keypress_ZEE	2	stimuli_distractor_diamondtriangles.svg	stimuli_distractor_trianglediamonds.svg	14	no	57	0	498
6.6.1	win	2022-12-14	18:00:58	18:07:35	395554	607778a26ff3de83125f50c5	681343051	1	practice_z	9	practice_z	3	stimuli_distractor_diamondtriangles.svg	stimuli_target_circletriangles.svg	7	yes	44	1	619
6.6.1	win	2022-12-14	18:00:58	18:07:35	395554	607778a26ff3de83125f50c5	681343051	1	practice_z	9	advance_on_keypress_ZEE	4	stimuli_distractor_diamondtriangles.svg	stimuli_target_circletriangles.svg	7	yes	57	0	544
6.6.1	win	2022-12-14	18:00:58	18:07:39	399735	607778a26ff3de83125f50c5	681343051	1	practice_z	9	practice_z	5	stimuli_distractor_trianglediamonds.svg	stimuli_distractor_trianglediamonds.svg	15	no	0	1	2000
6.6.1	win	2022-12-14	18:00:58	18:07:39	399735	607778a26ff3de83125f50c5	681343051	1	practice_z	9	advance_on_keypress_ZEE	6	stimuli_distractor_trianglediamonds.svg	stimuli_distractor_trianglediamonds.svg	15	no	57	0	382
6.6.1	win	2022-12-14	18:00:58	18:07:42	402298	607778a26ff3de83125f50c5	681343051	1	practice_z	9	practice_z	7	stimuli_target_diamondsquares.svg	stimuli_distractor_trianglediamonds.svg	6	yes	44	1	550
6.6.1	win	2022-12-14	18:00:58	18:07:42	402298	607778a26ff3de83125f50c5	681343051	1	practice_z	9	advance_on_keypress_ZEE	8	stimuli_target_diamondsquares.svg	stimuli_distractor_trianglediamonds.svg	6	yes	57	0	575
6.6.1	win	2022-12-14	18:00:58	18:07:46	406509	607778a26ff3de83125f50c5	681343051	1	practice_z	9	practice_z	9	stimuli_distractor_trianglediamonds.svg	stimuli_distractor_diamondtriangles.svg	16	no	0	1	2000
6.6.1	win	2022-12-14	18:00:58	18:07:46	406509	607778a26ff3de83125f50c5	681343051	1	practice_z	9	advance_on_keypress_ZEE	10	stimuli_distractor_trianglediamonds.svg	stimuli_distractor_diamondtriangles.svg	16	no	57	0	314
6.6.1	win	2022-12-14	18:00:58	18:07:48	408995	607778a26ff3de83125f50c5	681343051	1	practice_z	9	practice_z	11	stimuli_distractor_diamondtriangles.svg	stimuli_target_diamondcircles.svg	8	yes	44	1	540
6.6.1	win	2022-12-14	18:00:58	18:07:48	408995	607778a26ff3de83125f50c5	681343051	1	practice_z	9	advance_on_keypress_ZEE	12	stimuli_distractor_diamondtriangles.svg	stimuli_target_diamondcircles.svg	8	yes	57	0	498
6.6.1	win	2022-12-14	18:00:58	18:07:51	411731	607778a26ff3de83125f50c5	681343051	1	practice_z	9	practice_z	13	stimuli_target_diamondsquares.svg	stimuli_distractor_diamondtriangles.svg	3	yes	44	1	610
6.6.1	win	2022-12-14	18:00:58	18:07:51	411731	607778a26ff3de83125f50c5	681343051	1	practice_z	9	advance_on_keypress_ZEE	14	stimuli_target_diamondsquares.svg	stimuli_distractor_diamondtriangles.svg	3	yes	57	0	455
6.6.1	win	2022-12-14	18:00:58	18:07:54	414346	607778a26ff3de83125f50c5	681343051	1	practice_z	9	practice_z	15	stimuli_target_squarediamonds.svg	stimuli_distractor_trianglediamonds.svg	5	yes	44	1	512
6.6.1	win	2022-12-14	18:00:58	18:07:54	414346	607778a26ff3de83125f50c5	681343051	1	practice_z	9	advance_on_keypress_ZEE	16	stimuli_target_squarediamonds.svg	stimuli_distractor_trianglediamonds.svg	5	yes	57	0	411
6.6.1	win	2022-12-14	18:00:58	18:07:56	416920	607778a26ff3de83125f50c5	681343051	1	practice_z	9	practice_z	17	stimuli_target_squarediamonds.svg	stimuli_distractor_diamondtriangles.svg	2	yes	44	1	515
6.6.1	win	2022-12-14	18:00:58	18:07:56	416920	607778a26ff3de83125f50c5	681343051	1	practice_z	9	advance_on_keypress_ZEE	18	stimuli_target_squarediamonds.svg	stimuli_distractor_diamondtriangles.svg	2	yes	57	0	430
6.6.1	win	2022-12-14	18:00:58	18:07:59	419517	607778a26ff3de83125f50c5	681343051	1	practice_z	9	practice_z	19	stimuli_distractor_trianglediamonds.svg	stimuli_target_circlediamonds.svg	10	yes	44	1	528
6.6.1	win	2022-12-14	18:00:58	18:07:59	419517	607778a26ff3de83125f50c5	681343051	1	practice_z	9	advance_on_keypress_ZEE	20	stimuli_distractor_trianglediamonds.svg	stimuli_target_circlediamonds.svg	10	yes	57	0	382
6.6.1	win	2022-12-14	18:00:58	18:08:01	422118	607778a26ff3de83125f50c5	681343051	1	practice_z	9	practice_z	21	stimuli_distractor_diamondtriangles.svg	stimuli_target_trianglecircles.svg	9	yes	44	1	583
6.6.1	win	2022-12-14	18:00:58	18:08:01	422118	607778a26ff3de83125f50c5	681343051	1	practice_z	9	advance_on_keypress_ZEE	22	stimuli_distractor_diamondtriangles.svg	stimuli_target_trianglecircles.svg	9	yes	57	0	327
6.6.1	win	2022-12-14	18:00:58	18:08:04	424581	607778a26ff3de83125f50c5	681343051	1	practice_z	9	practice_z	23	stimuli_distractor_trianglediamonds.svg	stimuli_target_squarediamonds.svg	11	yes	44	1	500
6.6.1	win	2022-12-14	18:00:58	18:08:04	424581	607778a26ff3de83125f50c5	681343051	1	practice_z	9	advance_on_keypress_ZEE	24	stimuli_distractor_trianglediamonds.svg	stimuli_target_squarediamonds.svg	11	yes	57	0	482
6.6.1	win	2022-12-14	18:00:58	18:08:08	428694	607778a26ff3de83125f50c5	681343051	1	practice_z	9	practice_z	25	stimuli_distractor_diamondtriangles.svg	stimuli_distractor_diamondtriangles.svg	13	no	0	1	2000
6.6.1	win	2022-12-14	18:00:58	18:08:08	428694	607778a26ff3de83125f50c5	681343051	1	practice_z	9	advance_on_keypress_ZEE	26	stimuli_distractor_diamondtriangles.svg	stimuli_distractor_diamondtriangles.svg	13	no	57	0	5
6.6.1	win	2022-12-14	18:00:58	18:08:10	430910	607778a26ff3de83125f50c5	681343051	1	practice_z	9	practice_z	27	stimuli_target_circlediamonds.svg	stimuli_distractor_trianglediamonds.svg	4	yes	44	1	562
6.6.1	win	2022-12-14	18:00:58	18:08:10	430910	607778a26ff3de83125f50c5	681343051	1	practice_z	9	advance_on_keypress_ZEE	28	stimuli_target_circlediamonds.svg	stimuli_distractor_trianglediamonds.svg	4	yes	57	0	534
6.6.1	win	2022-12-14	18:00:58	18:08:13	433679	607778a26ff3de83125f50c5	681343051	1	practice_z	9	practice_z	29	stimuli_distractor_trianglediamonds.svg	stimuli_target_diamondcircles.svg	12	yes	44	1	598
6.6.1	win	2022-12-14	18:00:58	18:08:13	433679	607778a26ff3de83125f50c5	681343051	1	practice_z	9	advance_on_keypress_ZEE	30	stimuli_distractor_trianglediamonds.svg	stimuli_target_diamondcircles.svg	12	yes	57	0	576
6.6.1	win	2022-12-14	18:00:58	18:08:16	436463	607778a26ff3de83125f50c5	681343051	1	practice_z	9	practice_z	31	stimuli_target_circlediamonds.svg	stimuli_distractor_diamondtriangles.svg	1	yes	44	1	568
6.6.1	win	2022-12-14	18:00:58	18:08:16	436463	607778a26ff3de83125f50c5	681343051	1	practice_z	9	advance_on_keypress_ZEE	32	stimuli_target_circlediamonds.svg	stimuli_distractor_diamondtriangles.svg	1	yes	57	0	430
6.6.1	win	2022-12-14	18:00:58	18:08:19	439661	607778a26ff3de83125f50c5	681343051	1	main_z	11	main_z	1	stimuli_distractor_diamondtriangles.svg	stimuli_target_diamondsquares.svg	32	yes	44	1	569
6.6.1	win	2022-12-14	18:00:58	18:08:19	439661	607778a26ff3de83125f50c5	681343051	1	main_z	11	advance_on_keypress_ZEE	2	stimuli_distractor_diamondtriangles.svg	stimuli_target_diamondsquares.svg	32	yes	57	0	647
6.6.1	win	2022-12-14	18:00:58	18:08:22	442946	607778a26ff3de83125f50c5	681343051	1	main_z	11	main_z	3	stimuli_distractor_diamondtriangles.svg	stimuli_distractor_trianglediamonds.svg	38	no	0	1	2000
6.6.1	win	2022-12-14	18:00:58	18:08:22	442946	607778a26ff3de83125f50c5	681343051	1	main_z	11	advance_on_keypress_ZEE	4	stimuli_distractor_diamondtriangles.svg	stimuli_distractor_trianglediamonds.svg	38	no	57	0	375
6.6.1	win	2022-12-14	18:00:58	18:08:24	444422	607778a26ff3de83125f50c5	681343051	1	main_z	11	main_z	5	stimuli_target_trianglesquares.svg	stimuli_distractor_diamondtriangles.svg	22	yes	44	1	463
6.6.1	win	2022-12-14	18:00:58	18:08:24	444422	607778a26ff3de83125f50c5	681343051	1	main_z	11	advance_on_keypress_ZEE	6	stimuli_target_trianglesquares.svg	stimuli_distractor_diamondtriangles.svg	22	yes	57	0	572
6.6.1	win	2022-12-14	18:00:58	18:08:25	446102	607778a26ff3de83125f50c5	681343051	1	main_z	11	main_z	7	stimuli_target_squarediamonds.svg	stimuli_distractor_diamondtriangles.svg	8	yes	44	1	476
6.6.1	win	2022-12-14	18:00:58	18:08:25	446102	607778a26ff3de83125f50c5	681343051	1	main_z	11	advance_on_keypress_ZEE	8	stimuli_target_squarediamonds.svg	stimuli_distractor_diamondtriangles.svg	8	yes	57	0	447
6.6.1	win	2022-12-14	18:00:58	18:08:27	447630	607778a26ff3de83125f50c5	681343051	1	main_z	11	main_z	9	stimuli_target_trianglecircles.svg	stimuli_distractor_trianglediamonds.svg	17	yes	44	1	445
6.6.1	win	2022-12-14	18:00:58	18:08:27	447630	607778a26ff3de83125f50c5	681343051	1	main_z	11	advance_on_keypress_ZEE	10	stimuli_target_trianglecircles.svg	stimuli_distractor_trianglediamonds.svg	17	yes	57	0	392
6.6.1	win	2022-12-14	18:00:58	18:08:28	449087	607778a26ff3de83125f50c5	681343051	1	main_z	11	main_z	11	stimuli_target_trianglesquares.svg	stimuli_distractor_trianglediamonds.svg	18	yes	44	1	435
6.6.1	win	2022-12-14	18:00:58	18:08:28	449087	607778a26ff3de83125f50c5	681343051	1	main_z	11	advance_on_keypress_ZEE	12	stimuli_target_trianglesquares.svg	stimuli_distractor_trianglediamonds.svg	18	yes	57	0	347
6.6.1	win	2022-12-14	18:00:58	18:08:31	452066	607778a26ff3de83125f50c5	681343051	1	main_z	11	main_z	13	stimuli_distractor_trianglediamonds.svg	stimuli_distractor_trianglediamonds.svg	34	no	0	1	2000
6.6.1	win	2022-12-14	18:00:58	18:08:31	452066	607778a26ff3de83125f50c5	681343051	1	main_z	11	advance_on_keypress_ZEE	14	stimuli_distractor_trianglediamonds.svg	stimuli_distractor_trianglediamonds.svg	34	no	57	0	320
6.6.1	win	2022-12-14	18:00:58	18:08:33	453479	607778a26ff3de83125f50c5	681343051	1	main_z	11	main_z	15	stimuli_distractor_diamondtriangles.svg	stimuli_target_trianglecircles.svg	29	yes	44	1	454
6.6.1	win	2022-12-14	18:00:58	18:08:33	453479	607778a26ff3de83125f50c5	681343051	1	main_z	11	advance_on_keypress_ZEE	16	stimuli_distractor_diamondtriangles.svg	stimuli_target_trianglecircles.svg	29	yes	57	0	404
6.6.1	win	2022-12-14	18:00:58	18:08:36	456519	607778a26ff3de83125f50c5	681343051	1	main_z	11	main_z	17	stimuli_distractor_trianglediamonds.svg	stimuli_distractor_diamondtriangles.svg	35	no	0	1	2000
6.6.1	win	2022-12-14	18:00:58	18:08:36	456519	607778a26ff3de83125f50c5	681343051	1	main_z	11	advance_on_keypress_ZEE	18	stimuli_distractor_trianglediamonds.svg	stimuli_distractor_diamondtriangles.svg	35	no	57	0	316
6.6.1	win	2022-12-14	18:00:58	18:08:37	457912	607778a26ff3de83125f50c5	681343051	1	main_z	11	main_z	19	stimuli_target_squaretriangles.svg	stimuli_distractor_trianglediamonds.svg	3	yes	44	1	447
6.6.1	win	2022-12-14	18:00:58	18:08:37	457912	607778a26ff3de83125f50c5	681343051	1	main_z	11	advance_on_keypress_ZEE	20	stimuli_target_squaretriangles.svg	stimuli_distractor_trianglediamonds.svg	3	yes	57	0	346
6.6.1	win	2022-12-14	18:00:58	18:08:39	459344	607778a26ff3de83125f50c5	681343051	1	main_z	11	main_z	21	stimuli_distractor_trianglediamonds.svg	stimuli_target_squarediamonds.svg	12	yes	44	1	452
6.6.1	win	2022-12-14	18:00:58	18:08:39	459344	607778a26ff3de83125f50c5	681343051	1	main_z	11	advance_on_keypress_ZEE	22	stimuli_distractor_trianglediamonds.svg	stimuli_target_squarediamonds.svg	12	yes	57	0	297
6.6.1	win	2022-12-14	18:00:58	18:08:42	462279	607778a26ff3de83125f50c5	681343051	1	main_z	11	main_z	23	stimuli_distractor_diamondtriangles.svg	stimuli_distractor_diamondtriangles.svg	40	no	0	1	2000
6.6.1	win	2022-12-14	18:00:58	18:08:42	462279	607778a26ff3de83125f50c5	681343051	1	main_z	11	advance_on_keypress_ZEE	24	stimuli_distractor_diamondtriangles.svg	stimuli_distractor_diamondtriangles.svg	40	no	57	0	276
6.6.1	win	2022-12-14	18:00:58	18:08:44	465198	607778a26ff3de83125f50c5	681343051	1	main_z	11	main_z	25	stimuli_distractor_trianglediamonds.svg	stimuli_distractor_diamondtriangles.svg	36	no	0	1	2000
6.6.1	win	2022-12-14	18:00:58	18:08:44	465198	607778a26ff3de83125f50c5	681343051	1	main_z	11	advance_on_keypress_ZEE	26	stimuli_distractor_trianglediamonds.svg	stimuli_distractor_diamondtriangles.svg	36	no	57	0	293
6.6.1	win	2022-12-14	18:00:58	18:08:46	466577	607778a26ff3de83125f50c5	681343051	1	main_z	11	main_z	27	stimuli_target_circlediamonds.svg	stimuli_distractor_diamondtriangles.svg	6	yes	44	1	445
6.6.1	win	2022-12-14	18:00:58	18:08:46	466577	607778a26ff3de83125f50c5	681343051	1	main_z	11	advance_on_keypress_ZEE	28	stimuli_target_circlediamonds.svg	stimuli_distractor_diamondtriangles.svg	6	yes	57	0	320
6.6.1	win	2022-12-14	18:00:58	18:08:47	468017	607778a26ff3de83125f50c5	681343051	1	main_z	11	main_z	29	stimuli_distractor_trianglediamonds.svg	stimuli_target_trianglecircles.svg	25	yes	44	1	485
6.6.1	win	2022-12-14	18:00:58	18:08:47	468017	607778a26ff3de83125f50c5	681343051	1	main_z	11	advance_on_keypress_ZEE	30	stimuli_distractor_trianglediamonds.svg	stimuli_target_trianglecircles.svg	25	yes	57	0	288
6.6.1	win	2022-12-14	18:00:58	18:08:49	469617	607778a26ff3de83125f50c5	681343051	1	main_z	11	main_z	31	stimuli_distractor_diamondtriangles.svg	stimuli_target_circletriangles.svg	13	yes	44	1	686
6.6.1	win	2022-12-14	18:00:58	18:08:49	469617	607778a26ff3de83125f50c5	681343051	1	main_z	11	advance_on_keypress_ZEE	32	stimuli_distractor_diamondtriangles.svg	stimuli_target_circletriangles.svg	13	yes	57	0	672
6.6.1	win	2022-12-14	18:00:58	18:08:51	471449	607778a26ff3de83125f50c5	681343051	1	main_z	11	main_z	33	stimuli_distractor_trianglediamonds.svg	stimuli_target_circlediamonds.svg	10	yes	44	1	531
6.6.1	win	2022-12-14	18:00:58	18:08:51	471449	607778a26ff3de83125f50c5	681343051	1	main_z	11	advance_on_keypress_ZEE	34	stimuli_distractor_trianglediamonds.svg	stimuli_target_circlediamonds.svg	10	yes	57	0	376
6.6.1	win	2022-12-14	18:00:58	18:08:52	472954	607778a26ff3de83125f50c5	681343051	1	main_z	11	main_z	35	stimuli_distractor_diamondtriangles.svg	stimuli_target_trianglesquares.svg	30	yes	44	1	489
6.6.1	win	2022-12-14	18:00:58	18:08:52	472954	607778a26ff3de83125f50c5	681343051	1	main_z	11	advance_on_keypress_ZEE	36	stimuli_distractor_diamondtriangles.svg	stimuli_target_trianglesquares.svg	30	yes	57	0	284
6.6.1	win	2022-12-14	18:00:58	18:08:54	474618	607778a26ff3de83125f50c5	681343051	1	main_z	11	main_z	37	stimuli_target_diamondsquares.svg	stimuli_distractor_trianglediamonds.svg	20	yes	44	1	753
6.6.1	win	2022-12-14	18:00:58	18:08:54	474618	607778a26ff3de83125f50c5	681343051	1	main_z	11	advance_on_keypress_ZEE	38	stimuli_target_diamondsquares.svg	stimuli_distractor_trianglediamonds.svg	20	yes	57	0	305
6.6.1	win	2022-12-14	18:00:58	18:08:55	476051	607778a26ff3de83125f50c5	681343051	1	main_z	11	main_z	39	stimuli_distractor_diamondtriangles.svg	stimuli_target_diamondcircles.svg	31	yes	44	1	492
6.6.1	win	2022-12-14	18:00:58	18:08:55	476051	607778a26ff3de83125f50c5	681343051	1	main_z	11	advance_on_keypress_ZEE	40	stimuli_distractor_diamondtriangles.svg	stimuli_target_diamondcircles.svg	31	yes	57	0	441
6.6.1	win	2022-12-14	18:00:58	18:08:58	479131	607778a26ff3de83125f50c5	681343051	1	main_z	11	main_z	41	stimuli_distractor_trianglediamonds.svg	stimuli_distractor_trianglediamonds.svg	33	no	0	1	2000
6.6.1	win	2022-12-14	18:00:58	18:08:58	479131	607778a26ff3de83125f50c5	681343051	1	main_z	11	advance_on_keypress_ZEE	42	stimuli_distractor_trianglediamonds.svg	stimuli_distractor_trianglediamonds.svg	33	no	57	0	457
6.6.1	win	2022-12-14	18:00:58	18:09:00	480691	607778a26ff3de83125f50c5	681343051	1	main_z	11	main_z	43	stimuli_target_squarediamonds.svg	stimuli_distractor_trianglediamonds.svg	4	yes	44	1	467
6.6.1	win	2022-12-14	18:00:58	18:09:00	480691	607778a26ff3de83125f50c5	681343051	1	main_z	11	advance_on_keypress_ZEE	44	stimuli_target_squarediamonds.svg	stimuli_distractor_trianglediamonds.svg	4	yes	57	0	251
6.6.1	win	2022-12-14	18:00:58	18:09:01	482171	607778a26ff3de83125f50c5	681343051	1	main_z	11	main_z	45	stimuli_distractor_trianglediamonds.svg	stimuli_target_diamondsquares.svg	28	yes	44	1	586
6.6.1	win	2022-12-14	18:00:58	18:09:01	482171	607778a26ff3de83125f50c5	681343051	1	main_z	11	advance_on_keypress_ZEE	46	stimuli_distractor_trianglediamonds.svg	stimuli_target_diamondsquares.svg	28	yes	57	0	290
6.6.1	win	2022-12-14	18:00:58	18:09:03	483747	607778a26ff3de83125f50c5	681343051	1	main_z	11	main_z	47	stimuli_target_trianglecircles.svg	stimuli_distractor_diamondtriangles.svg	21	yes	44	1	642
6.6.1	win	2022-12-14	18:00:58	18:09:03	483747	607778a26ff3de83125f50c5	681343051	1	main_z	11	advance_on_keypress_ZEE	48	stimuli_target_trianglecircles.svg	stimuli_distractor_diamondtriangles.svg	21	yes	57	0	1453
6.6.1	win	2022-12-14	18:00:58	18:09:06	486339	607778a26ff3de83125f50c5	681343051	1	main_z	11	main_z	49	stimuli_distractor_diamondtriangles.svg	stimuli_target_squaretriangles.svg	15	yes	44	1	501
6.6.1	win	2022-12-14	18:00:58	18:09:06	486339	607778a26ff3de83125f50c5	681343051	1	main_z	11	advance_on_keypress_ZEE	50	stimuli_distractor_diamondtriangles.svg	stimuli_target_squaretriangles.svg	15	yes	57	0	363
6.6.1	win	2022-12-14	18:00:58	18:09:07	488043	607778a26ff3de83125f50c5	681343051	1	main_z	11	main_z	51	stimuli_target_diamondsquares.svg	stimuli_distractor_diamondtriangles.svg	24	yes	44	1	713
6.6.1	win	2022-12-14	18:00:58	18:09:07	488043	607778a26ff3de83125f50c5	681343051	1	main_z	11	advance_on_keypress_ZEE	52	stimuli_target_diamondsquares.svg	stimuli_distractor_diamondtriangles.svg	24	yes	57	0	280
6.6.1	win	2022-12-14	18:00:58	18:09:09	489491	607778a26ff3de83125f50c5	681343051	1	main_z	11	main_z	53	stimuli_distractor_trianglediamonds.svg	stimuli_target_circletriangles.svg	9	yes	44	1	535
6.6.1	win	2022-12-14	18:00:58	18:09:09	489491	607778a26ff3de83125f50c5	681343051	1	main_z	11	advance_on_keypress_ZEE	54	stimuli_distractor_trianglediamonds.svg	stimuli_target_circletriangles.svg	9	yes	57	0	244
6.6.1	win	2022-12-14	18:00:58	18:09:12	492371	607778a26ff3de83125f50c5	681343051	1	main_z	11	main_z	55	stimuli_distractor_diamondtriangles.svg	stimuli_distractor_diamondtriangles.svg	39	no	0	1	2000
6.6.1	win	2022-12-14	18:00:58	18:09:12	492371	607778a26ff3de83125f50c5	681343051	1	main_z	11	advance_on_keypress_ZEE	56	stimuli_distractor_diamondtriangles.svg	stimuli_distractor_diamondtriangles.svg	39	no	57	0	380
6.6.1	win	2022-12-14	18:00:58	18:09:15	495384	607778a26ff3de83125f50c5	681343051	1	main_z	11	main_z	57	stimuli_distractor_diamondtriangles.svg	stimuli_distractor_trianglediamonds.svg	37	no	0	1	2000
6.6.1	win	2022-12-14	18:00:58	18:09:15	495384	607778a26ff3de83125f50c5	681343051	1	main_z	11	advance_on_keypress_ZEE	58	stimuli_distractor_diamondtriangles.svg	stimuli_distractor_trianglediamonds.svg	37	no	57	0	311
6.6.1	win	2022-12-14	18:00:58	18:09:16	496719	607778a26ff3de83125f50c5	681343051	1	main_z	11	main_z	59	stimuli_target_squaretriangles.svg	stimuli_distractor_diamondtriangles.svg	7	yes	44	1	385
6.6.1	win	2022-12-14	18:00:58	18:09:16	496719	607778a26ff3de83125f50c5	681343051	1	main_z	11	advance_on_keypress_ZEE	60	stimuli_target_squaretriangles.svg	stimuli_distractor_diamondtriangles.svg	7	yes	57	0	281
6.6.1	win	2022-12-14	18:00:58	18:09:17	498052	607778a26ff3de83125f50c5	681343051	1	main_z	11	main_z	61	stimuli_target_circlediamonds.svg	stimuli_distractor_trianglediamonds.svg	2	yes	44	1	416
6.6.1	win	2022-12-14	18:00:58	18:09:17	498052	607778a26ff3de83125f50c5	681343051	1	main_z	11	advance_on_keypress_ZEE	62	stimuli_target_circlediamonds.svg	stimuli_distractor_trianglediamonds.svg	2	yes	57	0	237
6.6.1	win	2022-12-14	18:00:58	18:09:19	499381	607778a26ff3de83125f50c5	681343051	1	main_z	11	main_z	63	stimuli_distractor_trianglediamonds.svg	stimuli_target_squaretriangles.svg	11	yes	44	1	450
6.6.1	win	2022-12-14	18:00:58	18:09:19	499381	607778a26ff3de83125f50c5	681343051	1	main_z	11	advance_on_keypress_ZEE	64	stimuli_distractor_trianglediamonds.svg	stimuli_target_squaretriangles.svg	11	yes	57	0	224
6.6.1	win	2022-12-14	18:00:58	18:09:20	500677	607778a26ff3de83125f50c5	681343051	1	main_z	11	main_z	65	stimuli_distractor_diamondtriangles.svg	stimuli_target_squarediamonds.svg	16	yes	44	1	426
6.6.1	win	2022-12-14	18:00:58	18:09:20	500677	607778a26ff3de83125f50c5	681343051	1	main_z	11	advance_on_keypress_ZEE	66	stimuli_distractor_diamondtriangles.svg	stimuli_target_squarediamonds.svg	16	yes	57	0	243
6.6.1	win	2022-12-14	18:00:58	18:09:21	501989	607778a26ff3de83125f50c5	681343051	1	main_z	11	main_z	67	stimuli_distractor_trianglediamonds.svg	stimuli_target_trianglesquares.svg	26	yes	44	1	432
6.6.1	win	2022-12-14	18:00:58	18:09:21	501989	607778a26ff3de83125f50c5	681343051	1	main_z	11	advance_on_keypress_ZEE	68	stimuli_distractor_trianglediamonds.svg	stimuli_target_trianglesquares.svg	26	yes	57	0	216
6.6.1	win	2022-12-14	18:00:58	18:09:23	503397	607778a26ff3de83125f50c5	681343051	1	main_z	11	main_z	69	stimuli_target_diamondcircles.svg	stimuli_distractor_diamondtriangles.svg	23	yes	44	1	560
6.6.1	win	2022-12-14	18:00:58	18:09:23	503397	607778a26ff3de83125f50c5	681343051	1	main_z	11	advance_on_keypress_ZEE	70	stimuli_target_diamondcircles.svg	stimuli_distractor_diamondtriangles.svg	23	yes	57	0	227
6.6.1	win	2022-12-14	18:00:58	18:09:24	504717	607778a26ff3de83125f50c5	681343051	1	main_z	11	main_z	71	stimuli_distractor_trianglediamonds.svg	stimuli_target_diamondcircles.svg	27	yes	44	1	454
6.6.1	win	2022-12-14	18:00:58	18:09:24	504717	607778a26ff3de83125f50c5	681343051	1	main_z	11	advance_on_keypress_ZEE	72	stimuli_distractor_trianglediamonds.svg	stimuli_target_diamondcircles.svg	27	yes	57	0	211
6.6.1	win	2022-12-14	18:00:58	18:09:25	506101	607778a26ff3de83125f50c5	681343051	1	main_z	11	main_z	73	stimuli_target_diamondcircles.svg	stimuli_distractor_trianglediamonds.svg	19	yes	44	1	532
6.6.1	win	2022-12-14	18:00:58	18:09:25	506101	607778a26ff3de83125f50c5	681343051	1	main_z	11	advance_on_keypress_ZEE	74	stimuli_target_diamondcircles.svg	stimuli_distractor_trianglediamonds.svg	19	yes	57	0	209
6.6.1	win	2022-12-14	18:00:58	18:09:27	507518	607778a26ff3de83125f50c5	681343051	1	main_z	11	main_z	75	stimuli_target_circletriangles.svg	stimuli_distractor_trianglediamonds.svg	1	yes	44	1	574
6.6.1	win	2022-12-14	18:00:58	18:09:27	507518	607778a26ff3de83125f50c5	681343051	1	main_z	11	advance_on_keypress_ZEE	76	stimuli_target_circletriangles.svg	stimuli_distractor_trianglediamonds.svg	1	yes	57	0	204
6.6.1	win	2022-12-14	18:00:58	18:09:28	509222	607778a26ff3de83125f50c5	681343051	1	main_z	11	main_z	77	stimuli_target_circletriangles.svg	stimuli_distractor_diamondtriangles.svg	5	yes	44	1	865
6.6.1	win	2022-12-14	18:00:58	18:09:28	509222	607778a26ff3de83125f50c5	681343051	1	main_z	11	advance_on_keypress_ZEE	78	stimuli_target_circletriangles.svg	stimuli_distractor_diamondtriangles.svg	5	yes	57	0	201
6.6.1	win	2022-12-14	18:00:58	18:09:30	510486	607778a26ff3de83125f50c5	681343051	1	main_z	11	main_z	79	stimuli_distractor_diamondtriangles.svg	stimuli_target_circlediamonds.svg	14	yes	44	1	423
6.6.1	win	2022-12-14	18:00:58	18:09:30	510486	607778a26ff3de83125f50c5	681343051	1	main_z	11	advance_on_keypress_ZEE	80	stimuli_distractor_diamondtriangles.svg	stimuli_target_circlediamonds.svg	14	yes	57	0	220
6.6.1	win	2022-12-14	18:00:58	18:09:31	511790	607778a26ff3de83125f50c5	681343051	1	main_z	11	main_z	81	stimuli_distractor_diamondtriangles.svg	stimuli_target_squaretriangles.svg	15	yes	44	1	460
6.6.1	win	2022-12-14	18:00:58	18:09:31	511790	607778a26ff3de83125f50c5	681343051	1	main_z	11	advance_on_keypress_ZEE	82	stimuli_distractor_diamondtriangles.svg	stimuli_target_squaretriangles.svg	15	yes	57	0	201
6.6.1	win	2022-12-14	18:00:58	18:09:34	514623	607778a26ff3de83125f50c5	681343051	1	main_z	11	main_z	83	stimuli_target_diamondcircles.svg	stimuli_distractor_trianglediamonds.svg	19	yes	0	0	2000
6.6.1	win	2022-12-14	18:00:58	18:09:34	514623	607778a26ff3de83125f50c5	681343051	1	main_z	11	advance_on_keypress_ZEE	84	stimuli_target_diamondcircles.svg	stimuli_distractor_trianglediamonds.svg	19	yes	57	0	282
6.6.1	win	2022-12-14	18:00:58	18:09:35	515975	607778a26ff3de83125f50c5	681343051	1	main_z	11	main_z	85	stimuli_target_squarediamonds.svg	stimuli_distractor_trianglediamonds.svg	4	yes	44	1	432
6.6.1	win	2022-12-14	18:00:58	18:09:35	515975	607778a26ff3de83125f50c5	681343051	1	main_z	11	advance_on_keypress_ZEE	86	stimuli_target_squarediamonds.svg	stimuli_distractor_trianglediamonds.svg	4	yes	57	0	208
6.6.1	win	2022-12-14	18:00:58	18:09:36	517271	607778a26ff3de83125f50c5	681343051	1	main_z	11	main_z	87	stimuli_target_squaretriangles.svg	stimuli_distractor_trianglediamonds.svg	3	yes	44	1	461
6.6.1	win	2022-12-14	18:00:58	18:09:36	517271	607778a26ff3de83125f50c5	681343051	1	main_z	11	advance_on_keypress_ZEE	88	stimuli_target_squaretriangles.svg	stimuli_distractor_trianglediamonds.svg	3	yes	57	0	179
6.6.1	win	2022-12-14	18:00:58	18:09:38	518511	607778a26ff3de83125f50c5	681343051	1	main_z	11	main_z	89	stimuli_target_circletriangles.svg	stimuli_distractor_trianglediamonds.svg	1	yes	44	1	434
6.6.1	win	2022-12-14	18:00:58	18:09:38	518511	607778a26ff3de83125f50c5	681343051	1	main_z	11	advance_on_keypress_ZEE	90	stimuli_target_circletriangles.svg	stimuli_distractor_trianglediamonds.svg	1	yes	57	0	203
6.6.1	win	2022-12-14	18:00:58	18:09:39	519799	607778a26ff3de83125f50c5	681343051	1	main_z	11	main_z	91	stimuli_distractor_trianglediamonds.svg	stimuli_target_circlediamonds.svg	10	yes	44	1	456
6.6.1	win	2022-12-14	18:00:58	18:09:39	519799	607778a26ff3de83125f50c5	681343051	1	main_z	11	advance_on_keypress_ZEE	92	stimuli_distractor_trianglediamonds.svg	stimuli_target_circlediamonds.svg	10	yes	57	0	165
6.6.1	win	2022-12-14	18:00:58	18:09:40	521031	607778a26ff3de83125f50c5	681343051	1	main_z	11	main_z	93	stimuli_target_squarediamonds.svg	stimuli_distractor_diamondtriangles.svg	8	yes	44	1	434
6.6.1	win	2022-12-14	18:00:58	18:09:40	521031	607778a26ff3de83125f50c5	681343051	1	main_z	11	advance_on_keypress_ZEE	94	stimuli_target_squarediamonds.svg	stimuli_distractor_diamondtriangles.svg	8	yes	57	0	163
6.6.1	win	2022-12-14	18:00:58	18:09:41	522271	607778a26ff3de83125f50c5	681343051	1	main_z	11	main_z	95	stimuli_target_trianglecircles.svg	stimuli_distractor_diamondtriangles.svg	21	yes	44	1	449
6.6.1	win	2022-12-14	18:00:58	18:09:41	522271	607778a26ff3de83125f50c5	681343051	1	main_z	11	advance_on_keypress_ZEE	96	stimuli_target_trianglecircles.svg	stimuli_distractor_diamondtriangles.svg	21	yes	57	0	131
6.6.1	win	2022-12-14	18:00:58	18:09:43	523479	607778a26ff3de83125f50c5	681343051	1	main_z	11	main_z	97	stimuli_target_trianglesquares.svg	stimuli_distractor_trianglediamonds.svg	18	yes	44	1	444
6.6.1	win	2022-12-14	18:00:58	18:09:43	523479	607778a26ff3de83125f50c5	681343051	1	main_z	11	advance_on_keypress_ZEE	98	stimuli_target_trianglesquares.svg	stimuli_distractor_trianglediamonds.svg	18	yes	57	0	133
6.6.1	win	2022-12-14	18:00:58	18:09:44	524712	607778a26ff3de83125f50c5	681343051	1	main_z	11	main_z	99	stimuli_distractor_trianglediamonds.svg	stimuli_target_squarediamonds.svg	12	yes	44	1	462
6.6.1	win	2022-12-14	18:00:58	18:09:44	524712	607778a26ff3de83125f50c5	681343051	1	main_z	11	advance_on_keypress_ZEE	100	stimuli_distractor_trianglediamonds.svg	stimuli_target_squarediamonds.svg	12	yes	57	0	116
6.6.1	win	2022-12-14	18:00:58	18:09:45	525920	607778a26ff3de83125f50c5	681343051	1	main_z	11	main_z	101	stimuli_distractor_trianglediamonds.svg	stimuli_target_squaretriangles.svg	11	yes	44	1	470
6.6.1	win	2022-12-14	18:00:58	18:09:45	525920	607778a26ff3de83125f50c5	681343051	1	main_z	11	advance_on_keypress_ZEE	102	stimuli_distractor_trianglediamonds.svg	stimuli_target_squaretriangles.svg	11	yes	57	0	102
6.6.1	win	2022-12-14	18:00:58	18:09:48	528649	607778a26ff3de83125f50c5	681343051	1	main_z	11	main_z	103	stimuli_distractor_diamondtriangles.svg	stimuli_distractor_diamondtriangles.svg	39	no	0	1	2000
6.6.1	win	2022-12-14	18:00:58	18:09:48	528649	607778a26ff3de83125f50c5	681343051	1	main_z	11	advance_on_keypress_ZEE	104	stimuli_distractor_diamondtriangles.svg	stimuli_distractor_diamondtriangles.svg	39	no	57	0	329
6.6.1	win	2022-12-14	18:00:58	18:09:51	531609	607778a26ff3de83125f50c5	681343051	1	main_z	11	main_z	105	stimuli_distractor_diamondtriangles.svg	stimuli_distractor_trianglediamonds.svg	37	no	0	1	2000
6.6.1	win	2022-12-14	18:00:58	18:09:51	531609	607778a26ff3de83125f50c5	681343051	1	main_z	11	advance_on_keypress_ZEE	106	stimuli_distractor_diamondtriangles.svg	stimuli_distractor_trianglediamonds.svg	37	no	57	0	290
6.6.1	win	2022-12-14	18:00:58	18:09:52	532914	607778a26ff3de83125f50c5	681343051	1	main_z	11	main_z	107	stimuli_target_circlediamonds.svg	stimuli_distractor_diamondtriangles.svg	6	yes	44	1	376
6.6.1	win	2022-12-14	18:00:58	18:09:52	532914	607778a26ff3de83125f50c5	681343051	1	main_z	11	advance_on_keypress_ZEE	108	stimuli_target_circlediamonds.svg	stimuli_distractor_diamondtriangles.svg	6	yes	57	0	168
6.6.1	win	2022-12-14	18:00:58	18:09:55	535716	607778a26ff3de83125f50c5	681343051	1	main_z	11	main_z	109	stimuli_distractor_diamondtriangles.svg	stimuli_distractor_diamondtriangles.svg	40	no	0	1	2000
6.6.1	win	2022-12-14	18:00:58	18:09:55	535716	607778a26ff3de83125f50c5	681343051	1	main_z	11	advance_on_keypress_ZEE	110	stimuli_distractor_diamondtriangles.svg	stimuli_distractor_diamondtriangles.svg	40	no	57	0	264
6.6.1	win	2022-12-14	18:00:58	18:09:56	537073	607778a26ff3de83125f50c5	681343051	1	main_z	11	main_z	111	stimuli_target_diamondsquares.svg	stimuli_distractor_diamondtriangles.svg	24	yes	44	1	450
6.6.1	win	2022-12-14	18:00:58	18:09:56	537073	607778a26ff3de83125f50c5	681343051	1	main_z	11	advance_on_keypress_ZEE	112	stimuli_target_diamondsquares.svg	stimuli_distractor_diamondtriangles.svg	24	yes	57	0	176
6.6.1	win	2022-12-14	18:00:58	18:09:58	538411	607778a26ff3de83125f50c5	681343051	1	main_z	11	main_z	113	stimuli_distractor_diamondtriangles.svg	stimuli_target_diamondsquares.svg	32	yes	44	1	520
6.6.1	win	2022-12-14	18:00:58	18:09:58	538411	607778a26ff3de83125f50c5	681343051	1	main_z	11	advance_on_keypress_ZEE	114	stimuli_distractor_diamondtriangles.svg	stimuli_target_diamondsquares.svg	32	yes	57	0	131
6.6.1	win	2022-12-14	18:00:58	18:10:00	541182	607778a26ff3de83125f50c5	681343051	1	main_z	11	main_z	115	stimuli_distractor_diamondtriangles.svg	stimuli_distractor_trianglediamonds.svg	38	no	0	1	2000
6.6.1	win	2022-12-14	18:00:58	18:10:00	541182	607778a26ff3de83125f50c5	681343051	1	main_z	11	advance_on_keypress_ZEE	116	stimuli_distractor_diamondtriangles.svg	stimuli_distractor_trianglediamonds.svg	38	no	57	0	286
6.6.1	win	2022-12-14	18:00:58	18:10:02	542546	607778a26ff3de83125f50c5	681343051	1	main_z	11	main_z	117	stimuli_distractor_diamondtriangles.svg	stimuli_target_trianglesquares.svg	30	yes	44	1	444
6.6.1	win	2022-12-14	18:00:58	18:10:02	542546	607778a26ff3de83125f50c5	681343051	1	main_z	11	advance_on_keypress_ZEE	118	stimuli_distractor_diamondtriangles.svg	stimuli_target_trianglesquares.svg	30	yes	57	0	182
6.6.1	win	2022-12-14	18:00:58	18:10:03	543777	607778a26ff3de83125f50c5	681343051	1	main_z	11	main_z	119	stimuli_distractor_diamondtriangles.svg	stimuli_target_trianglecircles.svg	29	yes	44	1	422
6.6.1	win	2022-12-14	18:00:58	18:10:03	543777	607778a26ff3de83125f50c5	681343051	1	main_z	11	advance_on_keypress_ZEE	120	stimuli_distractor_diamondtriangles.svg	stimuli_target_trianglecircles.svg	29	yes	57	0	132
6.6.1	win	2022-12-14	18:00:58	18:10:04	545082	607778a26ff3de83125f50c5	681343051	1	main_z	11	main_z	121	stimuli_target_trianglecircles.svg	stimuli_distractor_trianglediamonds.svg	17	yes	44	1	540
6.6.1	win	2022-12-14	18:00:58	18:10:04	545082	607778a26ff3de83125f50c5	681343051	1	main_z	11	advance_on_keypress_ZEE	122	stimuli_target_trianglecircles.svg	stimuli_distractor_trianglediamonds.svg	17	yes	57	0	105
6.6.1	win	2022-12-14	18:00:58	18:10:06	546346	607778a26ff3de83125f50c5	681343051	1	main_z	11	main_z	123	stimuli_distractor_diamondtriangles.svg	stimuli_target_circlediamonds.svg	14	yes	44	1	524
6.6.1	win	2022-12-14	18:00:58	18:10:06	546346	607778a26ff3de83125f50c5	681343051	1	main_z	11	advance_on_keypress_ZEE	124	stimuli_distractor_diamondtriangles.svg	stimuli_target_circlediamonds.svg	14	yes	57	0	102
6.6.1	win	2022-12-14	18:00:58	18:10:07	547498	607778a26ff3de83125f50c5	681343051	1	main_z	11	main_z	125	stimuli_target_circletriangles.svg	stimuli_distractor_diamondtriangles.svg	5	yes	44	1	422
6.6.1	win	2022-12-14	18:00:58	18:10:07	547498	607778a26ff3de83125f50c5	681343051	1	main_z	11	advance_on_keypress_ZEE	126	stimuli_target_circletriangles.svg	stimuli_distractor_diamondtriangles.svg	5	yes	57	0	125
6.6.1	win	2022-12-14	18:00:58	18:10:09	550249	607778a26ff3de83125f50c5	681343051	1	main_z	11	main_z	127	stimuli_distractor_trianglediamonds.svg	stimuli_distractor_trianglediamonds.svg	34	no	0	1	2000
6.6.1	win	2022-12-14	18:00:58	18:10:09	550249	607778a26ff3de83125f50c5	681343051	1	main_z	11	advance_on_keypress_ZEE	128	stimuli_distractor_trianglediamonds.svg	stimuli_distractor_trianglediamonds.svg	34	no	57	0	309
6.6.1	win	2022-12-14	18:00:58	18:10:12	553195	607778a26ff3de83125f50c5	681343051	1	main_z	11	main_z	129	stimuli_distractor_trianglediamonds.svg	stimuli_distractor_diamondtriangles.svg	36	no	0	1	2000
6.6.1	win	2022-12-14	18:00:58	18:10:12	553195	607778a26ff3de83125f50c5	681343051	1	main_z	11	advance_on_keypress_ZEE	130	stimuli_distractor_trianglediamonds.svg	stimuli_distractor_diamondtriangles.svg	36	no	57	0	306
6.6.1	win	2022-12-14	18:00:58	18:10:14	554603	607778a26ff3de83125f50c5	681343051	1	main_z	11	main_z	131	stimuli_distractor_diamondtriangles.svg	stimuli_target_diamondcircles.svg	31	yes	44	1	461
6.6.1	win	2022-12-14	18:00:58	18:10:14	554603	607778a26ff3de83125f50c5	681343051	1	main_z	11	advance_on_keypress_ZEE	132	stimuli_distractor_diamondtriangles.svg	stimuli_target_diamondcircles.svg	31	yes	57	0	162
6.6.1	win	2022-12-14	18:00:58	18:10:15	555819	607778a26ff3de83125f50c5	681343051	1	main_z	11	main_z	133	stimuli_distractor_trianglediamonds.svg	stimuli_target_diamondcircles.svg	27	yes	44	1	424
6.6.1	win	2022-12-14	18:00:58	18:10:15	555819	607778a26ff3de83125f50c5	681343051	1	main_z	11	advance_on_keypress_ZEE	134	stimuli_distractor_trianglediamonds.svg	stimuli_target_diamondcircles.svg	27	yes	57	0	112
6.6.1	win	2022-12-14	18:00:58	18:10:16	556995	607778a26ff3de83125f50c5	681343051	1	main_z	11	main_z	135	stimuli_distractor_diamondtriangles.svg	stimuli_target_circletriangles.svg	13	yes	44	1	427
6.6.1	win	2022-12-14	18:00:58	18:10:16	556995	607778a26ff3de83125f50c5	681343051	1	main_z	11	advance_on_keypress_ZEE	136	stimuli_distractor_diamondtriangles.svg	stimuli_target_circletriangles.svg	13	yes	57	0	98
6.6.1	win	2022-12-14	18:00:58	18:10:18	558372	607778a26ff3de83125f50c5	681343051	1	main_z	11	main_z	137	stimuli_distractor_trianglediamonds.svg	stimuli_target_diamondsquares.svg	28	yes	44	1	644
6.6.1	win	2022-12-14	18:00:58	18:10:18	558372	607778a26ff3de83125f50c5	681343051	1	main_z	11	advance_on_keypress_ZEE	138	stimuli_distractor_trianglediamonds.svg	stimuli_target_diamondsquares.svg	28	yes	57	0	110
6.6.1	win	2022-12-14	18:00:58	18:10:20	561115	607778a26ff3de83125f50c5	681343051	1	main_z	11	main_z	139	stimuli_target_squaretriangles.svg	stimuli_distractor_diamondtriangles.svg	7	yes	0	0	2000
6.6.1	win	2022-12-14	18:00:58	18:10:20	561115	607778a26ff3de83125f50c5	681343051	1	main_z	11	advance_on_keypress_ZEE	140	stimuli_target_squaretriangles.svg	stimuli_distractor_diamondtriangles.svg	7	yes	57	0	316
6.6.1	win	2022-12-14	18:00:58	18:10:22	562492	607778a26ff3de83125f50c5	681343051	1	main_z	11	main_z	141	stimuli_target_trianglesquares.svg	stimuli_distractor_diamondtriangles.svg	22	yes	44	1	430
6.6.1	win	2022-12-14	18:00:58	18:10:22	562492	607778a26ff3de83125f50c5	681343051	1	main_z	11	advance_on_keypress_ZEE	142	stimuli_target_trianglesquares.svg	stimuli_distractor_diamondtriangles.svg	22	yes	57	0	119
6.6.1	win	2022-12-14	18:00:58	18:10:23	563692	607778a26ff3de83125f50c5	681343051	1	main_z	11	main_z	143	stimuli_distractor_diamondtriangles.svg	stimuli_target_squarediamonds.svg	16	yes	44	1	444
6.6.1	win	2022-12-14	18:00:58	18:10:23	563692	607778a26ff3de83125f50c5	681343051	1	main_z	11	advance_on_keypress_ZEE	144	stimuli_distractor_diamondtriangles.svg	stimuli_target_squarediamonds.svg	16	yes	57	0	86
6.6.1	win	2022-12-14	18:00:58	18:10:26	566408	607778a26ff3de83125f50c5	681343051	1	main_z	11	main_z	145	stimuli_distractor_trianglediamonds.svg	stimuli_distractor_diamondtriangles.svg	35	no	0	1	2000
6.6.1	win	2022-12-14	18:00:58	18:10:26	566408	607778a26ff3de83125f50c5	681343051	1	main_z	11	advance_on_keypress_ZEE	146	stimuli_distractor_trianglediamonds.svg	stimuli_distractor_diamondtriangles.svg	35	no	57	0	295
6.6.1	win	2022-12-14	18:00:58	18:10:27	567726	607778a26ff3de83125f50c5	681343051	1	main_z	11	main_z	147	stimuli_target_circlediamonds.svg	stimuli_distractor_trianglediamonds.svg	2	yes	44	1	376
6.6.1	win	2022-12-14	18:00:58	18:10:27	567726	607778a26ff3de83125f50c5	681343051	1	main_z	11	advance_on_keypress_ZEE	148	stimuli_target_circlediamonds.svg	stimuli_distractor_trianglediamonds.svg	2	yes	57	0	88
6.6.1	win	2022-12-14	18:00:58	18:10:28	569005	607778a26ff3de83125f50c5	681343051	1	main_z	11	main_z	149	stimuli_distractor_trianglediamonds.svg	stimuli_target_trianglecircles.svg	25	yes	44	1	557
6.6.1	win	2022-12-14	18:00:58	18:10:28	569005	607778a26ff3de83125f50c5	681343051	1	main_z	11	advance_on_keypress_ZEE	150	stimuli_distractor_trianglediamonds.svg	stimuli_target_trianglecircles.svg	25	yes	57	0	79
6.6.1	win	2022-12-14	18:00:58	18:10:29	570229	607778a26ff3de83125f50c5	681343051	1	main_z	11	main_z	151	stimuli_distractor_trianglediamonds.svg	stimuli_target_circletriangles.svg	9	yes	44	1	501
6.6.1	win	2022-12-14	18:00:58	18:10:29	570229	607778a26ff3de83125f50c5	681343051	1	main_z	11	advance_on_keypress_ZEE	152	stimuli_distractor_trianglediamonds.svg	stimuli_target_circletriangles.svg	9	yes	57	0	98
6.6.1	win	2022-12-14	18:00:58	18:10:32	572955	607778a26ff3de83125f50c5	681343051	1	main_z	11	main_z	153	stimuli_distractor_trianglediamonds.svg	stimuli_distractor_trianglediamonds.svg	33	no	0	1	2000
6.6.1	win	2022-12-14	18:00:58	18:10:32	572955	607778a26ff3de83125f50c5	681343051	1	main_z	11	advance_on_keypress_ZEE	154	stimuli_distractor_trianglediamonds.svg	stimuli_distractor_trianglediamonds.svg	33	no	57	0	317
6.6.1	win	2022-12-14	18:00:58	18:10:34	574365	607778a26ff3de83125f50c5	681343051	1	main_z	11	main_z	155	stimuli_target_diamondsquares.svg	stimuli_distractor_trianglediamonds.svg	20	yes	44	1	451
6.6.1	win	2022-12-14	18:00:58	18:10:34	574365	607778a26ff3de83125f50c5	681343051	1	main_z	11	advance_on_keypress_ZEE	156	stimuli_target_diamondsquares.svg	stimuli_distractor_trianglediamonds.svg	20	yes	57	0	113
6.6.1	win	2022-12-14	18:00:58	18:10:35	575573	607778a26ff3de83125f50c5	681343051	1	main_z	11	main_z	157	stimuli_distractor_trianglediamonds.svg	stimuli_target_trianglesquares.svg	26	yes	44	1	459
6.6.1	win	2022-12-14	18:00:58	18:10:35	575573	607778a26ff3de83125f50c5	681343051	1	main_z	11	advance_on_keypress_ZEE	158	stimuli_distractor_trianglediamonds.svg	stimuli_target_trianglesquares.svg	26	yes	57	0	129
6.6.1	win	2022-12-14	18:00:58	18:10:36	576822	607778a26ff3de83125f50c5	681343051	1	main_z	11	main_z	159	stimuli_target_diamondcircles.svg	stimuli_distractor_diamondtriangles.svg	23	yes	44	1	494
6.6.1	win	2022-12-14	18:00:58	18:10:36	576822	607778a26ff3de83125f50c5	681343051	1	main_z	11	advance_on_keypress_ZEE	160	stimuli_target_diamondcircles.svg	stimuli_distractor_diamondtriangles.svg	23	yes	57	0	131