build	computer.platform	date	time	timestamp	time_elapsed_ms	subject	group	session	blockcode	blocknum	trialcode	trialnum	stimulus_left	stimulus_right	stim_index	target_present	response	correct	latency
6.6.1	mac	2022-12-22	01:21:36	01:30:07	509913	6110c647b9773e91ce1854f4	833502617	1	practice_slash	5	practice_slash	1	stimuli_target_circlediamonds.svg	stimuli_distractor_trianglediamonds.svg	4	yes	53	1	533
6.6.1	mac	2022-12-22	01:21:36	01:30:07	509913	6110c647b9773e91ce1854f4	833502617	1	practice_slash	5	advance_on_keypress_SLASH	2	stimuli_target_circlediamonds.svg	stimuli_distractor_trianglediamonds.svg	4	yes	57	0	1887
6.6.1	mac	2022-12-22	01:21:36	01:30:11	513707	6110c647b9773e91ce1854f4	833502617	1	practice_slash	5	practice_slash	3	stimuli_distractor_trianglediamonds.svg	stimuli_target_diamondcircles.svg	12	yes	53	1	278
6.6.1	mac	2022-12-22	01:21:36	01:30:11	513707	6110c647b9773e91ce1854f4	833502617	1	practice_slash	5	advance_on_keypress_SLASH	4	stimuli_distractor_trianglediamonds.svg	stimuli_target_diamondcircles.svg	12	yes	57	0	1072
6.6.1	mac	2022-12-22	01:21:36	01:30:14	516684	6110c647b9773e91ce1854f4	833502617	1	practice_slash	5	practice_slash	5	stimuli_distractor_diamondtriangles.svg	stimuli_target_diamondcircles.svg	8	yes	53	1	287
6.6.1	mac	2022-12-22	01:21:36	01:30:14	516684	6110c647b9773e91ce1854f4	833502617	1	practice_slash	5	advance_on_keypress_SLASH	6	stimuli_distractor_diamondtriangles.svg	stimuli_target_diamondcircles.svg	8	yes	57	0	581
6.6.1	mac	2022-12-22	01:21:36	01:30:16	519338	6110c647b9773e91ce1854f4	833502617	1	practice_slash	5	practice_slash	7	stimuli_target_circlediamonds.svg	stimuli_distractor_diamondtriangles.svg	1	yes	53	1	441
6.6.1	mac	2022-12-22	01:21:36	01:30:16	519338	6110c647b9773e91ce1854f4	833502617	1	practice_slash	5	advance_on_keypress_SLASH	8	stimuli_target_circlediamonds.svg	stimuli_distractor_diamondtriangles.svg	1	yes	57	0	472
6.6.1	mac	2022-12-22	01:21:36	01:30:19	521690	6110c647b9773e91ce1854f4	833502617	1	practice_slash	5	practice_slash	9	stimuli_target_squarediamonds.svg	stimuli_distractor_diamondtriangles.svg	2	yes	53	1	261
6.6.1	mac	2022-12-22	01:21:36	01:30:19	521690	6110c647b9773e91ce1854f4	833502617	1	practice_slash	5	advance_on_keypress_SLASH	10	stimuli_target_squarediamonds.svg	stimuli_distractor_diamondtriangles.svg	2	yes	57	0	609
6.6.1	mac	2022-12-22	01:21:36	01:30:21	523975	6110c647b9773e91ce1854f4	833502617	1	practice_slash	5	practice_slash	11	stimuli_distractor_diamondtriangles.svg	stimuli_distractor_diamondtriangles.svg	13	no	53	0	62
6.6.1	mac	2022-12-22	01:21:36	01:30:21	523975	6110c647b9773e91ce1854f4	833502617	1	practice_slash	5	advance_on_keypress_SLASH	12	stimuli_distractor_diamondtriangles.svg	stimuli_distractor_diamondtriangles.svg	13	no	57	0	423
6.6.1	mac	2022-12-22	01:21:36	01:30:23	526569	6110c647b9773e91ce1854f4	833502617	1	practice_slash	5	practice_slash	13	stimuli_target_diamondsquares.svg	stimuli_distractor_diamondtriangles.svg	3	yes	53	1	556
6.6.1	mac	2022-12-22	01:21:36	01:30:23	526569	6110c647b9773e91ce1854f4	833502617	1	practice_slash	5	advance_on_keypress_SLASH	14	stimuli_target_diamondsquares.svg	stimuli_distractor_diamondtriangles.svg	3	yes	57	0	484
6.6.1	mac	2022-12-22	01:21:36	01:30:26	529217	6110c647b9773e91ce1854f4	833502617	1	practice_slash	5	practice_slash	15	stimuli_distractor_trianglediamonds.svg	stimuli_distractor_diamondtriangles.svg	16	no	53	0	537
6.6.1	mac	2022-12-22	01:21:36	01:30:26	529217	6110c647b9773e91ce1854f4	833502617	1	practice_slash	5	advance_on_keypress_SLASH	16	stimuli_distractor_trianglediamonds.svg	stimuli_distractor_diamondtriangles.svg	16	no	57	0	342
6.6.1	mac	2022-12-22	01:21:36	01:30:28	531635	6110c647b9773e91ce1854f4	833502617	1	practice_slash	5	practice_slash	17	stimuli_distractor_diamondtriangles.svg	stimuli_target_trianglecircles.svg	9	yes	53	1	456
6.6.1	mac	2022-12-22	01:21:36	01:30:28	531635	6110c647b9773e91ce1854f4	833502617	1	practice_slash	5	advance_on_keypress_SLASH	18	stimuli_distractor_diamondtriangles.svg	stimuli_target_trianglecircles.svg	9	yes	57	0	249
6.6.1	mac	2022-12-22	01:21:36	01:30:31	534136	6110c647b9773e91ce1854f4	833502617	1	practice_slash	5	practice_slash	19	stimuli_distractor_diamondtriangles.svg	stimuli_distractor_trianglediamonds.svg	14	no	53	0	623
6.6.1	mac	2022-12-22	01:21:36	01:30:31	534136	6110c647b9773e91ce1854f4	833502617	1	practice_slash	5	advance_on_keypress_SLASH	20	stimuli_distractor_diamondtriangles.svg	stimuli_distractor_trianglediamonds.svg	14	no	57	0	233
6.6.1	mac	2022-12-22	01:21:36	01:30:33	536618	6110c647b9773e91ce1854f4	833502617	1	practice_slash	5	practice_slash	21	stimuli_distractor_trianglediamonds.svg	stimuli_distractor_trianglediamonds.svg	15	no	53	0	621
6.6.1	mac	2022-12-22	01:21:36	01:30:33	536618	6110c647b9773e91ce1854f4	833502617	1	practice_slash	5	advance_on_keypress_SLASH	22	stimuli_distractor_trianglediamonds.svg	stimuli_distractor_trianglediamonds.svg	15	no	57	0	294
6.6.1	mac	2022-12-22	01:21:36	01:30:36	539620	6110c647b9773e91ce1854f4	833502617	1	practice_slash	5	practice_slash	23	stimuli_target_diamondsquares.svg	stimuli_distractor_trianglediamonds.svg	6	yes	53	1	1090
6.6.1	mac	2022-12-22	01:21:36	01:30:36	539620	6110c647b9773e91ce1854f4	833502617	1	practice_slash	5	advance_on_keypress_SLASH	24	stimuli_target_diamondsquares.svg	stimuli_distractor_trianglediamonds.svg	6	yes	57	0	387
6.6.1	mac	2022-12-22	01:21:36	01:30:40	543628	6110c647b9773e91ce1854f4	833502617	1	practice_slash	5	practice_slash	25	stimuli_distractor_trianglediamonds.svg	stimuli_target_squarediamonds.svg	11	yes	0	0	2000
6.6.1	mac	2022-12-22	01:21:36	01:30:40	543628	6110c647b9773e91ce1854f4	833502617	1	practice_slash	5	advance_on_keypress_SLASH	26	stimuli_distractor_trianglediamonds.svg	stimuli_target_squarediamonds.svg	11	yes	57	0	417
6.6.1	mac	2022-12-22	01:21:36	01:30:43	546341	6110c647b9773e91ce1854f4	833502617	1	practice_slash	5	practice_slash	27	stimuli_distractor_diamondtriangles.svg	stimuli_target_circletriangles.svg	7	yes	53	1	661
6.6.1	mac	2022-12-22	01:21:36	01:30:43	546341	6110c647b9773e91ce1854f4	833502617	1	practice_slash	5	advance_on_keypress_SLASH	28	stimuli_distractor_diamondtriangles.svg	stimuli_target_circletriangles.svg	7	yes	57	0	925
6.6.1	mac	2022-12-22	01:21:36	01:30:46	549555	6110c647b9773e91ce1854f4	833502617	1	practice_slash	5	practice_slash	29	stimuli_distractor_trianglediamonds.svg	stimuli_target_circlediamonds.svg	10	yes	53	1	676
6.6.1	mac	2022-12-22	01:21:36	01:30:46	549555	6110c647b9773e91ce1854f4	833502617	1	practice_slash	5	advance_on_keypress_SLASH	30	stimuli_distractor_trianglediamonds.svg	stimuli_target_circlediamonds.svg	10	yes	57	0	435
6.6.1	mac	2022-12-22	01:21:36	01:30:49	552558	6110c647b9773e91ce1854f4	833502617	1	practice_slash	5	practice_slash	31	stimuli_target_squarediamonds.svg	stimuli_distractor_trianglediamonds.svg	5	yes	53	1	945
6.6.1	mac	2022-12-22	01:21:36	01:30:49	552558	6110c647b9773e91ce1854f4	833502617	1	practice_slash	5	advance_on_keypress_SLASH	32	stimuli_target_squarediamonds.svg	stimuli_distractor_trianglediamonds.svg	5	yes	57	0	253
6.6.1	mac	2022-12-22	01:21:36	01:30:54	556787	6110c647b9773e91ce1854f4	833502617	1	main_slash	7	main_slash	1	stimuli_target_trianglecircles.svg	stimuli_distractor_diamondtriangles.svg	21	yes	53	1	908
6.6.1	mac	2022-12-22	01:21:36	01:30:54	556787	6110c647b9773e91ce1854f4	833502617	1	main_slash	7	advance_on_keypress_SLASH	2	stimuli_target_trianglecircles.svg	stimuli_distractor_diamondtriangles.svg	21	yes	57	0	1045
6.6.1	mac	2022-12-22	01:21:36	01:30:56	559274	6110c647b9773e91ce1854f4	833502617	1	main_slash	7	main_slash	3	stimuli_distractor_trianglediamonds.svg	stimuli_target_trianglecircles.svg	25	yes	53	1	829
6.6.1	mac	2022-12-22	01:21:36	01:30:56	559274	6110c647b9773e91ce1854f4	833502617	1	main_slash	7	advance_on_keypress_SLASH	4	stimuli_distractor_trianglediamonds.svg	stimuli_target_trianglecircles.svg	25	yes	57	0	914
6.6.1	mac	2022-12-22	01:21:36	01:31:00	562793	6110c647b9773e91ce1854f4	833502617	1	main_slash	7	main_slash	5	stimuli_distractor_trianglediamonds.svg	stimuli_distractor_diamondtriangles.svg	35	no	0	1	2000
6.6.1	mac	2022-12-22	01:21:36	01:31:00	562793	6110c647b9773e91ce1854f4	833502617	1	main_slash	7	advance_on_keypress_SLASH	6	stimuli_distractor_trianglediamonds.svg	stimuli_distractor_diamondtriangles.svg	35	no	57	0	679
6.6.1	mac	2022-12-22	01:21:36	01:31:02	565259	6110c647b9773e91ce1854f4	833502617	1	main_slash	7	main_slash	7	stimuli_distractor_diamondtriangles.svg	stimuli_target_diamondsquares.svg	32	yes	53	1	1148
6.6.1	mac	2022-12-22	01:21:36	01:31:02	565259	6110c647b9773e91ce1854f4	833502617	1	main_slash	7	advance_on_keypress_SLASH	8	stimuli_distractor_diamondtriangles.svg	stimuli_target_diamondsquares.svg	32	yes	57	0	522
6.6.1	mac	2022-12-22	01:21:36	01:31:04	567060	6110c647b9773e91ce1854f4	833502617	1	main_slash	7	main_slash	9	stimuli_distractor_diamondtriangles.svg	stimuli_target_circlediamonds.svg	14	yes	53	1	649
6.6.1	mac	2022-12-22	01:21:36	01:31:04	567060	6110c647b9773e91ce1854f4	833502617	1	main_slash	7	advance_on_keypress_SLASH	10	stimuli_distractor_diamondtriangles.svg	stimuli_target_circlediamonds.svg	14	yes	57	0	785
6.6.1	mac	2022-12-22	01:21:36	01:31:06	569013	6110c647b9773e91ce1854f4	833502617	1	main_slash	7	main_slash	11	stimuli_target_diamondcircles.svg	stimuli_distractor_diamondtriangles.svg	23	yes	53	1	534
6.6.1	mac	2022-12-22	01:21:36	01:31:06	569013	6110c647b9773e91ce1854f4	833502617	1	main_slash	7	advance_on_keypress_SLASH	12	stimuli_target_diamondcircles.svg	stimuli_distractor_diamondtriangles.svg	23	yes	57	0	553
6.6.1	mac	2022-12-22	01:21:36	01:31:08	570796	6110c647b9773e91ce1854f4	833502617	1	main_slash	7	main_slash	13	stimuli_distractor_diamondtriangles.svg	stimuli_distractor_diamondtriangles.svg	39	no	53	0	601
6.6.1	mac	2022-12-22	01:21:36	01:31:08	570796	6110c647b9773e91ce1854f4	833502617	1	main_slash	7	advance_on_keypress_SLASH	14	stimuli_distractor_diamondtriangles.svg	stimuli_distractor_diamondtriangles.svg	39	no	57	0	529
6.6.1	mac	2022-12-22	01:21:36	01:31:10	572821	6110c647b9773e91ce1854f4	833502617	1	main_slash	7	main_slash	15	stimuli_target_circletriangles.svg	stimuli_distractor_trianglediamonds.svg	1	yes	53	1	859
6.6.1	mac	2022-12-22	01:21:36	01:31:10	572821	6110c647b9773e91ce1854f4	833502617	1	main_slash	7	advance_on_keypress_SLASH	16	stimuli_target_circletriangles.svg	stimuli_distractor_trianglediamonds.svg	1	yes	57	0	557
6.6.1	mac	2022-12-22	01:21:36	01:31:12	574751	6110c647b9773e91ce1854f4	833502617	1	main_slash	7	main_slash	17	stimuli_distractor_diamondtriangles.svg	stimuli_target_circletriangles.svg	13	yes	53	1	757
6.6.1	mac	2022-12-22	01:21:36	01:31:12	574751	6110c647b9773e91ce1854f4	833502617	1	main_slash	7	advance_on_keypress_SLASH	18	stimuli_distractor_diamondtriangles.svg	stimuli_target_circletriangles.svg	13	yes	57	0	447
6.6.1	mac	2022-12-22	01:21:36	01:31:15	577827	6110c647b9773e91ce1854f4	833502617	1	main_slash	7	main_slash	19	stimuli_distractor_trianglediamonds.svg	stimuli_distractor_diamondtriangles.svg	36	no	0	1	2000
6.6.1	mac	2022-12-22	01:21:36	01:31:15	577827	6110c647b9773e91ce1854f4	833502617	1	main_slash	7	advance_on_keypress_SLASH	20	stimuli_distractor_trianglediamonds.svg	stimuli_distractor_diamondtriangles.svg	36	no	57	0	292
6.6.1	mac	2022-12-22	01:21:36	01:31:16	579387	6110c647b9773e91ce1854f4	833502617	1	main_slash	7	main_slash	21	stimuli_target_circletriangles.svg	stimuli_distractor_diamondtriangles.svg	5	yes	53	1	642
6.6.1	mac	2022-12-22	01:21:36	01:31:16	579387	6110c647b9773e91ce1854f4	833502617	1	main_slash	7	advance_on_keypress_SLASH	22	stimuli_target_circletriangles.svg	stimuli_distractor_diamondtriangles.svg	5	yes	57	0	710
6.6.1	mac	2022-12-22	01:21:36	01:31:19	581749	6110c647b9773e91ce1854f4	833502617	1	main_slash	7	main_slash	23	stimuli_distractor_trianglediamonds.svg	stimuli_target_diamondcircles.svg	27	yes	53	1	1038
6.6.1	mac	2022-12-22	01:21:36	01:31:19	581749	6110c647b9773e91ce1854f4	833502617	1	main_slash	7	advance_on_keypress_SLASH	24	stimuli_distractor_trianglediamonds.svg	stimuli_target_diamondcircles.svg	27	yes	57	0	832
6.6.1	mac	2022-12-22	01:21:36	01:31:21	583855	6110c647b9773e91ce1854f4	833502617	1	main_slash	7	main_slash	25	stimuli_distractor_trianglediamonds.svg	stimuli_distractor_trianglediamonds.svg	34	no	53	0	643
6.6.1	mac	2022-12-22	01:21:36	01:31:21	583855	6110c647b9773e91ce1854f4	833502617	1	main_slash	7	advance_on_keypress_SLASH	26	stimuli_distractor_trianglediamonds.svg	stimuli_distractor_trianglediamonds.svg	34	no	57	0	680
6.6.1	mac	2022-12-22	01:21:36	01:31:24	587160	6110c647b9773e91ce1854f4	833502617	1	main_slash	7	main_slash	27	stimuli_distractor_diamondtriangles.svg	stimuli_target_squarediamonds.svg	16	yes	0	0	2000
6.6.1	mac	2022-12-22	01:21:36	01:31:24	587160	6110c647b9773e91ce1854f4	833502617	1	main_slash	7	advance_on_keypress_SLASH	28	stimuli_distractor_diamondtriangles.svg	stimuli_target_squarediamonds.svg	16	yes	57	0	536
6.6.1	mac	2022-12-22	01:21:36	01:31:26	589383	6110c647b9773e91ce1854f4	833502617	1	main_slash	7	main_slash	29	stimuli_target_squarediamonds.svg	stimuli_distractor_diamondtriangles.svg	8	yes	53	1	1055
6.6.1	mac	2022-12-22	01:21:36	01:31:26	589383	6110c647b9773e91ce1854f4	833502617	1	main_slash	7	advance_on_keypress_SLASH	30	stimuli_target_squarediamonds.svg	stimuli_distractor_diamondtriangles.svg	8	yes	57	0	1400
6.6.1	mac	2022-12-22	01:21:36	01:31:29	592233	6110c647b9773e91ce1854f4	833502617	1	main_slash	7	main_slash	31	stimuli_target_diamondsquares.svg	stimuli_distractor_trianglediamonds.svg	20	yes	53	1	822
6.6.1	mac	2022-12-22	01:21:36	01:31:29	592233	6110c647b9773e91ce1854f4	833502617	1	main_slash	7	advance_on_keypress_SLASH	32	stimuli_target_diamondsquares.svg	stimuli_distractor_trianglediamonds.svg	20	yes	57	0	440
6.6.1	mac	2022-12-22	01:21:36	01:31:31	594048	6110c647b9773e91ce1854f4	833502617	1	main_slash	7	main_slash	33	stimuli_target_diamondcircles.svg	stimuli_distractor_trianglediamonds.svg	19	yes	53	1	754
6.6.1	mac	2022-12-22	01:21:36	01:31:31	594048	6110c647b9773e91ce1854f4	833502617	1	main_slash	7	advance_on_keypress_SLASH	34	stimuli_target_diamondcircles.svg	stimuli_distractor_trianglediamonds.svg	19	yes	57	0	459
6.6.1	mac	2022-12-22	01:21:36	01:31:34	597125	6110c647b9773e91ce1854f4	833502617	1	main_slash	7	main_slash	35	stimuli_distractor_trianglediamonds.svg	stimuli_distractor_trianglediamonds.svg	33	no	0	1	2000
6.6.1	mac	2022-12-22	01:21:36	01:31:34	597125	6110c647b9773e91ce1854f4	833502617	1	main_slash	7	advance_on_keypress_SLASH	36	stimuli_distractor_trianglediamonds.svg	stimuli_distractor_trianglediamonds.svg	33	no	57	0	848
6.6.1	mac	2022-12-22	01:21:36	01:31:36	599176	6110c647b9773e91ce1854f4	833502617	1	main_slash	7	main_slash	37	stimuli_distractor_trianglediamonds.svg	stimuli_target_squarediamonds.svg	12	yes	53	1	566
6.6.1	mac	2022-12-22	01:21:36	01:31:36	599176	6110c647b9773e91ce1854f4	833502617	1	main_slash	7	advance_on_keypress_SLASH	38	stimuli_distractor_trianglediamonds.svg	stimuli_target_squarediamonds.svg	12	yes	57	0	675
6.6.1	mac	2022-12-22	01:21:36	01:31:38	601411	6110c647b9773e91ce1854f4	833502617	1	main_slash	7	main_slash	39	stimuli_target_squarediamonds.svg	stimuli_distractor_trianglediamonds.svg	4	yes	53	1	934
6.6.1	mac	2022-12-22	01:21:36	01:31:38	601411	6110c647b9773e91ce1854f4	833502617	1	main_slash	7	advance_on_keypress_SLASH	40	stimuli_target_squarediamonds.svg	stimuli_distractor_trianglediamonds.svg	4	yes	57	0	597
6.6.1	mac	2022-12-22	01:21:36	01:31:40	603481	6110c647b9773e91ce1854f4	833502617	1	main_slash	7	main_slash	41	stimuli_target_circlediamonds.svg	stimuli_distractor_trianglediamonds.svg	2	yes	53	1	838
6.6.1	mac	2022-12-22	01:21:36	01:31:40	603481	6110c647b9773e91ce1854f4	833502617	1	main_slash	7	advance_on_keypress_SLASH	42	stimuli_target_circlediamonds.svg	stimuli_distractor_trianglediamonds.svg	2	yes	57	0	664
6.6.1	mac	2022-12-22	01:21:36	01:31:42	605518	6110c647b9773e91ce1854f4	833502617	1	main_slash	7	main_slash	43	stimuli_target_squaretriangles.svg	stimuli_distractor_diamondtriangles.svg	7	yes	53	1	742
6.6.1	mac	2022-12-22	01:21:36	01:31:42	605518	6110c647b9773e91ce1854f4	833502617	1	main_slash	7	advance_on_keypress_SLASH	44	stimuli_target_squaretriangles.svg	stimuli_distractor_diamondtriangles.svg	7	yes	57	0	510
6.6.1	mac	2022-12-22	01:21:36	01:31:44	607501	6110c647b9773e91ce1854f4	833502617	1	main_slash	7	main_slash	45	stimuli_distractor_trianglediamonds.svg	stimuli_target_circlediamonds.svg	10	yes	53	1	858
6.6.1	mac	2022-12-22	01:21:36	01:31:44	607501	6110c647b9773e91ce1854f4	833502617	1	main_slash	7	advance_on_keypress_SLASH	46	stimuli_distractor_trianglediamonds.svg	stimuli_target_circlediamonds.svg	10	yes	57	0	663
6.6.1	mac	2022-12-22	01:21:36	01:31:46	609411	6110c647b9773e91ce1854f4	833502617	1	main_slash	7	main_slash	47	stimuli_target_circlediamonds.svg	stimuli_distractor_diamondtriangles.svg	6	yes	53	1	635
6.6.1	mac	2022-12-22	01:21:36	01:31:46	609411	6110c647b9773e91ce1854f4	833502617	1	main_slash	7	advance_on_keypress_SLASH	48	stimuli_target_circlediamonds.svg	stimuli_distractor_diamondtriangles.svg	6	yes	57	0	586
6.6.1	mac	2022-12-22	01:21:36	01:31:48	611396	6110c647b9773e91ce1854f4	833502617	1	main_slash	7	main_slash	49	stimuli_target_diamondsquares.svg	stimuli_distractor_diamondtriangles.svg	24	yes	53	1	770
6.6.1	mac	2022-12-22	01:21:36	01:31:48	611396	6110c647b9773e91ce1854f4	833502617	1	main_slash	7	advance_on_keypress_SLASH	50	stimuli_target_diamondsquares.svg	stimuli_distractor_diamondtriangles.svg	24	yes	57	0	499
6.6.1	mac	2022-12-22	01:21:36	01:31:50	613519	6110c647b9773e91ce1854f4	833502617	1	main_slash	7	main_slash	51	stimuli_target_trianglesquares.svg	stimuli_distractor_diamondtriangles.svg	22	yes	53	1	993
6.6.1	mac	2022-12-22	01:21:36	01:31:50	613519	6110c647b9773e91ce1854f4	833502617	1	main_slash	7	advance_on_keypress_SLASH	52	stimuli_target_trianglesquares.svg	stimuli_distractor_diamondtriangles.svg	22	yes	57	0	537
6.6.1	mac	2022-12-22	01:21:36	01:31:52	615430	6110c647b9773e91ce1854f4	833502617	1	main_slash	7	main_slash	53	stimuli_distractor_trianglediamonds.svg	stimuli_target_squaretriangles.svg	11	yes	53	1	753
6.6.1	mac	2022-12-22	01:21:36	01:31:52	615430	6110c647b9773e91ce1854f4	833502617	1	main_slash	7	advance_on_keypress_SLASH	54	stimuli_distractor_trianglediamonds.svg	stimuli_target_squaretriangles.svg	11	yes	57	0	448
6.6.1	mac	2022-12-22	01:21:36	01:31:54	617335	6110c647b9773e91ce1854f4	833502617	1	main_slash	7	main_slash	55	stimuli_distractor_diamondtriangles.svg	stimuli_target_squaretriangles.svg	15	yes	53	1	824
6.6.1	mac	2022-12-22	01:21:36	01:31:54	617335	6110c647b9773e91ce1854f4	833502617	1	main_slash	7	advance_on_keypress_SLASH	56	stimuli_distractor_diamondtriangles.svg	stimuli_target_squaretriangles.svg	15	yes	57	0	630
6.6.1	mac	2022-12-22	01:21:36	01:31:56	619389	6110c647b9773e91ce1854f4	833502617	1	main_slash	7	main_slash	57	stimuli_target_trianglecircles.svg	stimuli_distractor_trianglediamonds.svg	17	yes	53	1	796
6.6.1	mac	2022-12-22	01:21:36	01:31:56	619389	6110c647b9773e91ce1854f4	833502617	1	main_slash	7	advance_on_keypress_SLASH	58	stimuli_target_trianglecircles.svg	stimuli_distractor_trianglediamonds.svg	17	yes	57	0	480
6.6.1	mac	2022-12-22	01:21:36	01:31:58	621359	6110c647b9773e91ce1854f4	833502617	1	main_slash	7	main_slash	59	stimuli_distractor_diamondtriangles.svg	stimuli_target_trianglecircles.svg	29	yes	53	1	850
6.6.1	mac	2022-12-22	01:21:36	01:31:58	621359	6110c647b9773e91ce1854f4	833502617	1	main_slash	7	advance_on_keypress_SLASH	60	stimuli_distractor_diamondtriangles.svg	stimuli_target_trianglecircles.svg	29	yes	57	0	498
6.6.1	mac	2022-12-22	01:21:36	01:32:00	623355	6110c647b9773e91ce1854f4	833502617	1	main_slash	7	main_slash	61	stimuli_distractor_trianglediamonds.svg	stimuli_target_circletriangles.svg	9	yes	53	1	862
6.6.1	mac	2022-12-22	01:21:36	01:32:00	623355	6110c647b9773e91ce1854f4	833502617	1	main_slash	7	advance_on_keypress_SLASH	62	stimuli_distractor_trianglediamonds.svg	stimuli_target_circletriangles.svg	9	yes	57	0	670
6.6.1	mac	2022-12-22	01:21:36	01:32:02	625347	6110c647b9773e91ce1854f4	833502617	1	main_slash	7	main_slash	63	stimuli_distractor_trianglediamonds.svg	stimuli_target_diamondsquares.svg	28	yes	53	1	704
6.6.1	mac	2022-12-22	01:21:36	01:32:02	625347	6110c647b9773e91ce1854f4	833502617	1	main_slash	7	advance_on_keypress_SLASH	64	stimuli_distractor_trianglediamonds.svg	stimuli_target_diamondsquares.svg	28	yes	57	0	2098
6.6.1	mac	2022-12-22	01:21:36	01:32:06	629220	6110c647b9773e91ce1854f4	833502617	1	main_slash	7	main_slash	65	stimuli_target_trianglesquares.svg	stimuli_distractor_trianglediamonds.svg	18	yes	53	1	1143
6.6.1	mac	2022-12-22	01:21:36	01:32:06	629220	6110c647b9773e91ce1854f4	833502617	1	main_slash	7	advance_on_keypress_SLASH	66	stimuli_target_trianglesquares.svg	stimuli_distractor_trianglediamonds.svg	18	yes	57	0	471
6.6.1	mac	2022-12-22	01:21:36	01:32:08	631139	6110c647b9773e91ce1854f4	833502617	1	main_slash	7	main_slash	67	stimuli_distractor_diamondtriangles.svg	stimuli_target_trianglesquares.svg	30	yes	53	1	829
6.6.1	mac	2022-12-22	01:21:36	01:32:08	631139	6110c647b9773e91ce1854f4	833502617	1	main_slash	7	advance_on_keypress_SLASH	68	stimuli_distractor_diamondtriangles.svg	stimuli_target_trianglesquares.svg	30	yes	57	0	509
6.6.1	mac	2022-12-22	01:21:36	01:32:11	634275	6110c647b9773e91ce1854f4	833502617	1	main_slash	7	main_slash	69	stimuli_distractor_diamondtriangles.svg	stimuli_distractor_diamondtriangles.svg	40	no	0	1	2000
6.6.1	mac	2022-12-22	01:21:36	01:32:11	634275	6110c647b9773e91ce1854f4	833502617	1	main_slash	7	advance_on_keypress_SLASH	70	stimuli_distractor_diamondtriangles.svg	stimuli_distractor_diamondtriangles.svg	40	no	57	0	231
6.6.1	mac	2022-12-22	01:21:36	01:32:13	635773	6110c647b9773e91ce1854f4	833502617	1	main_slash	7	main_slash	71	stimuli_distractor_diamondtriangles.svg	stimuli_target_diamondcircles.svg	31	yes	53	1	630
6.6.1	mac	2022-12-22	01:21:36	01:32:13	635773	6110c647b9773e91ce1854f4	833502617	1	main_slash	7	advance_on_keypress_SLASH	72	stimuli_distractor_diamondtriangles.svg	stimuli_target_diamondcircles.svg	31	yes	57	0	596
6.6.1	mac	2022-12-22	01:21:36	01:32:16	639007	6110c647b9773e91ce1854f4	833502617	1	main_slash	7	main_slash	73	stimuli_distractor_diamondtriangles.svg	stimuli_distractor_trianglediamonds.svg	38	no	0	1	2000
6.6.1	mac	2022-12-22	01:21:36	01:32:16	639007	6110c647b9773e91ce1854f4	833502617	1	main_slash	7	advance_on_keypress_SLASH	74	stimuli_distractor_diamondtriangles.svg	stimuli_distractor_trianglediamonds.svg	38	no	57	0	220
6.6.1	mac	2022-12-22	01:21:36	01:32:18	640715	6110c647b9773e91ce1854f4	833502617	1	main_slash	7	main_slash	75	stimuli_distractor_trianglediamonds.svg	stimuli_target_trianglesquares.svg	26	yes	53	1	856
6.6.1	mac	2022-12-22	01:21:36	01:32:18	640715	6110c647b9773e91ce1854f4	833502617	1	main_slash	7	advance_on_keypress_SLASH	76	stimuli_distractor_trianglediamonds.svg	stimuli_target_trianglesquares.svg	26	yes	57	0	398
6.6.1	mac	2022-12-22	01:21:36	01:32:19	642639	6110c647b9773e91ce1854f4	833502617	1	main_slash	7	main_slash	77	stimuli_target_squaretriangles.svg	stimuli_distractor_trianglediamonds.svg	3	yes	53	1	896
6.6.1	mac	2022-12-22	01:21:36	01:32:19	642639	6110c647b9773e91ce1854f4	833502617	1	main_slash	7	advance_on_keypress_SLASH	78	stimuli_target_squaretriangles.svg	stimuli_distractor_trianglediamonds.svg	3	yes	57	0	779
6.6.1	mac	2022-12-22	01:21:36	01:32:22	644822	6110c647b9773e91ce1854f4	833502617	1	main_slash	7	main_slash	79	stimuli_distractor_diamondtriangles.svg	stimuli_distractor_trianglediamonds.svg	37	no	53	0	762
6.6.1	mac	2022-12-22	01:21:36	01:32:22	644822	6110c647b9773e91ce1854f4	833502617	1	main_slash	7	advance_on_keypress_SLASH	80	stimuli_distractor_diamondtriangles.svg	stimuli_distractor_trianglediamonds.svg	37	no	57	0	477
6.6.1	mac	2022-12-22	01:21:36	01:32:24	646755	6110c647b9773e91ce1854f4	833502617	1	main_slash	7	main_slash	81	stimuli_distractor_trianglediamonds.svg	stimuli_target_circlediamonds.svg	10	yes	53	1	830
6.6.1	mac	2022-12-22	01:21:36	01:32:24	646755	6110c647b9773e91ce1854f4	833502617	1	main_slash	7	advance_on_keypress_SLASH	82	stimuli_distractor_trianglediamonds.svg	stimuli_target_circlediamonds.svg	10	yes	57	0	576
6.6.1	mac	2022-12-22	01:21:36	01:32:26	648692	6110c647b9773e91ce1854f4	833502617	1	main_slash	7	main_slash	83	stimuli_target_diamondcircles.svg	stimuli_distractor_diamondtriangles.svg	23	yes	53	1	733
6.6.1	mac	2022-12-22	01:21:36	01:32:26	648692	6110c647b9773e91ce1854f4	833502617	1	main_slash	7	advance_on_keypress_SLASH	84	stimuli_target_diamondcircles.svg	stimuli_distractor_diamondtriangles.svg	23	yes	57	0	710
6.6.1	mac	2022-12-22	01:21:36	01:32:28	650784	6110c647b9773e91ce1854f4	833502617	1	main_slash	7	main_slash	85	stimuli_distractor_trianglediamonds.svg	stimuli_target_circletriangles.svg	9	yes	53	1	759
6.6.1	mac	2022-12-22	01:21:36	01:32:28	650784	6110c647b9773e91ce1854f4	833502617	1	main_slash	7	advance_on_keypress_SLASH	86	stimuli_distractor_trianglediamonds.svg	stimuli_target_circletriangles.svg	9	yes	57	0	772
6.6.1	mac	2022-12-22	01:21:36	01:32:30	652985	6110c647b9773e91ce1854f4	833502617	1	main_slash	7	main_slash	87	stimuli_distractor_trianglediamonds.svg	stimuli_target_diamondcircles.svg	27	yes	53	1	809
6.6.1	mac	2022-12-22	01:21:36	01:32:30	652985	6110c647b9773e91ce1854f4	833502617	1	main_slash	7	advance_on_keypress_SLASH	88	stimuli_distractor_trianglediamonds.svg	stimuli_target_diamondcircles.svg	27	yes	57	0	414
6.6.1	mac	2022-12-22	01:21:36	01:32:32	654990	6110c647b9773e91ce1854f4	833502617	1	main_slash	7	main_slash	89	stimuli_distractor_trianglediamonds.svg	stimuli_target_diamondsquares.svg	28	yes	53	1	964
6.6.1	mac	2022-12-22	01:21:36	01:32:32	654990	6110c647b9773e91ce1854f4	833502617	1	main_slash	7	advance_on_keypress_SLASH	90	stimuli_distractor_trianglediamonds.svg	stimuli_target_diamondsquares.svg	28	yes	57	0	391
6.6.1	mac	2022-12-22	01:21:36	01:32:34	656679	6110c647b9773e91ce1854f4	833502617	1	main_slash	7	main_slash	91	stimuli_distractor_diamondtriangles.svg	stimuli_target_diamondsquares.svg	32	yes	53	1	670
6.6.1	mac	2022-12-22	01:21:36	01:32:34	656679	6110c647b9773e91ce1854f4	833502617	1	main_slash	7	advance_on_keypress_SLASH	92	stimuli_distractor_diamondtriangles.svg	stimuli_target_diamondsquares.svg	32	yes	57	0	376
6.6.1	mac	2022-12-22	01:21:36	01:32:35	658518	6110c647b9773e91ce1854f4	833502617	1	main_slash	7	main_slash	93	stimuli_target_circlediamonds.svg	stimuli_distractor_diamondtriangles.svg	6	yes	53	1	843
6.6.1	mac	2022-12-22	01:21:36	01:32:35	658518	6110c647b9773e91ce1854f4	833502617	1	main_slash	7	advance_on_keypress_SLASH	94	stimuli_target_circlediamonds.svg	stimuli_distractor_diamondtriangles.svg	6	yes	57	0	357
6.6.1	mac	2022-12-22	01:21:36	01:32:38	661490	6110c647b9773e91ce1854f4	833502617	1	main_slash	7	main_slash	95	stimuli_target_diamondsquares.svg	stimuli_distractor_diamondtriangles.svg	24	yes	0	0	2000
6.6.1	mac	2022-12-22	01:21:36	01:32:38	661490	6110c647b9773e91ce1854f4	833502617	1	main_slash	7	advance_on_keypress_SLASH	96	stimuli_target_diamondsquares.svg	stimuli_distractor_diamondtriangles.svg	24	yes	57	0	238
6.6.1	mac	2022-12-22	01:21:36	01:32:40	663200	6110c647b9773e91ce1854f4	833502617	1	main_slash	7	main_slash	97	stimuli_target_circletriangles.svg	stimuli_distractor_trianglediamonds.svg	1	yes	53	1	843
6.6.1	mac	2022-12-22	01:21:36	01:32:40	663200	6110c647b9773e91ce1854f4	833502617	1	main_slash	7	advance_on_keypress_SLASH	98	stimuli_target_circletriangles.svg	stimuli_distractor_trianglediamonds.svg	1	yes	57	0	466
6.6.1	mac	2022-12-22	01:21:36	01:32:42	665026	6110c647b9773e91ce1854f4	833502617	1	main_slash	7	main_slash	99	stimuli_target_trianglesquares.svg	stimuli_distractor_diamondtriangles.svg	22	yes	53	1	735
6.6.1	mac	2022-12-22	01:21:36	01:32:42	665026	6110c647b9773e91ce1854f4	833502617	1	main_slash	7	advance_on_keypress_SLASH	100	stimuli_target_trianglesquares.svg	stimuli_distractor_diamondtriangles.svg	22	yes	57	0	11837
6.6.1	mac	2022-12-22	01:21:36	01:32:56	678712	6110c647b9773e91ce1854f4	833502617	1	main_slash	7	main_slash	101	stimuli_target_trianglesquares.svg	stimuli_distractor_trianglediamonds.svg	18	yes	53	1	1220
6.6.1	mac	2022-12-22	01:21:36	01:32:56	678712	6110c647b9773e91ce1854f4	833502617	1	main_slash	7	advance_on_keypress_SLASH	102	stimuli_target_trianglesquares.svg	stimuli_distractor_trianglediamonds.svg	18	yes	57	0	2385
6.6.1	mac	2022-12-22	01:21:36	01:32:59	682448	6110c647b9773e91ce1854f4	833502617	1	main_slash	7	main_slash	103	stimuli_distractor_trianglediamonds.svg	stimuli_distractor_diamondtriangles.svg	36	no	53	0	724
6.6.1	mac	2022-12-22	01:21:36	01:32:59	682448	6110c647b9773e91ce1854f4	833502617	1	main_slash	7	advance_on_keypress_SLASH	104	stimuli_distractor_trianglediamonds.svg	stimuli_distractor_diamondtriangles.svg	36	no	57	0	7300
6.6.1	mac	2022-12-22	01:21:36	01:33:08	691473	6110c647b9773e91ce1854f4	833502617	1	main_slash	7	main_slash	105	stimuli_distractor_diamondtriangles.svg	stimuli_target_squarediamonds.svg	16	yes	53	1	1099
6.6.1	mac	2022-12-22	01:21:36	01:33:08	691473	6110c647b9773e91ce1854f4	833502617	1	main_slash	7	advance_on_keypress_SLASH	106	stimuli_distractor_diamondtriangles.svg	stimuli_target_squarediamonds.svg	16	yes	57	0	1465
6.6.1	mac	2022-12-22	01:21:36	01:33:11	694440	6110c647b9773e91ce1854f4	833502617	1	main_slash	7	main_slash	107	stimuli_distractor_diamondtriangles.svg	stimuli_target_diamondcircles.svg	31	yes	53	1	866
6.6.1	mac	2022-12-22	01:21:36	01:33:11	694440	6110c647b9773e91ce1854f4	833502617	1	main_slash	7	advance_on_keypress_SLASH	108	stimuli_distractor_diamondtriangles.svg	stimuli_target_diamondcircles.svg	31	yes	57	0	1129
6.6.1	mac	2022-12-22	01:21:36	01:33:14	697042	6110c647b9773e91ce1854f4	833502617	1	main_slash	7	main_slash	109	stimuli_distractor_diamondtriangles.svg	stimuli_target_circletriangles.svg	13	yes	53	1	835
6.6.1	mac	2022-12-22	01:21:36	01:33:14	697042	6110c647b9773e91ce1854f4	833502617	1	main_slash	7	advance_on_keypress_SLASH	110	stimuli_distractor_diamondtriangles.svg	stimuli_target_circletriangles.svg	13	yes	57	0	365
6.6.1	mac	2022-12-22	01:21:36	01:33:16	698798	6110c647b9773e91ce1854f4	833502617	1	main_slash	7	main_slash	111	stimuli_target_squarediamonds.svg	stimuli_distractor_trianglediamonds.svg	4	yes	53	1	757
6.6.1	mac	2022-12-22	01:21:36	01:33:16	698798	6110c647b9773e91ce1854f4	833502617	1	main_slash	7	advance_on_keypress_SLASH	112	stimuli_target_squarediamonds.svg	stimuli_distractor_trianglediamonds.svg	4	yes	57	0	1650
6.6.1	mac	2022-12-22	01:21:36	01:33:19	701892	6110c647b9773e91ce1854f4	833502617	1	main_slash	7	main_slash	113	stimuli_distractor_trianglediamonds.svg	stimuli_target_trianglesquares.svg	26	yes	53	1	818
6.6.1	mac	2022-12-22	01:21:36	01:33:19	701892	6110c647b9773e91ce1854f4	833502617	1	main_slash	7	advance_on_keypress_SLASH	114	stimuli_distractor_trianglediamonds.svg	stimuli_target_trianglesquares.svg	26	yes	57	0	436
6.6.1	mac	2022-12-22	01:21:36	01:33:21	703861	6110c647b9773e91ce1854f4	833502617	1	main_slash	7	main_slash	115	stimuli_target_circlediamonds.svg	stimuli_distractor_trianglediamonds.svg	2	yes	53	1	903
6.6.1	mac	2022-12-22	01:21:36	01:33:21	703861	6110c647b9773e91ce1854f4	833502617	1	main_slash	7	advance_on_keypress_SLASH	116	stimuli_target_circlediamonds.svg	stimuli_distractor_trianglediamonds.svg	2	yes	57	0	574
6.6.1	mac	2022-12-22	01:21:36	01:33:23	705888	6110c647b9773e91ce1854f4	833502617	1	main_slash	7	main_slash	117	stimuli_target_squaretriangles.svg	stimuli_distractor_diamondtriangles.svg	7	yes	53	1	831
6.6.1	mac	2022-12-22	01:21:36	01:33:23	705888	6110c647b9773e91ce1854f4	833502617	1	main_slash	7	advance_on_keypress_SLASH	118	stimuli_target_squaretriangles.svg	stimuli_distractor_diamondtriangles.svg	7	yes	57	0	403
6.6.1	mac	2022-12-22	01:21:36	01:33:25	707737	6110c647b9773e91ce1854f4	833502617	1	main_slash	7	main_slash	119	stimuli_distractor_trianglediamonds.svg	stimuli_target_squarediamonds.svg	12	yes	53	1	813
6.6.1	mac	2022-12-22	01:21:36	01:33:25	707737	6110c647b9773e91ce1854f4	833502617	1	main_slash	7	advance_on_keypress_SLASH	120	stimuli_distractor_trianglediamonds.svg	stimuli_target_squarediamonds.svg	12	yes	57	0	385
6.6.1	mac	2022-12-22	01:21:36	01:33:28	710756	6110c647b9773e91ce1854f4	833502617	1	main_slash	7	main_slash	121	stimuli_distractor_diamondtriangles.svg	stimuli_distractor_diamondtriangles.svg	39	no	0	1	2000
6.6.1	mac	2022-12-22	01:21:36	01:33:28	710756	6110c647b9773e91ce1854f4	833502617	1	main_slash	7	advance_on_keypress_SLASH	122	stimuli_distractor_diamondtriangles.svg	stimuli_distractor_diamondtriangles.svg	39	no	57	0	308
6.6.1	mac	2022-12-22	01:21:36	01:33:29	712591	6110c647b9773e91ce1854f4	833502617	1	main_slash	7	main_slash	123	stimuli_distractor_diamondtriangles.svg	stimuli_distractor_trianglediamonds.svg	38	no	53	0	901
6.6.1	mac	2022-12-22	01:21:36	01:33:29	712591	6110c647b9773e91ce1854f4	833502617	1	main_slash	7	advance_on_keypress_SLASH	124	stimuli_distractor_diamondtriangles.svg	stimuli_distractor_trianglediamonds.svg	38	no	57	0	436
6.6.1	mac	2022-12-22	01:21:36	01:33:31	714568	6110c647b9773e91ce1854f4	833502617	1	main_slash	7	main_slash	125	stimuli_target_trianglecircles.svg	stimuli_distractor_diamondtriangles.svg	21	yes	53	1	912
6.6.1	mac	2022-12-22	01:21:36	01:33:31	714568	6110c647b9773e91ce1854f4	833502617	1	main_slash	7	advance_on_keypress_SLASH	126	stimuli_target_trianglecircles.svg	stimuli_distractor_diamondtriangles.svg	21	yes	57	0	470
6.6.1	mac	2022-12-22	01:21:36	01:33:35	717655	6110c647b9773e91ce1854f4	833502617	1	main_slash	7	main_slash	127	stimuli_distractor_trianglediamonds.svg	stimuli_distractor_trianglediamonds.svg	34	no	0	1	2000
6.6.1	mac	2022-12-22	01:21:36	01:33:35	717655	6110c647b9773e91ce1854f4	833502617	1	main_slash	7	advance_on_keypress_SLASH	128	stimuli_distractor_trianglediamonds.svg	stimuli_distractor_trianglediamonds.svg	34	no	57	0	298
6.6.1	mac	2022-12-22	01:21:36	01:33:37	719658	6110c647b9773e91ce1854f4	833502617	1	main_slash	7	main_slash	129	stimuli_distractor_trianglediamonds.svg	stimuli_target_trianglecircles.svg	25	yes	53	1	1068
6.6.1	mac	2022-12-22	01:21:36	01:33:37	719658	6110c647b9773e91ce1854f4	833502617	1	main_slash	7	advance_on_keypress_SLASH	130	stimuli_distractor_trianglediamonds.svg	stimuli_target_trianglecircles.svg	25	yes	57	0	655
6.6.1	mac	2022-12-22	01:21:36	01:33:39	721653	6110c647b9773e91ce1854f4	833502617	1	main_slash	7	main_slash	131	stimuli_distractor_diamondtriangles.svg	stimuli_target_squaretriangles.svg	15	yes	53	1	713
6.6.1	mac	2022-12-22	01:21:36	01:33:39	721653	6110c647b9773e91ce1854f4	833502617	1	main_slash	7	advance_on_keypress_SLASH	132	stimuli_distractor_diamondtriangles.svg	stimuli_target_squaretriangles.svg	15	yes	57	0	566
6.6.1	mac	2022-12-22	01:21:36	01:33:40	723580	6110c647b9773e91ce1854f4	833502617	1	main_slash	7	main_slash	133	stimuli_target_trianglecircles.svg	stimuli_distractor_trianglediamonds.svg	17	yes	53	1	723
6.6.1	mac	2022-12-22	01:21:36	01:33:40	723580	6110c647b9773e91ce1854f4	833502617	1	main_slash	7	advance_on_keypress_SLASH	134	stimuli_target_trianglecircles.svg	stimuli_distractor_trianglediamonds.svg	17	yes	57	0	460
6.6.1	mac	2022-12-22	01:21:36	01:33:42	725446	6110c647b9773e91ce1854f4	833502617	1	main_slash	7	main_slash	135	stimuli_target_squaretriangles.svg	stimuli_distractor_trianglediamonds.svg	3	yes	53	1	789
6.6.1	mac	2022-12-22	01:21:36	01:33:42	725446	6110c647b9773e91ce1854f4	833502617	1	main_slash	7	advance_on_keypress_SLASH	136	stimuli_target_squaretriangles.svg	stimuli_distractor_trianglediamonds.svg	3	yes	57	0	410
6.6.1	mac	2022-12-22	01:21:36	01:33:44	727371	6110c647b9773e91ce1854f4	833502617	1	main_slash	7	main_slash	137	stimuli_distractor_diamondtriangles.svg	stimuli_target_trianglesquares.svg	30	yes	53	1	898
6.6.1	mac	2022-12-22	01:21:36	01:33:44	727371	6110c647b9773e91ce1854f4	833502617	1	main_slash	7	advance_on_keypress_SLASH	138	stimuli_distractor_diamondtriangles.svg	stimuli_target_trianglesquares.svg	30	yes	57	0	416
6.6.1	mac	2022-12-22	01:21:36	01:33:46	729335	6110c647b9773e91ce1854f4	833502617	1	main_slash	7	main_slash	139	stimuli_distractor_trianglediamonds.svg	stimuli_distractor_trianglediamonds.svg	33	no	53	0	912
6.6.1	mac	2022-12-22	01:21:36	01:33:46	729335	6110c647b9773e91ce1854f4	833502617	1	main_slash	7	advance_on_keypress_SLASH	140	stimuli_distractor_trianglediamonds.svg	stimuli_distractor_trianglediamonds.svg	33	no	57	0	647
6.6.1	mac	2022-12-22	01:21:36	01:33:48	731382	6110c647b9773e91ce1854f4	833502617	1	main_slash	7	main_slash	141	stimuli_distractor_trianglediamonds.svg	stimuli_target_squaretriangles.svg	11	yes	53	1	775
6.6.1	mac	2022-12-22	01:21:36	01:33:48	731382	6110c647b9773e91ce1854f4	833502617	1	main_slash	7	advance_on_keypress_SLASH	142	stimuli_distractor_trianglediamonds.svg	stimuli_target_squaretriangles.svg	11	yes	57	0	483
6.6.1	mac	2022-12-22	01:21:36	01:33:50	733422	6110c647b9773e91ce1854f4	833502617	1	main_slash	7	main_slash	143	stimuli_distractor_diamondtriangles.svg	stimuli_target_circlediamonds.svg	14	yes	53	1	932
6.6.1	mac	2022-12-22	01:21:36	01:33:50	733422	6110c647b9773e91ce1854f4	833502617	1	main_slash	7	advance_on_keypress_SLASH	144	stimuli_distractor_diamondtriangles.svg	stimuli_target_circlediamonds.svg	14	yes	57	0	2663
6.6.1	mac	2022-12-22	01:21:36	01:33:56	738721	6110c647b9773e91ce1854f4	833502617	1	main_slash	7	main_slash	145	stimuli_distractor_diamondtriangles.svg	stimuli_distractor_diamondtriangles.svg	40	no	0	1	2000
6.6.1	mac	2022-12-22	01:21:36	01:33:56	738721	6110c647b9773e91ce1854f4	833502617	1	main_slash	7	advance_on_keypress_SLASH	146	stimuli_distractor_diamondtriangles.svg	stimuli_distractor_diamondtriangles.svg	40	no	57	0	255
6.6.1	mac	2022-12-22	01:21:36	01:33:57	740346	6110c647b9773e91ce1854f4	833502617	1	main_slash	7	main_slash	147	stimuli_target_diamondcircles.svg	stimuli_distractor_trianglediamonds.svg	19	yes	53	1	741
6.6.1	mac	2022-12-22	01:21:36	01:33:57	740346	6110c647b9773e91ce1854f4	833502617	1	main_slash	7	advance_on_keypress_SLASH	148	stimuli_target_diamondcircles.svg	stimuli_distractor_trianglediamonds.svg	19	yes	57	0	559
6.6.1	mac	2022-12-22	01:21:36	01:34:00	742771	6110c647b9773e91ce1854f4	833502617	1	main_slash	7	main_slash	149	stimuli_distractor_trianglediamonds.svg	stimuli_distractor_diamondtriangles.svg	35	no	53	0	1248
6.6.1	mac	2022-12-22	01:21:36	01:34:00	742771	6110c647b9773e91ce1854f4	833502617	1	main_slash	7	advance_on_keypress_SLASH	150	stimuli_distractor_trianglediamonds.svg	stimuli_distractor_diamondtriangles.svg	35	no	57	0	363
6.6.1	mac	2022-12-22	01:21:36	01:34:02	744846	6110c647b9773e91ce1854f4	833502617	1	main_slash	7	main_slash	151	stimuli_distractor_diamondtriangles.svg	stimuli_target_trianglecircles.svg	29	yes	53	1	1073
6.6.1	mac	2022-12-22	01:21:36	01:34:02	744846	6110c647b9773e91ce1854f4	833502617	1	main_slash	7	advance_on_keypress_SLASH	152	stimuli_distractor_diamondtriangles.svg	stimuli_target_trianglecircles.svg	29	yes	57	0	575
6.6.1	mac	2022-12-22	01:21:36	01:34:04	747054	6110c647b9773e91ce1854f4	833502617	1	main_slash	7	main_slash	153	stimuli_target_squarediamonds.svg	stimuli_distractor_diamondtriangles.svg	8	yes	53	1	1015
6.6.1	mac	2022-12-22	01:21:36	01:34:04	747054	6110c647b9773e91ce1854f4	833502617	1	main_slash	7	advance_on_keypress_SLASH	154	stimuli_target_squarediamonds.svg	stimuli_distractor_diamondtriangles.svg	8	yes	57	0	388
6.6.1	mac	2022-12-22	01:21:36	01:34:06	748931	6110c647b9773e91ce1854f4	833502617	1	main_slash	7	main_slash	155	stimuli_target_diamondsquares.svg	stimuli_distractor_trianglediamonds.svg	20	yes	53	1	858
6.6.1	mac	2022-12-22	01:21:36	01:34:06	748931	6110c647b9773e91ce1854f4	833502617	1	main_slash	7	advance_on_keypress_SLASH	156	stimuli_target_diamondsquares.svg	stimuli_distractor_trianglediamonds.svg	20	yes	57	0	375
6.6.1	mac	2022-12-22	01:21:36	01:34:08	750885	6110c647b9773e91ce1854f4	833502617	1	main_slash	7	main_slash	157	stimuli_distractor_diamondtriangles.svg	stimuli_distractor_trianglediamonds.svg	37	no	53	0	963
6.6.1	mac	2022-12-22	01:21:36	01:34:08	750885	6110c647b9773e91ce1854f4	833502617	1	main_slash	7	advance_on_keypress_SLASH	158	stimuli_distractor_diamondtriangles.svg	stimuli_distractor_trianglediamonds.svg	37	no	57	0	372
6.6.1	mac	2022-12-22	01:21:36	01:34:09	752337	6110c647b9773e91ce1854f4	833502617	1	main_slash	7	main_slash	159	stimuli_target_circletriangles.svg	stimuli_distractor_diamondtriangles.svg	5	yes	53	1	449
6.6.1	mac	2022-12-22	01:21:36	01:34:09	752337	6110c647b9773e91ce1854f4	833502617	1	main_slash	7	advance_on_keypress_SLASH	160	stimuli_target_circletriangles.svg	stimuli_distractor_diamondtriangles.svg	5	yes	57	0	422
6.6.1	mac	2022-12-22	01:21:36	01:36:37	900203	6110c647b9773e91ce1854f4	833502617	1	practice_z	9	practice_z	1	stimuli_target_squarediamonds.svg	stimuli_distractor_diamondtriangles.svg	2	yes	44	1	419
6.6.1	mac	2022-12-22	01:21:36	01:36:37	900203	6110c647b9773e91ce1854f4	833502617	1	practice_z	9	advance_on_keypress_ZEE	2	stimuli_target_squarediamonds.svg	stimuli_distractor_diamondtriangles.svg	2	yes	57	0	601
6.6.1	mac	2022-12-22	01:21:36	01:36:40	902677	6110c647b9773e91ce1854f4	833502617	1	practice_z	9	practice_z	3	stimuli_distractor_diamondtriangles.svg	stimuli_target_diamondcircles.svg	8	yes	44	1	243
6.6.1	mac	2022-12-22	01:21:36	01:36:40	902677	6110c647b9773e91ce1854f4	833502617	1	practice_z	9	advance_on_keypress_ZEE	4	stimuli_distractor_diamondtriangles.svg	stimuli_target_diamondcircles.svg	8	yes	57	0	299
6.6.1	mac	2022-12-22	01:21:36	01:36:42	904869	6110c647b9773e91ce1854f4	833502617	1	practice_z	9	practice_z	5	stimuli_distractor_diamondtriangles.svg	stimuli_target_circletriangles.svg	7	yes	44	1	269
6.6.1	mac	2022-12-22	01:21:36	01:36:42	904869	6110c647b9773e91ce1854f4	833502617	1	practice_z	9	advance_on_keypress_ZEE	6	stimuli_distractor_diamondtriangles.svg	stimuli_target_circletriangles.svg	7	yes	57	0	48
6.6.1	mac	2022-12-22	01:21:36	01:36:44	906796	6110c647b9773e91ce1854f4	833502617	1	practice_z	9	practice_z	7	stimuli_distractor_trianglediamonds.svg	stimuli_distractor_diamondtriangles.svg	16	no	44	0	245
6.6.1	mac	2022-12-22	01:21:36	01:36:44	906796	6110c647b9773e91ce1854f4	833502617	1	practice_z	9	advance_on_keypress_ZEE	8	stimuli_distractor_trianglediamonds.svg	stimuli_distractor_diamondtriangles.svg	16	no	57	0	293
6.6.1	mac	2022-12-22	01:21:36	01:36:46	908958	6110c647b9773e91ce1854f4	833502617	1	practice_z	9	practice_z	9	stimuli_distractor_trianglediamonds.svg	stimuli_distractor_trianglediamonds.svg	15	no	44	0	257
6.6.1	mac	2022-12-22	01:21:36	01:36:46	908958	6110c647b9773e91ce1854f4	833502617	1	practice_z	9	advance_on_keypress_ZEE	10	stimuli_distractor_trianglediamonds.svg	stimuli_distractor_trianglediamonds.svg	15	no	57	0	373
6.6.1	mac	2022-12-22	01:21:36	01:36:48	911476	6110c647b9773e91ce1854f4	833502617	1	practice_z	9	practice_z	11	stimuli_distractor_trianglediamonds.svg	stimuli_target_diamondcircles.svg	12	yes	44	1	526
6.6.1	mac	2022-12-22	01:21:36	01:36:48	911476	6110c647b9773e91ce1854f4	833502617	1	practice_z	9	advance_on_keypress_ZEE	12	stimuli_distractor_trianglediamonds.svg	stimuli_target_diamondcircles.svg	12	yes	57	0	373
6.6.1	mac	2022-12-22	01:21:36	01:36:51	913892	6110c647b9773e91ce1854f4	833502617	1	practice_z	9	practice_z	13	stimuli_target_circlediamonds.svg	stimuli_distractor_diamondtriangles.svg	1	yes	44	1	425
6.6.1	mac	2022-12-22	01:21:36	01:36:51	913892	6110c647b9773e91ce1854f4	833502617	1	practice_z	9	advance_on_keypress_ZEE	14	stimuli_target_circlediamonds.svg	stimuli_distractor_diamondtriangles.svg	1	yes	57	0	472
6.6.1	mac	2022-12-22	01:21:36	01:36:53	916480	6110c647b9773e91ce1854f4	833502617	1	practice_z	9	practice_z	15	stimuli_target_circlediamonds.svg	stimuli_distractor_trianglediamonds.svg	4	yes	44	1	496
6.6.1	mac	2022-12-22	01:21:36	01:36:53	916480	6110c647b9773e91ce1854f4	833502617	1	practice_z	9	advance_on_keypress_ZEE	16	stimuli_target_circlediamonds.svg	stimuli_distractor_trianglediamonds.svg	4	yes	57	0	304
6.6.1	mac	2022-12-22	01:21:36	01:36:57	920415	6110c647b9773e91ce1854f4	833502617	1	practice_z	9	practice_z	17	stimuli_distractor_diamondtriangles.svg	stimuli_distractor_diamondtriangles.svg	13	no	0	1	2000
6.6.1	mac	2022-12-22	01:21:36	01:36:57	920415	6110c647b9773e91ce1854f4	833502617	1	practice_z	9	advance_on_keypress_ZEE	18	stimuli_distractor_diamondtriangles.svg	stimuli_distractor_diamondtriangles.svg	13	no	57	0	256
6.6.1	mac	2022-12-22	01:21:36	01:37:00	923014	6110c647b9773e91ce1854f4	833502617	1	practice_z	9	practice_z	19	stimuli_target_squarediamonds.svg	stimuli_distractor_trianglediamonds.svg	5	yes	44	1	715
6.6.1	mac	2022-12-22	01:21:36	01:37:00	923014	6110c647b9773e91ce1854f4	833502617	1	practice_z	9	advance_on_keypress_ZEE	20	stimuli_target_squarediamonds.svg	stimuli_distractor_trianglediamonds.svg	5	yes	57	0	365
6.6.1	mac	2022-12-22	01:21:36	01:37:03	925865	6110c647b9773e91ce1854f4	833502617	1	practice_z	9	practice_z	21	stimuli_distractor_diamondtriangles.svg	stimuli_distractor_trianglediamonds.svg	14	no	44	0	848
6.6.1	mac	2022-12-22	01:21:36	01:37:03	925865	6110c647b9773e91ce1854f4	833502617	1	practice_z	9	advance_on_keypress_ZEE	22	stimuli_distractor_diamondtriangles.svg	stimuli_distractor_trianglediamonds.svg	14	no	57	0	370
6.6.1	mac	2022-12-22	01:21:36	01:37:06	928669	6110c647b9773e91ce1854f4	833502617	1	practice_z	9	practice_z	23	stimuli_target_diamondsquares.svg	stimuli_distractor_diamondtriangles.svg	3	yes	44	1	802
6.6.1	mac	2022-12-22	01:21:36	01:37:06	928669	6110c647b9773e91ce1854f4	833502617	1	practice_z	9	advance_on_keypress_ZEE	24	stimuli_target_diamondsquares.svg	stimuli_distractor_diamondtriangles.svg	3	yes	57	0	44
6.6.1	mac	2022-12-22	01:21:36	01:37:08	930773	6110c647b9773e91ce1854f4	833502617	1	practice_z	9	practice_z	25	stimuli_distractor_trianglediamonds.svg	stimuli_target_circlediamonds.svg	10	yes	44	1	441
6.6.1	mac	2022-12-22	01:21:36	01:37:08	930773	6110c647b9773e91ce1854f4	833502617	1	practice_z	9	advance_on_keypress_ZEE	26	stimuli_distractor_trianglediamonds.svg	stimuli_target_circlediamonds.svg	10	yes	57	0	407
6.6.1	mac	2022-12-22	01:21:36	01:37:12	934797	6110c647b9773e91ce1854f4	833502617	1	practice_z	9	practice_z	27	stimuli_target_diamondsquares.svg	stimuli_distractor_trianglediamonds.svg	6	yes	0	0	2000
6.6.1	mac	2022-12-22	01:21:36	01:37:12	934797	6110c647b9773e91ce1854f4	833502617	1	practice_z	9	advance_on_keypress_ZEE	28	stimuli_target_diamondsquares.svg	stimuli_distractor_trianglediamonds.svg	6	yes	57	0	4299
6.6.1	mac	2022-12-22	01:21:36	01:37:18	941152	6110c647b9773e91ce1854f4	833502617	1	practice_z	9	practice_z	29	stimuli_distractor_diamondtriangles.svg	stimuli_target_trianglecircles.svg	9	yes	44	1	419
6.6.1	mac	2022-12-22	01:21:36	01:37:18	941152	6110c647b9773e91ce1854f4	833502617	1	practice_z	9	advance_on_keypress_ZEE	30	stimuli_distractor_diamondtriangles.svg	stimuli_target_trianglecircles.svg	9	yes	57	0	12741
6.6.1	mac	2022-12-22	01:21:36	01:37:33	955937	6110c647b9773e91ce1854f4	833502617	1	practice_z	9	practice_z	31	stimuli_distractor_trianglediamonds.svg	stimuli_target_squarediamonds.svg	11	yes	44	1	423
6.6.1	mac	2022-12-22	01:21:36	01:37:33	955937	6110c647b9773e91ce1854f4	833502617	1	practice_z	9	advance_on_keypress_ZEE	32	stimuli_distractor_trianglediamonds.svg	stimuli_target_squarediamonds.svg	11	yes	57	0	524
6.6.1	mac	2022-12-22	01:21:36	01:37:37	960415	6110c647b9773e91ce1854f4	833502617	1	main_z	11	main_z	1	stimuli_target_squaretriangles.svg	stimuli_distractor_trianglediamonds.svg	3	yes	44	1	551
6.6.1	mac	2022-12-22	01:21:36	01:37:37	960415	6110c647b9773e91ce1854f4	833502617	1	main_z	11	advance_on_keypress_ZEE	2	stimuli_target_squaretriangles.svg	stimuli_distractor_trianglediamonds.svg	3	yes	57	0	1365
6.6.1	mac	2022-12-22	01:21:36	01:37:40	962883	6110c647b9773e91ce1854f4	833502617	1	main_z	11	main_z	3	stimuli_distractor_diamondtriangles.svg	stimuli_target_trianglesquares.svg	30	yes	44	1	469
6.6.1	mac	2022-12-22	01:21:36	01:37:40	962883	6110c647b9773e91ce1854f4	833502617	1	main_z	11	advance_on_keypress_ZEE	4	stimuli_distractor_diamondtriangles.svg	stimuli_target_trianglesquares.svg	30	yes	57	0	618
6.6.1	mac	2022-12-22	01:21:36	01:37:42	964704	6110c647b9773e91ce1854f4	833502617	1	main_z	11	main_z	5	stimuli_distractor_trianglediamonds.svg	stimuli_target_diamondcircles.svg	27	yes	44	1	573
6.6.1	mac	2022-12-22	01:21:36	01:37:42	964704	6110c647b9773e91ce1854f4	833502617	1	main_z	11	advance_on_keypress_ZEE	6	stimuli_distractor_trianglediamonds.svg	stimuli_target_diamondcircles.svg	27	yes	57	0	338
6.6.1	mac	2022-12-22	01:21:36	01:37:43	966289	6110c647b9773e91ce1854f4	833502617	1	main_z	11	main_z	7	stimuli_target_squarediamonds.svg	stimuli_distractor_diamondtriangles.svg	8	yes	44	1	608
6.6.1	mac	2022-12-22	01:21:36	01:37:43	966289	6110c647b9773e91ce1854f4	833502617	1	main_z	11	advance_on_keypress_ZEE	8	stimuli_target_squarediamonds.svg	stimuli_distractor_diamondtriangles.svg	8	yes	57	0	249
6.6.1	mac	2022-12-22	01:21:36	01:37:45	967864	6110c647b9773e91ce1854f4	833502617	1	main_z	11	main_z	9	stimuli_distractor_trianglediamonds.svg	stimuli_target_squaretriangles.svg	11	yes	44	1	698
6.6.1	mac	2022-12-22	01:21:36	01:37:45	967864	6110c647b9773e91ce1854f4	833502617	1	main_z	11	advance_on_keypress_ZEE	10	stimuli_distractor_trianglediamonds.svg	stimuli_target_squaretriangles.svg	11	yes	57	0	402
6.6.1	mac	2022-12-22	01:21:36	01:37:46	969515	6110c647b9773e91ce1854f4	833502617	1	main_z	11	main_z	11	stimuli_distractor_trianglediamonds.svg	stimuli_target_trianglecircles.svg	25	yes	44	1	616
6.6.1	mac	2022-12-22	01:21:36	01:37:46	969515	6110c647b9773e91ce1854f4	833502617	1	main_z	11	advance_on_keypress_ZEE	12	stimuli_distractor_trianglediamonds.svg	stimuli_target_trianglecircles.svg	25	yes	57	0	273
6.6.1	mac	2022-12-22	01:21:36	01:37:48	970934	6110c647b9773e91ce1854f4	833502617	1	main_z	11	main_z	13	stimuli_target_circletriangles.svg	stimuli_distractor_trianglediamonds.svg	1	yes	44	1	519
6.6.1	mac	2022-12-22	01:21:36	01:37:48	970934	6110c647b9773e91ce1854f4	833502617	1	main_z	11	advance_on_keypress_ZEE	14	stimuli_target_circletriangles.svg	stimuli_distractor_trianglediamonds.svg	1	yes	57	0	287
6.6.1	mac	2022-12-22	01:21:36	01:37:51	973847	6110c647b9773e91ce1854f4	833502617	1	main_z	11	main_z	15	stimuli_distractor_diamondtriangles.svg	stimuli_distractor_diamondtriangles.svg	39	no	0	1	2000
6.6.1	mac	2022-12-22	01:21:36	01:37:51	973847	6110c647b9773e91ce1854f4	833502617	1	main_z	11	advance_on_keypress_ZEE	16	stimuli_distractor_diamondtriangles.svg	stimuli_distractor_diamondtriangles.svg	39	no	57	0	240
6.6.1	mac	2022-12-22	01:21:36	01:37:52	975198	6110c647b9773e91ce1854f4	833502617	1	main_z	11	main_z	17	stimuli_target_squarediamonds.svg	stimuli_distractor_trianglediamonds.svg	4	yes	44	1	483
6.6.1	mac	2022-12-22	01:21:36	01:37:52	975198	6110c647b9773e91ce1854f4	833502617	1	main_z	11	advance_on_keypress_ZEE	18	stimuli_target_squarediamonds.svg	stimuli_distractor_trianglediamonds.svg	4	yes	57	0	515
6.6.1	mac	2022-12-22	01:21:36	01:37:54	977131	6110c647b9773e91ce1854f4	833502617	1	main_z	11	main_z	19	stimuli_distractor_diamondtriangles.svg	stimuli_target_diamondsquares.svg	32	yes	44	1	783
6.6.1	mac	2022-12-22	01:21:36	01:37:54	977131	6110c647b9773e91ce1854f4	833502617	1	main_z	11	advance_on_keypress_ZEE	20	stimuli_distractor_diamondtriangles.svg	stimuli_target_diamondsquares.svg	32	yes	57	0	213
6.6.1	mac	2022-12-22	01:21:36	01:37:57	979980	6110c647b9773e91ce1854f4	833502617	1	main_z	11	main_z	21	stimuli_distractor_diamondtriangles.svg	stimuli_distractor_diamondtriangles.svg	40	no	0	1	2000
6.6.1	mac	2022-12-22	01:21:36	01:37:57	979980	6110c647b9773e91ce1854f4	833502617	1	main_z	11	advance_on_keypress_ZEE	22	stimuli_distractor_diamondtriangles.svg	stimuli_distractor_diamondtriangles.svg	40	no	57	0	274
6.6.1	mac	2022-12-22	01:21:36	01:38:00	982880	6110c647b9773e91ce1854f4	833502617	1	main_z	11	main_z	23	stimuli_target_diamondsquares.svg	stimuli_distractor_trianglediamonds.svg	20	yes	0	0	2000
6.6.1	mac	2022-12-22	01:21:36	01:38:00	982880	6110c647b9773e91ce1854f4	833502617	1	main_z	11	advance_on_keypress_ZEE	24	stimuli_target_diamondsquares.svg	stimuli_distractor_trianglediamonds.svg	20	yes	57	0	305
6.6.1	mac	2022-12-22	01:21:36	01:38:01	984126	6110c647b9773e91ce1854f4	833502617	1	main_z	11	main_z	25	stimuli_target_diamondcircles.svg	stimuli_distractor_diamondtriangles.svg	23	yes	44	1	312
6.6.1	mac	2022-12-22	01:21:36	01:38:01	984126	6110c647b9773e91ce1854f4	833502617	1	main_z	11	advance_on_keypress_ZEE	26	stimuli_target_diamondcircles.svg	stimuli_distractor_diamondtriangles.svg	23	yes	57	0	405
6.6.1	mac	2022-12-22	01:21:36	01:38:03	985846	6110c647b9773e91ce1854f4	833502617	1	main_z	11	main_z	27	stimuli_distractor_trianglediamonds.svg	stimuli_target_squarediamonds.svg	12	yes	44	1	699
6.6.1	mac	2022-12-22	01:21:36	01:38:03	985846	6110c647b9773e91ce1854f4	833502617	1	main_z	11	advance_on_keypress_ZEE	28	stimuli_distractor_trianglediamonds.svg	stimuli_target_squarediamonds.svg	12	yes	57	0	298
6.6.1	mac	2022-12-22	01:21:36	01:38:04	987232	6110c647b9773e91ce1854f4	833502617	1	main_z	11	main_z	29	stimuli_distractor_trianglediamonds.svg	stimuli_target_circlediamonds.svg	10	yes	44	1	451
6.6.1	mac	2022-12-22	01:21:36	01:38:04	987232	6110c647b9773e91ce1854f4	833502617	1	main_z	11	advance_on_keypress_ZEE	30	stimuli_distractor_trianglediamonds.svg	stimuli_target_circlediamonds.svg	10	yes	57	0	191
6.6.1	mac	2022-12-22	01:21:36	01:38:06	988701	6110c647b9773e91ce1854f4	833502617	1	main_z	11	main_z	31	stimuli_distractor_trianglediamonds.svg	stimuli_target_trianglesquares.svg	26	yes	44	1	654
6.6.1	mac	2022-12-22	01:21:36	01:38:06	988701	6110c647b9773e91ce1854f4	833502617	1	main_z	11	advance_on_keypress_ZEE	32	stimuli_distractor_trianglediamonds.svg	stimuli_target_trianglesquares.svg	26	yes	57	0	191
6.6.1	mac	2022-12-22	01:21:36	01:38:07	989878	6110c647b9773e91ce1854f4	833502617	1	main_z	11	main_z	33	stimuli_distractor_diamondtriangles.svg	stimuli_target_circlediamonds.svg	14	yes	44	1	365
6.6.1	mac	2022-12-22	01:21:36	01:38:07	989878	6110c647b9773e91ce1854f4	833502617	1	main_z	11	advance_on_keypress_ZEE	34	stimuli_distractor_diamondtriangles.svg	stimuli_target_circlediamonds.svg	14	yes	57	0	193
6.6.1	mac	2022-12-22	01:21:36	01:38:08	991065	6110c647b9773e91ce1854f4	833502617	1	main_z	11	main_z	35	stimuli_target_trianglecircles.svg	stimuli_distractor_diamondtriangles.svg	21	yes	44	1	368
6.6.1	mac	2022-12-22	01:21:36	01:38:08	991065	6110c647b9773e91ce1854f4	833502617	1	main_z	11	advance_on_keypress_ZEE	36	stimuli_target_trianglecircles.svg	stimuli_distractor_diamondtriangles.svg	21	yes	57	0	229
6.6.1	mac	2022-12-22	01:21:36	01:38:11	993929	6110c647b9773e91ce1854f4	833502617	1	main_z	11	main_z	37	stimuli_distractor_diamondtriangles.svg	stimuli_distractor_trianglediamonds.svg	38	no	0	1	2000
6.6.1	mac	2022-12-22	01:21:36	01:38:11	993929	6110c647b9773e91ce1854f4	833502617	1	main_z	11	advance_on_keypress_ZEE	38	stimuli_distractor_diamondtriangles.svg	stimuli_distractor_trianglediamonds.svg	38	no	57	0	269
6.6.1	mac	2022-12-22	01:21:36	01:38:12	995511	6110c647b9773e91ce1854f4	833502617	1	main_z	11	main_z	39	stimuli_distractor_diamondtriangles.svg	stimuli_distractor_trianglediamonds.svg	37	no	44	0	680
6.6.1	mac	2022-12-22	01:21:36	01:38:12	995511	6110c647b9773e91ce1854f4	833502617	1	main_z	11	advance_on_keypress_ZEE	40	stimuli_distractor_diamondtriangles.svg	stimuli_distractor_trianglediamonds.svg	37	no	57	0	439
6.6.1	mac	2022-12-22	01:21:36	01:38:14	996927	6110c647b9773e91ce1854f4	833502617	1	main_z	11	main_z	41	stimuli_target_circlediamonds.svg	stimuli_distractor_diamondtriangles.svg	6	yes	44	1	346
6.6.1	mac	2022-12-22	01:21:36	01:38:14	996927	6110c647b9773e91ce1854f4	833502617	1	main_z	11	advance_on_keypress_ZEE	42	stimuli_target_circlediamonds.svg	stimuli_distractor_diamondtriangles.svg	6	yes	57	0	344
6.6.1	mac	2022-12-22	01:21:36	01:38:15	998299	6110c647b9773e91ce1854f4	833502617	1	main_z	11	main_z	43	stimuli_distractor_trianglediamonds.svg	stimuli_target_circletriangles.svg	9	yes	44	1	418
6.6.1	mac	2022-12-22	01:21:36	01:38:15	998299	6110c647b9773e91ce1854f4	833502617	1	main_z	11	advance_on_keypress_ZEE	44	stimuli_distractor_trianglediamonds.svg	stimuli_target_circletriangles.svg	9	yes	57	0	188
6.6.1	mac	2022-12-22	01:21:36	01:38:18	1001111	6110c647b9773e91ce1854f4	833502617	1	main_z	11	main_z	45	stimuli_distractor_trianglediamonds.svg	stimuli_distractor_diamondtriangles.svg	36	no	0	1	2000
6.6.1	mac	2022-12-22	01:21:36	01:38:18	1001111	6110c647b9773e91ce1854f4	833502617	1	main_z	11	advance_on_keypress_ZEE	46	stimuli_distractor_trianglediamonds.svg	stimuli_distractor_diamondtriangles.svg	36	no	57	0	281
6.6.1	mac	2022-12-22	01:21:36	01:38:19	1002599	6110c647b9773e91ce1854f4	833502617	1	main_z	11	main_z	47	stimuli_target_trianglesquares.svg	stimuli_distractor_trianglediamonds.svg	18	yes	44	1	569
6.6.1	mac	2022-12-22	01:21:36	01:38:19	1002599	6110c647b9773e91ce1854f4	833502617	1	main_z	11	advance_on_keypress_ZEE	48	stimuli_target_trianglesquares.svg	stimuli_distractor_trianglediamonds.svg	18	yes	57	0	313
6.6.1	mac	2022-12-22	01:21:36	01:38:22	1005545	6110c647b9773e91ce1854f4	833502617	1	main_z	11	main_z	49	stimuli_distractor_trianglediamonds.svg	stimuli_distractor_trianglediamonds.svg	34	no	0	1	2000
6.6.1	mac	2022-12-22	01:21:36	01:38:22	1005545	6110c647b9773e91ce1854f4	833502617	1	main_z	11	advance_on_keypress_ZEE	50	stimuli_distractor_trianglediamonds.svg	stimuli_distractor_trianglediamonds.svg	34	no	57	0	256
6.6.1	mac	2022-12-22	01:21:36	01:38:24	1007067	6110c647b9773e91ce1854f4	833502617	1	main_z	11	main_z	51	stimuli_distractor_diamondtriangles.svg	stimuli_target_squarediamonds.svg	16	yes	44	1	637
6.6.1	mac	2022-12-22	01:21:36	01:38:24	1007067	6110c647b9773e91ce1854f4	833502617	1	main_z	11	advance_on_keypress_ZEE	52	stimuli_distractor_diamondtriangles.svg	stimuli_target_squarediamonds.svg	16	yes	57	0	369
6.6.1	mac	2022-12-22	01:21:36	01:38:25	1008645	6110c647b9773e91ce1854f4	833502617	1	main_z	11	main_z	53	stimuli_target_diamondsquares.svg	stimuli_distractor_diamondtriangles.svg	24	yes	44	1	582
6.6.1	mac	2022-12-22	01:21:36	01:38:25	1008645	6110c647b9773e91ce1854f4	833502617	1	main_z	11	advance_on_keypress_ZEE	54	stimuli_target_diamondsquares.svg	stimuli_distractor_diamondtriangles.svg	24	yes	57	0	289
6.6.1	mac	2022-12-22	01:21:36	01:38:27	1010140	6110c647b9773e91ce1854f4	833502617	1	main_z	11	main_z	55	stimuli_target_circletriangles.svg	stimuli_distractor_diamondtriangles.svg	5	yes	44	1	577
6.6.1	mac	2022-12-22	01:21:36	01:38:27	1010140	6110c647b9773e91ce1854f4	833502617	1	main_z	11	advance_on_keypress_ZEE	56	stimuli_target_circletriangles.svg	stimuli_distractor_diamondtriangles.svg	5	yes	57	0	198
6.6.1	mac	2022-12-22	01:21:36	01:38:28	1011346	6110c647b9773e91ce1854f4	833502617	1	main_z	11	main_z	57	stimuli_target_circlediamonds.svg	stimuli_distractor_trianglediamonds.svg	2	yes	44	1	383
6.6.1	mac	2022-12-22	01:21:36	01:38:28	1011346	6110c647b9773e91ce1854f4	833502617	1	main_z	11	advance_on_keypress_ZEE	58	stimuli_target_circlediamonds.svg	stimuli_distractor_trianglediamonds.svg	2	yes	57	0	411
6.6.1	mac	2022-12-22	01:21:36	01:38:30	1012705	6110c647b9773e91ce1854f4	833502617	1	main_z	11	main_z	59	stimuli_distractor_diamondtriangles.svg	stimuli_target_circletriangles.svg	13	yes	44	1	326
6.6.1	mac	2022-12-22	01:21:36	01:38:30	1012705	6110c647b9773e91ce1854f4	833502617	1	main_z	11	advance_on_keypress_ZEE	60	stimuli_distractor_diamondtriangles.svg	stimuli_target_circletriangles.svg	13	yes	57	0	255
6.6.1	mac	2022-12-22	01:21:36	01:38:31	1014636	6110c647b9773e91ce1854f4	833502617	1	main_z	11	main_z	61	stimuli_target_trianglesquares.svg	stimuli_distractor_diamondtriangles.svg	22	yes	44	1	1056
6.6.1	mac	2022-12-22	01:21:36	01:38:31	1014636	6110c647b9773e91ce1854f4	833502617	1	main_z	11	advance_on_keypress_ZEE	62	stimuli_target_trianglesquares.svg	stimuli_distractor_diamondtriangles.svg	22	yes	57	0	169
6.6.1	mac	2022-12-22	01:21:36	01:38:33	1015733	6110c647b9773e91ce1854f4	833502617	1	main_z	11	main_z	63	stimuli_distractor_trianglediamonds.svg	stimuli_distractor_diamondtriangles.svg	35	no	44	0	304
6.6.1	mac	2022-12-22	01:21:36	01:38:33	1015733	6110c647b9773e91ce1854f4	833502617	1	main_z	11	advance_on_keypress_ZEE	64	stimuli_distractor_trianglediamonds.svg	stimuli_distractor_diamondtriangles.svg	35	no	57	0	487
6.6.1	mac	2022-12-22	01:21:36	01:38:34	1017335	6110c647b9773e91ce1854f4	833502617	1	main_z	11	main_z	65	stimuli_target_diamondcircles.svg	stimuli_distractor_trianglediamonds.svg	19	yes	44	1	488
6.6.1	mac	2022-12-22	01:21:36	01:38:34	1017335	6110c647b9773e91ce1854f4	833502617	1	main_z	11	advance_on_keypress_ZEE	66	stimuli_target_diamondcircles.svg	stimuli_distractor_trianglediamonds.svg	19	yes	57	0	157
6.6.1	mac	2022-12-22	01:21:36	01:38:36	1018689	6110c647b9773e91ce1854f4	833502617	1	main_z	11	main_z	67	stimuli_distractor_diamondtriangles.svg	stimuli_target_trianglecircles.svg	29	yes	44	1	576
6.6.1	mac	2022-12-22	01:21:36	01:38:36	1018689	6110c647b9773e91ce1854f4	833502617	1	main_z	11	advance_on_keypress_ZEE	68	stimuli_distractor_diamondtriangles.svg	stimuli_target_trianglecircles.svg	29	yes	57	0	148
6.6.1	mac	2022-12-22	01:21:36	01:38:38	1021462	6110c647b9773e91ce1854f4	833502617	1	main_z	11	main_z	69	stimuli_distractor_trianglediamonds.svg	stimuli_target_diamondsquares.svg	28	yes	0	0	2000
6.6.1	mac	2022-12-22	01:21:36	01:38:38	1021462	6110c647b9773e91ce1854f4	833502617	1	main_z	11	advance_on_keypress_ZEE	70	stimuli_distractor_trianglediamonds.svg	stimuli_target_diamondsquares.svg	28	yes	57	0	466
6.6.1	mac	2022-12-22	01:21:36	01:38:40	1022875	6110c647b9773e91ce1854f4	833502617	1	main_z	11	main_z	71	stimuli_target_squaretriangles.svg	stimuli_distractor_diamondtriangles.svg	7	yes	44	1	312
6.6.1	mac	2022-12-22	01:21:36	01:38:40	1022875	6110c647b9773e91ce1854f4	833502617	1	main_z	11	advance_on_keypress_ZEE	72	stimuli_target_squaretriangles.svg	stimuli_distractor_diamondtriangles.svg	7	yes	57	0	195
6.6.1	mac	2022-12-22	01:21:36	01:38:43	1025678	6110c647b9773e91ce1854f4	833502617	1	main_z	11	main_z	73	stimuli_distractor_trianglediamonds.svg	stimuli_distractor_trianglediamonds.svg	33	no	0	1	2000
6.6.1	mac	2022-12-22	01:21:36	01:38:43	1025678	6110c647b9773e91ce1854f4	833502617	1	main_z	11	advance_on_keypress_ZEE	74	stimuli_distractor_trianglediamonds.svg	stimuli_distractor_trianglediamonds.svg	33	no	57	0	278
6.6.1	mac	2022-12-22	01:21:36	01:38:44	1027140	6110c647b9773e91ce1854f4	833502617	1	main_z	11	main_z	75	stimuli_target_trianglecircles.svg	stimuli_distractor_trianglediamonds.svg	17	yes	44	1	561
6.6.1	mac	2022-12-22	01:21:36	01:38:44	1027140	6110c647b9773e91ce1854f4	833502617	1	main_z	11	advance_on_keypress_ZEE	76	stimuli_target_trianglecircles.svg	stimuli_distractor_trianglediamonds.svg	17	yes	57	0	397
6.6.1	mac	2022-12-22	01:21:36	01:38:46	1028842	6110c647b9773e91ce1854f4	833502617	1	main_z	11	main_z	77	stimuli_distractor_diamondtriangles.svg	stimuli_target_diamondcircles.svg	31	yes	44	1	679
6.6.1	mac	2022-12-22	01:21:36	01:38:46	1028842	6110c647b9773e91ce1854f4	833502617	1	main_z	11	advance_on_keypress_ZEE	78	stimuli_distractor_diamondtriangles.svg	stimuli_target_diamondcircles.svg	31	yes	57	0	162
6.6.1	mac	2022-12-22	01:21:36	01:38:47	1030360	6110c647b9773e91ce1854f4	833502617	1	main_z	11	main_z	79	stimuli_distractor_diamondtriangles.svg	stimuli_target_squaretriangles.svg	15	yes	44	1	714
6.6.1	mac	2022-12-22	01:21:36	01:38:47	1030360	6110c647b9773e91ce1854f4	833502617	1	main_z	11	advance_on_keypress_ZEE	80	stimuli_distractor_diamondtriangles.svg	stimuli_target_squaretriangles.svg	15	yes	57	0	174
6.6.1	mac	2022-12-22	01:21:36	01:38:49	1032495	6110c647b9773e91ce1854f4	833502617	1	main_z	11	main_z	81	stimuli_target_squaretriangles.svg	stimuli_distractor_diamondtriangles.svg	7	yes	44	1	1332
6.6.1	mac	2022-12-22	01:21:36	01:38:49	1032495	6110c647b9773e91ce1854f4	833502617	1	main_z	11	advance_on_keypress_ZEE	82	stimuli_target_squaretriangles.svg	stimuli_distractor_diamondtriangles.svg	7	yes	57	0	174
6.6.1	mac	2022-12-22	01:21:36	01:38:51	1033763	6110c647b9773e91ce1854f4	833502617	1	main_z	11	main_z	83	stimuli_target_circlediamonds.svg	stimuli_distractor_trianglediamonds.svg	2	yes	44	1	466
6.6.1	mac	2022-12-22	01:21:36	01:38:51	1033763	6110c647b9773e91ce1854f4	833502617	1	main_z	11	advance_on_keypress_ZEE	84	stimuli_target_circlediamonds.svg	stimuli_distractor_trianglediamonds.svg	2	yes	57	0	368
6.6.1	mac	2022-12-22	01:21:36	01:38:52	1035623	6110c647b9773e91ce1854f4	833502617	1	main_z	11	main_z	85	stimuli_distractor_diamondtriangles.svg	stimuli_target_trianglesquares.svg	30	yes	44	1	860
6.6.1	mac	2022-12-22	01:21:36	01:38:52	1035623	6110c647b9773e91ce1854f4	833502617	1	main_z	11	advance_on_keypress_ZEE	86	stimuli_distractor_diamondtriangles.svg	stimuli_target_trianglesquares.svg	30	yes	57	0	487
6.6.1	mac	2022-12-22	01:21:36	01:38:54	1037277	6110c647b9773e91ce1854f4	833502617	1	main_z	11	main_z	87	stimuli_target_trianglecircles.svg	stimuli_distractor_diamondtriangles.svg	21	yes	44	1	548
6.6.1	mac	2022-12-22	01:21:36	01:38:54	1037277	6110c647b9773e91ce1854f4	833502617	1	main_z	11	advance_on_keypress_ZEE	88	stimuli_target_trianglecircles.svg	stimuli_distractor_diamondtriangles.svg	21	yes	57	0	284
6.6.1	mac	2022-12-22	01:21:36	01:38:56	1038759	6110c647b9773e91ce1854f4	833502617	1	main_z	11	main_z	89	stimuli_target_diamondcircles.svg	stimuli_distractor_trianglediamonds.svg	19	yes	44	1	564
6.6.1	mac	2022-12-22	01:21:36	01:38:56	1038759	6110c647b9773e91ce1854f4	833502617	1	main_z	11	advance_on_keypress_ZEE	90	stimuli_target_diamondcircles.svg	stimuli_distractor_trianglediamonds.svg	19	yes	57	0	240
6.6.1	mac	2022-12-22	01:21:36	01:38:58	1041627	6110c647b9773e91ce1854f4	833502617	1	main_z	11	main_z	91	stimuli_distractor_trianglediamonds.svg	stimuli_distractor_diamondtriangles.svg	36	no	0	1	2000
6.6.1	mac	2022-12-22	01:21:36	01:38:58	1041627	6110c647b9773e91ce1854f4	833502617	1	main_z	11	advance_on_keypress_ZEE	92	stimuli_distractor_trianglediamonds.svg	stimuli_distractor_diamondtriangles.svg	36	no	57	0	728
6.6.1	mac	2022-12-22	01:21:36	01:39:01	1043733	6110c647b9773e91ce1854f4	833502617	1	main_z	11	main_z	93	stimuli_distractor_diamondtriangles.svg	stimuli_target_diamondsquares.svg	32	yes	44	1	754
6.6.1	mac	2022-12-22	01:21:36	01:39:01	1043733	6110c647b9773e91ce1854f4	833502617	1	main_z	11	advance_on_keypress_ZEE	94	stimuli_distractor_diamondtriangles.svg	stimuli_target_diamondsquares.svg	32	yes	57	0	381
6.6.1	mac	2022-12-22	01:21:36	01:39:02	1045266	6110c647b9773e91ce1854f4	833502617	1	main_z	11	main_z	95	stimuli_distractor_trianglediamonds.svg	stimuli_target_circletriangles.svg	9	yes	44	1	520
6.6.1	mac	2022-12-22	01:21:36	01:39:02	1045266	6110c647b9773e91ce1854f4	833502617	1	main_z	11	advance_on_keypress_ZEE	96	stimuli_distractor_trianglediamonds.svg	stimuli_target_circletriangles.svg	9	yes	57	0	180
6.6.1	mac	2022-12-22	01:21:36	01:39:04	1046771	6110c647b9773e91ce1854f4	833502617	1	main_z	11	main_z	97	stimuli_distractor_trianglediamonds.svg	stimuli_target_trianglesquares.svg	26	yes	44	1	692
6.6.1	mac	2022-12-22	01:21:36	01:39:04	1046771	6110c647b9773e91ce1854f4	833502617	1	main_z	11	advance_on_keypress_ZEE	98	stimuli_distractor_trianglediamonds.svg	stimuli_target_trianglesquares.svg	26	yes	57	0	172
6.6.1	mac	2022-12-22	01:21:36	01:39:05	1048255	6110c647b9773e91ce1854f4	833502617	1	main_z	11	main_z	99	stimuli_distractor_trianglediamonds.svg	stimuli_target_squarediamonds.svg	12	yes	44	1	693
6.6.1	mac	2022-12-22	01:21:36	01:39:05	1048255	6110c647b9773e91ce1854f4	833502617	1	main_z	11	advance_on_keypress_ZEE	100	stimuli_distractor_trianglediamonds.svg	stimuli_target_squarediamonds.svg	12	yes	57	0	192
6.6.1	mac	2022-12-22	01:21:36	01:39:07	1049899	6110c647b9773e91ce1854f4	833502617	1	main_z	11	main_z	101	stimuli_target_squarediamonds.svg	stimuli_distractor_trianglediamonds.svg	4	yes	44	1	837
6.6.1	mac	2022-12-22	01:21:36	01:39:07	1049899	6110c647b9773e91ce1854f4	833502617	1	main_z	11	advance_on_keypress_ZEE	102	stimuli_target_squarediamonds.svg	stimuli_distractor_trianglediamonds.svg	4	yes	57	0	164
6.6.1	mac	2022-12-22	01:21:36	01:39:08	1051246	6110c647b9773e91ce1854f4	833502617	1	main_z	11	main_z	103	stimuli_target_circletriangles.svg	stimuli_distractor_diamondtriangles.svg	5	yes	44	1	550
6.6.1	mac	2022-12-22	01:21:36	01:39:08	1051246	6110c647b9773e91ce1854f4	833502617	1	main_z	11	advance_on_keypress_ZEE	104	stimuli_target_circletriangles.svg	stimuli_distractor_diamondtriangles.svg	5	yes	57	0	368
6.6.1	mac	2022-12-22	01:21:36	01:39:10	1052830	6110c647b9773e91ce1854f4	833502617	1	main_z	11	main_z	105	stimuli_target_circlediamonds.svg	stimuli_distractor_diamondtriangles.svg	6	yes	44	1	585
6.6.1	mac	2022-12-22	01:21:36	01:39:10	1052830	6110c647b9773e91ce1854f4	833502617	1	main_z	11	advance_on_keypress_ZEE	106	stimuli_target_circlediamonds.svg	stimuli_distractor_diamondtriangles.svg	6	yes	57	0	244
6.6.1	mac	2022-12-22	01:21:36	01:39:12	1054683	6110c647b9773e91ce1854f4	833502617	1	main_z	11	main_z	107	stimuli_target_trianglesquares.svg	stimuli_distractor_trianglediamonds.svg	18	yes	44	1	988
6.6.1	mac	2022-12-22	01:21:36	01:39:12	1054683	6110c647b9773e91ce1854f4	833502617	1	main_z	11	advance_on_keypress_ZEE	108	stimuli_target_trianglesquares.svg	stimuli_distractor_trianglediamonds.svg	18	yes	57	0	263
6.6.1	mac	2022-12-22	01:21:36	01:39:13	1056289	6110c647b9773e91ce1854f4	833502617	1	main_z	11	main_z	109	stimuli_target_squaretriangles.svg	stimuli_distractor_trianglediamonds.svg	3	yes	44	1	710
6.6.1	mac	2022-12-22	01:21:36	01:39:13	1056289	6110c647b9773e91ce1854f4	833502617	1	main_z	11	advance_on_keypress_ZEE	110	stimuli_target_squaretriangles.svg	stimuli_distractor_trianglediamonds.svg	3	yes	57	0	207
6.6.1	mac	2022-12-22	01:21:36	01:39:16	1059110	6110c647b9773e91ce1854f4	833502617	1	main_z	11	main_z	111	stimuli_distractor_diamondtriangles.svg	stimuli_distractor_diamondtriangles.svg	40	no	0	1	2000
6.6.1	mac	2022-12-22	01:21:36	01:39:16	1059110	6110c647b9773e91ce1854f4	833502617	1	main_z	11	advance_on_keypress_ZEE	112	stimuli_distractor_diamondtriangles.svg	stimuli_distractor_diamondtriangles.svg	40	no	57	0	428
6.6.1	mac	2022-12-22	01:21:36	01:39:17	1060583	6110c647b9773e91ce1854f4	833502617	1	main_z	11	main_z	113	stimuli_target_diamondsquares.svg	stimuli_distractor_diamondtriangles.svg	24	yes	44	1	421
6.6.1	mac	2022-12-22	01:21:36	01:39:17	1060583	6110c647b9773e91ce1854f4	833502617	1	main_z	11	advance_on_keypress_ZEE	114	stimuli_target_diamondsquares.svg	stimuli_distractor_diamondtriangles.svg	24	yes	57	0	381
6.6.1	mac	2022-12-22	01:21:36	01:39:19	1062472	6110c647b9773e91ce1854f4	833502617	1	main_z	11	main_z	115	stimuli_distractor_trianglediamonds.svg	stimuli_target_diamondcircles.svg	27	yes	44	1	877
6.6.1	mac	2022-12-22	01:21:36	01:39:19	1062472	6110c647b9773e91ce1854f4	833502617	1	main_z	11	advance_on_keypress_ZEE	116	stimuli_distractor_trianglediamonds.svg	stimuli_target_diamondcircles.svg	27	yes	57	0	343
6.6.1	mac	2022-12-22	01:21:36	01:39:21	1064444	6110c647b9773e91ce1854f4	833502617	1	main_z	11	main_z	117	stimuli_distractor_trianglediamonds.svg	stimuli_distractor_trianglediamonds.svg	34	no	44	0	1015
6.6.1	mac	2022-12-22	01:21:36	01:39:21	1064444	6110c647b9773e91ce1854f4	833502617	1	main_z	11	advance_on_keypress_ZEE	118	stimuli_distractor_trianglediamonds.svg	stimuli_distractor_trianglediamonds.svg	34	no	57	0	177
6.6.1	mac	2022-12-22	01:21:36	01:39:23	1066214	6110c647b9773e91ce1854f4	833502617	1	main_z	11	main_z	119	stimuli_distractor_trianglediamonds.svg	stimuli_distractor_diamondtriangles.svg	35	no	44	0	969
6.6.1	mac	2022-12-22	01:21:36	01:39:23	1066214	6110c647b9773e91ce1854f4	833502617	1	main_z	11	advance_on_keypress_ZEE	120	stimuli_distractor_trianglediamonds.svg	stimuli_distractor_diamondtriangles.svg	35	no	57	0	159
6.6.1	mac	2022-12-22	01:21:36	01:39:24	1067606	6110c647b9773e91ce1854f4	833502617	1	main_z	11	main_z	121	stimuli_target_diamondcircles.svg	stimuli_distractor_diamondtriangles.svg	23	yes	44	1	612
6.6.1	mac	2022-12-22	01:21:36	01:39:24	1067606	6110c647b9773e91ce1854f4	833502617	1	main_z	11	advance_on_keypress_ZEE	122	stimuli_target_diamondcircles.svg	stimuli_distractor_diamondtriangles.svg	23	yes	57	0	155
6.6.1	mac	2022-12-22	01:21:36	01:39:26	1069085	6110c647b9773e91ce1854f4	833502617	1	main_z	11	main_z	123	stimuli_distractor_diamondtriangles.svg	stimuli_target_squaretriangles.svg	15	yes	44	1	707
6.6.1	mac	2022-12-22	01:21:36	01:39:26	1069085	6110c647b9773e91ce1854f4	833502617	1	main_z	11	advance_on_keypress_ZEE	124	stimuli_distractor_diamondtriangles.svg	stimuli_target_squaretriangles.svg	15	yes	57	0	211
6.6.1	mac	2022-12-22	01:21:36	01:39:27	1070598	6110c647b9773e91ce1854f4	833502617	1	main_z	11	main_z	125	stimuli_distractor_diamondtriangles.svg	stimuli_target_circletriangles.svg	13	yes	44	1	685
6.6.1	mac	2022-12-22	01:21:36	01:39:27	1070598	6110c647b9773e91ce1854f4	833502617	1	main_z	11	advance_on_keypress_ZEE	126	stimuli_distractor_diamondtriangles.svg	stimuli_target_circletriangles.svg	13	yes	57	0	285
6.6.1	mac	2022-12-22	01:21:36	01:39:29	1072206	6110c647b9773e91ce1854f4	833502617	1	main_z	11	main_z	127	stimuli_target_diamondsquares.svg	stimuli_distractor_trianglediamonds.svg	20	yes	44	1	694
6.6.1	mac	2022-12-22	01:21:36	01:39:29	1072206	6110c647b9773e91ce1854f4	833502617	1	main_z	11	advance_on_keypress_ZEE	128	stimuli_target_diamondsquares.svg	stimuli_distractor_trianglediamonds.svg	20	yes	57	0	207
6.6.1	mac	2022-12-22	01:21:36	01:39:30	1073551	6110c647b9773e91ce1854f4	833502617	1	main_z	11	main_z	129	stimuli_distractor_diamondtriangles.svg	stimuli_target_trianglecircles.svg	29	yes	44	1	524
6.6.1	mac	2022-12-22	01:21:36	01:39:30	1073551	6110c647b9773e91ce1854f4	833502617	1	main_z	11	advance_on_keypress_ZEE	130	stimuli_distractor_diamondtriangles.svg	stimuli_target_trianglecircles.svg	29	yes	57	0	176
6.6.1	mac	2022-12-22	01:21:36	01:39:32	1075064	6110c647b9773e91ce1854f4	833502617	1	main_z	11	main_z	131	stimuli_distractor_trianglediamonds.svg	stimuli_distractor_trianglediamonds.svg	33	no	44	0	703
6.6.1	mac	2022-12-22	01:21:36	01:39:32	1075064	6110c647b9773e91ce1854f4	833502617	1	main_z	11	advance_on_keypress_ZEE	132	stimuli_distractor_trianglediamonds.svg	stimuli_distractor_trianglediamonds.svg	33	no	57	0	165
6.6.1	mac	2022-12-22	01:21:36	01:39:34	1077200	6110c647b9773e91ce1854f4	833502617	1	main_z	11	main_z	133	stimuli_distractor_diamondtriangles.svg	stimuli_distractor_trianglediamonds.svg	38	no	44	0	1337
6.6.1	mac	2022-12-22	01:21:36	01:39:34	1077200	6110c647b9773e91ce1854f4	833502617	1	main_z	11	advance_on_keypress_ZEE	134	stimuli_distractor_diamondtriangles.svg	stimuli_distractor_trianglediamonds.svg	38	no	57	0	127
6.6.1	mac	2022-12-22	01:21:36	01:39:37	1079942	6110c647b9773e91ce1854f4	833502617	1	main_z	11	main_z	135	stimuli_distractor_diamondtriangles.svg	stimuli_distractor_trianglediamonds.svg	37	no	0	1	2000
6.6.1	mac	2022-12-22	01:21:36	01:39:37	1079942	6110c647b9773e91ce1854f4	833502617	1	main_z	11	advance_on_keypress_ZEE	136	stimuli_distractor_diamondtriangles.svg	stimuli_distractor_trianglediamonds.svg	37	no	57	0	318
6.6.1	mac	2022-12-22	01:21:36	01:39:38	1081552	6110c647b9773e91ce1854f4	833502617	1	main_z	11	main_z	137	stimuli_target_squarediamonds.svg	stimuli_distractor_diamondtriangles.svg	8	yes	44	1	657
6.6.1	mac	2022-12-22	01:21:36	01:39:38	1081552	6110c647b9773e91ce1854f4	833502617	1	main_z	11	advance_on_keypress_ZEE	138	stimuli_target_squarediamonds.svg	stimuli_distractor_diamondtriangles.svg	8	yes	57	0	166
6.6.1	mac	2022-12-22	01:21:36	01:39:40	1082903	6110c647b9773e91ce1854f4	833502617	1	main_z	11	main_z	139	stimuli_distractor_diamondtriangles.svg	stimuli_target_diamondcircles.svg	31	yes	44	1	559
6.6.1	mac	2022-12-22	01:21:36	01:39:40	1082903	6110c647b9773e91ce1854f4	833502617	1	main_z	11	advance_on_keypress_ZEE	140	stimuli_distractor_diamondtriangles.svg	stimuli_target_diamondcircles.svg	31	yes	57	0	151
6.6.1	mac	2022-12-22	01:21:36	01:39:41	1084192	6110c647b9773e91ce1854f4	833502617	1	main_z	11	main_z	141	stimuli_target_trianglecircles.svg	stimuli_distractor_trianglediamonds.svg	17	yes	44	1	515
6.6.1	mac	2022-12-22	01:21:36	01:39:41	1084192	6110c647b9773e91ce1854f4	833502617	1	main_z	11	advance_on_keypress_ZEE	142	stimuli_target_trianglecircles.svg	stimuli_distractor_trianglediamonds.svg	17	yes	57	0	161
6.6.1	mac	2022-12-22	01:21:36	01:39:42	1085627	6110c647b9773e91ce1854f4	833502617	1	main_z	11	main_z	143	stimuli_distractor_trianglediamonds.svg	stimuli_target_squaretriangles.svg	11	yes	44	1	650
6.6.1	mac	2022-12-22	01:21:36	01:39:42	1085627	6110c647b9773e91ce1854f4	833502617	1	main_z	11	advance_on_keypress_ZEE	144	stimuli_distractor_trianglediamonds.svg	stimuli_target_squaretriangles.svg	11	yes	57	0	167
6.6.1	mac	2022-12-22	01:21:36	01:39:44	1087009	6110c647b9773e91ce1854f4	833502617	1	main_z	11	main_z	145	stimuli_distractor_trianglediamonds.svg	stimuli_target_circlediamonds.svg	10	yes	44	1	582
6.6.1	mac	2022-12-22	01:21:36	01:39:44	1087009	6110c647b9773e91ce1854f4	833502617	1	main_z	11	advance_on_keypress_ZEE	146	stimuli_distractor_trianglediamonds.svg	stimuli_target_circlediamonds.svg	10	yes	57	0	157
6.6.1	mac	2022-12-22	01:21:36	01:39:45	1088298	6110c647b9773e91ce1854f4	833502617	1	main_z	11	main_z	147	stimuli_distractor_diamondtriangles.svg	stimuli_target_circlediamonds.svg	14	yes	44	1	504
6.6.1	mac	2022-12-22	01:21:36	01:39:45	1088298	6110c647b9773e91ce1854f4	833502617	1	main_z	11	advance_on_keypress_ZEE	148	stimuli_distractor_diamondtriangles.svg	stimuli_target_circlediamonds.svg	14	yes	57	0	147
6.6.1	mac	2022-12-22	01:21:36	01:39:46	1089545	6110c647b9773e91ce1854f4	833502617	1	main_z	11	main_z	149	stimuli_target_circletriangles.svg	stimuli_distractor_trianglediamonds.svg	1	yes	44	1	468
6.6.1	mac	2022-12-22	01:21:36	01:39:46	1089545	6110c647b9773e91ce1854f4	833502617	1	main_z	11	advance_on_keypress_ZEE	150	stimuli_target_circletriangles.svg	stimuli_distractor_trianglediamonds.svg	1	yes	57	0	144
6.6.1	mac	2022-12-22	01:21:36	01:39:48	1090924	6110c647b9773e91ce1854f4	833502617	1	main_z	11	main_z	151	stimuli_distractor_diamondtriangles.svg	stimuli_target_squarediamonds.svg	16	yes	44	1	614
6.6.1	mac	2022-12-22	01:21:36	01:39:48	1090924	6110c647b9773e91ce1854f4	833502617	1	main_z	11	advance_on_keypress_ZEE	152	stimuli_distractor_diamondtriangles.svg	stimuli_target_squarediamonds.svg	16	yes	57	0	155
6.6.1	mac	2022-12-22	01:21:36	01:39:49	1092306	6110c647b9773e91ce1854f4	833502617	1	main_z	11	main_z	153	stimuli_distractor_trianglediamonds.svg	stimuli_target_trianglecircles.svg	25	yes	44	1	596
6.6.1	mac	2022-12-22	01:21:36	01:39:49	1092306	6110c647b9773e91ce1854f4	833502617	1	main_z	11	advance_on_keypress_ZEE	154	stimuli_distractor_trianglediamonds.svg	stimuli_target_trianglecircles.svg	25	yes	57	0	163
6.6.1	mac	2022-12-22	01:21:36	01:39:50	1093587	6110c647b9773e91ce1854f4	833502617	1	main_z	11	main_z	155	stimuli_target_trianglesquares.svg	stimuli_distractor_diamondtriangles.svg	22	yes	44	1	493
6.6.1	mac	2022-12-22	01:21:36	01:39:50	1093587	6110c647b9773e91ce1854f4	833502617	1	main_z	11	advance_on_keypress_ZEE	156	stimuli_target_trianglesquares.svg	stimuli_distractor_diamondtriangles.svg	22	yes	57	0	141
6.6.1	mac	2022-12-22	01:21:36	01:39:53	1096342	6110c647b9773e91ce1854f4	833502617	1	main_z	11	main_z	157	stimuli_distractor_trianglediamonds.svg	stimuli_target_diamondsquares.svg	28	yes	0	0	2000
6.6.1	mac	2022-12-22	01:21:36	01:39:53	1096342	6110c647b9773e91ce1854f4	833502617	1	main_z	11	advance_on_keypress_ZEE	158	stimuli_distractor_trianglediamonds.svg	stimuli_target_diamondsquares.svg	28	yes	57	0	504
6.6.1	mac	2022-12-22	01:21:36	01:39:56	1099475	6110c647b9773e91ce1854f4	833502617	1	main_z	11	main_z	159	stimuli_distractor_diamondtriangles.svg	stimuli_distractor_diamondtriangles.svg	39	no	0	1	2000
6.6.1	mac	2022-12-22	01:21:36	01:39:56	1099475	6110c647b9773e91ce1854f4	833502617	1	main_z	11	advance_on_keypress_ZEE	160	stimuli_distractor_diamondtriangles.svg	stimuli_distractor_diamondtriangles.svg	39	no	57	0	305