build	computer.platform	date	time	timestamp	time_elapsed_ms	subject	group	session	blockcode	blocknum	trialcode	trialnum	stimulus_left	stimulus_right	stim_index	target_present	response	correct	latency
6.6.0	win	2022-12-14	14:38:20	14:44:19	354674	616d9ef881036dfbfd63d2f4	353437508	1	practice_z	5	practice_z	1	stimuli_target_squarediamonds.svg	stimuli_distractor_diamondtriangles.svg	2	yes	44	1	1576
6.6.0	win	2022-12-14	14:38:20	14:44:19	354674	616d9ef881036dfbfd63d2f4	353437508	1	practice_z	5	advance_on_keypress_ZEE	2	stimuli_target_squarediamonds.svg	stimuli_distractor_diamondtriangles.svg	2	yes	57	0	1555
6.6.0	win	2022-12-14	14:38:20	14:44:24	359307	616d9ef881036dfbfd63d2f4	353437508	1	practice_z	5	practice_z	3	stimuli_target_diamondsquares.svg	stimuli_distractor_diamondtriangles.svg	3	yes	44	1	1410
6.6.0	win	2022-12-14	14:38:20	14:44:24	359307	616d9ef881036dfbfd63d2f4	353437508	1	practice_z	5	advance_on_keypress_ZEE	4	stimuli_target_diamondsquares.svg	stimuli_distractor_diamondtriangles.svg	3	yes	57	0	970
6.6.0	win	2022-12-14	14:38:20	14:44:28	363928	616d9ef881036dfbfd63d2f4	353437508	1	practice_z	5	practice_z	5	stimuli_distractor_diamondtriangles.svg	stimuli_distractor_trianglediamonds.svg	14	no	0	1	2000
6.6.0	win	2022-12-14	14:38:20	14:44:28	363928	616d9ef881036dfbfd63d2f4	353437508	1	practice_z	5	advance_on_keypress_ZEE	6	stimuli_distractor_diamondtriangles.svg	stimuli_distractor_trianglediamonds.svg	14	no	57	0	987
6.6.0	win	2022-12-14	14:38:20	14:44:32	367866	616d9ef881036dfbfd63d2f4	353437508	1	practice_z	5	practice_z	7	stimuli_distractor_trianglediamonds.svg	stimuli_target_diamondcircles.svg	12	yes	44	1	1306
6.6.0	win	2022-12-14	14:38:20	14:44:32	367866	616d9ef881036dfbfd63d2f4	353437508	1	practice_z	5	advance_on_keypress_ZEE	8	stimuli_distractor_trianglediamonds.svg	stimuli_target_diamondcircles.svg	12	yes	57	0	9935
6.6.0	win	2022-12-14	14:38:20	14:44:45	380744	616d9ef881036dfbfd63d2f4	353437508	1	practice_z	5	practice_z	9	stimuli_distractor_trianglediamonds.svg	stimuli_target_circlediamonds.svg	10	yes	44	1	1289
6.6.0	win	2022-12-14	14:38:20	14:44:45	380744	616d9ef881036dfbfd63d2f4	353437508	1	practice_z	5	advance_on_keypress_ZEE	10	stimuli_distractor_trianglediamonds.svg	stimuli_target_circlediamonds.svg	10	yes	57	0	1971
6.6.0	win	2022-12-14	14:38:20	14:44:50	385571	616d9ef881036dfbfd63d2f4	353437508	1	practice_z	5	practice_z	11	stimuli_target_circlediamonds.svg	stimuli_distractor_diamondtriangles.svg	1	yes	44	1	1198
6.6.0	win	2022-12-14	14:38:20	14:44:50	385571	616d9ef881036dfbfd63d2f4	353437508	1	practice_z	5	advance_on_keypress_ZEE	12	stimuli_target_circlediamonds.svg	stimuli_distractor_diamondtriangles.svg	1	yes	57	0	2045
6.6.0	win	2022-12-14	14:38:20	14:44:55	390300	616d9ef881036dfbfd63d2f4	353437508	1	practice_z	5	practice_z	13	stimuli_target_circlediamonds.svg	stimuli_distractor_trianglediamonds.svg	4	yes	44	1	1042
6.6.0	win	2022-12-14	14:38:20	14:44:55	390300	616d9ef881036dfbfd63d2f4	353437508	1	practice_z	5	advance_on_keypress_ZEE	14	stimuli_target_circlediamonds.svg	stimuli_distractor_trianglediamonds.svg	4	yes	57	0	669
6.6.0	win	2022-12-14	14:38:20	14:44:59	394619	616d9ef881036dfbfd63d2f4	353437508	1	practice_z	5	practice_z	15	stimuli_distractor_trianglediamonds.svg	stimuli_distractor_diamondtriangles.svg	16	no	0	1	2000
6.6.0	win	2022-12-14	14:38:20	14:44:59	394619	616d9ef881036dfbfd63d2f4	353437508	1	practice_z	5	advance_on_keypress_ZEE	16	stimuli_distractor_trianglediamonds.svg	stimuli_distractor_diamondtriangles.svg	16	no	57	0	608
6.6.0	win	2022-12-14	14:38:20	14:45:03	398884	616d9ef881036dfbfd63d2f4	353437508	1	practice_z	5	practice_z	17	stimuli_distractor_diamondtriangles.svg	stimuli_target_trianglecircles.svg	9	yes	0	0	2000
6.6.0	win	2022-12-14	14:38:20	14:45:03	398884	616d9ef881036dfbfd63d2f4	353437508	1	practice_z	5	advance_on_keypress_ZEE	18	stimuli_distractor_diamondtriangles.svg	stimuli_target_trianglecircles.svg	9	yes	57	0	653
6.6.0	win	2022-12-14	14:38:20	14:45:07	402552	616d9ef881036dfbfd63d2f4	353437508	1	practice_z	5	practice_z	19	stimuli_target_squarediamonds.svg	stimuli_distractor_trianglediamonds.svg	5	yes	44	1	1370
6.6.0	win	2022-12-14	14:38:20	14:45:07	402552	616d9ef881036dfbfd63d2f4	353437508	1	practice_z	5	advance_on_keypress_ZEE	20	stimuli_target_squarediamonds.svg	stimuli_distractor_trianglediamonds.svg	5	yes	57	0	636
6.6.0	win	2022-12-14	14:38:20	14:45:11	406845	616d9ef881036dfbfd63d2f4	353437508	1	practice_z	5	practice_z	21	stimuli_distractor_trianglediamonds.svg	stimuli_target_squarediamonds.svg	11	yes	0	0	2000
6.6.0	win	2022-12-14	14:38:20	14:45:11	406845	616d9ef881036dfbfd63d2f4	353437508	1	practice_z	5	advance_on_keypress_ZEE	22	stimuli_distractor_trianglediamonds.svg	stimuli_target_squarediamonds.svg	11	yes	57	0	522
6.6.0	win	2022-12-14	14:38:20	14:45:15	411009	616d9ef881036dfbfd63d2f4	353437508	1	practice_z	5	practice_z	23	stimuli_distractor_trianglediamonds.svg	stimuli_distractor_trianglediamonds.svg	15	no	0	1	2000
6.6.0	win	2022-12-14	14:38:20	14:45:15	411009	616d9ef881036dfbfd63d2f4	353437508	1	practice_z	5	advance_on_keypress_ZEE	24	stimuli_distractor_trianglediamonds.svg	stimuli_distractor_trianglediamonds.svg	15	no	57	0	595
6.6.0	win	2022-12-14	14:38:20	14:45:19	414767	616d9ef881036dfbfd63d2f4	353437508	1	practice_z	5	practice_z	25	stimuli_distractor_diamondtriangles.svg	stimuli_target_diamondcircles.svg	8	yes	44	1	1510
6.6.0	win	2022-12-14	14:38:20	14:45:19	414767	616d9ef881036dfbfd63d2f4	353437508	1	practice_z	5	advance_on_keypress_ZEE	26	stimuli_distractor_diamondtriangles.svg	stimuli_target_diamondcircles.svg	8	yes	57	0	587
6.6.0	win	2022-12-14	14:38:20	14:45:23	418476	616d9ef881036dfbfd63d2f4	353437508	1	practice_z	5	practice_z	27	stimuli_target_diamondsquares.svg	stimuli_distractor_trianglediamonds.svg	6	yes	44	1	1472
6.6.0	win	2022-12-14	14:38:20	14:45:23	418476	616d9ef881036dfbfd63d2f4	353437508	1	practice_z	5	advance_on_keypress_ZEE	28	stimuli_target_diamondsquares.svg	stimuli_distractor_trianglediamonds.svg	6	yes	57	0	591
6.6.0	win	2022-12-14	14:38:20	14:45:27	422734	616d9ef881036dfbfd63d2f4	353437508	1	practice_z	5	practice_z	29	stimuli_distractor_diamondtriangles.svg	stimuli_target_circletriangles.svg	7	yes	0	0	2000
6.6.0	win	2022-12-14	14:38:20	14:45:27	422734	616d9ef881036dfbfd63d2f4	353437508	1	practice_z	5	advance_on_keypress_ZEE	30	stimuli_distractor_diamondtriangles.svg	stimuli_target_circletriangles.svg	7	yes	57	0	536
6.6.0	win	2022-12-14	14:38:20	14:45:31	426915	616d9ef881036dfbfd63d2f4	353437508	1	practice_z	5	practice_z	31	stimuli_distractor_diamondtriangles.svg	stimuli_distractor_diamondtriangles.svg	13	no	0	1	2000
6.6.0	win	2022-12-14	14:38:20	14:45:31	426915	616d9ef881036dfbfd63d2f4	353437508	1	practice_z	5	advance_on_keypress_ZEE	32	stimuli_distractor_diamondtriangles.svg	stimuli_distractor_diamondtriangles.svg	13	no	57	0	653
6.6.0	win	2022-12-14	14:38:20	14:45:46	441255	616d9ef881036dfbfd63d2f4	353437508	1	main_z	7	main_z	1	stimuli_target_diamondcircles.svg	stimuli_distractor_trianglediamonds.svg	19	yes	44	1	1220
6.6.0	win	2022-12-14	14:38:20	14:45:46	441255	616d9ef881036dfbfd63d2f4	353437508	1	main_z	7	advance_on_keypress_ZEE	2	stimuli_target_diamondcircles.svg	stimuli_distractor_trianglediamonds.svg	19	yes	57	0	1514
6.6.0	win	2022-12-14	14:38:20	14:45:50	445430	616d9ef881036dfbfd63d2f4	353437508	1	main_z	7	main_z	3	stimuli_distractor_diamondtriangles.svg	stimuli_distractor_diamondtriangles.svg	40	no	0	1	2000
6.6.0	win	2022-12-14	14:38:20	14:45:50	445430	616d9ef881036dfbfd63d2f4	353437508	1	main_z	7	advance_on_keypress_ZEE	4	stimuli_distractor_diamondtriangles.svg	stimuli_distractor_diamondtriangles.svg	40	no	57	0	806
6.6.0	win	2022-12-14	14:38:20	14:45:53	448111	616d9ef881036dfbfd63d2f4	353437508	1	main_z	7	main_z	5	stimuli_target_diamondcircles.svg	stimuli_distractor_diamondtriangles.svg	23	yes	44	1	1236
6.6.0	win	2022-12-14	14:38:20	14:45:53	448111	616d9ef881036dfbfd63d2f4	353437508	1	main_z	7	advance_on_keypress_ZEE	6	stimuli_target_diamondcircles.svg	stimuli_distractor_diamondtriangles.svg	23	yes	57	0	996
6.6.0	win	2022-12-14	14:38:20	14:45:56	451247	616d9ef881036dfbfd63d2f4	353437508	1	main_z	7	main_z	7	stimuli_target_squarediamonds.svg	stimuli_distractor_diamondtriangles.svg	8	yes	44	1	1478
6.6.0	win	2022-12-14	14:38:20	14:45:56	451247	616d9ef881036dfbfd63d2f4	353437508	1	main_z	7	advance_on_keypress_ZEE	8	stimuli_target_squarediamonds.svg	stimuli_distractor_diamondtriangles.svg	8	yes	57	0	571
6.6.0	win	2022-12-14	14:38:20	14:45:59	454462	616d9ef881036dfbfd63d2f4	353437508	1	main_z	7	main_z	9	stimuli_distractor_diamondtriangles.svg	stimuli_target_squaretriangles.svg	15	yes	0	0	2000
6.6.0	win	2022-12-14	14:38:20	14:45:59	454462	616d9ef881036dfbfd63d2f4	353437508	1	main_z	7	advance_on_keypress_ZEE	10	stimuli_distractor_diamondtriangles.svg	stimuli_target_squaretriangles.svg	15	yes	57	0	548
6.6.0	win	2022-12-14	14:38:20	14:46:02	457440	616d9ef881036dfbfd63d2f4	353437508	1	main_z	7	main_z	11	stimuli_distractor_trianglediamonds.svg	stimuli_target_trianglecircles.svg	25	yes	44	1	1784
6.6.0	win	2022-12-14	14:38:20	14:46:02	457440	616d9ef881036dfbfd63d2f4	353437508	1	main_z	7	advance_on_keypress_ZEE	12	stimuli_distractor_trianglediamonds.svg	stimuli_target_trianglecircles.svg	25	yes	57	0	631
6.6.0	win	2022-12-14	14:38:20	14:46:04	459890	616d9ef881036dfbfd63d2f4	353437508	1	main_z	7	main_z	13	stimuli_target_squarediamonds.svg	stimuli_distractor_trianglediamonds.svg	4	yes	44	1	1156
6.6.0	win	2022-12-14	14:38:20	14:46:04	459890	616d9ef881036dfbfd63d2f4	353437508	1	main_z	7	advance_on_keypress_ZEE	14	stimuli_target_squarediamonds.svg	stimuli_distractor_trianglediamonds.svg	4	yes	57	0	602
6.6.0	win	2022-12-14	14:38:20	14:46:07	462345	616d9ef881036dfbfd63d2f4	353437508	1	main_z	7	main_z	15	stimuli_distractor_diamondtriangles.svg	stimuli_target_diamondcircles.svg	31	yes	44	1	1203
6.6.0	win	2022-12-14	14:38:20	14:46:07	462345	616d9ef881036dfbfd63d2f4	353437508	1	main_z	7	advance_on_keypress_ZEE	16	stimuli_distractor_diamondtriangles.svg	stimuli_target_diamondcircles.svg	31	yes	57	0	1529
6.6.0	win	2022-12-14	14:38:20	14:46:10	465857	616d9ef881036dfbfd63d2f4	353437508	1	main_z	7	main_z	17	stimuli_distractor_trianglediamonds.svg	stimuli_target_diamondcircles.svg	27	yes	44	1	1319
6.6.0	win	2022-12-14	14:38:20	14:46:10	465857	616d9ef881036dfbfd63d2f4	353437508	1	main_z	7	advance_on_keypress_ZEE	18	stimuli_distractor_trianglediamonds.svg	stimuli_target_diamondcircles.svg	27	yes	57	0	1291
6.6.0	win	2022-12-14	14:38:20	14:46:13	468933	616d9ef881036dfbfd63d2f4	353437508	1	main_z	7	main_z	19	stimuli_distractor_diamondtriangles.svg	stimuli_target_squarediamonds.svg	16	yes	44	1	1133
6.6.0	win	2022-12-14	14:38:20	14:46:13	468933	616d9ef881036dfbfd63d2f4	353437508	1	main_z	7	advance_on_keypress_ZEE	20	stimuli_distractor_diamondtriangles.svg	stimuli_target_squarediamonds.svg	16	yes	57	0	1337
6.6.0	win	2022-12-14	14:38:20	14:46:17	472926	616d9ef881036dfbfd63d2f4	353437508	1	main_z	7	main_z	21	stimuli_distractor_trianglediamonds.svg	stimuli_target_diamondsquares.svg	28	yes	0	0	2000
6.6.0	win	2022-12-14	14:38:20	14:46:17	472926	616d9ef881036dfbfd63d2f4	353437508	1	main_z	7	advance_on_keypress_ZEE	22	stimuli_distractor_trianglediamonds.svg	stimuli_target_diamondsquares.svg	28	yes	57	0	740
6.6.0	win	2022-12-14	14:38:20	14:46:21	476305	616d9ef881036dfbfd63d2f4	353437508	1	main_z	7	main_z	23	stimuli_distractor_trianglediamonds.svg	stimuli_target_trianglesquares.svg	26	yes	0	0	2000
6.6.0	win	2022-12-14	14:38:20	14:46:21	476305	616d9ef881036dfbfd63d2f4	353437508	1	main_z	7	advance_on_keypress_ZEE	24	stimuli_distractor_trianglediamonds.svg	stimuli_target_trianglesquares.svg	26	yes	57	0	456
6.6.0	win	2022-12-14	14:38:20	14:46:24	479043	616d9ef881036dfbfd63d2f4	353437508	1	main_z	7	main_z	25	stimuli_target_trianglesquares.svg	stimuli_distractor_diamondtriangles.svg	22	yes	44	1	1644
6.6.0	win	2022-12-14	14:38:20	14:46:24	479043	616d9ef881036dfbfd63d2f4	353437508	1	main_z	7	advance_on_keypress_ZEE	26	stimuli_target_trianglesquares.svg	stimuli_distractor_diamondtriangles.svg	22	yes	57	0	1675
6.6.0	win	2022-12-14	14:38:20	14:46:27	482659	616d9ef881036dfbfd63d2f4	353437508	1	main_z	7	main_z	27	stimuli_distractor_diamondtriangles.svg	stimuli_target_circlediamonds.svg	14	yes	44	1	1296
6.6.0	win	2022-12-14	14:38:20	14:46:27	482659	616d9ef881036dfbfd63d2f4	353437508	1	main_z	7	advance_on_keypress_ZEE	28	stimuli_distractor_diamondtriangles.svg	stimuli_target_circlediamonds.svg	14	yes	57	0	851
6.6.0	win	2022-12-14	14:38:20	14:46:30	485531	616d9ef881036dfbfd63d2f4	353437508	1	main_z	7	main_z	29	stimuli_distractor_trianglediamonds.svg	stimuli_target_squaretriangles.svg	11	yes	44	1	1375
6.6.0	win	2022-12-14	14:38:20	14:46:30	485531	616d9ef881036dfbfd63d2f4	353437508	1	main_z	7	advance_on_keypress_ZEE	30	stimuli_distractor_trianglediamonds.svg	stimuli_target_squaretriangles.svg	11	yes	57	0	1233
6.6.0	win	2022-12-14	14:38:20	14:46:34	489077	616d9ef881036dfbfd63d2f4	353437508	1	main_z	7	main_z	31	stimuli_target_circletriangles.svg	stimuli_distractor_trianglediamonds.svg	1	yes	44	1	1660
6.6.0	win	2022-12-14	14:38:20	14:46:34	489077	616d9ef881036dfbfd63d2f4	353437508	1	main_z	7	advance_on_keypress_ZEE	32	stimuli_target_circletriangles.svg	stimuli_distractor_trianglediamonds.svg	1	yes	57	0	951
6.6.0	win	2022-12-14	14:38:20	14:46:37	492679	616d9ef881036dfbfd63d2f4	353437508	1	main_z	7	main_z	33	stimuli_target_trianglecircles.svg	stimuli_distractor_trianglediamonds.svg	17	yes	0	0	2000
6.6.0	win	2022-12-14	14:38:20	14:46:37	492679	616d9ef881036dfbfd63d2f4	353437508	1	main_z	7	advance_on_keypress_ZEE	34	stimuli_target_trianglecircles.svg	stimuli_distractor_trianglediamonds.svg	17	yes	57	0	1000
6.6.0	win	2022-12-14	14:38:20	14:46:41	496325	616d9ef881036dfbfd63d2f4	353437508	1	main_z	7	main_z	35	stimuli_distractor_diamondtriangles.svg	stimuli_target_trianglesquares.svg	30	yes	0	0	2000
6.6.0	win	2022-12-14	14:38:20	14:46:41	496325	616d9ef881036dfbfd63d2f4	353437508	1	main_z	7	advance_on_keypress_ZEE	36	stimuli_distractor_diamondtriangles.svg	stimuli_target_trianglesquares.svg	30	yes	57	0	993
6.6.0	win	2022-12-14	14:38:20	14:46:44	499075	616d9ef881036dfbfd63d2f4	353437508	1	main_z	7	main_z	37	stimuli_target_circlediamonds.svg	stimuli_distractor_trianglediamonds.svg	2	yes	44	1	1120
6.6.0	win	2022-12-14	14:38:20	14:46:44	499075	616d9ef881036dfbfd63d2f4	353437508	1	main_z	7	advance_on_keypress_ZEE	38	stimuli_target_circlediamonds.svg	stimuli_distractor_trianglediamonds.svg	2	yes	57	0	872
6.6.0	win	2022-12-14	14:38:20	14:46:47	502597	616d9ef881036dfbfd63d2f4	353437508	1	main_z	7	main_z	39	stimuli_distractor_diamondtriangles.svg	stimuli_target_diamondsquares.svg	32	yes	0	0	2000
6.6.0	win	2022-12-14	14:38:20	14:46:47	502597	616d9ef881036dfbfd63d2f4	353437508	1	main_z	7	advance_on_keypress_ZEE	40	stimuli_distractor_diamondtriangles.svg	stimuli_target_diamondsquares.svg	32	yes	57	0	568
6.6.0	win	2022-12-14	14:38:20	14:46:50	505808	616d9ef881036dfbfd63d2f4	353437508	1	main_z	7	main_z	41	stimuli_distractor_trianglediamonds.svg	stimuli_distractor_trianglediamonds.svg	34	no	0	1	2000
6.6.0	win	2022-12-14	14:38:20	14:46:50	505808	616d9ef881036dfbfd63d2f4	353437508	1	main_z	7	advance_on_keypress_ZEE	42	stimuli_distractor_trianglediamonds.svg	stimuli_distractor_trianglediamonds.svg	34	no	57	0	485
6.6.0	win	2022-12-14	14:38:20	14:46:53	508936	616d9ef881036dfbfd63d2f4	353437508	1	main_z	7	main_z	43	stimuli_distractor_diamondtriangles.svg	stimuli_distractor_diamondtriangles.svg	39	no	0	1	2000
6.6.0	win	2022-12-14	14:38:20	14:46:53	508936	616d9ef881036dfbfd63d2f4	353437508	1	main_z	7	advance_on_keypress_ZEE	44	stimuli_distractor_diamondtriangles.svg	stimuli_distractor_diamondtriangles.svg	39	no	57	0	551
6.6.0	win	2022-12-14	14:38:20	14:46:56	511191	616d9ef881036dfbfd63d2f4	353437508	1	main_z	7	main_z	45	stimuli_distractor_diamondtriangles.svg	stimuli_target_circletriangles.svg	13	yes	44	1	1060
6.6.0	win	2022-12-14	14:38:20	14:46:56	511191	616d9ef881036dfbfd63d2f4	353437508	1	main_z	7	advance_on_keypress_ZEE	46	stimuli_distractor_diamondtriangles.svg	stimuli_target_circletriangles.svg	13	yes	57	0	679
6.6.0	win	2022-12-14	14:38:20	14:46:58	513435	616d9ef881036dfbfd63d2f4	353437508	1	main_z	7	main_z	47	stimuli_distractor_trianglediamonds.svg	stimuli_target_squarediamonds.svg	12	yes	44	1	913
6.6.0	win	2022-12-14	14:38:20	14:46:58	513435	616d9ef881036dfbfd63d2f4	353437508	1	main_z	7	advance_on_keypress_ZEE	48	stimuli_distractor_trianglediamonds.svg	stimuli_target_squarediamonds.svg	12	yes	57	0	709
6.6.0	win	2022-12-14	14:38:20	14:47:01	516072	616d9ef881036dfbfd63d2f4	353437508	1	main_z	7	main_z	49	stimuli_target_squaretriangles.svg	stimuli_distractor_trianglediamonds.svg	3	yes	44	1	1291
6.6.0	win	2022-12-14	14:38:20	14:47:01	516072	616d9ef881036dfbfd63d2f4	353437508	1	main_z	7	advance_on_keypress_ZEE	50	stimuli_target_squaretriangles.svg	stimuli_distractor_trianglediamonds.svg	3	yes	57	0	1418
6.6.0	win	2022-12-14	14:38:20	14:47:04	519690	616d9ef881036dfbfd63d2f4	353437508	1	main_z	7	main_z	51	stimuli_target_trianglecircles.svg	stimuli_distractor_diamondtriangles.svg	21	yes	44	1	1549
6.6.0	win	2022-12-14	14:38:20	14:47:04	519690	616d9ef881036dfbfd63d2f4	353437508	1	main_z	7	advance_on_keypress_ZEE	52	stimuli_target_trianglecircles.svg	stimuli_distractor_diamondtriangles.svg	21	yes	57	0	762
6.6.0	win	2022-12-14	14:38:20	14:47:08	523102	616d9ef881036dfbfd63d2f4	353437508	1	main_z	7	main_z	53	stimuli_distractor_diamondtriangles.svg	stimuli_distractor_trianglediamonds.svg	38	no	0	1	2000
6.6.0	win	2022-12-14	14:38:20	14:47:08	523102	616d9ef881036dfbfd63d2f4	353437508	1	main_z	7	advance_on_keypress_ZEE	54	stimuli_distractor_diamondtriangles.svg	stimuli_distractor_trianglediamonds.svg	38	no	57	0	17761
6.6.0	win	2022-12-14	14:38:20	14:47:27	542337	616d9ef881036dfbfd63d2f4	353437508	1	main_z	7	main_z	55	stimuli_target_squaretriangles.svg	stimuli_distractor_diamondtriangles.svg	7	yes	44	1	831
6.6.0	win	2022-12-14	14:38:20	14:47:27	542337	616d9ef881036dfbfd63d2f4	353437508	1	main_z	7	advance_on_keypress_ZEE	56	stimuli_target_squaretriangles.svg	stimuli_distractor_diamondtriangles.svg	7	yes	57	0	952
6.6.0	win	2022-12-14	14:38:20	14:47:30	545949	616d9ef881036dfbfd63d2f4	353437508	1	main_z	7	main_z	57	stimuli_target_diamondsquares.svg	stimuli_distractor_trianglediamonds.svg	20	yes	0	0	2000
6.6.0	win	2022-12-14	14:38:20	14:47:30	545949	616d9ef881036dfbfd63d2f4	353437508	1	main_z	7	advance_on_keypress_ZEE	58	stimuli_target_diamondsquares.svg	stimuli_distractor_trianglediamonds.svg	20	yes	57	0	1350
6.6.0	win	2022-12-14	14:38:20	14:47:34	549946	616d9ef881036dfbfd63d2f4	353437508	1	main_z	7	main_z	59	stimuli_distractor_diamondtriangles.svg	stimuli_target_trianglecircles.svg	29	yes	0	0	2000
6.6.0	win	2022-12-14	14:38:20	14:47:34	549946	616d9ef881036dfbfd63d2f4	353437508	1	main_z	7	advance_on_keypress_ZEE	60	stimuli_distractor_diamondtriangles.svg	stimuli_target_trianglecircles.svg	29	yes	57	0	501
6.6.0	win	2022-12-14	14:38:20	14:47:36	551909	616d9ef881036dfbfd63d2f4	353437508	1	main_z	7	main_z	61	stimuli_distractor_trianglediamonds.svg	stimuli_target_circletriangles.svg	9	yes	44	1	819
6.6.0	win	2022-12-14	14:38:20	14:47:36	551909	616d9ef881036dfbfd63d2f4	353437508	1	main_z	7	advance_on_keypress_ZEE	62	stimuli_distractor_trianglediamonds.svg	stimuli_target_circletriangles.svg	9	yes	57	0	1560
6.6.0	win	2022-12-14	14:38:20	14:47:40	555517	616d9ef881036dfbfd63d2f4	353437508	1	main_z	7	main_z	63	stimuli_distractor_diamondtriangles.svg	stimuli_distractor_trianglediamonds.svg	37	no	44	0	1400
6.6.0	win	2022-12-14	14:38:20	14:47:40	555517	616d9ef881036dfbfd63d2f4	353437508	1	main_z	7	advance_on_keypress_ZEE	64	stimuli_distractor_diamondtriangles.svg	stimuli_distractor_trianglediamonds.svg	37	no	57	0	630
6.6.0	win	2022-12-14	14:38:20	14:47:42	557924	616d9ef881036dfbfd63d2f4	353437508	1	main_z	7	main_z	65	stimuli_target_circlediamonds.svg	stimuli_distractor_diamondtriangles.svg	6	yes	44	1	1114
6.6.0	win	2022-12-14	14:38:20	14:47:42	557924	616d9ef881036dfbfd63d2f4	353437508	1	main_z	7	advance_on_keypress_ZEE	66	stimuli_target_circlediamonds.svg	stimuli_distractor_diamondtriangles.svg	6	yes	57	0	778
6.6.0	win	2022-12-14	14:38:20	14:47:45	560467	616d9ef881036dfbfd63d2f4	353437508	1	main_z	7	main_z	67	stimuli_target_trianglesquares.svg	stimuli_distractor_trianglediamonds.svg	18	yes	44	1	1115
6.6.0	win	2022-12-14	14:38:20	14:47:45	560467	616d9ef881036dfbfd63d2f4	353437508	1	main_z	7	advance_on_keypress_ZEE	68	stimuli_target_trianglesquares.svg	stimuli_distractor_trianglediamonds.svg	18	yes	57	0	565
6.6.0	win	2022-12-14	14:38:20	14:47:47	562693	616d9ef881036dfbfd63d2f4	353437508	1	main_z	7	main_z	69	stimuli_target_circletriangles.svg	stimuli_distractor_diamondtriangles.svg	5	yes	44	1	998
6.6.0	win	2022-12-14	14:38:20	14:47:47	562693	616d9ef881036dfbfd63d2f4	353437508	1	main_z	7	advance_on_keypress_ZEE	70	stimuli_target_circletriangles.svg	stimuli_distractor_diamondtriangles.svg	5	yes	57	0	750
6.6.0	win	2022-12-14	14:38:20	14:47:51	566102	616d9ef881036dfbfd63d2f4	353437508	1	main_z	7	main_z	71	stimuli_distractor_trianglediamonds.svg	stimuli_distractor_trianglediamonds.svg	33	no	0	1	2000
6.6.0	win	2022-12-14	14:38:20	14:47:51	566102	616d9ef881036dfbfd63d2f4	353437508	1	main_z	7	advance_on_keypress_ZEE	72	stimuli_distractor_trianglediamonds.svg	stimuli_distractor_trianglediamonds.svg	33	no	57	0	508
6.6.0	win	2022-12-14	14:38:20	14:47:53	568482	616d9ef881036dfbfd63d2f4	353437508	1	main_z	7	main_z	73	stimuli_distractor_trianglediamonds.svg	stimuli_target_circlediamonds.svg	10	yes	44	1	1236
6.6.0	win	2022-12-14	14:38:20	14:47:53	568482	616d9ef881036dfbfd63d2f4	353437508	1	main_z	7	advance_on_keypress_ZEE	74	stimuli_distractor_trianglediamonds.svg	stimuli_target_circlediamonds.svg	10	yes	57	0	898
6.6.0	win	2022-12-14	14:38:20	14:47:57	572040	616d9ef881036dfbfd63d2f4	353437508	1	main_z	7	main_z	75	stimuli_distractor_trianglediamonds.svg	stimuli_distractor_diamondtriangles.svg	36	no	0	1	2000
6.6.0	win	2022-12-14	14:38:20	14:47:57	572040	616d9ef881036dfbfd63d2f4	353437508	1	main_z	7	advance_on_keypress_ZEE	76	stimuli_distractor_trianglediamonds.svg	stimuli_distractor_diamondtriangles.svg	36	no	57	0	491
6.6.0	win	2022-12-14	14:38:20	14:47:59	574418	616d9ef881036dfbfd63d2f4	353437508	1	main_z	7	main_z	77	stimuli_distractor_trianglediamonds.svg	stimuli_distractor_diamondtriangles.svg	35	no	44	0	1250
6.6.0	win	2022-12-14	14:38:20	14:47:59	574418	616d9ef881036dfbfd63d2f4	353437508	1	main_z	7	advance_on_keypress_ZEE	78	stimuli_distractor_trianglediamonds.svg	stimuli_distractor_diamondtriangles.svg	35	no	57	0	594
6.6.0	win	2022-12-14	14:38:20	14:48:02	577676	616d9ef881036dfbfd63d2f4	353437508	1	main_z	7	main_z	79	stimuli_target_diamondsquares.svg	stimuli_distractor_diamondtriangles.svg	24	yes	0	0	2000
6.6.0	win	2022-12-14	14:38:20	14:48:02	577676	616d9ef881036dfbfd63d2f4	353437508	1	main_z	7	advance_on_keypress_ZEE	80	stimuli_target_diamondsquares.svg	stimuli_distractor_diamondtriangles.svg	24	yes	57	0	458
6.6.0	win	2022-12-14	14:38:20	14:48:04	579951	616d9ef881036dfbfd63d2f4	353437508	1	main_z	7	main_z	81	stimuli_distractor_trianglediamonds.svg	stimuli_target_circletriangles.svg	9	yes	44	1	1180
6.6.0	win	2022-12-14	14:38:20	14:48:04	579951	616d9ef881036dfbfd63d2f4	353437508	1	main_z	7	advance_on_keypress_ZEE	82	stimuli_distractor_trianglediamonds.svg	stimuli_target_circletriangles.svg	9	yes	57	0	1031
6.6.0	win	2022-12-14	14:38:20	14:48:08	583631	616d9ef881036dfbfd63d2f4	353437508	1	main_z	7	main_z	83	stimuli_distractor_diamondtriangles.svg	stimuli_distractor_trianglediamonds.svg	38	no	0	1	2000
6.6.0	win	2022-12-14	14:38:20	14:48:08	583631	616d9ef881036dfbfd63d2f4	353437508	1	main_z	7	advance_on_keypress_ZEE	84	stimuli_distractor_diamondtriangles.svg	stimuli_distractor_trianglediamonds.svg	38	no	57	0	476
6.6.0	win	2022-12-14	14:38:20	14:48:11	586741	616d9ef881036dfbfd63d2f4	353437508	1	main_z	7	main_z	85	stimuli_distractor_diamondtriangles.svg	stimuli_distractor_diamondtriangles.svg	39	no	0	1	2000
6.6.0	win	2022-12-14	14:38:20	14:48:11	586741	616d9ef881036dfbfd63d2f4	353437508	1	main_z	7	advance_on_keypress_ZEE	86	stimuli_distractor_diamondtriangles.svg	stimuli_distractor_diamondtriangles.svg	39	no	57	0	653
6.6.0	win	2022-12-14	14:38:20	14:48:14	589254	616d9ef881036dfbfd63d2f4	353437508	1	main_z	7	main_z	87	stimuli_distractor_diamondtriangles.svg	stimuli_target_squarediamonds.svg	16	yes	44	1	1218
6.6.0	win	2022-12-14	14:38:20	14:48:14	589254	616d9ef881036dfbfd63d2f4	353437508	1	main_z	7	advance_on_keypress_ZEE	88	stimuli_distractor_diamondtriangles.svg	stimuli_target_squarediamonds.svg	16	yes	57	0	1033
6.6.0	win	2022-12-14	14:38:20	14:48:17	592710	616d9ef881036dfbfd63d2f4	353437508	1	main_z	7	main_z	89	stimuli_distractor_trianglediamonds.svg	stimuli_target_squarediamonds.svg	12	yes	44	1	1764
6.6.0	win	2022-12-14	14:38:20	14:48:17	592710	616d9ef881036dfbfd63d2f4	353437508	1	main_z	7	advance_on_keypress_ZEE	90	stimuli_distractor_trianglediamonds.svg	stimuli_target_squarediamonds.svg	12	yes	57	0	533
6.6.0	win	2022-12-14	14:38:20	14:48:20	595164	616d9ef881036dfbfd63d2f4	353437508	1	main_z	7	main_z	91	stimuli_distractor_trianglediamonds.svg	stimuli_target_trianglesquares.svg	26	yes	44	1	1273
6.6.0	win	2022-12-14	14:38:20	14:48:20	595164	616d9ef881036dfbfd63d2f4	353437508	1	main_z	7	advance_on_keypress_ZEE	92	stimuli_distractor_trianglediamonds.svg	stimuli_target_trianglesquares.svg	26	yes	57	0	2224
6.6.0	win	2022-12-14	14:38:20	14:48:23	598953	616d9ef881036dfbfd63d2f4	353437508	1	main_z	7	main_z	93	stimuli_distractor_diamondtriangles.svg	stimuli_target_trianglecircles.svg	29	yes	44	1	915
6.6.0	win	2022-12-14	14:38:20	14:48:23	598953	616d9ef881036dfbfd63d2f4	353437508	1	main_z	7	advance_on_keypress_ZEE	94	stimuli_distractor_diamondtriangles.svg	stimuli_target_trianglecircles.svg	29	yes	57	0	832
6.6.0	win	2022-12-14	14:38:20	14:48:26	601399	616d9ef881036dfbfd63d2f4	353437508	1	main_z	7	main_z	95	stimuli_target_trianglesquares.svg	stimuli_distractor_diamondtriangles.svg	22	yes	44	1	952
6.6.0	win	2022-12-14	14:38:20	14:48:26	601399	616d9ef881036dfbfd63d2f4	353437508	1	main_z	7	advance_on_keypress_ZEE	96	stimuli_target_trianglesquares.svg	stimuli_distractor_diamondtriangles.svg	22	yes	57	0	1715
6.6.0	win	2022-12-14	14:38:20	14:48:29	604508	616d9ef881036dfbfd63d2f4	353437508	1	main_z	7	main_z	97	stimuli_target_diamondsquares.svg	stimuli_distractor_diamondtriangles.svg	24	yes	44	1	750
6.6.0	win	2022-12-14	14:38:20	14:48:29	604508	616d9ef881036dfbfd63d2f4	353437508	1	main_z	7	advance_on_keypress_ZEE	98	stimuli_target_diamondsquares.svg	stimuli_distractor_diamondtriangles.svg	24	yes	57	0	1403
6.6.0	win	2022-12-14	14:38:20	14:48:33	608568	616d9ef881036dfbfd63d2f4	353437508	1	main_z	7	main_z	99	stimuli_distractor_diamondtriangles.svg	stimuli_target_squaretriangles.svg	15	yes	0	0	2000
6.6.0	win	2022-12-14	14:38:20	14:48:33	608568	616d9ef881036dfbfd63d2f4	353437508	1	main_z	7	advance_on_keypress_ZEE	100	stimuli_distractor_diamondtriangles.svg	stimuli_target_squaretriangles.svg	15	yes	57	0	396
6.6.0	win	2022-12-14	14:38:20	14:48:35	610560	616d9ef881036dfbfd63d2f4	353437508	1	main_z	7	main_z	101	stimuli_target_circletriangles.svg	stimuli_distractor_diamondtriangles.svg	5	yes	44	1	949
6.6.0	win	2022-12-14	14:38:20	14:48:35	610560	616d9ef881036dfbfd63d2f4	353437508	1	main_z	7	advance_on_keypress_ZEE	102	stimuli_target_circletriangles.svg	stimuli_distractor_diamondtriangles.svg	5	yes	57	0	883
6.6.0	win	2022-12-14	14:38:20	14:48:39	614105	616d9ef881036dfbfd63d2f4	353437508	1	main_z	7	main_z	103	stimuli_distractor_trianglediamonds.svg	stimuli_target_squaretriangles.svg	11	yes	0	0	2000
6.6.0	win	2022-12-14	14:38:20	14:48:39	614105	616d9ef881036dfbfd63d2f4	353437508	1	main_z	7	advance_on_keypress_ZEE	104	stimuli_distractor_trianglediamonds.svg	stimuli_target_squaretriangles.svg	11	yes	57	0	838
6.6.0	win	2022-12-14	14:38:20	14:48:42	617043	616d9ef881036dfbfd63d2f4	353437508	1	main_z	7	main_z	105	stimuli_distractor_diamondtriangles.svg	stimuli_target_trianglesquares.svg	30	yes	44	1	1443
6.6.0	win	2022-12-14	14:38:20	14:48:42	617043	616d9ef881036dfbfd63d2f4	353437508	1	main_z	7	advance_on_keypress_ZEE	106	stimuli_distractor_diamondtriangles.svg	stimuli_target_trianglesquares.svg	30	yes	57	0	1419
6.6.0	win	2022-12-14	14:38:20	14:48:45	620106	616d9ef881036dfbfd63d2f4	353437508	1	main_z	7	main_z	107	stimuli_target_diamondcircles.svg	stimuli_distractor_trianglediamonds.svg	19	yes	44	1	995
6.6.0	win	2022-12-14	14:38:20	14:48:45	620106	616d9ef881036dfbfd63d2f4	353437508	1	main_z	7	advance_on_keypress_ZEE	108	stimuli_target_diamondcircles.svg	stimuli_distractor_trianglediamonds.svg	19	yes	57	0	745
6.6.0	win	2022-12-14	14:38:20	14:48:48	623503	616d9ef881036dfbfd63d2f4	353437508	1	main_z	7	main_z	109	stimuli_distractor_trianglediamonds.svg	stimuli_target_trianglecircles.svg	25	yes	0	0	2000
6.6.0	win	2022-12-14	14:38:20	14:48:48	623503	616d9ef881036dfbfd63d2f4	353437508	1	main_z	7	advance_on_keypress_ZEE	110	stimuli_distractor_trianglediamonds.svg	stimuli_target_trianglecircles.svg	25	yes	57	0	771
6.6.0	win	2022-12-14	14:38:20	14:48:50	625908	616d9ef881036dfbfd63d2f4	353437508	1	main_z	7	main_z	111	stimuli_distractor_diamondtriangles.svg	stimuli_target_circlediamonds.svg	14	yes	44	1	993
6.6.0	win	2022-12-14	14:38:20	14:48:50	625908	616d9ef881036dfbfd63d2f4	353437508	1	main_z	7	advance_on_keypress_ZEE	112	stimuli_distractor_diamondtriangles.svg	stimuli_target_circlediamonds.svg	14	yes	57	0	2359
6.6.0	win	2022-12-14	14:38:20	14:48:55	630880	616d9ef881036dfbfd63d2f4	353437508	1	main_z	7	main_z	113	stimuli_target_diamondcircles.svg	stimuli_distractor_diamondtriangles.svg	23	yes	44	1	1967
6.6.0	win	2022-12-14	14:38:20	14:48:55	630880	616d9ef881036dfbfd63d2f4	353437508	1	main_z	7	advance_on_keypress_ZEE	114	stimuli_target_diamondcircles.svg	stimuli_distractor_diamondtriangles.svg	23	yes	57	0	987
6.6.0	win	2022-12-14	14:38:20	14:48:59	634166	616d9ef881036dfbfd63d2f4	353437508	1	main_z	7	main_z	115	stimuli_target_circlediamonds.svg	stimuli_distractor_diamondtriangles.svg	6	yes	44	1	1657
6.6.0	win	2022-12-14	14:38:20	14:48:59	634166	616d9ef881036dfbfd63d2f4	353437508	1	main_z	7	advance_on_keypress_ZEE	116	stimuli_target_circlediamonds.svg	stimuli_distractor_diamondtriangles.svg	6	yes	57	0	620
6.6.0	win	2022-12-14	14:38:20	14:49:01	636680	616d9ef881036dfbfd63d2f4	353437508	1	main_z	7	main_z	117	stimuli_distractor_trianglediamonds.svg	stimuli_distractor_diamondtriangles.svg	35	no	44	0	1242
6.6.0	win	2022-12-14	14:38:20	14:49:01	636680	616d9ef881036dfbfd63d2f4	353437508	1	main_z	7	advance_on_keypress_ZEE	118	stimuli_distractor_trianglediamonds.svg	stimuli_distractor_diamondtriangles.svg	35	no	57	0	562
6.6.0	win	2022-12-14	14:38:20	14:49:04	639171	616d9ef881036dfbfd63d2f4	353437508	1	main_z	7	main_z	119	stimuli_target_diamondsquares.svg	stimuli_distractor_trianglediamonds.svg	20	yes	44	1	1277
6.6.0	win	2022-12-14	14:38:20	14:49:04	639171	616d9ef881036dfbfd63d2f4	353437508	1	main_z	7	advance_on_keypress_ZEE	120	stimuli_target_diamondsquares.svg	stimuli_distractor_trianglediamonds.svg	20	yes	57	0	592
6.6.0	win	2022-12-14	14:38:20	14:49:06	641189	616d9ef881036dfbfd63d2f4	353437508	1	main_z	7	main_z	121	stimuli_distractor_diamondtriangles.svg	stimuli_target_circletriangles.svg	13	yes	44	1	787
6.6.0	win	2022-12-14	14:38:20	14:49:06	641189	616d9ef881036dfbfd63d2f4	353437508	1	main_z	7	advance_on_keypress_ZEE	122	stimuli_distractor_diamondtriangles.svg	stimuli_target_circletriangles.svg	13	yes	57	0	784
6.6.0	win	2022-12-14	14:38:20	14:49:08	643678	616d9ef881036dfbfd63d2f4	353437508	1	main_z	7	main_z	123	stimuli_target_trianglesquares.svg	stimuli_distractor_trianglediamonds.svg	18	yes	44	1	1051
6.6.0	win	2022-12-14	14:38:20	14:49:08	643678	616d9ef881036dfbfd63d2f4	353437508	1	main_z	7	advance_on_keypress_ZEE	124	stimuli_target_trianglesquares.svg	stimuli_distractor_trianglediamonds.svg	18	yes	57	0	560
6.6.0	win	2022-12-14	14:38:20	14:49:11	646146	616d9ef881036dfbfd63d2f4	353437508	1	main_z	7	main_z	125	stimuli_distractor_diamondtriangles.svg	stimuli_target_diamondcircles.svg	31	yes	44	1	1260
6.6.0	win	2022-12-14	14:38:20	14:49:11	646146	616d9ef881036dfbfd63d2f4	353437508	1	main_z	7	advance_on_keypress_ZEE	126	stimuli_distractor_diamondtriangles.svg	stimuli_target_diamondcircles.svg	31	yes	57	0	548
6.6.0	win	2022-12-14	14:38:20	14:49:13	648622	616d9ef881036dfbfd63d2f4	353437508	1	main_z	7	main_z	127	stimuli_distractor_diamondtriangles.svg	stimuli_target_diamondsquares.svg	32	yes	44	1	1279
6.6.0	win	2022-12-14	14:38:20	14:49:13	648622	616d9ef881036dfbfd63d2f4	353437508	1	main_z	7	advance_on_keypress_ZEE	128	stimuli_distractor_diamondtriangles.svg	stimuli_target_diamondsquares.svg	32	yes	57	0	793
6.6.0	win	2022-12-14	14:38:20	14:49:15	650912	616d9ef881036dfbfd63d2f4	353437508	1	main_z	7	main_z	129	stimuli_target_squaretriangles.svg	stimuli_distractor_trianglediamonds.svg	3	yes	44	1	859
6.6.0	win	2022-12-14	14:38:20	14:49:15	650912	616d9ef881036dfbfd63d2f4	353437508	1	main_z	7	advance_on_keypress_ZEE	130	stimuli_target_squaretriangles.svg	stimuli_distractor_trianglediamonds.svg	3	yes	57	0	534
6.6.0	win	2022-12-14	14:38:20	14:49:19	654094	616d9ef881036dfbfd63d2f4	353437508	1	main_z	7	main_z	131	stimuli_distractor_trianglediamonds.svg	stimuli_distractor_trianglediamonds.svg	33	no	0	1	2000
6.6.0	win	2022-12-14	14:38:20	14:49:19	654094	616d9ef881036dfbfd63d2f4	353437508	1	main_z	7	advance_on_keypress_ZEE	132	stimuli_distractor_trianglediamonds.svg	stimuli_distractor_trianglediamonds.svg	33	no	57	0	596
6.6.0	win	2022-12-14	14:38:20	14:49:21	656417	616d9ef881036dfbfd63d2f4	353437508	1	main_z	7	main_z	133	stimuli_target_trianglecircles.svg	stimuli_distractor_trianglediamonds.svg	17	yes	44	1	1079
6.6.0	win	2022-12-14	14:38:20	14:49:21	656417	616d9ef881036dfbfd63d2f4	353437508	1	main_z	7	advance_on_keypress_ZEE	134	stimuli_target_trianglecircles.svg	stimuli_distractor_trianglediamonds.svg	17	yes	57	0	869
6.6.0	win	2022-12-14	14:38:20	14:49:24	659901	616d9ef881036dfbfd63d2f4	353437508	1	main_z	7	main_z	135	stimuli_target_trianglecircles.svg	stimuli_distractor_diamondtriangles.svg	21	yes	44	1	1971
6.6.0	win	2022-12-14	14:38:20	14:49:24	659901	616d9ef881036dfbfd63d2f4	353437508	1	main_z	7	advance_on_keypress_ZEE	136	stimuli_target_trianglecircles.svg	stimuli_distractor_diamondtriangles.svg	21	yes	57	0	696
6.6.0	win	2022-12-14	14:38:20	14:49:28	663259	616d9ef881036dfbfd63d2f4	353437508	1	main_z	7	main_z	137	stimuli_distractor_trianglediamonds.svg	stimuli_distractor_trianglediamonds.svg	34	no	0	1	2000
6.6.0	win	2022-12-14	14:38:20	14:49:28	663259	616d9ef881036dfbfd63d2f4	353437508	1	main_z	7	advance_on_keypress_ZEE	138	stimuli_distractor_trianglediamonds.svg	stimuli_distractor_trianglediamonds.svg	34	no	57	0	754
6.6.0	win	2022-12-14	14:38:20	14:49:30	665485	616d9ef881036dfbfd63d2f4	353437508	1	main_z	7	main_z	139	stimuli_target_circletriangles.svg	stimuli_distractor_trianglediamonds.svg	1	yes	44	1	830
6.6.0	win	2022-12-14	14:38:20	14:49:30	665485	616d9ef881036dfbfd63d2f4	353437508	1	main_z	7	advance_on_keypress_ZEE	140	stimuli_target_circletriangles.svg	stimuli_distractor_trianglediamonds.svg	1	yes	57	0	1251
6.6.0	win	2022-12-14	14:38:20	14:49:33	668851	616d9ef881036dfbfd63d2f4	353437508	1	main_z	7	main_z	141	stimuli_target_circlediamonds.svg	stimuli_distractor_trianglediamonds.svg	2	yes	44	1	1453
6.6.0	win	2022-12-14	14:38:20	14:49:33	668851	616d9ef881036dfbfd63d2f4	353437508	1	main_z	7	advance_on_keypress_ZEE	142	stimuli_target_circlediamonds.svg	stimuli_distractor_trianglediamonds.svg	2	yes	57	0	988
6.6.0	win	2022-12-14	14:38:20	14:49:37	672492	616d9ef881036dfbfd63d2f4	353437508	1	main_z	7	main_z	143	stimuli_distractor_trianglediamonds.svg	stimuli_target_diamondcircles.svg	27	yes	0	0	2000
6.6.0	win	2022-12-14	14:38:20	14:49:37	672492	616d9ef881036dfbfd63d2f4	353437508	1	main_z	7	advance_on_keypress_ZEE	144	stimuli_distractor_trianglediamonds.svg	stimuli_target_diamondcircles.svg	27	yes	57	0	655
6.6.0	win	2022-12-14	14:38:20	14:49:39	674595	616d9ef881036dfbfd63d2f4	353437508	1	main_z	7	main_z	145	stimuli_target_squaretriangles.svg	stimuli_distractor_diamondtriangles.svg	7	yes	44	1	808
6.6.0	win	2022-12-14	14:38:20	14:49:39	674595	616d9ef881036dfbfd63d2f4	353437508	1	main_z	7	advance_on_keypress_ZEE	146	stimuli_target_squaretriangles.svg	stimuli_distractor_diamondtriangles.svg	7	yes	57	0	586
6.6.0	win	2022-12-14	14:38:20	14:49:41	676825	616d9ef881036dfbfd63d2f4	353437508	1	main_z	7	main_z	147	stimuli_target_squarediamonds.svg	stimuli_distractor_diamondtriangles.svg	8	yes	44	1	999
6.6.0	win	2022-12-14	14:38:20	14:49:41	676825	616d9ef881036dfbfd63d2f4	353437508	1	main_z	7	advance_on_keypress_ZEE	148	stimuli_target_squarediamonds.svg	stimuli_distractor_diamondtriangles.svg	8	yes	57	0	590
6.6.0	win	2022-12-14	14:38:20	14:49:45	680068	616d9ef881036dfbfd63d2f4	353437508	1	main_z	7	main_z	149	stimuli_distractor_diamondtriangles.svg	stimuli_distractor_diamondtriangles.svg	40	no	0	1	2000
6.6.0	win	2022-12-14	14:38:20	14:49:45	680068	616d9ef881036dfbfd63d2f4	353437508	1	main_z	7	advance_on_keypress_ZEE	150	stimuli_distractor_diamondtriangles.svg	stimuli_distractor_diamondtriangles.svg	40	no	57	0	684
6.6.0	win	2022-12-14	14:38:20	14:49:48	683396	616d9ef881036dfbfd63d2f4	353437508	1	main_z	7	main_z	151	stimuli_distractor_trianglediamonds.svg	stimuli_target_diamondsquares.svg	28	yes	0	0	2000
6.6.0	win	2022-12-14	14:38:20	14:49:48	683396	616d9ef881036dfbfd63d2f4	353437508	1	main_z	7	advance_on_keypress_ZEE	152	stimuli_distractor_trianglediamonds.svg	stimuli_target_diamondsquares.svg	28	yes	57	0	1201
6.6.0	win	2022-12-14	14:38:20	14:49:52	687243	616d9ef881036dfbfd63d2f4	353437508	1	main_z	7	main_z	153	stimuli_distractor_trianglediamonds.svg	stimuli_distractor_diamondtriangles.svg	36	no	0	1	2000
6.6.0	win	2022-12-14	14:38:20	14:49:52	687243	616d9ef881036dfbfd63d2f4	353437508	1	main_z	7	advance_on_keypress_ZEE	154	stimuli_distractor_trianglediamonds.svg	stimuli_distractor_diamondtriangles.svg	36	no	57	0	403
6.6.0	win	2022-12-14	14:38:20	14:49:54	689254	616d9ef881036dfbfd63d2f4	353437508	1	main_z	7	main_z	155	stimuli_target_squarediamonds.svg	stimuli_distractor_trianglediamonds.svg	4	yes	44	1	967
6.6.0	win	2022-12-14	14:38:20	14:49:54	689254	616d9ef881036dfbfd63d2f4	353437508	1	main_z	7	advance_on_keypress_ZEE	156	stimuli_target_squarediamonds.svg	stimuli_distractor_trianglediamonds.svg	4	yes	57	0	603
6.6.0	win	2022-12-14	14:38:20	14:49:57	692511	616d9ef881036dfbfd63d2f4	353437508	1	main_z	7	main_z	157	stimuli_distractor_diamondtriangles.svg	stimuli_distractor_trianglediamonds.svg	37	no	0	1	2000
6.6.0	win	2022-12-14	14:38:20	14:49:57	692511	616d9ef881036dfbfd63d2f4	353437508	1	main_z	7	advance_on_keypress_ZEE	158	stimuli_distractor_diamondtriangles.svg	stimuli_distractor_trianglediamonds.svg	37	no	57	0	501
6.6.0	win	2022-12-14	14:38:20	14:49:59	694900	616d9ef881036dfbfd63d2f4	353437508	1	main_z	7	main_z	159	stimuli_distractor_trianglediamonds.svg	stimuli_target_circlediamonds.svg	10	yes	44	1	1244
6.6.0	win	2022-12-14	14:38:20	14:49:59	694900	616d9ef881036dfbfd63d2f4	353437508	1	main_z	7	advance_on_keypress_ZEE	160	stimuli_distractor_trianglediamonds.svg	stimuli_target_circlediamonds.svg	10	yes	57	0	911
6.6.0	win	2022-12-14	14:38:20	14:50:17	712414	616d9ef881036dfbfd63d2f4	353437508	1	practice_slash	9	practice_slash	1	stimuli_distractor_trianglediamonds.svg	stimuli_target_squarediamonds.svg	11	yes	0	0	2000
6.6.0	win	2022-12-14	14:38:20	14:50:17	712414	616d9ef881036dfbfd63d2f4	353437508	1	practice_slash	9	advance_on_keypress_SLASH	2	stimuli_distractor_trianglediamonds.svg	stimuli_target_squarediamonds.svg	11	yes	57	0	798
6.6.0	win	2022-12-14	14:38:20	14:50:21	716879	616d9ef881036dfbfd63d2f4	353437508	1	practice_slash	9	practice_slash	3	stimuli_target_circlediamonds.svg	stimuli_distractor_diamondtriangles.svg	1	yes	0	0	2000
6.6.0	win	2022-12-14	14:38:20	14:50:21	716879	616d9ef881036dfbfd63d2f4	353437508	1	practice_slash	9	advance_on_keypress_SLASH	4	stimuli_target_circlediamonds.svg	stimuli_distractor_diamondtriangles.svg	1	yes	57	0	773
6.6.0	win	2022-12-14	14:38:20	14:50:26	721295	616d9ef881036dfbfd63d2f4	353437508	1	practice_slash	9	practice_slash	5	stimuli_distractor_diamondtriangles.svg	stimuli_target_circletriangles.svg	7	yes	0	0	2000
6.6.0	win	2022-12-14	14:38:20	14:50:26	721295	616d9ef881036dfbfd63d2f4	353437508	1	practice_slash	9	advance_on_keypress_SLASH	6	stimuli_distractor_diamondtriangles.svg	stimuli_target_circletriangles.svg	7	yes	57	0	2232
6.6.0	win	2022-12-14	14:38:20	14:50:32	727183	616d9ef881036dfbfd63d2f4	353437508	1	practice_slash	9	practice_slash	7	stimuli_target_squarediamonds.svg	stimuli_distractor_diamondtriangles.svg	2	yes	0	0	2000
6.6.0	win	2022-12-14	14:38:20	14:50:32	727183	616d9ef881036dfbfd63d2f4	353437508	1	practice_slash	9	advance_on_keypress_SLASH	8	stimuli_target_squarediamonds.svg	stimuli_distractor_diamondtriangles.svg	2	yes	57	0	13596
6.6.0	win	2022-12-14	14:38:20	14:50:48	743231	616d9ef881036dfbfd63d2f4	353437508	1	practice_slash	9	practice_slash	9	stimuli_distractor_diamondtriangles.svg	stimuli_target_diamondcircles.svg	8	yes	53	1	805
6.6.0	win	2022-12-14	14:38:20	14:50:48	743231	616d9ef881036dfbfd63d2f4	353437508	1	practice_slash	9	advance_on_keypress_SLASH	10	stimuli_distractor_diamondtriangles.svg	stimuli_target_diamondcircles.svg	8	yes	57	0	1405
6.6.0	win	2022-12-14	14:38:20	14:50:52	747034	616d9ef881036dfbfd63d2f4	353437508	1	practice_slash	9	practice_slash	11	stimuli_distractor_trianglediamonds.svg	stimuli_target_circlediamonds.svg	10	yes	53	1	745
6.6.0	win	2022-12-14	14:38:20	14:50:52	747034	616d9ef881036dfbfd63d2f4	353437508	1	practice_slash	9	advance_on_keypress_SLASH	12	stimuli_distractor_trianglediamonds.svg	stimuli_target_circlediamonds.svg	10	yes	57	0	433
6.6.0	win	2022-12-14	14:38:20	14:50:55	750219	616d9ef881036dfbfd63d2f4	353437508	1	practice_slash	9	practice_slash	13	stimuli_target_squarediamonds.svg	stimuli_distractor_trianglediamonds.svg	5	yes	53	1	1103
6.6.0	win	2022-12-14	14:38:20	14:50:55	750219	616d9ef881036dfbfd63d2f4	353437508	1	practice_slash	9	advance_on_keypress_SLASH	14	stimuli_target_squarediamonds.svg	stimuli_distractor_trianglediamonds.svg	5	yes	57	0	606
6.6.0	win	2022-12-14	14:38:20	14:50:58	753141	616d9ef881036dfbfd63d2f4	353437508	1	practice_slash	9	practice_slash	15	stimuli_target_circlediamonds.svg	stimuli_distractor_trianglediamonds.svg	4	yes	53	1	662
6.6.0	win	2022-12-14	14:38:20	14:50:58	753141	616d9ef881036dfbfd63d2f4	353437508	1	practice_slash	9	advance_on_keypress_SLASH	16	stimuli_target_circlediamonds.svg	stimuli_distractor_trianglediamonds.svg	4	yes	57	0	562
6.6.0	win	2022-12-14	14:38:20	14:51:02	757371	616d9ef881036dfbfd63d2f4	353437508	1	practice_slash	9	practice_slash	17	stimuli_distractor_trianglediamonds.svg	stimuli_distractor_trianglediamonds.svg	15	no	0	1	2000
6.6.0	win	2022-12-14	14:38:20	14:51:02	757371	616d9ef881036dfbfd63d2f4	353437508	1	practice_slash	9	advance_on_keypress_SLASH	18	stimuli_distractor_trianglediamonds.svg	stimuli_distractor_trianglediamonds.svg	15	no	57	0	433
6.6.0	win	2022-12-14	14:38:20	14:51:05	760297	616d9ef881036dfbfd63d2f4	353437508	1	practice_slash	9	practice_slash	19	stimuli_distractor_diamondtriangles.svg	stimuli_target_trianglecircles.svg	9	yes	53	1	844
6.6.0	win	2022-12-14	14:38:20	14:51:05	760297	616d9ef881036dfbfd63d2f4	353437508	1	practice_slash	9	advance_on_keypress_SLASH	20	stimuli_distractor_diamondtriangles.svg	stimuli_target_trianglecircles.svg	9	yes	57	0	434
6.6.0	win	2022-12-14	14:38:20	14:51:09	764379	616d9ef881036dfbfd63d2f4	353437508	1	practice_slash	9	practice_slash	21	stimuli_distractor_diamondtriangles.svg	stimuli_distractor_trianglediamonds.svg	14	no	0	1	2000
6.6.0	win	2022-12-14	14:38:20	14:51:09	764379	616d9ef881036dfbfd63d2f4	353437508	1	practice_slash	9	advance_on_keypress_SLASH	22	stimuli_distractor_diamondtriangles.svg	stimuli_distractor_trianglediamonds.svg	14	no	57	0	555
6.6.0	win	2022-12-14	14:38:20	14:51:13	768577	616d9ef881036dfbfd63d2f4	353437508	1	practice_slash	9	practice_slash	23	stimuli_target_diamondsquares.svg	stimuli_distractor_diamondtriangles.svg	3	yes	0	0	2000
6.6.0	win	2022-12-14	14:38:20	14:51:13	768577	616d9ef881036dfbfd63d2f4	353437508	1	practice_slash	9	advance_on_keypress_SLASH	24	stimuli_target_diamondsquares.svg	stimuli_distractor_diamondtriangles.svg	3	yes	57	0	422
6.6.0	win	2022-12-14	14:38:20	14:51:17	772641	616d9ef881036dfbfd63d2f4	353437508	1	practice_slash	9	practice_slash	25	stimuli_distractor_diamondtriangles.svg	stimuli_distractor_diamondtriangles.svg	13	no	0	1	2000
6.6.0	win	2022-12-14	14:38:20	14:51:17	772641	616d9ef881036dfbfd63d2f4	353437508	1	practice_slash	9	advance_on_keypress_SLASH	26	stimuli_distractor_diamondtriangles.svg	stimuli_distractor_diamondtriangles.svg	13	no	57	0	502
6.6.0	win	2022-12-14	14:38:20	14:51:21	776336	616d9ef881036dfbfd63d2f4	353437508	1	practice_slash	9	practice_slash	27	stimuli_target_diamondsquares.svg	stimuli_distractor_trianglediamonds.svg	6	yes	53	1	1547
6.6.0	win	2022-12-14	14:38:20	14:51:21	776336	616d9ef881036dfbfd63d2f4	353437508	1	practice_slash	9	advance_on_keypress_SLASH	28	stimuli_target_diamondsquares.svg	stimuli_distractor_trianglediamonds.svg	6	yes	57	0	525
6.6.0	win	2022-12-14	14:38:20	14:51:25	780519	616d9ef881036dfbfd63d2f4	353437508	1	practice_slash	9	practice_slash	29	stimuli_distractor_trianglediamonds.svg	stimuli_distractor_diamondtriangles.svg	16	no	0	1	2000
6.6.0	win	2022-12-14	14:38:20	14:51:25	780519	616d9ef881036dfbfd63d2f4	353437508	1	practice_slash	9	advance_on_keypress_SLASH	30	stimuli_distractor_trianglediamonds.svg	stimuli_distractor_diamondtriangles.svg	16	no	57	0	503
6.6.0	win	2022-12-14	14:38:20	14:51:29	784244	616d9ef881036dfbfd63d2f4	353437508	1	practice_slash	9	practice_slash	31	stimuli_distractor_trianglediamonds.svg	stimuli_target_diamondcircles.svg	12	yes	53	1	1577
6.6.0	win	2022-12-14	14:38:20	14:51:29	784244	616d9ef881036dfbfd63d2f4	353437508	1	practice_slash	9	advance_on_keypress_SLASH	32	stimuli_distractor_trianglediamonds.svg	stimuli_target_diamondcircles.svg	12	yes	57	0	451
6.6.0	win	2022-12-14	14:38:20	14:51:35	790221	616d9ef881036dfbfd63d2f4	353437508	1	main_slash	11	main_slash	1	stimuli_target_squarediamonds.svg	stimuli_distractor_trianglediamonds.svg	4	yes	53	1	829
6.6.0	win	2022-12-14	14:38:20	14:51:35	790221	616d9ef881036dfbfd63d2f4	353437508	1	main_slash	11	advance_on_keypress_SLASH	2	stimuli_target_squarediamonds.svg	stimuli_distractor_trianglediamonds.svg	4	yes	57	0	1353
6.6.0	win	2022-12-14	14:38:20	14:51:39	794234	616d9ef881036dfbfd63d2f4	353437508	1	main_slash	11	main_slash	3	stimuli_distractor_trianglediamonds.svg	stimuli_distractor_trianglediamonds.svg	33	no	0	1	2000
6.6.0	win	2022-12-14	14:38:20	14:51:39	794234	616d9ef881036dfbfd63d2f4	353437508	1	main_slash	11	advance_on_keypress_SLASH	4	stimuli_distractor_trianglediamonds.svg	stimuli_distractor_trianglediamonds.svg	33	no	57	0	445
6.6.0	win	2022-12-14	14:38:20	14:51:41	796363	616d9ef881036dfbfd63d2f4	353437508	1	main_slash	11	main_slash	5	stimuli_target_circlediamonds.svg	stimuli_distractor_trianglediamonds.svg	2	yes	53	1	1035
6.6.0	win	2022-12-14	14:38:20	14:51:41	796363	616d9ef881036dfbfd63d2f4	353437508	1	main_slash	11	advance_on_keypress_SLASH	6	stimuli_target_circlediamonds.svg	stimuli_distractor_trianglediamonds.svg	2	yes	57	0	462
6.6.0	win	2022-12-14	14:38:20	14:51:43	798265	616d9ef881036dfbfd63d2f4	353437508	1	main_slash	11	main_slash	7	stimuli_target_trianglecircles.svg	stimuli_distractor_trianglediamonds.svg	17	yes	53	1	780
6.6.0	win	2022-12-14	14:38:20	14:51:43	798265	616d9ef881036dfbfd63d2f4	353437508	1	main_slash	11	advance_on_keypress_SLASH	8	stimuli_target_trianglecircles.svg	stimuli_distractor_trianglediamonds.svg	17	yes	57	0	423
6.6.0	win	2022-12-14	14:38:20	14:51:45	800119	616d9ef881036dfbfd63d2f4	353437508	1	main_slash	11	main_slash	9	stimuli_distractor_trianglediamonds.svg	stimuli_target_trianglesquares.svg	26	yes	53	1	793
6.6.0	win	2022-12-14	14:38:20	14:51:45	800119	616d9ef881036dfbfd63d2f4	353437508	1	main_slash	11	advance_on_keypress_SLASH	10	stimuli_distractor_trianglediamonds.svg	stimuli_target_trianglesquares.svg	26	yes	57	0	333
6.6.0	win	2022-12-14	14:38:20	14:51:48	803099	616d9ef881036dfbfd63d2f4	353437508	1	main_slash	11	main_slash	11	stimuli_distractor_trianglediamonds.svg	stimuli_distractor_diamondtriangles.svg	35	no	0	1	2000
6.6.0	win	2022-12-14	14:38:20	14:51:48	803099	616d9ef881036dfbfd63d2f4	353437508	1	main_slash	11	advance_on_keypress_SLASH	12	stimuli_distractor_trianglediamonds.svg	stimuli_distractor_diamondtriangles.svg	35	no	57	0	291
6.6.0	win	2022-12-14	14:38:20	14:51:49	804834	616d9ef881036dfbfd63d2f4	353437508	1	main_slash	11	main_slash	13	stimuli_target_squarediamonds.svg	stimuli_distractor_diamondtriangles.svg	8	yes	53	1	809
6.6.0	win	2022-12-14	14:38:20	14:51:49	804834	616d9ef881036dfbfd63d2f4	353437508	1	main_slash	11	advance_on_keypress_SLASH	14	stimuli_target_squarediamonds.svg	stimuli_distractor_diamondtriangles.svg	8	yes	57	0	423
6.6.0	win	2022-12-14	14:38:20	14:51:52	807899	616d9ef881036dfbfd63d2f4	353437508	1	main_slash	11	main_slash	15	stimuli_distractor_trianglediamonds.svg	stimuli_distractor_trianglediamonds.svg	34	no	0	1	2000
6.6.0	win	2022-12-14	14:38:20	14:51:52	807899	616d9ef881036dfbfd63d2f4	353437508	1	main_slash	11	advance_on_keypress_SLASH	16	stimuli_distractor_trianglediamonds.svg	stimuli_distractor_trianglediamonds.svg	34	no	57	0	314
6.6.0	win	2022-12-14	14:38:20	14:51:54	809663	616d9ef881036dfbfd63d2f4	353437508	1	main_slash	11	main_slash	17	stimuli_target_diamondcircles.svg	stimuli_distractor_diamondtriangles.svg	23	yes	53	1	804
6.6.0	win	2022-12-14	14:38:20	14:51:54	809663	616d9ef881036dfbfd63d2f4	353437508	1	main_slash	11	advance_on_keypress_SLASH	18	stimuli_target_diamondcircles.svg	stimuli_distractor_diamondtriangles.svg	23	yes	57	0	478
6.6.0	win	2022-12-14	14:38:20	14:51:57	812799	616d9ef881036dfbfd63d2f4	353437508	1	main_slash	11	main_slash	19	stimuli_distractor_diamondtriangles.svg	stimuli_distractor_diamondtriangles.svg	39	no	0	1	2000
6.6.0	win	2022-12-14	14:38:20	14:51:57	812799	616d9ef881036dfbfd63d2f4	353437508	1	main_slash	11	advance_on_keypress_SLASH	20	stimuli_distractor_diamondtriangles.svg	stimuli_distractor_diamondtriangles.svg	39	no	57	0	364
6.6.0	win	2022-12-14	14:38:20	14:51:59	814603	616d9ef881036dfbfd63d2f4	353437508	1	main_slash	11	main_slash	21	stimuli_distractor_diamondtriangles.svg	stimuli_target_squarediamonds.svg	16	yes	53	1	794
6.6.0	win	2022-12-14	14:38:20	14:51:59	814603	616d9ef881036dfbfd63d2f4	353437508	1	main_slash	11	advance_on_keypress_SLASH	22	stimuli_distractor_diamondtriangles.svg	stimuli_target_squarediamonds.svg	16	yes	57	0	586
6.6.0	win	2022-12-14	14:38:20	14:52:01	816811	616d9ef881036dfbfd63d2f4	353437508	1	main_slash	11	main_slash	23	stimuli_target_diamondsquares.svg	stimuli_distractor_trianglediamonds.svg	20	yes	53	1	978
6.6.0	win	2022-12-14	14:38:20	14:52:01	816811	616d9ef881036dfbfd63d2f4	353437508	1	main_slash	11	advance_on_keypress_SLASH	24	stimuli_target_diamondsquares.svg	stimuli_distractor_trianglediamonds.svg	20	yes	57	0	403
6.6.0	win	2022-12-14	14:38:20	14:52:04	819857	616d9ef881036dfbfd63d2f4	353437508	1	main_slash	11	main_slash	25	stimuli_target_diamondsquares.svg	stimuli_distractor_diamondtriangles.svg	24	yes	0	0	2000
6.6.0	win	2022-12-14	14:38:20	14:52:04	819857	616d9ef881036dfbfd63d2f4	353437508	1	main_slash	11	advance_on_keypress_SLASH	26	stimuli_target_diamondsquares.svg	stimuli_distractor_diamondtriangles.svg	24	yes	57	0	522
6.6.0	win	2022-12-14	14:38:20	14:52:06	821930	616d9ef881036dfbfd63d2f4	353437508	1	main_slash	11	main_slash	27	stimuli_distractor_trianglediamonds.svg	stimuli_target_diamondcircles.svg	27	yes	53	1	911
6.6.0	win	2022-12-14	14:38:20	14:52:06	821930	616d9ef881036dfbfd63d2f4	353437508	1	main_slash	11	advance_on_keypress_SLASH	28	stimuli_distractor_trianglediamonds.svg	stimuli_target_diamondcircles.svg	27	yes	57	0	386
6.6.0	win	2022-12-14	14:38:20	14:52:08	823911	616d9ef881036dfbfd63d2f4	353437508	1	main_slash	11	main_slash	29	stimuli_distractor_diamondtriangles.svg	stimuli_target_diamondsquares.svg	32	yes	53	1	952
6.6.0	win	2022-12-14	14:38:20	14:52:08	823911	616d9ef881036dfbfd63d2f4	353437508	1	main_slash	11	advance_on_keypress_SLASH	30	stimuli_distractor_diamondtriangles.svg	stimuli_target_diamondsquares.svg	32	yes	57	0	418
6.6.0	win	2022-12-14	14:38:20	14:52:11	826982	616d9ef881036dfbfd63d2f4	353437508	1	main_slash	11	main_slash	31	stimuli_distractor_diamondtriangles.svg	stimuli_distractor_trianglediamonds.svg	38	no	0	1	2000
6.6.0	win	2022-12-14	14:38:20	14:52:11	826982	616d9ef881036dfbfd63d2f4	353437508	1	main_slash	11	advance_on_keypress_SLASH	32	stimuli_distractor_diamondtriangles.svg	stimuli_distractor_trianglediamonds.svg	38	no	57	0	385
6.6.0	win	2022-12-14	14:38:20	14:52:13	828662	616d9ef881036dfbfd63d2f4	353437508	1	main_slash	11	main_slash	33	stimuli_distractor_diamondtriangles.svg	stimuli_target_trianglesquares.svg	30	yes	53	1	652
6.6.0	win	2022-12-14	14:38:20	14:52:13	828662	616d9ef881036dfbfd63d2f4	353437508	1	main_slash	11	advance_on_keypress_SLASH	34	stimuli_distractor_diamondtriangles.svg	stimuli_target_trianglesquares.svg	30	yes	57	0	392
6.6.0	win	2022-12-14	14:38:20	14:52:15	830274	616d9ef881036dfbfd63d2f4	353437508	1	main_slash	11	main_slash	35	stimuli_target_circletriangles.svg	stimuli_distractor_trianglediamonds.svg	1	yes	53	1	575
6.6.0	win	2022-12-14	14:38:20	14:52:15	830274	616d9ef881036dfbfd63d2f4	353437508	1	main_slash	11	advance_on_keypress_SLASH	36	stimuli_target_circletriangles.svg	stimuli_distractor_trianglediamonds.svg	1	yes	57	0	357
6.6.0	win	2022-12-14	14:38:20	14:52:16	831921	616d9ef881036dfbfd63d2f4	353437508	1	main_slash	11	main_slash	37	stimuli_target_diamondcircles.svg	stimuli_distractor_trianglediamonds.svg	19	yes	53	1	650
6.6.0	win	2022-12-14	14:38:20	14:52:16	831921	616d9ef881036dfbfd63d2f4	353437508	1	main_slash	11	advance_on_keypress_SLASH	38	stimuli_target_diamondcircles.svg	stimuli_distractor_trianglediamonds.svg	19	yes	57	0	303
6.6.0	win	2022-12-14	14:38:20	14:52:18	833815	616d9ef881036dfbfd63d2f4	353437508	1	main_slash	11	main_slash	39	stimuli_distractor_trianglediamonds.svg	stimuli_target_trianglecircles.svg	25	yes	53	1	939
6.6.0	win	2022-12-14	14:38:20	14:52:18	833815	616d9ef881036dfbfd63d2f4	353437508	1	main_slash	11	advance_on_keypress_SLASH	40	stimuli_distractor_trianglediamonds.svg	stimuli_target_trianglecircles.svg	25	yes	57	0	266
6.6.0	win	2022-12-14	14:38:20	14:52:20	835456	616d9ef881036dfbfd63d2f4	353437508	1	main_slash	11	main_slash	41	stimuli_distractor_trianglediamonds.svg	stimuli_target_squarediamonds.svg	12	yes	53	1	724
6.6.0	win	2022-12-14	14:38:20	14:52:20	835456	616d9ef881036dfbfd63d2f4	353437508	1	main_slash	11	advance_on_keypress_SLASH	42	stimuli_distractor_trianglediamonds.svg	stimuli_target_squarediamonds.svg	12	yes	57	0	253
6.6.0	win	2022-12-14	14:38:20	14:52:22	837167	616d9ef881036dfbfd63d2f4	353437508	1	main_slash	11	main_slash	43	stimuli_target_trianglesquares.svg	stimuli_distractor_trianglediamonds.svg	18	yes	53	1	811
6.6.0	win	2022-12-14	14:38:20	14:52:22	837167	616d9ef881036dfbfd63d2f4	353437508	1	main_slash	11	advance_on_keypress_SLASH	44	stimuli_target_trianglesquares.svg	stimuli_distractor_trianglediamonds.svg	18	yes	57	0	253
6.6.0	win	2022-12-14	14:38:20	14:52:25	840061	616d9ef881036dfbfd63d2f4	353437508	1	main_slash	11	main_slash	45	stimuli_distractor_trianglediamonds.svg	stimuli_target_squaretriangles.svg	11	yes	0	0	2000
6.6.0	win	2022-12-14	14:38:20	14:52:25	840061	616d9ef881036dfbfd63d2f4	353437508	1	main_slash	11	advance_on_keypress_SLASH	46	stimuli_distractor_trianglediamonds.svg	stimuli_target_squaretriangles.svg	11	yes	57	0	318
6.6.0	win	2022-12-14	14:38:20	14:52:26	841625	616d9ef881036dfbfd63d2f4	353437508	1	main_slash	11	main_slash	47	stimuli_distractor_diamondtriangles.svg	stimuli_target_circlediamonds.svg	14	yes	53	1	603
6.6.0	win	2022-12-14	14:38:20	14:52:26	841625	616d9ef881036dfbfd63d2f4	353437508	1	main_slash	11	advance_on_keypress_SLASH	48	stimuli_distractor_diamondtriangles.svg	stimuli_target_circlediamonds.svg	14	yes	57	0	373
6.6.0	win	2022-12-14	14:38:20	14:52:28	843556	616d9ef881036dfbfd63d2f4	353437508	1	main_slash	11	main_slash	49	stimuli_target_squaretriangles.svg	stimuli_distractor_trianglediamonds.svg	3	yes	53	1	913
6.6.0	win	2022-12-14	14:38:20	14:52:28	843556	616d9ef881036dfbfd63d2f4	353437508	1	main_slash	11	advance_on_keypress_SLASH	50	stimuli_target_squaretriangles.svg	stimuli_distractor_trianglediamonds.svg	3	yes	57	0	279
6.6.0	win	2022-12-14	14:38:20	14:52:30	845339	616d9ef881036dfbfd63d2f4	353437508	1	main_slash	11	main_slash	51	stimuli_distractor_trianglediamonds.svg	stimuli_target_circletriangles.svg	9	yes	53	1	856
6.6.0	win	2022-12-14	14:38:20	14:52:30	845339	616d9ef881036dfbfd63d2f4	353437508	1	main_slash	11	advance_on_keypress_SLASH	52	stimuli_distractor_trianglediamonds.svg	stimuli_target_circletriangles.svg	9	yes	57	0	279
6.6.0	win	2022-12-14	14:38:20	14:52:32	847242	616d9ef881036dfbfd63d2f4	353437508	1	main_slash	11	main_slash	53	stimuli_distractor_diamondtriangles.svg	stimuli_distractor_trianglediamonds.svg	37	no	53	0	969
6.6.0	win	2022-12-14	14:38:20	14:52:32	847242	616d9ef881036dfbfd63d2f4	353437508	1	main_slash	11	advance_on_keypress_SLASH	54	stimuli_distractor_diamondtriangles.svg	stimuli_distractor_trianglediamonds.svg	37	no	57	0	269
6.6.0	win	2022-12-14	14:38:20	14:52:34	849503	616d9ef881036dfbfd63d2f4	353437508	1	main_slash	11	main_slash	55	stimuli_target_squaretriangles.svg	stimuli_distractor_diamondtriangles.svg	7	yes	53	1	1340
6.6.0	win	2022-12-14	14:38:20	14:52:34	849503	616d9ef881036dfbfd63d2f4	353437508	1	main_slash	11	advance_on_keypress_SLASH	56	stimuli_target_squaretriangles.svg	stimuli_distractor_diamondtriangles.svg	7	yes	57	0	339
6.6.0	win	2022-12-14	14:38:20	14:52:36	851528	616d9ef881036dfbfd63d2f4	353437508	1	main_slash	11	main_slash	57	stimuli_distractor_diamondtriangles.svg	stimuli_target_diamondcircles.svg	31	yes	53	1	1040
6.6.0	win	2022-12-14	14:38:20	14:52:36	851528	616d9ef881036dfbfd63d2f4	353437508	1	main_slash	11	advance_on_keypress_SLASH	58	stimuli_distractor_diamondtriangles.svg	stimuli_target_diamondcircles.svg	31	yes	57	0	230
6.6.0	win	2022-12-14	14:38:20	14:52:38	853105	616d9ef881036dfbfd63d2f4	353437508	1	main_slash	11	main_slash	59	stimuli_target_circlediamonds.svg	stimuli_distractor_diamondtriangles.svg	6	yes	53	1	694
6.6.0	win	2022-12-14	14:38:20	14:52:38	853105	616d9ef881036dfbfd63d2f4	353437508	1	main_slash	11	advance_on_keypress_SLASH	60	stimuli_target_circlediamonds.svg	stimuli_distractor_diamondtriangles.svg	6	yes	57	0	290
6.6.0	win	2022-12-14	14:38:20	14:52:41	856034	616d9ef881036dfbfd63d2f4	353437508	1	main_slash	11	main_slash	61	stimuli_distractor_trianglediamonds.svg	stimuli_distractor_diamondtriangles.svg	36	no	0	1	2000
6.6.0	win	2022-12-14	14:38:20	14:52:41	856034	616d9ef881036dfbfd63d2f4	353437508	1	main_slash	11	advance_on_keypress_SLASH	62	stimuli_distractor_trianglediamonds.svg	stimuli_distractor_diamondtriangles.svg	36	no	57	0	588
6.6.0	win	2022-12-14	14:38:20	14:52:42	857859	616d9ef881036dfbfd63d2f4	353437508	1	main_slash	11	main_slash	63	stimuli_distractor_trianglediamonds.svg	stimuli_target_circlediamonds.svg	10	yes	53	1	581
6.6.0	win	2022-12-14	14:38:20	14:52:42	857859	616d9ef881036dfbfd63d2f4	353437508	1	main_slash	11	advance_on_keypress_SLASH	64	stimuli_distractor_trianglediamonds.svg	stimuli_target_circlediamonds.svg	10	yes	57	0	264
6.6.0	win	2022-12-14	14:38:20	14:52:44	859774	616d9ef881036dfbfd63d2f4	353437508	1	main_slash	11	main_slash	65	stimuli_target_trianglecircles.svg	stimuli_distractor_diamondtriangles.svg	21	yes	53	1	990
6.6.0	win	2022-12-14	14:38:20	14:52:44	859774	616d9ef881036dfbfd63d2f4	353437508	1	main_slash	11	advance_on_keypress_SLASH	66	stimuli_target_trianglecircles.svg	stimuli_distractor_diamondtriangles.svg	21	yes	57	0	201
6.6.0	win	2022-12-14	14:38:20	14:52:46	861600	616d9ef881036dfbfd63d2f4	353437508	1	main_slash	11	main_slash	67	stimuli_distractor_diamondtriangles.svg	stimuli_target_trianglecircles.svg	29	yes	53	1	977
6.6.0	win	2022-12-14	14:38:20	14:52:46	861600	616d9ef881036dfbfd63d2f4	353437508	1	main_slash	11	advance_on_keypress_SLASH	68	stimuli_distractor_diamondtriangles.svg	stimuli_target_trianglecircles.svg	29	yes	57	0	275
6.6.0	win	2022-12-14	14:38:20	14:52:49	864514	616d9ef881036dfbfd63d2f4	353437508	1	main_slash	11	main_slash	69	stimuli_distractor_diamondtriangles.svg	stimuli_distractor_diamondtriangles.svg	40	no	0	1	2000
6.6.0	win	2022-12-14	14:38:20	14:52:49	864514	616d9ef881036dfbfd63d2f4	353437508	1	main_slash	11	advance_on_keypress_SLASH	70	stimuli_distractor_diamondtriangles.svg	stimuli_distractor_diamondtriangles.svg	40	no	57	0	515
6.6.0	win	2022-12-14	14:38:20	14:52:51	866561	616d9ef881036dfbfd63d2f4	353437508	1	main_slash	11	main_slash	71	stimuli_distractor_trianglediamonds.svg	stimuli_target_diamondsquares.svg	28	yes	53	1	886
6.6.0	win	2022-12-14	14:38:20	14:52:51	866561	616d9ef881036dfbfd63d2f4	353437508	1	main_slash	11	advance_on_keypress_SLASH	72	stimuli_distractor_trianglediamonds.svg	stimuli_target_diamondsquares.svg	28	yes	57	0	270
6.6.0	win	2022-12-14	14:38:20	14:52:53	868170	616d9ef881036dfbfd63d2f4	353437508	1	main_slash	11	main_slash	73	stimuli_target_circletriangles.svg	stimuli_distractor_diamondtriangles.svg	5	yes	53	1	689
6.6.0	win	2022-12-14	14:38:20	14:52:53	868170	616d9ef881036dfbfd63d2f4	353437508	1	main_slash	11	advance_on_keypress_SLASH	74	stimuli_target_circletriangles.svg	stimuli_distractor_diamondtriangles.svg	5	yes	57	0	218
6.6.0	win	2022-12-14	14:38:20	14:52:54	869773	616d9ef881036dfbfd63d2f4	353437508	1	main_slash	11	main_slash	75	stimuli_target_trianglesquares.svg	stimuli_distractor_diamondtriangles.svg	22	yes	53	1	737
6.6.0	win	2022-12-14	14:38:20	14:52:54	869773	616d9ef881036dfbfd63d2f4	353437508	1	main_slash	11	advance_on_keypress_SLASH	76	stimuli_target_trianglesquares.svg	stimuli_distractor_diamondtriangles.svg	22	yes	57	0	196
6.6.0	win	2022-12-14	14:38:20	14:52:57	872106	616d9ef881036dfbfd63d2f4	353437508	1	main_slash	11	main_slash	77	stimuli_distractor_diamondtriangles.svg	stimuli_target_circletriangles.svg	13	yes	53	1	1481
6.6.0	win	2022-12-14	14:38:20	14:52:57	872106	616d9ef881036dfbfd63d2f4	353437508	1	main_slash	11	advance_on_keypress_SLASH	78	stimuli_distractor_diamondtriangles.svg	stimuli_target_circletriangles.svg	13	yes	57	0	567
6.6.0	win	2022-12-14	14:38:20	14:52:59	874610	616d9ef881036dfbfd63d2f4	353437508	1	main_slash	11	main_slash	79	stimuli_distractor_diamondtriangles.svg	stimuli_target_squaretriangles.svg	15	yes	53	1	1293
6.6.0	win	2022-12-14	14:38:20	14:52:59	874610	616d9ef881036dfbfd63d2f4	353437508	1	main_slash	11	advance_on_keypress_SLASH	80	stimuli_distractor_diamondtriangles.svg	stimuli_target_squaretriangles.svg	15	yes	57	0	411
6.6.0	win	2022-12-14	14:38:20	14:53:01	876760	616d9ef881036dfbfd63d2f4	353437508	1	main_slash	11	main_slash	81	stimuli_distractor_trianglediamonds.svg	stimuli_target_trianglesquares.svg	26	yes	53	1	1084
6.6.0	win	2022-12-14	14:38:20	14:53:01	876760	616d9ef881036dfbfd63d2f4	353437508	1	main_slash	11	advance_on_keypress_SLASH	82	stimuli_distractor_trianglediamonds.svg	stimuli_target_trianglesquares.svg	26	yes	57	0	237
6.6.0	win	2022-12-14	14:38:20	14:53:03	878700	616d9ef881036dfbfd63d2f4	353437508	1	main_slash	11	main_slash	83	stimuli_target_diamondsquares.svg	stimuli_distractor_trianglediamonds.svg	20	yes	53	1	1051
6.6.0	win	2022-12-14	14:38:20	14:53:03	878700	616d9ef881036dfbfd63d2f4	353437508	1	main_slash	11	advance_on_keypress_SLASH	84	stimuli_target_diamondsquares.svg	stimuli_distractor_trianglediamonds.svg	20	yes	57	0	304
6.6.0	win	2022-12-14	14:38:20	14:53:05	880574	616d9ef881036dfbfd63d2f4	353437508	1	main_slash	11	main_slash	85	stimuli_target_squarediamonds.svg	stimuli_distractor_trianglediamonds.svg	4	yes	53	1	917
6.6.0	win	2022-12-14	14:38:20	14:53:05	880574	616d9ef881036dfbfd63d2f4	353437508	1	main_slash	11	advance_on_keypress_SLASH	86	stimuli_target_squarediamonds.svg	stimuli_distractor_trianglediamonds.svg	4	yes	57	0	171
6.6.0	win	2022-12-14	14:38:20	14:53:08	883396	616d9ef881036dfbfd63d2f4	353437508	1	main_slash	11	main_slash	87	stimuli_distractor_diamondtriangles.svg	stimuli_distractor_trianglediamonds.svg	38	no	0	1	2000
6.6.0	win	2022-12-14	14:38:20	14:53:08	883396	616d9ef881036dfbfd63d2f4	353437508	1	main_slash	11	advance_on_keypress_SLASH	88	stimuli_distractor_diamondtriangles.svg	stimuli_distractor_trianglediamonds.svg	38	no	57	0	419
6.6.0	win	2022-12-14	14:38:20	14:53:10	885142	616d9ef881036dfbfd63d2f4	353437508	1	main_slash	11	main_slash	89	stimuli_distractor_diamondtriangles.svg	stimuli_target_diamondcircles.svg	31	yes	53	1	685
6.6.0	win	2022-12-14	14:38:20	14:53:10	885142	616d9ef881036dfbfd63d2f4	353437508	1	main_slash	11	advance_on_keypress_SLASH	90	stimuli_distractor_diamondtriangles.svg	stimuli_target_diamondcircles.svg	31	yes	57	0	235
6.6.0	win	2022-12-14	14:38:20	14:53:11	886638	616d9ef881036dfbfd63d2f4	353437508	1	main_slash	11	main_slash	91	stimuli_target_circletriangles.svg	stimuli_distractor_trianglediamonds.svg	1	yes	53	1	608
6.6.0	win	2022-12-14	14:38:20	14:53:11	886638	616d9ef881036dfbfd63d2f4	353437508	1	main_slash	11	advance_on_keypress_SLASH	92	stimuli_target_circletriangles.svg	stimuli_distractor_trianglediamonds.svg	1	yes	57	0	198
6.6.0	win	2022-12-14	14:38:20	14:53:13	888625	616d9ef881036dfbfd63d2f4	353437508	1	main_slash	11	main_slash	93	stimuli_target_diamondsquares.svg	stimuli_distractor_diamondtriangles.svg	24	yes	53	1	1141
6.6.0	win	2022-12-14	14:38:20	14:53:13	888625	616d9ef881036dfbfd63d2f4	353437508	1	main_slash	11	advance_on_keypress_SLASH	94	stimuli_target_diamondsquares.svg	stimuli_distractor_diamondtriangles.svg	24	yes	57	0	439
6.6.0	win	2022-12-14	14:38:20	14:53:15	890472	616d9ef881036dfbfd63d2f4	353437508	1	main_slash	11	main_slash	95	stimuli_distractor_diamondtriangles.svg	stimuli_target_squaretriangles.svg	15	yes	53	1	764
6.6.0	win	2022-12-14	14:38:20	14:53:15	890472	616d9ef881036dfbfd63d2f4	353437508	1	main_slash	11	advance_on_keypress_SLASH	96	stimuli_distractor_diamondtriangles.svg	stimuli_target_squaretriangles.svg	15	yes	57	0	175
6.6.0	win	2022-12-14	14:38:20	14:53:17	892210	616d9ef881036dfbfd63d2f4	353437508	1	main_slash	11	main_slash	97	stimuli_distractor_diamondtriangles.svg	stimuli_distractor_trianglediamonds.svg	37	no	53	0	912
6.6.0	win	2022-12-14	14:38:20	14:53:17	892210	616d9ef881036dfbfd63d2f4	353437508	1	main_slash	11	advance_on_keypress_SLASH	98	stimuli_distractor_diamondtriangles.svg	stimuli_distractor_trianglediamonds.svg	37	no	57	0	268
6.6.0	win	2022-12-14	14:38:20	14:53:19	894060	616d9ef881036dfbfd63d2f4	353437508	1	main_slash	11	main_slash	99	stimuli_distractor_diamondtriangles.svg	stimuli_target_trianglecircles.svg	29	yes	53	1	940
6.6.0	win	2022-12-14	14:38:20	14:53:19	894060	616d9ef881036dfbfd63d2f4	353437508	1	main_slash	11	advance_on_keypress_SLASH	100	stimuli_distractor_diamondtriangles.svg	stimuli_target_trianglecircles.svg	29	yes	57	0	188
6.6.0	win	2022-12-14	14:38:20	14:53:21	896893	616d9ef881036dfbfd63d2f4	353437508	1	main_slash	11	main_slash	101	stimuli_target_squaretriangles.svg	stimuli_distractor_trianglediamonds.svg	3	yes	0	0	2000
6.6.0	win	2022-12-14	14:38:20	14:53:21	896893	616d9ef881036dfbfd63d2f4	353437508	1	main_slash	11	advance_on_keypress_SLASH	102	stimuli_target_squaretriangles.svg	stimuli_distractor_trianglediamonds.svg	3	yes	57	0	393
6.6.0	win	2022-12-14	14:38:20	14:53:23	898569	616d9ef881036dfbfd63d2f4	353437508	1	main_slash	11	main_slash	103	stimuli_distractor_diamondtriangles.svg	stimuli_target_circletriangles.svg	13	yes	53	1	632
6.6.0	win	2022-12-14	14:38:20	14:53:23	898569	616d9ef881036dfbfd63d2f4	353437508	1	main_slash	11	advance_on_keypress_SLASH	104	stimuli_distractor_diamondtriangles.svg	stimuli_target_circletriangles.svg	13	yes	57	0	255
6.6.0	win	2022-12-14	14:38:20	14:53:26	901476	616d9ef881036dfbfd63d2f4	353437508	1	main_slash	11	main_slash	105	stimuli_distractor_diamondtriangles.svg	stimuli_distractor_diamondtriangles.svg	40	no	0	1	2000
6.6.0	win	2022-12-14	14:38:20	14:53:26	901476	616d9ef881036dfbfd63d2f4	353437508	1	main_slash	11	advance_on_keypress_SLASH	106	stimuli_distractor_diamondtriangles.svg	stimuli_distractor_diamondtriangles.svg	40	no	57	0	390
6.6.0	win	2022-12-14	14:38:20	14:53:28	903238	616d9ef881036dfbfd63d2f4	353437508	1	main_slash	11	main_slash	107	stimuli_distractor_trianglediamonds.svg	stimuli_distractor_diamondtriangles.svg	35	no	53	0	735
6.6.0	win	2022-12-14	14:38:20	14:53:28	903238	616d9ef881036dfbfd63d2f4	353437508	1	main_slash	11	advance_on_keypress_SLASH	108	stimuli_distractor_trianglediamonds.svg	stimuli_distractor_diamondtriangles.svg	35	no	57	0	517
6.6.0	win	2022-12-14	14:38:20	14:53:30	905130	616d9ef881036dfbfd63d2f4	353437508	1	main_slash	11	main_slash	109	stimuli_distractor_diamondtriangles.svg	stimuli_target_circlediamonds.svg	14	yes	53	1	720
6.6.0	win	2022-12-14	14:38:20	14:53:30	905130	616d9ef881036dfbfd63d2f4	353437508	1	main_slash	11	advance_on_keypress_SLASH	110	stimuli_distractor_diamondtriangles.svg	stimuli_target_circlediamonds.svg	14	yes	57	0	1465
6.6.0	win	2022-12-14	14:38:20	14:53:32	908004	616d9ef881036dfbfd63d2f4	353437508	1	main_slash	11	main_slash	111	stimuli_distractor_trianglediamonds.svg	stimuli_target_diamondcircles.svg	27	yes	53	1	750
6.6.0	win	2022-12-14	14:38:20	14:53:32	908004	616d9ef881036dfbfd63d2f4	353437508	1	main_slash	11	advance_on_keypress_SLASH	112	stimuli_distractor_trianglediamonds.svg	stimuli_target_diamondcircles.svg	27	yes	57	0	190
6.6.0	win	2022-12-14	14:38:20	14:53:34	909889	616d9ef881036dfbfd63d2f4	353437508	1	main_slash	11	main_slash	113	stimuli_target_diamondcircles.svg	stimuli_distractor_trianglediamonds.svg	19	yes	53	1	1047
6.6.0	win	2022-12-14	14:38:20	14:53:34	909889	616d9ef881036dfbfd63d2f4	353437508	1	main_slash	11	advance_on_keypress_SLASH	114	stimuli_target_diamondcircles.svg	stimuli_distractor_trianglediamonds.svg	19	yes	57	0	649
6.6.0	win	2022-12-14	14:38:20	14:53:38	913184	616d9ef881036dfbfd63d2f4	353437508	1	main_slash	11	main_slash	115	stimuli_distractor_diamondtriangles.svg	stimuli_distractor_diamondtriangles.svg	39	no	0	1	2000
6.6.0	win	2022-12-14	14:38:20	14:53:38	913184	616d9ef881036dfbfd63d2f4	353437508	1	main_slash	11	advance_on_keypress_SLASH	116	stimuli_distractor_diamondtriangles.svg	stimuli_distractor_diamondtriangles.svg	39	no	57	0	316
6.6.0	win	2022-12-14	14:38:20	14:53:39	914811	616d9ef881036dfbfd63d2f4	353437508	1	main_slash	11	main_slash	117	stimuli_target_trianglecircles.svg	stimuli_distractor_trianglediamonds.svg	17	yes	53	1	667
6.6.0	win	2022-12-14	14:38:20	14:53:39	914811	616d9ef881036dfbfd63d2f4	353437508	1	main_slash	11	advance_on_keypress_SLASH	118	stimuli_target_trianglecircles.svg	stimuli_distractor_trianglediamonds.svg	17	yes	57	0	288
6.6.0	win	2022-12-14	14:38:20	14:53:42	917750	616d9ef881036dfbfd63d2f4	353437508	1	main_slash	11	main_slash	119	stimuli_distractor_trianglediamonds.svg	stimuli_distractor_diamondtriangles.svg	36	no	0	1	2000
6.6.0	win	2022-12-14	14:38:20	14:53:42	917750	616d9ef881036dfbfd63d2f4	353437508	1	main_slash	11	advance_on_keypress_SLASH	120	stimuli_distractor_trianglediamonds.svg	stimuli_distractor_diamondtriangles.svg	36	no	57	0	537
6.6.0	win	2022-12-14	14:38:20	14:53:44	919600	616d9ef881036dfbfd63d2f4	353437508	1	main_slash	11	main_slash	121	stimuli_target_trianglesquares.svg	stimuli_distractor_diamondtriangles.svg	22	yes	53	1	672
6.6.0	win	2022-12-14	14:38:20	14:53:44	919600	616d9ef881036dfbfd63d2f4	353437508	1	main_slash	11	advance_on_keypress_SLASH	122	stimuli_target_trianglesquares.svg	stimuli_distractor_diamondtriangles.svg	22	yes	57	0	238
6.6.0	win	2022-12-14	14:38:20	14:53:46	921109	616d9ef881036dfbfd63d2f4	353437508	1	main_slash	11	main_slash	123	stimuli_target_circlediamonds.svg	stimuli_distractor_trianglediamonds.svg	2	yes	53	1	627
6.6.0	win	2022-12-14	14:38:20	14:53:46	921109	616d9ef881036dfbfd63d2f4	353437508	1	main_slash	11	advance_on_keypress_SLASH	124	stimuli_target_circlediamonds.svg	stimuli_distractor_trianglediamonds.svg	2	yes	57	0	240
6.6.0	win	2022-12-14	14:38:20	14:53:48	923067	616d9ef881036dfbfd63d2f4	353437508	1	main_slash	11	main_slash	125	stimuli_distractor_diamondtriangles.svg	stimuli_target_squarediamonds.svg	16	yes	53	1	1079
6.6.0	win	2022-12-14	14:38:20	14:53:48	923067	616d9ef881036dfbfd63d2f4	353437508	1	main_slash	11	advance_on_keypress_SLASH	126	stimuli_distractor_diamondtriangles.svg	stimuli_target_squarediamonds.svg	16	yes	57	0	320
6.6.0	win	2022-12-14	14:38:20	14:53:49	924708	616d9ef881036dfbfd63d2f4	353437508	1	main_slash	11	main_slash	127	stimuli_target_circlediamonds.svg	stimuli_distractor_diamondtriangles.svg	6	yes	53	1	680
6.6.0	win	2022-12-14	14:38:20	14:53:49	924708	616d9ef881036dfbfd63d2f4	353437508	1	main_slash	11	advance_on_keypress_SLASH	128	stimuli_target_circlediamonds.svg	stimuli_distractor_diamondtriangles.svg	6	yes	57	0	233
6.6.0	win	2022-12-14	14:38:20	14:53:51	926405	616d9ef881036dfbfd63d2f4	353437508	1	main_slash	11	main_slash	129	stimuli_distractor_trianglediamonds.svg	stimuli_target_circlediamonds.svg	10	yes	53	1	805
6.6.0	win	2022-12-14	14:38:20	14:53:51	926405	616d9ef881036dfbfd63d2f4	353437508	1	main_slash	11	advance_on_keypress_SLASH	130	stimuli_distractor_trianglediamonds.svg	stimuli_target_circlediamonds.svg	10	yes	57	0	223
6.6.0	win	2022-12-14	14:38:20	14:53:53	928280	616d9ef881036dfbfd63d2f4	353437508	1	main_slash	11	main_slash	131	stimuli_distractor_trianglediamonds.svg	stimuli_target_squaretriangles.svg	11	yes	53	1	1006
6.6.0	win	2022-12-14	14:38:20	14:53:53	928280	616d9ef881036dfbfd63d2f4	353437508	1	main_slash	11	advance_on_keypress_SLASH	132	stimuli_distractor_trianglediamonds.svg	stimuli_target_squaretriangles.svg	11	yes	57	0	265
6.6.0	win	2022-12-14	14:38:20	14:53:54	929904	616d9ef881036dfbfd63d2f4	353437508	1	main_slash	11	main_slash	133	stimuli_target_squarediamonds.svg	stimuli_distractor_diamondtriangles.svg	8	yes	53	1	707
6.6.0	win	2022-12-14	14:38:20	14:53:54	929904	616d9ef881036dfbfd63d2f4	353437508	1	main_slash	11	advance_on_keypress_SLASH	134	stimuli_target_squarediamonds.svg	stimuli_distractor_diamondtriangles.svg	8	yes	57	0	167
6.6.0	win	2022-12-14	14:38:20	14:53:56	931348	616d9ef881036dfbfd63d2f4	353437508	1	main_slash	11	main_slash	135	stimuli_target_trianglecircles.svg	stimuli_distractor_diamondtriangles.svg	21	yes	53	1	629
6.6.0	win	2022-12-14	14:38:20	14:53:56	931348	616d9ef881036dfbfd63d2f4	353437508	1	main_slash	11	advance_on_keypress_SLASH	136	stimuli_target_trianglecircles.svg	stimuli_distractor_diamondtriangles.svg	21	yes	57	0	214
6.6.0	win	2022-12-14	14:38:20	14:53:57	932919	616d9ef881036dfbfd63d2f4	353437508	1	main_slash	11	main_slash	137	stimuli_target_diamondcircles.svg	stimuli_distractor_diamondtriangles.svg	23	yes	53	1	695
6.6.0	win	2022-12-14	14:38:20	14:53:57	932919	616d9ef881036dfbfd63d2f4	353437508	1	main_slash	11	advance_on_keypress_SLASH	138	stimuli_target_diamondcircles.svg	stimuli_distractor_diamondtriangles.svg	23	yes	57	0	155
6.6.0	win	2022-12-14	14:38:20	14:54:00	935712	616d9ef881036dfbfd63d2f4	353437508	1	main_slash	11	main_slash	139	stimuli_distractor_trianglediamonds.svg	stimuli_distractor_trianglediamonds.svg	34	no	0	1	2000
6.6.0	win	2022-12-14	14:38:20	14:54:00	935712	616d9ef881036dfbfd63d2f4	353437508	1	main_slash	11	advance_on_keypress_SLASH	140	stimuli_distractor_trianglediamonds.svg	stimuli_distractor_trianglediamonds.svg	34	no	57	0	489
6.6.0	win	2022-12-14	14:38:20	14:54:02	937444	616d9ef881036dfbfd63d2f4	353437508	1	main_slash	11	main_slash	141	stimuli_distractor_trianglediamonds.svg	stimuli_target_squarediamonds.svg	12	yes	53	1	603
6.6.0	win	2022-12-14	14:38:20	14:54:02	937444	616d9ef881036dfbfd63d2f4	353437508	1	main_slash	11	advance_on_keypress_SLASH	142	stimuli_distractor_trianglediamonds.svg	stimuli_target_squarediamonds.svg	12	yes	57	0	160
6.6.0	win	2022-12-14	14:38:20	14:54:04	939207	616d9ef881036dfbfd63d2f4	353437508	1	main_slash	11	main_slash	143	stimuli_distractor_trianglediamonds.svg	stimuli_target_diamondsquares.svg	28	yes	53	1	945
6.6.0	win	2022-12-14	14:38:20	14:54:04	939207	616d9ef881036dfbfd63d2f4	353437508	1	main_slash	11	advance_on_keypress_SLASH	144	stimuli_distractor_trianglediamonds.svg	stimuli_target_diamondsquares.svg	28	yes	57	0	141
6.6.0	win	2022-12-14	14:38:20	14:54:05	940677	616d9ef881036dfbfd63d2f4	353437508	1	main_slash	11	main_slash	145	stimuli_distractor_diamondtriangles.svg	stimuli_target_trianglesquares.svg	30	yes	53	1	692
6.6.0	win	2022-12-14	14:38:20	14:54:05	940677	616d9ef881036dfbfd63d2f4	353437508	1	main_slash	11	advance_on_keypress_SLASH	146	stimuli_distractor_diamondtriangles.svg	stimuli_target_trianglesquares.svg	30	yes	57	0	259
6.6.0	win	2022-12-14	14:38:20	14:54:07	942463	616d9ef881036dfbfd63d2f4	353437508	1	main_slash	11	main_slash	147	stimuli_distractor_trianglediamonds.svg	stimuli_target_circletriangles.svg	9	yes	53	1	873
6.6.0	win	2022-12-14	14:38:20	14:54:07	942463	616d9ef881036dfbfd63d2f4	353437508	1	main_slash	11	advance_on_keypress_SLASH	148	stimuli_distractor_trianglediamonds.svg	stimuli_target_circletriangles.svg	9	yes	57	0	1817
6.6.0	win	2022-12-14	14:38:20	14:54:10	945618	616d9ef881036dfbfd63d2f4	353437508	1	main_slash	11	main_slash	149	stimuli_distractor_trianglediamonds.svg	stimuli_target_trianglecircles.svg	25	yes	53	1	682
6.6.0	win	2022-12-14	14:38:20	14:54:10	945618	616d9ef881036dfbfd63d2f4	353437508	1	main_slash	11	advance_on_keypress_SLASH	150	stimuli_distractor_trianglediamonds.svg	stimuli_target_trianglecircles.svg	25	yes	57	0	142
6.6.0	win	2022-12-14	14:38:20	14:54:13	948424	616d9ef881036dfbfd63d2f4	353437508	1	main_slash	11	main_slash	151	stimuli_target_squaretriangles.svg	stimuli_distractor_diamondtriangles.svg	7	yes	0	0	2000
6.6.0	win	2022-12-14	14:38:20	14:54:13	948424	616d9ef881036dfbfd63d2f4	353437508	1	main_slash	11	advance_on_keypress_SLASH	152	stimuli_target_squaretriangles.svg	stimuli_distractor_diamondtriangles.svg	7	yes	57	0	476
6.6.0	win	2022-12-14	14:38:20	14:54:15	950188	616d9ef881036dfbfd63d2f4	353437508	1	main_slash	11	main_slash	153	stimuli_target_trianglesquares.svg	stimuli_distractor_trianglediamonds.svg	18	yes	53	1	654
6.6.0	win	2022-12-14	14:38:20	14:54:15	950188	616d9ef881036dfbfd63d2f4	353437508	1	main_slash	11	advance_on_keypress_SLASH	154	stimuli_target_trianglesquares.svg	stimuli_distractor_trianglediamonds.svg	18	yes	57	0	199
6.6.0	win	2022-12-14	14:38:20	14:54:18	953040	616d9ef881036dfbfd63d2f4	353437508	1	main_slash	11	main_slash	155	stimuli_distractor_trianglediamonds.svg	stimuli_distractor_trianglediamonds.svg	33	no	0	1	2000
6.6.0	win	2022-12-14	14:38:20	14:54:18	953040	616d9ef881036dfbfd63d2f4	353437508	1	main_slash	11	advance_on_keypress_SLASH	156	stimuli_distractor_trianglediamonds.svg	stimuli_distractor_trianglediamonds.svg	33	no	57	0	375
6.6.0	win	2022-12-14	14:38:20	14:54:20	955079	616d9ef881036dfbfd63d2f4	353437508	1	main_slash	11	main_slash	157	stimuli_distractor_diamondtriangles.svg	stimuli_target_diamondsquares.svg	32	yes	53	1	1029
6.6.0	win	2022-12-14	14:38:20	14:54:20	955079	616d9ef881036dfbfd63d2f4	353437508	1	main_slash	11	advance_on_keypress_SLASH	158	stimuli_distractor_diamondtriangles.svg	stimuli_target_diamondsquares.svg	32	yes	57	0	223
6.6.0	win	2022-12-14	14:38:20	14:54:22	957412	616d9ef881036dfbfd63d2f4	353437508	1	main_slash	11	main_slash	159	stimuli_target_circletriangles.svg	stimuli_distractor_diamondtriangles.svg	5	yes	53	1	1471
6.6.0	win	2022-12-14	14:38:20	14:54:22	957412	616d9ef881036dfbfd63d2f4	353437508	1	main_slash	11	advance_on_keypress_SLASH	160	stimuli_target_circletriangles.svg	stimuli_distractor_diamondtriangles.svg	5	yes	57	0	1292