build	computer.platform	date	time	timestamp	time_elapsed_ms	subject	group	session	blockcode	blocknum	trialcode	trialnum	stimulus_left	stimulus_right	stim_index	target_present	response	correct	latency
6.6.1	win	2022-12-14	16:45:37	16:47:50	132894	638e39edc03272bc8071cbb6	412467272	1	practice_z	5	practice_z	1	stimuli_distractor_trianglediamonds.svg	stimuli_distractor_diamondtriangles.svg	16	no	44	0	759
6.6.1	win	2022-12-14	16:45:37	16:47:50	132894	638e39edc03272bc8071cbb6	412467272	1	practice_z	5	advance_on_keypress_ZEE	2	stimuli_distractor_trianglediamonds.svg	stimuli_distractor_diamondtriangles.svg	16	no	57	0	1307
6.6.1	win	2022-12-14	16:45:37	16:47:54	136541	638e39edc03272bc8071cbb6	412467272	1	practice_z	5	practice_z	3	stimuli_distractor_trianglediamonds.svg	stimuli_target_diamondcircles.svg	12	yes	44	1	702
6.6.1	win	2022-12-14	16:45:37	16:47:54	136541	638e39edc03272bc8071cbb6	412467272	1	practice_z	5	advance_on_keypress_ZEE	4	stimuli_distractor_trianglediamonds.svg	stimuli_target_diamondcircles.svg	12	yes	57	0	561
6.6.1	win	2022-12-14	16:45:37	16:47:58	140723	638e39edc03272bc8071cbb6	412467272	1	practice_z	5	practice_z	5	stimuli_distractor_trianglediamonds.svg	stimuli_distractor_trianglediamonds.svg	15	no	0	1	2000
6.6.1	win	2022-12-14	16:45:37	16:47:58	140723	638e39edc03272bc8071cbb6	412467272	1	practice_z	5	advance_on_keypress_ZEE	6	stimuli_distractor_trianglediamonds.svg	stimuli_distractor_trianglediamonds.svg	15	no	57	0	694
6.6.1	win	2022-12-14	16:45:37	16:48:02	145040	638e39edc03272bc8071cbb6	412467272	1	practice_z	5	practice_z	7	stimuli_distractor_diamondtriangles.svg	stimuli_distractor_trianglediamonds.svg	14	no	0	1	2000
6.6.1	win	2022-12-14	16:45:37	16:48:02	145040	638e39edc03272bc8071cbb6	412467272	1	practice_z	5	advance_on_keypress_ZEE	8	stimuli_distractor_diamondtriangles.svg	stimuli_distractor_trianglediamonds.svg	14	no	57	0	521
6.6.1	win	2022-12-14	16:45:37	16:48:06	148281	638e39edc03272bc8071cbb6	412467272	1	practice_z	5	practice_z	9	stimuli_target_circlediamonds.svg	stimuli_distractor_trianglediamonds.svg	4	yes	44	1	1091
6.6.1	win	2022-12-14	16:45:37	16:48:06	148281	638e39edc03272bc8071cbb6	412467272	1	practice_z	5	advance_on_keypress_ZEE	10	stimuli_target_circlediamonds.svg	stimuli_distractor_trianglediamonds.svg	4	yes	57	0	544
6.6.1	win	2022-12-14	16:45:37	16:48:09	151397	638e39edc03272bc8071cbb6	412467272	1	practice_z	5	practice_z	11	stimuli_distractor_diamondtriangles.svg	stimuli_target_diamondcircles.svg	8	yes	44	1	949
6.6.1	win	2022-12-14	16:45:37	16:48:09	151397	638e39edc03272bc8071cbb6	412467272	1	practice_z	5	advance_on_keypress_ZEE	12	stimuli_distractor_diamondtriangles.svg	stimuli_target_diamondcircles.svg	8	yes	57	0	473
6.6.1	win	2022-12-14	16:45:37	16:48:12	154397	638e39edc03272bc8071cbb6	412467272	1	practice_z	5	practice_z	13	stimuli_target_diamondsquares.svg	stimuli_distractor_diamondtriangles.svg	3	yes	44	1	899
6.6.1	win	2022-12-14	16:45:37	16:48:12	154397	638e39edc03272bc8071cbb6	412467272	1	practice_z	5	advance_on_keypress_ZEE	14	stimuli_target_diamondsquares.svg	stimuli_distractor_diamondtriangles.svg	3	yes	57	0	475
6.6.1	win	2022-12-14	16:45:37	16:48:15	157409	638e39edc03272bc8071cbb6	412467272	1	practice_z	5	practice_z	15	stimuli_distractor_trianglediamonds.svg	stimuli_target_circlediamonds.svg	10	yes	44	1	911
6.6.1	win	2022-12-14	16:45:37	16:48:15	157409	638e39edc03272bc8071cbb6	412467272	1	practice_z	5	advance_on_keypress_ZEE	16	stimuli_distractor_trianglediamonds.svg	stimuli_target_circlediamonds.svg	10	yes	57	0	502
6.6.1	win	2022-12-14	16:45:37	16:48:18	160276	638e39edc03272bc8071cbb6	412467272	1	practice_z	5	practice_z	17	stimuli_target_circlediamonds.svg	stimuli_distractor_diamondtriangles.svg	1	yes	44	1	745
6.6.1	win	2022-12-14	16:45:37	16:48:18	160276	638e39edc03272bc8071cbb6	412467272	1	practice_z	5	advance_on_keypress_ZEE	18	stimuli_target_circlediamonds.svg	stimuli_distractor_diamondtriangles.svg	1	yes	57	0	72
6.6.1	win	2022-12-14	16:45:37	16:48:20	162869	638e39edc03272bc8071cbb6	412467272	1	practice_z	5	practice_z	19	stimuli_distractor_trianglediamonds.svg	stimuli_target_squarediamonds.svg	11	yes	44	1	896
6.6.1	win	2022-12-14	16:45:37	16:48:20	162869	638e39edc03272bc8071cbb6	412467272	1	practice_z	5	advance_on_keypress_ZEE	20	stimuli_distractor_trianglediamonds.svg	stimuli_target_squarediamonds.svg	11	yes	57	0	348
6.6.1	win	2022-12-14	16:45:37	16:48:23	165652	638e39edc03272bc8071cbb6	412467272	1	practice_z	5	practice_z	21	stimuli_target_diamondsquares.svg	stimuli_distractor_trianglediamonds.svg	6	yes	44	1	805
6.6.1	win	2022-12-14	16:45:37	16:48:23	165652	638e39edc03272bc8071cbb6	412467272	1	practice_z	5	advance_on_keypress_ZEE	22	stimuli_target_diamondsquares.svg	stimuli_distractor_trianglediamonds.svg	6	yes	57	0	501
6.6.1	win	2022-12-14	16:45:37	16:48:26	168668	638e39edc03272bc8071cbb6	412467272	1	practice_z	5	practice_z	23	stimuli_distractor_diamondtriangles.svg	stimuli_target_circletriangles.svg	7	yes	44	1	895
6.6.1	win	2022-12-14	16:45:37	16:48:26	168668	638e39edc03272bc8071cbb6	412467272	1	practice_z	5	advance_on_keypress_ZEE	24	stimuli_distractor_diamondtriangles.svg	stimuli_target_circletriangles.svg	7	yes	57	0	441
6.6.1	win	2022-12-14	16:45:37	16:48:29	171812	638e39edc03272bc8071cbb6	412467272	1	practice_z	5	practice_z	25	stimuli_distractor_diamondtriangles.svg	stimuli_target_trianglecircles.svg	9	yes	44	1	1082
6.6.1	win	2022-12-14	16:45:37	16:48:29	171812	638e39edc03272bc8071cbb6	412467272	1	practice_z	5	advance_on_keypress_ZEE	26	stimuli_distractor_diamondtriangles.svg	stimuli_target_trianglecircles.svg	9	yes	57	0	514
6.6.1	win	2022-12-14	16:45:37	16:48:33	175956	638e39edc03272bc8071cbb6	412467272	1	practice_z	5	practice_z	27	stimuli_distractor_diamondtriangles.svg	stimuli_distractor_diamondtriangles.svg	13	no	0	1	2000
6.6.1	win	2022-12-14	16:45:37	16:48:33	175956	638e39edc03272bc8071cbb6	412467272	1	practice_z	5	advance_on_keypress_ZEE	28	stimuli_distractor_diamondtriangles.svg	stimuli_distractor_diamondtriangles.svg	13	no	57	0	777
6.6.1	win	2022-12-14	16:45:37	16:48:36	178974	638e39edc03272bc8071cbb6	412467272	1	practice_z	5	practice_z	29	stimuli_target_squarediamonds.svg	stimuli_distractor_diamondtriangles.svg	2	yes	44	1	617
6.6.1	win	2022-12-14	16:45:37	16:48:36	178974	638e39edc03272bc8071cbb6	412467272	1	practice_z	5	advance_on_keypress_ZEE	30	stimuli_target_squarediamonds.svg	stimuli_distractor_diamondtriangles.svg	2	yes	57	0	424
6.6.1	win	2022-12-14	16:45:37	16:48:39	181800	638e39edc03272bc8071cbb6	412467272	1	practice_z	5	practice_z	31	stimuli_target_squarediamonds.svg	stimuli_distractor_trianglediamonds.svg	5	yes	44	1	778
6.6.1	win	2022-12-14	16:45:37	16:48:39	181800	638e39edc03272bc8071cbb6	412467272	1	practice_z	5	advance_on_keypress_ZEE	32	stimuli_target_squarediamonds.svg	stimuli_distractor_trianglediamonds.svg	5	yes	57	0	443
6.6.1	win	2022-12-14	16:45:37	16:48:48	190908	638e39edc03272bc8071cbb6	412467272	1	main_z	7	main_z	1	stimuli_distractor_trianglediamonds.svg	stimuli_target_trianglecircles.svg	25	yes	44	1	549
6.6.1	win	2022-12-14	16:45:37	16:48:48	190908	638e39edc03272bc8071cbb6	412467272	1	main_z	7	advance_on_keypress_ZEE	2	stimuli_distractor_trianglediamonds.svg	stimuli_target_trianglecircles.svg	25	yes	57	0	1407
6.6.1	win	2022-12-14	16:45:37	16:48:51	193537	638e39edc03272bc8071cbb6	412467272	1	main_z	7	main_z	3	stimuli_target_squaretriangles.svg	stimuli_distractor_diamondtriangles.svg	7	yes	44	1	578
6.6.1	win	2022-12-14	16:45:37	16:48:51	193537	638e39edc03272bc8071cbb6	412467272	1	main_z	7	advance_on_keypress_ZEE	4	stimuli_target_squaretriangles.svg	stimuli_distractor_diamondtriangles.svg	7	yes	57	0	702
6.6.1	win	2022-12-14	16:45:37	16:48:54	196886	638e39edc03272bc8071cbb6	412467272	1	main_z	7	main_z	5	stimuli_distractor_diamondtriangles.svg	stimuli_distractor_diamondtriangles.svg	40	no	0	1	2000
6.6.1	win	2022-12-14	16:45:37	16:48:54	196886	638e39edc03272bc8071cbb6	412467272	1	main_z	7	advance_on_keypress_ZEE	6	stimuli_distractor_diamondtriangles.svg	stimuli_distractor_diamondtriangles.svg	40	no	57	0	479
6.6.1	win	2022-12-14	16:45:37	16:48:56	198786	638e39edc03272bc8071cbb6	412467272	1	main_z	7	main_z	7	stimuli_distractor_diamondtriangles.svg	stimuli_target_trianglecircles.svg	29	yes	44	1	778
6.6.1	win	2022-12-14	16:45:37	16:48:56	198786	638e39edc03272bc8071cbb6	412467272	1	main_z	7	advance_on_keypress_ZEE	8	stimuli_distractor_diamondtriangles.svg	stimuli_target_trianglecircles.svg	29	yes	57	0	680
6.6.1	win	2022-12-14	16:45:37	16:48:58	200748	638e39edc03272bc8071cbb6	412467272	1	main_z	7	main_z	9	stimuli_target_diamondsquares.svg	stimuli_distractor_diamondtriangles.svg	24	yes	44	1	643
6.6.1	win	2022-12-14	16:45:37	16:48:58	200748	638e39edc03272bc8071cbb6	412467272	1	main_z	7	advance_on_keypress_ZEE	10	stimuli_target_diamondsquares.svg	stimuli_distractor_diamondtriangles.svg	24	yes	57	0	641
6.6.1	win	2022-12-14	16:45:37	16:49:00	202756	638e39edc03272bc8071cbb6	412467272	1	main_z	7	main_z	11	stimuli_distractor_trianglediamonds.svg	stimuli_target_circlediamonds.svg	10	yes	44	1	743
6.6.1	win	2022-12-14	16:45:37	16:49:00	202756	638e39edc03272bc8071cbb6	412467272	1	main_z	7	advance_on_keypress_ZEE	12	stimuli_distractor_trianglediamonds.svg	stimuli_target_circlediamonds.svg	10	yes	57	0	585
6.6.1	win	2022-12-14	16:45:37	16:49:03	205435	638e39edc03272bc8071cbb6	412467272	1	main_z	7	main_z	13	stimuli_distractor_diamondtriangles.svg	stimuli_target_squarediamonds.svg	16	yes	44	1	1473
6.6.1	win	2022-12-14	16:45:37	16:49:03	205435	638e39edc03272bc8071cbb6	412467272	1	main_z	7	advance_on_keypress_ZEE	14	stimuli_distractor_diamondtriangles.svg	stimuli_target_squarediamonds.svg	16	yes	57	0	722
6.6.1	win	2022-12-14	16:45:37	16:49:05	207868	638e39edc03272bc8071cbb6	412467272	1	main_z	7	main_z	15	stimuli_distractor_trianglediamonds.svg	stimuli_target_circletriangles.svg	9	yes	44	1	1088
6.6.1	win	2022-12-14	16:45:37	16:49:05	207868	638e39edc03272bc8071cbb6	412467272	1	main_z	7	advance_on_keypress_ZEE	16	stimuli_distractor_trianglediamonds.svg	stimuli_target_circletriangles.svg	9	yes	57	0	1505
6.6.1	win	2022-12-14	16:45:37	16:49:08	210828	638e39edc03272bc8071cbb6	412467272	1	main_z	7	main_z	17	stimuli_target_circletriangles.svg	stimuli_distractor_diamondtriangles.svg	5	yes	44	1	840
6.6.1	win	2022-12-14	16:45:37	16:49:08	210828	638e39edc03272bc8071cbb6	412467272	1	main_z	7	advance_on_keypress_ZEE	18	stimuli_target_circletriangles.svg	stimuli_distractor_diamondtriangles.svg	5	yes	57	0	558
6.6.1	win	2022-12-14	16:45:37	16:49:10	212988	638e39edc03272bc8071cbb6	412467272	1	main_z	7	main_z	19	stimuli_distractor_trianglediamonds.svg	stimuli_target_squarediamonds.svg	12	yes	44	1	975
6.6.1	win	2022-12-14	16:45:37	16:49:10	212988	638e39edc03272bc8071cbb6	412467272	1	main_z	7	advance_on_keypress_ZEE	20	stimuli_distractor_trianglediamonds.svg	stimuli_target_squarediamonds.svg	12	yes	57	0	528
6.6.1	win	2022-12-14	16:45:37	16:49:12	215064	638e39edc03272bc8071cbb6	412467272	1	main_z	7	main_z	21	stimuli_target_circlediamonds.svg	stimuli_distractor_diamondtriangles.svg	6	yes	44	1	920
6.6.1	win	2022-12-14	16:45:37	16:49:12	215064	638e39edc03272bc8071cbb6	412467272	1	main_z	7	advance_on_keypress_ZEE	22	stimuli_target_circlediamonds.svg	stimuli_distractor_diamondtriangles.svg	6	yes	57	0	577
6.6.1	win	2022-12-14	16:45:37	16:49:16	218263	638e39edc03272bc8071cbb6	412467272	1	main_z	7	main_z	23	stimuli_distractor_trianglediamonds.svg	stimuli_distractor_diamondtriangles.svg	35	no	0	1	2000
6.6.1	win	2022-12-14	16:45:37	16:49:16	218263	638e39edc03272bc8071cbb6	412467272	1	main_z	7	advance_on_keypress_ZEE	24	stimuli_distractor_trianglediamonds.svg	stimuli_distractor_diamondtriangles.svg	35	no	57	0	437
6.6.1	win	2022-12-14	16:45:37	16:49:18	220196	638e39edc03272bc8071cbb6	412467272	1	main_z	7	main_z	25	stimuli_distractor_diamondtriangles.svg	stimuli_target_diamondcircles.svg	31	yes	44	1	873
6.6.1	win	2022-12-14	16:45:37	16:49:18	220196	638e39edc03272bc8071cbb6	412467272	1	main_z	7	advance_on_keypress_ZEE	26	stimuli_distractor_diamondtriangles.svg	stimuli_target_diamondcircles.svg	31	yes	57	0	727
6.6.1	win	2022-12-14	16:45:37	16:49:20	222519	638e39edc03272bc8071cbb6	412467272	1	main_z	7	main_z	27	stimuli_target_circlediamonds.svg	stimuli_distractor_trianglediamonds.svg	2	yes	44	1	973
6.6.1	win	2022-12-14	16:45:37	16:49:20	222519	638e39edc03272bc8071cbb6	412467272	1	main_z	7	advance_on_keypress_ZEE	28	stimuli_target_circlediamonds.svg	stimuli_distractor_trianglediamonds.svg	2	yes	57	0	594
6.6.1	win	2022-12-14	16:45:37	16:49:23	225738	638e39edc03272bc8071cbb6	412467272	1	main_z	7	main_z	29	stimuli_distractor_trianglediamonds.svg	stimuli_distractor_trianglediamonds.svg	33	no	0	1	2000
6.6.1	win	2022-12-14	16:45:37	16:49:23	225738	638e39edc03272bc8071cbb6	412467272	1	main_z	7	advance_on_keypress_ZEE	30	stimuli_distractor_trianglediamonds.svg	stimuli_distractor_trianglediamonds.svg	33	no	57	0	550
6.6.1	win	2022-12-14	16:45:37	16:49:25	227783	638e39edc03272bc8071cbb6	412467272	1	main_z	7	main_z	31	stimuli_target_trianglesquares.svg	stimuli_distractor_trianglediamonds.svg	18	yes	44	1	871
6.6.1	win	2022-12-14	16:45:37	16:49:25	227783	638e39edc03272bc8071cbb6	412467272	1	main_z	7	advance_on_keypress_ZEE	32	stimuli_target_trianglesquares.svg	stimuli_distractor_trianglediamonds.svg	18	yes	57	0	616
6.6.1	win	2022-12-14	16:45:37	16:49:27	229983	638e39edc03272bc8071cbb6	412467272	1	main_z	7	main_z	33	stimuli_target_diamondcircles.svg	stimuli_distractor_trianglediamonds.svg	19	yes	44	1	963
6.6.1	win	2022-12-14	16:45:37	16:49:27	229983	638e39edc03272bc8071cbb6	412467272	1	main_z	7	advance_on_keypress_ZEE	34	stimuli_target_diamondcircles.svg	stimuli_distractor_trianglediamonds.svg	19	yes	57	0	608
6.6.1	win	2022-12-14	16:45:37	16:49:30	232235	638e39edc03272bc8071cbb6	412467272	1	main_z	7	main_z	35	stimuli_distractor_diamondtriangles.svg	stimuli_target_circletriangles.svg	13	yes	44	1	1023
6.6.1	win	2022-12-14	16:45:37	16:49:30	232235	638e39edc03272bc8071cbb6	412467272	1	main_z	7	advance_on_keypress_ZEE	36	stimuli_distractor_diamondtriangles.svg	stimuli_target_circletriangles.svg	13	yes	57	0	690
6.6.1	win	2022-12-14	16:45:37	16:49:32	234496	638e39edc03272bc8071cbb6	412467272	1	main_z	7	main_z	37	stimuli_distractor_diamondtriangles.svg	stimuli_target_squaretriangles.svg	15	yes	44	1	940
6.6.1	win	2022-12-14	16:45:37	16:49:32	234496	638e39edc03272bc8071cbb6	412467272	1	main_z	7	advance_on_keypress_ZEE	38	stimuli_distractor_diamondtriangles.svg	stimuli_target_squaretriangles.svg	15	yes	57	0	651
6.6.1	win	2022-12-14	16:45:37	16:49:34	236691	638e39edc03272bc8071cbb6	412467272	1	main_z	7	main_z	39	stimuli_target_squaretriangles.svg	stimuli_distractor_trianglediamonds.svg	3	yes	44	1	921
6.6.1	win	2022-12-14	16:45:37	16:49:34	236691	638e39edc03272bc8071cbb6	412467272	1	main_z	7	advance_on_keypress_ZEE	40	stimuli_target_squaretriangles.svg	stimuli_distractor_trianglediamonds.svg	3	yes	57	0	755
6.6.1	win	2022-12-14	16:45:37	16:49:36	238967	638e39edc03272bc8071cbb6	412467272	1	main_z	7	main_z	41	stimuli_distractor_diamondtriangles.svg	stimuli_target_diamondsquares.svg	32	yes	44	1	905
6.6.1	win	2022-12-14	16:45:37	16:49:36	238967	638e39edc03272bc8071cbb6	412467272	1	main_z	7	advance_on_keypress_ZEE	42	stimuli_distractor_diamondtriangles.svg	stimuli_target_diamondsquares.svg	32	yes	57	0	653
6.6.1	win	2022-12-14	16:45:37	16:49:40	242238	638e39edc03272bc8071cbb6	412467272	1	main_z	7	main_z	43	stimuli_distractor_trianglediamonds.svg	stimuli_distractor_diamondtriangles.svg	36	no	0	1	2000
6.6.1	win	2022-12-14	16:45:37	16:49:40	242238	638e39edc03272bc8071cbb6	412467272	1	main_z	7	advance_on_keypress_ZEE	44	stimuli_distractor_trianglediamonds.svg	stimuli_distractor_diamondtriangles.svg	36	no	57	0	486
6.6.1	win	2022-12-14	16:45:37	16:49:43	245346	638e39edc03272bc8071cbb6	412467272	1	main_z	7	main_z	45	stimuli_distractor_trianglediamonds.svg	stimuli_distractor_trianglediamonds.svg	34	no	0	1	2000
6.6.1	win	2022-12-14	16:45:37	16:49:43	245346	638e39edc03272bc8071cbb6	412467272	1	main_z	7	advance_on_keypress_ZEE	46	stimuli_distractor_trianglediamonds.svg	stimuli_distractor_trianglediamonds.svg	34	no	57	0	409
6.6.1	win	2022-12-14	16:45:37	16:49:45	247180	638e39edc03272bc8071cbb6	412467272	1	main_z	7	main_z	47	stimuli_target_trianglecircles.svg	stimuli_distractor_diamondtriangles.svg	21	yes	44	1	801
6.6.1	win	2022-12-14	16:45:37	16:49:45	247180	638e39edc03272bc8071cbb6	412467272	1	main_z	7	advance_on_keypress_ZEE	48	stimuli_target_trianglecircles.svg	stimuli_distractor_diamondtriangles.svg	21	yes	57	0	585
6.6.1	win	2022-12-14	16:45:37	16:49:48	250388	638e39edc03272bc8071cbb6	412467272	1	main_z	7	main_z	49	stimuli_distractor_diamondtriangles.svg	stimuli_distractor_diamondtriangles.svg	39	no	0	1	2000
6.6.1	win	2022-12-14	16:45:37	16:49:48	250388	638e39edc03272bc8071cbb6	412467272	1	main_z	7	advance_on_keypress_ZEE	50	stimuli_distractor_diamondtriangles.svg	stimuli_distractor_diamondtriangles.svg	39	no	57	0	440
6.6.1	win	2022-12-14	16:45:37	16:49:50	252180	638e39edc03272bc8071cbb6	412467272	1	main_z	7	main_z	51	stimuli_distractor_trianglediamonds.svg	stimuli_target_diamondsquares.svg	28	yes	44	1	721
6.6.1	win	2022-12-14	16:45:37	16:49:50	252180	638e39edc03272bc8071cbb6	412467272	1	main_z	7	advance_on_keypress_ZEE	52	stimuli_distractor_trianglediamonds.svg	stimuli_target_diamondsquares.svg	28	yes	57	0	672
6.6.1	win	2022-12-14	16:45:37	16:49:53	255471	638e39edc03272bc8071cbb6	412467272	1	main_z	7	main_z	53	stimuli_distractor_diamondtriangles.svg	stimuli_distractor_trianglediamonds.svg	37	no	0	1	2000
6.6.1	win	2022-12-14	16:45:37	16:49:53	255471	638e39edc03272bc8071cbb6	412467272	1	main_z	7	advance_on_keypress_ZEE	54	stimuli_distractor_diamondtriangles.svg	stimuli_distractor_trianglediamonds.svg	37	no	57	0	579
6.6.1	win	2022-12-14	16:45:37	16:49:55	257651	638e39edc03272bc8071cbb6	412467272	1	main_z	7	main_z	55	stimuli_target_circletriangles.svg	stimuli_distractor_trianglediamonds.svg	1	yes	44	1	981
6.6.1	win	2022-12-14	16:45:37	16:49:55	257651	638e39edc03272bc8071cbb6	412467272	1	main_z	7	advance_on_keypress_ZEE	56	stimuli_target_circletriangles.svg	stimuli_distractor_trianglediamonds.svg	1	yes	57	0	706
6.6.1	win	2022-12-14	16:45:37	16:49:57	259972	638e39edc03272bc8071cbb6	412467272	1	main_z	7	main_z	57	stimuli_distractor_diamondtriangles.svg	stimuli_target_trianglesquares.svg	30	yes	44	1	1001
6.6.1	win	2022-12-14	16:45:37	16:49:57	259972	638e39edc03272bc8071cbb6	412467272	1	main_z	7	advance_on_keypress_ZEE	58	stimuli_distractor_diamondtriangles.svg	stimuli_target_trianglesquares.svg	30	yes	57	0	737
6.6.1	win	2022-12-14	16:45:37	16:50:00	262267	638e39edc03272bc8071cbb6	412467272	1	main_z	7	main_z	59	stimuli_distractor_trianglediamonds.svg	stimuli_target_trianglesquares.svg	26	yes	44	1	939
6.6.1	win	2022-12-14	16:45:37	16:50:00	262267	638e39edc03272bc8071cbb6	412467272	1	main_z	7	advance_on_keypress_ZEE	60	stimuli_distractor_trianglediamonds.svg	stimuli_target_trianglesquares.svg	26	yes	57	0	589
6.6.1	win	2022-12-14	16:45:37	16:50:02	264383	638e39edc03272bc8071cbb6	412467272	1	main_z	7	main_z	61	stimuli_target_squarediamonds.svg	stimuli_distractor_trianglediamonds.svg	4	yes	44	1	913
6.6.1	win	2022-12-14	16:45:37	16:50:02	264383	638e39edc03272bc8071cbb6	412467272	1	main_z	7	advance_on_keypress_ZEE	62	stimuli_target_squarediamonds.svg	stimuli_distractor_trianglediamonds.svg	4	yes	57	0	972
6.6.1	win	2022-12-14	16:45:37	16:50:04	266975	638e39edc03272bc8071cbb6	412467272	1	main_z	7	main_z	63	stimuli_target_trianglecircles.svg	stimuli_distractor_trianglediamonds.svg	17	yes	44	1	1005
6.6.1	win	2022-12-14	16:45:37	16:50:04	266975	638e39edc03272bc8071cbb6	412467272	1	main_z	7	advance_on_keypress_ZEE	64	stimuli_target_trianglecircles.svg	stimuli_distractor_trianglediamonds.svg	17	yes	57	0	625
6.6.1	win	2022-12-14	16:45:37	16:50:07	269219	638e39edc03272bc8071cbb6	412467272	1	main_z	7	main_z	65	stimuli_distractor_trianglediamonds.svg	stimuli_target_diamondcircles.svg	27	yes	44	1	998
6.6.1	win	2022-12-14	16:45:37	16:50:07	269219	638e39edc03272bc8071cbb6	412467272	1	main_z	7	advance_on_keypress_ZEE	66	stimuli_distractor_trianglediamonds.svg	stimuli_target_diamondcircles.svg	27	yes	57	0	639
6.6.1	win	2022-12-14	16:45:37	16:50:09	271572	638e39edc03272bc8071cbb6	412467272	1	main_z	7	main_z	67	stimuli_target_diamondcircles.svg	stimuli_distractor_diamondtriangles.svg	23	yes	44	1	1093
6.6.1	win	2022-12-14	16:45:37	16:50:09	271572	638e39edc03272bc8071cbb6	412467272	1	main_z	7	advance_on_keypress_ZEE	68	stimuli_target_diamondcircles.svg	stimuli_distractor_diamondtriangles.svg	23	yes	57	0	1013
6.6.1	win	2022-12-14	16:45:37	16:50:12	274199	638e39edc03272bc8071cbb6	412467272	1	main_z	7	main_z	69	stimuli_target_squarediamonds.svg	stimuli_distractor_diamondtriangles.svg	8	yes	44	1	996
6.6.1	win	2022-12-14	16:45:37	16:50:12	274199	638e39edc03272bc8071cbb6	412467272	1	main_z	7	advance_on_keypress_ZEE	70	stimuli_target_squarediamonds.svg	stimuli_distractor_diamondtriangles.svg	8	yes	57	0	724
6.6.1	win	2022-12-14	16:45:37	16:50:14	276532	638e39edc03272bc8071cbb6	412467272	1	main_z	7	main_z	71	stimuli_target_diamondsquares.svg	stimuli_distractor_trianglediamonds.svg	20	yes	44	1	986
6.6.1	win	2022-12-14	16:45:37	16:50:14	276532	638e39edc03272bc8071cbb6	412467272	1	main_z	7	advance_on_keypress_ZEE	72	stimuli_target_diamondsquares.svg	stimuli_distractor_trianglediamonds.svg	20	yes	57	0	722
6.6.1	win	2022-12-14	16:45:37	16:50:17	279895	638e39edc03272bc8071cbb6	412467272	1	main_z	7	main_z	73	stimuli_distractor_diamondtriangles.svg	stimuli_distractor_trianglediamonds.svg	38	no	0	1	2000
6.6.1	win	2022-12-14	16:45:37	16:50:17	279895	638e39edc03272bc8071cbb6	412467272	1	main_z	7	advance_on_keypress_ZEE	74	stimuli_distractor_diamondtriangles.svg	stimuli_distractor_trianglediamonds.svg	38	no	57	0	331
6.6.1	win	2022-12-14	16:45:37	16:50:19	281867	638e39edc03272bc8071cbb6	412467272	1	main_z	7	main_z	75	stimuli_distractor_trianglediamonds.svg	stimuli_target_squaretriangles.svg	11	yes	44	1	1014
6.6.1	win	2022-12-14	16:45:37	16:50:19	281867	638e39edc03272bc8071cbb6	412467272	1	main_z	7	advance_on_keypress_ZEE	76	stimuli_distractor_trianglediamonds.svg	stimuli_target_squaretriangles.svg	11	yes	57	0	632
6.6.1	win	2022-12-14	16:45:37	16:50:21	284119	638e39edc03272bc8071cbb6	412467272	1	main_z	7	main_z	77	stimuli_target_trianglesquares.svg	stimuli_distractor_diamondtriangles.svg	22	yes	44	1	998
6.6.1	win	2022-12-14	16:45:37	16:50:21	284119	638e39edc03272bc8071cbb6	412467272	1	main_z	7	advance_on_keypress_ZEE	78	stimuli_target_trianglesquares.svg	stimuli_distractor_diamondtriangles.svg	22	yes	57	0	539
6.6.1	win	2022-12-14	16:45:37	16:50:24	286232	638e39edc03272bc8071cbb6	412467272	1	main_z	7	main_z	79	stimuli_distractor_diamondtriangles.svg	stimuli_target_circlediamonds.svg	14	yes	44	1	953
6.6.1	win	2022-12-14	16:45:37	16:50:24	286232	638e39edc03272bc8071cbb6	412467272	1	main_z	7	advance_on_keypress_ZEE	80	stimuli_distractor_diamondtriangles.svg	stimuli_target_circlediamonds.svg	14	yes	57	0	614
6.6.1	win	2022-12-14	16:45:37	16:50:26	288391	638e39edc03272bc8071cbb6	412467272	1	main_z	7	main_z	81	stimuli_target_squaretriangles.svg	stimuli_distractor_trianglediamonds.svg	3	yes	44	1	928
6.6.1	win	2022-12-14	16:45:37	16:50:26	288391	638e39edc03272bc8071cbb6	412467272	1	main_z	7	advance_on_keypress_ZEE	82	stimuli_target_squaretriangles.svg	stimuli_distractor_trianglediamonds.svg	3	yes	57	0	631
6.6.1	win	2022-12-14	16:45:37	16:50:29	291646	638e39edc03272bc8071cbb6	412467272	1	main_z	7	main_z	83	stimuli_distractor_diamondtriangles.svg	stimuli_distractor_diamondtriangles.svg	39	no	0	1	2000
6.6.1	win	2022-12-14	16:45:37	16:50:29	291646	638e39edc03272bc8071cbb6	412467272	1	main_z	7	advance_on_keypress_ZEE	84	stimuli_distractor_diamondtriangles.svg	stimuli_distractor_diamondtriangles.svg	39	no	57	0	502
6.6.1	win	2022-12-14	16:45:37	16:50:31	293596	638e39edc03272bc8071cbb6	412467272	1	main_z	7	main_z	85	stimuli_distractor_trianglediamonds.svg	stimuli_target_trianglesquares.svg	26	yes	44	1	825
6.6.1	win	2022-12-14	16:45:37	16:50:31	293596	638e39edc03272bc8071cbb6	412467272	1	main_z	7	advance_on_keypress_ZEE	86	stimuli_distractor_trianglediamonds.svg	stimuli_target_trianglesquares.svg	26	yes	57	0	592
6.6.1	win	2022-12-14	16:45:37	16:50:33	295779	638e39edc03272bc8071cbb6	412467272	1	main_z	7	main_z	87	stimuli_distractor_trianglediamonds.svg	stimuli_target_squarediamonds.svg	12	yes	44	1	967
6.6.1	win	2022-12-14	16:45:37	16:50:33	295779	638e39edc03272bc8071cbb6	412467272	1	main_z	7	advance_on_keypress_ZEE	88	stimuli_distractor_trianglediamonds.svg	stimuli_target_squarediamonds.svg	12	yes	57	0	618
6.6.1	win	2022-12-14	16:45:37	16:50:36	298280	638e39edc03272bc8071cbb6	412467272	1	main_z	7	main_z	89	stimuli_distractor_trianglediamonds.svg	stimuli_target_circletriangles.svg	9	yes	44	1	1260
6.6.1	win	2022-12-14	16:45:37	16:50:36	298280	638e39edc03272bc8071cbb6	412467272	1	main_z	7	advance_on_keypress_ZEE	90	stimuli_distractor_trianglediamonds.svg	stimuli_target_circletriangles.svg	9	yes	57	0	1036
6.6.1	win	2022-12-14	16:45:37	16:50:38	300964	638e39edc03272bc8071cbb6	412467272	1	main_z	7	main_z	91	stimuli_distractor_diamondtriangles.svg	stimuli_target_squarediamonds.svg	16	yes	44	1	1019
6.6.1	win	2022-12-14	16:45:37	16:50:38	300964	638e39edc03272bc8071cbb6	412467272	1	main_z	7	advance_on_keypress_ZEE	92	stimuli_distractor_diamondtriangles.svg	stimuli_target_squarediamonds.svg	16	yes	57	0	629
6.6.1	win	2022-12-14	16:45:37	16:50:41	303451	638e39edc03272bc8071cbb6	412467272	1	main_z	7	main_z	93	stimuli_distractor_trianglediamonds.svg	stimuli_target_diamondcircles.svg	27	yes	44	1	1231
6.6.1	win	2022-12-14	16:45:37	16:50:41	303451	638e39edc03272bc8071cbb6	412467272	1	main_z	7	advance_on_keypress_ZEE	94	stimuli_distractor_trianglediamonds.svg	stimuli_target_diamondcircles.svg	27	yes	57	0	586
6.6.1	win	2022-12-14	16:45:37	16:50:43	305678	638e39edc03272bc8071cbb6	412467272	1	main_z	7	main_z	95	stimuli_distractor_trianglediamonds.svg	stimuli_target_diamondsquares.svg	28	yes	44	1	997
6.6.1	win	2022-12-14	16:45:37	16:50:43	305678	638e39edc03272bc8071cbb6	412467272	1	main_z	7	advance_on_keypress_ZEE	96	stimuli_distractor_trianglediamonds.svg	stimuli_target_diamondsquares.svg	28	yes	57	0	512
6.6.1	win	2022-12-14	16:45:37	16:50:45	307842	638e39edc03272bc8071cbb6	412467272	1	main_z	7	main_z	97	stimuli_target_circletriangles.svg	stimuli_distractor_diamondtriangles.svg	5	yes	44	1	1015
6.6.1	win	2022-12-14	16:45:37	16:50:45	307842	638e39edc03272bc8071cbb6	412467272	1	main_z	7	advance_on_keypress_ZEE	98	stimuli_target_circletriangles.svg	stimuli_distractor_diamondtriangles.svg	5	yes	57	0	574
6.6.1	win	2022-12-14	16:45:37	16:50:47	310108	638e39edc03272bc8071cbb6	412467272	1	main_z	7	main_z	99	stimuli_distractor_diamondtriangles.svg	stimuli_target_diamondsquares.svg	32	yes	44	1	1062
6.6.1	win	2022-12-14	16:45:37	16:50:47	310108	638e39edc03272bc8071cbb6	412467272	1	main_z	7	advance_on_keypress_ZEE	100	stimuli_distractor_diamondtriangles.svg	stimuli_target_diamondsquares.svg	32	yes	57	0	603
6.6.1	win	2022-12-14	16:45:37	16:50:50	312248	638e39edc03272bc8071cbb6	412467272	1	main_z	7	main_z	101	stimuli_distractor_diamondtriangles.svg	stimuli_target_trianglesquares.svg	30	yes	44	1	919
6.6.1	win	2022-12-14	16:45:37	16:50:50	312248	638e39edc03272bc8071cbb6	412467272	1	main_z	7	advance_on_keypress_ZEE	102	stimuli_distractor_diamondtriangles.svg	stimuli_target_trianglesquares.svg	30	yes	57	0	714
6.6.1	win	2022-12-14	16:45:37	16:50:52	314435	638e39edc03272bc8071cbb6	412467272	1	main_z	7	main_z	103	stimuli_distractor_diamondtriangles.svg	stimuli_target_squaretriangles.svg	15	yes	44	1	856
6.6.1	win	2022-12-14	16:45:37	16:50:52	314435	638e39edc03272bc8071cbb6	412467272	1	main_z	7	advance_on_keypress_ZEE	104	stimuli_distractor_diamondtriangles.svg	stimuli_target_squaretriangles.svg	15	yes	57	0	530
6.6.1	win	2022-12-14	16:45:37	16:50:54	316440	638e39edc03272bc8071cbb6	412467272	1	main_z	7	main_z	105	stimuli_target_diamondsquares.svg	stimuli_distractor_diamondtriangles.svg	24	yes	44	1	854
6.6.1	win	2022-12-14	16:45:37	16:50:54	316440	638e39edc03272bc8071cbb6	412467272	1	main_z	7	advance_on_keypress_ZEE	106	stimuli_target_diamondsquares.svg	stimuli_distractor_diamondtriangles.svg	24	yes	57	0	530
6.6.1	win	2022-12-14	16:45:37	16:50:56	318443	638e39edc03272bc8071cbb6	412467272	1	main_z	7	main_z	107	stimuli_target_circletriangles.svg	stimuli_distractor_trianglediamonds.svg	1	yes	44	1	856
6.6.1	win	2022-12-14	16:45:37	16:50:56	318443	638e39edc03272bc8071cbb6	412467272	1	main_z	7	advance_on_keypress_ZEE	108	stimuli_target_circletriangles.svg	stimuli_distractor_trianglediamonds.svg	1	yes	57	0	494
6.6.1	win	2022-12-14	16:45:37	16:50:59	321563	638e39edc03272bc8071cbb6	412467272	1	main_z	7	main_z	109	stimuli_distractor_trianglediamonds.svg	stimuli_distractor_trianglediamonds.svg	34	no	0	1	2000
6.6.1	win	2022-12-14	16:45:37	16:50:59	321563	638e39edc03272bc8071cbb6	412467272	1	main_z	7	advance_on_keypress_ZEE	110	stimuli_distractor_trianglediamonds.svg	stimuli_distractor_trianglediamonds.svg	34	no	57	0	505
6.6.1	win	2022-12-14	16:45:37	16:51:01	323504	638e39edc03272bc8071cbb6	412467272	1	main_z	7	main_z	111	stimuli_target_squarediamonds.svg	stimuli_distractor_diamondtriangles.svg	8	yes	44	1	817
6.6.1	win	2022-12-14	16:45:37	16:51:01	323504	638e39edc03272bc8071cbb6	412467272	1	main_z	7	advance_on_keypress_ZEE	112	stimuli_target_squarediamonds.svg	stimuli_distractor_diamondtriangles.svg	8	yes	57	0	591
6.6.1	win	2022-12-14	16:45:37	16:51:03	325607	638e39edc03272bc8071cbb6	412467272	1	main_z	7	main_z	113	stimuli_distractor_diamondtriangles.svg	stimuli_target_diamondcircles.svg	31	yes	44	1	887
6.6.1	win	2022-12-14	16:45:37	16:51:03	325607	638e39edc03272bc8071cbb6	412467272	1	main_z	7	advance_on_keypress_ZEE	114	stimuli_distractor_diamondtriangles.svg	stimuli_target_diamondcircles.svg	31	yes	57	0	700
6.6.1	win	2022-12-14	16:45:37	16:51:05	327984	638e39edc03272bc8071cbb6	412467272	1	main_z	7	main_z	115	stimuli_target_diamondsquares.svg	stimuli_distractor_trianglediamonds.svg	20	yes	44	1	1055
6.6.1	win	2022-12-14	16:45:37	16:51:05	327984	638e39edc03272bc8071cbb6	412467272	1	main_z	7	advance_on_keypress_ZEE	116	stimuli_target_diamondsquares.svg	stimuli_distractor_trianglediamonds.svg	20	yes	57	0	564
6.6.1	win	2022-12-14	16:45:37	16:51:07	329955	638e39edc03272bc8071cbb6	412467272	1	main_z	7	main_z	117	stimuli_distractor_trianglediamonds.svg	stimuli_target_circlediamonds.svg	10	yes	44	1	794
6.6.1	win	2022-12-14	16:45:37	16:51:07	329955	638e39edc03272bc8071cbb6	412467272	1	main_z	7	advance_on_keypress_ZEE	118	stimuli_distractor_trianglediamonds.svg	stimuli_target_circlediamonds.svg	10	yes	57	0	561
6.6.1	win	2022-12-14	16:45:37	16:51:10	332168	638e39edc03272bc8071cbb6	412467272	1	main_z	7	main_z	119	stimuli_distractor_diamondtriangles.svg	stimuli_target_circletriangles.svg	13	yes	44	1	1030
6.6.1	win	2022-12-14	16:45:37	16:51:10	332168	638e39edc03272bc8071cbb6	412467272	1	main_z	7	advance_on_keypress_ZEE	120	stimuli_distractor_diamondtriangles.svg	stimuli_target_circletriangles.svg	13	yes	57	0	609
6.6.1	win	2022-12-14	16:45:37	16:51:12	334265	638e39edc03272bc8071cbb6	412467272	1	main_z	7	main_z	121	stimuli_target_trianglesquares.svg	stimuli_distractor_trianglediamonds.svg	18	yes	44	1	869
6.6.1	win	2022-12-14	16:45:37	16:51:12	334265	638e39edc03272bc8071cbb6	412467272	1	main_z	7	advance_on_keypress_ZEE	122	stimuli_target_trianglesquares.svg	stimuli_distractor_trianglediamonds.svg	18	yes	57	0	556
6.6.1	win	2022-12-14	16:45:37	16:51:15	337446	638e39edc03272bc8071cbb6	412467272	1	main_z	7	main_z	123	stimuli_distractor_diamondtriangles.svg	stimuli_distractor_trianglediamonds.svg	37	no	0	1	2000
6.6.1	win	2022-12-14	16:45:37	16:51:15	337446	638e39edc03272bc8071cbb6	412467272	1	main_z	7	advance_on_keypress_ZEE	124	stimuli_distractor_diamondtriangles.svg	stimuli_distractor_trianglediamonds.svg	37	no	57	0	314
6.6.1	win	2022-12-14	16:45:37	16:51:17	339196	638e39edc03272bc8071cbb6	412467272	1	main_z	7	main_z	125	stimuli_distractor_diamondtriangles.svg	stimuli_target_trianglecircles.svg	29	yes	44	1	817
6.6.1	win	2022-12-14	16:45:37	16:51:17	339196	638e39edc03272bc8071cbb6	412467272	1	main_z	7	advance_on_keypress_ZEE	126	stimuli_distractor_diamondtriangles.svg	stimuli_target_trianglecircles.svg	29	yes	57	0	656
6.6.1	win	2022-12-14	16:45:37	16:51:20	342482	638e39edc03272bc8071cbb6	412467272	1	main_z	7	main_z	127	stimuli_distractor_trianglediamonds.svg	stimuli_distractor_trianglediamonds.svg	33	no	0	1	2000
6.6.1	win	2022-12-14	16:45:37	16:51:20	342482	638e39edc03272bc8071cbb6	412467272	1	main_z	7	advance_on_keypress_ZEE	128	stimuli_distractor_trianglediamonds.svg	stimuli_distractor_trianglediamonds.svg	33	no	57	0	317
6.6.1	win	2022-12-14	16:45:37	16:51:22	344324	638e39edc03272bc8071cbb6	412467272	1	main_z	7	main_z	129	stimuli_distractor_trianglediamonds.svg	stimuli_target_trianglecircles.svg	25	yes	44	1	875
6.6.1	win	2022-12-14	16:45:37	16:51:22	344324	638e39edc03272bc8071cbb6	412467272	1	main_z	7	advance_on_keypress_ZEE	130	stimuli_distractor_trianglediamonds.svg	stimuli_target_trianglecircles.svg	25	yes	57	0	519
6.6.1	win	2022-12-14	16:45:37	16:51:25	347478	638e39edc03272bc8071cbb6	412467272	1	main_z	7	main_z	131	stimuli_distractor_trianglediamonds.svg	stimuli_distractor_diamondtriangles.svg	36	no	0	1	2000
6.6.1	win	2022-12-14	16:45:37	16:51:25	347478	638e39edc03272bc8071cbb6	412467272	1	main_z	7	advance_on_keypress_ZEE	132	stimuli_distractor_trianglediamonds.svg	stimuli_distractor_diamondtriangles.svg	36	no	57	0	304
6.6.1	win	2022-12-14	16:45:37	16:51:27	349215	638e39edc03272bc8071cbb6	412467272	1	main_z	7	main_z	133	stimuli_target_circlediamonds.svg	stimuli_distractor_diamondtriangles.svg	6	yes	44	1	812
6.6.1	win	2022-12-14	16:45:37	16:51:27	349215	638e39edc03272bc8071cbb6	412467272	1	main_z	7	advance_on_keypress_ZEE	134	stimuli_target_circlediamonds.svg	stimuli_distractor_diamondtriangles.svg	6	yes	57	0	475
6.6.1	win	2022-12-14	16:45:37	16:51:29	351259	638e39edc03272bc8071cbb6	412467272	1	main_z	7	main_z	135	stimuli_target_squarediamonds.svg	stimuli_distractor_trianglediamonds.svg	4	yes	44	1	942
6.6.1	win	2022-12-14	16:45:37	16:51:29	351259	638e39edc03272bc8071cbb6	412467272	1	main_z	7	advance_on_keypress_ZEE	136	stimuli_target_squarediamonds.svg	stimuli_distractor_trianglediamonds.svg	4	yes	57	0	469
6.6.1	win	2022-12-14	16:45:37	16:51:31	353391	638e39edc03272bc8071cbb6	412467272	1	main_z	7	main_z	137	stimuli_target_squaretriangles.svg	stimuli_distractor_diamondtriangles.svg	7	yes	44	1	1038
6.6.1	win	2022-12-14	16:45:37	16:51:31	353391	638e39edc03272bc8071cbb6	412467272	1	main_z	7	advance_on_keypress_ZEE	138	stimuli_target_squaretriangles.svg	stimuli_distractor_diamondtriangles.svg	7	yes	57	0	516
6.6.1	win	2022-12-14	16:45:37	16:51:33	355457	638e39edc03272bc8071cbb6	412467272	1	main_z	7	main_z	139	stimuli_target_trianglecircles.svg	stimuli_distractor_diamondtriangles.svg	21	yes	44	1	894
6.6.1	win	2022-12-14	16:45:37	16:51:33	355457	638e39edc03272bc8071cbb6	412467272	1	main_z	7	advance_on_keypress_ZEE	140	stimuli_target_trianglecircles.svg	stimuli_distractor_diamondtriangles.svg	21	yes	57	0	650
6.6.1	win	2022-12-14	16:45:37	16:51:36	358747	638e39edc03272bc8071cbb6	412467272	1	main_z	7	main_z	141	stimuli_distractor_diamondtriangles.svg	stimuli_distractor_trianglediamonds.svg	38	no	0	1	2000
6.6.1	win	2022-12-14	16:45:37	16:51:36	358747	638e39edc03272bc8071cbb6	412467272	1	main_z	7	advance_on_keypress_ZEE	142	stimuli_distractor_diamondtriangles.svg	stimuli_distractor_trianglediamonds.svg	38	no	57	0	297
6.6.1	win	2022-12-14	16:45:37	16:51:38	360406	638e39edc03272bc8071cbb6	412467272	1	main_z	7	main_z	143	stimuli_target_trianglecircles.svg	stimuli_distractor_trianglediamonds.svg	17	yes	44	1	706
6.6.1	win	2022-12-14	16:45:37	16:51:38	360406	638e39edc03272bc8071cbb6	412467272	1	main_z	7	advance_on_keypress_ZEE	144	stimuli_target_trianglecircles.svg	stimuli_distractor_trianglediamonds.svg	17	yes	57	0	628
6.6.1	win	2022-12-14	16:45:37	16:51:40	362472	638e39edc03272bc8071cbb6	412467272	1	main_z	7	main_z	145	stimuli_target_diamondcircles.svg	stimuli_distractor_trianglediamonds.svg	19	yes	44	1	810
6.6.1	win	2022-12-14	16:45:37	16:51:40	362472	638e39edc03272bc8071cbb6	412467272	1	main_z	7	advance_on_keypress_ZEE	146	stimuli_target_diamondcircles.svg	stimuli_distractor_trianglediamonds.svg	19	yes	57	0	481
6.6.1	win	2022-12-14	16:45:37	16:51:43	365571	638e39edc03272bc8071cbb6	412467272	1	main_z	7	main_z	147	stimuli_distractor_trianglediamonds.svg	stimuli_distractor_diamondtriangles.svg	35	no	0	1	2000
6.6.1	win	2022-12-14	16:45:37	16:51:43	365571	638e39edc03272bc8071cbb6	412467272	1	main_z	7	advance_on_keypress_ZEE	148	stimuli_distractor_trianglediamonds.svg	stimuli_distractor_diamondtriangles.svg	35	no	57	0	617
6.6.1	win	2022-12-14	16:45:37	16:51:46	368812	638e39edc03272bc8071cbb6	412467272	1	main_z	7	main_z	149	stimuli_distractor_diamondtriangles.svg	stimuli_distractor_diamondtriangles.svg	40	no	0	1	2000
6.6.1	win	2022-12-14	16:45:37	16:51:46	368812	638e39edc03272bc8071cbb6	412467272	1	main_z	7	advance_on_keypress_ZEE	150	stimuli_distractor_diamondtriangles.svg	stimuli_distractor_diamondtriangles.svg	40	no	57	0	499
6.6.1	win	2022-12-14	16:45:37	16:51:48	370759	638e39edc03272bc8071cbb6	412467272	1	main_z	7	main_z	151	stimuli_target_trianglesquares.svg	stimuli_distractor_diamondtriangles.svg	22	yes	44	1	823
6.6.1	win	2022-12-14	16:45:37	16:51:48	370759	638e39edc03272bc8071cbb6	412467272	1	main_z	7	advance_on_keypress_ZEE	152	stimuli_target_trianglesquares.svg	stimuli_distractor_diamondtriangles.svg	22	yes	57	0	462
6.6.1	win	2022-12-14	16:45:37	16:51:50	372678	638e39edc03272bc8071cbb6	412467272	1	main_z	7	main_z	153	stimuli_distractor_trianglediamonds.svg	stimuli_target_squaretriangles.svg	11	yes	44	1	810
6.6.1	win	2022-12-14	16:45:37	16:51:50	372678	638e39edc03272bc8071cbb6	412467272	1	main_z	7	advance_on_keypress_ZEE	154	stimuli_distractor_trianglediamonds.svg	stimuli_target_squaretriangles.svg	11	yes	57	0	489
6.6.1	win	2022-12-14	16:45:37	16:51:53	375806	638e39edc03272bc8071cbb6	412467272	1	main_z	7	main_z	155	stimuli_distractor_diamondtriangles.svg	stimuli_target_circlediamonds.svg	14	yes	0	0	2000
6.6.1	win	2022-12-14	16:45:37	16:51:53	375806	638e39edc03272bc8071cbb6	412467272	1	main_z	7	advance_on_keypress_ZEE	156	stimuli_distractor_diamondtriangles.svg	stimuli_target_circlediamonds.svg	14	yes	57	0	1784
6.6.1	win	2022-12-14	16:45:37	16:51:56	379027	638e39edc03272bc8071cbb6	412467272	1	main_z	7	main_z	157	stimuli_target_circlediamonds.svg	stimuli_distractor_trianglediamonds.svg	2	yes	44	1	816
6.6.1	win	2022-12-14	16:45:37	16:51:56	379027	638e39edc03272bc8071cbb6	412467272	1	main_z	7	advance_on_keypress_ZEE	158	stimuli_target_circlediamonds.svg	stimuli_distractor_trianglediamonds.svg	2	yes	57	0	503
6.6.1	win	2022-12-14	16:45:37	16:51:58	381027	638e39edc03272bc8071cbb6	412467272	1	main_z	7	main_z	159	stimuli_target_diamondcircles.svg	stimuli_distractor_diamondtriangles.svg	23	yes	44	1	858
6.6.1	win	2022-12-14	16:45:37	16:51:58	381027	638e39edc03272bc8071cbb6	412467272	1	main_z	7	advance_on_keypress_ZEE	160	stimuli_target_diamondcircles.svg	stimuli_distractor_diamondtriangles.svg	23	yes	57	0	443
6.6.1	win	2022-12-14	16:45:37	16:52:23	405385	638e39edc03272bc8071cbb6	412467272	1	practice_slash	9	practice_slash	1	stimuli_target_circlediamonds.svg	stimuli_distractor_trianglediamonds.svg	4	yes	53	1	511
6.6.1	win	2022-12-14	16:45:37	16:52:23	405385	638e39edc03272bc8071cbb6	412467272	1	practice_slash	9	advance_on_keypress_SLASH	2	stimuli_target_circlediamonds.svg	stimuli_distractor_trianglediamonds.svg	4	yes	57	0	160
6.6.1	win	2022-12-14	16:45:37	16:52:25	407724	638e39edc03272bc8071cbb6	412467272	1	practice_slash	9	practice_slash	3	stimuli_distractor_trianglediamonds.svg	stimuli_target_squarediamonds.svg	11	yes	53	1	554
6.6.1	win	2022-12-14	16:45:37	16:52:25	407724	638e39edc03272bc8071cbb6	412467272	1	practice_slash	9	advance_on_keypress_SLASH	4	stimuli_distractor_trianglediamonds.svg	stimuli_target_squarediamonds.svg	11	yes	57	0	459
6.6.1	win	2022-12-14	16:45:37	16:52:29	411805	638e39edc03272bc8071cbb6	412467272	1	practice_slash	9	practice_slash	5	stimuli_distractor_trianglediamonds.svg	stimuli_distractor_trianglediamonds.svg	15	no	0	1	2000
6.6.1	win	2022-12-14	16:45:37	16:52:29	411805	638e39edc03272bc8071cbb6	412467272	1	practice_slash	9	advance_on_keypress_SLASH	6	stimuli_distractor_trianglediamonds.svg	stimuli_distractor_trianglediamonds.svg	15	no	57	0	272
6.6.1	win	2022-12-14	16:45:37	16:52:32	414301	638e39edc03272bc8071cbb6	412467272	1	practice_slash	9	practice_slash	7	stimuli_target_squarediamonds.svg	stimuli_distractor_diamondtriangles.svg	2	yes	53	1	581
6.6.1	win	2022-12-14	16:45:37	16:52:32	414301	638e39edc03272bc8071cbb6	412467272	1	practice_slash	9	advance_on_keypress_SLASH	8	stimuli_target_squarediamonds.svg	stimuli_distractor_diamondtriangles.svg	2	yes	57	0	268
6.6.1	win	2022-12-14	16:45:37	16:52:34	417057	638e39edc03272bc8071cbb6	412467272	1	practice_slash	9	practice_slash	9	stimuli_distractor_diamondtriangles.svg	stimuli_target_trianglecircles.svg	9	yes	53	1	820
6.6.1	win	2022-12-14	16:45:37	16:52:34	417057	638e39edc03272bc8071cbb6	412467272	1	practice_slash	9	advance_on_keypress_SLASH	10	stimuli_distractor_diamondtriangles.svg	stimuli_target_trianglecircles.svg	9	yes	57	0	382
6.6.1	win	2022-12-14	16:45:37	16:52:37	419840	638e39edc03272bc8071cbb6	412467272	1	practice_slash	9	practice_slash	11	stimuli_target_diamondsquares.svg	stimuli_distractor_trianglediamonds.svg	6	yes	53	1	737
6.6.1	win	2022-12-14	16:45:37	16:52:37	419840	638e39edc03272bc8071cbb6	412467272	1	practice_slash	9	advance_on_keypress_SLASH	12	stimuli_target_diamondsquares.svg	stimuli_distractor_trianglediamonds.svg	6	yes	57	0	279
6.6.1	win	2022-12-14	16:45:37	16:52:40	422757	638e39edc03272bc8071cbb6	412467272	1	practice_slash	9	practice_slash	13	stimuli_distractor_trianglediamonds.svg	stimuli_target_circlediamonds.svg	10	yes	53	1	1002
6.6.1	win	2022-12-14	16:45:37	16:52:40	422757	638e39edc03272bc8071cbb6	412467272	1	practice_slash	9	advance_on_keypress_SLASH	14	stimuli_distractor_trianglediamonds.svg	stimuli_target_circlediamonds.svg	10	yes	57	0	634
6.6.1	win	2022-12-14	16:45:37	16:52:44	427013	638e39edc03272bc8071cbb6	412467272	1	practice_slash	9	practice_slash	15	stimuli_distractor_diamondtriangles.svg	stimuli_distractor_trianglediamonds.svg	14	no	0	1	2000
6.6.1	win	2022-12-14	16:45:37	16:52:44	427013	638e39edc03272bc8071cbb6	412467272	1	practice_slash	9	advance_on_keypress_SLASH	16	stimuli_distractor_diamondtriangles.svg	stimuli_distractor_trianglediamonds.svg	14	no	57	0	407
6.6.1	win	2022-12-14	16:45:37	16:52:47	429713	638e39edc03272bc8071cbb6	412467272	1	practice_slash	9	practice_slash	17	stimuli_target_diamondsquares.svg	stimuli_distractor_diamondtriangles.svg	3	yes	53	1	666
6.6.1	win	2022-12-14	16:45:37	16:52:47	429713	638e39edc03272bc8071cbb6	412467272	1	practice_slash	9	advance_on_keypress_SLASH	18	stimuli_target_diamondsquares.svg	stimuli_distractor_diamondtriangles.svg	3	yes	57	0	364
6.6.1	win	2022-12-14	16:45:37	16:52:50	432213	638e39edc03272bc8071cbb6	412467272	1	practice_slash	9	practice_slash	19	stimuli_target_squarediamonds.svg	stimuli_distractor_trianglediamonds.svg	5	yes	53	1	517
6.6.1	win	2022-12-14	16:45:37	16:52:50	432213	638e39edc03272bc8071cbb6	412467272	1	practice_slash	9	advance_on_keypress_SLASH	20	stimuli_target_squarediamonds.svg	stimuli_distractor_trianglediamonds.svg	5	yes	57	0	320
6.6.1	win	2022-12-14	16:45:37	16:52:52	434692	638e39edc03272bc8071cbb6	412467272	1	practice_slash	9	practice_slash	21	stimuli_distractor_diamondtriangles.svg	stimuli_target_diamondcircles.svg	8	yes	53	1	522
6.6.1	win	2022-12-14	16:45:37	16:52:52	434692	638e39edc03272bc8071cbb6	412467272	1	practice_slash	9	advance_on_keypress_SLASH	22	stimuli_distractor_diamondtriangles.svg	stimuli_target_diamondcircles.svg	8	yes	57	0	433
6.6.1	win	2022-12-14	16:45:37	16:52:56	438762	638e39edc03272bc8071cbb6	412467272	1	practice_slash	9	practice_slash	23	stimuli_distractor_trianglediamonds.svg	stimuli_distractor_diamondtriangles.svg	16	no	0	1	2000
6.6.1	win	2022-12-14	16:45:37	16:52:56	438762	638e39edc03272bc8071cbb6	412467272	1	practice_slash	9	advance_on_keypress_SLASH	24	stimuli_distractor_trianglediamonds.svg	stimuli_distractor_diamondtriangles.svg	16	no	57	0	366
6.6.1	win	2022-12-14	16:45:37	16:52:59	441306	638e39edc03272bc8071cbb6	412467272	1	practice_slash	9	practice_slash	25	stimuli_target_circlediamonds.svg	stimuli_distractor_diamondtriangles.svg	1	yes	53	1	550
6.6.1	win	2022-12-14	16:45:37	16:52:59	441306	638e39edc03272bc8071cbb6	412467272	1	practice_slash	9	advance_on_keypress_SLASH	26	stimuli_target_circlediamonds.svg	stimuli_distractor_diamondtriangles.svg	1	yes	57	0	380
6.6.1	win	2022-12-14	16:45:37	16:53:03	445306	638e39edc03272bc8071cbb6	412467272	1	practice_slash	9	practice_slash	27	stimuli_distractor_diamondtriangles.svg	stimuli_distractor_diamondtriangles.svg	13	no	0	1	2000
6.6.1	win	2022-12-14	16:45:37	16:53:03	445306	638e39edc03272bc8071cbb6	412467272	1	practice_slash	9	advance_on_keypress_SLASH	28	stimuli_distractor_diamondtriangles.svg	stimuli_distractor_diamondtriangles.svg	13	no	57	0	424
6.6.1	win	2022-12-14	16:45:37	16:53:05	447957	638e39edc03272bc8071cbb6	412467272	1	practice_slash	9	practice_slash	29	stimuli_distractor_trianglediamonds.svg	stimuli_target_diamondcircles.svg	12	yes	53	1	602
6.6.1	win	2022-12-14	16:45:37	16:53:05	447957	638e39edc03272bc8071cbb6	412467272	1	practice_slash	9	advance_on_keypress_SLASH	30	stimuli_distractor_trianglediamonds.svg	stimuli_target_diamondcircles.svg	12	yes	57	0	414
6.6.1	win	2022-12-14	16:45:37	16:53:08	450606	638e39edc03272bc8071cbb6	412467272	1	practice_slash	9	practice_slash	31	stimuli_distractor_diamondtriangles.svg	stimuli_target_circletriangles.svg	7	yes	53	1	610
6.6.1	win	2022-12-14	16:45:37	16:53:08	450606	638e39edc03272bc8071cbb6	412467272	1	practice_slash	9	advance_on_keypress_SLASH	32	stimuli_distractor_diamondtriangles.svg	stimuli_target_circletriangles.svg	7	yes	57	0	292
6.6.1	win	2022-12-14	16:45:37	16:53:11	454148	638e39edc03272bc8071cbb6	412467272	1	main_slash	11	main_slash	1	stimuli_distractor_trianglediamonds.svg	stimuli_target_diamondsquares.svg	28	yes	53	1	669
6.6.1	win	2022-12-14	16:45:37	16:53:11	454148	638e39edc03272bc8071cbb6	412467272	1	main_slash	11	advance_on_keypress_SLASH	2	stimuli_distractor_trianglediamonds.svg	stimuli_target_diamondsquares.svg	28	yes	57	0	1127
6.6.1	win	2022-12-14	16:45:37	16:53:14	456427	638e39edc03272bc8071cbb6	412467272	1	main_slash	11	main_slash	3	stimuli_distractor_diamondtriangles.svg	stimuli_target_trianglesquares.svg	30	yes	53	1	529
6.6.1	win	2022-12-14	16:45:37	16:53:14	456427	638e39edc03272bc8071cbb6	412467272	1	main_slash	11	advance_on_keypress_SLASH	4	stimuli_distractor_diamondtriangles.svg	stimuli_target_trianglesquares.svg	30	yes	57	0	603
6.6.1	win	2022-12-14	16:45:37	16:53:17	459654	638e39edc03272bc8071cbb6	412467272	1	main_slash	11	main_slash	5	stimuli_distractor_diamondtriangles.svg	stimuli_distractor_diamondtriangles.svg	40	no	0	1	2000
6.6.1	win	2022-12-14	16:45:37	16:53:17	459654	638e39edc03272bc8071cbb6	412467272	1	main_slash	11	advance_on_keypress_SLASH	6	stimuli_distractor_diamondtriangles.svg	stimuli_distractor_diamondtriangles.svg	40	no	57	0	534
6.6.1	win	2022-12-14	16:45:37	16:53:19	461235	638e39edc03272bc8071cbb6	412467272	1	main_slash	11	main_slash	7	stimuli_distractor_trianglediamonds.svg	stimuli_target_circlediamonds.svg	10	yes	53	1	424
6.6.1	win	2022-12-14	16:45:37	16:53:19	461235	638e39edc03272bc8071cbb6	412467272	1	main_slash	11	advance_on_keypress_SLASH	8	stimuli_distractor_trianglediamonds.svg	stimuli_target_circlediamonds.svg	10	yes	57	0	555
6.6.1	win	2022-12-14	16:45:37	16:53:20	462859	638e39edc03272bc8071cbb6	412467272	1	main_slash	11	main_slash	9	stimuli_distractor_trianglediamonds.svg	stimuli_target_squarediamonds.svg	12	yes	53	1	447
6.6.1	win	2022-12-14	16:45:37	16:53:20	462859	638e39edc03272bc8071cbb6	412467272	1	main_slash	11	advance_on_keypress_SLASH	10	stimuli_distractor_trianglediamonds.svg	stimuli_target_squarediamonds.svg	12	yes	57	0	522
6.6.1	win	2022-12-14	16:45:37	16:53:22	464477	638e39edc03272bc8071cbb6	412467272	1	main_slash	11	main_slash	11	stimuli_distractor_diamondtriangles.svg	stimuli_target_diamondcircles.svg	31	yes	53	1	455
6.6.1	win	2022-12-14	16:45:37	16:53:22	464477	638e39edc03272bc8071cbb6	412467272	1	main_slash	11	advance_on_keypress_SLASH	12	stimuli_distractor_diamondtriangles.svg	stimuli_target_diamondcircles.svg	31	yes	57	0	512
6.6.1	win	2022-12-14	16:45:37	16:53:25	467626	638e39edc03272bc8071cbb6	412467272	1	main_slash	11	main_slash	13	stimuli_distractor_trianglediamonds.svg	stimuli_distractor_diamondtriangles.svg	36	no	0	1	2000
6.6.1	win	2022-12-14	16:45:37	16:53:25	467626	638e39edc03272bc8071cbb6	412467272	1	main_slash	11	advance_on_keypress_SLASH	14	stimuli_distractor_trianglediamonds.svg	stimuli_distractor_diamondtriangles.svg	36	no	57	0	298
6.6.1	win	2022-12-14	16:45:37	16:53:26	469067	638e39edc03272bc8071cbb6	412467272	1	main_slash	11	main_slash	15	stimuli_target_diamondcircles.svg	stimuli_distractor_diamondtriangles.svg	23	yes	53	1	513
6.6.1	win	2022-12-14	16:45:37	16:53:26	469067	638e39edc03272bc8071cbb6	412467272	1	main_slash	11	advance_on_keypress_SLASH	16	stimuli_target_diamondcircles.svg	stimuli_distractor_diamondtriangles.svg	23	yes	57	0	446
6.6.1	win	2022-12-14	16:45:37	16:53:29	472128	638e39edc03272bc8071cbb6	412467272	1	main_slash	11	main_slash	17	stimuli_distractor_diamondtriangles.svg	stimuli_distractor_trianglediamonds.svg	38	no	0	1	2000
6.6.1	win	2022-12-14	16:45:37	16:53:29	472128	638e39edc03272bc8071cbb6	412467272	1	main_slash	11	advance_on_keypress_SLASH	18	stimuli_distractor_diamondtriangles.svg	stimuli_distractor_trianglediamonds.svg	38	no	57	0	303
6.6.1	win	2022-12-14	16:45:37	16:53:31	473420	638e39edc03272bc8071cbb6	412467272	1	main_slash	11	main_slash	19	stimuli_target_squarediamonds.svg	stimuli_distractor_diamondtriangles.svg	8	yes	53	1	367
6.6.1	win	2022-12-14	16:45:37	16:53:31	473420	638e39edc03272bc8071cbb6	412467272	1	main_slash	11	advance_on_keypress_SLASH	20	stimuli_target_squarediamonds.svg	stimuli_distractor_diamondtriangles.svg	8	yes	57	0	532
6.6.1	win	2022-12-14	16:45:37	16:53:34	476578	638e39edc03272bc8071cbb6	412467272	1	main_slash	11	main_slash	21	stimuli_distractor_trianglediamonds.svg	stimuli_distractor_trianglediamonds.svg	33	no	0	1	2000
6.6.1	win	2022-12-14	16:45:37	16:53:34	476578	638e39edc03272bc8071cbb6	412467272	1	main_slash	11	advance_on_keypress_SLASH	22	stimuli_distractor_trianglediamonds.svg	stimuli_distractor_trianglediamonds.svg	33	no	57	0	369
6.6.1	win	2022-12-14	16:45:37	16:53:35	478151	638e39edc03272bc8071cbb6	412467272	1	main_slash	11	main_slash	23	stimuli_target_circlediamonds.svg	stimuli_distractor_diamondtriangles.svg	6	yes	53	1	582
6.6.1	win	2022-12-14	16:45:37	16:53:35	478151	638e39edc03272bc8071cbb6	412467272	1	main_slash	11	advance_on_keypress_SLASH	24	stimuli_target_circlediamonds.svg	stimuli_distractor_diamondtriangles.svg	6	yes	57	0	454
6.6.1	win	2022-12-14	16:45:37	16:53:37	479704	638e39edc03272bc8071cbb6	412467272	1	main_slash	11	main_slash	25	stimuli_distractor_trianglediamonds.svg	stimuli_target_squaretriangles.svg	11	yes	53	1	476
6.6.1	win	2022-12-14	16:45:37	16:53:37	479704	638e39edc03272bc8071cbb6	412467272	1	main_slash	11	advance_on_keypress_SLASH	26	stimuli_distractor_trianglediamonds.svg	stimuli_target_squaretriangles.svg	11	yes	57	0	584
6.6.1	win	2022-12-14	16:45:37	16:53:39	481400	638e39edc03272bc8071cbb6	412467272	1	main_slash	11	main_slash	27	stimuli_target_diamondcircles.svg	stimuli_distractor_trianglediamonds.svg	19	yes	53	1	489
6.6.1	win	2022-12-14	16:45:37	16:53:39	481400	638e39edc03272bc8071cbb6	412467272	1	main_slash	11	advance_on_keypress_SLASH	28	stimuli_target_diamondcircles.svg	stimuli_distractor_trianglediamonds.svg	19	yes	57	0	557
6.6.1	win	2022-12-14	16:45:37	16:53:40	483059	638e39edc03272bc8071cbb6	412467272	1	main_slash	11	main_slash	29	stimuli_distractor_diamondtriangles.svg	stimuli_target_circletriangles.svg	13	yes	53	1	482
6.6.1	win	2022-12-14	16:45:37	16:53:40	483059	638e39edc03272bc8071cbb6	412467272	1	main_slash	11	advance_on_keypress_SLASH	30	stimuli_distractor_diamondtriangles.svg	stimuli_target_circletriangles.svg	13	yes	57	0	530
6.6.1	win	2022-12-14	16:45:37	16:53:42	484575	638e39edc03272bc8071cbb6	412467272	1	main_slash	11	main_slash	31	stimuli_target_circlediamonds.svg	stimuli_distractor_trianglediamonds.svg	2	yes	53	1	364
6.6.1	win	2022-12-14	16:45:37	16:53:42	484575	638e39edc03272bc8071cbb6	412467272	1	main_slash	11	advance_on_keypress_SLASH	32	stimuli_target_circlediamonds.svg	stimuli_distractor_trianglediamonds.svg	2	yes	57	0	493
6.6.1	win	2022-12-14	16:45:37	16:53:44	486288	638e39edc03272bc8071cbb6	412467272	1	main_slash	11	main_slash	33	stimuli_target_trianglesquares.svg	stimuli_distractor_trianglediamonds.svg	18	yes	53	1	601
6.6.1	win	2022-12-14	16:45:37	16:53:44	486288	638e39edc03272bc8071cbb6	412467272	1	main_slash	11	advance_on_keypress_SLASH	34	stimuli_target_trianglesquares.svg	stimuli_distractor_trianglediamonds.svg	18	yes	57	0	513
6.6.1	win	2022-12-14	16:45:37	16:53:45	488011	638e39edc03272bc8071cbb6	412467272	1	main_slash	11	main_slash	35	stimuli_target_trianglesquares.svg	stimuli_distractor_diamondtriangles.svg	22	yes	53	1	591
6.6.1	win	2022-12-14	16:45:37	16:53:45	488011	638e39edc03272bc8071cbb6	412467272	1	main_slash	11	advance_on_keypress_SLASH	36	stimuli_target_trianglesquares.svg	stimuli_distractor_diamondtriangles.svg	22	yes	57	0	428
6.6.1	win	2022-12-14	16:45:37	16:53:47	489871	638e39edc03272bc8071cbb6	412467272	1	main_slash	11	main_slash	37	stimuli_target_circletriangles.svg	stimuli_distractor_diamondtriangles.svg	5	yes	53	1	810
6.6.1	win	2022-12-14	16:45:37	16:53:47	489871	638e39edc03272bc8071cbb6	412467272	1	main_slash	11	advance_on_keypress_SLASH	38	stimuli_target_circletriangles.svg	stimuli_distractor_diamondtriangles.svg	5	yes	57	0	414
6.6.1	win	2022-12-14	16:45:37	16:53:49	491467	638e39edc03272bc8071cbb6	412467272	1	main_slash	11	main_slash	39	stimuli_target_squaretriangles.svg	stimuli_distractor_diamondtriangles.svg	7	yes	53	1	565
6.6.1	win	2022-12-14	16:45:37	16:53:49	491467	638e39edc03272bc8071cbb6	412467272	1	main_slash	11	advance_on_keypress_SLASH	40	stimuli_target_squaretriangles.svg	stimuli_distractor_diamondtriangles.svg	7	yes	57	0	446
6.6.1	win	2022-12-14	16:45:37	16:53:50	493007	638e39edc03272bc8071cbb6	412467272	1	main_slash	11	main_slash	41	stimuli_distractor_diamondtriangles.svg	stimuli_target_circlediamonds.svg	14	yes	53	1	471
6.6.1	win	2022-12-14	16:45:37	16:53:50	493007	638e39edc03272bc8071cbb6	412467272	1	main_slash	11	advance_on_keypress_SLASH	42	stimuli_distractor_diamondtriangles.svg	stimuli_target_circlediamonds.svg	14	yes	57	0	508
6.6.1	win	2022-12-14	16:45:37	16:53:52	494652	638e39edc03272bc8071cbb6	412467272	1	main_slash	11	main_slash	43	stimuli_target_circletriangles.svg	stimuli_distractor_trianglediamonds.svg	1	yes	53	1	515
6.6.1	win	2022-12-14	16:45:37	16:53:52	494652	638e39edc03272bc8071cbb6	412467272	1	main_slash	11	advance_on_keypress_SLASH	44	stimuli_target_circletriangles.svg	stimuli_distractor_trianglediamonds.svg	1	yes	57	0	485
6.6.1	win	2022-12-14	16:45:37	16:53:54	496655	638e39edc03272bc8071cbb6	412467272	1	main_slash	11	main_slash	45	stimuli_target_trianglecircles.svg	stimuli_distractor_diamondtriangles.svg	21	yes	53	1	894
6.6.1	win	2022-12-14	16:45:37	16:53:54	496655	638e39edc03272bc8071cbb6	412467272	1	main_slash	11	advance_on_keypress_SLASH	46	stimuli_target_trianglecircles.svg	stimuli_distractor_diamondtriangles.svg	21	yes	57	0	614
6.6.1	win	2022-12-14	16:45:37	16:53:56	498472	638e39edc03272bc8071cbb6	412467272	1	main_slash	11	main_slash	47	stimuli_distractor_trianglediamonds.svg	stimuli_target_trianglecircles.svg	25	yes	53	1	585
6.6.1	win	2022-12-14	16:45:37	16:53:56	498472	638e39edc03272bc8071cbb6	412467272	1	main_slash	11	advance_on_keypress_SLASH	48	stimuli_distractor_trianglediamonds.svg	stimuli_target_trianglecircles.svg	25	yes	57	0	446
6.6.1	win	2022-12-14	16:45:37	16:53:57	500072	638e39edc03272bc8071cbb6	412467272	1	main_slash	11	main_slash	49	stimuli_distractor_diamondtriangles.svg	stimuli_target_diamondsquares.svg	32	yes	53	1	535
6.6.1	win	2022-12-14	16:45:37	16:53:57	500072	638e39edc03272bc8071cbb6	412467272	1	main_slash	11	advance_on_keypress_SLASH	50	stimuli_distractor_diamondtriangles.svg	stimuli_target_diamondsquares.svg	32	yes	57	0	537
6.6.1	win	2022-12-14	16:45:37	16:53:59	501772	638e39edc03272bc8071cbb6	412467272	1	main_slash	11	main_slash	51	stimuli_distractor_trianglediamonds.svg	stimuli_target_circletriangles.svg	9	yes	53	1	544
6.6.1	win	2022-12-14	16:45:37	16:53:59	501772	638e39edc03272bc8071cbb6	412467272	1	main_slash	11	advance_on_keypress_SLASH	52	stimuli_distractor_trianglediamonds.svg	stimuli_target_circletriangles.svg	9	yes	57	0	535
6.6.1	win	2022-12-14	16:45:37	16:54:01	503789	638e39edc03272bc8071cbb6	412467272	1	main_slash	11	main_slash	53	stimuli_target_squaretriangles.svg	stimuli_distractor_trianglediamonds.svg	3	yes	53	1	861
6.6.1	win	2022-12-14	16:45:37	16:54:01	503789	638e39edc03272bc8071cbb6	412467272	1	main_slash	11	advance_on_keypress_SLASH	54	stimuli_target_squaretriangles.svg	stimuli_distractor_trianglediamonds.svg	3	yes	57	0	389
6.6.1	win	2022-12-14	16:45:37	16:54:03	505420	638e39edc03272bc8071cbb6	412467272	1	main_slash	11	main_slash	55	stimuli_distractor_diamondtriangles.svg	stimuli_target_squarediamonds.svg	16	yes	53	1	625
6.6.1	win	2022-12-14	16:45:37	16:54:03	505420	638e39edc03272bc8071cbb6	412467272	1	main_slash	11	advance_on_keypress_SLASH	56	stimuli_distractor_diamondtriangles.svg	stimuli_target_squarediamonds.svg	16	yes	57	0	488
6.6.1	win	2022-12-14	16:45:37	16:54:05	507164	638e39edc03272bc8071cbb6	412467272	1	main_slash	11	main_slash	57	stimuli_distractor_trianglediamonds.svg	stimuli_target_diamondcircles.svg	27	yes	53	1	636
6.6.1	win	2022-12-14	16:45:37	16:54:05	507164	638e39edc03272bc8071cbb6	412467272	1	main_slash	11	advance_on_keypress_SLASH	58	stimuli_distractor_trianglediamonds.svg	stimuli_target_diamondcircles.svg	27	yes	57	0	542
6.6.1	win	2022-12-14	16:45:37	16:54:08	510328	638e39edc03272bc8071cbb6	412467272	1	main_slash	11	main_slash	59	stimuli_distractor_diamondtriangles.svg	stimuli_distractor_diamondtriangles.svg	39	no	0	1	2000
6.6.1	win	2022-12-14	16:45:37	16:54:08	510328	638e39edc03272bc8071cbb6	412467272	1	main_slash	11	advance_on_keypress_SLASH	60	stimuli_distractor_diamondtriangles.svg	stimuli_distractor_diamondtriangles.svg	39	no	57	0	447
6.6.1	win	2022-12-14	16:45:37	16:54:09	512107	638e39edc03272bc8071cbb6	412467272	1	main_slash	11	main_slash	61	stimuli_distractor_trianglediamonds.svg	stimuli_target_trianglesquares.svg	26	yes	53	1	713
6.6.1	win	2022-12-14	16:45:37	16:54:09	512107	638e39edc03272bc8071cbb6	412467272	1	main_slash	11	advance_on_keypress_SLASH	62	stimuli_distractor_trianglediamonds.svg	stimuli_target_trianglesquares.svg	26	yes	57	0	436
6.6.1	win	2022-12-14	16:45:37	16:54:11	513855	638e39edc03272bc8071cbb6	412467272	1	main_slash	11	main_slash	63	stimuli_target_squarediamonds.svg	stimuli_distractor_trianglediamonds.svg	4	yes	53	1	694
6.6.1	win	2022-12-14	16:45:37	16:54:11	513855	638e39edc03272bc8071cbb6	412467272	1	main_slash	11	advance_on_keypress_SLASH	64	stimuli_target_squarediamonds.svg	stimuli_distractor_trianglediamonds.svg	4	yes	57	0	466
6.6.1	win	2022-12-14	16:45:37	16:54:13	516036	638e39edc03272bc8071cbb6	412467272	1	main_slash	11	main_slash	65	stimuli_distractor_diamondtriangles.svg	stimuli_target_squaretriangles.svg	15	yes	53	1	1091
6.6.1	win	2022-12-14	16:45:37	16:54:13	516036	638e39edc03272bc8071cbb6	412467272	1	main_slash	11	advance_on_keypress_SLASH	66	stimuli_distractor_diamondtriangles.svg	stimuli_target_squaretriangles.svg	15	yes	57	0	368
6.6.1	win	2022-12-14	16:45:37	16:54:15	517883	638e39edc03272bc8071cbb6	412467272	1	main_slash	11	main_slash	67	stimuli_target_diamondsquares.svg	stimuli_distractor_trianglediamonds.svg	20	yes	53	1	856
6.6.1	win	2022-12-14	16:45:37	16:54:15	517883	638e39edc03272bc8071cbb6	412467272	1	main_slash	11	advance_on_keypress_SLASH	68	stimuli_target_diamondsquares.svg	stimuli_distractor_trianglediamonds.svg	20	yes	57	0	485
6.6.1	win	2022-12-14	16:45:37	16:54:17	519739	638e39edc03272bc8071cbb6	412467272	1	main_slash	11	main_slash	69	stimuli_target_trianglecircles.svg	stimuli_distractor_trianglediamonds.svg	17	yes	53	1	754
6.6.1	win	2022-12-14	16:45:37	16:54:17	519739	638e39edc03272bc8071cbb6	412467272	1	main_slash	11	advance_on_keypress_SLASH	70	stimuli_target_trianglecircles.svg	stimuli_distractor_trianglediamonds.svg	17	yes	57	0	467
6.6.1	win	2022-12-14	16:45:37	16:54:20	522828	638e39edc03272bc8071cbb6	412467272	1	main_slash	11	main_slash	71	stimuli_distractor_trianglediamonds.svg	stimuli_distractor_trianglediamonds.svg	34	no	0	1	2000
6.6.1	win	2022-12-14	16:45:37	16:54:20	522828	638e39edc03272bc8071cbb6	412467272	1	main_slash	11	advance_on_keypress_SLASH	72	stimuli_distractor_trianglediamonds.svg	stimuli_distractor_trianglediamonds.svg	34	no	57	0	279
6.6.1	win	2022-12-14	16:45:37	16:54:23	525728	638e39edc03272bc8071cbb6	412467272	1	main_slash	11	main_slash	73	stimuli_distractor_trianglediamonds.svg	stimuli_distractor_diamondtriangles.svg	35	no	0	1	2000
6.6.1	win	2022-12-14	16:45:37	16:54:23	525728	638e39edc03272bc8071cbb6	412467272	1	main_slash	11	advance_on_keypress_SLASH	74	stimuli_distractor_trianglediamonds.svg	stimuli_distractor_diamondtriangles.svg	35	no	57	0	364
6.6.1	win	2022-12-14	16:45:37	16:54:25	527707	638e39edc03272bc8071cbb6	412467272	1	main_slash	11	main_slash	75	stimuli_target_diamondsquares.svg	stimuli_distractor_diamondtriangles.svg	24	yes	53	1	997
6.6.1	win	2022-12-14	16:45:37	16:54:25	527707	638e39edc03272bc8071cbb6	412467272	1	main_slash	11	advance_on_keypress_SLASH	76	stimuli_target_diamondsquares.svg	stimuli_distractor_diamondtriangles.svg	24	yes	57	0	521
6.6.1	win	2022-12-14	16:45:37	16:54:28	530845	638e39edc03272bc8071cbb6	412467272	1	main_slash	11	main_slash	77	stimuli_distractor_diamondtriangles.svg	stimuli_distractor_trianglediamonds.svg	37	no	0	1	2000
6.6.1	win	2022-12-14	16:45:37	16:54:28	530845	638e39edc03272bc8071cbb6	412467272	1	main_slash	11	advance_on_keypress_SLASH	78	stimuli_distractor_diamondtriangles.svg	stimuli_distractor_trianglediamonds.svg	37	no	57	0	278
6.6.1	win	2022-12-14	16:45:37	16:54:30	532312	638e39edc03272bc8071cbb6	412467272	1	main_slash	11	main_slash	79	stimuli_distractor_diamondtriangles.svg	stimuli_target_trianglecircles.svg	29	yes	53	1	567
6.6.1	win	2022-12-14	16:45:37	16:54:30	532312	638e39edc03272bc8071cbb6	412467272	1	main_slash	11	advance_on_keypress_SLASH	80	stimuli_distractor_diamondtriangles.svg	stimuli_target_trianglecircles.svg	29	yes	57	0	342
6.6.1	win	2022-12-14	16:45:37	16:54:31	533814	638e39edc03272bc8071cbb6	412467272	1	main_slash	11	main_slash	81	stimuli_distractor_trianglediamonds.svg	stimuli_target_trianglecircles.svg	25	yes	53	1	536
6.6.1	win	2022-12-14	16:45:37	16:54:31	533814	638e39edc03272bc8071cbb6	412467272	1	main_slash	11	advance_on_keypress_SLASH	82	stimuli_distractor_trianglediamonds.svg	stimuli_target_trianglecircles.svg	25	yes	57	0	348
6.6.1	win	2022-12-14	16:45:37	16:54:33	535223	638e39edc03272bc8071cbb6	412467272	1	main_slash	11	main_slash	83	stimuli_distractor_trianglediamonds.svg	stimuli_target_diamondcircles.svg	27	yes	53	1	437
6.6.1	win	2022-12-14	16:45:37	16:54:33	535223	638e39edc03272bc8071cbb6	412467272	1	main_slash	11	advance_on_keypress_SLASH	84	stimuli_distractor_trianglediamonds.svg	stimuli_target_diamondcircles.svg	27	yes	57	0	504
6.6.1	win	2022-12-14	16:45:37	16:54:34	536827	638e39edc03272bc8071cbb6	412467272	1	main_slash	11	main_slash	85	stimuli_target_circletriangles.svg	stimuli_distractor_trianglediamonds.svg	1	yes	53	1	475
6.6.1	win	2022-12-14	16:45:37	16:54:34	536827	638e39edc03272bc8071cbb6	412467272	1	main_slash	11	advance_on_keypress_SLASH	86	stimuli_target_circletriangles.svg	stimuli_distractor_trianglediamonds.svg	1	yes	57	0	691
6.6.1	win	2022-12-14	16:45:37	16:54:36	538780	638e39edc03272bc8071cbb6	412467272	1	main_slash	11	main_slash	87	stimuli_target_squaretriangles.svg	stimuli_distractor_diamondtriangles.svg	7	yes	53	1	632
6.6.1	win	2022-12-14	16:45:37	16:54:36	538780	638e39edc03272bc8071cbb6	412467272	1	main_slash	11	advance_on_keypress_SLASH	88	stimuli_target_squaretriangles.svg	stimuli_distractor_diamondtriangles.svg	7	yes	57	0	493
6.6.1	win	2022-12-14	16:45:37	16:54:38	540467	638e39edc03272bc8071cbb6	412467272	1	main_slash	11	main_slash	89	stimuli_target_squaretriangles.svg	stimuli_distractor_trianglediamonds.svg	3	yes	53	1	573
6.6.1	win	2022-12-14	16:45:37	16:54:38	540467	638e39edc03272bc8071cbb6	412467272	1	main_slash	11	advance_on_keypress_SLASH	90	stimuli_target_squaretriangles.svg	stimuli_distractor_trianglediamonds.svg	3	yes	57	0	438
6.6.1	win	2022-12-14	16:45:37	16:54:39	542111	638e39edc03272bc8071cbb6	412467272	1	main_slash	11	main_slash	91	stimuli_target_trianglecircles.svg	stimuli_distractor_trianglediamonds.svg	17	yes	53	1	583
6.6.1	win	2022-12-14	16:45:37	16:54:39	542111	638e39edc03272bc8071cbb6	412467272	1	main_slash	11	advance_on_keypress_SLASH	92	stimuli_target_trianglecircles.svg	stimuli_distractor_trianglediamonds.svg	17	yes	57	0	424
6.6.1	win	2022-12-14	16:45:37	16:54:42	545161	638e39edc03272bc8071cbb6	412467272	1	main_slash	11	main_slash	93	stimuli_distractor_trianglediamonds.svg	stimuli_distractor_trianglediamonds.svg	34	no	0	1	2000
6.6.1	win	2022-12-14	16:45:37	16:54:42	545161	638e39edc03272bc8071cbb6	412467272	1	main_slash	11	advance_on_keypress_SLASH	94	stimuli_distractor_trianglediamonds.svg	stimuli_distractor_trianglediamonds.svg	34	no	57	0	274
6.6.1	win	2022-12-14	16:45:37	16:54:44	546499	638e39edc03272bc8071cbb6	412467272	1	main_slash	11	main_slash	95	stimuli_target_circletriangles.svg	stimuli_distractor_diamondtriangles.svg	5	yes	53	1	438
6.6.1	win	2022-12-14	16:45:37	16:54:44	546499	638e39edc03272bc8071cbb6	412467272	1	main_slash	11	advance_on_keypress_SLASH	96	stimuli_target_circletriangles.svg	stimuli_distractor_diamondtriangles.svg	5	yes	57	0	369
6.6.1	win	2022-12-14	16:45:37	16:54:47	549486	638e39edc03272bc8071cbb6	412467272	1	main_slash	11	main_slash	97	stimuli_distractor_diamondtriangles.svg	stimuli_distractor_trianglediamonds.svg	37	no	0	1	2000
6.6.1	win	2022-12-14	16:45:37	16:54:47	549486	638e39edc03272bc8071cbb6	412467272	1	main_slash	11	advance_on_keypress_SLASH	98	stimuli_distractor_diamondtriangles.svg	stimuli_distractor_trianglediamonds.svg	37	no	57	0	321
6.6.1	win	2022-12-14	16:45:37	16:54:48	551055	638e39edc03272bc8071cbb6	412467272	1	main_slash	11	main_slash	99	stimuli_target_diamondcircles.svg	stimuli_distractor_trianglediamonds.svg	19	yes	53	1	628
6.6.1	win	2022-12-14	16:45:37	16:54:48	551055	638e39edc03272bc8071cbb6	412467272	1	main_slash	11	advance_on_keypress_SLASH	100	stimuli_target_diamondcircles.svg	stimuli_distractor_trianglediamonds.svg	19	yes	57	0	414
6.6.1	win	2022-12-14	16:45:37	16:54:50	552528	638e39edc03272bc8071cbb6	412467272	1	main_slash	11	main_slash	101	stimuli_distractor_diamondtriangles.svg	stimuli_target_diamondcircles.svg	31	yes	53	1	442
6.6.1	win	2022-12-14	16:45:37	16:54:50	552528	638e39edc03272bc8071cbb6	412467272	1	main_slash	11	advance_on_keypress_SLASH	102	stimuli_distractor_diamondtriangles.svg	stimuli_target_diamondcircles.svg	31	yes	57	0	408
6.6.1	win	2022-12-14	16:45:37	16:54:51	554031	638e39edc03272bc8071cbb6	412467272	1	main_slash	11	main_slash	103	stimuli_target_squarediamonds.svg	stimuli_distractor_trianglediamonds.svg	4	yes	53	1	471
6.6.1	win	2022-12-14	16:45:37	16:54:51	554031	638e39edc03272bc8071cbb6	412467272	1	main_slash	11	advance_on_keypress_SLASH	104	stimuli_target_squarediamonds.svg	stimuli_distractor_trianglediamonds.svg	4	yes	57	0	448
6.6.1	win	2022-12-14	16:45:37	16:54:54	557095	638e39edc03272bc8071cbb6	412467272	1	main_slash	11	main_slash	105	stimuli_distractor_diamondtriangles.svg	stimuli_distractor_trianglediamonds.svg	38	no	0	1	2000
6.6.1	win	2022-12-14	16:45:37	16:54:54	557095	638e39edc03272bc8071cbb6	412467272	1	main_slash	11	advance_on_keypress_SLASH	106	stimuli_distractor_diamondtriangles.svg	stimuli_distractor_trianglediamonds.svg	38	no	57	0	402
6.6.1	win	2022-12-14	16:45:37	16:54:56	558563	638e39edc03272bc8071cbb6	412467272	1	main_slash	11	main_slash	107	stimuli_distractor_diamondtriangles.svg	stimuli_target_trianglesquares.svg	30	yes	53	1	444
6.6.1	win	2022-12-14	16:45:37	16:54:56	558563	638e39edc03272bc8071cbb6	412467272	1	main_slash	11	advance_on_keypress_SLASH	108	stimuli_distractor_diamondtriangles.svg	stimuli_target_trianglesquares.svg	30	yes	57	0	435
6.6.1	win	2022-12-14	16:45:37	16:54:59	561620	638e39edc03272bc8071cbb6	412467272	1	main_slash	11	main_slash	109	stimuli_distractor_trianglediamonds.svg	stimuli_distractor_diamondtriangles.svg	36	no	0	1	2000
6.6.1	win	2022-12-14	16:45:37	16:54:59	561620	638e39edc03272bc8071cbb6	412467272	1	main_slash	11	advance_on_keypress_SLASH	110	stimuli_distractor_trianglediamonds.svg	stimuli_distractor_diamondtriangles.svg	36	no	57	0	488
6.6.1	win	2022-12-14	16:45:37	16:55:02	564728	638e39edc03272bc8071cbb6	412467272	1	main_slash	11	main_slash	111	stimuli_distractor_trianglediamonds.svg	stimuli_distractor_diamondtriangles.svg	35	no	0	1	2000
6.6.1	win	2022-12-14	16:45:37	16:55:02	564728	638e39edc03272bc8071cbb6	412467272	1	main_slash	11	advance_on_keypress_SLASH	112	stimuli_distractor_trianglediamonds.svg	stimuli_distractor_diamondtriangles.svg	35	no	57	0	304
6.6.1	win	2022-12-14	16:45:37	16:55:03	566047	638e39edc03272bc8071cbb6	412467272	1	main_slash	11	main_slash	113	stimuli_target_diamondsquares.svg	stimuli_distractor_trianglediamonds.svg	20	yes	53	1	374
6.6.1	win	2022-12-14	16:45:37	16:55:03	566047	638e39edc03272bc8071cbb6	412467272	1	main_slash	11	advance_on_keypress_SLASH	114	stimuli_target_diamondsquares.svg	stimuli_distractor_trianglediamonds.svg	20	yes	57	0	327
6.6.1	win	2022-12-14	16:45:37	16:55:05	567548	638e39edc03272bc8071cbb6	412467272	1	main_slash	11	main_slash	115	stimuli_distractor_diamondtriangles.svg	stimuli_target_squarediamonds.svg	16	yes	53	1	515
6.6.1	win	2022-12-14	16:45:37	16:55:05	567548	638e39edc03272bc8071cbb6	412467272	1	main_slash	11	advance_on_keypress_SLASH	116	stimuli_distractor_diamondtriangles.svg	stimuli_target_squarediamonds.svg	16	yes	57	0	327
6.6.1	win	2022-12-14	16:45:37	16:55:06	569159	638e39edc03272bc8071cbb6	412467272	1	main_slash	11	main_slash	117	stimuli_target_trianglesquares.svg	stimuli_distractor_diamondtriangles.svg	22	yes	53	1	657
6.6.1	win	2022-12-14	16:45:37	16:55:06	569159	638e39edc03272bc8071cbb6	412467272	1	main_slash	11	advance_on_keypress_SLASH	118	stimuli_target_trianglesquares.svg	stimuli_distractor_diamondtriangles.svg	22	yes	57	0	394
6.6.1	win	2022-12-14	16:45:37	16:55:08	570691	638e39edc03272bc8071cbb6	412467272	1	main_slash	11	main_slash	119	stimuli_target_diamondsquares.svg	stimuli_distractor_diamondtriangles.svg	24	yes	53	1	514
6.6.1	win	2022-12-14	16:45:37	16:55:08	570691	638e39edc03272bc8071cbb6	412467272	1	main_slash	11	advance_on_keypress_SLASH	120	stimuli_target_diamondsquares.svg	stimuli_distractor_diamondtriangles.svg	24	yes	57	0	377
6.6.1	win	2022-12-14	16:45:37	16:55:10	572224	638e39edc03272bc8071cbb6	412467272	1	main_slash	11	main_slash	121	stimuli_target_circlediamonds.svg	stimuli_distractor_trianglediamonds.svg	2	yes	53	1	530
6.6.1	win	2022-12-14	16:45:37	16:55:10	572224	638e39edc03272bc8071cbb6	412467272	1	main_slash	11	advance_on_keypress_SLASH	122	stimuli_target_circlediamonds.svg	stimuli_distractor_trianglediamonds.svg	2	yes	57	0	368
6.6.1	win	2022-12-14	16:45:37	16:55:13	575246	638e39edc03272bc8071cbb6	412467272	1	main_slash	11	main_slash	123	stimuli_distractor_trianglediamonds.svg	stimuli_distractor_trianglediamonds.svg	33	no	0	1	2000
6.6.1	win	2022-12-14	16:45:37	16:55:13	575246	638e39edc03272bc8071cbb6	412467272	1	main_slash	11	advance_on_keypress_SLASH	124	stimuli_distractor_trianglediamonds.svg	stimuli_distractor_trianglediamonds.svg	33	no	57	0	311
6.6.1	win	2022-12-14	16:45:37	16:55:14	576672	638e39edc03272bc8071cbb6	412467272	1	main_slash	11	main_slash	125	stimuli_target_squarediamonds.svg	stimuli_distractor_diamondtriangles.svg	8	yes	53	1	480
6.6.1	win	2022-12-14	16:45:37	16:55:14	576672	638e39edc03272bc8071cbb6	412467272	1	main_slash	11	advance_on_keypress_SLASH	126	stimuli_target_squarediamonds.svg	stimuli_distractor_diamondtriangles.svg	8	yes	57	0	282
6.6.1	win	2022-12-14	16:45:37	16:55:15	578072	638e39edc03272bc8071cbb6	412467272	1	main_slash	11	main_slash	127	stimuli_distractor_trianglediamonds.svg	stimuli_target_squaretriangles.svg	11	yes	53	1	486
6.6.1	win	2022-12-14	16:45:37	16:55:15	578072	638e39edc03272bc8071cbb6	412467272	1	main_slash	11	advance_on_keypress_SLASH	128	stimuli_distractor_trianglediamonds.svg	stimuli_target_squaretriangles.svg	11	yes	57	0	498
6.6.1	win	2022-12-14	16:45:37	16:55:17	579719	638e39edc03272bc8071cbb6	412467272	1	main_slash	11	main_slash	129	stimuli_distractor_trianglediamonds.svg	stimuli_target_circletriangles.svg	9	yes	53	1	518
6.6.1	win	2022-12-14	16:45:37	16:55:17	579719	638e39edc03272bc8071cbb6	412467272	1	main_slash	11	advance_on_keypress_SLASH	130	stimuli_distractor_trianglediamonds.svg	stimuli_target_circletriangles.svg	9	yes	57	0	332
6.6.1	win	2022-12-14	16:45:37	16:55:19	581163	638e39edc03272bc8071cbb6	412467272	1	main_slash	11	main_slash	131	stimuli_distractor_diamondtriangles.svg	stimuli_target_diamondsquares.svg	32	yes	53	1	486
6.6.1	win	2022-12-14	16:45:37	16:55:19	581163	638e39edc03272bc8071cbb6	412467272	1	main_slash	11	advance_on_keypress_SLASH	132	stimuli_distractor_diamondtriangles.svg	stimuli_target_diamondsquares.svg	32	yes	57	0	350
6.6.1	win	2022-12-14	16:45:37	16:55:20	582669	638e39edc03272bc8071cbb6	412467272	1	main_slash	11	main_slash	133	stimuli_distractor_trianglediamonds.svg	stimuli_target_trianglesquares.svg	26	yes	53	1	528
6.6.1	win	2022-12-14	16:45:37	16:55:20	582669	638e39edc03272bc8071cbb6	412467272	1	main_slash	11	advance_on_keypress_SLASH	134	stimuli_distractor_trianglediamonds.svg	stimuli_target_trianglesquares.svg	26	yes	57	0	327
6.6.1	win	2022-12-14	16:45:37	16:55:21	583979	638e39edc03272bc8071cbb6	412467272	1	main_slash	11	main_slash	135	stimuli_distractor_diamondtriangles.svg	stimuli_target_trianglecircles.svg	29	yes	53	1	360
6.6.1	win	2022-12-14	16:45:37	16:55:21	583979	638e39edc03272bc8071cbb6	412467272	1	main_slash	11	advance_on_keypress_SLASH	136	stimuli_distractor_diamondtriangles.svg	stimuli_target_trianglecircles.svg	29	yes	57	0	374
6.6.1	win	2022-12-14	16:45:37	16:55:24	586978	638e39edc03272bc8071cbb6	412467272	1	main_slash	11	main_slash	137	stimuli_distractor_diamondtriangles.svg	stimuli_distractor_diamondtriangles.svg	40	no	0	1	2000
6.6.1	win	2022-12-14	16:45:37	16:55:24	586978	638e39edc03272bc8071cbb6	412467272	1	main_slash	11	advance_on_keypress_SLASH	138	stimuli_distractor_diamondtriangles.svg	stimuli_distractor_diamondtriangles.svg	40	no	57	0	290
6.6.1	win	2022-12-14	16:45:37	16:55:26	588339	638e39edc03272bc8071cbb6	412467272	1	main_slash	11	main_slash	139	stimuli_target_trianglesquares.svg	stimuli_distractor_trianglediamonds.svg	18	yes	53	1	445
6.6.1	win	2022-12-14	16:45:37	16:55:26	588339	638e39edc03272bc8071cbb6	412467272	1	main_slash	11	advance_on_keypress_SLASH	140	stimuli_target_trianglesquares.svg	stimuli_distractor_trianglediamonds.svg	18	yes	57	0	344
6.6.1	win	2022-12-14	16:45:37	16:55:27	589747	638e39edc03272bc8071cbb6	412467272	1	main_slash	11	main_slash	141	stimuli_distractor_diamondtriangles.svg	stimuli_target_circlediamonds.svg	14	yes	53	1	426
6.6.1	win	2022-12-14	16:45:37	16:55:27	589747	638e39edc03272bc8071cbb6	412467272	1	main_slash	11	advance_on_keypress_SLASH	142	stimuli_distractor_diamondtriangles.svg	stimuli_target_circlediamonds.svg	14	yes	57	0	395
6.6.1	win	2022-12-14	16:45:37	16:55:30	592769	638e39edc03272bc8071cbb6	412467272	1	main_slash	11	main_slash	143	stimuli_distractor_diamondtriangles.svg	stimuli_distractor_diamondtriangles.svg	39	no	0	1	2000
6.6.1	win	2022-12-14	16:45:37	16:55:30	592769	638e39edc03272bc8071cbb6	412467272	1	main_slash	11	advance_on_keypress_SLASH	144	stimuli_distractor_diamondtriangles.svg	stimuli_distractor_diamondtriangles.svg	39	no	57	0	294
6.6.1	win	2022-12-14	16:45:37	16:55:31	594121	638e39edc03272bc8071cbb6	412467272	1	main_slash	11	main_slash	145	stimuli_distractor_trianglediamonds.svg	stimuli_target_diamondsquares.svg	28	yes	53	1	423
6.6.1	win	2022-12-14	16:45:37	16:55:31	594121	638e39edc03272bc8071cbb6	412467272	1	main_slash	11	advance_on_keypress_SLASH	146	stimuli_distractor_trianglediamonds.svg	stimuli_target_diamondsquares.svg	28	yes	57	0	316
6.6.1	win	2022-12-14	16:45:37	16:55:33	595613	638e39edc03272bc8071cbb6	412467272	1	main_slash	11	main_slash	147	stimuli_distractor_trianglediamonds.svg	stimuli_target_circlediamonds.svg	10	yes	53	1	552
6.6.1	win	2022-12-14	16:45:37	16:55:33	595613	638e39edc03272bc8071cbb6	412467272	1	main_slash	11	advance_on_keypress_SLASH	148	stimuli_distractor_trianglediamonds.svg	stimuli_target_circlediamonds.svg	10	yes	57	0	308
6.6.1	win	2022-12-14	16:45:37	16:55:34	596943	638e39edc03272bc8071cbb6	412467272	1	main_slash	11	main_slash	149	stimuli_distractor_trianglediamonds.svg	stimuli_target_squarediamonds.svg	12	yes	53	1	391
6.6.1	win	2022-12-14	16:45:37	16:55:34	596943	638e39edc03272bc8071cbb6	412467272	1	main_slash	11	advance_on_keypress_SLASH	150	stimuli_distractor_trianglediamonds.svg	stimuli_target_squarediamonds.svg	12	yes	57	0	315
6.6.1	win	2022-12-14	16:45:37	16:55:36	598285	638e39edc03272bc8071cbb6	412467272	1	main_slash	11	main_slash	151	stimuli_distractor_diamondtriangles.svg	stimuli_target_squaretriangles.svg	15	yes	53	1	390
6.6.1	win	2022-12-14	16:45:37	16:55:36	598285	638e39edc03272bc8071cbb6	412467272	1	main_slash	11	advance_on_keypress_SLASH	152	stimuli_distractor_diamondtriangles.svg	stimuli_target_squaretriangles.svg	15	yes	57	0	341
6.6.1	win	2022-12-14	16:45:37	16:55:37	599827	638e39edc03272bc8071cbb6	412467272	1	main_slash	11	main_slash	153	stimuli_target_diamondcircles.svg	stimuli_distractor_diamondtriangles.svg	23	yes	53	1	575
6.6.1	win	2022-12-14	16:45:37	16:55:37	599827	638e39edc03272bc8071cbb6	412467272	1	main_slash	11	advance_on_keypress_SLASH	154	stimuli_target_diamondcircles.svg	stimuli_distractor_diamondtriangles.svg	23	yes	57	0	411
6.6.1	win	2022-12-14	16:45:37	16:55:39	601296	638e39edc03272bc8071cbb6	412467272	1	main_slash	11	main_slash	155	stimuli_distractor_diamondtriangles.svg	stimuli_target_circletriangles.svg	13	yes	53	1	419
6.6.1	win	2022-12-14	16:45:37	16:55:39	601296	638e39edc03272bc8071cbb6	412467272	1	main_slash	11	advance_on_keypress_SLASH	156	stimuli_distractor_diamondtriangles.svg	stimuli_target_circletriangles.svg	13	yes	57	0	361
6.6.1	win	2022-12-14	16:45:37	16:55:40	602689	638e39edc03272bc8071cbb6	412467272	1	main_slash	11	main_slash	157	stimuli_target_trianglecircles.svg	stimuli_distractor_diamondtriangles.svg	21	yes	53	1	390
6.6.1	win	2022-12-14	16:45:37	16:55:40	602689	638e39edc03272bc8071cbb6	412467272	1	main_slash	11	advance_on_keypress_SLASH	158	stimuli_target_trianglecircles.svg	stimuli_distractor_diamondtriangles.svg	21	yes	57	0	329
6.6.1	win	2022-12-14	16:45:37	16:55:41	604034	638e39edc03272bc8071cbb6	412467272	1	main_slash	11	main_slash	159	stimuli_target_circlediamonds.svg	stimuli_distractor_diamondtriangles.svg	6	yes	53	1	368
6.6.1	win	2022-12-14	16:45:37	16:55:41	604034	638e39edc03272bc8071cbb6	412467272	1	main_slash	11	advance_on_keypress_SLASH	160	stimuli_target_circlediamonds.svg	stimuli_distractor_diamondtriangles.svg	6	yes	57	0	343