build	computer.platform	date	time	timestamp	time_elapsed_ms	subject	group	session	blockcode	blocknum	trialcode	trialnum	stimulus_left	stimulus_right	stim_index	target_present	response	correct	latency
6.6.1	win	2022-12-14	09:44:58	09:48:39	219236	5fd53e2d08163d37f7cb72f6	821041970	1	practice_z	5	practice_z	1	stimuli_distractor_trianglediamonds.svg	stimuli_distractor_trianglediamonds.svg	15	no	0	1	2000
6.6.1	win	2022-12-14	09:44:58	09:48:39	219236	5fd53e2d08163d37f7cb72f6	821041970	1	practice_z	5	advance_on_keypress_ZEE	2	stimuli_distractor_trianglediamonds.svg	stimuli_distractor_trianglediamonds.svg	15	no	57	0	1747
6.6.1	win	2022-12-14	09:44:58	09:48:44	224631	5fd53e2d08163d37f7cb72f6	821041970	1	practice_z	5	practice_z	3	stimuli_distractor_diamondtriangles.svg	stimuli_distractor_trianglediamonds.svg	14	no	0	1	2000
6.6.1	win	2022-12-14	09:44:58	09:48:44	224631	5fd53e2d08163d37f7cb72f6	821041970	1	practice_z	5	advance_on_keypress_ZEE	4	stimuli_distractor_diamondtriangles.svg	stimuli_distractor_trianglediamonds.svg	14	no	57	0	943
6.6.1	win	2022-12-14	09:44:58	09:48:48	227793	5fd53e2d08163d37f7cb72f6	821041970	1	practice_z	5	practice_z	5	stimuli_target_diamondsquares.svg	stimuli_distractor_diamondtriangles.svg	3	yes	44	1	567
6.6.1	win	2022-12-14	09:44:58	09:48:48	227793	5fd53e2d08163d37f7cb72f6	821041970	1	practice_z	5	advance_on_keypress_ZEE	6	stimuli_target_diamondsquares.svg	stimuli_distractor_diamondtriangles.svg	3	yes	57	0	2786
6.6.1	win	2022-12-14	09:44:58	09:48:54	234220	5fd53e2d08163d37f7cb72f6	821041970	1	practice_z	5	practice_z	7	stimuli_distractor_trianglediamonds.svg	stimuli_distractor_diamondtriangles.svg	16	no	0	1	2000
6.6.1	win	2022-12-14	09:44:58	09:48:54	234220	5fd53e2d08163d37f7cb72f6	821041970	1	practice_z	5	advance_on_keypress_ZEE	8	stimuli_distractor_trianglediamonds.svg	stimuli_distractor_diamondtriangles.svg	16	no	57	0	924
6.6.1	win	2022-12-14	09:44:58	09:48:58	237737	5fd53e2d08163d37f7cb72f6	821041970	1	practice_z	5	practice_z	9	stimuli_distractor_diamondtriangles.svg	stimuli_target_circletriangles.svg	7	yes	44	1	938
6.6.1	win	2022-12-14	09:44:58	09:48:58	237737	5fd53e2d08163d37f7cb72f6	821041970	1	practice_z	5	advance_on_keypress_ZEE	10	stimuli_distractor_diamondtriangles.svg	stimuli_target_circletriangles.svg	7	yes	57	0	2789
6.6.1	win	2022-12-14	09:44:58	09:49:02	242582	5fd53e2d08163d37f7cb72f6	821041970	1	practice_z	5	practice_z	11	stimuli_target_circlediamonds.svg	stimuli_distractor_diamondtriangles.svg	1	yes	44	1	422
6.6.1	win	2022-12-14	09:44:58	09:49:02	242582	5fd53e2d08163d37f7cb72f6	821041970	1	practice_z	5	advance_on_keypress_ZEE	12	stimuli_target_circlediamonds.svg	stimuli_distractor_diamondtriangles.svg	1	yes	57	0	2569
6.6.1	win	2022-12-14	09:44:58	09:49:07	247325	5fd53e2d08163d37f7cb72f6	821041970	1	practice_z	5	practice_z	13	stimuli_distractor_trianglediamonds.svg	stimuli_target_diamondcircles.svg	12	yes	44	1	536
6.6.1	win	2022-12-14	09:44:58	09:49:07	247325	5fd53e2d08163d37f7cb72f6	821041970	1	practice_z	5	advance_on_keypress_ZEE	14	stimuli_distractor_trianglediamonds.svg	stimuli_target_diamondcircles.svg	12	yes	57	0	2335
6.6.1	win	2022-12-14	09:44:58	09:49:12	251797	5fd53e2d08163d37f7cb72f6	821041970	1	practice_z	5	practice_z	15	stimuli_distractor_trianglediamonds.svg	stimuli_target_circlediamonds.svg	10	yes	44	1	496
6.6.1	win	2022-12-14	09:44:58	09:49:12	251797	5fd53e2d08163d37f7cb72f6	821041970	1	practice_z	5	advance_on_keypress_ZEE	16	stimuli_distractor_trianglediamonds.svg	stimuli_target_circlediamonds.svg	10	yes	57	0	2597
6.6.1	win	2022-12-14	09:44:58	09:49:16	256560	5fd53e2d08163d37f7cb72f6	821041970	1	practice_z	5	practice_z	17	stimuli_target_squarediamonds.svg	stimuli_distractor_diamondtriangles.svg	2	yes	44	1	504
6.6.1	win	2022-12-14	09:44:58	09:49:16	256560	5fd53e2d08163d37f7cb72f6	821041970	1	practice_z	5	advance_on_keypress_ZEE	18	stimuli_target_squarediamonds.svg	stimuli_distractor_diamondtriangles.svg	2	yes	57	0	650
6.6.1	win	2022-12-14	09:44:58	09:49:21	260860	5fd53e2d08163d37f7cb72f6	821041970	1	practice_z	5	practice_z	19	stimuli_distractor_diamondtriangles.svg	stimuli_distractor_diamondtriangles.svg	13	no	0	1	2000
6.6.1	win	2022-12-14	09:44:58	09:49:21	260860	5fd53e2d08163d37f7cb72f6	821041970	1	practice_z	5	advance_on_keypress_ZEE	20	stimuli_distractor_diamondtriangles.svg	stimuli_distractor_diamondtriangles.svg	13	no	57	0	612
6.6.1	win	2022-12-14	09:44:58	09:49:23	263597	5fd53e2d08163d37f7cb72f6	821041970	1	practice_z	5	practice_z	21	stimuli_target_squarediamonds.svg	stimuli_distractor_trianglediamonds.svg	5	yes	44	1	475
6.6.1	win	2022-12-14	09:44:58	09:49:23	263597	5fd53e2d08163d37f7cb72f6	821041970	1	practice_z	5	advance_on_keypress_ZEE	22	stimuli_target_squarediamonds.svg	stimuli_distractor_trianglediamonds.svg	5	yes	57	0	544
6.6.1	win	2022-12-14	09:44:58	09:49:26	266257	5fd53e2d08163d37f7cb72f6	821041970	1	practice_z	5	practice_z	23	stimuli_distractor_diamondtriangles.svg	stimuli_target_trianglecircles.svg	9	yes	44	1	453
6.6.1	win	2022-12-14	09:44:58	09:49:26	266257	5fd53e2d08163d37f7cb72f6	821041970	1	practice_z	5	advance_on_keypress_ZEE	24	stimuli_distractor_diamondtriangles.svg	stimuli_target_trianglecircles.svg	9	yes	57	0	371
6.6.1	win	2022-12-14	09:44:58	09:49:29	268783	5fd53e2d08163d37f7cb72f6	821041970	1	practice_z	5	practice_z	25	stimuli_distractor_trianglediamonds.svg	stimuli_target_squarediamonds.svg	11	yes	44	1	517
6.6.1	win	2022-12-14	09:44:58	09:49:29	268783	5fd53e2d08163d37f7cb72f6	821041970	1	practice_z	5	advance_on_keypress_ZEE	26	stimuli_distractor_trianglediamonds.svg	stimuli_target_squarediamonds.svg	11	yes	57	0	416
6.6.1	win	2022-12-14	09:44:58	09:49:33	272846	5fd53e2d08163d37f7cb72f6	821041970	1	practice_z	5	practice_z	27	stimuli_target_diamondsquares.svg	stimuli_distractor_trianglediamonds.svg	6	yes	0	0	2000
6.6.1	win	2022-12-14	09:44:58	09:49:33	272846	5fd53e2d08163d37f7cb72f6	821041970	1	practice_z	5	advance_on_keypress_ZEE	28	stimuli_target_diamondsquares.svg	stimuli_distractor_trianglediamonds.svg	6	yes	57	0	566
6.6.1	win	2022-12-14	09:44:58	09:49:35	275524	5fd53e2d08163d37f7cb72f6	821041970	1	practice_z	5	practice_z	29	stimuli_distractor_diamondtriangles.svg	stimuli_target_diamondcircles.svg	8	yes	44	1	466
6.6.1	win	2022-12-14	09:44:58	09:49:35	275524	5fd53e2d08163d37f7cb72f6	821041970	1	practice_z	5	advance_on_keypress_ZEE	30	stimuli_distractor_diamondtriangles.svg	stimuli_target_diamondcircles.svg	8	yes	57	0	458
6.6.1	win	2022-12-14	09:44:58	09:49:38	278112	5fd53e2d08163d37f7cb72f6	821041970	1	practice_z	5	practice_z	31	stimuli_target_circlediamonds.svg	stimuli_distractor_trianglediamonds.svg	4	yes	44	1	489
6.6.1	win	2022-12-14	09:44:58	09:49:38	278112	5fd53e2d08163d37f7cb72f6	821041970	1	practice_z	5	advance_on_keypress_ZEE	32	stimuli_target_circlediamonds.svg	stimuli_distractor_trianglediamonds.svg	4	yes	57	0	454
6.6.1	win	2022-12-14	09:44:58	09:49:50	289743	5fd53e2d08163d37f7cb72f6	821041970	1	main_z	7	main_z	1	stimuli_distractor_diamondtriangles.svg	stimuli_distractor_trianglediamonds.svg	38	no	0	1	2000
6.6.1	win	2022-12-14	09:44:58	09:49:50	289743	5fd53e2d08163d37f7cb72f6	821041970	1	main_z	7	advance_on_keypress_ZEE	2	stimuli_distractor_diamondtriangles.svg	stimuli_distractor_trianglediamonds.svg	38	no	57	0	1750
6.6.1	win	2022-12-14	09:44:58	09:49:53	293577	5fd53e2d08163d37f7cb72f6	821041970	1	main_z	7	main_z	3	stimuli_distractor_trianglediamonds.svg	stimuli_target_diamondsquares.svg	28	yes	44	1	1438
6.6.1	win	2022-12-14	09:44:58	09:49:53	293577	5fd53e2d08163d37f7cb72f6	821041970	1	main_z	7	advance_on_keypress_ZEE	4	stimuli_distractor_trianglediamonds.svg	stimuli_target_diamondsquares.svg	28	yes	57	0	662
6.6.1	win	2022-12-14	09:44:58	09:49:57	296886	5fd53e2d08163d37f7cb72f6	821041970	1	main_z	7	main_z	5	stimuli_distractor_trianglediamonds.svg	stimuli_distractor_trianglediamonds.svg	34	no	0	1	2000
6.6.1	win	2022-12-14	09:44:58	09:49:57	296886	5fd53e2d08163d37f7cb72f6	821041970	1	main_z	7	advance_on_keypress_ZEE	6	stimuli_distractor_trianglediamonds.svg	stimuli_distractor_trianglediamonds.svg	34	no	57	0	509
6.6.1	win	2022-12-14	09:44:58	09:49:58	298575	5fd53e2d08163d37f7cb72f6	821041970	1	main_z	7	main_z	7	stimuli_distractor_diamondtriangles.svg	stimuli_target_circlediamonds.svg	14	yes	44	1	544
6.6.1	win	2022-12-14	09:44:58	09:49:58	298575	5fd53e2d08163d37f7cb72f6	821041970	1	main_z	7	advance_on_keypress_ZEE	8	stimuli_distractor_diamondtriangles.svg	stimuli_target_circlediamonds.svg	14	yes	57	0	596
6.6.1	win	2022-12-14	09:44:58	09:50:02	301814	5fd53e2d08163d37f7cb72f6	821041970	1	main_z	7	main_z	9	stimuli_distractor_diamondtriangles.svg	stimuli_distractor_trianglediamonds.svg	37	no	0	1	2000
6.6.1	win	2022-12-14	09:44:58	09:50:02	301814	5fd53e2d08163d37f7cb72f6	821041970	1	main_z	7	advance_on_keypress_ZEE	10	stimuli_distractor_diamondtriangles.svg	stimuli_distractor_trianglediamonds.svg	37	no	57	0	510
6.6.1	win	2022-12-14	09:44:58	09:50:03	303420	5fd53e2d08163d37f7cb72f6	821041970	1	main_z	7	main_z	11	stimuli_distractor_trianglediamonds.svg	stimuli_target_trianglesquares.svg	26	yes	44	1	460
6.6.1	win	2022-12-14	09:44:58	09:50:03	303420	5fd53e2d08163d37f7cb72f6	821041970	1	main_z	7	advance_on_keypress_ZEE	12	stimuli_distractor_trianglediamonds.svg	stimuli_target_trianglesquares.svg	26	yes	57	0	568
6.6.1	win	2022-12-14	09:44:58	09:50:05	305140	5fd53e2d08163d37f7cb72f6	821041970	1	main_z	7	main_z	13	stimuli_target_circlediamonds.svg	stimuli_distractor_trianglediamonds.svg	2	yes	44	1	513
6.6.1	win	2022-12-14	09:44:58	09:50:05	305140	5fd53e2d08163d37f7cb72f6	821041970	1	main_z	7	advance_on_keypress_ZEE	14	stimuli_target_circlediamonds.svg	stimuli_distractor_trianglediamonds.svg	2	yes	57	0	440
6.6.1	win	2022-12-14	09:44:58	09:50:07	306715	5fd53e2d08163d37f7cb72f6	821041970	1	main_z	7	main_z	15	stimuli_distractor_diamondtriangles.svg	stimuli_target_diamondcircles.svg	31	yes	44	1	491
6.6.1	win	2022-12-14	09:44:58	09:50:07	306715	5fd53e2d08163d37f7cb72f6	821041970	1	main_z	7	advance_on_keypress_ZEE	16	stimuli_distractor_diamondtriangles.svg	stimuli_target_diamondcircles.svg	31	yes	57	0	418
6.6.1	win	2022-12-14	09:44:58	09:50:10	309772	5fd53e2d08163d37f7cb72f6	821041970	1	main_z	7	main_z	17	stimuli_distractor_trianglediamonds.svg	stimuli_distractor_trianglediamonds.svg	33	no	0	1	2000
6.6.1	win	2022-12-14	09:44:58	09:50:10	309772	5fd53e2d08163d37f7cb72f6	821041970	1	main_z	7	advance_on_keypress_ZEE	18	stimuli_distractor_trianglediamonds.svg	stimuli_distractor_trianglediamonds.svg	33	no	57	0	702
6.6.1	win	2022-12-14	09:44:58	09:50:11	311634	5fd53e2d08163d37f7cb72f6	821041970	1	main_z	7	main_z	19	stimuli_target_squaretriangles.svg	stimuli_distractor_trianglediamonds.svg	3	yes	44	1	508
6.6.1	win	2022-12-14	09:44:58	09:50:11	311634	5fd53e2d08163d37f7cb72f6	821041970	1	main_z	7	advance_on_keypress_ZEE	20	stimuli_target_squaretriangles.svg	stimuli_distractor_trianglediamonds.svg	3	yes	57	0	515
6.6.1	win	2022-12-14	09:44:58	09:50:13	313236	5fd53e2d08163d37f7cb72f6	821041970	1	main_z	7	main_z	21	stimuli_target_circlediamonds.svg	stimuli_distractor_diamondtriangles.svg	6	yes	44	1	436
6.6.1	win	2022-12-14	09:44:58	09:50:13	313236	5fd53e2d08163d37f7cb72f6	821041970	1	main_z	7	advance_on_keypress_ZEE	22	stimuli_target_circlediamonds.svg	stimuli_distractor_diamondtriangles.svg	6	yes	57	0	402
6.6.1	win	2022-12-14	09:44:58	09:50:15	315104	5fd53e2d08163d37f7cb72f6	821041970	1	main_z	7	main_z	23	stimuli_target_diamondcircles.svg	stimuli_distractor_diamondtriangles.svg	23	yes	44	1	822
6.6.1	win	2022-12-14	09:44:58	09:50:15	315104	5fd53e2d08163d37f7cb72f6	821041970	1	main_z	7	advance_on_keypress_ZEE	24	stimuli_target_diamondcircles.svg	stimuli_distractor_diamondtriangles.svg	23	yes	57	0	538
6.6.1	win	2022-12-14	09:44:58	09:50:17	316704	5fd53e2d08163d37f7cb72f6	821041970	1	main_z	7	main_z	25	stimuli_target_circletriangles.svg	stimuli_distractor_diamondtriangles.svg	5	yes	44	1	424
6.6.1	win	2022-12-14	09:44:58	09:50:17	316704	5fd53e2d08163d37f7cb72f6	821041970	1	main_z	7	advance_on_keypress_ZEE	26	stimuli_target_circletriangles.svg	stimuli_distractor_diamondtriangles.svg	5	yes	57	0	455
6.6.1	win	2022-12-14	09:44:58	09:50:18	318312	5fd53e2d08163d37f7cb72f6	821041970	1	main_z	7	main_z	27	stimuli_distractor_diamondtriangles.svg	stimuli_target_trianglecircles.svg	29	yes	44	1	517
6.6.1	win	2022-12-14	09:44:58	09:50:18	318312	5fd53e2d08163d37f7cb72f6	821041970	1	main_z	7	advance_on_keypress_ZEE	28	stimuli_distractor_diamondtriangles.svg	stimuli_target_trianglecircles.svg	29	yes	57	0	466
6.6.1	win	2022-12-14	09:44:58	09:50:21	321426	5fd53e2d08163d37f7cb72f6	821041970	1	main_z	7	main_z	29	stimuli_distractor_diamondtriangles.svg	stimuli_target_squaretriangles.svg	15	yes	0	0	2000
6.6.1	win	2022-12-14	09:44:58	09:50:21	321426	5fd53e2d08163d37f7cb72f6	821041970	1	main_z	7	advance_on_keypress_ZEE	30	stimuli_distractor_diamondtriangles.svg	stimuli_target_squaretriangles.svg	15	yes	57	0	637
6.6.1	win	2022-12-14	09:44:58	09:50:25	324706	5fd53e2d08163d37f7cb72f6	821041970	1	main_z	7	main_z	31	stimuli_distractor_trianglediamonds.svg	stimuli_distractor_diamondtriangles.svg	36	no	0	1	2000
6.6.1	win	2022-12-14	09:44:58	09:50:25	324706	5fd53e2d08163d37f7cb72f6	821041970	1	main_z	7	advance_on_keypress_ZEE	32	stimuli_distractor_trianglediamonds.svg	stimuli_distractor_diamondtriangles.svg	36	no	57	0	288
6.6.1	win	2022-12-14	09:44:58	09:50:26	326053	5fd53e2d08163d37f7cb72f6	821041970	1	main_z	7	main_z	33	stimuli_target_squarediamonds.svg	stimuli_distractor_trianglediamonds.svg	4	yes	44	1	416
6.6.1	win	2022-12-14	09:44:58	09:50:26	326053	5fd53e2d08163d37f7cb72f6	821041970	1	main_z	7	advance_on_keypress_ZEE	34	stimuli_target_squarediamonds.svg	stimuli_distractor_trianglediamonds.svg	4	yes	57	0	469
6.6.1	win	2022-12-14	09:44:58	09:50:27	327585	5fd53e2d08163d37f7cb72f6	821041970	1	main_z	7	main_z	35	stimuli_target_squarediamonds.svg	stimuli_distractor_diamondtriangles.svg	8	yes	44	1	417
6.6.1	win	2022-12-14	09:44:58	09:50:27	327585	5fd53e2d08163d37f7cb72f6	821041970	1	main_z	7	advance_on_keypress_ZEE	36	stimuli_target_squarediamonds.svg	stimuli_distractor_diamondtriangles.svg	8	yes	57	0	364
6.6.1	win	2022-12-14	09:44:58	09:50:29	328981	5fd53e2d08163d37f7cb72f6	821041970	1	main_z	7	main_z	37	stimuli_distractor_trianglediamonds.svg	stimuli_target_circlediamonds.svg	10	yes	44	1	380
6.6.1	win	2022-12-14	09:44:58	09:50:29	328981	5fd53e2d08163d37f7cb72f6	821041970	1	main_z	7	advance_on_keypress_ZEE	38	stimuli_distractor_trianglediamonds.svg	stimuli_target_circlediamonds.svg	10	yes	57	0	393
6.6.1	win	2022-12-14	09:44:58	09:50:30	330418	5fd53e2d08163d37f7cb72f6	821041970	1	main_z	7	main_z	39	stimuli_target_trianglecircles.svg	stimuli_distractor_diamondtriangles.svg	21	yes	44	1	403
6.6.1	win	2022-12-14	09:44:58	09:50:30	330418	5fd53e2d08163d37f7cb72f6	821041970	1	main_z	7	advance_on_keypress_ZEE	40	stimuli_target_trianglecircles.svg	stimuli_distractor_diamondtriangles.svg	21	yes	57	0	913
6.6.1	win	2022-12-14	09:44:58	09:50:32	332683	5fd53e2d08163d37f7cb72f6	821041970	1	main_z	7	main_z	41	stimuli_distractor_trianglediamonds.svg	stimuli_target_squaretriangles.svg	11	yes	44	1	703
6.6.1	win	2022-12-14	09:44:58	09:50:32	332683	5fd53e2d08163d37f7cb72f6	821041970	1	main_z	7	advance_on_keypress_ZEE	42	stimuli_distractor_trianglediamonds.svg	stimuli_target_squaretriangles.svg	11	yes	57	0	456
6.6.1	win	2022-12-14	09:44:58	09:50:34	334670	5fd53e2d08163d37f7cb72f6	821041970	1	main_z	7	main_z	43	stimuli_target_trianglecircles.svg	stimuli_distractor_trianglediamonds.svg	17	yes	44	1	892
6.6.1	win	2022-12-14	09:44:58	09:50:34	334670	5fd53e2d08163d37f7cb72f6	821041970	1	main_z	7	advance_on_keypress_ZEE	44	stimuli_target_trianglecircles.svg	stimuli_distractor_trianglediamonds.svg	17	yes	57	0	538
6.6.1	win	2022-12-14	09:44:58	09:50:36	336333	5fd53e2d08163d37f7cb72f6	821041970	1	main_z	7	main_z	45	stimuli_distractor_trianglediamonds.svg	stimuli_target_diamondcircles.svg	27	yes	44	1	491
6.6.1	win	2022-12-14	09:44:58	09:50:36	336333	5fd53e2d08163d37f7cb72f6	821041970	1	main_z	7	advance_on_keypress_ZEE	46	stimuli_distractor_trianglediamonds.svg	stimuli_target_diamondcircles.svg	27	yes	57	0	405
6.6.1	win	2022-12-14	09:44:58	09:50:38	337928	5fd53e2d08163d37f7cb72f6	821041970	1	main_z	7	main_z	47	stimuli_distractor_trianglediamonds.svg	stimuli_target_circletriangles.svg	9	yes	44	1	554
6.6.1	win	2022-12-14	09:44:58	09:50:38	337928	5fd53e2d08163d37f7cb72f6	821041970	1	main_z	7	advance_on_keypress_ZEE	48	stimuli_distractor_trianglediamonds.svg	stimuli_target_circletriangles.svg	9	yes	57	0	6
6.6.1	win	2022-12-14	09:44:58	09:50:39	339407	5fd53e2d08163d37f7cb72f6	821041970	1	main_z	7	main_z	49	stimuli_distractor_diamondtriangles.svg	stimuli_target_trianglesquares.svg	30	yes	44	1	817
6.6.1	win	2022-12-14	09:44:58	09:50:39	339407	5fd53e2d08163d37f7cb72f6	821041970	1	main_z	7	advance_on_keypress_ZEE	50	stimuli_distractor_diamondtriangles.svg	stimuli_target_trianglesquares.svg	30	yes	57	0	588
6.6.1	win	2022-12-14	09:44:58	09:50:41	341582	5fd53e2d08163d37f7cb72f6	821041970	1	main_z	7	main_z	51	stimuli_distractor_diamondtriangles.svg	stimuli_target_diamondsquares.svg	32	yes	44	1	945
6.6.1	win	2022-12-14	09:44:58	09:50:41	341582	5fd53e2d08163d37f7cb72f6	821041970	1	main_z	7	advance_on_keypress_ZEE	52	stimuli_distractor_diamondtriangles.svg	stimuli_target_diamondsquares.svg	32	yes	57	0	481
6.6.1	win	2022-12-14	09:44:58	09:50:43	343233	5fd53e2d08163d37f7cb72f6	821041970	1	main_z	7	main_z	53	stimuli_target_diamondsquares.svg	stimuli_distractor_diamondtriangles.svg	24	yes	44	1	504
6.6.1	win	2022-12-14	09:44:58	09:50:43	343233	5fd53e2d08163d37f7cb72f6	821041970	1	main_z	7	advance_on_keypress_ZEE	54	stimuli_target_diamondsquares.svg	stimuli_distractor_diamondtriangles.svg	24	yes	57	0	521
6.6.1	win	2022-12-14	09:44:58	09:50:45	344957	5fd53e2d08163d37f7cb72f6	821041970	1	main_z	7	main_z	55	stimuli_target_diamondcircles.svg	stimuli_distractor_trianglediamonds.svg	19	yes	44	1	557
6.6.1	win	2022-12-14	09:44:58	09:50:45	344957	5fd53e2d08163d37f7cb72f6	821041970	1	main_z	7	advance_on_keypress_ZEE	56	stimuli_target_diamondcircles.svg	stimuli_distractor_trianglediamonds.svg	19	yes	57	0	432
6.6.1	win	2022-12-14	09:44:58	09:50:48	348032	5fd53e2d08163d37f7cb72f6	821041970	1	main_z	7	main_z	57	stimuli_distractor_trianglediamonds.svg	stimuli_distractor_diamondtriangles.svg	35	no	0	1	2000
6.6.1	win	2022-12-14	09:44:58	09:50:48	348032	5fd53e2d08163d37f7cb72f6	821041970	1	main_z	7	advance_on_keypress_ZEE	58	stimuli_distractor_trianglediamonds.svg	stimuli_distractor_diamondtriangles.svg	35	no	57	0	922
6.6.1	win	2022-12-14	09:44:58	09:50:50	350359	5fd53e2d08163d37f7cb72f6	821041970	1	main_z	7	main_z	59	stimuli_target_trianglesquares.svg	stimuli_distractor_trianglediamonds.svg	18	yes	44	1	764
6.6.1	win	2022-12-14	09:44:58	09:50:50	350359	5fd53e2d08163d37f7cb72f6	821041970	1	main_z	7	advance_on_keypress_ZEE	60	stimuli_target_trianglesquares.svg	stimuli_distractor_trianglediamonds.svg	18	yes	57	0	441
6.6.1	win	2022-12-14	09:44:58	09:50:52	352062	5fd53e2d08163d37f7cb72f6	821041970	1	main_z	7	main_z	61	stimuli_target_squaretriangles.svg	stimuli_distractor_diamondtriangles.svg	7	yes	44	1	620
6.6.1	win	2022-12-14	09:44:58	09:50:52	352062	5fd53e2d08163d37f7cb72f6	821041970	1	main_z	7	advance_on_keypress_ZEE	62	stimuli_target_squaretriangles.svg	stimuli_distractor_diamondtriangles.svg	7	yes	57	0	508
6.6.1	win	2022-12-14	09:44:58	09:50:53	353678	5fd53e2d08163d37f7cb72f6	821041970	1	main_z	7	main_z	63	stimuli_distractor_trianglediamonds.svg	stimuli_target_trianglecircles.svg	25	yes	44	1	470
6.6.1	win	2022-12-14	09:44:58	09:50:53	353678	5fd53e2d08163d37f7cb72f6	821041970	1	main_z	7	advance_on_keypress_ZEE	64	stimuli_distractor_trianglediamonds.svg	stimuli_target_trianglecircles.svg	25	yes	57	0	407
6.6.1	win	2022-12-14	09:44:58	09:50:55	355314	5fd53e2d08163d37f7cb72f6	821041970	1	main_z	7	main_z	65	stimuli_target_circletriangles.svg	stimuli_distractor_trianglediamonds.svg	1	yes	44	1	591
6.6.1	win	2022-12-14	09:44:58	09:50:55	355314	5fd53e2d08163d37f7cb72f6	821041970	1	main_z	7	advance_on_keypress_ZEE	66	stimuli_target_circletriangles.svg	stimuli_distractor_trianglediamonds.svg	1	yes	57	0	431
6.6.1	win	2022-12-14	09:44:58	09:50:58	358387	5fd53e2d08163d37f7cb72f6	821041970	1	main_z	7	main_z	67	stimuli_distractor_diamondtriangles.svg	stimuli_distractor_diamondtriangles.svg	40	no	0	1	2000
6.6.1	win	2022-12-14	09:44:58	09:50:58	358387	5fd53e2d08163d37f7cb72f6	821041970	1	main_z	7	advance_on_keypress_ZEE	68	stimuli_distractor_diamondtriangles.svg	stimuli_distractor_diamondtriangles.svg	40	no	57	0	400
6.6.1	win	2022-12-14	09:44:58	09:51:00	360587	5fd53e2d08163d37f7cb72f6	821041970	1	main_z	7	main_z	69	stimuli_distractor_trianglediamonds.svg	stimuli_target_squarediamonds.svg	12	yes	44	1	1153
6.6.1	win	2022-12-14	09:44:58	09:51:00	360587	5fd53e2d08163d37f7cb72f6	821041970	1	main_z	7	advance_on_keypress_ZEE	70	stimuli_distractor_trianglediamonds.svg	stimuli_target_squarediamonds.svg	12	yes	57	0	486
6.6.1	win	2022-12-14	09:44:58	09:51:04	363715	5fd53e2d08163d37f7cb72f6	821041970	1	main_z	7	main_z	71	stimuli_distractor_diamondtriangles.svg	stimuli_distractor_diamondtriangles.svg	39	no	0	1	2000
6.6.1	win	2022-12-14	09:44:58	09:51:04	363715	5fd53e2d08163d37f7cb72f6	821041970	1	main_z	7	advance_on_keypress_ZEE	72	stimuli_distractor_diamondtriangles.svg	stimuli_distractor_diamondtriangles.svg	39	no	57	0	350
6.6.1	win	2022-12-14	09:44:58	09:51:05	365253	5fd53e2d08163d37f7cb72f6	821041970	1	main_z	7	main_z	73	stimuli_target_trianglesquares.svg	stimuli_distractor_diamondtriangles.svg	22	yes	44	1	541
6.6.1	win	2022-12-14	09:44:58	09:51:05	365253	5fd53e2d08163d37f7cb72f6	821041970	1	main_z	7	advance_on_keypress_ZEE	74	stimuli_target_trianglesquares.svg	stimuli_distractor_diamondtriangles.svg	22	yes	57	0	397
6.6.1	win	2022-12-14	09:44:58	09:51:07	366832	5fd53e2d08163d37f7cb72f6	821041970	1	main_z	7	main_z	75	stimuli_distractor_diamondtriangles.svg	stimuli_target_circletriangles.svg	13	yes	44	1	538
6.6.1	win	2022-12-14	09:44:58	09:51:07	366832	5fd53e2d08163d37f7cb72f6	821041970	1	main_z	7	advance_on_keypress_ZEE	76	stimuli_distractor_diamondtriangles.svg	stimuli_target_circletriangles.svg	13	yes	57	0	369
6.6.1	win	2022-12-14	09:44:58	09:51:09	368884	5fd53e2d08163d37f7cb72f6	821041970	1	main_z	7	main_z	77	stimuli_target_diamondsquares.svg	stimuli_distractor_trianglediamonds.svg	20	yes	44	1	1042
6.6.1	win	2022-12-14	09:44:58	09:51:09	368884	5fd53e2d08163d37f7cb72f6	821041970	1	main_z	7	advance_on_keypress_ZEE	78	stimuli_target_diamondsquares.svg	stimuli_distractor_trianglediamonds.svg	20	yes	57	0	458
6.6.1	win	2022-12-14	09:44:58	09:51:11	370753	5fd53e2d08163d37f7cb72f6	821041970	1	main_z	7	main_z	79	stimuli_distractor_diamondtriangles.svg	stimuli_target_squarediamonds.svg	16	yes	44	1	780
6.6.1	win	2022-12-14	09:44:58	09:51:11	370753	5fd53e2d08163d37f7cb72f6	821041970	1	main_z	7	advance_on_keypress_ZEE	80	stimuli_distractor_diamondtriangles.svg	stimuli_target_squarediamonds.svg	16	yes	57	0	419
6.6.1	win	2022-12-14	09:44:58	09:51:14	373821	5fd53e2d08163d37f7cb72f6	821041970	1	main_z	7	main_z	81	stimuli_distractor_trianglediamonds.svg	stimuli_distractor_diamondtriangles.svg	36	no	0	1	2000
6.6.1	win	2022-12-14	09:44:58	09:51:14	373821	5fd53e2d08163d37f7cb72f6	821041970	1	main_z	7	advance_on_keypress_ZEE	82	stimuli_distractor_trianglediamonds.svg	stimuli_distractor_diamondtriangles.svg	36	no	57	0	461
6.6.1	win	2022-12-14	09:44:58	09:51:15	375466	5fd53e2d08163d37f7cb72f6	821041970	1	main_z	7	main_z	83	stimuli_distractor_diamondtriangles.svg	stimuli_target_circlediamonds.svg	14	yes	44	1	548
6.6.1	win	2022-12-14	09:44:58	09:51:15	375466	5fd53e2d08163d37f7cb72f6	821041970	1	main_z	7	advance_on_keypress_ZEE	84	stimuli_distractor_diamondtriangles.svg	stimuli_target_circlediamonds.svg	14	yes	57	0	384
6.6.1	win	2022-12-14	09:44:58	09:51:17	377015	5fd53e2d08163d37f7cb72f6	821041970	1	main_z	7	main_z	85	stimuli_distractor_diamondtriangles.svg	stimuli_target_diamondcircles.svg	31	yes	44	1	500
6.6.1	win	2022-12-14	09:44:58	09:51:17	377015	5fd53e2d08163d37f7cb72f6	821041970	1	main_z	7	advance_on_keypress_ZEE	86	stimuli_distractor_diamondtriangles.svg	stimuli_target_diamondcircles.svg	31	yes	57	0	320
6.6.1	win	2022-12-14	09:44:58	09:51:20	379981	5fd53e2d08163d37f7cb72f6	821041970	1	main_z	7	main_z	87	stimuli_distractor_diamondtriangles.svg	stimuli_distractor_trianglediamonds.svg	37	no	0	1	2000
6.6.1	win	2022-12-14	09:44:58	09:51:20	379981	5fd53e2d08163d37f7cb72f6	821041970	1	main_z	7	advance_on_keypress_ZEE	88	stimuli_distractor_diamondtriangles.svg	stimuli_distractor_trianglediamonds.svg	37	no	57	0	339
6.6.1	win	2022-12-14	09:44:58	09:51:21	381413	5fd53e2d08163d37f7cb72f6	821041970	1	main_z	7	main_z	89	stimuli_target_diamondcircles.svg	stimuli_distractor_trianglediamonds.svg	19	yes	44	1	452
6.6.1	win	2022-12-14	09:44:58	09:51:21	381413	5fd53e2d08163d37f7cb72f6	821041970	1	main_z	7	advance_on_keypress_ZEE	90	stimuli_target_diamondcircles.svg	stimuli_distractor_trianglediamonds.svg	19	yes	57	0	353
6.6.1	win	2022-12-14	09:44:58	09:51:23	382952	5fd53e2d08163d37f7cb72f6	821041970	1	main_z	7	main_z	91	stimuli_distractor_diamondtriangles.svg	stimuli_target_trianglesquares.svg	30	yes	44	1	542
6.6.1	win	2022-12-14	09:44:58	09:51:23	382952	5fd53e2d08163d37f7cb72f6	821041970	1	main_z	7	advance_on_keypress_ZEE	92	stimuli_distractor_diamondtriangles.svg	stimuli_target_trianglesquares.svg	30	yes	57	0	337
6.6.1	win	2022-12-14	09:44:58	09:51:26	385925	5fd53e2d08163d37f7cb72f6	821041970	1	main_z	7	main_z	93	stimuli_distractor_diamondtriangles.svg	stimuli_distractor_diamondtriangles.svg	39	no	0	1	2000
6.6.1	win	2022-12-14	09:44:58	09:51:26	385925	5fd53e2d08163d37f7cb72f6	821041970	1	main_z	7	advance_on_keypress_ZEE	94	stimuli_distractor_diamondtriangles.svg	stimuli_distractor_diamondtriangles.svg	39	no	57	0	404
6.6.1	win	2022-12-14	09:44:58	09:51:27	387486	5fd53e2d08163d37f7cb72f6	821041970	1	main_z	7	main_z	95	stimuli_target_circletriangles.svg	stimuli_distractor_trianglediamonds.svg	1	yes	44	1	505
6.6.1	win	2022-12-14	09:44:58	09:51:27	387486	5fd53e2d08163d37f7cb72f6	821041970	1	main_z	7	advance_on_keypress_ZEE	96	stimuli_target_circletriangles.svg	stimuli_distractor_trianglediamonds.svg	1	yes	57	0	312
6.6.1	win	2022-12-14	09:44:58	09:51:29	389029	5fd53e2d08163d37f7cb72f6	821041970	1	main_z	7	main_z	97	stimuli_distractor_trianglediamonds.svg	stimuli_target_diamondsquares.svg	28	yes	44	1	575
6.6.1	win	2022-12-14	09:44:58	09:51:29	389029	5fd53e2d08163d37f7cb72f6	821041970	1	main_z	7	advance_on_keypress_ZEE	98	stimuli_distractor_trianglediamonds.svg	stimuli_target_diamondsquares.svg	28	yes	57	0	363
6.6.1	win	2022-12-14	09:44:58	09:51:30	390598	5fd53e2d08163d37f7cb72f6	821041970	1	main_z	7	main_z	99	stimuli_distractor_trianglediamonds.svg	stimuli_target_trianglesquares.svg	26	yes	44	1	563
6.6.1	win	2022-12-14	09:44:58	09:51:30	390598	5fd53e2d08163d37f7cb72f6	821041970	1	main_z	7	advance_on_keypress_ZEE	100	stimuli_distractor_trianglediamonds.svg	stimuli_target_trianglesquares.svg	26	yes	57	0	269
6.6.1	win	2022-12-14	09:44:58	09:51:33	393517	5fd53e2d08163d37f7cb72f6	821041970	1	main_z	7	main_z	101	stimuli_distractor_trianglediamonds.svg	stimuli_distractor_trianglediamonds.svg	34	no	0	1	2000
6.6.1	win	2022-12-14	09:44:58	09:51:33	393517	5fd53e2d08163d37f7cb72f6	821041970	1	main_z	7	advance_on_keypress_ZEE	102	stimuli_distractor_trianglediamonds.svg	stimuli_distractor_trianglediamonds.svg	34	no	57	0	339
6.6.1	win	2022-12-14	09:44:58	09:51:35	394996	5fd53e2d08163d37f7cb72f6	821041970	1	main_z	7	main_z	103	stimuli_distractor_diamondtriangles.svg	stimuli_target_trianglecircles.svg	29	yes	44	1	499
6.6.1	win	2022-12-14	09:44:58	09:51:35	394996	5fd53e2d08163d37f7cb72f6	821041970	1	main_z	7	advance_on_keypress_ZEE	104	stimuli_distractor_diamondtriangles.svg	stimuli_target_trianglecircles.svg	29	yes	57	0	310
6.6.1	win	2022-12-14	09:44:58	09:51:36	396420	5fd53e2d08163d37f7cb72f6	821041970	1	main_z	7	main_z	105	stimuli_distractor_trianglediamonds.svg	stimuli_target_circletriangles.svg	9	yes	44	1	474
6.6.1	win	2022-12-14	09:44:58	09:51:36	396420	5fd53e2d08163d37f7cb72f6	821041970	1	main_z	7	advance_on_keypress_ZEE	106	stimuli_distractor_trianglediamonds.svg	stimuli_target_circletriangles.svg	9	yes	57	0	282
6.6.1	win	2022-12-14	09:44:58	09:51:39	399344	5fd53e2d08163d37f7cb72f6	821041970	1	main_z	7	main_z	107	stimuli_distractor_diamondtriangles.svg	stimuli_distractor_diamondtriangles.svg	40	no	0	1	2000
6.6.1	win	2022-12-14	09:44:58	09:51:39	399344	5fd53e2d08163d37f7cb72f6	821041970	1	main_z	7	advance_on_keypress_ZEE	108	stimuli_distractor_diamondtriangles.svg	stimuli_distractor_diamondtriangles.svg	40	no	57	0	376
6.6.1	win	2022-12-14	09:44:58	09:51:41	400888	5fd53e2d08163d37f7cb72f6	821041970	1	main_z	7	main_z	109	stimuli_target_trianglecircles.svg	stimuli_distractor_trianglediamonds.svg	17	yes	44	1	530
6.6.1	win	2022-12-14	09:44:58	09:51:41	400888	5fd53e2d08163d37f7cb72f6	821041970	1	main_z	7	advance_on_keypress_ZEE	110	stimuli_target_trianglecircles.svg	stimuli_distractor_trianglediamonds.svg	17	yes	57	0	295
6.6.1	win	2022-12-14	09:44:58	09:51:42	402425	5fd53e2d08163d37f7cb72f6	821041970	1	main_z	7	main_z	111	stimuli_target_diamondsquares.svg	stimuli_distractor_diamondtriangles.svg	24	yes	44	1	585
6.6.1	win	2022-12-14	09:44:58	09:51:42	402425	5fd53e2d08163d37f7cb72f6	821041970	1	main_z	7	advance_on_keypress_ZEE	112	stimuli_target_diamondsquares.svg	stimuli_distractor_diamondtriangles.svg	24	yes	57	0	250
6.6.1	win	2022-12-14	09:44:58	09:51:44	403785	5fd53e2d08163d37f7cb72f6	821041970	1	main_z	7	main_z	113	stimuli_target_circlediamonds.svg	stimuli_distractor_trianglediamonds.svg	2	yes	44	1	464
6.6.1	win	2022-12-14	09:44:58	09:51:44	403785	5fd53e2d08163d37f7cb72f6	821041970	1	main_z	7	advance_on_keypress_ZEE	114	stimuli_target_circlediamonds.svg	stimuli_distractor_trianglediamonds.svg	2	yes	57	0	310
6.6.1	win	2022-12-14	09:44:58	09:51:45	405295	5fd53e2d08163d37f7cb72f6	821041970	1	main_z	7	main_z	115	stimuli_distractor_trianglediamonds.svg	stimuli_target_circlediamonds.svg	10	yes	44	1	560
6.6.1	win	2022-12-14	09:44:58	09:51:45	405295	5fd53e2d08163d37f7cb72f6	821041970	1	main_z	7	advance_on_keypress_ZEE	116	stimuli_distractor_trianglediamonds.svg	stimuli_target_circlediamonds.svg	10	yes	57	0	329
6.6.1	win	2022-12-14	09:44:58	09:51:48	408268	5fd53e2d08163d37f7cb72f6	821041970	1	main_z	7	main_z	117	stimuli_distractor_trianglediamonds.svg	stimuli_distractor_diamondtriangles.svg	35	no	0	1	2000
6.6.1	win	2022-12-14	09:44:58	09:51:48	408268	5fd53e2d08163d37f7cb72f6	821041970	1	main_z	7	advance_on_keypress_ZEE	118	stimuli_distractor_trianglediamonds.svg	stimuli_distractor_diamondtriangles.svg	35	no	57	0	392
6.6.1	win	2022-12-14	09:44:58	09:51:51	411298	5fd53e2d08163d37f7cb72f6	821041970	1	main_z	7	main_z	119	stimuli_distractor_diamondtriangles.svg	stimuli_distractor_trianglediamonds.svg	38	no	0	1	2000
6.6.1	win	2022-12-14	09:44:58	09:51:51	411298	5fd53e2d08163d37f7cb72f6	821041970	1	main_z	7	advance_on_keypress_ZEE	120	stimuli_distractor_diamondtriangles.svg	stimuli_distractor_trianglediamonds.svg	38	no	57	0	329
6.6.1	win	2022-12-14	09:44:58	09:51:53	412819	5fd53e2d08163d37f7cb72f6	821041970	1	main_z	7	main_z	121	stimuli_target_squaretriangles.svg	stimuli_distractor_trianglediamonds.svg	3	yes	44	1	541
6.6.1	win	2022-12-14	09:44:58	09:51:53	412819	5fd53e2d08163d37f7cb72f6	821041970	1	main_z	7	advance_on_keypress_ZEE	122	stimuli_target_squaretriangles.svg	stimuli_distractor_trianglediamonds.svg	3	yes	57	0	382
6.6.1	win	2022-12-14	09:44:58	09:51:54	414518	5fd53e2d08163d37f7cb72f6	821041970	1	main_z	7	main_z	123	stimuli_distractor_diamondtriangles.svg	stimuli_target_diamondsquares.svg	32	yes	44	1	674
6.6.1	win	2022-12-14	09:44:58	09:51:54	414518	5fd53e2d08163d37f7cb72f6	821041970	1	main_z	7	advance_on_keypress_ZEE	124	stimuli_distractor_diamondtriangles.svg	stimuli_target_diamondsquares.svg	32	yes	57	0	364
6.6.1	win	2022-12-14	09:44:58	09:51:56	416056	5fd53e2d08163d37f7cb72f6	821041970	1	main_z	7	main_z	125	stimuli_distractor_trianglediamonds.svg	stimuli_target_squarediamonds.svg	12	yes	44	1	531
6.6.1	win	2022-12-14	09:44:58	09:51:56	416056	5fd53e2d08163d37f7cb72f6	821041970	1	main_z	7	advance_on_keypress_ZEE	126	stimuli_distractor_trianglediamonds.svg	stimuli_target_squarediamonds.svg	12	yes	57	0	311
6.6.1	win	2022-12-14	09:44:58	09:51:57	417472	5fd53e2d08163d37f7cb72f6	821041970	1	main_z	7	main_z	127	stimuli_distractor_trianglediamonds.svg	stimuli_target_trianglecircles.svg	25	yes	44	1	465
6.6.1	win	2022-12-14	09:44:58	09:51:57	417472	5fd53e2d08163d37f7cb72f6	821041970	1	main_z	7	advance_on_keypress_ZEE	128	stimuli_distractor_trianglediamonds.svg	stimuli_target_trianglecircles.svg	25	yes	57	0	324
6.6.1	win	2022-12-14	09:44:58	09:51:59	418978	5fd53e2d08163d37f7cb72f6	821041970	1	main_z	7	main_z	129	stimuli_distractor_diamondtriangles.svg	stimuli_target_squarediamonds.svg	16	yes	44	1	539
6.6.1	win	2022-12-14	09:44:58	09:51:59	418978	5fd53e2d08163d37f7cb72f6	821041970	1	main_z	7	advance_on_keypress_ZEE	130	stimuli_distractor_diamondtriangles.svg	stimuli_target_squarediamonds.svg	16	yes	57	0	336
6.6.1	win	2022-12-14	09:44:58	09:52:00	420425	5fd53e2d08163d37f7cb72f6	821041970	1	main_z	7	main_z	131	stimuli_distractor_trianglediamonds.svg	stimuli_target_diamondcircles.svg	27	yes	44	1	471
6.6.1	win	2022-12-14	09:44:58	09:52:00	420425	5fd53e2d08163d37f7cb72f6	821041970	1	main_z	7	advance_on_keypress_ZEE	132	stimuli_distractor_trianglediamonds.svg	stimuli_target_diamondcircles.svg	27	yes	57	0	316
6.6.1	win	2022-12-14	09:44:58	09:52:03	423385	5fd53e2d08163d37f7cb72f6	821041970	1	main_z	7	main_z	133	stimuli_distractor_diamondtriangles.svg	stimuli_target_squaretriangles.svg	15	yes	0	0	2000
6.6.1	win	2022-12-14	09:44:58	09:52:03	423385	5fd53e2d08163d37f7cb72f6	821041970	1	main_z	7	advance_on_keypress_ZEE	134	stimuli_distractor_diamondtriangles.svg	stimuli_target_squaretriangles.svg	15	yes	57	0	346
6.6.1	win	2022-12-14	09:44:58	09:52:05	424853	5fd53e2d08163d37f7cb72f6	821041970	1	main_z	7	main_z	135	stimuli_target_trianglecircles.svg	stimuli_distractor_diamondtriangles.svg	21	yes	44	1	471
6.6.1	win	2022-12-14	09:44:58	09:52:05	424853	5fd53e2d08163d37f7cb72f6	821041970	1	main_z	7	advance_on_keypress_ZEE	136	stimuli_target_trianglecircles.svg	stimuli_distractor_diamondtriangles.svg	21	yes	57	0	300
6.6.1	win	2022-12-14	09:44:58	09:52:06	426295	5fd53e2d08163d37f7cb72f6	821041970	1	main_z	7	main_z	137	stimuli_target_squarediamonds.svg	stimuli_distractor_diamondtriangles.svg	8	yes	44	1	497
6.6.1	win	2022-12-14	09:44:58	09:52:06	426295	5fd53e2d08163d37f7cb72f6	821041970	1	main_z	7	advance_on_keypress_ZEE	138	stimuli_target_squarediamonds.svg	stimuli_distractor_diamondtriangles.svg	8	yes	57	0	275
6.6.1	win	2022-12-14	09:44:58	09:52:07	427611	5fd53e2d08163d37f7cb72f6	821041970	1	main_z	7	main_z	139	stimuli_target_diamondcircles.svg	stimuli_distractor_diamondtriangles.svg	23	yes	44	1	398
6.6.1	win	2022-12-14	09:44:58	09:52:07	427611	5fd53e2d08163d37f7cb72f6	821041970	1	main_z	7	advance_on_keypress_ZEE	140	stimuli_target_diamondcircles.svg	stimuli_distractor_diamondtriangles.svg	23	yes	57	0	270
6.6.1	win	2022-12-14	09:44:58	09:52:10	430528	5fd53e2d08163d37f7cb72f6	821041970	1	main_z	7	main_z	141	stimuli_distractor_trianglediamonds.svg	stimuli_distractor_trianglediamonds.svg	33	no	0	1	2000
6.6.1	win	2022-12-14	09:44:58	09:52:10	430528	5fd53e2d08163d37f7cb72f6	821041970	1	main_z	7	advance_on_keypress_ZEE	142	stimuli_distractor_trianglediamonds.svg	stimuli_distractor_trianglediamonds.svg	33	no	57	0	271
6.6.1	win	2022-12-14	09:44:58	09:52:12	431956	5fd53e2d08163d37f7cb72f6	821041970	1	main_z	7	main_z	143	stimuli_target_circletriangles.svg	stimuli_distractor_diamondtriangles.svg	5	yes	44	1	508
6.6.1	win	2022-12-14	09:44:58	09:52:12	431956	5fd53e2d08163d37f7cb72f6	821041970	1	main_z	7	advance_on_keypress_ZEE	144	stimuli_target_circletriangles.svg	stimuli_distractor_diamondtriangles.svg	5	yes	57	0	336
6.6.1	win	2022-12-14	09:44:58	09:52:13	433472	5fd53e2d08163d37f7cb72f6	821041970	1	main_z	7	main_z	145	stimuli_target_trianglesquares.svg	stimuli_distractor_trianglediamonds.svg	18	yes	44	1	532
6.6.1	win	2022-12-14	09:44:58	09:52:13	433472	5fd53e2d08163d37f7cb72f6	821041970	1	main_z	7	advance_on_keypress_ZEE	146	stimuli_target_trianglesquares.svg	stimuli_distractor_trianglediamonds.svg	18	yes	57	0	294
6.6.1	win	2022-12-14	09:44:58	09:52:15	434892	5fd53e2d08163d37f7cb72f6	821041970	1	main_z	7	main_z	147	stimuli_target_diamondsquares.svg	stimuli_distractor_trianglediamonds.svg	20	yes	44	1	487
6.6.1	win	2022-12-14	09:44:58	09:52:15	434892	5fd53e2d08163d37f7cb72f6	821041970	1	main_z	7	advance_on_keypress_ZEE	148	stimuli_target_diamondsquares.svg	stimuli_distractor_trianglediamonds.svg	20	yes	57	0	333
6.6.1	win	2022-12-14	09:44:58	09:52:16	436361	5fd53e2d08163d37f7cb72f6	821041970	1	main_z	7	main_z	149	stimuli_target_circlediamonds.svg	stimuli_distractor_diamondtriangles.svg	6	yes	44	1	491
6.6.1	win	2022-12-14	09:44:58	09:52:16	436361	5fd53e2d08163d37f7cb72f6	821041970	1	main_z	7	advance_on_keypress_ZEE	150	stimuli_target_circlediamonds.svg	stimuli_distractor_diamondtriangles.svg	6	yes	57	0	315
6.6.1	win	2022-12-14	09:44:58	09:52:18	437850	5fd53e2d08163d37f7cb72f6	821041970	1	main_z	7	main_z	151	stimuli_distractor_diamondtriangles.svg	stimuli_target_circletriangles.svg	13	yes	44	1	531
6.6.1	win	2022-12-14	09:44:58	09:52:18	437850	5fd53e2d08163d37f7cb72f6	821041970	1	main_z	7	advance_on_keypress_ZEE	152	stimuli_distractor_diamondtriangles.svg	stimuli_target_circletriangles.svg	13	yes	57	0	305
6.6.1	win	2022-12-14	09:44:58	09:52:19	439318	5fd53e2d08163d37f7cb72f6	821041970	1	main_z	7	main_z	153	stimuli_target_squaretriangles.svg	stimuli_distractor_diamondtriangles.svg	7	yes	44	1	518
6.6.1	win	2022-12-14	09:44:58	09:52:19	439318	5fd53e2d08163d37f7cb72f6	821041970	1	main_z	7	advance_on_keypress_ZEE	154	stimuli_target_squaretriangles.svg	stimuli_distractor_diamondtriangles.svg	7	yes	57	0	277
6.6.1	win	2022-12-14	09:44:58	09:52:21	440844	5fd53e2d08163d37f7cb72f6	821041970	1	main_z	7	main_z	155	stimuli_distractor_trianglediamonds.svg	stimuli_target_squaretriangles.svg	11	yes	44	1	612
6.6.1	win	2022-12-14	09:44:58	09:52:21	440844	5fd53e2d08163d37f7cb72f6	821041970	1	main_z	7	advance_on_keypress_ZEE	156	stimuli_distractor_trianglediamonds.svg	stimuli_target_squaretriangles.svg	11	yes	57	0	337
6.6.1	win	2022-12-14	09:44:58	09:52:23	442729	5fd53e2d08163d37f7cb72f6	821041970	1	main_z	7	main_z	157	stimuli_target_trianglesquares.svg	stimuli_distractor_diamondtriangles.svg	22	yes	44	1	898
6.6.1	win	2022-12-14	09:44:58	09:52:23	442729	5fd53e2d08163d37f7cb72f6	821041970	1	main_z	7	advance_on_keypress_ZEE	158	stimuli_target_trianglesquares.svg	stimuli_distractor_diamondtriangles.svg	22	yes	57	0	316
6.6.1	win	2022-12-14	09:44:58	09:52:24	444288	5fd53e2d08163d37f7cb72f6	821041970	1	main_z	7	main_z	159	stimuli_target_squarediamonds.svg	stimuli_distractor_trianglediamonds.svg	4	yes	44	1	593
6.6.1	win	2022-12-14	09:44:58	09:52:24	444288	5fd53e2d08163d37f7cb72f6	821041970	1	main_z	7	advance_on_keypress_ZEE	160	stimuli_target_squarediamonds.svg	stimuli_distractor_trianglediamonds.svg	4	yes	57	0	313
6.6.1	win	2022-12-14	09:44:58	09:52:50	469861	5fd53e2d08163d37f7cb72f6	821041970	1	practice_slash	9	practice_slash	1	stimuli_target_circlediamonds.svg	stimuli_distractor_trianglediamonds.svg	4	yes	53	1	424
6.6.1	win	2022-12-14	09:44:58	09:52:50	469861	5fd53e2d08163d37f7cb72f6	821041970	1	practice_slash	9	advance_on_keypress_SLASH	2	stimuli_target_circlediamonds.svg	stimuli_distractor_trianglediamonds.svg	4	yes	57	0	662
6.6.1	win	2022-12-14	09:44:58	09:52:52	472594	5fd53e2d08163d37f7cb72f6	821041970	1	practice_slash	9	practice_slash	3	stimuli_distractor_diamondtriangles.svg	stimuli_target_diamondcircles.svg	8	yes	53	1	410
6.6.1	win	2022-12-14	09:44:58	09:52:52	472594	5fd53e2d08163d37f7cb72f6	821041970	1	practice_slash	9	advance_on_keypress_SLASH	4	stimuli_distractor_diamondtriangles.svg	stimuli_target_diamondcircles.svg	8	yes	57	0	492
6.6.1	win	2022-12-14	09:44:58	09:52:55	475124	5fd53e2d08163d37f7cb72f6	821041970	1	practice_slash	9	practice_slash	5	stimuli_distractor_trianglediamonds.svg	stimuli_target_diamondcircles.svg	12	yes	53	1	393
6.6.1	win	2022-12-14	09:44:58	09:52:55	475124	5fd53e2d08163d37f7cb72f6	821041970	1	practice_slash	9	advance_on_keypress_SLASH	6	stimuli_distractor_trianglediamonds.svg	stimuli_target_diamondcircles.svg	12	yes	57	0	338
6.6.1	win	2022-12-14	09:44:58	09:52:57	477542	5fd53e2d08163d37f7cb72f6	821041970	1	practice_slash	9	practice_slash	7	stimuli_target_squarediamonds.svg	stimuli_distractor_trianglediamonds.svg	5	yes	53	1	429
6.6.1	win	2022-12-14	09:44:58	09:52:57	477542	5fd53e2d08163d37f7cb72f6	821041970	1	practice_slash	9	advance_on_keypress_SLASH	8	stimuli_target_squarediamonds.svg	stimuli_distractor_trianglediamonds.svg	5	yes	57	0	352
6.6.1	win	2022-12-14	09:44:58	09:53:00	479963	5fd53e2d08163d37f7cb72f6	821041970	1	practice_slash	9	practice_slash	9	stimuli_distractor_trianglediamonds.svg	stimuli_target_circlediamonds.svg	10	yes	53	1	420
6.6.1	win	2022-12-14	09:44:58	09:53:00	479963	5fd53e2d08163d37f7cb72f6	821041970	1	practice_slash	9	advance_on_keypress_SLASH	10	stimuli_distractor_trianglediamonds.svg	stimuli_target_circlediamonds.svg	10	yes	57	0	289
6.6.1	win	2022-12-14	09:44:58	09:53:04	483890	5fd53e2d08163d37f7cb72f6	821041970	1	practice_slash	9	practice_slash	11	stimuli_distractor_trianglediamonds.svg	stimuli_distractor_trianglediamonds.svg	15	no	0	1	2000
6.6.1	win	2022-12-14	09:44:58	09:53:04	483890	5fd53e2d08163d37f7cb72f6	821041970	1	practice_slash	9	advance_on_keypress_SLASH	12	stimuli_distractor_trianglediamonds.svg	stimuli_distractor_trianglediamonds.svg	15	no	57	0	499
6.6.1	win	2022-12-14	09:44:58	09:53:06	486550	5fd53e2d08163d37f7cb72f6	821041970	1	practice_slash	9	practice_slash	13	stimuli_target_circlediamonds.svg	stimuli_distractor_diamondtriangles.svg	1	yes	53	1	512
6.6.1	win	2022-12-14	09:44:58	09:53:06	486550	5fd53e2d08163d37f7cb72f6	821041970	1	practice_slash	9	advance_on_keypress_SLASH	14	stimuli_target_circlediamonds.svg	stimuli_distractor_diamondtriangles.svg	1	yes	57	0	365
6.6.1	win	2022-12-14	09:44:58	09:53:09	488967	5fd53e2d08163d37f7cb72f6	821041970	1	practice_slash	9	practice_slash	15	stimuli_target_squarediamonds.svg	stimuli_distractor_diamondtriangles.svg	2	yes	53	1	401
6.6.1	win	2022-12-14	09:44:58	09:53:09	488967	5fd53e2d08163d37f7cb72f6	821041970	1	practice_slash	9	advance_on_keypress_SLASH	16	stimuli_target_squarediamonds.svg	stimuli_distractor_diamondtriangles.svg	2	yes	57	0	266
6.6.1	win	2022-12-14	09:44:58	09:53:11	491417	5fd53e2d08163d37f7cb72f6	821041970	1	practice_slash	9	practice_slash	17	stimuli_distractor_diamondtriangles.svg	stimuli_target_trianglecircles.svg	9	yes	53	1	536
6.6.1	win	2022-12-14	09:44:58	09:53:11	491417	5fd53e2d08163d37f7cb72f6	821041970	1	practice_slash	9	advance_on_keypress_SLASH	18	stimuli_distractor_diamondtriangles.svg	stimuli_target_trianglecircles.svg	9	yes	57	0	194
6.6.1	win	2022-12-14	09:44:58	09:53:14	493832	5fd53e2d08163d37f7cb72f6	821041970	1	practice_slash	9	practice_slash	19	stimuli_target_diamondsquares.svg	stimuli_distractor_trianglediamonds.svg	6	yes	53	1	570
6.6.1	win	2022-12-14	09:44:58	09:53:14	493832	5fd53e2d08163d37f7cb72f6	821041970	1	practice_slash	9	advance_on_keypress_SLASH	20	stimuli_target_diamondsquares.svg	stimuli_distractor_trianglediamonds.svg	6	yes	57	0	399
6.6.1	win	2022-12-14	09:44:58	09:53:16	496688	5fd53e2d08163d37f7cb72f6	821041970	1	practice_slash	9	practice_slash	21	stimuli_distractor_diamondtriangles.svg	stimuli_distractor_trianglediamonds.svg	14	no	53	0	813
6.6.1	win	2022-12-14	09:44:58	09:53:16	496688	5fd53e2d08163d37f7cb72f6	821041970	1	practice_slash	9	advance_on_keypress_SLASH	22	stimuli_distractor_diamondtriangles.svg	stimuli_distractor_trianglediamonds.svg	14	no	57	0	493
6.6.1	win	2022-12-14	09:44:58	09:53:19	499525	5fd53e2d08163d37f7cb72f6	821041970	1	practice_slash	9	practice_slash	23	stimuli_target_diamondsquares.svg	stimuli_distractor_diamondtriangles.svg	3	yes	53	1	702
6.6.1	win	2022-12-14	09:44:58	09:53:19	499525	5fd53e2d08163d37f7cb72f6	821041970	1	practice_slash	9	advance_on_keypress_SLASH	24	stimuli_target_diamondsquares.svg	stimuli_distractor_diamondtriangles.svg	3	yes	57	0	474
6.6.1	win	2022-12-14	09:44:58	09:53:22	502151	5fd53e2d08163d37f7cb72f6	821041970	1	practice_slash	9	practice_slash	25	stimuli_distractor_trianglediamonds.svg	stimuli_target_squarediamonds.svg	11	yes	53	1	513
6.6.1	win	2022-12-14	09:44:58	09:53:22	502151	5fd53e2d08163d37f7cb72f6	821041970	1	practice_slash	9	advance_on_keypress_SLASH	26	stimuli_distractor_trianglediamonds.svg	stimuli_target_squarediamonds.svg	11	yes	57	0	499
6.6.1	win	2022-12-14	09:44:58	09:53:25	504815	5fd53e2d08163d37f7cb72f6	821041970	1	practice_slash	9	practice_slash	27	stimuli_distractor_diamondtriangles.svg	stimuli_target_circletriangles.svg	7	yes	53	1	500
6.6.1	win	2022-12-14	09:44:58	09:53:25	504815	5fd53e2d08163d37f7cb72f6	821041970	1	practice_slash	9	advance_on_keypress_SLASH	28	stimuli_distractor_diamondtriangles.svg	stimuli_target_circletriangles.svg	7	yes	57	0	287
6.6.1	win	2022-12-14	09:44:58	09:53:28	507837	5fd53e2d08163d37f7cb72f6	821041970	1	practice_slash	9	practice_slash	29	stimuli_distractor_trianglediamonds.svg	stimuli_distractor_diamondtriangles.svg	16	no	53	0	1090
6.6.1	win	2022-12-14	09:44:58	09:53:28	507837	5fd53e2d08163d37f7cb72f6	821041970	1	practice_slash	9	advance_on_keypress_SLASH	30	stimuli_distractor_trianglediamonds.svg	stimuli_distractor_diamondtriangles.svg	16	no	57	0	546
6.6.1	win	2022-12-14	09:44:58	09:53:32	512027	5fd53e2d08163d37f7cb72f6	821041970	1	practice_slash	9	practice_slash	31	stimuli_distractor_diamondtriangles.svg	stimuli_distractor_diamondtriangles.svg	13	no	0	1	2000
6.6.1	win	2022-12-14	09:44:58	09:53:32	512027	5fd53e2d08163d37f7cb72f6	821041970	1	practice_slash	9	advance_on_keypress_SLASH	32	stimuli_distractor_diamondtriangles.svg	stimuli_distractor_diamondtriangles.svg	13	no	57	0	312
6.6.1	win	2022-12-14	09:44:58	09:53:38	517936	5fd53e2d08163d37f7cb72f6	821041970	1	main_slash	11	main_slash	1	stimuli_distractor_trianglediamonds.svg	stimuli_distractor_trianglediamonds.svg	34	no	0	1	2000
6.6.1	win	2022-12-14	09:44:58	09:53:38	517936	5fd53e2d08163d37f7cb72f6	821041970	1	main_slash	11	advance_on_keypress_SLASH	2	stimuli_distractor_trianglediamonds.svg	stimuli_distractor_trianglediamonds.svg	34	no	57	0	4224
6.6.1	win	2022-12-14	09:44:58	09:53:43	523209	5fd53e2d08163d37f7cb72f6	821041970	1	main_slash	11	main_slash	3	stimuli_distractor_diamondtriangles.svg	stimuli_target_diamondsquares.svg	32	yes	53	1	397
6.6.1	win	2022-12-14	09:44:58	09:53:43	523209	5fd53e2d08163d37f7cb72f6	821041970	1	main_slash	11	advance_on_keypress_SLASH	4	stimuli_distractor_diamondtriangles.svg	stimuli_target_diamondsquares.svg	32	yes	57	0	698
6.6.1	win	2022-12-14	09:44:58	09:53:45	525075	5fd53e2d08163d37f7cb72f6	821041970	1	main_slash	11	main_slash	5	stimuli_target_trianglesquares.svg	stimuli_distractor_trianglediamonds.svg	18	yes	53	1	506
6.6.1	win	2022-12-14	09:44:58	09:53:45	525075	5fd53e2d08163d37f7cb72f6	821041970	1	main_slash	11	advance_on_keypress_SLASH	6	stimuli_target_trianglesquares.svg	stimuli_distractor_trianglediamonds.svg	18	yes	57	0	561
6.6.1	win	2022-12-14	09:44:58	09:53:48	528291	5fd53e2d08163d37f7cb72f6	821041970	1	main_slash	11	main_slash	7	stimuli_distractor_trianglediamonds.svg	stimuli_distractor_diamondtriangles.svg	35	no	0	1	2000
6.6.1	win	2022-12-14	09:44:58	09:53:48	528291	5fd53e2d08163d37f7cb72f6	821041970	1	main_slash	11	advance_on_keypress_SLASH	8	stimuli_distractor_trianglediamonds.svg	stimuli_distractor_diamondtriangles.svg	35	no	57	0	259
6.6.1	win	2022-12-14	09:44:58	09:53:50	529704	5fd53e2d08163d37f7cb72f6	821041970	1	main_slash	11	main_slash	9	stimuli_target_diamondcircles.svg	stimuli_distractor_diamondtriangles.svg	23	yes	53	1	515
6.6.1	win	2022-12-14	09:44:58	09:53:50	529704	5fd53e2d08163d37f7cb72f6	821041970	1	main_slash	11	advance_on_keypress_SLASH	10	stimuli_target_diamondcircles.svg	stimuli_distractor_diamondtriangles.svg	23	yes	57	0	517
6.6.1	win	2022-12-14	09:44:58	09:53:51	531406	5fd53e2d08163d37f7cb72f6	821041970	1	main_slash	11	main_slash	11	stimuli_target_circletriangles.svg	stimuli_distractor_diamondtriangles.svg	5	yes	53	1	537
6.6.1	win	2022-12-14	09:44:58	09:53:51	531406	5fd53e2d08163d37f7cb72f6	821041970	1	main_slash	11	advance_on_keypress_SLASH	12	stimuli_target_circletriangles.svg	stimuli_distractor_diamondtriangles.svg	5	yes	57	0	497
6.6.1	win	2022-12-14	09:44:58	09:53:53	533088	5fd53e2d08163d37f7cb72f6	821041970	1	main_slash	11	main_slash	13	stimuli_distractor_diamondtriangles.svg	stimuli_target_diamondcircles.svg	31	yes	53	1	537
6.6.1	win	2022-12-14	09:44:58	09:53:53	533088	5fd53e2d08163d37f7cb72f6	821041970	1	main_slash	11	advance_on_keypress_SLASH	14	stimuli_distractor_diamondtriangles.svg	stimuli_target_diamondcircles.svg	31	yes	57	0	407
6.6.1	win	2022-12-14	09:44:58	09:53:56	536133	5fd53e2d08163d37f7cb72f6	821041970	1	main_slash	11	main_slash	15	stimuli_distractor_diamondtriangles.svg	stimuli_distractor_trianglediamonds.svg	37	no	0	1	2000
6.6.1	win	2022-12-14	09:44:58	09:53:56	536133	5fd53e2d08163d37f7cb72f6	821041970	1	main_slash	11	advance_on_keypress_SLASH	16	stimuli_distractor_diamondtriangles.svg	stimuli_distractor_trianglediamonds.svg	37	no	57	0	377
6.6.1	win	2022-12-14	09:44:58	09:53:58	537760	5fd53e2d08163d37f7cb72f6	821041970	1	main_slash	11	main_slash	17	stimuli_distractor_trianglediamonds.svg	stimuli_target_diamondsquares.svg	28	yes	53	1	613
6.6.1	win	2022-12-14	09:44:58	09:53:58	537760	5fd53e2d08163d37f7cb72f6	821041970	1	main_slash	11	advance_on_keypress_SLASH	18	stimuli_distractor_trianglediamonds.svg	stimuli_target_diamondsquares.svg	28	yes	57	0	623
6.6.1	win	2022-12-14	09:44:58	09:53:59	539553	5fd53e2d08163d37f7cb72f6	821041970	1	main_slash	11	main_slash	19	stimuli_distractor_trianglediamonds.svg	stimuli_target_squarediamonds.svg	12	yes	53	1	525
6.6.1	win	2022-12-14	09:44:58	09:53:59	539553	5fd53e2d08163d37f7cb72f6	821041970	1	main_slash	11	advance_on_keypress_SLASH	20	stimuli_distractor_trianglediamonds.svg	stimuli_target_squarediamonds.svg	12	yes	57	0	392
6.6.1	win	2022-12-14	09:44:58	09:54:01	541064	5fd53e2d08163d37f7cb72f6	821041970	1	main_slash	11	main_slash	21	stimuli_target_trianglecircles.svg	stimuli_distractor_diamondtriangles.svg	21	yes	53	1	488
6.6.1	win	2022-12-14	09:44:58	09:54:01	541064	5fd53e2d08163d37f7cb72f6	821041970	1	main_slash	11	advance_on_keypress_SLASH	22	stimuli_target_trianglecircles.svg	stimuli_distractor_diamondtriangles.svg	21	yes	57	0	332
6.6.1	win	2022-12-14	09:44:58	09:54:02	542583	5fd53e2d08163d37f7cb72f6	821041970	1	main_slash	11	main_slash	23	stimuli_distractor_diamondtriangles.svg	stimuli_target_trianglesquares.svg	30	yes	53	1	541
6.6.1	win	2022-12-14	09:44:58	09:54:02	542583	5fd53e2d08163d37f7cb72f6	821041970	1	main_slash	11	advance_on_keypress_SLASH	24	stimuli_distractor_diamondtriangles.svg	stimuli_target_trianglesquares.svg	30	yes	57	0	317
6.6.1	win	2022-12-14	09:44:58	09:54:04	544098	5fd53e2d08163d37f7cb72f6	821041970	1	main_slash	11	main_slash	25	stimuli_target_squaretriangles.svg	stimuli_distractor_diamondtriangles.svg	7	yes	53	1	558
6.6.1	win	2022-12-14	09:44:58	09:54:04	544098	5fd53e2d08163d37f7cb72f6	821041970	1	main_slash	11	advance_on_keypress_SLASH	26	stimuli_target_squaretriangles.svg	stimuli_distractor_diamondtriangles.svg	7	yes	57	0	353
6.6.1	win	2022-12-14	09:44:58	09:54:05	545522	5fd53e2d08163d37f7cb72f6	821041970	1	main_slash	11	main_slash	27	stimuli_target_circlediamonds.svg	stimuli_distractor_diamondtriangles.svg	6	yes	53	1	434
6.6.1	win	2022-12-14	09:44:58	09:54:05	545522	5fd53e2d08163d37f7cb72f6	821041970	1	main_slash	11	advance_on_keypress_SLASH	28	stimuli_target_circlediamonds.svg	stimuli_distractor_diamondtriangles.svg	6	yes	57	0	301
6.6.1	win	2022-12-14	09:44:58	09:54:07	546880	5fd53e2d08163d37f7cb72f6	821041970	1	main_slash	11	main_slash	29	stimuli_distractor_trianglediamonds.svg	stimuli_target_squaretriangles.svg	11	yes	53	1	410
6.6.1	win	2022-12-14	09:44:58	09:54:07	546880	5fd53e2d08163d37f7cb72f6	821041970	1	main_slash	11	advance_on_keypress_SLASH	30	stimuli_distractor_trianglediamonds.svg	stimuli_target_squaretriangles.svg	11	yes	57	0	281
6.6.1	win	2022-12-14	09:44:58	09:54:08	548262	5fd53e2d08163d37f7cb72f6	821041970	1	main_slash	11	main_slash	31	stimuli_distractor_trianglediamonds.svg	stimuli_target_trianglecircles.svg	25	yes	53	1	461
6.6.1	win	2022-12-14	09:44:58	09:54:08	548262	5fd53e2d08163d37f7cb72f6	821041970	1	main_slash	11	advance_on_keypress_SLASH	32	stimuli_distractor_trianglediamonds.svg	stimuli_target_trianglecircles.svg	25	yes	57	0	286
6.6.1	win	2022-12-14	09:44:58	09:54:09	549611	5fd53e2d08163d37f7cb72f6	821041970	1	main_slash	11	main_slash	33	stimuli_distractor_diamondtriangles.svg	stimuli_target_trianglecircles.svg	29	yes	53	1	427
6.6.1	win	2022-12-14	09:44:58	09:54:09	549611	5fd53e2d08163d37f7cb72f6	821041970	1	main_slash	11	advance_on_keypress_SLASH	34	stimuli_distractor_diamondtriangles.svg	stimuli_target_trianglecircles.svg	29	yes	57	0	253
6.6.1	win	2022-12-14	09:44:58	09:54:11	550980	5fd53e2d08163d37f7cb72f6	821041970	1	main_slash	11	main_slash	35	stimuli_distractor_trianglediamonds.svg	stimuli_target_circletriangles.svg	9	yes	53	1	464
6.6.1	win	2022-12-14	09:44:58	09:54:11	550980	5fd53e2d08163d37f7cb72f6	821041970	1	main_slash	11	advance_on_keypress_SLASH	36	stimuli_distractor_trianglediamonds.svg	stimuli_target_circletriangles.svg	9	yes	57	0	289
6.6.1	win	2022-12-14	09:44:58	09:54:12	552372	5fd53e2d08163d37f7cb72f6	821041970	1	main_slash	11	main_slash	37	stimuli_target_squarediamonds.svg	stimuli_distractor_diamondtriangles.svg	8	yes	53	1	458
6.6.1	win	2022-12-14	09:44:58	09:54:12	552372	5fd53e2d08163d37f7cb72f6	821041970	1	main_slash	11	advance_on_keypress_SLASH	38	stimuli_target_squarediamonds.svg	stimuli_distractor_diamondtriangles.svg	8	yes	57	0	277
6.6.1	win	2022-12-14	09:44:58	09:54:14	553731	5fd53e2d08163d37f7cb72f6	821041970	1	main_slash	11	main_slash	39	stimuli_distractor_diamondtriangles.svg	stimuli_target_circletriangles.svg	13	yes	53	1	451
6.6.1	win	2022-12-14	09:44:58	09:54:14	553731	5fd53e2d08163d37f7cb72f6	821041970	1	main_slash	11	advance_on_keypress_SLASH	40	stimuli_distractor_diamondtriangles.svg	stimuli_target_circletriangles.svg	13	yes	57	0	272
6.6.1	win	2022-12-14	09:44:58	09:54:15	555197	5fd53e2d08163d37f7cb72f6	821041970	1	main_slash	11	main_slash	41	stimuli_target_trianglecircles.svg	stimuli_distractor_trianglediamonds.svg	17	yes	53	1	552
6.6.1	win	2022-12-14	09:44:58	09:54:15	555197	5fd53e2d08163d37f7cb72f6	821041970	1	main_slash	11	advance_on_keypress_SLASH	42	stimuli_target_trianglecircles.svg	stimuli_distractor_trianglediamonds.svg	17	yes	57	0	253
6.6.1	win	2022-12-14	09:44:58	09:54:17	557226	5fd53e2d08163d37f7cb72f6	821041970	1	main_slash	11	main_slash	43	stimuli_target_squaretriangles.svg	stimuli_distractor_trianglediamonds.svg	3	yes	53	1	1133
6.6.1	win	2022-12-14	09:44:58	09:54:17	557226	5fd53e2d08163d37f7cb72f6	821041970	1	main_slash	11	advance_on_keypress_SLASH	44	stimuli_target_squaretriangles.svg	stimuli_distractor_trianglediamonds.svg	3	yes	57	0	488
6.6.1	win	2022-12-14	09:44:58	09:54:19	558790	5fd53e2d08163d37f7cb72f6	821041970	1	main_slash	11	main_slash	45	stimuli_target_circlediamonds.svg	stimuli_distractor_trianglediamonds.svg	2	yes	53	1	431
6.6.1	win	2022-12-14	09:44:58	09:54:19	558790	5fd53e2d08163d37f7cb72f6	821041970	1	main_slash	11	advance_on_keypress_SLASH	46	stimuli_target_circlediamonds.svg	stimuli_distractor_trianglediamonds.svg	2	yes	57	0	278
6.6.1	win	2022-12-14	09:44:58	09:54:20	560123	5fd53e2d08163d37f7cb72f6	821041970	1	main_slash	11	main_slash	47	stimuli_distractor_diamondtriangles.svg	stimuli_target_circlediamonds.svg	14	yes	53	1	400
6.6.1	win	2022-12-14	09:44:58	09:54:20	560123	5fd53e2d08163d37f7cb72f6	821041970	1	main_slash	11	advance_on_keypress_SLASH	48	stimuli_distractor_diamondtriangles.svg	stimuli_target_circlediamonds.svg	14	yes	57	0	284
6.6.1	win	2022-12-14	09:44:58	09:54:21	561548	5fd53e2d08163d37f7cb72f6	821041970	1	main_slash	11	main_slash	49	stimuli_target_squarediamonds.svg	stimuli_distractor_trianglediamonds.svg	4	yes	53	1	493
6.6.1	win	2022-12-14	09:44:58	09:54:21	561548	5fd53e2d08163d37f7cb72f6	821041970	1	main_slash	11	advance_on_keypress_SLASH	50	stimuli_target_squarediamonds.svg	stimuli_distractor_trianglediamonds.svg	4	yes	57	0	358
6.6.1	win	2022-12-14	09:44:58	09:54:23	562977	5fd53e2d08163d37f7cb72f6	821041970	1	main_slash	11	main_slash	51	stimuli_target_circletriangles.svg	stimuli_distractor_trianglediamonds.svg	1	yes	53	1	440
6.6.1	win	2022-12-14	09:44:58	09:54:23	562977	5fd53e2d08163d37f7cb72f6	821041970	1	main_slash	11	advance_on_keypress_SLASH	52	stimuli_target_circletriangles.svg	stimuli_distractor_trianglediamonds.svg	1	yes	57	0	297
6.6.1	win	2022-12-14	09:44:58	09:54:24	564343	5fd53e2d08163d37f7cb72f6	821041970	1	main_slash	11	main_slash	53	stimuli_distractor_diamondtriangles.svg	stimuli_target_squarediamonds.svg	16	yes	53	1	425
6.6.1	win	2022-12-14	09:44:58	09:54:24	564343	5fd53e2d08163d37f7cb72f6	821041970	1	main_slash	11	advance_on_keypress_SLASH	54	stimuli_distractor_diamondtriangles.svg	stimuli_target_squarediamonds.svg	16	yes	57	0	281
6.6.1	win	2022-12-14	09:44:58	09:54:27	567267	5fd53e2d08163d37f7cb72f6	821041970	1	main_slash	11	main_slash	55	stimuli_distractor_diamondtriangles.svg	stimuli_distractor_trianglediamonds.svg	38	no	0	1	2000
6.6.1	win	2022-12-14	09:44:58	09:54:27	567267	5fd53e2d08163d37f7cb72f6	821041970	1	main_slash	11	advance_on_keypress_SLASH	56	stimuli_distractor_diamondtriangles.svg	stimuli_distractor_trianglediamonds.svg	38	no	57	0	684
6.6.1	win	2022-12-14	09:44:58	09:54:29	569047	5fd53e2d08163d37f7cb72f6	821041970	1	main_slash	11	main_slash	57	stimuli_distractor_diamondtriangles.svg	stimuli_target_squaretriangles.svg	15	yes	53	1	450
6.6.1	win	2022-12-14	09:44:58	09:54:29	569047	5fd53e2d08163d37f7cb72f6	821041970	1	main_slash	11	advance_on_keypress_SLASH	58	stimuli_distractor_diamondtriangles.svg	stimuli_target_squaretriangles.svg	15	yes	57	0	281
6.6.1	win	2022-12-14	09:44:58	09:54:30	570388	5fd53e2d08163d37f7cb72f6	821041970	1	main_slash	11	main_slash	59	stimuli_distractor_trianglediamonds.svg	stimuli_target_circlediamonds.svg	10	yes	53	1	409
6.6.1	win	2022-12-14	09:44:58	09:54:30	570388	5fd53e2d08163d37f7cb72f6	821041970	1	main_slash	11	advance_on_keypress_SLASH	60	stimuli_distractor_trianglediamonds.svg	stimuli_target_circlediamonds.svg	10	yes	57	0	276
6.6.1	win	2022-12-14	09:44:58	09:54:33	573294	5fd53e2d08163d37f7cb72f6	821041970	1	main_slash	11	main_slash	61	stimuli_distractor_diamondtriangles.svg	stimuli_distractor_diamondtriangles.svg	40	no	0	1	2000
6.6.1	win	2022-12-14	09:44:58	09:54:33	573294	5fd53e2d08163d37f7cb72f6	821041970	1	main_slash	11	advance_on_keypress_SLASH	62	stimuli_distractor_diamondtriangles.svg	stimuli_distractor_diamondtriangles.svg	40	no	57	0	432
6.6.1	win	2022-12-14	09:44:58	09:54:36	576374	5fd53e2d08163d37f7cb72f6	821041970	1	main_slash	11	main_slash	63	stimuli_distractor_trianglediamonds.svg	stimuli_distractor_diamondtriangles.svg	36	no	0	1	2000
6.6.1	win	2022-12-14	09:44:58	09:54:36	576374	5fd53e2d08163d37f7cb72f6	821041970	1	main_slash	11	advance_on_keypress_SLASH	64	stimuli_distractor_trianglediamonds.svg	stimuli_distractor_diamondtriangles.svg	36	no	57	0	481
6.6.1	win	2022-12-14	09:44:58	09:54:39	579504	5fd53e2d08163d37f7cb72f6	821041970	1	main_slash	11	main_slash	65	stimuli_distractor_diamondtriangles.svg	stimuli_distractor_diamondtriangles.svg	39	no	0	1	2000
6.6.1	win	2022-12-14	09:44:58	09:54:39	579504	5fd53e2d08163d37f7cb72f6	821041970	1	main_slash	11	advance_on_keypress_SLASH	66	stimuli_distractor_diamondtriangles.svg	stimuli_distractor_diamondtriangles.svg	39	no	57	0	268
6.6.1	win	2022-12-14	09:44:58	09:54:41	580968	5fd53e2d08163d37f7cb72f6	821041970	1	main_slash	11	main_slash	67	stimuli_target_trianglesquares.svg	stimuli_distractor_diamondtriangles.svg	22	yes	53	1	550
6.6.1	win	2022-12-14	09:44:58	09:54:41	580968	5fd53e2d08163d37f7cb72f6	821041970	1	main_slash	11	advance_on_keypress_SLASH	68	stimuli_target_trianglesquares.svg	stimuli_distractor_diamondtriangles.svg	22	yes	57	0	318
6.6.1	win	2022-12-14	09:44:58	09:54:42	582384	5fd53e2d08163d37f7cb72f6	821041970	1	main_slash	11	main_slash	69	stimuli_distractor_trianglediamonds.svg	stimuli_target_trianglesquares.svg	26	yes	53	1	451
6.6.1	win	2022-12-14	09:44:58	09:54:42	582384	5fd53e2d08163d37f7cb72f6	821041970	1	main_slash	11	advance_on_keypress_SLASH	70	stimuli_distractor_trianglediamonds.svg	stimuli_target_trianglesquares.svg	26	yes	57	0	259
6.6.1	win	2022-12-14	09:44:58	09:54:44	583826	5fd53e2d08163d37f7cb72f6	821041970	1	main_slash	11	main_slash	71	stimuli_target_diamondsquares.svg	stimuli_distractor_trianglediamonds.svg	20	yes	53	1	545
6.6.1	win	2022-12-14	09:44:58	09:54:44	583826	5fd53e2d08163d37f7cb72f6	821041970	1	main_slash	11	advance_on_keypress_SLASH	72	stimuli_target_diamondsquares.svg	stimuli_distractor_trianglediamonds.svg	20	yes	57	0	497
6.6.1	win	2022-12-14	09:44:58	09:54:46	585747	5fd53e2d08163d37f7cb72f6	821041970	1	main_slash	11	main_slash	73	stimuli_target_diamondsquares.svg	stimuli_distractor_diamondtriangles.svg	24	yes	53	1	767
6.6.1	win	2022-12-14	09:44:58	09:54:46	585747	5fd53e2d08163d37f7cb72f6	821041970	1	main_slash	11	advance_on_keypress_SLASH	74	stimuli_target_diamondsquares.svg	stimuli_distractor_diamondtriangles.svg	24	yes	57	0	367
6.6.1	win	2022-12-14	09:44:58	09:54:47	587385	5fd53e2d08163d37f7cb72f6	821041970	1	main_slash	11	main_slash	75	stimuli_target_diamondcircles.svg	stimuli_distractor_trianglediamonds.svg	19	yes	53	1	624
6.6.1	win	2022-12-14	09:44:58	09:54:47	587385	5fd53e2d08163d37f7cb72f6	821041970	1	main_slash	11	advance_on_keypress_SLASH	76	stimuli_target_diamondcircles.svg	stimuli_distractor_trianglediamonds.svg	19	yes	57	0	418
6.6.1	win	2022-12-14	09:44:58	09:54:49	589002	5fd53e2d08163d37f7cb72f6	821041970	1	main_slash	11	main_slash	77	stimuli_distractor_trianglediamonds.svg	stimuli_target_diamondcircles.svg	27	yes	53	1	559
6.6.1	win	2022-12-14	09:44:58	09:54:49	589002	5fd53e2d08163d37f7cb72f6	821041970	1	main_slash	11	advance_on_keypress_SLASH	78	stimuli_distractor_trianglediamonds.svg	stimuli_target_diamondcircles.svg	27	yes	57	0	305
6.6.1	win	2022-12-14	09:44:58	09:54:52	591941	5fd53e2d08163d37f7cb72f6	821041970	1	main_slash	11	main_slash	79	stimuli_distractor_trianglediamonds.svg	stimuli_distractor_trianglediamonds.svg	33	no	0	1	2000
6.6.1	win	2022-12-14	09:44:58	09:54:52	591941	5fd53e2d08163d37f7cb72f6	821041970	1	main_slash	11	advance_on_keypress_SLASH	80	stimuli_distractor_trianglediamonds.svg	stimuli_distractor_trianglediamonds.svg	33	no	57	0	292
6.6.1	win	2022-12-14	09:44:58	09:54:53	593406	5fd53e2d08163d37f7cb72f6	821041970	1	main_slash	11	main_slash	81	stimuli_distractor_diamondtriangles.svg	stimuli_target_trianglecircles.svg	29	yes	53	1	535
6.6.1	win	2022-12-14	09:44:58	09:54:53	593406	5fd53e2d08163d37f7cb72f6	821041970	1	main_slash	11	advance_on_keypress_SLASH	82	stimuli_distractor_diamondtriangles.svg	stimuli_target_trianglecircles.svg	29	yes	57	0	355
6.6.1	win	2022-12-14	09:44:58	09:54:55	594918	5fd53e2d08163d37f7cb72f6	821041970	1	main_slash	11	main_slash	83	stimuli_target_squarediamonds.svg	stimuli_distractor_trianglediamonds.svg	4	yes	53	1	510
6.6.1	win	2022-12-14	09:44:58	09:54:55	594918	5fd53e2d08163d37f7cb72f6	821041970	1	main_slash	11	advance_on_keypress_SLASH	84	stimuli_target_squarediamonds.svg	stimuli_distractor_trianglediamonds.svg	4	yes	57	0	261
6.6.1	win	2022-12-14	09:44:58	09:54:58	597818	5fd53e2d08163d37f7cb72f6	821041970	1	main_slash	11	main_slash	85	stimuli_distractor_trianglediamonds.svg	stimuli_distractor_trianglediamonds.svg	33	no	0	1	2000
6.6.1	win	2022-12-14	09:44:58	09:54:58	597818	5fd53e2d08163d37f7cb72f6	821041970	1	main_slash	11	advance_on_keypress_SLASH	86	stimuli_distractor_trianglediamonds.svg	stimuli_distractor_trianglediamonds.svg	33	no	57	0	276
6.6.1	win	2022-12-14	09:44:58	09:54:59	599289	5fd53e2d08163d37f7cb72f6	821041970	1	main_slash	11	main_slash	87	stimuli_target_trianglecircles.svg	stimuli_distractor_diamondtriangles.svg	21	yes	53	1	557
6.6.1	win	2022-12-14	09:44:58	09:54:59	599289	5fd53e2d08163d37f7cb72f6	821041970	1	main_slash	11	advance_on_keypress_SLASH	88	stimuli_target_trianglecircles.svg	stimuli_distractor_diamondtriangles.svg	21	yes	57	0	346
6.6.1	win	2022-12-14	09:44:58	09:55:02	602280	5fd53e2d08163d37f7cb72f6	821041970	1	main_slash	11	main_slash	89	stimuli_distractor_diamondtriangles.svg	stimuli_distractor_diamondtriangles.svg	39	no	0	1	2000
6.6.1	win	2022-12-14	09:44:58	09:55:02	602280	5fd53e2d08163d37f7cb72f6	821041970	1	main_slash	11	advance_on_keypress_SLASH	90	stimuli_distractor_diamondtriangles.svg	stimuli_distractor_diamondtriangles.svg	39	no	57	0	236
6.6.1	win	2022-12-14	09:44:58	09:55:03	603647	5fd53e2d08163d37f7cb72f6	821041970	1	main_slash	11	main_slash	91	stimuli_target_trianglecircles.svg	stimuli_distractor_trianglediamonds.svg	17	yes	53	1	487
6.6.1	win	2022-12-14	09:44:58	09:55:03	603647	5fd53e2d08163d37f7cb72f6	821041970	1	main_slash	11	advance_on_keypress_SLASH	92	stimuli_target_trianglecircles.svg	stimuli_distractor_trianglediamonds.svg	17	yes	57	0	318
6.6.1	win	2022-12-14	09:44:58	09:55:06	606609	5fd53e2d08163d37f7cb72f6	821041970	1	main_slash	11	main_slash	93	stimuli_distractor_diamondtriangles.svg	stimuli_distractor_diamondtriangles.svg	40	no	0	1	2000
6.6.1	win	2022-12-14	09:44:58	09:55:06	606609	5fd53e2d08163d37f7cb72f6	821041970	1	main_slash	11	advance_on_keypress_SLASH	94	stimuli_distractor_diamondtriangles.svg	stimuli_distractor_diamondtriangles.svg	40	no	57	0	294
6.6.1	win	2022-12-14	09:44:58	09:55:08	608159	5fd53e2d08163d37f7cb72f6	821041970	1	main_slash	11	main_slash	95	stimuli_target_circlediamonds.svg	stimuli_distractor_trianglediamonds.svg	2	yes	53	1	603
6.6.1	win	2022-12-14	09:44:58	09:55:08	608159	5fd53e2d08163d37f7cb72f6	821041970	1	main_slash	11	advance_on_keypress_SLASH	96	stimuli_target_circlediamonds.svg	stimuli_distractor_trianglediamonds.svg	2	yes	57	0	1241
6.6.1	win	2022-12-14	09:44:58	09:55:10	610497	5fd53e2d08163d37f7cb72f6	821041970	1	main_slash	11	main_slash	97	stimuli_distractor_diamondtriangles.svg	stimuli_target_circletriangles.svg	13	yes	53	1	461
6.6.1	win	2022-12-14	09:44:58	09:55:10	610497	5fd53e2d08163d37f7cb72f6	821041970	1	main_slash	11	advance_on_keypress_SLASH	98	stimuli_distractor_diamondtriangles.svg	stimuli_target_circletriangles.svg	13	yes	57	0	468
6.6.1	win	2022-12-14	09:44:58	09:55:12	612170	5fd53e2d08163d37f7cb72f6	821041970	1	main_slash	11	main_slash	99	stimuli_distractor_diamondtriangles.svg	stimuli_target_trianglesquares.svg	30	yes	53	1	553
6.6.1	win	2022-12-14	09:44:58	09:55:12	612170	5fd53e2d08163d37f7cb72f6	821041970	1	main_slash	11	advance_on_keypress_SLASH	100	stimuli_distractor_diamondtriangles.svg	stimuli_target_trianglesquares.svg	30	yes	57	0	482
6.6.1	win	2022-12-14	09:44:58	09:55:14	613771	5fd53e2d08163d37f7cb72f6	821041970	1	main_slash	11	main_slash	101	stimuli_target_trianglesquares.svg	stimuli_distractor_trianglediamonds.svg	18	yes	53	1	471
6.6.1	win	2022-12-14	09:44:58	09:55:14	613771	5fd53e2d08163d37f7cb72f6	821041970	1	main_slash	11	advance_on_keypress_SLASH	102	stimuli_target_trianglesquares.svg	stimuli_distractor_trianglediamonds.svg	18	yes	57	0	386
6.6.1	win	2022-12-14	09:44:58	09:55:15	615249	5fd53e2d08163d37f7cb72f6	821041970	1	main_slash	11	main_slash	103	stimuli_target_trianglesquares.svg	stimuli_distractor_diamondtriangles.svg	22	yes	53	1	451
6.6.1	win	2022-12-14	09:44:58	09:55:15	615249	5fd53e2d08163d37f7cb72f6	821041970	1	main_slash	11	advance_on_keypress_SLASH	104	stimuli_target_trianglesquares.svg	stimuli_distractor_diamondtriangles.svg	22	yes	57	0	352
6.6.1	win	2022-12-14	09:44:58	09:55:17	616731	5fd53e2d08163d37f7cb72f6	821041970	1	main_slash	11	main_slash	105	stimuli_distractor_trianglediamonds.svg	stimuli_target_squarediamonds.svg	12	yes	53	1	485
6.6.1	win	2022-12-14	09:44:58	09:55:17	616731	5fd53e2d08163d37f7cb72f6	821041970	1	main_slash	11	advance_on_keypress_SLASH	106	stimuli_distractor_trianglediamonds.svg	stimuli_target_squarediamonds.svg	12	yes	57	0	336
6.6.1	win	2022-12-14	09:44:58	09:55:18	618163	5fd53e2d08163d37f7cb72f6	821041970	1	main_slash	11	main_slash	107	stimuli_target_squarediamonds.svg	stimuli_distractor_diamondtriangles.svg	8	yes	53	1	451
6.6.1	win	2022-12-14	09:44:58	09:55:18	618163	5fd53e2d08163d37f7cb72f6	821041970	1	main_slash	11	advance_on_keypress_SLASH	108	stimuli_target_squarediamonds.svg	stimuli_distractor_diamondtriangles.svg	8	yes	57	0	566
6.6.1	win	2022-12-14	09:44:58	09:55:20	619813	5fd53e2d08163d37f7cb72f6	821041970	1	main_slash	11	main_slash	109	stimuli_target_circletriangles.svg	stimuli_distractor_diamondtriangles.svg	5	yes	53	1	436
6.6.1	win	2022-12-14	09:44:58	09:55:20	619813	5fd53e2d08163d37f7cb72f6	821041970	1	main_slash	11	advance_on_keypress_SLASH	110	stimuli_target_circletriangles.svg	stimuli_distractor_diamondtriangles.svg	5	yes	57	0	345
6.6.1	win	2022-12-14	09:44:58	09:55:21	621344	5fd53e2d08163d37f7cb72f6	821041970	1	main_slash	11	main_slash	111	stimuli_target_diamondcircles.svg	stimuli_distractor_diamondtriangles.svg	23	yes	53	1	552
6.6.1	win	2022-12-14	09:44:58	09:55:21	621344	5fd53e2d08163d37f7cb72f6	821041970	1	main_slash	11	advance_on_keypress_SLASH	112	stimuli_target_diamondcircles.svg	stimuli_distractor_diamondtriangles.svg	23	yes	57	0	425
6.6.1	win	2022-12-14	09:44:58	09:55:23	622949	5fd53e2d08163d37f7cb72f6	821041970	1	main_slash	11	main_slash	113	stimuli_target_diamondsquares.svg	stimuli_distractor_trianglediamonds.svg	20	yes	53	1	542
6.6.1	win	2022-12-14	09:44:58	09:55:23	622949	5fd53e2d08163d37f7cb72f6	821041970	1	main_slash	11	advance_on_keypress_SLASH	114	stimuli_target_diamondsquares.svg	stimuli_distractor_trianglediamonds.svg	20	yes	57	0	322
6.6.1	win	2022-12-14	09:44:58	09:55:24	624301	5fd53e2d08163d37f7cb72f6	821041970	1	main_slash	11	main_slash	115	stimuli_target_diamondcircles.svg	stimuli_distractor_trianglediamonds.svg	19	yes	53	1	396
6.6.1	win	2022-12-14	09:44:58	09:55:24	624301	5fd53e2d08163d37f7cb72f6	821041970	1	main_slash	11	advance_on_keypress_SLASH	116	stimuli_target_diamondcircles.svg	stimuli_distractor_trianglediamonds.svg	19	yes	57	0	317
6.6.1	win	2022-12-14	09:44:58	09:55:26	625786	5fd53e2d08163d37f7cb72f6	821041970	1	main_slash	11	main_slash	117	stimuli_target_circlediamonds.svg	stimuli_distractor_diamondtriangles.svg	6	yes	53	1	509
6.6.1	win	2022-12-14	09:44:58	09:55:26	625786	5fd53e2d08163d37f7cb72f6	821041970	1	main_slash	11	advance_on_keypress_SLASH	118	stimuli_target_circlediamonds.svg	stimuli_distractor_diamondtriangles.svg	6	yes	57	0	327
6.6.1	win	2022-12-14	09:44:58	09:55:27	627191	5fd53e2d08163d37f7cb72f6	821041970	1	main_slash	11	main_slash	119	stimuli_distractor_trianglediamonds.svg	stimuli_target_circlediamonds.svg	10	yes	53	1	439
6.6.1	win	2022-12-14	09:44:58	09:55:27	627191	5fd53e2d08163d37f7cb72f6	821041970	1	main_slash	11	advance_on_keypress_SLASH	120	stimuli_distractor_trianglediamonds.svg	stimuli_target_circlediamonds.svg	10	yes	57	0	325
6.6.1	win	2022-12-14	09:44:58	09:55:28	628578	5fd53e2d08163d37f7cb72f6	821041970	1	main_slash	11	main_slash	121	stimuli_distractor_diamondtriangles.svg	stimuli_target_circlediamonds.svg	14	yes	53	1	427
6.6.1	win	2022-12-14	09:44:58	09:55:28	628578	5fd53e2d08163d37f7cb72f6	821041970	1	main_slash	11	advance_on_keypress_SLASH	122	stimuli_distractor_diamondtriangles.svg	stimuli_target_circlediamonds.svg	14	yes	57	0	289
6.6.1	win	2022-12-14	09:44:58	09:55:30	629929	5fd53e2d08163d37f7cb72f6	821041970	1	main_slash	11	main_slash	123	stimuli_target_squaretriangles.svg	stimuli_distractor_diamondtriangles.svg	7	yes	53	1	413
6.6.1	win	2022-12-14	09:44:58	09:55:30	629929	5fd53e2d08163d37f7cb72f6	821041970	1	main_slash	11	advance_on_keypress_SLASH	124	stimuli_target_squaretriangles.svg	stimuli_distractor_diamondtriangles.svg	7	yes	57	0	295
6.6.1	win	2022-12-14	09:44:58	09:55:33	632881	5fd53e2d08163d37f7cb72f6	821041970	1	main_slash	11	main_slash	125	stimuli_distractor_trianglediamonds.svg	stimuli_distractor_diamondtriangles.svg	36	no	0	1	2000
6.6.1	win	2022-12-14	09:44:58	09:55:33	632881	5fd53e2d08163d37f7cb72f6	821041970	1	main_slash	11	advance_on_keypress_SLASH	126	stimuli_distractor_trianglediamonds.svg	stimuli_distractor_diamondtriangles.svg	36	no	57	0	258
6.6.1	win	2022-12-14	09:44:58	09:55:34	634204	5fd53e2d08163d37f7cb72f6	821041970	1	main_slash	11	main_slash	127	stimuli_distractor_diamondtriangles.svg	stimuli_target_diamondcircles.svg	31	yes	53	1	427
6.6.1	win	2022-12-14	09:44:58	09:55:34	634204	5fd53e2d08163d37f7cb72f6	821041970	1	main_slash	11	advance_on_keypress_SLASH	128	stimuli_distractor_diamondtriangles.svg	stimuli_target_diamondcircles.svg	31	yes	57	0	292
6.6.1	win	2022-12-14	09:44:58	09:55:35	635585	5fd53e2d08163d37f7cb72f6	821041970	1	main_slash	11	main_slash	129	stimuli_distractor_diamondtriangles.svg	stimuli_target_squarediamonds.svg	16	yes	53	1	458
6.6.1	win	2022-12-14	09:44:58	09:55:35	635585	5fd53e2d08163d37f7cb72f6	821041970	1	main_slash	11	advance_on_keypress_SLASH	130	stimuli_distractor_diamondtriangles.svg	stimuli_target_squarediamonds.svg	16	yes	57	0	284
6.6.1	win	2022-12-14	09:44:58	09:55:38	638508	5fd53e2d08163d37f7cb72f6	821041970	1	main_slash	11	main_slash	131	stimuli_distractor_trianglediamonds.svg	stimuli_distractor_trianglediamonds.svg	34	no	0	1	2000
6.6.1	win	2022-12-14	09:44:58	09:55:38	638508	5fd53e2d08163d37f7cb72f6	821041970	1	main_slash	11	advance_on_keypress_SLASH	132	stimuli_distractor_trianglediamonds.svg	stimuli_distractor_trianglediamonds.svg	34	no	57	0	826
6.6.1	win	2022-12-14	09:44:58	09:55:40	640486	5fd53e2d08163d37f7cb72f6	821041970	1	main_slash	11	main_slash	133	stimuli_distractor_trianglediamonds.svg	stimuli_target_trianglecircles.svg	25	yes	53	1	512
6.6.1	win	2022-12-14	09:44:58	09:55:40	640486	5fd53e2d08163d37f7cb72f6	821041970	1	main_slash	11	advance_on_keypress_SLASH	134	stimuli_distractor_trianglediamonds.svg	stimuli_target_trianglecircles.svg	25	yes	57	0	417
6.6.1	win	2022-12-14	09:44:58	09:55:42	642133	5fd53e2d08163d37f7cb72f6	821041970	1	main_slash	11	main_slash	135	stimuli_distractor_diamondtriangles.svg	stimuli_target_diamondsquares.svg	32	yes	53	1	580
6.6.1	win	2022-12-14	09:44:58	09:55:42	642133	5fd53e2d08163d37f7cb72f6	821041970	1	main_slash	11	advance_on_keypress_SLASH	136	stimuli_distractor_diamondtriangles.svg	stimuli_target_diamondsquares.svg	32	yes	57	0	331
6.6.1	win	2022-12-14	09:44:58	09:55:43	643538	5fd53e2d08163d37f7cb72f6	821041970	1	main_slash	11	main_slash	137	stimuli_distractor_trianglediamonds.svg	stimuli_target_diamondcircles.svg	27	yes	53	1	420
6.6.1	win	2022-12-14	09:44:58	09:55:43	643538	5fd53e2d08163d37f7cb72f6	821041970	1	main_slash	11	advance_on_keypress_SLASH	138	stimuli_distractor_trianglediamonds.svg	stimuli_target_diamondcircles.svg	27	yes	57	0	267
6.6.1	win	2022-12-14	09:44:58	09:55:45	644966	5fd53e2d08163d37f7cb72f6	821041970	1	main_slash	11	main_slash	139	stimuli_target_squaretriangles.svg	stimuli_distractor_trianglediamonds.svg	3	yes	53	1	503
6.6.1	win	2022-12-14	09:44:58	09:55:45	644966	5fd53e2d08163d37f7cb72f6	821041970	1	main_slash	11	advance_on_keypress_SLASH	140	stimuli_target_squaretriangles.svg	stimuli_distractor_trianglediamonds.svg	3	yes	57	0	261
6.6.1	win	2022-12-14	09:44:58	09:55:48	647865	5fd53e2d08163d37f7cb72f6	821041970	1	main_slash	11	main_slash	141	stimuli_distractor_diamondtriangles.svg	stimuli_distractor_trianglediamonds.svg	38	no	0	1	2000
6.6.1	win	2022-12-14	09:44:58	09:55:48	647865	5fd53e2d08163d37f7cb72f6	821041970	1	main_slash	11	advance_on_keypress_SLASH	142	stimuli_distractor_diamondtriangles.svg	stimuli_distractor_trianglediamonds.svg	38	no	57	0	301
6.6.1	win	2022-12-14	09:44:58	09:55:49	649291	5fd53e2d08163d37f7cb72f6	821041970	1	main_slash	11	main_slash	143	stimuli_distractor_trianglediamonds.svg	stimuli_target_circletriangles.svg	9	yes	53	1	479
6.6.1	win	2022-12-14	09:44:58	09:55:49	649291	5fd53e2d08163d37f7cb72f6	821041970	1	main_slash	11	advance_on_keypress_SLASH	144	stimuli_distractor_trianglediamonds.svg	stimuli_target_circletriangles.svg	9	yes	57	0	241
6.6.1	win	2022-12-14	09:44:58	09:55:50	650559	5fd53e2d08163d37f7cb72f6	821041970	1	main_slash	11	main_slash	145	stimuli_distractor_trianglediamonds.svg	stimuli_target_squaretriangles.svg	11	yes	53	1	371
6.6.1	win	2022-12-14	09:44:58	09:55:50	650559	5fd53e2d08163d37f7cb72f6	821041970	1	main_slash	11	advance_on_keypress_SLASH	146	stimuli_distractor_trianglediamonds.svg	stimuli_target_squaretriangles.svg	11	yes	57	0	232
6.6.1	win	2022-12-14	09:44:58	09:55:53	653442	5fd53e2d08163d37f7cb72f6	821041970	1	main_slash	11	main_slash	147	stimuli_distractor_trianglediamonds.svg	stimuli_distractor_diamondtriangles.svg	35	no	0	1	2000
6.6.1	win	2022-12-14	09:44:58	09:55:53	653442	5fd53e2d08163d37f7cb72f6	821041970	1	main_slash	11	advance_on_keypress_SLASH	148	stimuli_distractor_trianglediamonds.svg	stimuli_distractor_diamondtriangles.svg	35	no	57	0	447
6.6.1	win	2022-12-14	09:44:58	09:55:55	655189	5fd53e2d08163d37f7cb72f6	821041970	1	main_slash	11	main_slash	149	stimuli_target_diamondsquares.svg	stimuli_distractor_diamondtriangles.svg	24	yes	53	1	649
6.6.1	win	2022-12-14	09:44:58	09:55:55	655189	5fd53e2d08163d37f7cb72f6	821041970	1	main_slash	11	advance_on_keypress_SLASH	150	stimuli_target_diamondsquares.svg	stimuli_distractor_diamondtriangles.svg	24	yes	57	0	668
6.6.1	win	2022-12-14	09:44:58	09:55:57	656898	5fd53e2d08163d37f7cb72f6	821041970	1	main_slash	11	main_slash	151	stimuli_distractor_trianglediamonds.svg	stimuli_target_diamondsquares.svg	28	yes	53	1	395
6.6.1	win	2022-12-14	09:44:58	09:55:57	656898	5fd53e2d08163d37f7cb72f6	821041970	1	main_slash	11	advance_on_keypress_SLASH	152	stimuli_distractor_trianglediamonds.svg	stimuli_target_diamondsquares.svg	28	yes	57	0	664
6.6.1	win	2022-12-14	09:44:58	09:56:00	660219	5fd53e2d08163d37f7cb72f6	821041970	1	main_slash	11	main_slash	153	stimuli_distractor_diamondtriangles.svg	stimuli_distractor_trianglediamonds.svg	37	no	0	1	2000
6.6.1	win	2022-12-14	09:44:58	09:56:00	660219	5fd53e2d08163d37f7cb72f6	821041970	1	main_slash	11	advance_on_keypress_SLASH	154	stimuli_distractor_diamondtriangles.svg	stimuli_distractor_trianglediamonds.svg	37	no	57	0	3
6.6.1	win	2022-12-14	09:44:58	09:56:01	661352	5fd53e2d08163d37f7cb72f6	821041970	1	main_slash	11	main_slash	155	stimuli_distractor_diamondtriangles.svg	stimuli_target_squaretriangles.svg	15	yes	53	1	469
6.6.1	win	2022-12-14	09:44:58	09:56:01	661352	5fd53e2d08163d37f7cb72f6	821041970	1	main_slash	11	advance_on_keypress_SLASH	156	stimuli_distractor_diamondtriangles.svg	stimuli_target_squaretriangles.svg	15	yes	57	0	293
6.6.1	win	2022-12-14	09:44:58	09:56:03	662897	5fd53e2d08163d37f7cb72f6	821041970	1	main_slash	11	main_slash	157	stimuli_distractor_trianglediamonds.svg	stimuli_target_trianglesquares.svg	26	yes	53	1	616
6.6.1	win	2022-12-14	09:44:58	09:56:03	662897	5fd53e2d08163d37f7cb72f6	821041970	1	main_slash	11	advance_on_keypress_SLASH	158	stimuli_distractor_trianglediamonds.svg	stimuli_target_trianglesquares.svg	26	yes	57	0	327
6.6.1	win	2022-12-14	09:44:58	09:56:04	664386	5fd53e2d08163d37f7cb72f6	821041970	1	main_slash	11	main_slash	159	stimuli_target_circletriangles.svg	stimuli_distractor_trianglediamonds.svg	1	yes	53	1	524
6.6.1	win	2022-12-14	09:44:58	09:56:04	664386	5fd53e2d08163d37f7cb72f6	821041970	1	main_slash	11	advance_on_keypress_SLASH	160	stimuli_target_circletriangles.svg	stimuli_distractor_trianglediamonds.svg	1	yes	57	0	266