build	computer.platform	date	time	timestamp	time_elapsed_ms	subject	group	session	blockcode	blocknum	trialcode	trialnum	stimulus_left	stimulus_right	stim_index	target_present	response	correct	latency
6.6.1	win	2022-12-16	10:14:32	10:16:35	120517	63469e0a9552017beb3cfb82	792030415	1	practice_slash	5	practice_slash	1	stimuli_target_circlediamonds.svg	stimuli_distractor_trianglediamonds.svg	4	yes	53	1	426
6.6.1	win	2022-12-16	10:14:32	10:16:35	120517	63469e0a9552017beb3cfb82	792030415	1	practice_slash	5	advance_on_keypress_SLASH	2	stimuli_target_circlediamonds.svg	stimuli_distractor_trianglediamonds.svg	4	yes	57	0	1644
6.6.1	win	2022-12-16	10:14:32	10:16:39	124468	63469e0a9552017beb3cfb82	792030415	1	practice_slash	5	practice_slash	3	stimuli_distractor_diamondtriangles.svg	stimuli_target_circletriangles.svg	7	yes	53	1	659
6.6.1	win	2022-12-16	10:14:32	10:16:39	124468	63469e0a9552017beb3cfb82	792030415	1	practice_slash	5	advance_on_keypress_SLASH	4	stimuli_distractor_diamondtriangles.svg	stimuli_target_circletriangles.svg	7	yes	57	0	1116
6.6.1	win	2022-12-16	10:14:32	10:16:42	127699	63469e0a9552017beb3cfb82	792030415	1	practice_slash	5	practice_slash	5	stimuli_target_squarediamonds.svg	stimuli_distractor_trianglediamonds.svg	5	yes	53	1	456
6.6.1	win	2022-12-16	10:14:32	10:16:42	127699	63469e0a9552017beb3cfb82	792030415	1	practice_slash	5	advance_on_keypress_SLASH	6	stimuli_target_squarediamonds.svg	stimuli_distractor_trianglediamonds.svg	5	yes	57	0	669
6.6.1	win	2022-12-16	10:14:32	10:16:47	132012	63469e0a9552017beb3cfb82	792030415	1	practice_slash	5	practice_slash	7	stimuli_distractor_trianglediamonds.svg	stimuli_target_diamondcircles.svg	12	yes	0	0	2000
6.6.1	win	2022-12-16	10:14:32	10:16:47	132012	63469e0a9552017beb3cfb82	792030415	1	practice_slash	5	advance_on_keypress_SLASH	8	stimuli_distractor_trianglediamonds.svg	stimuli_target_diamondcircles.svg	12	yes	57	0	1116
6.6.1	win	2022-12-16	10:14:32	10:16:51	136780	63469e0a9552017beb3cfb82	792030415	1	practice_slash	5	practice_slash	9	stimuli_distractor_diamondtriangles.svg	stimuli_target_trianglecircles.svg	9	yes	0	0	2000
6.6.1	win	2022-12-16	10:14:32	10:16:51	136780	63469e0a9552017beb3cfb82	792030415	1	practice_slash	5	advance_on_keypress_SLASH	10	stimuli_distractor_diamondtriangles.svg	stimuli_target_trianglecircles.svg	9	yes	57	0	484
6.6.1	win	2022-12-16	10:14:32	10:16:55	140916	63469e0a9552017beb3cfb82	792030415	1	practice_slash	5	practice_slash	11	stimuli_distractor_diamondtriangles.svg	stimuli_target_diamondcircles.svg	8	yes	0	0	2000
6.6.1	win	2022-12-16	10:14:32	10:16:55	140916	63469e0a9552017beb3cfb82	792030415	1	practice_slash	5	advance_on_keypress_SLASH	12	stimuli_distractor_diamondtriangles.svg	stimuli_target_diamondcircles.svg	8	yes	57	0	425
6.6.1	win	2022-12-16	10:14:32	10:16:58	143800	63469e0a9552017beb3cfb82	792030415	1	practice_slash	5	practice_slash	13	stimuli_target_diamondsquares.svg	stimuli_distractor_diamondtriangles.svg	3	yes	53	1	816
6.6.1	win	2022-12-16	10:14:32	10:16:58	143800	63469e0a9552017beb3cfb82	792030415	1	practice_slash	5	advance_on_keypress_SLASH	14	stimuli_target_diamondsquares.svg	stimuli_distractor_diamondtriangles.svg	3	yes	57	0	523
6.6.1	win	2022-12-16	10:14:32	10:17:03	147968	63469e0a9552017beb3cfb82	792030415	1	practice_slash	5	practice_slash	15	stimuli_distractor_diamondtriangles.svg	stimuli_distractor_trianglediamonds.svg	14	no	0	1	2000
6.6.1	win	2022-12-16	10:14:32	10:17:03	147968	63469e0a9552017beb3cfb82	792030415	1	practice_slash	5	advance_on_keypress_SLASH	16	stimuli_distractor_diamondtriangles.svg	stimuli_distractor_trianglediamonds.svg	14	no	57	0	354
6.6.1	win	2022-12-16	10:14:32	10:17:06	151471	63469e0a9552017beb3cfb82	792030415	1	practice_slash	5	practice_slash	17	stimuli_distractor_trianglediamonds.svg	stimuli_target_circlediamonds.svg	10	yes	53	1	1503
6.6.1	win	2022-12-16	10:14:32	10:17:06	151471	63469e0a9552017beb3cfb82	792030415	1	practice_slash	5	advance_on_keypress_SLASH	18	stimuli_distractor_trianglediamonds.svg	stimuli_target_circlediamonds.svg	10	yes	57	0	714
6.6.1	win	2022-12-16	10:14:32	10:17:10	155837	63469e0a9552017beb3cfb82	792030415	1	practice_slash	5	practice_slash	19	stimuli_distractor_diamondtriangles.svg	stimuli_distractor_diamondtriangles.svg	13	no	0	1	2000
6.6.1	win	2022-12-16	10:14:32	10:17:10	155837	63469e0a9552017beb3cfb82	792030415	1	practice_slash	5	advance_on_keypress_SLASH	20	stimuli_distractor_diamondtriangles.svg	stimuli_distractor_diamondtriangles.svg	13	no	57	0	1266
6.6.1	win	2022-12-16	10:14:32	10:17:14	159586	63469e0a9552017beb3cfb82	792030415	1	practice_slash	5	practice_slash	21	stimuli_distractor_trianglediamonds.svg	stimuli_target_squarediamonds.svg	11	yes	53	1	831
6.6.1	win	2022-12-16	10:14:32	10:17:14	159586	63469e0a9552017beb3cfb82	792030415	1	practice_slash	5	advance_on_keypress_SLASH	22	stimuli_distractor_trianglediamonds.svg	stimuli_target_squarediamonds.svg	11	yes	57	0	1241
6.6.1	win	2022-12-16	10:14:32	10:17:18	163155	63469e0a9552017beb3cfb82	792030415	1	practice_slash	5	practice_slash	23	stimuli_target_squarediamonds.svg	stimuli_distractor_diamondtriangles.svg	2	yes	53	1	682
6.6.1	win	2022-12-16	10:14:32	10:17:18	163155	63469e0a9552017beb3cfb82	792030415	1	practice_slash	5	advance_on_keypress_SLASH	24	stimuli_target_squarediamonds.svg	stimuli_distractor_diamondtriangles.svg	2	yes	57	0	473
6.6.1	win	2022-12-16	10:14:32	10:17:21	166165	63469e0a9552017beb3cfb82	792030415	1	practice_slash	5	practice_slash	25	stimuli_target_circlediamonds.svg	stimuli_distractor_diamondtriangles.svg	1	yes	53	1	891
6.6.1	win	2022-12-16	10:14:32	10:17:21	166165	63469e0a9552017beb3cfb82	792030415	1	practice_slash	5	advance_on_keypress_SLASH	26	stimuli_target_circlediamonds.svg	stimuli_distractor_diamondtriangles.svg	1	yes	57	0	454
6.6.1	win	2022-12-16	10:14:32	10:17:24	168967	63469e0a9552017beb3cfb82	792030415	1	practice_slash	5	practice_slash	27	stimuli_target_diamondsquares.svg	stimuli_distractor_trianglediamonds.svg	6	yes	53	1	708
6.6.1	win	2022-12-16	10:14:32	10:17:24	168967	63469e0a9552017beb3cfb82	792030415	1	practice_slash	5	advance_on_keypress_SLASH	28	stimuli_target_diamondsquares.svg	stimuli_distractor_trianglediamonds.svg	6	yes	57	0	302
6.6.1	win	2022-12-16	10:14:32	10:17:27	172909	63469e0a9552017beb3cfb82	792030415	1	practice_slash	5	practice_slash	29	stimuli_distractor_trianglediamonds.svg	stimuli_distractor_trianglediamonds.svg	15	no	0	1	2000
6.6.1	win	2022-12-16	10:14:32	10:17:27	172909	63469e0a9552017beb3cfb82	792030415	1	practice_slash	5	advance_on_keypress_SLASH	30	stimuli_distractor_trianglediamonds.svg	stimuli_distractor_trianglediamonds.svg	15	no	57	0	1078
6.6.1	win	2022-12-16	10:14:32	10:17:32	177628	63469e0a9552017beb3cfb82	792030415	1	practice_slash	5	practice_slash	31	stimuli_distractor_trianglediamonds.svg	stimuli_distractor_diamondtriangles.svg	16	no	0	1	2000
6.6.1	win	2022-12-16	10:14:32	10:17:32	177628	63469e0a9552017beb3cfb82	792030415	1	practice_slash	5	advance_on_keypress_SLASH	32	stimuli_distractor_trianglediamonds.svg	stimuli_distractor_diamondtriangles.svg	16	no	57	0	297
6.6.1	win	2022-12-16	10:14:32	10:17:49	194200	63469e0a9552017beb3cfb82	792030415	1	main_slash	7	main_slash	1	stimuli_distractor_diamondtriangles.svg	stimuli_target_circletriangles.svg	13	yes	53	1	617
6.6.1	win	2022-12-16	10:14:32	10:17:49	194200	63469e0a9552017beb3cfb82	792030415	1	main_slash	7	advance_on_keypress_SLASH	2	stimuli_distractor_diamondtriangles.svg	stimuli_target_circletriangles.svg	13	yes	57	0	2379
6.6.1	win	2022-12-16	10:14:32	10:17:52	197819	63469e0a9552017beb3cfb82	792030415	1	main_slash	7	main_slash	3	stimuli_distractor_trianglediamonds.svg	stimuli_target_squaretriangles.svg	11	yes	53	1	601
6.6.1	win	2022-12-16	10:14:32	10:17:52	197819	63469e0a9552017beb3cfb82	792030415	1	main_slash	7	advance_on_keypress_SLASH	4	stimuli_distractor_trianglediamonds.svg	stimuli_target_squaretriangles.svg	11	yes	57	0	1111
6.6.1	win	2022-12-16	10:14:32	10:17:55	200531	63469e0a9552017beb3cfb82	792030415	1	main_slash	7	main_slash	5	stimuli_target_trianglecircles.svg	stimuli_distractor_trianglediamonds.svg	17	yes	53	1	963
6.6.1	win	2022-12-16	10:14:32	10:17:55	200531	63469e0a9552017beb3cfb82	792030415	1	main_slash	7	advance_on_keypress_SLASH	6	stimuli_target_trianglecircles.svg	stimuli_distractor_trianglediamonds.svg	17	yes	57	0	797
6.6.1	win	2022-12-16	10:14:32	10:17:58	203274	63469e0a9552017beb3cfb82	792030415	1	main_slash	7	main_slash	7	stimuli_distractor_diamondtriangles.svg	stimuli_target_trianglesquares.svg	30	yes	53	1	1304
6.6.1	win	2022-12-16	10:14:32	10:17:58	203274	63469e0a9552017beb3cfb82	792030415	1	main_slash	7	advance_on_keypress_SLASH	8	stimuli_distractor_diamondtriangles.svg	stimuli_target_trianglesquares.svg	30	yes	57	0	651
6.6.1	win	2022-12-16	10:14:32	10:18:01	206570	63469e0a9552017beb3cfb82	792030415	1	main_slash	7	main_slash	9	stimuli_distractor_diamondtriangles.svg	stimuli_target_diamondsquares.svg	32	yes	0	0	2000
6.6.1	win	2022-12-16	10:14:32	10:18:01	206570	63469e0a9552017beb3cfb82	792030415	1	main_slash	7	advance_on_keypress_SLASH	10	stimuli_distractor_diamondtriangles.svg	stimuli_target_diamondsquares.svg	32	yes	57	0	527
6.6.1	win	2022-12-16	10:14:32	10:18:04	209738	63469e0a9552017beb3cfb82	792030415	1	main_slash	7	main_slash	11	stimuli_distractor_diamondtriangles.svg	stimuli_distractor_diamondtriangles.svg	40	no	0	1	2000
6.6.1	win	2022-12-16	10:14:32	10:18:04	209738	63469e0a9552017beb3cfb82	792030415	1	main_slash	7	advance_on_keypress_SLASH	12	stimuli_distractor_diamondtriangles.svg	stimuli_distractor_diamondtriangles.svg	40	no	57	0	392
6.6.1	win	2022-12-16	10:14:32	10:18:06	211785	63469e0a9552017beb3cfb82	792030415	1	main_slash	7	main_slash	13	stimuli_distractor_trianglediamonds.svg	stimuli_target_diamondcircles.svg	27	yes	53	1	1012
6.6.1	win	2022-12-16	10:14:32	10:18:06	211785	63469e0a9552017beb3cfb82	792030415	1	main_slash	7	advance_on_keypress_SLASH	14	stimuli_distractor_trianglediamonds.svg	stimuli_target_diamondcircles.svg	27	yes	57	0	506
6.6.1	win	2022-12-16	10:14:32	10:18:08	213721	63469e0a9552017beb3cfb82	792030415	1	main_slash	7	main_slash	15	stimuli_target_circlediamonds.svg	stimuli_distractor_diamondtriangles.svg	6	yes	53	1	797
6.6.1	win	2022-12-16	10:14:32	10:18:08	213721	63469e0a9552017beb3cfb82	792030415	1	main_slash	7	advance_on_keypress_SLASH	16	stimuli_target_circlediamonds.svg	stimuli_distractor_diamondtriangles.svg	6	yes	57	0	390
6.6.1	win	2022-12-16	10:14:32	10:18:10	215902	63469e0a9552017beb3cfb82	792030415	1	main_slash	7	main_slash	17	stimuli_distractor_diamondtriangles.svg	stimuli_target_diamondcircles.svg	31	yes	53	1	1161
6.6.1	win	2022-12-16	10:14:32	10:18:10	215902	63469e0a9552017beb3cfb82	792030415	1	main_slash	7	advance_on_keypress_SLASH	18	stimuli_distractor_diamondtriangles.svg	stimuli_target_diamondcircles.svg	31	yes	57	0	513
6.6.1	win	2022-12-16	10:14:32	10:18:12	217876	63469e0a9552017beb3cfb82	792030415	1	main_slash	7	main_slash	19	stimuli_target_diamondsquares.svg	stimuli_distractor_trianglediamonds.svg	20	yes	53	1	834
6.6.1	win	2022-12-16	10:14:32	10:18:12	217876	63469e0a9552017beb3cfb82	792030415	1	main_slash	7	advance_on_keypress_SLASH	20	stimuli_target_diamondsquares.svg	stimuli_distractor_trianglediamonds.svg	20	yes	57	0	408
6.6.1	win	2022-12-16	10:14:32	10:18:15	220925	63469e0a9552017beb3cfb82	792030415	1	main_slash	7	main_slash	21	stimuli_distractor_trianglediamonds.svg	stimuli_distractor_diamondtriangles.svg	36	no	0	1	2000
6.6.1	win	2022-12-16	10:14:32	10:18:15	220925	63469e0a9552017beb3cfb82	792030415	1	main_slash	7	advance_on_keypress_SLASH	22	stimuli_distractor_trianglediamonds.svg	stimuli_distractor_diamondtriangles.svg	36	no	57	0	637
6.6.1	win	2022-12-16	10:14:32	10:18:18	222973	63469e0a9552017beb3cfb82	792030415	1	main_slash	7	main_slash	23	stimuli_target_trianglesquares.svg	stimuli_distractor_trianglediamonds.svg	18	yes	53	1	763
6.6.1	win	2022-12-16	10:14:32	10:18:18	222973	63469e0a9552017beb3cfb82	792030415	1	main_slash	7	advance_on_keypress_SLASH	24	stimuli_target_trianglesquares.svg	stimuli_distractor_trianglediamonds.svg	18	yes	57	0	1627
6.6.1	win	2022-12-16	10:14:32	10:18:21	226169	63469e0a9552017beb3cfb82	792030415	1	main_slash	7	main_slash	25	stimuli_distractor_trianglediamonds.svg	stimuli_target_diamondsquares.svg	28	yes	53	1	942
6.6.1	win	2022-12-16	10:14:32	10:18:21	226169	63469e0a9552017beb3cfb82	792030415	1	main_slash	7	advance_on_keypress_SLASH	26	stimuli_distractor_trianglediamonds.svg	stimuli_target_diamondsquares.svg	28	yes	57	0	496
6.6.1	win	2022-12-16	10:14:32	10:18:23	228165	63469e0a9552017beb3cfb82	792030415	1	main_slash	7	main_slash	27	stimuli_target_circletriangles.svg	stimuli_distractor_trianglediamonds.svg	1	yes	53	1	871
6.6.1	win	2022-12-16	10:14:32	10:18:23	228165	63469e0a9552017beb3cfb82	792030415	1	main_slash	7	advance_on_keypress_SLASH	28	stimuli_target_circletriangles.svg	stimuli_distractor_trianglediamonds.svg	1	yes	57	0	449
6.6.1	win	2022-12-16	10:14:32	10:18:25	230356	63469e0a9552017beb3cfb82	792030415	1	main_slash	7	main_slash	29	stimuli_target_diamondcircles.svg	stimuli_distractor_diamondtriangles.svg	23	yes	53	1	1093
6.6.1	win	2022-12-16	10:14:32	10:18:25	230356	63469e0a9552017beb3cfb82	792030415	1	main_slash	7	advance_on_keypress_SLASH	30	stimuli_target_diamondcircles.svg	stimuli_distractor_diamondtriangles.svg	23	yes	57	0	429
6.6.1	win	2022-12-16	10:14:32	10:18:28	233413	63469e0a9552017beb3cfb82	792030415	1	main_slash	7	main_slash	31	stimuli_distractor_trianglediamonds.svg	stimuli_target_circletriangles.svg	9	yes	0	0	2000
6.6.1	win	2022-12-16	10:14:32	10:18:28	233413	63469e0a9552017beb3cfb82	792030415	1	main_slash	7	advance_on_keypress_SLASH	32	stimuli_distractor_trianglediamonds.svg	stimuli_target_circletriangles.svg	9	yes	57	0	17364
6.6.1	win	2022-12-16	10:14:32	10:18:47	251998	63469e0a9552017beb3cfb82	792030415	1	main_slash	7	main_slash	33	stimuli_target_squarediamonds.svg	stimuli_distractor_diamondtriangles.svg	8	yes	53	1	578
6.6.1	win	2022-12-16	10:14:32	10:18:47	251998	63469e0a9552017beb3cfb82	792030415	1	main_slash	7	advance_on_keypress_SLASH	34	stimuli_target_squarediamonds.svg	stimuli_distractor_diamondtriangles.svg	8	yes	57	0	701
6.6.1	win	2022-12-16	10:14:32	10:18:50	255337	63469e0a9552017beb3cfb82	792030415	1	main_slash	7	main_slash	35	stimuli_distractor_trianglediamonds.svg	stimuli_distractor_trianglediamonds.svg	33	no	0	1	2000
6.6.1	win	2022-12-16	10:14:32	10:18:50	255337	63469e0a9552017beb3cfb82	792030415	1	main_slash	7	advance_on_keypress_SLASH	36	stimuli_distractor_trianglediamonds.svg	stimuli_distractor_trianglediamonds.svg	33	no	57	0	280
6.6.1	win	2022-12-16	10:14:32	10:18:51	256842	63469e0a9552017beb3cfb82	792030415	1	main_slash	7	main_slash	37	stimuli_target_circletriangles.svg	stimuli_distractor_diamondtriangles.svg	5	yes	53	1	587
6.6.1	win	2022-12-16	10:14:32	10:18:51	256842	63469e0a9552017beb3cfb82	792030415	1	main_slash	7	advance_on_keypress_SLASH	38	stimuli_target_circletriangles.svg	stimuli_distractor_diamondtriangles.svg	5	yes	57	0	590
6.6.1	win	2022-12-16	10:14:32	10:18:53	258723	63469e0a9552017beb3cfb82	792030415	1	main_slash	7	main_slash	39	stimuli_distractor_trianglediamonds.svg	stimuli_target_squarediamonds.svg	12	yes	53	1	650
6.6.1	win	2022-12-16	10:14:32	10:18:53	258723	63469e0a9552017beb3cfb82	792030415	1	main_slash	7	advance_on_keypress_SLASH	40	stimuli_distractor_trianglediamonds.svg	stimuli_target_squarediamonds.svg	12	yes	57	0	440
6.6.1	win	2022-12-16	10:14:32	10:18:56	261806	63469e0a9552017beb3cfb82	792030415	1	main_slash	7	main_slash	41	stimuli_distractor_diamondtriangles.svg	stimuli_distractor_diamondtriangles.svg	39	no	0	1	2000
6.6.1	win	2022-12-16	10:14:32	10:18:56	261806	63469e0a9552017beb3cfb82	792030415	1	main_slash	7	advance_on_keypress_SLASH	42	stimuli_distractor_diamondtriangles.svg	stimuli_distractor_diamondtriangles.svg	39	no	57	0	488
6.6.1	win	2022-12-16	10:14:32	10:18:59	264940	63469e0a9552017beb3cfb82	792030415	1	main_slash	7	main_slash	43	stimuli_distractor_trianglediamonds.svg	stimuli_distractor_trianglediamonds.svg	34	no	0	1	2000
6.6.1	win	2022-12-16	10:14:32	10:18:59	264940	63469e0a9552017beb3cfb82	792030415	1	main_slash	7	advance_on_keypress_SLASH	44	stimuli_distractor_trianglediamonds.svg	stimuli_distractor_trianglediamonds.svg	34	no	57	0	334
6.6.1	win	2022-12-16	10:14:32	10:19:01	266694	63469e0a9552017beb3cfb82	792030415	1	main_slash	7	main_slash	45	stimuli_distractor_diamondtriangles.svg	stimuli_target_circlediamonds.svg	14	yes	53	1	769
6.6.1	win	2022-12-16	10:14:32	10:19:01	266694	63469e0a9552017beb3cfb82	792030415	1	main_slash	7	advance_on_keypress_SLASH	46	stimuli_distractor_diamondtriangles.svg	stimuli_target_circlediamonds.svg	14	yes	57	0	336
6.6.1	win	2022-12-16	10:14:32	10:19:03	268331	63469e0a9552017beb3cfb82	792030415	1	main_slash	7	main_slash	47	stimuli_distractor_diamondtriangles.svg	stimuli_target_trianglecircles.svg	29	yes	53	1	655
6.6.1	win	2022-12-16	10:14:32	10:19:03	268331	63469e0a9552017beb3cfb82	792030415	1	main_slash	7	advance_on_keypress_SLASH	48	stimuli_distractor_diamondtriangles.svg	stimuli_target_trianglecircles.svg	29	yes	57	0	361
6.6.1	win	2022-12-16	10:14:32	10:19:04	269901	63469e0a9552017beb3cfb82	792030415	1	main_slash	7	main_slash	49	stimuli_target_squaretriangles.svg	stimuli_distractor_trianglediamonds.svg	3	yes	53	1	575
6.6.1	win	2022-12-16	10:14:32	10:19:04	269901	63469e0a9552017beb3cfb82	792030415	1	main_slash	7	advance_on_keypress_SLASH	50	stimuli_target_squaretriangles.svg	stimuli_distractor_trianglediamonds.svg	3	yes	57	0	349
6.6.1	win	2022-12-16	10:14:32	10:19:06	271377	63469e0a9552017beb3cfb82	792030415	1	main_slash	7	main_slash	51	stimuli_target_trianglecircles.svg	stimuli_distractor_diamondtriangles.svg	21	yes	53	1	483
6.6.1	win	2022-12-16	10:14:32	10:19:06	271377	63469e0a9552017beb3cfb82	792030415	1	main_slash	7	advance_on_keypress_SLASH	52	stimuli_target_trianglecircles.svg	stimuli_distractor_diamondtriangles.svg	21	yes	57	0	350
6.6.1	win	2022-12-16	10:14:32	10:19:08	272979	63469e0a9552017beb3cfb82	792030415	1	main_slash	7	main_slash	53	stimuli_target_squarediamonds.svg	stimuli_distractor_trianglediamonds.svg	4	yes	53	1	601
6.6.1	win	2022-12-16	10:14:32	10:19:08	272979	63469e0a9552017beb3cfb82	792030415	1	main_slash	7	advance_on_keypress_SLASH	54	stimuli_target_squarediamonds.svg	stimuli_distractor_trianglediamonds.svg	4	yes	57	0	309
6.6.1	win	2022-12-16	10:14:32	10:19:09	274630	63469e0a9552017beb3cfb82	792030415	1	main_slash	7	main_slash	55	stimuli_target_diamondsquares.svg	stimuli_distractor_diamondtriangles.svg	24	yes	53	1	702
6.6.1	win	2022-12-16	10:14:32	10:19:09	274630	63469e0a9552017beb3cfb82	792030415	1	main_slash	7	advance_on_keypress_SLASH	56	stimuli_target_diamondsquares.svg	stimuli_distractor_diamondtriangles.svg	24	yes	57	0	331
6.6.1	win	2022-12-16	10:14:32	10:19:11	276190	63469e0a9552017beb3cfb82	792030415	1	main_slash	7	main_slash	57	stimuli_target_trianglesquares.svg	stimuli_distractor_diamondtriangles.svg	22	yes	53	1	578
6.6.1	win	2022-12-16	10:14:32	10:19:11	276190	63469e0a9552017beb3cfb82	792030415	1	main_slash	7	advance_on_keypress_SLASH	58	stimuli_target_trianglesquares.svg	stimuli_distractor_diamondtriangles.svg	22	yes	57	0	394
6.6.1	win	2022-12-16	10:14:32	10:19:12	277749	63469e0a9552017beb3cfb82	792030415	1	main_slash	7	main_slash	59	stimuli_target_squaretriangles.svg	stimuli_distractor_diamondtriangles.svg	7	yes	53	1	537
6.6.1	win	2022-12-16	10:14:32	10:19:12	277749	63469e0a9552017beb3cfb82	792030415	1	main_slash	7	advance_on_keypress_SLASH	60	stimuli_target_squaretriangles.svg	stimuli_distractor_diamondtriangles.svg	7	yes	57	0	349
6.6.1	win	2022-12-16	10:14:32	10:19:15	280746	63469e0a9552017beb3cfb82	792030415	1	main_slash	7	main_slash	61	stimuli_distractor_diamondtriangles.svg	stimuli_distractor_trianglediamonds.svg	37	no	0	1	2000
6.6.1	win	2022-12-16	10:14:32	10:19:15	280746	63469e0a9552017beb3cfb82	792030415	1	main_slash	7	advance_on_keypress_SLASH	62	stimuli_distractor_diamondtriangles.svg	stimuli_distractor_trianglediamonds.svg	37	no	57	0	1072
6.6.1	win	2022-12-16	10:14:32	10:19:18	283150	63469e0a9552017beb3cfb82	792030415	1	main_slash	7	main_slash	63	stimuli_target_diamondcircles.svg	stimuli_distractor_trianglediamonds.svg	19	yes	53	1	686
6.6.1	win	2022-12-16	10:14:32	10:19:18	283150	63469e0a9552017beb3cfb82	792030415	1	main_slash	7	advance_on_keypress_SLASH	64	stimuli_target_diamondcircles.svg	stimuli_distractor_trianglediamonds.svg	19	yes	57	0	363
6.6.1	win	2022-12-16	10:14:32	10:19:20	284966	63469e0a9552017beb3cfb82	792030415	1	main_slash	7	main_slash	65	stimuli_target_circlediamonds.svg	stimuli_distractor_trianglediamonds.svg	2	yes	53	1	818
6.6.1	win	2022-12-16	10:14:32	10:19:20	284966	63469e0a9552017beb3cfb82	792030415	1	main_slash	7	advance_on_keypress_SLASH	66	stimuli_target_circlediamonds.svg	stimuli_distractor_trianglediamonds.svg	2	yes	57	0	345
6.6.1	win	2022-12-16	10:14:32	10:19:22	287949	63469e0a9552017beb3cfb82	792030415	1	main_slash	7	main_slash	67	stimuli_distractor_trianglediamonds.svg	stimuli_distractor_diamondtriangles.svg	35	no	0	1	2000
6.6.1	win	2022-12-16	10:14:32	10:19:22	287949	63469e0a9552017beb3cfb82	792030415	1	main_slash	7	advance_on_keypress_SLASH	68	stimuli_distractor_trianglediamonds.svg	stimuli_distractor_diamondtriangles.svg	35	no	57	0	392
6.6.1	win	2022-12-16	10:14:32	10:19:24	289521	63469e0a9552017beb3cfb82	792030415	1	main_slash	7	main_slash	69	stimuli_distractor_diamondtriangles.svg	stimuli_target_squarediamonds.svg	16	yes	53	1	538
6.6.1	win	2022-12-16	10:14:32	10:19:24	289521	63469e0a9552017beb3cfb82	792030415	1	main_slash	7	advance_on_keypress_SLASH	70	stimuli_distractor_diamondtriangles.svg	stimuli_target_squarediamonds.svg	16	yes	57	0	525
6.6.1	win	2022-12-16	10:14:32	10:19:26	291399	63469e0a9552017beb3cfb82	792030415	1	main_slash	7	main_slash	71	stimuli_distractor_trianglediamonds.svg	stimuli_target_trianglecircles.svg	25	yes	53	1	715
6.6.1	win	2022-12-16	10:14:32	10:19:26	291399	63469e0a9552017beb3cfb82	792030415	1	main_slash	7	advance_on_keypress_SLASH	72	stimuli_distractor_trianglediamonds.svg	stimuli_target_trianglecircles.svg	25	yes	57	0	330
6.6.1	win	2022-12-16	10:14:32	10:19:28	293212	63469e0a9552017beb3cfb82	792030415	1	main_slash	7	main_slash	73	stimuli_distractor_trianglediamonds.svg	stimuli_target_circlediamonds.svg	10	yes	53	1	827
6.6.1	win	2022-12-16	10:14:32	10:19:28	293212	63469e0a9552017beb3cfb82	792030415	1	main_slash	7	advance_on_keypress_SLASH	74	stimuli_distractor_trianglediamonds.svg	stimuli_target_circlediamonds.svg	10	yes	57	0	421
6.6.1	win	2022-12-16	10:14:32	10:19:30	295015	63469e0a9552017beb3cfb82	792030415	1	main_slash	7	main_slash	75	stimuli_distractor_diamondtriangles.svg	stimuli_target_squaretriangles.svg	15	yes	53	1	746
6.6.1	win	2022-12-16	10:14:32	10:19:30	295015	63469e0a9552017beb3cfb82	792030415	1	main_slash	7	advance_on_keypress_SLASH	76	stimuli_distractor_diamondtriangles.svg	stimuli_target_squaretriangles.svg	15	yes	57	0	375
6.6.1	win	2022-12-16	10:14:32	10:19:31	296757	63469e0a9552017beb3cfb82	792030415	1	main_slash	7	main_slash	77	stimuli_distractor_trianglediamonds.svg	stimuli_target_trianglesquares.svg	26	yes	53	1	721
6.6.1	win	2022-12-16	10:14:32	10:19:31	296757	63469e0a9552017beb3cfb82	792030415	1	main_slash	7	advance_on_keypress_SLASH	78	stimuli_distractor_trianglediamonds.svg	stimuli_target_trianglesquares.svg	26	yes	57	0	335
6.6.1	win	2022-12-16	10:14:32	10:19:34	299736	63469e0a9552017beb3cfb82	792030415	1	main_slash	7	main_slash	79	stimuli_distractor_diamondtriangles.svg	stimuli_distractor_trianglediamonds.svg	38	no	0	1	2000
6.6.1	win	2022-12-16	10:14:32	10:19:34	299736	63469e0a9552017beb3cfb82	792030415	1	main_slash	7	advance_on_keypress_SLASH	80	stimuli_distractor_diamondtriangles.svg	stimuli_distractor_trianglediamonds.svg	38	no	57	0	675
6.6.1	win	2022-12-16	10:14:32	10:19:36	301657	63469e0a9552017beb3cfb82	792030415	1	main_slash	7	main_slash	81	stimuli_target_trianglecircles.svg	stimuli_distractor_trianglediamonds.svg	17	yes	53	1	604
6.6.1	win	2022-12-16	10:14:32	10:19:36	301657	63469e0a9552017beb3cfb82	792030415	1	main_slash	7	advance_on_keypress_SLASH	82	stimuli_target_trianglecircles.svg	stimuli_distractor_trianglediamonds.svg	17	yes	57	0	365
6.6.1	win	2022-12-16	10:14:32	10:19:38	303187	63469e0a9552017beb3cfb82	792030415	1	main_slash	7	main_slash	83	stimuli_target_diamondsquares.svg	stimuli_distractor_diamondtriangles.svg	24	yes	53	1	510
6.6.1	win	2022-12-16	10:14:32	10:19:38	303187	63469e0a9552017beb3cfb82	792030415	1	main_slash	7	advance_on_keypress_SLASH	84	stimuli_target_diamondsquares.svg	stimuli_distractor_diamondtriangles.svg	24	yes	57	0	323
6.6.1	win	2022-12-16	10:14:32	10:19:39	304684	63469e0a9552017beb3cfb82	792030415	1	main_slash	7	main_slash	85	stimuli_target_squaretriangles.svg	stimuli_distractor_diamondtriangles.svg	7	yes	53	1	530
6.6.1	win	2022-12-16	10:14:32	10:19:39	304684	63469e0a9552017beb3cfb82	792030415	1	main_slash	7	advance_on_keypress_SLASH	86	stimuli_target_squaretriangles.svg	stimuli_distractor_diamondtriangles.svg	7	yes	57	0	314
6.6.1	win	2022-12-16	10:14:32	10:19:41	306309	63469e0a9552017beb3cfb82	792030415	1	main_slash	7	main_slash	87	stimuli_distractor_trianglediamonds.svg	stimuli_target_trianglesquares.svg	26	yes	53	1	686
6.6.1	win	2022-12-16	10:14:32	10:19:41	306309	63469e0a9552017beb3cfb82	792030415	1	main_slash	7	advance_on_keypress_SLASH	88	stimuli_distractor_trianglediamonds.svg	stimuli_target_trianglesquares.svg	26	yes	57	0	345
6.6.1	win	2022-12-16	10:14:32	10:19:42	307814	63469e0a9552017beb3cfb82	792030415	1	main_slash	7	main_slash	89	stimuli_distractor_trianglediamonds.svg	stimuli_target_squarediamonds.svg	12	yes	53	1	518
6.6.1	win	2022-12-16	10:14:32	10:19:42	307814	63469e0a9552017beb3cfb82	792030415	1	main_slash	7	advance_on_keypress_SLASH	90	stimuli_distractor_trianglediamonds.svg	stimuli_target_squarediamonds.svg	12	yes	57	0	302
6.6.1	win	2022-12-16	10:14:32	10:19:44	309332	63469e0a9552017beb3cfb82	792030415	1	main_slash	7	main_slash	91	stimuli_distractor_trianglediamonds.svg	stimuli_target_diamondcircles.svg	27	yes	53	1	575
6.6.1	win	2022-12-16	10:14:32	10:19:44	309332	63469e0a9552017beb3cfb82	792030415	1	main_slash	7	advance_on_keypress_SLASH	92	stimuli_distractor_trianglediamonds.svg	stimuli_target_diamondcircles.svg	27	yes	57	0	348
6.6.1	win	2022-12-16	10:14:32	10:19:46	310966	63469e0a9552017beb3cfb82	792030415	1	main_slash	7	main_slash	93	stimuli_target_circletriangles.svg	stimuli_distractor_trianglediamonds.svg	1	yes	53	1	642
6.6.1	win	2022-12-16	10:14:32	10:19:46	310966	63469e0a9552017beb3cfb82	792030415	1	main_slash	7	advance_on_keypress_SLASH	94	stimuli_target_circletriangles.svg	stimuli_distractor_trianglediamonds.svg	1	yes	57	0	294
6.6.1	win	2022-12-16	10:14:32	10:19:47	312428	63469e0a9552017beb3cfb82	792030415	1	main_slash	7	main_slash	95	stimuli_distractor_diamondtriangles.svg	stimuli_target_squaretriangles.svg	15	yes	53	1	537
6.6.1	win	2022-12-16	10:14:32	10:19:47	312428	63469e0a9552017beb3cfb82	792030415	1	main_slash	7	advance_on_keypress_SLASH	96	stimuli_distractor_diamondtriangles.svg	stimuli_target_squaretriangles.svg	15	yes	57	0	313
6.6.1	win	2022-12-16	10:14:32	10:19:48	313891	63469e0a9552017beb3cfb82	792030415	1	main_slash	7	main_slash	97	stimuli_target_squaretriangles.svg	stimuli_distractor_trianglediamonds.svg	3	yes	53	1	515
6.6.1	win	2022-12-16	10:14:32	10:19:48	313891	63469e0a9552017beb3cfb82	792030415	1	main_slash	7	advance_on_keypress_SLASH	98	stimuli_target_squaretriangles.svg	stimuli_distractor_trianglediamonds.svg	3	yes	57	0	280
6.6.1	win	2022-12-16	10:14:32	10:19:50	315364	63469e0a9552017beb3cfb82	792030415	1	main_slash	7	main_slash	99	stimuli_distractor_diamondtriangles.svg	stimuli_target_diamondsquares.svg	32	yes	53	1	555
6.6.1	win	2022-12-16	10:14:32	10:19:50	315364	63469e0a9552017beb3cfb82	792030415	1	main_slash	7	advance_on_keypress_SLASH	100	stimuli_distractor_diamondtriangles.svg	stimuli_target_diamondsquares.svg	32	yes	57	0	312
6.6.1	win	2022-12-16	10:14:32	10:19:51	316792	63469e0a9552017beb3cfb82	792030415	1	main_slash	7	main_slash	101	stimuli_distractor_trianglediamonds.svg	stimuli_target_trianglecircles.svg	25	yes	53	1	482
6.6.1	win	2022-12-16	10:14:32	10:19:51	316792	63469e0a9552017beb3cfb82	792030415	1	main_slash	7	advance_on_keypress_SLASH	102	stimuli_distractor_trianglediamonds.svg	stimuli_target_trianglecircles.svg	25	yes	57	0	305
6.6.1	win	2022-12-16	10:14:32	10:19:54	319743	63469e0a9552017beb3cfb82	792030415	1	main_slash	7	main_slash	103	stimuli_distractor_trianglediamonds.svg	stimuli_distractor_trianglediamonds.svg	34	no	0	1	2000
6.6.1	win	2022-12-16	10:14:32	10:19:54	319743	63469e0a9552017beb3cfb82	792030415	1	main_slash	7	advance_on_keypress_SLASH	104	stimuli_distractor_trianglediamonds.svg	stimuli_distractor_trianglediamonds.svg	34	no	57	0	338
6.6.1	win	2022-12-16	10:14:32	10:19:56	321253	63469e0a9552017beb3cfb82	792030415	1	main_slash	7	main_slash	105	stimuli_target_circletriangles.svg	stimuli_distractor_diamondtriangles.svg	5	yes	53	1	526
6.6.1	win	2022-12-16	10:14:32	10:19:56	321253	63469e0a9552017beb3cfb82	792030415	1	main_slash	7	advance_on_keypress_SLASH	106	stimuli_target_circletriangles.svg	stimuli_distractor_diamondtriangles.svg	5	yes	57	0	328
6.6.1	win	2022-12-16	10:14:32	10:19:57	322611	63469e0a9552017beb3cfb82	792030415	1	main_slash	7	main_slash	107	stimuli_target_diamondcircles.svg	stimuli_distractor_trianglediamonds.svg	19	yes	53	1	399
6.6.1	win	2022-12-16	10:14:32	10:19:57	322611	63469e0a9552017beb3cfb82	792030415	1	main_slash	7	advance_on_keypress_SLASH	108	stimuli_target_diamondcircles.svg	stimuli_distractor_trianglediamonds.svg	19	yes	57	0	317
6.6.1	win	2022-12-16	10:14:32	10:19:59	324582	63469e0a9552017beb3cfb82	792030415	1	main_slash	7	main_slash	109	stimuli_distractor_trianglediamonds.svg	stimuli_target_circlediamonds.svg	10	yes	53	1	1003
6.6.1	win	2022-12-16	10:14:32	10:19:59	324582	63469e0a9552017beb3cfb82	792030415	1	main_slash	7	advance_on_keypress_SLASH	110	stimuli_distractor_trianglediamonds.svg	stimuli_target_circlediamonds.svg	10	yes	57	0	307
6.6.1	win	2022-12-16	10:14:32	10:20:01	326096	63469e0a9552017beb3cfb82	792030415	1	main_slash	7	main_slash	111	stimuli_target_diamondsquares.svg	stimuli_distractor_trianglediamonds.svg	20	yes	53	1	566
6.6.1	win	2022-12-16	10:14:32	10:20:01	326096	63469e0a9552017beb3cfb82	792030415	1	main_slash	7	advance_on_keypress_SLASH	112	stimuli_target_diamondsquares.svg	stimuli_distractor_trianglediamonds.svg	20	yes	57	0	295
6.6.1	win	2022-12-16	10:14:32	10:20:03	328307	63469e0a9552017beb3cfb82	792030415	1	main_slash	7	main_slash	113	stimuli_target_circlediamonds.svg	stimuli_distractor_diamondtriangles.svg	6	yes	53	1	1277
6.6.1	win	2022-12-16	10:14:32	10:20:03	328307	63469e0a9552017beb3cfb82	792030415	1	main_slash	7	advance_on_keypress_SLASH	114	stimuli_target_circlediamonds.svg	stimuli_distractor_diamondtriangles.svg	6	yes	57	0	359
6.6.1	win	2022-12-16	10:14:32	10:20:06	331297	63469e0a9552017beb3cfb82	792030415	1	main_slash	7	main_slash	115	stimuli_target_trianglesquares.svg	stimuli_distractor_diamondtriangles.svg	22	yes	0	0	2000
6.6.1	win	2022-12-16	10:14:32	10:20:06	331297	63469e0a9552017beb3cfb82	792030415	1	main_slash	7	advance_on_keypress_SLASH	116	stimuli_target_trianglesquares.svg	stimuli_distractor_diamondtriangles.svg	22	yes	57	0	933
6.6.1	win	2022-12-16	10:14:32	10:20:08	333700	63469e0a9552017beb3cfb82	792030415	1	main_slash	7	main_slash	117	stimuli_distractor_trianglediamonds.svg	stimuli_target_diamondsquares.svg	28	yes	53	1	817
6.6.1	win	2022-12-16	10:14:32	10:20:08	333700	63469e0a9552017beb3cfb82	792030415	1	main_slash	7	advance_on_keypress_SLASH	118	stimuli_distractor_trianglediamonds.svg	stimuli_target_diamondsquares.svg	28	yes	57	0	338
6.6.1	win	2022-12-16	10:14:32	10:20:11	336682	63469e0a9552017beb3cfb82	792030415	1	main_slash	7	main_slash	119	stimuli_distractor_diamondtriangles.svg	stimuli_distractor_diamondtriangles.svg	39	no	0	1	2000
6.6.1	win	2022-12-16	10:14:32	10:20:11	336682	63469e0a9552017beb3cfb82	792030415	1	main_slash	7	advance_on_keypress_SLASH	120	stimuli_distractor_diamondtriangles.svg	stimuli_distractor_diamondtriangles.svg	39	no	57	0	843
6.6.1	win	2022-12-16	10:14:32	10:20:15	340167	63469e0a9552017beb3cfb82	792030415	1	main_slash	7	main_slash	121	stimuli_distractor_diamondtriangles.svg	stimuli_distractor_diamondtriangles.svg	40	no	0	1	2000
6.6.1	win	2022-12-16	10:14:32	10:20:15	340167	63469e0a9552017beb3cfb82	792030415	1	main_slash	7	advance_on_keypress_SLASH	122	stimuli_distractor_diamondtriangles.svg	stimuli_distractor_diamondtriangles.svg	40	no	57	0	364
6.6.1	win	2022-12-16	10:14:32	10:20:18	343185	63469e0a9552017beb3cfb82	792030415	1	main_slash	7	main_slash	123	stimuli_distractor_trianglediamonds.svg	stimuli_distractor_diamondtriangles.svg	36	no	0	1	2000
6.6.1	win	2022-12-16	10:14:32	10:20:18	343185	63469e0a9552017beb3cfb82	792030415	1	main_slash	7	advance_on_keypress_SLASH	124	stimuli_distractor_trianglediamonds.svg	stimuli_distractor_diamondtriangles.svg	36	no	57	0	724
6.6.1	win	2022-12-16	10:14:32	10:20:20	345069	63469e0a9552017beb3cfb82	792030415	1	main_slash	7	main_slash	125	stimuli_distractor_diamondtriangles.svg	stimuli_target_squarediamonds.svg	16	yes	53	1	509
6.6.1	win	2022-12-16	10:14:32	10:20:20	345069	63469e0a9552017beb3cfb82	792030415	1	main_slash	7	advance_on_keypress_SLASH	126	stimuli_distractor_diamondtriangles.svg	stimuli_target_squarediamonds.svg	16	yes	57	0	696
6.6.1	win	2022-12-16	10:14:32	10:20:23	348403	63469e0a9552017beb3cfb82	792030415	1	main_slash	7	main_slash	127	stimuli_target_squarediamonds.svg	stimuli_distractor_trianglediamonds.svg	4	yes	0	0	2000
6.6.1	win	2022-12-16	10:14:32	10:20:23	348403	63469e0a9552017beb3cfb82	792030415	1	main_slash	7	advance_on_keypress_SLASH	128	stimuli_target_squarediamonds.svg	stimuli_distractor_trianglediamonds.svg	4	yes	57	0	846
6.6.1	win	2022-12-16	10:14:32	10:20:25	350420	63469e0a9552017beb3cfb82	792030415	1	main_slash	7	main_slash	129	stimuli_distractor_diamondtriangles.svg	stimuli_target_circletriangles.svg	13	yes	53	1	533
6.6.1	win	2022-12-16	10:14:32	10:20:25	350420	63469e0a9552017beb3cfb82	792030415	1	main_slash	7	advance_on_keypress_SLASH	130	stimuli_distractor_diamondtriangles.svg	stimuli_target_circletriangles.svg	13	yes	57	0	538
6.6.1	win	2022-12-16	10:14:32	10:20:27	352199	63469e0a9552017beb3cfb82	792030415	1	main_slash	7	main_slash	131	stimuli_distractor_diamondtriangles.svg	stimuli_target_trianglecircles.svg	29	yes	53	1	594
6.6.1	win	2022-12-16	10:14:32	10:20:27	352199	63469e0a9552017beb3cfb82	792030415	1	main_slash	7	advance_on_keypress_SLASH	132	stimuli_distractor_diamondtriangles.svg	stimuli_target_trianglecircles.svg	29	yes	57	0	324
6.6.1	win	2022-12-16	10:14:32	10:20:28	353637	63469e0a9552017beb3cfb82	792030415	1	main_slash	7	main_slash	133	stimuli_target_trianglecircles.svg	stimuli_distractor_diamondtriangles.svg	21	yes	53	1	481
6.6.1	win	2022-12-16	10:14:32	10:20:28	353637	63469e0a9552017beb3cfb82	792030415	1	main_slash	7	advance_on_keypress_SLASH	134	stimuli_target_trianglecircles.svg	stimuli_distractor_diamondtriangles.svg	21	yes	57	0	352
6.6.1	win	2022-12-16	10:14:32	10:20:31	356623	63469e0a9552017beb3cfb82	792030415	1	main_slash	7	main_slash	135	stimuli_distractor_trianglediamonds.svg	stimuli_distractor_trianglediamonds.svg	33	no	0	1	2000
6.6.1	win	2022-12-16	10:14:32	10:20:31	356623	63469e0a9552017beb3cfb82	792030415	1	main_slash	7	advance_on_keypress_SLASH	136	stimuli_distractor_trianglediamonds.svg	stimuli_distractor_trianglediamonds.svg	33	no	57	0	804
6.6.1	win	2022-12-16	10:14:32	10:20:33	358624	63469e0a9552017beb3cfb82	792030415	1	main_slash	7	main_slash	137	stimuli_distractor_trianglediamonds.svg	stimuli_target_circletriangles.svg	9	yes	53	1	550
6.6.1	win	2022-12-16	10:14:32	10:20:33	358624	63469e0a9552017beb3cfb82	792030415	1	main_slash	7	advance_on_keypress_SLASH	138	stimuli_distractor_trianglediamonds.svg	stimuli_target_circletriangles.svg	9	yes	57	0	335
6.6.1	win	2022-12-16	10:14:32	10:20:35	360320	63469e0a9552017beb3cfb82	792030415	1	main_slash	7	main_slash	139	stimuli_distractor_trianglediamonds.svg	stimuli_target_squaretriangles.svg	11	yes	53	1	712
6.6.1	win	2022-12-16	10:14:32	10:20:35	360320	63469e0a9552017beb3cfb82	792030415	1	main_slash	7	advance_on_keypress_SLASH	140	stimuli_distractor_trianglediamonds.svg	stimuli_target_squaretriangles.svg	11	yes	57	0	275
6.6.1	win	2022-12-16	10:14:32	10:20:38	363225	63469e0a9552017beb3cfb82	792030415	1	main_slash	7	main_slash	141	stimuli_distractor_diamondtriangles.svg	stimuli_distractor_trianglediamonds.svg	37	no	0	1	2000
6.6.1	win	2022-12-16	10:14:32	10:20:38	363225	63469e0a9552017beb3cfb82	792030415	1	main_slash	7	advance_on_keypress_SLASH	142	stimuli_distractor_diamondtriangles.svg	stimuli_distractor_trianglediamonds.svg	37	no	57	0	353
6.6.1	win	2022-12-16	10:14:32	10:20:39	364839	63469e0a9552017beb3cfb82	792030415	1	main_slash	7	main_slash	143	stimuli_distractor_diamondtriangles.svg	stimuli_target_trianglesquares.svg	30	yes	53	1	613
6.6.1	win	2022-12-16	10:14:32	10:20:39	364839	63469e0a9552017beb3cfb82	792030415	1	main_slash	7	advance_on_keypress_SLASH	144	stimuli_distractor_diamondtriangles.svg	stimuli_target_trianglesquares.svg	30	yes	57	0	379
6.6.1	win	2022-12-16	10:14:32	10:20:41	366714	63469e0a9552017beb3cfb82	792030415	1	main_slash	7	main_slash	145	stimuli_distractor_diamondtriangles.svg	stimuli_target_circlediamonds.svg	14	yes	53	1	870
6.6.1	win	2022-12-16	10:14:32	10:20:41	366714	63469e0a9552017beb3cfb82	792030415	1	main_slash	7	advance_on_keypress_SLASH	146	stimuli_distractor_diamondtriangles.svg	stimuli_target_circlediamonds.svg	14	yes	57	0	309
6.6.1	win	2022-12-16	10:14:32	10:20:43	368521	63469e0a9552017beb3cfb82	792030415	1	main_slash	7	main_slash	147	stimuli_target_trianglesquares.svg	stimuli_distractor_trianglediamonds.svg	18	yes	53	1	860
6.6.1	win	2022-12-16	10:14:32	10:20:43	368521	63469e0a9552017beb3cfb82	792030415	1	main_slash	7	advance_on_keypress_SLASH	148	stimuli_target_trianglesquares.svg	stimuli_distractor_trianglediamonds.svg	18	yes	57	0	278
6.6.1	win	2022-12-16	10:14:32	10:20:46	371428	63469e0a9552017beb3cfb82	792030415	1	main_slash	7	main_slash	149	stimuli_distractor_trianglediamonds.svg	stimuli_distractor_diamondtriangles.svg	35	no	0	1	2000
6.6.1	win	2022-12-16	10:14:32	10:20:46	371428	63469e0a9552017beb3cfb82	792030415	1	main_slash	7	advance_on_keypress_SLASH	150	stimuli_distractor_trianglediamonds.svg	stimuli_distractor_diamondtriangles.svg	35	no	57	0	621
6.6.1	win	2022-12-16	10:14:32	10:20:48	373564	63469e0a9552017beb3cfb82	792030415	1	main_slash	7	main_slash	151	stimuli_distractor_diamondtriangles.svg	stimuli_distractor_trianglediamonds.svg	38	no	53	0	867
6.6.1	win	2022-12-16	10:14:32	10:20:48	373564	63469e0a9552017beb3cfb82	792030415	1	main_slash	7	advance_on_keypress_SLASH	152	stimuli_distractor_diamondtriangles.svg	stimuli_distractor_trianglediamonds.svg	38	no	57	0	411
6.6.1	win	2022-12-16	10:14:32	10:20:50	375129	63469e0a9552017beb3cfb82	792030415	1	main_slash	7	main_slash	153	stimuli_target_diamondcircles.svg	stimuli_distractor_diamondtriangles.svg	23	yes	53	1	514
6.6.1	win	2022-12-16	10:14:32	10:20:50	375129	63469e0a9552017beb3cfb82	792030415	1	main_slash	7	advance_on_keypress_SLASH	154	stimuli_target_diamondcircles.svg	stimuli_distractor_diamondtriangles.svg	23	yes	57	0	307
6.6.1	win	2022-12-16	10:14:32	10:20:51	376643	63469e0a9552017beb3cfb82	792030415	1	main_slash	7	main_slash	155	stimuli_target_circlediamonds.svg	stimuli_distractor_trianglediamonds.svg	2	yes	53	1	563
6.6.1	win	2022-12-16	10:14:32	10:20:51	376643	63469e0a9552017beb3cfb82	792030415	1	main_slash	7	advance_on_keypress_SLASH	156	stimuli_target_circlediamonds.svg	stimuli_distractor_trianglediamonds.svg	2	yes	57	0	319
6.6.1	win	2022-12-16	10:14:32	10:20:53	378114	63469e0a9552017beb3cfb82	792030415	1	main_slash	7	main_slash	157	stimuli_target_squarediamonds.svg	stimuli_distractor_diamondtriangles.svg	8	yes	53	1	505
6.6.1	win	2022-12-16	10:14:32	10:20:53	378114	63469e0a9552017beb3cfb82	792030415	1	main_slash	7	advance_on_keypress_SLASH	158	stimuli_target_squarediamonds.svg	stimuli_distractor_diamondtriangles.svg	8	yes	57	0	290
6.6.1	win	2022-12-16	10:14:32	10:20:54	379921	63469e0a9552017beb3cfb82	792030415	1	main_slash	7	main_slash	159	stimuli_distractor_diamondtriangles.svg	stimuli_target_diamondcircles.svg	31	yes	53	1	873
6.6.1	win	2022-12-16	10:14:32	10:20:54	379921	63469e0a9552017beb3cfb82	792030415	1	main_slash	7	advance_on_keypress_SLASH	160	stimuli_distractor_diamondtriangles.svg	stimuli_target_diamondcircles.svg	31	yes	57	0	212
6.6.1	win	2022-12-16	10:14:32	10:21:39	424759	63469e0a9552017beb3cfb82	792030415	1	practice_z	9	practice_z	1	stimuli_distractor_diamondtriangles.svg	stimuli_target_trianglecircles.svg	9	yes	44	1	345
6.6.1	win	2022-12-16	10:14:32	10:21:39	424759	63469e0a9552017beb3cfb82	792030415	1	practice_z	9	advance_on_keypress_ZEE	2	stimuli_distractor_diamondtriangles.svg	stimuli_target_trianglecircles.svg	9	yes	57	0	1146
6.6.1	win	2022-12-16	10:14:32	10:21:43	428001	63469e0a9552017beb3cfb82	792030415	1	practice_z	9	practice_z	3	stimuli_target_diamondsquares.svg	stimuli_distractor_trianglediamonds.svg	6	yes	44	1	434
6.6.1	win	2022-12-16	10:14:32	10:21:43	428001	63469e0a9552017beb3cfb82	792030415	1	practice_z	9	advance_on_keypress_ZEE	4	stimuli_target_diamondsquares.svg	stimuli_distractor_trianglediamonds.svg	6	yes	57	0	263
6.6.1	win	2022-12-16	10:14:32	10:21:45	430543	63469e0a9552017beb3cfb82	792030415	1	practice_z	9	practice_z	5	stimuli_target_squarediamonds.svg	stimuli_distractor_diamondtriangles.svg	2	yes	44	1	627
6.6.1	win	2022-12-16	10:14:32	10:21:45	430543	63469e0a9552017beb3cfb82	792030415	1	practice_z	9	advance_on_keypress_ZEE	6	stimuli_target_squarediamonds.svg	stimuli_distractor_diamondtriangles.svg	2	yes	57	0	307
6.6.1	win	2022-12-16	10:14:32	10:21:49	434484	63469e0a9552017beb3cfb82	792030415	1	practice_z	9	practice_z	7	stimuli_distractor_trianglediamonds.svg	stimuli_distractor_diamondtriangles.svg	16	no	0	1	2000
6.6.1	win	2022-12-16	10:14:32	10:21:49	434484	63469e0a9552017beb3cfb82	792030415	1	practice_z	9	advance_on_keypress_ZEE	8	stimuli_distractor_trianglediamonds.svg	stimuli_distractor_diamondtriangles.svg	16	no	57	0	412
6.6.1	win	2022-12-16	10:14:32	10:21:52	437050	63469e0a9552017beb3cfb82	792030415	1	practice_z	9	practice_z	9	stimuli_distractor_trianglediamonds.svg	stimuli_target_diamondcircles.svg	12	yes	44	1	498
6.6.1	win	2022-12-16	10:14:32	10:21:52	437050	63469e0a9552017beb3cfb82	792030415	1	practice_z	9	advance_on_keypress_ZEE	10	stimuli_distractor_trianglediamonds.svg	stimuli_target_diamondcircles.svg	12	yes	57	0	11336
6.6.1	win	2022-12-16	10:14:32	10:22:05	450556	63469e0a9552017beb3cfb82	792030415	1	practice_z	9	practice_z	11	stimuli_target_squarediamonds.svg	stimuli_distractor_trianglediamonds.svg	5	yes	44	1	513
6.6.1	win	2022-12-16	10:14:32	10:22:05	450556	63469e0a9552017beb3cfb82	792030415	1	practice_z	9	advance_on_keypress_ZEE	12	stimuli_target_squarediamonds.svg	stimuli_distractor_trianglediamonds.svg	5	yes	57	0	372
6.6.1	win	2022-12-16	10:14:32	10:22:09	454574	63469e0a9552017beb3cfb82	792030415	1	practice_z	9	practice_z	13	stimuli_distractor_diamondtriangles.svg	stimuli_distractor_diamondtriangles.svg	13	no	0	1	2000
6.6.1	win	2022-12-16	10:14:32	10:22:09	454574	63469e0a9552017beb3cfb82	792030415	1	practice_z	9	advance_on_keypress_ZEE	14	stimuli_distractor_diamondtriangles.svg	stimuli_distractor_diamondtriangles.svg	13	no	57	0	335
6.6.1	win	2022-12-16	10:14:32	10:22:12	457317	63469e0a9552017beb3cfb82	792030415	1	practice_z	9	practice_z	15	stimuli_distractor_diamondtriangles.svg	stimuli_target_circletriangles.svg	7	yes	44	1	758
6.6.1	win	2022-12-16	10:14:32	10:22:12	457317	63469e0a9552017beb3cfb82	792030415	1	practice_z	9	advance_on_keypress_ZEE	16	stimuli_distractor_diamondtriangles.svg	stimuli_target_circletriangles.svg	7	yes	57	0	425
6.6.1	win	2022-12-16	10:14:32	10:22:15	460015	63469e0a9552017beb3cfb82	792030415	1	practice_z	9	practice_z	17	stimuli_distractor_diamondtriangles.svg	stimuli_target_diamondcircles.svg	8	yes	44	1	638
6.6.1	win	2022-12-16	10:14:32	10:22:15	460015	63469e0a9552017beb3cfb82	792030415	1	practice_z	9	advance_on_keypress_ZEE	18	stimuli_distractor_diamondtriangles.svg	stimuli_target_diamondcircles.svg	8	yes	57	0	486
6.6.1	win	2022-12-16	10:14:32	10:22:17	462827	63469e0a9552017beb3cfb82	792030415	1	practice_z	9	practice_z	19	stimuli_target_diamondsquares.svg	stimuli_distractor_diamondtriangles.svg	3	yes	44	1	682
6.6.1	win	2022-12-16	10:14:32	10:22:17	462827	63469e0a9552017beb3cfb82	792030415	1	practice_z	9	advance_on_keypress_ZEE	20	stimuli_target_diamondsquares.svg	stimuli_distractor_diamondtriangles.svg	3	yes	57	0	592
6.6.1	win	2022-12-16	10:14:32	10:22:20	465579	63469e0a9552017beb3cfb82	792030415	1	practice_z	9	practice_z	21	stimuli_target_circlediamonds.svg	stimuli_distractor_trianglediamonds.svg	4	yes	44	1	517
6.6.1	win	2022-12-16	10:14:32	10:22:20	465579	63469e0a9552017beb3cfb82	792030415	1	practice_z	9	advance_on_keypress_ZEE	22	stimuli_target_circlediamonds.svg	stimuli_distractor_trianglediamonds.svg	4	yes	57	0	421
6.6.1	win	2022-12-16	10:14:32	10:22:24	469646	63469e0a9552017beb3cfb82	792030415	1	practice_z	9	practice_z	23	stimuli_distractor_trianglediamonds.svg	stimuli_distractor_trianglediamonds.svg	15	no	0	1	2000
6.6.1	win	2022-12-16	10:14:32	10:22:24	469646	63469e0a9552017beb3cfb82	792030415	1	practice_z	9	advance_on_keypress_ZEE	24	stimuli_distractor_trianglediamonds.svg	stimuli_distractor_trianglediamonds.svg	15	no	57	0	413
6.6.1	win	2022-12-16	10:14:32	10:22:27	472311	63469e0a9552017beb3cfb82	792030415	1	practice_z	9	practice_z	25	stimuli_distractor_trianglediamonds.svg	stimuli_target_circlediamonds.svg	10	yes	44	1	596
6.6.1	win	2022-12-16	10:14:32	10:22:27	472311	63469e0a9552017beb3cfb82	792030415	1	practice_z	9	advance_on_keypress_ZEE	26	stimuli_distractor_trianglediamonds.svg	stimuli_target_circlediamonds.svg	10	yes	57	0	416
6.6.1	win	2022-12-16	10:14:32	10:22:30	474984	63469e0a9552017beb3cfb82	792030415	1	practice_z	9	practice_z	27	stimuli_distractor_trianglediamonds.svg	stimuli_target_squarediamonds.svg	11	yes	44	1	619
6.6.1	win	2022-12-16	10:14:32	10:22:30	474984	63469e0a9552017beb3cfb82	792030415	1	practice_z	9	advance_on_keypress_ZEE	28	stimuli_distractor_trianglediamonds.svg	stimuli_target_squarediamonds.svg	11	yes	57	0	416
6.6.1	win	2022-12-16	10:14:32	10:22:32	477530	63469e0a9552017beb3cfb82	792030415	1	practice_z	9	practice_z	29	stimuli_target_circlediamonds.svg	stimuli_distractor_diamondtriangles.svg	1	yes	44	1	481
6.6.1	win	2022-12-16	10:14:32	10:22:32	477530	63469e0a9552017beb3cfb82	792030415	1	practice_z	9	advance_on_keypress_ZEE	30	stimuli_target_circlediamonds.svg	stimuli_distractor_diamondtriangles.svg	1	yes	57	0	424
6.6.1	win	2022-12-16	10:14:32	10:22:36	481601	63469e0a9552017beb3cfb82	792030415	1	practice_z	9	practice_z	31	stimuli_distractor_diamondtriangles.svg	stimuli_distractor_trianglediamonds.svg	14	no	0	1	2000
6.6.1	win	2022-12-16	10:14:32	10:22:36	481601	63469e0a9552017beb3cfb82	792030415	1	practice_z	9	advance_on_keypress_ZEE	32	stimuli_distractor_diamondtriangles.svg	stimuli_distractor_trianglediamonds.svg	14	no	57	0	287
6.6.1	win	2022-12-16	10:14:32	10:22:41	486640	63469e0a9552017beb3cfb82	792030415	1	main_z	11	main_z	1	stimuli_distractor_trianglediamonds.svg	stimuli_distractor_trianglediamonds.svg	34	no	44	0	688
6.6.1	win	2022-12-16	10:14:32	10:22:41	486640	63469e0a9552017beb3cfb82	792030415	1	main_z	11	advance_on_keypress_ZEE	2	stimuli_distractor_trianglediamonds.svg	stimuli_distractor_trianglediamonds.svg	34	no	57	0	644
6.6.1	win	2022-12-16	10:14:32	10:22:43	488473	63469e0a9552017beb3cfb82	792030415	1	main_z	11	main_z	3	stimuli_target_squaretriangles.svg	stimuli_distractor_diamondtriangles.svg	7	yes	44	1	553
6.6.1	win	2022-12-16	10:14:32	10:22:43	488473	63469e0a9552017beb3cfb82	792030415	1	main_z	11	advance_on_keypress_ZEE	4	stimuli_target_squaretriangles.svg	stimuli_distractor_diamondtriangles.svg	7	yes	57	0	333
6.6.1	win	2022-12-16	10:14:32	10:22:44	489845	63469e0a9552017beb3cfb82	792030415	1	main_z	11	main_z	5	stimuli_target_diamondcircles.svg	stimuli_distractor_trianglediamonds.svg	19	yes	44	1	391
6.6.1	win	2022-12-16	10:14:32	10:22:44	489845	63469e0a9552017beb3cfb82	792030415	1	main_z	11	advance_on_keypress_ZEE	6	stimuli_target_diamondcircles.svg	stimuli_distractor_trianglediamonds.svg	19	yes	57	0	348
6.6.1	win	2022-12-16	10:14:32	10:22:46	491237	63469e0a9552017beb3cfb82	792030415	1	main_z	11	main_z	7	stimuli_distractor_trianglediamonds.svg	stimuli_target_diamondcircles.svg	27	yes	44	1	400
6.6.1	win	2022-12-16	10:14:32	10:22:46	491237	63469e0a9552017beb3cfb82	792030415	1	main_z	11	advance_on_keypress_ZEE	8	stimuli_distractor_trianglediamonds.svg	stimuli_target_diamondcircles.svg	27	yes	57	0	255
6.6.1	win	2022-12-16	10:14:32	10:22:49	494137	63469e0a9552017beb3cfb82	792030415	1	main_z	11	main_z	9	stimuli_distractor_trianglediamonds.svg	stimuli_distractor_trianglediamonds.svg	33	no	0	1	2000
6.6.1	win	2022-12-16	10:14:32	10:22:49	494137	63469e0a9552017beb3cfb82	792030415	1	main_z	11	advance_on_keypress_ZEE	10	stimuli_distractor_trianglediamonds.svg	stimuli_distractor_trianglediamonds.svg	33	no	57	0	11127
6.6.1	win	2022-12-16	10:14:32	10:23:01	506438	63469e0a9552017beb3cfb82	792030415	1	main_z	11	main_z	11	stimuli_distractor_diamondtriangles.svg	stimuli_target_trianglesquares.svg	30	yes	44	1	529
6.6.1	win	2022-12-16	10:14:32	10:23:01	506438	63469e0a9552017beb3cfb82	792030415	1	main_z	11	advance_on_keypress_ZEE	12	stimuli_distractor_diamondtriangles.svg	stimuli_target_trianglesquares.svg	30	yes	57	0	493
6.6.1	win	2022-12-16	10:14:32	10:23:03	508085	63469e0a9552017beb3cfb82	792030415	1	main_z	11	main_z	13	stimuli_distractor_diamondtriangles.svg	stimuli_target_diamondcircles.svg	31	yes	44	1	518
6.6.1	win	2022-12-16	10:14:32	10:23:03	508085	63469e0a9552017beb3cfb82	792030415	1	main_z	11	advance_on_keypress_ZEE	14	stimuli_distractor_diamondtriangles.svg	stimuli_target_diamondcircles.svg	31	yes	57	0	307
6.6.1	win	2022-12-16	10:14:32	10:23:04	509779	63469e0a9552017beb3cfb82	792030415	1	main_z	11	main_z	15	stimuli_distractor_diamondtriangles.svg	stimuli_target_squarediamonds.svg	16	yes	44	1	752
6.6.1	win	2022-12-16	10:14:32	10:23:04	509779	63469e0a9552017beb3cfb82	792030415	1	main_z	11	advance_on_keypress_ZEE	16	stimuli_distractor_diamondtriangles.svg	stimuli_target_squarediamonds.svg	16	yes	57	0	330
6.6.1	win	2022-12-16	10:14:32	10:23:07	512744	63469e0a9552017beb3cfb82	792030415	1	main_z	11	main_z	17	stimuli_target_circlediamonds.svg	stimuli_distractor_trianglediamonds.svg	2	yes	0	0	2000
6.6.1	win	2022-12-16	10:14:32	10:23:07	512744	63469e0a9552017beb3cfb82	792030415	1	main_z	11	advance_on_keypress_ZEE	18	stimuli_target_circlediamonds.svg	stimuli_distractor_trianglediamonds.svg	2	yes	57	0	237
6.6.1	win	2022-12-16	10:14:32	10:23:09	514101	63469e0a9552017beb3cfb82	792030415	1	main_z	11	main_z	19	stimuli_target_trianglesquares.svg	stimuli_distractor_diamondtriangles.svg	22	yes	44	1	472
6.6.1	win	2022-12-16	10:14:32	10:23:09	514101	63469e0a9552017beb3cfb82	792030415	1	main_z	11	advance_on_keypress_ZEE	20	stimuli_target_trianglesquares.svg	stimuli_distractor_diamondtriangles.svg	22	yes	57	0	428
6.6.1	win	2022-12-16	10:14:32	10:23:10	515881	63469e0a9552017beb3cfb82	792030415	1	main_z	11	main_z	21	stimuli_distractor_diamondtriangles.svg	stimuli_target_squaretriangles.svg	15	yes	44	1	719
6.6.1	win	2022-12-16	10:14:32	10:23:10	515881	63469e0a9552017beb3cfb82	792030415	1	main_z	11	advance_on_keypress_ZEE	22	stimuli_distractor_diamondtriangles.svg	stimuli_target_squaretriangles.svg	15	yes	57	0	343
6.6.1	win	2022-12-16	10:14:32	10:23:12	517436	63469e0a9552017beb3cfb82	792030415	1	main_z	11	main_z	23	stimuli_distractor_diamondtriangles.svg	stimuli_target_circlediamonds.svg	14	yes	44	1	573
6.6.1	win	2022-12-16	10:14:32	10:23:12	517436	63469e0a9552017beb3cfb82	792030415	1	main_z	11	advance_on_keypress_ZEE	24	stimuli_distractor_diamondtriangles.svg	stimuli_target_circlediamonds.svg	14	yes	57	0	239
6.6.1	win	2022-12-16	10:14:32	10:23:13	518886	63469e0a9552017beb3cfb82	792030415	1	main_z	11	main_z	25	stimuli_target_squarediamonds.svg	stimuli_distractor_diamondtriangles.svg	8	yes	44	1	572
6.6.1	win	2022-12-16	10:14:32	10:23:13	518886	63469e0a9552017beb3cfb82	792030415	1	main_z	11	advance_on_keypress_ZEE	26	stimuli_target_squarediamonds.svg	stimuli_distractor_diamondtriangles.svg	8	yes	57	0	232
6.6.1	win	2022-12-16	10:14:32	10:23:15	520365	63469e0a9552017beb3cfb82	792030415	1	main_z	11	main_z	27	stimuli_distractor_trianglediamonds.svg	stimuli_target_circletriangles.svg	9	yes	44	1	601
6.6.1	win	2022-12-16	10:14:32	10:23:15	520365	63469e0a9552017beb3cfb82	792030415	1	main_z	11	advance_on_keypress_ZEE	28	stimuli_distractor_trianglediamonds.svg	stimuli_target_circletriangles.svg	9	yes	57	0	934
6.6.1	win	2022-12-16	10:14:32	10:23:19	523948	63469e0a9552017beb3cfb82	792030415	1	main_z	11	main_z	29	stimuli_distractor_diamondtriangles.svg	stimuli_distractor_trianglediamonds.svg	37	no	0	1	2000
6.6.1	win	2022-12-16	10:14:32	10:23:19	523948	63469e0a9552017beb3cfb82	792030415	1	main_z	11	advance_on_keypress_ZEE	30	stimuli_distractor_diamondtriangles.svg	stimuli_distractor_trianglediamonds.svg	37	no	57	0	0
6.6.1	win	2022-12-16	10:14:32	10:23:20	525203	63469e0a9552017beb3cfb82	792030415	1	main_z	11	main_z	31	stimuli_target_trianglesquares.svg	stimuli_distractor_trianglediamonds.svg	18	yes	44	1	571
6.6.1	win	2022-12-16	10:14:32	10:23:20	525203	63469e0a9552017beb3cfb82	792030415	1	main_z	11	advance_on_keypress_ZEE	32	stimuli_target_trianglesquares.svg	stimuli_distractor_trianglediamonds.svg	18	yes	57	0	406
6.6.1	win	2022-12-16	10:14:32	10:23:21	526919	63469e0a9552017beb3cfb82	792030415	1	main_z	11	main_z	33	stimuli_target_circlediamonds.svg	stimuli_distractor_diamondtriangles.svg	6	yes	44	1	669
6.6.1	win	2022-12-16	10:14:32	10:23:21	526919	63469e0a9552017beb3cfb82	792030415	1	main_z	11	advance_on_keypress_ZEE	34	stimuli_target_circlediamonds.svg	stimuli_distractor_diamondtriangles.svg	6	yes	57	0	331
6.6.1	win	2022-12-16	10:14:32	10:23:23	528462	63469e0a9552017beb3cfb82	792030415	1	main_z	11	main_z	35	stimuli_target_diamondcircles.svg	stimuli_distractor_diamondtriangles.svg	23	yes	44	1	562
6.6.1	win	2022-12-16	10:14:32	10:23:23	528462	63469e0a9552017beb3cfb82	792030415	1	main_z	11	advance_on_keypress_ZEE	36	stimuli_target_diamondcircles.svg	stimuli_distractor_diamondtriangles.svg	23	yes	57	0	314
6.6.1	win	2022-12-16	10:14:32	10:23:25	529961	63469e0a9552017beb3cfb82	792030415	1	main_z	11	main_z	37	stimuli_target_squaretriangles.svg	stimuli_distractor_trianglediamonds.svg	3	yes	44	1	560
6.6.1	win	2022-12-16	10:14:32	10:23:25	529961	63469e0a9552017beb3cfb82	792030415	1	main_z	11	advance_on_keypress_ZEE	38	stimuli_target_squaretriangles.svg	stimuli_distractor_trianglediamonds.svg	3	yes	57	0	226
6.6.1	win	2022-12-16	10:14:32	10:23:26	531387	63469e0a9552017beb3cfb82	792030415	1	main_z	11	main_z	39	stimuli_distractor_trianglediamonds.svg	stimuli_target_squaretriangles.svg	11	yes	44	1	569
6.6.1	win	2022-12-16	10:14:32	10:23:26	531387	63469e0a9552017beb3cfb82	792030415	1	main_z	11	advance_on_keypress_ZEE	40	stimuli_distractor_trianglediamonds.svg	stimuli_target_squaretriangles.svg	11	yes	57	0	251
6.6.1	win	2022-12-16	10:14:32	10:23:28	532976	63469e0a9552017beb3cfb82	792030415	1	main_z	11	main_z	41	stimuli_target_diamondsquares.svg	stimuli_distractor_diamondtriangles.svg	24	yes	44	1	691
6.6.1	win	2022-12-16	10:14:32	10:23:28	532976	63469e0a9552017beb3cfb82	792030415	1	main_z	11	advance_on_keypress_ZEE	42	stimuli_target_diamondsquares.svg	stimuli_distractor_diamondtriangles.svg	24	yes	57	0	244
6.6.1	win	2022-12-16	10:14:32	10:23:29	534368	63469e0a9552017beb3cfb82	792030415	1	main_z	11	main_z	43	stimuli_target_circletriangles.svg	stimuli_distractor_trianglediamonds.svg	1	yes	44	1	510
6.6.1	win	2022-12-16	10:14:32	10:23:29	534368	63469e0a9552017beb3cfb82	792030415	1	main_z	11	advance_on_keypress_ZEE	44	stimuli_target_circletriangles.svg	stimuli_distractor_trianglediamonds.svg	1	yes	57	0	208
6.6.1	win	2022-12-16	10:14:32	10:23:30	535783	63469e0a9552017beb3cfb82	792030415	1	main_z	11	main_z	45	stimuli_distractor_trianglediamonds.svg	stimuli_target_trianglesquares.svg	26	yes	44	1	564
6.6.1	win	2022-12-16	10:14:32	10:23:30	535783	63469e0a9552017beb3cfb82	792030415	1	main_z	11	advance_on_keypress_ZEE	46	stimuli_distractor_trianglediamonds.svg	stimuli_target_trianglesquares.svg	26	yes	57	0	290
6.6.1	win	2022-12-16	10:14:32	10:23:32	537407	63469e0a9552017beb3cfb82	792030415	1	main_z	11	main_z	47	stimuli_distractor_trianglediamonds.svg	stimuli_target_squarediamonds.svg	12	yes	44	1	704
6.6.1	win	2022-12-16	10:14:32	10:23:32	537407	63469e0a9552017beb3cfb82	792030415	1	main_z	11	advance_on_keypress_ZEE	48	stimuli_distractor_trianglediamonds.svg	stimuli_target_squarediamonds.svg	12	yes	57	0	230
6.6.1	win	2022-12-16	10:14:32	10:23:33	538800	63469e0a9552017beb3cfb82	792030415	1	main_z	11	main_z	49	stimuli_target_trianglecircles.svg	stimuli_distractor_trianglediamonds.svg	17	yes	44	1	529
6.6.1	win	2022-12-16	10:14:32	10:23:33	538800	63469e0a9552017beb3cfb82	792030415	1	main_z	11	advance_on_keypress_ZEE	50	stimuli_target_trianglecircles.svg	stimuli_distractor_trianglediamonds.svg	17	yes	57	0	188
6.6.1	win	2022-12-16	10:14:32	10:23:35	540100	63469e0a9552017beb3cfb82	792030415	1	main_z	11	main_z	51	stimuli_target_circletriangles.svg	stimuli_distractor_diamondtriangles.svg	5	yes	44	1	463
6.6.1	win	2022-12-16	10:14:32	10:23:35	540100	63469e0a9552017beb3cfb82	792030415	1	main_z	11	advance_on_keypress_ZEE	52	stimuli_target_circletriangles.svg	stimuli_distractor_diamondtriangles.svg	5	yes	57	0	279
6.6.1	win	2022-12-16	10:14:32	10:23:36	541489	63469e0a9552017beb3cfb82	792030415	1	main_z	11	main_z	53	stimuli_target_trianglecircles.svg	stimuli_distractor_diamondtriangles.svg	21	yes	44	1	484
6.6.1	win	2022-12-16	10:14:32	10:23:36	541489	63469e0a9552017beb3cfb82	792030415	1	main_z	11	advance_on_keypress_ZEE	54	stimuli_target_trianglecircles.svg	stimuli_distractor_diamondtriangles.svg	21	yes	57	0	254
6.6.1	win	2022-12-16	10:14:32	10:23:38	543038	63469e0a9552017beb3cfb82	792030415	1	main_z	11	main_z	55	stimuli_distractor_trianglediamonds.svg	stimuli_target_diamondsquares.svg	28	yes	44	1	649
6.6.1	win	2022-12-16	10:14:32	10:23:38	543038	63469e0a9552017beb3cfb82	792030415	1	main_z	11	advance_on_keypress_ZEE	56	stimuli_distractor_trianglediamonds.svg	stimuli_target_diamondsquares.svg	28	yes	57	0	224
6.6.1	win	2022-12-16	10:14:32	10:23:40	545905	63469e0a9552017beb3cfb82	792030415	1	main_z	11	main_z	57	stimuli_distractor_diamondtriangles.svg	stimuli_distractor_diamondtriangles.svg	39	no	0	1	2000
6.6.1	win	2022-12-16	10:14:32	10:23:40	545905	63469e0a9552017beb3cfb82	792030415	1	main_z	11	advance_on_keypress_ZEE	58	stimuli_distractor_diamondtriangles.svg	stimuli_distractor_diamondtriangles.svg	39	no	57	0	588
6.6.1	win	2022-12-16	10:14:32	10:23:42	547539	63469e0a9552017beb3cfb82	792030415	1	main_z	11	main_z	59	stimuli_distractor_diamondtriangles.svg	stimuli_target_diamondsquares.svg	32	yes	44	1	399
6.6.1	win	2022-12-16	10:14:32	10:23:42	547539	63469e0a9552017beb3cfb82	792030415	1	main_z	11	advance_on_keypress_ZEE	60	stimuli_distractor_diamondtriangles.svg	stimuli_target_diamondsquares.svg	32	yes	57	0	323
6.6.1	win	2022-12-16	10:14:32	10:23:44	548983	63469e0a9552017beb3cfb82	792030415	1	main_z	11	main_z	61	stimuli_distractor_trianglediamonds.svg	stimuli_target_trianglecircles.svg	25	yes	44	1	477
6.6.1	win	2022-12-16	10:14:32	10:23:44	548983	63469e0a9552017beb3cfb82	792030415	1	main_z	11	advance_on_keypress_ZEE	62	stimuli_distractor_trianglediamonds.svg	stimuli_target_trianglecircles.svg	25	yes	57	0	200
6.6.1	win	2022-12-16	10:14:32	10:23:46	551824	63469e0a9552017beb3cfb82	792030415	1	main_z	11	main_z	63	stimuli_distractor_trianglediamonds.svg	stimuli_distractor_diamondtriangles.svg	36	no	0	1	2000
6.6.1	win	2022-12-16	10:14:32	10:23:46	551824	63469e0a9552017beb3cfb82	792030415	1	main_z	11	advance_on_keypress_ZEE	64	stimuli_distractor_trianglediamonds.svg	stimuli_distractor_diamondtriangles.svg	36	no	57	0	595
6.6.1	win	2022-12-16	10:14:32	10:23:48	553486	63469e0a9552017beb3cfb82	792030415	1	main_z	11	main_z	65	stimuli_distractor_diamondtriangles.svg	stimuli_target_circletriangles.svg	13	yes	44	1	427
6.6.1	win	2022-12-16	10:14:32	10:23:48	553486	63469e0a9552017beb3cfb82	792030415	1	main_z	11	advance_on_keypress_ZEE	66	stimuli_distractor_diamondtriangles.svg	stimuli_target_circletriangles.svg	13	yes	57	0	390
6.6.1	win	2022-12-16	10:14:32	10:23:49	554931	63469e0a9552017beb3cfb82	792030415	1	main_z	11	main_z	67	stimuli_distractor_trianglediamonds.svg	stimuli_distractor_diamondtriangles.svg	35	no	44	0	417
6.6.1	win	2022-12-16	10:14:32	10:23:49	554931	63469e0a9552017beb3cfb82	792030415	1	main_z	11	advance_on_keypress_ZEE	68	stimuli_distractor_trianglediamonds.svg	stimuli_distractor_diamondtriangles.svg	35	no	57	0	404
6.6.1	win	2022-12-16	10:14:32	10:23:53	557976	63469e0a9552017beb3cfb82	792030415	1	main_z	11	main_z	69	stimuli_distractor_diamondtriangles.svg	stimuli_distractor_diamondtriangles.svg	40	no	0	1	2000
6.6.1	win	2022-12-16	10:14:32	10:23:53	557976	63469e0a9552017beb3cfb82	792030415	1	main_z	11	advance_on_keypress_ZEE	70	stimuli_distractor_diamondtriangles.svg	stimuli_distractor_diamondtriangles.svg	40	no	57	0	447
6.6.1	win	2022-12-16	10:14:32	10:23:54	559630	63469e0a9552017beb3cfb82	792030415	1	main_z	11	main_z	71	stimuli_target_squarediamonds.svg	stimuli_distractor_trianglediamonds.svg	4	yes	44	1	569
6.6.1	win	2022-12-16	10:14:32	10:23:54	559630	63469e0a9552017beb3cfb82	792030415	1	main_z	11	advance_on_keypress_ZEE	72	stimuli_target_squarediamonds.svg	stimuli_distractor_trianglediamonds.svg	4	yes	57	0	269
6.6.1	win	2022-12-16	10:14:32	10:23:57	562544	63469e0a9552017beb3cfb82	792030415	1	main_z	11	main_z	73	stimuli_distractor_diamondtriangles.svg	stimuli_distractor_trianglediamonds.svg	38	no	0	1	2000
6.6.1	win	2022-12-16	10:14:32	10:23:57	562544	63469e0a9552017beb3cfb82	792030415	1	main_z	11	advance_on_keypress_ZEE	74	stimuli_distractor_diamondtriangles.svg	stimuli_distractor_trianglediamonds.svg	38	no	57	0	254
6.6.1	win	2022-12-16	10:14:32	10:23:59	563962	63469e0a9552017beb3cfb82	792030415	1	main_z	11	main_z	75	stimuli_distractor_trianglediamonds.svg	stimuli_target_circlediamonds.svg	10	yes	44	1	507
6.6.1	win	2022-12-16	10:14:32	10:23:59	563962	63469e0a9552017beb3cfb82	792030415	1	main_z	11	advance_on_keypress_ZEE	76	stimuli_distractor_trianglediamonds.svg	stimuli_target_circlediamonds.svg	10	yes	57	0	467
6.6.1	win	2022-12-16	10:14:32	10:24:00	565621	63469e0a9552017beb3cfb82	792030415	1	main_z	11	main_z	77	stimuli_distractor_diamondtriangles.svg	stimuli_target_trianglecircles.svg	29	yes	44	1	541
6.6.1	win	2022-12-16	10:14:32	10:24:00	565621	63469e0a9552017beb3cfb82	792030415	1	main_z	11	advance_on_keypress_ZEE	78	stimuli_distractor_diamondtriangles.svg	stimuli_target_trianglecircles.svg	29	yes	57	0	211
6.6.1	win	2022-12-16	10:14:32	10:24:02	567167	63469e0a9552017beb3cfb82	792030415	1	main_z	11	main_z	79	stimuli_target_diamondsquares.svg	stimuli_distractor_trianglediamonds.svg	20	yes	44	1	703
6.6.1	win	2022-12-16	10:14:32	10:24:02	567167	63469e0a9552017beb3cfb82	792030415	1	main_z	11	advance_on_keypress_ZEE	80	stimuli_target_diamondsquares.svg	stimuli_distractor_trianglediamonds.svg	20	yes	57	0	320
6.6.1	win	2022-12-16	10:14:32	10:24:03	568664	63469e0a9552017beb3cfb82	792030415	1	main_z	11	main_z	81	stimuli_target_trianglecircles.svg	stimuli_distractor_diamondtriangles.svg	21	yes	44	1	533
6.6.1	win	2022-12-16	10:14:32	10:24:03	568664	63469e0a9552017beb3cfb82	792030415	1	main_z	11	advance_on_keypress_ZEE	82	stimuli_target_trianglecircles.svg	stimuli_distractor_diamondtriangles.svg	21	yes	57	0	157
6.6.1	win	2022-12-16	10:14:32	10:24:05	570023	63469e0a9552017beb3cfb82	792030415	1	main_z	11	main_z	83	stimuli_distractor_trianglediamonds.svg	stimuli_target_squaretriangles.svg	11	yes	44	1	558
6.6.1	win	2022-12-16	10:14:32	10:24:05	570023	63469e0a9552017beb3cfb82	792030415	1	main_z	11	advance_on_keypress_ZEE	84	stimuli_distractor_trianglediamonds.svg	stimuli_target_squaretriangles.svg	11	yes	57	0	172
6.6.1	win	2022-12-16	10:14:32	10:24:07	572831	63469e0a9552017beb3cfb82	792030415	1	main_z	11	main_z	85	stimuli_distractor_trianglediamonds.svg	stimuli_distractor_trianglediamonds.svg	34	no	0	1	2000
6.6.1	win	2022-12-16	10:14:32	10:24:07	572831	63469e0a9552017beb3cfb82	792030415	1	main_z	11	advance_on_keypress_ZEE	86	stimuli_distractor_trianglediamonds.svg	stimuli_distractor_trianglediamonds.svg	34	no	57	0	310
6.6.1	win	2022-12-16	10:14:32	10:24:09	574383	63469e0a9552017beb3cfb82	792030415	1	main_z	11	main_z	87	stimuli_distractor_trianglediamonds.svg	stimuli_target_diamondsquares.svg	28	yes	44	1	600
6.6.1	win	2022-12-16	10:14:32	10:24:09	574383	63469e0a9552017beb3cfb82	792030415	1	main_z	11	advance_on_keypress_ZEE	88	stimuli_distractor_trianglediamonds.svg	stimuli_target_diamondsquares.svg	28	yes	57	0	172
6.6.1	win	2022-12-16	10:14:32	10:24:10	575738	63469e0a9552017beb3cfb82	792030415	1	main_z	11	main_z	89	stimuli_distractor_diamondtriangles.svg	stimuli_target_squaretriangles.svg	15	yes	44	1	538
6.6.1	win	2022-12-16	10:14:32	10:24:10	575738	63469e0a9552017beb3cfb82	792030415	1	main_z	11	advance_on_keypress_ZEE	90	stimuli_distractor_diamondtriangles.svg	stimuli_target_squaretriangles.svg	15	yes	57	0	159
6.6.1	win	2022-12-16	10:14:32	10:24:11	576938	63469e0a9552017beb3cfb82	792030415	1	main_z	11	main_z	91	stimuli_distractor_trianglediamonds.svg	stimuli_target_squarediamonds.svg	12	yes	44	1	404
6.6.1	win	2022-12-16	10:14:32	10:24:11	576938	63469e0a9552017beb3cfb82	792030415	1	main_z	11	advance_on_keypress_ZEE	92	stimuli_distractor_trianglediamonds.svg	stimuli_target_squarediamonds.svg	12	yes	57	0	196
6.6.1	win	2022-12-16	10:14:32	10:24:13	578452	63469e0a9552017beb3cfb82	792030415	1	main_z	11	main_z	93	stimuli_target_diamondsquares.svg	stimuli_distractor_trianglediamonds.svg	20	yes	44	1	684
6.6.1	win	2022-12-16	10:14:32	10:24:13	578452	63469e0a9552017beb3cfb82	792030415	1	main_z	11	advance_on_keypress_ZEE	94	stimuli_target_diamondsquares.svg	stimuli_distractor_trianglediamonds.svg	20	yes	57	0	186
6.6.1	win	2022-12-16	10:14:32	10:24:16	581284	63469e0a9552017beb3cfb82	792030415	1	main_z	11	main_z	95	stimuli_distractor_diamondtriangles.svg	stimuli_distractor_diamondtriangles.svg	40	no	0	1	2000
6.6.1	win	2022-12-16	10:14:32	10:24:16	581284	63469e0a9552017beb3cfb82	792030415	1	main_z	11	advance_on_keypress_ZEE	96	stimuli_distractor_diamondtriangles.svg	stimuli_distractor_diamondtriangles.svg	40	no	57	0	410
6.6.1	win	2022-12-16	10:14:32	10:24:17	582818	63469e0a9552017beb3cfb82	792030415	1	main_z	11	main_z	97	stimuli_target_circletriangles.svg	stimuli_distractor_trianglediamonds.svg	1	yes	44	1	482
6.6.1	win	2022-12-16	10:14:32	10:24:17	582818	63469e0a9552017beb3cfb82	792030415	1	main_z	11	advance_on_keypress_ZEE	98	stimuli_target_circletriangles.svg	stimuli_distractor_trianglediamonds.svg	1	yes	57	0	228
6.6.1	win	2022-12-16	10:14:32	10:24:19	584269	63469e0a9552017beb3cfb82	792030415	1	main_z	11	main_z	99	stimuli_distractor_trianglediamonds.svg	stimuli_target_diamondcircles.svg	27	yes	44	1	583
6.6.1	win	2022-12-16	10:14:32	10:24:19	584269	63469e0a9552017beb3cfb82	792030415	1	main_z	11	advance_on_keypress_ZEE	100	stimuli_distractor_trianglediamonds.svg	stimuli_target_diamondcircles.svg	27	yes	57	0	174
6.6.1	win	2022-12-16	10:14:32	10:24:22	587086	63469e0a9552017beb3cfb82	792030415	1	main_z	11	main_z	101	stimuli_distractor_diamondtriangles.svg	stimuli_distractor_trianglediamonds.svg	37	no	0	1	2000
6.6.1	win	2022-12-16	10:14:32	10:24:22	587086	63469e0a9552017beb3cfb82	792030415	1	main_z	11	advance_on_keypress_ZEE	102	stimuli_distractor_diamondtriangles.svg	stimuli_distractor_trianglediamonds.svg	37	no	57	0	328
6.6.1	win	2022-12-16	10:14:32	10:24:25	590054	63469e0a9552017beb3cfb82	792030415	1	main_z	11	main_z	103	stimuli_distractor_diamondtriangles.svg	stimuli_distractor_trianglediamonds.svg	38	no	0	1	2000
6.6.1	win	2022-12-16	10:14:32	10:24:25	590054	63469e0a9552017beb3cfb82	792030415	1	main_z	11	advance_on_keypress_ZEE	104	stimuli_distractor_diamondtriangles.svg	stimuli_distractor_trianglediamonds.svg	38	no	57	0	258
6.6.1	win	2022-12-16	10:14:32	10:24:26	591483	63469e0a9552017beb3cfb82	792030415	1	main_z	11	main_z	105	stimuli_distractor_diamondtriangles.svg	stimuli_target_diamondcircles.svg	31	yes	44	1	527
6.6.1	win	2022-12-16	10:14:32	10:24:26	591483	63469e0a9552017beb3cfb82	792030415	1	main_z	11	advance_on_keypress_ZEE	106	stimuli_distractor_diamondtriangles.svg	stimuli_target_diamondcircles.svg	31	yes	57	0	219
6.6.1	win	2022-12-16	10:14:32	10:24:27	592910	63469e0a9552017beb3cfb82	792030415	1	main_z	11	main_z	107	stimuli_distractor_diamondtriangles.svg	stimuli_target_trianglecircles.svg	29	yes	44	1	554
6.6.1	win	2022-12-16	10:14:32	10:24:27	592910	63469e0a9552017beb3cfb82	792030415	1	main_z	11	advance_on_keypress_ZEE	108	stimuli_distractor_diamondtriangles.svg	stimuli_target_trianglecircles.svg	29	yes	57	0	165
6.6.1	win	2022-12-16	10:14:32	10:24:29	594339	63469e0a9552017beb3cfb82	792030415	1	main_z	11	main_z	109	stimuli_distractor_diamondtriangles.svg	stimuli_target_circletriangles.svg	13	yes	44	1	616
6.6.1	win	2022-12-16	10:14:32	10:24:29	594339	63469e0a9552017beb3cfb82	792030415	1	main_z	11	advance_on_keypress_ZEE	110	stimuli_distractor_diamondtriangles.svg	stimuli_target_circletriangles.svg	13	yes	57	0	216
6.6.1	win	2022-12-16	10:14:32	10:24:30	595826	63469e0a9552017beb3cfb82	792030415	1	main_z	11	main_z	111	stimuli_distractor_diamondtriangles.svg	stimuli_target_diamondsquares.svg	32	yes	44	1	619
6.6.1	win	2022-12-16	10:14:32	10:24:30	595826	63469e0a9552017beb3cfb82	792030415	1	main_z	11	advance_on_keypress_ZEE	112	stimuli_distractor_diamondtriangles.svg	stimuli_target_diamondsquares.svg	32	yes	57	0	247
6.6.1	win	2022-12-16	10:14:32	10:24:32	597316	63469e0a9552017beb3cfb82	792030415	1	main_z	11	main_z	113	stimuli_target_trianglesquares.svg	stimuli_distractor_trianglediamonds.svg	18	yes	44	1	592
6.6.1	win	2022-12-16	10:14:32	10:24:32	597316	63469e0a9552017beb3cfb82	792030415	1	main_z	11	advance_on_keypress_ZEE	114	stimuli_target_trianglesquares.svg	stimuli_distractor_trianglediamonds.svg	18	yes	57	0	202
6.6.1	win	2022-12-16	10:14:32	10:24:35	600158	63469e0a9552017beb3cfb82	792030415	1	main_z	11	main_z	115	stimuli_distractor_trianglediamonds.svg	stimuli_distractor_diamondtriangles.svg	36	no	0	1	2000
6.6.1	win	2022-12-16	10:14:32	10:24:35	600158	63469e0a9552017beb3cfb82	792030415	1	main_z	11	advance_on_keypress_ZEE	116	stimuli_distractor_trianglediamonds.svg	stimuli_distractor_diamondtriangles.svg	36	no	57	0	417
6.6.1	win	2022-12-16	10:14:32	10:24:36	601767	63469e0a9552017beb3cfb82	792030415	1	main_z	11	main_z	117	stimuli_target_diamondcircles.svg	stimuli_distractor_trianglediamonds.svg	19	yes	44	1	541
6.6.1	win	2022-12-16	10:14:32	10:24:36	601767	63469e0a9552017beb3cfb82	792030415	1	main_z	11	advance_on_keypress_ZEE	118	stimuli_target_diamondcircles.svg	stimuli_distractor_trianglediamonds.svg	19	yes	57	0	393
6.6.1	win	2022-12-16	10:14:32	10:24:39	604793	63469e0a9552017beb3cfb82	792030415	1	main_z	11	main_z	119	stimuli_distractor_trianglediamonds.svg	stimuli_distractor_trianglediamonds.svg	33	no	0	1	2000
6.6.1	win	2022-12-16	10:14:32	10:24:39	604793	63469e0a9552017beb3cfb82	792030415	1	main_z	11	advance_on_keypress_ZEE	120	stimuli_distractor_trianglediamonds.svg	stimuli_distractor_trianglediamonds.svg	33	no	57	0	267
6.6.1	win	2022-12-16	10:14:32	10:24:41	606226	63469e0a9552017beb3cfb82	792030415	1	main_z	11	main_z	121	stimuli_distractor_diamondtriangles.svg	stimuli_target_trianglesquares.svg	30	yes	44	1	514
6.6.1	win	2022-12-16	10:14:32	10:24:41	606226	63469e0a9552017beb3cfb82	792030415	1	main_z	11	advance_on_keypress_ZEE	122	stimuli_distractor_diamondtriangles.svg	stimuli_target_trianglesquares.svg	30	yes	57	0	785
6.6.1	win	2022-12-16	10:14:32	10:24:43	608258	63469e0a9552017beb3cfb82	792030415	1	main_z	11	main_z	123	stimuli_distractor_trianglediamonds.svg	stimuli_target_circlediamonds.svg	10	yes	44	1	597
6.6.1	win	2022-12-16	10:14:32	10:24:43	608258	63469e0a9552017beb3cfb82	792030415	1	main_z	11	advance_on_keypress_ZEE	124	stimuli_distractor_trianglediamonds.svg	stimuli_target_circlediamonds.svg	10	yes	57	0	177
6.6.1	win	2022-12-16	10:14:32	10:24:46	611062	63469e0a9552017beb3cfb82	792030415	1	main_z	11	main_z	125	stimuli_distractor_trianglediamonds.svg	stimuli_distractor_diamondtriangles.svg	35	no	0	1	2000
6.6.1	win	2022-12-16	10:14:32	10:24:46	611062	63469e0a9552017beb3cfb82	792030415	1	main_z	11	advance_on_keypress_ZEE	126	stimuli_distractor_trianglediamonds.svg	stimuli_distractor_diamondtriangles.svg	35	no	57	0	468
6.6.1	win	2022-12-16	10:14:32	10:24:49	614179	63469e0a9552017beb3cfb82	792030415	1	main_z	11	main_z	127	stimuli_distractor_diamondtriangles.svg	stimuli_distractor_diamondtriangles.svg	39	no	0	1	2000
6.6.1	win	2022-12-16	10:14:32	10:24:49	614179	63469e0a9552017beb3cfb82	792030415	1	main_z	11	advance_on_keypress_ZEE	128	stimuli_distractor_diamondtriangles.svg	stimuli_distractor_diamondtriangles.svg	39	no	57	0	308
6.6.1	win	2022-12-16	10:14:32	10:24:50	615771	63469e0a9552017beb3cfb82	792030415	1	main_z	11	main_z	129	stimuli_target_diamondcircles.svg	stimuli_distractor_diamondtriangles.svg	23	yes	44	1	640
6.6.1	win	2022-12-16	10:14:32	10:24:50	615771	63469e0a9552017beb3cfb82	792030415	1	main_z	11	advance_on_keypress_ZEE	130	stimuli_target_diamondcircles.svg	stimuli_distractor_diamondtriangles.svg	23	yes	57	0	555
6.6.1	win	2022-12-16	10:14:32	10:24:52	617513	63469e0a9552017beb3cfb82	792030415	1	main_z	11	main_z	131	stimuli_distractor_diamondtriangles.svg	stimuli_target_circlediamonds.svg	14	yes	44	1	548
6.6.1	win	2022-12-16	10:14:32	10:24:52	617513	63469e0a9552017beb3cfb82	792030415	1	main_z	11	advance_on_keypress_ZEE	132	stimuli_distractor_diamondtriangles.svg	stimuli_target_circlediamonds.svg	14	yes	57	0	220
6.6.1	win	2022-12-16	10:14:32	10:24:54	618985	63469e0a9552017beb3cfb82	792030415	1	main_z	11	main_z	133	stimuli_target_trianglesquares.svg	stimuli_distractor_diamondtriangles.svg	22	yes	44	1	603
6.6.1	win	2022-12-16	10:14:32	10:24:54	618985	63469e0a9552017beb3cfb82	792030415	1	main_z	11	advance_on_keypress_ZEE	134	stimuli_target_trianglesquares.svg	stimuli_distractor_diamondtriangles.svg	22	yes	57	0	219
6.6.1	win	2022-12-16	10:14:32	10:24:55	620394	63469e0a9552017beb3cfb82	792030415	1	main_z	11	main_z	135	stimuli_target_squarediamonds.svg	stimuli_distractor_trianglediamonds.svg	4	yes	44	1	546
6.6.1	win	2022-12-16	10:14:32	10:24:55	620394	63469e0a9552017beb3cfb82	792030415	1	main_z	11	advance_on_keypress_ZEE	136	stimuli_target_squarediamonds.svg	stimuli_distractor_trianglediamonds.svg	4	yes	57	0	184
6.6.1	win	2022-12-16	10:14:32	10:24:57	622067	63469e0a9552017beb3cfb82	792030415	1	main_z	11	main_z	137	stimuli_distractor_trianglediamonds.svg	stimuli_target_circletriangles.svg	9	yes	44	1	851
6.6.1	win	2022-12-16	10:14:32	10:24:57	622067	63469e0a9552017beb3cfb82	792030415	1	main_z	11	advance_on_keypress_ZEE	138	stimuli_distractor_trianglediamonds.svg	stimuli_target_circletriangles.svg	9	yes	57	0	238
6.6.1	win	2022-12-16	10:14:32	10:24:58	623440	63469e0a9552017beb3cfb82	792030415	1	main_z	11	main_z	139	stimuli_target_circletriangles.svg	stimuli_distractor_diamondtriangles.svg	5	yes	44	1	491
6.6.1	win	2022-12-16	10:14:32	10:24:58	623440	63469e0a9552017beb3cfb82	792030415	1	main_z	11	advance_on_keypress_ZEE	140	stimuli_target_circletriangles.svg	stimuli_distractor_diamondtriangles.svg	5	yes	57	0	200
6.6.1	win	2022-12-16	10:14:32	10:24:59	624840	63469e0a9552017beb3cfb82	792030415	1	main_z	11	main_z	141	stimuli_distractor_trianglediamonds.svg	stimuli_target_trianglesquares.svg	26	yes	44	1	555
6.6.1	win	2022-12-16	10:14:32	10:24:59	624840	63469e0a9552017beb3cfb82	792030415	1	main_z	11	advance_on_keypress_ZEE	142	stimuli_distractor_trianglediamonds.svg	stimuli_target_trianglesquares.svg	26	yes	57	0	201
6.6.1	win	2022-12-16	10:14:32	10:25:01	626129	63469e0a9552017beb3cfb82	792030415	1	main_z	11	main_z	143	stimuli_target_circlediamonds.svg	stimuli_distractor_diamondtriangles.svg	6	yes	44	1	445
6.6.1	win	2022-12-16	10:14:32	10:25:01	626129	63469e0a9552017beb3cfb82	792030415	1	main_z	11	advance_on_keypress_ZEE	144	stimuli_target_circlediamonds.svg	stimuli_distractor_diamondtriangles.svg	6	yes	57	0	172
6.6.1	win	2022-12-16	10:14:32	10:25:02	627451	63469e0a9552017beb3cfb82	792030415	1	main_z	11	main_z	145	stimuli_distractor_trianglediamonds.svg	stimuli_target_trianglecircles.svg	25	yes	44	1	514
6.6.1	win	2022-12-16	10:14:32	10:25:02	627451	63469e0a9552017beb3cfb82	792030415	1	main_z	11	advance_on_keypress_ZEE	146	stimuli_distractor_trianglediamonds.svg	stimuli_target_trianglecircles.svg	25	yes	57	0	244
6.6.1	win	2022-12-16	10:14:32	10:25:03	628912	63469e0a9552017beb3cfb82	792030415	1	main_z	11	main_z	147	stimuli_target_squarediamonds.svg	stimuli_distractor_diamondtriangles.svg	8	yes	44	1	561
6.6.1	win	2022-12-16	10:14:32	10:25:03	628912	63469e0a9552017beb3cfb82	792030415	1	main_z	11	advance_on_keypress_ZEE	148	stimuli_target_squarediamonds.svg	stimuli_distractor_diamondtriangles.svg	8	yes	57	0	197
6.6.1	win	2022-12-16	10:14:32	10:25:05	630318	63469e0a9552017beb3cfb82	792030415	1	main_z	11	main_z	149	stimuli_target_diamondsquares.svg	stimuli_distractor_diamondtriangles.svg	24	yes	44	1	582
6.6.1	win	2022-12-16	10:14:32	10:25:05	630318	63469e0a9552017beb3cfb82	792030415	1	main_z	11	advance_on_keypress_ZEE	150	stimuli_target_diamondsquares.svg	stimuli_distractor_diamondtriangles.svg	24	yes	57	0	190
6.6.1	win	2022-12-16	10:14:32	10:25:06	631622	63469e0a9552017beb3cfb82	792030415	1	main_z	11	main_z	151	stimuli_target_circlediamonds.svg	stimuli_distractor_trianglediamonds.svg	2	yes	44	1	469
6.6.1	win	2022-12-16	10:14:32	10:25:06	631622	63469e0a9552017beb3cfb82	792030415	1	main_z	11	advance_on_keypress_ZEE	152	stimuli_target_circlediamonds.svg	stimuli_distractor_trianglediamonds.svg	2	yes	57	0	190
6.6.1	win	2022-12-16	10:14:32	10:25:07	632922	63469e0a9552017beb3cfb82	792030415	1	main_z	11	main_z	153	stimuli_target_squaretriangles.svg	stimuli_distractor_diamondtriangles.svg	7	yes	44	1	469
6.6.1	win	2022-12-16	10:14:32	10:25:07	632922	63469e0a9552017beb3cfb82	792030415	1	main_z	11	advance_on_keypress_ZEE	154	stimuli_target_squaretriangles.svg	stimuli_distractor_diamondtriangles.svg	7	yes	57	0	157
6.6.1	win	2022-12-16	10:14:32	10:25:09	634148	63469e0a9552017beb3cfb82	792030415	1	main_z	11	main_z	155	stimuli_target_squaretriangles.svg	stimuli_distractor_trianglediamonds.svg	3	yes	44	1	427
6.6.1	win	2022-12-16	10:14:32	10:25:09	634148	63469e0a9552017beb3cfb82	792030415	1	main_z	11	advance_on_keypress_ZEE	156	stimuli_target_squaretriangles.svg	stimuli_distractor_trianglediamonds.svg	3	yes	57	0	247
6.6.1	win	2022-12-16	10:14:32	10:25:10	635450	63469e0a9552017beb3cfb82	792030415	1	main_z	11	main_z	157	stimuli_distractor_diamondtriangles.svg	stimuli_target_squarediamonds.svg	16	yes	44	1	429
6.6.1	win	2022-12-16	10:14:32	10:25:10	635450	63469e0a9552017beb3cfb82	792030415	1	main_z	11	advance_on_keypress_ZEE	158	stimuli_distractor_diamondtriangles.svg	stimuli_target_squarediamonds.svg	16	yes	57	0	196
6.6.1	win	2022-12-16	10:14:32	10:25:11	636708	63469e0a9552017beb3cfb82	792030415	1	main_z	11	main_z	159	stimuli_target_trianglecircles.svg	stimuli_distractor_trianglediamonds.svg	17	yes	44	1	438
6.6.1	win	2022-12-16	10:14:32	10:25:11	636708	63469e0a9552017beb3cfb82	792030415	1	main_z	11	advance_on_keypress_ZEE	160	stimuli_target_trianglecircles.svg	stimuli_distractor_trianglediamonds.svg	17	yes	57	0	192