build	computer.platform	date	time	timestamp	time_elapsed_ms	subject	group	session	blockcode	blocknum	trialcode	trialnum	stimulus_left	stimulus_right	stim_index	target_present	response	correct	latency
6.6.0	win	2022-12-14	18:40:27	18:42:11	102763	629e241d171ec6698e05f149	140098827	1	practice_slash	5	practice_slash	1	stimuli_distractor_diamondtriangles.svg	stimuli_target_circletriangles.svg	7	yes	0	0	2000
6.6.0	win	2022-12-14	18:40:27	18:42:11	102763	629e241d171ec6698e05f149	140098827	1	practice_slash	5	advance_on_keypress_SLASH	2	stimuli_distractor_diamondtriangles.svg	stimuli_target_circletriangles.svg	7	yes	57	0	1165
6.6.0	win	2022-12-14	18:40:27	18:42:16	107585	629e241d171ec6698e05f149	140098827	1	practice_slash	5	practice_slash	3	stimuli_distractor_diamondtriangles.svg	stimuli_distractor_trianglediamonds.svg	14	no	0	1	2000
6.6.0	win	2022-12-14	18:40:27	18:42:16	107585	629e241d171ec6698e05f149	140098827	1	practice_slash	5	advance_on_keypress_SLASH	4	stimuli_distractor_diamondtriangles.svg	stimuli_distractor_trianglediamonds.svg	14	no	57	0	760
6.6.0	win	2022-12-14	18:40:27	18:42:19	110892	629e241d171ec6698e05f149	140098827	1	practice_slash	5	practice_slash	5	stimuli_distractor_diamondtriangles.svg	stimuli_target_diamondcircles.svg	8	yes	53	1	920
6.6.0	win	2022-12-14	18:40:27	18:42:19	110892	629e241d171ec6698e05f149	140098827	1	practice_slash	5	advance_on_keypress_SLASH	6	stimuli_distractor_diamondtriangles.svg	stimuli_target_diamondcircles.svg	8	yes	57	0	528
6.6.0	win	2022-12-14	18:40:27	18:42:22	114038	629e241d171ec6698e05f149	140098827	1	practice_slash	5	practice_slash	7	stimuli_target_squarediamonds.svg	stimuli_distractor_trianglediamonds.svg	5	yes	53	1	979
6.6.0	win	2022-12-14	18:40:27	18:42:22	114038	629e241d171ec6698e05f149	140098827	1	practice_slash	5	advance_on_keypress_SLASH	8	stimuli_target_squarediamonds.svg	stimuli_distractor_trianglediamonds.svg	5	yes	57	0	561
6.6.0	win	2022-12-14	18:40:27	18:42:25	116990	629e241d171ec6698e05f149	140098827	1	practice_slash	5	practice_slash	9	stimuli_target_diamondsquares.svg	stimuli_distractor_trianglediamonds.svg	6	yes	53	1	761
6.6.0	win	2022-12-14	18:40:27	18:42:25	116990	629e241d171ec6698e05f149	140098827	1	practice_slash	5	advance_on_keypress_SLASH	10	stimuli_target_diamondsquares.svg	stimuli_distractor_trianglediamonds.svg	6	yes	57	0	432
6.6.0	win	2022-12-14	18:40:27	18:42:28	119670	629e241d171ec6698e05f149	140098827	1	practice_slash	5	practice_slash	11	stimuli_target_squarediamonds.svg	stimuli_distractor_diamondtriangles.svg	2	yes	53	1	606
6.6.0	win	2022-12-14	18:40:27	18:42:28	119670	629e241d171ec6698e05f149	140098827	1	practice_slash	5	advance_on_keypress_SLASH	12	stimuli_target_squarediamonds.svg	stimuli_distractor_diamondtriangles.svg	2	yes	57	0	355
6.6.0	win	2022-12-14	18:40:27	18:42:32	123668	629e241d171ec6698e05f149	140098827	1	practice_slash	5	practice_slash	13	stimuli_distractor_diamondtriangles.svg	stimuli_distractor_diamondtriangles.svg	13	no	0	1	2000
6.6.0	win	2022-12-14	18:40:27	18:42:32	123668	629e241d171ec6698e05f149	140098827	1	practice_slash	5	advance_on_keypress_SLASH	14	stimuli_distractor_diamondtriangles.svg	stimuli_distractor_diamondtriangles.svg	13	no	57	0	519
6.6.0	win	2022-12-14	18:40:27	18:42:35	126799	629e241d171ec6698e05f149	140098827	1	practice_slash	5	practice_slash	15	stimuli_target_diamondsquares.svg	stimuli_distractor_diamondtriangles.svg	3	yes	53	1	978
6.6.0	win	2022-12-14	18:40:27	18:42:35	126799	629e241d171ec6698e05f149	140098827	1	practice_slash	5	advance_on_keypress_SLASH	16	stimuli_target_diamondsquares.svg	stimuli_distractor_diamondtriangles.svg	3	yes	57	0	616
6.6.0	win	2022-12-14	18:40:27	18:42:38	130001	629e241d171ec6698e05f149	140098827	1	practice_slash	5	practice_slash	17	stimuli_distractor_trianglediamonds.svg	stimuli_distractor_trianglediamonds.svg	15	no	53	0	941
6.6.0	win	2022-12-14	18:40:27	18:42:38	130001	629e241d171ec6698e05f149	140098827	1	practice_slash	5	advance_on_keypress_SLASH	18	stimuli_distractor_trianglediamonds.svg	stimuli_distractor_trianglediamonds.svg	15	no	57	0	397
6.6.0	win	2022-12-14	18:40:27	18:42:41	132897	629e241d171ec6698e05f149	140098827	1	practice_slash	5	practice_slash	19	stimuli_distractor_diamondtriangles.svg	stimuli_target_trianglecircles.svg	9	yes	53	1	852
6.6.0	win	2022-12-14	18:40:27	18:42:41	132897	629e241d171ec6698e05f149	140098827	1	practice_slash	5	advance_on_keypress_SLASH	20	stimuli_distractor_diamondtriangles.svg	stimuli_target_trianglecircles.svg	9	yes	57	0	375
6.6.0	win	2022-12-14	18:40:27	18:42:44	135602	629e241d171ec6698e05f149	140098827	1	practice_slash	5	practice_slash	21	stimuli_target_circlediamonds.svg	stimuli_distractor_trianglediamonds.svg	4	yes	53	1	686
6.6.0	win	2022-12-14	18:40:27	18:42:44	135602	629e241d171ec6698e05f149	140098827	1	practice_slash	5	advance_on_keypress_SLASH	22	stimuli_target_circlediamonds.svg	stimuli_distractor_trianglediamonds.svg	4	yes	57	0	256
6.6.0	win	2022-12-14	18:40:27	18:42:47	139500	629e241d171ec6698e05f149	140098827	1	practice_slash	5	practice_slash	23	stimuli_distractor_trianglediamonds.svg	stimuli_distractor_diamondtriangles.svg	16	no	0	1	2000
6.6.0	win	2022-12-14	18:40:27	18:42:47	139500	629e241d171ec6698e05f149	140098827	1	practice_slash	5	advance_on_keypress_SLASH	24	stimuli_distractor_trianglediamonds.svg	stimuli_distractor_diamondtriangles.svg	16	no	57	0	378
6.6.0	win	2022-12-14	18:40:27	18:42:50	142130	629e241d171ec6698e05f149	140098827	1	practice_slash	5	practice_slash	25	stimuli_target_circlediamonds.svg	stimuli_distractor_diamondtriangles.svg	1	yes	53	1	625
6.6.0	win	2022-12-14	18:40:27	18:42:50	142130	629e241d171ec6698e05f149	140098827	1	practice_slash	5	advance_on_keypress_SLASH	26	stimuli_target_circlediamonds.svg	stimuli_distractor_diamondtriangles.svg	1	yes	57	0	238
6.6.0	win	2022-12-14	18:40:27	18:42:53	144690	629e241d171ec6698e05f149	140098827	1	practice_slash	5	practice_slash	27	stimuli_distractor_trianglediamonds.svg	stimuli_target_circlediamonds.svg	10	yes	53	1	683
6.6.0	win	2022-12-14	18:40:27	18:42:53	144690	629e241d171ec6698e05f149	140098827	1	practice_slash	5	advance_on_keypress_SLASH	28	stimuli_distractor_trianglediamonds.svg	stimuli_target_circlediamonds.svg	10	yes	57	0	301
6.6.0	win	2022-12-14	18:40:27	18:42:56	148195	629e241d171ec6698e05f149	140098827	1	practice_slash	5	practice_slash	29	stimuli_distractor_trianglediamonds.svg	stimuli_target_diamondcircles.svg	12	yes	53	1	1568
6.6.0	win	2022-12-14	18:40:27	18:42:56	148195	629e241d171ec6698e05f149	140098827	1	practice_slash	5	advance_on_keypress_SLASH	30	stimuli_distractor_trianglediamonds.svg	stimuli_target_diamondcircles.svg	12	yes	57	0	222
6.6.0	win	2022-12-14	18:40:27	18:42:59	150716	629e241d171ec6698e05f149	140098827	1	practice_slash	5	practice_slash	31	stimuli_distractor_trianglediamonds.svg	stimuli_target_squarediamonds.svg	11	yes	53	1	652
6.6.0	win	2022-12-14	18:40:27	18:42:59	150716	629e241d171ec6698e05f149	140098827	1	practice_slash	5	advance_on_keypress_SLASH	32	stimuli_distractor_trianglediamonds.svg	stimuli_target_squarediamonds.svg	11	yes	57	0	391
6.6.0	win	2022-12-14	18:40:27	18:43:40	192498	629e241d171ec6698e05f149	140098827	1	main_slash	7	main_slash	1	stimuli_target_squarediamonds.svg	stimuli_distractor_trianglediamonds.svg	4	yes	53	1	1274
6.6.0	win	2022-12-14	18:40:27	18:43:40	192498	629e241d171ec6698e05f149	140098827	1	main_slash	7	advance_on_keypress_SLASH	2	stimuli_target_squarediamonds.svg	stimuli_distractor_trianglediamonds.svg	4	yes	57	0	709
6.6.0	win	2022-12-14	18:40:27	18:43:43	194730	629e241d171ec6698e05f149	140098827	1	main_slash	7	main_slash	3	stimuli_distractor_trianglediamonds.svg	stimuli_target_circletriangles.svg	9	yes	53	1	888
6.6.0	win	2022-12-14	18:40:27	18:43:43	194730	629e241d171ec6698e05f149	140098827	1	main_slash	7	advance_on_keypress_SLASH	4	stimuli_distractor_trianglediamonds.svg	stimuli_target_circletriangles.svg	9	yes	57	0	586
6.6.0	win	2022-12-14	18:40:27	18:43:46	197961	629e241d171ec6698e05f149	140098827	1	main_slash	7	main_slash	5	stimuli_distractor_diamondtriangles.svg	stimuli_distractor_diamondtriangles.svg	39	no	0	1	2000
6.6.0	win	2022-12-14	18:40:27	18:43:46	197961	629e241d171ec6698e05f149	140098827	1	main_slash	7	advance_on_keypress_SLASH	6	stimuli_distractor_diamondtriangles.svg	stimuli_distractor_diamondtriangles.svg	39	no	57	0	567
6.6.0	win	2022-12-14	18:40:27	18:43:49	201163	629e241d171ec6698e05f149	140098827	1	main_slash	7	main_slash	7	stimuli_distractor_diamondtriangles.svg	stimuli_distractor_diamondtriangles.svg	40	no	0	1	2000
6.6.0	win	2022-12-14	18:40:27	18:43:49	201163	629e241d171ec6698e05f149	140098827	1	main_slash	7	advance_on_keypress_SLASH	8	stimuli_distractor_diamondtriangles.svg	stimuli_distractor_diamondtriangles.svg	40	no	57	0	1812
6.6.0	win	2022-12-14	18:40:27	18:43:52	204195	629e241d171ec6698e05f149	140098827	1	main_slash	7	main_slash	9	stimuli_target_circletriangles.svg	stimuli_distractor_trianglediamonds.svg	1	yes	53	1	593
6.6.0	win	2022-12-14	18:40:27	18:43:52	204195	629e241d171ec6698e05f149	140098827	1	main_slash	7	advance_on_keypress_SLASH	10	stimuli_target_circletriangles.svg	stimuli_distractor_trianglediamonds.svg	1	yes	57	0	560
6.6.0	win	2022-12-14	18:40:27	18:43:54	206203	629e241d171ec6698e05f149	140098827	1	main_slash	7	main_slash	11	stimuli_distractor_trianglediamonds.svg	stimuli_target_trianglecircles.svg	25	yes	53	1	816
6.6.0	win	2022-12-14	18:40:27	18:43:54	206203	629e241d171ec6698e05f149	140098827	1	main_slash	7	advance_on_keypress_SLASH	12	stimuli_distractor_trianglediamonds.svg	stimuli_target_trianglecircles.svg	25	yes	57	0	494
6.6.0	win	2022-12-14	18:40:27	18:43:57	209322	629e241d171ec6698e05f149	140098827	1	main_slash	7	main_slash	13	stimuli_distractor_trianglediamonds.svg	stimuli_distractor_diamondtriangles.svg	36	no	0	1	2000
6.6.0	win	2022-12-14	18:40:27	18:43:57	209322	629e241d171ec6698e05f149	140098827	1	main_slash	7	advance_on_keypress_SLASH	14	stimuli_distractor_trianglediamonds.svg	stimuli_distractor_diamondtriangles.svg	36	no	57	0	519
6.6.0	win	2022-12-14	18:40:27	18:43:59	211132	629e241d171ec6698e05f149	140098827	1	main_slash	7	main_slash	15	stimuli_distractor_diamondtriangles.svg	stimuli_target_circlediamonds.svg	14	yes	53	1	657
6.6.0	win	2022-12-14	18:40:27	18:43:59	211132	629e241d171ec6698e05f149	140098827	1	main_slash	7	advance_on_keypress_SLASH	16	stimuli_distractor_diamondtriangles.svg	stimuli_target_circlediamonds.svg	14	yes	57	0	469
6.6.0	win	2022-12-14	18:40:27	18:44:01	212988	629e241d171ec6698e05f149	140098827	1	main_slash	7	main_slash	17	stimuli_distractor_diamondtriangles.svg	stimuli_target_trianglesquares.svg	30	yes	53	1	744
6.6.0	win	2022-12-14	18:40:27	18:44:01	212988	629e241d171ec6698e05f149	140098827	1	main_slash	7	advance_on_keypress_SLASH	18	stimuli_distractor_diamondtriangles.svg	stimuli_target_trianglesquares.svg	30	yes	57	0	409
6.6.0	win	2022-12-14	18:40:27	18:44:04	216028	629e241d171ec6698e05f149	140098827	1	main_slash	7	main_slash	19	stimuli_distractor_trianglediamonds.svg	stimuli_distractor_trianglediamonds.svg	34	no	0	1	2000
6.6.0	win	2022-12-14	18:40:27	18:44:04	216028	629e241d171ec6698e05f149	140098827	1	main_slash	7	advance_on_keypress_SLASH	20	stimuli_distractor_trianglediamonds.svg	stimuli_distractor_trianglediamonds.svg	34	no	57	0	397
6.6.0	win	2022-12-14	18:40:27	18:44:07	219049	629e241d171ec6698e05f149	140098827	1	main_slash	7	main_slash	21	stimuli_distractor_trianglediamonds.svg	stimuli_distractor_diamondtriangles.svg	35	no	0	1	2000
6.6.0	win	2022-12-14	18:40:27	18:44:07	219049	629e241d171ec6698e05f149	140098827	1	main_slash	7	advance_on_keypress_SLASH	22	stimuli_distractor_trianglediamonds.svg	stimuli_distractor_diamondtriangles.svg	35	no	57	0	426
6.6.0	win	2022-12-14	18:40:27	18:44:09	221341	629e241d171ec6698e05f149	140098827	1	main_slash	7	main_slash	23	stimuli_target_diamondsquares.svg	stimuli_distractor_trianglediamonds.svg	20	yes	53	1	1239
6.6.0	win	2022-12-14	18:40:27	18:44:09	221341	629e241d171ec6698e05f149	140098827	1	main_slash	7	advance_on_keypress_SLASH	24	stimuli_target_diamondsquares.svg	stimuli_distractor_trianglediamonds.svg	20	yes	57	0	412
6.6.0	win	2022-12-14	18:40:27	18:44:12	223998	629e241d171ec6698e05f149	140098827	1	main_slash	7	main_slash	25	stimuli_target_squaretriangles.svg	stimuli_distractor_diamondtriangles.svg	7	yes	53	1	1610
6.6.0	win	2022-12-14	18:40:27	18:44:12	223998	629e241d171ec6698e05f149	140098827	1	main_slash	7	advance_on_keypress_SLASH	26	stimuli_target_squaretriangles.svg	stimuli_distractor_diamondtriangles.svg	7	yes	57	0	464
6.6.0	win	2022-12-14	18:40:27	18:44:14	225862	629e241d171ec6698e05f149	140098827	1	main_slash	7	main_slash	27	stimuli_distractor_trianglediamonds.svg	stimuli_target_circlediamonds.svg	10	yes	53	1	772
6.6.0	win	2022-12-14	18:40:27	18:44:14	225862	629e241d171ec6698e05f149	140098827	1	main_slash	7	advance_on_keypress_SLASH	28	stimuli_distractor_trianglediamonds.svg	stimuli_target_circlediamonds.svg	10	yes	57	0	323
6.6.0	win	2022-12-14	18:40:27	18:44:16	227822	629e241d171ec6698e05f149	140098827	1	main_slash	7	main_slash	29	stimuli_distractor_trianglediamonds.svg	stimuli_target_squaretriangles.svg	11	yes	53	1	997
6.6.0	win	2022-12-14	18:40:27	18:44:16	227822	629e241d171ec6698e05f149	140098827	1	main_slash	7	advance_on_keypress_SLASH	30	stimuli_distractor_trianglediamonds.svg	stimuli_target_squaretriangles.svg	11	yes	57	0	531
6.6.0	win	2022-12-14	18:40:27	18:44:18	229623	629e241d171ec6698e05f149	140098827	1	main_slash	7	main_slash	31	stimuli_target_squaretriangles.svg	stimuli_distractor_trianglediamonds.svg	3	yes	53	1	646
6.6.0	win	2022-12-14	18:40:27	18:44:18	229623	629e241d171ec6698e05f149	140098827	1	main_slash	7	advance_on_keypress_SLASH	32	stimuli_target_squaretriangles.svg	stimuli_distractor_trianglediamonds.svg	3	yes	57	0	378
6.6.0	win	2022-12-14	18:40:27	18:44:19	231423	629e241d171ec6698e05f149	140098827	1	main_slash	7	main_slash	33	stimuli_distractor_trianglediamonds.svg	stimuli_target_trianglesquares.svg	26	yes	53	1	794
6.6.0	win	2022-12-14	18:40:27	18:44:19	231423	629e241d171ec6698e05f149	140098827	1	main_slash	7	advance_on_keypress_SLASH	34	stimuli_distractor_trianglediamonds.svg	stimuli_target_trianglesquares.svg	26	yes	57	0	320
6.6.0	win	2022-12-14	18:40:27	18:44:21	233271	629e241d171ec6698e05f149	140098827	1	main_slash	7	main_slash	35	stimuli_target_diamondsquares.svg	stimuli_distractor_diamondtriangles.svg	24	yes	53	1	890
6.6.0	win	2022-12-14	18:40:27	18:44:21	233271	629e241d171ec6698e05f149	140098827	1	main_slash	7	advance_on_keypress_SLASH	36	stimuli_target_diamondsquares.svg	stimuli_distractor_diamondtriangles.svg	24	yes	57	0	293
6.6.0	win	2022-12-14	18:40:27	18:44:23	234935	629e241d171ec6698e05f149	140098827	1	main_slash	7	main_slash	37	stimuli_target_diamondcircles.svg	stimuli_distractor_trianglediamonds.svg	19	yes	53	1	737
6.6.0	win	2022-12-14	18:40:27	18:44:23	234935	629e241d171ec6698e05f149	140098827	1	main_slash	7	advance_on_keypress_SLASH	38	stimuli_target_diamondcircles.svg	stimuli_distractor_trianglediamonds.svg	19	yes	57	0	312
6.6.0	win	2022-12-14	18:40:27	18:44:25	236519	629e241d171ec6698e05f149	140098827	1	main_slash	7	main_slash	39	stimuli_distractor_diamondtriangles.svg	stimuli_target_diamondcircles.svg	31	yes	53	1	636
6.6.0	win	2022-12-14	18:40:27	18:44:25	236519	629e241d171ec6698e05f149	140098827	1	main_slash	7	advance_on_keypress_SLASH	40	stimuli_distractor_diamondtriangles.svg	stimuli_target_diamondcircles.svg	31	yes	57	0	296
6.6.0	win	2022-12-14	18:40:27	18:44:26	238215	629e241d171ec6698e05f149	140098827	1	main_slash	7	main_slash	41	stimuli_target_circlediamonds.svg	stimuli_distractor_trianglediamonds.svg	2	yes	53	1	763
6.6.0	win	2022-12-14	18:40:27	18:44:26	238215	629e241d171ec6698e05f149	140098827	1	main_slash	7	advance_on_keypress_SLASH	42	stimuli_target_circlediamonds.svg	stimuli_distractor_trianglediamonds.svg	2	yes	57	0	307
6.6.0	win	2022-12-14	18:40:27	18:44:28	239864	629e241d171ec6698e05f149	140098827	1	main_slash	7	main_slash	43	stimuli_distractor_diamondtriangles.svg	stimuli_target_diamondsquares.svg	32	yes	53	1	710
6.6.0	win	2022-12-14	18:40:27	18:44:28	239864	629e241d171ec6698e05f149	140098827	1	main_slash	7	advance_on_keypress_SLASH	44	stimuli_distractor_diamondtriangles.svg	stimuli_target_diamondsquares.svg	32	yes	57	0	263
6.6.0	win	2022-12-14	18:40:27	18:44:30	241568	629e241d171ec6698e05f149	140098827	1	main_slash	7	main_slash	45	stimuli_target_trianglecircles.svg	stimuli_distractor_trianglediamonds.svg	17	yes	53	1	812
6.6.0	win	2022-12-14	18:40:27	18:44:30	241568	629e241d171ec6698e05f149	140098827	1	main_slash	7	advance_on_keypress_SLASH	46	stimuli_target_trianglecircles.svg	stimuli_distractor_trianglediamonds.svg	17	yes	57	0	267
6.6.0	win	2022-12-14	18:40:27	18:44:32	244474	629e241d171ec6698e05f149	140098827	1	main_slash	7	main_slash	47	stimuli_distractor_diamondtriangles.svg	stimuli_distractor_trianglediamonds.svg	37	no	0	1	2000
6.6.0	win	2022-12-14	18:40:27	18:44:32	244474	629e241d171ec6698e05f149	140098827	1	main_slash	7	advance_on_keypress_SLASH	48	stimuli_distractor_diamondtriangles.svg	stimuli_distractor_trianglediamonds.svg	37	no	57	0	380
6.6.0	win	2022-12-14	18:40:27	18:44:34	246233	629e241d171ec6698e05f149	140098827	1	main_slash	7	main_slash	49	stimuli_distractor_diamondtriangles.svg	stimuli_target_circletriangles.svg	13	yes	53	1	756
6.6.0	win	2022-12-14	18:40:27	18:44:34	246233	629e241d171ec6698e05f149	140098827	1	main_slash	7	advance_on_keypress_SLASH	50	stimuli_distractor_diamondtriangles.svg	stimuli_target_circletriangles.svg	13	yes	57	0	267
6.6.0	win	2022-12-14	18:40:27	18:44:36	247921	629e241d171ec6698e05f149	140098827	1	main_slash	7	main_slash	51	stimuli_target_diamondcircles.svg	stimuli_distractor_diamondtriangles.svg	23	yes	53	1	775
6.6.0	win	2022-12-14	18:40:27	18:44:36	247921	629e241d171ec6698e05f149	140098827	1	main_slash	7	advance_on_keypress_SLASH	52	stimuli_target_diamondcircles.svg	stimuli_distractor_diamondtriangles.svg	23	yes	57	0	286
6.6.0	win	2022-12-14	18:40:27	18:44:38	249521	629e241d171ec6698e05f149	140098827	1	main_slash	7	main_slash	53	stimuli_distractor_diamondtriangles.svg	stimuli_target_squaretriangles.svg	15	yes	53	1	674
6.6.0	win	2022-12-14	18:40:27	18:44:38	249521	629e241d171ec6698e05f149	140098827	1	main_slash	7	advance_on_keypress_SLASH	54	stimuli_distractor_diamondtriangles.svg	stimuli_target_squaretriangles.svg	15	yes	57	0	222
6.6.0	win	2022-12-14	18:40:27	18:44:39	251129	629e241d171ec6698e05f149	140098827	1	main_slash	7	main_slash	55	stimuli_target_circletriangles.svg	stimuli_distractor_diamondtriangles.svg	5	yes	53	1	748
6.6.0	win	2022-12-14	18:40:27	18:44:39	251129	629e241d171ec6698e05f149	140098827	1	main_slash	7	advance_on_keypress_SLASH	56	stimuli_target_circletriangles.svg	stimuli_distractor_diamondtriangles.svg	5	yes	57	0	268
6.6.0	win	2022-12-14	18:40:27	18:44:41	252762	629e241d171ec6698e05f149	140098827	1	main_slash	7	main_slash	57	stimuli_distractor_diamondtriangles.svg	stimuli_target_trianglecircles.svg	29	yes	53	1	728
6.6.0	win	2022-12-14	18:40:27	18:44:41	252762	629e241d171ec6698e05f149	140098827	1	main_slash	7	advance_on_keypress_SLASH	58	stimuli_distractor_diamondtriangles.svg	stimuli_target_trianglecircles.svg	29	yes	57	0	249
6.6.0	win	2022-12-14	18:40:27	18:44:42	254354	629e241d171ec6698e05f149	140098827	1	main_slash	7	main_slash	59	stimuli_distractor_diamondtriangles.svg	stimuli_target_squarediamonds.svg	16	yes	53	1	702
6.6.0	win	2022-12-14	18:40:27	18:44:42	254354	629e241d171ec6698e05f149	140098827	1	main_slash	7	advance_on_keypress_SLASH	60	stimuli_distractor_diamondtriangles.svg	stimuli_target_squarediamonds.svg	16	yes	57	0	200
6.6.0	win	2022-12-14	18:40:27	18:44:44	255986	629e241d171ec6698e05f149	140098827	1	main_slash	7	main_slash	61	stimuli_target_trianglesquares.svg	stimuli_distractor_trianglediamonds.svg	18	yes	53	1	782
6.6.0	win	2022-12-14	18:40:27	18:44:44	255986	629e241d171ec6698e05f149	140098827	1	main_slash	7	advance_on_keypress_SLASH	62	stimuli_target_trianglesquares.svg	stimuli_distractor_trianglediamonds.svg	18	yes	57	0	286
6.6.0	win	2022-12-14	18:40:27	18:44:47	258905	629e241d171ec6698e05f149	140098827	1	main_slash	7	main_slash	63	stimuli_distractor_trianglediamonds.svg	stimuli_target_squarediamonds.svg	12	yes	0	0	2000
6.6.0	win	2022-12-14	18:40:27	18:44:47	258905	629e241d171ec6698e05f149	140098827	1	main_slash	7	advance_on_keypress_SLASH	64	stimuli_distractor_trianglediamonds.svg	stimuli_target_squarediamonds.svg	12	yes	57	0	455
6.6.0	win	2022-12-14	18:40:27	18:44:49	260723	629e241d171ec6698e05f149	140098827	1	main_slash	7	main_slash	65	stimuli_target_circlediamonds.svg	stimuli_distractor_diamondtriangles.svg	6	yes	53	1	731
6.6.0	win	2022-12-14	18:40:27	18:44:49	260723	629e241d171ec6698e05f149	140098827	1	main_slash	7	advance_on_keypress_SLASH	66	stimuli_target_circlediamonds.svg	stimuli_distractor_diamondtriangles.svg	6	yes	57	0	269
6.6.0	win	2022-12-14	18:40:27	18:44:50	262379	629e241d171ec6698e05f149	140098827	1	main_slash	7	main_slash	67	stimuli_target_squarediamonds.svg	stimuli_distractor_diamondtriangles.svg	8	yes	53	1	753
6.6.0	win	2022-12-14	18:40:27	18:44:50	262379	629e241d171ec6698e05f149	140098827	1	main_slash	7	advance_on_keypress_SLASH	68	stimuli_target_squarediamonds.svg	stimuli_distractor_diamondtriangles.svg	8	yes	57	0	224
6.6.0	win	2022-12-14	18:40:27	18:44:52	264459	629e241d171ec6698e05f149	140098827	1	main_slash	7	main_slash	69	stimuli_distractor_trianglediamonds.svg	stimuli_target_diamondsquares.svg	28	yes	53	1	1214
6.6.0	win	2022-12-14	18:40:27	18:44:52	264459	629e241d171ec6698e05f149	140098827	1	main_slash	7	advance_on_keypress_SLASH	70	stimuli_distractor_trianglediamonds.svg	stimuli_target_diamondsquares.svg	28	yes	57	0	284
6.6.0	win	2022-12-14	18:40:27	18:44:54	266132	629e241d171ec6698e05f149	140098827	1	main_slash	7	main_slash	71	stimuli_target_trianglecircles.svg	stimuli_distractor_diamondtriangles.svg	21	yes	53	1	751
6.6.0	win	2022-12-14	18:40:27	18:44:54	266132	629e241d171ec6698e05f149	140098827	1	main_slash	7	advance_on_keypress_SLASH	72	stimuli_target_trianglecircles.svg	stimuli_distractor_diamondtriangles.svg	21	yes	57	0	167
6.6.0	win	2022-12-14	18:40:27	18:44:57	268949	629e241d171ec6698e05f149	140098827	1	main_slash	7	main_slash	73	stimuli_distractor_trianglediamonds.svg	stimuli_distractor_trianglediamonds.svg	33	no	0	1	2000
6.6.0	win	2022-12-14	18:40:27	18:44:57	268949	629e241d171ec6698e05f149	140098827	1	main_slash	7	advance_on_keypress_SLASH	74	stimuli_distractor_trianglediamonds.svg	stimuli_distractor_trianglediamonds.svg	33	no	57	0	436
6.6.0	win	2022-12-14	18:40:27	18:44:59	270741	629e241d171ec6698e05f149	140098827	1	main_slash	7	main_slash	75	stimuli_distractor_trianglediamonds.svg	stimuli_target_diamondcircles.svg	27	yes	53	1	722
6.6.0	win	2022-12-14	18:40:27	18:44:59	270741	629e241d171ec6698e05f149	140098827	1	main_slash	7	advance_on_keypress_SLASH	76	stimuli_distractor_trianglediamonds.svg	stimuli_target_diamondcircles.svg	27	yes	57	0	267
6.6.0	win	2022-12-14	18:40:27	18:45:00	272404	629e241d171ec6698e05f149	140098827	1	main_slash	7	main_slash	77	stimuli_target_trianglesquares.svg	stimuli_distractor_diamondtriangles.svg	22	yes	53	1	751
6.6.0	win	2022-12-14	18:40:27	18:45:00	272404	629e241d171ec6698e05f149	140098827	1	main_slash	7	advance_on_keypress_SLASH	78	stimuli_target_trianglesquares.svg	stimuli_distractor_diamondtriangles.svg	22	yes	57	0	239
6.6.0	win	2022-12-14	18:40:27	18:45:03	275289	629e241d171ec6698e05f149	140098827	1	main_slash	7	main_slash	79	stimuli_distractor_diamondtriangles.svg	stimuli_distractor_trianglediamonds.svg	38	no	0	1	2000
6.6.0	win	2022-12-14	18:40:27	18:45:03	275289	629e241d171ec6698e05f149	140098827	1	main_slash	7	advance_on_keypress_SLASH	80	stimuli_distractor_diamondtriangles.svg	stimuli_distractor_trianglediamonds.svg	38	no	57	0	377
6.6.0	win	2022-12-14	18:40:27	18:45:05	277053	629e241d171ec6698e05f149	140098827	1	main_slash	7	main_slash	81	stimuli_distractor_trianglediamonds.svg	stimuli_target_circletriangles.svg	9	yes	53	1	762
6.6.0	win	2022-12-14	18:40:27	18:45:05	277053	629e241d171ec6698e05f149	140098827	1	main_slash	7	advance_on_keypress_SLASH	82	stimuli_distractor_trianglediamonds.svg	stimuli_target_circletriangles.svg	9	yes	57	0	234
6.6.0	win	2022-12-14	18:40:27	18:45:08	279926	629e241d171ec6698e05f149	140098827	1	main_slash	7	main_slash	83	stimuli_distractor_diamondtriangles.svg	stimuli_distractor_diamondtriangles.svg	40	no	0	1	2000
6.6.0	win	2022-12-14	18:40:27	18:45:08	279926	629e241d171ec6698e05f149	140098827	1	main_slash	7	advance_on_keypress_SLASH	84	stimuli_distractor_diamondtriangles.svg	stimuli_distractor_diamondtriangles.svg	40	no	57	0	484
6.6.0	win	2022-12-14	18:40:27	18:45:11	283046	629e241d171ec6698e05f149	140098827	1	main_slash	7	main_slash	85	stimuli_distractor_trianglediamonds.svg	stimuli_distractor_trianglediamonds.svg	33	no	0	1	2000
6.6.0	win	2022-12-14	18:40:27	18:45:11	283046	629e241d171ec6698e05f149	140098827	1	main_slash	7	advance_on_keypress_SLASH	86	stimuli_distractor_trianglediamonds.svg	stimuli_distractor_trianglediamonds.svg	33	no	57	0	278
6.6.0	win	2022-12-14	18:40:27	18:45:14	285949	629e241d171ec6698e05f149	140098827	1	main_slash	7	main_slash	87	stimuli_distractor_diamondtriangles.svg	stimuli_distractor_trianglediamonds.svg	37	no	0	1	2000
6.6.0	win	2022-12-14	18:40:27	18:45:14	285949	629e241d171ec6698e05f149	140098827	1	main_slash	7	advance_on_keypress_SLASH	88	stimuli_distractor_diamondtriangles.svg	stimuli_distractor_trianglediamonds.svg	37	no	57	0	343
6.6.0	win	2022-12-14	18:40:27	18:45:17	288919	629e241d171ec6698e05f149	140098827	1	main_slash	7	main_slash	89	stimuli_distractor_diamondtriangles.svg	stimuli_distractor_trianglediamonds.svg	38	no	0	1	2000
6.6.0	win	2022-12-14	18:40:27	18:45:17	288919	629e241d171ec6698e05f149	140098827	1	main_slash	7	advance_on_keypress_SLASH	90	stimuli_distractor_diamondtriangles.svg	stimuli_distractor_trianglediamonds.svg	38	no	57	0	245
6.6.0	win	2022-12-14	18:40:27	18:45:18	290416	629e241d171ec6698e05f149	140098827	1	main_slash	7	main_slash	91	stimuli_target_squaretriangles.svg	stimuli_distractor_trianglediamonds.svg	3	yes	53	1	627
6.6.0	win	2022-12-14	18:40:27	18:45:18	290416	629e241d171ec6698e05f149	140098827	1	main_slash	7	advance_on_keypress_SLASH	92	stimuli_target_squaretriangles.svg	stimuli_distractor_trianglediamonds.svg	3	yes	57	0	232
6.6.0	win	2022-12-14	18:40:27	18:45:20	291936	629e241d171ec6698e05f149	140098827	1	main_slash	7	main_slash	93	stimuli_target_circletriangles.svg	stimuli_distractor_trianglediamonds.svg	1	yes	53	1	646
6.6.0	win	2022-12-14	18:40:27	18:45:20	291936	629e241d171ec6698e05f149	140098827	1	main_slash	7	advance_on_keypress_SLASH	94	stimuli_target_circletriangles.svg	stimuli_distractor_trianglediamonds.svg	1	yes	57	0	322
6.6.0	win	2022-12-14	18:40:27	18:45:21	293480	629e241d171ec6698e05f149	140098827	1	main_slash	7	main_slash	95	stimuli_target_circlediamonds.svg	stimuli_distractor_trianglediamonds.svg	2	yes	53	1	588
6.6.0	win	2022-12-14	18:40:27	18:45:21	293480	629e241d171ec6698e05f149	140098827	1	main_slash	7	advance_on_keypress_SLASH	96	stimuli_target_circlediamonds.svg	stimuli_distractor_trianglediamonds.svg	2	yes	57	0	147
6.6.0	win	2022-12-14	18:40:27	18:45:23	294896	629e241d171ec6698e05f149	140098827	1	main_slash	7	main_slash	97	stimuli_distractor_diamondtriangles.svg	stimuli_target_trianglesquares.svg	30	yes	53	1	636
6.6.0	win	2022-12-14	18:40:27	18:45:23	294896	629e241d171ec6698e05f149	140098827	1	main_slash	7	advance_on_keypress_SLASH	98	stimuli_distractor_diamondtriangles.svg	stimuli_target_trianglesquares.svg	30	yes	57	0	153
6.6.0	win	2022-12-14	18:40:27	18:45:24	296337	629e241d171ec6698e05f149	140098827	1	main_slash	7	main_slash	99	stimuli_distractor_trianglediamonds.svg	stimuli_target_trianglesquares.svg	26	yes	53	1	642
6.6.0	win	2022-12-14	18:40:27	18:45:24	296337	629e241d171ec6698e05f149	140098827	1	main_slash	7	advance_on_keypress_SLASH	100	stimuli_distractor_trianglediamonds.svg	stimuli_target_trianglesquares.svg	26	yes	57	0	142
6.6.0	win	2022-12-14	18:40:27	18:45:26	297809	629e241d171ec6698e05f149	140098827	1	main_slash	7	main_slash	101	stimuli_target_circlediamonds.svg	stimuli_distractor_diamondtriangles.svg	6	yes	53	1	696
6.6.0	win	2022-12-14	18:40:27	18:45:26	297809	629e241d171ec6698e05f149	140098827	1	main_slash	7	advance_on_keypress_SLASH	102	stimuli_target_circlediamonds.svg	stimuli_distractor_diamondtriangles.svg	6	yes	57	0	307
6.6.0	win	2022-12-14	18:40:27	18:45:27	299384	629e241d171ec6698e05f149	140098827	1	main_slash	7	main_slash	103	stimuli_target_squarediamonds.svg	stimuli_distractor_diamondtriangles.svg	8	yes	53	1	637
6.6.0	win	2022-12-14	18:40:27	18:45:27	299384	629e241d171ec6698e05f149	140098827	1	main_slash	7	advance_on_keypress_SLASH	104	stimuli_target_squarediamonds.svg	stimuli_distractor_diamondtriangles.svg	8	yes	57	0	186
6.6.0	win	2022-12-14	18:40:27	18:45:30	302216	629e241d171ec6698e05f149	140098827	1	main_slash	7	main_slash	105	stimuli_distractor_trianglediamonds.svg	stimuli_distractor_diamondtriangles.svg	36	no	0	1	2000
6.6.0	win	2022-12-14	18:40:27	18:45:30	302216	629e241d171ec6698e05f149	140098827	1	main_slash	7	advance_on_keypress_SLASH	106	stimuli_distractor_trianglediamonds.svg	stimuli_distractor_diamondtriangles.svg	36	no	57	0	238
6.6.0	win	2022-12-14	18:40:27	18:45:32	303985	629e241d171ec6698e05f149	140098827	1	main_slash	7	main_slash	107	stimuli_target_diamondsquares.svg	stimuli_distractor_trianglediamonds.svg	20	yes	53	1	899
6.6.0	win	2022-12-14	18:40:27	18:45:32	303985	629e241d171ec6698e05f149	140098827	1	main_slash	7	advance_on_keypress_SLASH	108	stimuli_target_diamondsquares.svg	stimuli_distractor_trianglediamonds.svg	20	yes	57	0	206
6.6.0	win	2022-12-14	18:40:27	18:45:34	305561	629e241d171ec6698e05f149	140098827	1	main_slash	7	main_slash	109	stimuli_distractor_trianglediamonds.svg	stimuli_target_diamondsquares.svg	28	yes	53	1	741
6.6.0	win	2022-12-14	18:40:27	18:45:34	305561	629e241d171ec6698e05f149	140098827	1	main_slash	7	advance_on_keypress_SLASH	110	stimuli_distractor_trianglediamonds.svg	stimuli_target_diamondsquares.svg	28	yes	57	0	190
6.6.0	win	2022-12-14	18:40:27	18:45:35	307034	629e241d171ec6698e05f149	140098827	1	main_slash	7	main_slash	111	stimuli_target_circletriangles.svg	stimuli_distractor_diamondtriangles.svg	5	yes	53	1	645
6.6.0	win	2022-12-14	18:40:27	18:45:35	307034	629e241d171ec6698e05f149	140098827	1	main_slash	7	advance_on_keypress_SLASH	112	stimuli_target_circletriangles.svg	stimuli_distractor_diamondtriangles.svg	5	yes	57	0	154
6.6.0	win	2022-12-14	18:40:27	18:45:36	308498	629e241d171ec6698e05f149	140098827	1	main_slash	7	main_slash	113	stimuli_target_diamondcircles.svg	stimuli_distractor_trianglediamonds.svg	19	yes	53	1	674
6.6.0	win	2022-12-14	18:40:27	18:45:36	308498	629e241d171ec6698e05f149	140098827	1	main_slash	7	advance_on_keypress_SLASH	114	stimuli_target_diamondcircles.svg	stimuli_distractor_trianglediamonds.svg	19	yes	57	0	118
6.6.0	win	2022-12-14	18:40:27	18:45:39	311258	629e241d171ec6698e05f149	140098827	1	main_slash	7	main_slash	115	stimuli_distractor_trianglediamonds.svg	stimuli_target_circlediamonds.svg	10	yes	0	0	2000
6.6.0	win	2022-12-14	18:40:27	18:45:39	311258	629e241d171ec6698e05f149	140098827	1	main_slash	7	advance_on_keypress_SLASH	116	stimuli_distractor_trianglediamonds.svg	stimuli_target_circlediamonds.svg	10	yes	57	0	598
6.6.0	win	2022-12-14	18:40:27	18:45:41	313210	629e241d171ec6698e05f149	140098827	1	main_slash	7	main_slash	117	stimuli_target_trianglesquares.svg	stimuli_distractor_trianglediamonds.svg	18	yes	53	1	732
6.6.0	win	2022-12-14	18:40:27	18:45:41	313210	629e241d171ec6698e05f149	140098827	1	main_slash	7	advance_on_keypress_SLASH	118	stimuli_target_trianglesquares.svg	stimuli_distractor_trianglediamonds.svg	18	yes	57	0	182
6.6.0	win	2022-12-14	18:40:27	18:45:43	314659	629e241d171ec6698e05f149	140098827	1	main_slash	7	main_slash	119	stimuli_target_squarediamonds.svg	stimuli_distractor_trianglediamonds.svg	4	yes	53	1	646
6.6.0	win	2022-12-14	18:40:27	18:45:43	314659	629e241d171ec6698e05f149	140098827	1	main_slash	7	advance_on_keypress_SLASH	120	stimuli_target_squarediamonds.svg	stimuli_distractor_trianglediamonds.svg	4	yes	57	0	162
6.6.0	win	2022-12-14	18:40:27	18:45:44	316195	629e241d171ec6698e05f149	140098827	1	main_slash	7	main_slash	121	stimuli_target_diamondcircles.svg	stimuli_distractor_diamondtriangles.svg	23	yes	53	1	747
6.6.0	win	2022-12-14	18:40:27	18:45:44	316195	629e241d171ec6698e05f149	140098827	1	main_slash	7	advance_on_keypress_SLASH	122	stimuli_target_diamondcircles.svg	stimuli_distractor_diamondtriangles.svg	23	yes	57	0	283
6.6.0	win	2022-12-14	18:40:27	18:45:46	317916	629e241d171ec6698e05f149	140098827	1	main_slash	7	main_slash	123	stimuli_distractor_diamondtriangles.svg	stimuli_target_diamondcircles.svg	31	yes	53	1	799
6.6.0	win	2022-12-14	18:40:27	18:45:46	317916	629e241d171ec6698e05f149	140098827	1	main_slash	7	advance_on_keypress_SLASH	124	stimuli_distractor_diamondtriangles.svg	stimuli_target_diamondcircles.svg	31	yes	57	0	173
6.6.0	win	2022-12-14	18:40:27	18:45:47	319348	629e241d171ec6698e05f149	140098827	1	main_slash	7	main_slash	125	stimuli_distractor_trianglediamonds.svg	stimuli_target_squaretriangles.svg	11	yes	53	1	630
6.6.0	win	2022-12-14	18:40:27	18:45:47	319348	629e241d171ec6698e05f149	140098827	1	main_slash	7	advance_on_keypress_SLASH	126	stimuli_distractor_trianglediamonds.svg	stimuli_target_squaretriangles.svg	11	yes	57	0	155
6.6.0	win	2022-12-14	18:40:27	18:45:49	320867	629e241d171ec6698e05f149	140098827	1	main_slash	7	main_slash	127	stimuli_target_trianglecircles.svg	stimuli_distractor_diamondtriangles.svg	21	yes	53	1	732
6.6.0	win	2022-12-14	18:40:27	18:45:49	320867	629e241d171ec6698e05f149	140098827	1	main_slash	7	advance_on_keypress_SLASH	128	stimuli_target_trianglecircles.svg	stimuli_distractor_diamondtriangles.svg	21	yes	57	0	173
6.6.0	win	2022-12-14	18:40:27	18:45:50	322419	629e241d171ec6698e05f149	140098827	1	main_slash	7	main_slash	129	stimuli_distractor_diamondtriangles.svg	stimuli_target_trianglecircles.svg	29	yes	53	1	749
6.6.0	win	2022-12-14	18:40:27	18:45:50	322419	629e241d171ec6698e05f149	140098827	1	main_slash	7	advance_on_keypress_SLASH	130	stimuli_distractor_diamondtriangles.svg	stimuli_target_trianglecircles.svg	29	yes	57	0	285
6.6.0	win	2022-12-14	18:40:27	18:45:52	324060	629e241d171ec6698e05f149	140098827	1	main_slash	7	main_slash	131	stimuli_distractor_diamondtriangles.svg	stimuli_target_circletriangles.svg	13	yes	53	1	721
6.6.0	win	2022-12-14	18:40:27	18:45:52	324060	629e241d171ec6698e05f149	140098827	1	main_slash	7	advance_on_keypress_SLASH	132	stimuli_distractor_diamondtriangles.svg	stimuli_target_circletriangles.svg	13	yes	57	0	387
6.6.0	win	2022-12-14	18:40:27	18:45:55	327091	629e241d171ec6698e05f149	140098827	1	main_slash	7	main_slash	133	stimuli_distractor_trianglediamonds.svg	stimuli_distractor_trianglediamonds.svg	34	no	0	1	2000
6.6.0	win	2022-12-14	18:40:27	18:45:55	327091	629e241d171ec6698e05f149	140098827	1	main_slash	7	advance_on_keypress_SLASH	134	stimuli_distractor_trianglediamonds.svg	stimuli_distractor_trianglediamonds.svg	34	no	57	0	415
6.6.0	win	2022-12-14	18:40:27	18:45:57	328893	629e241d171ec6698e05f149	140098827	1	main_slash	7	main_slash	135	stimuli_distractor_trianglediamonds.svg	stimuli_target_diamondcircles.svg	27	yes	53	1	749
6.6.0	win	2022-12-14	18:40:27	18:45:57	328893	629e241d171ec6698e05f149	140098827	1	main_slash	7	advance_on_keypress_SLASH	136	stimuli_distractor_trianglediamonds.svg	stimuli_target_diamondcircles.svg	27	yes	57	0	292
6.6.0	win	2022-12-14	18:40:27	18:45:58	330494	629e241d171ec6698e05f149	140098827	1	main_slash	7	main_slash	137	stimuli_target_trianglesquares.svg	stimuli_distractor_diamondtriangles.svg	22	yes	53	1	664
6.6.0	win	2022-12-14	18:40:27	18:45:58	330494	629e241d171ec6698e05f149	140098827	1	main_slash	7	advance_on_keypress_SLASH	138	stimuli_target_trianglesquares.svg	stimuli_distractor_diamondtriangles.svg	22	yes	57	0	333
6.6.0	win	2022-12-14	18:40:27	18:46:00	332213	629e241d171ec6698e05f149	140098827	1	main_slash	7	main_slash	139	stimuli_distractor_diamondtriangles.svg	stimuli_target_squarediamonds.svg	16	yes	53	1	750
6.6.0	win	2022-12-14	18:40:27	18:46:00	332213	629e241d171ec6698e05f149	140098827	1	main_slash	7	advance_on_keypress_SLASH	140	stimuli_distractor_diamondtriangles.svg	stimuli_target_squarediamonds.svg	16	yes	57	0	262
6.6.0	win	2022-12-14	18:40:27	18:46:02	333846	629e241d171ec6698e05f149	140098827	1	main_slash	7	main_slash	141	stimuli_target_trianglecircles.svg	stimuli_distractor_trianglediamonds.svg	17	yes	53	1	747
6.6.0	win	2022-12-14	18:40:27	18:46:02	333846	629e241d171ec6698e05f149	140098827	1	main_slash	7	advance_on_keypress_SLASH	142	stimuli_target_trianglecircles.svg	stimuli_distractor_trianglediamonds.svg	17	yes	57	0	187
6.6.0	win	2022-12-14	18:40:27	18:46:03	335325	629e241d171ec6698e05f149	140098827	1	main_slash	7	main_slash	143	stimuli_target_squaretriangles.svg	stimuli_distractor_diamondtriangles.svg	7	yes	53	1	658
6.6.0	win	2022-12-14	18:40:27	18:46:03	335325	629e241d171ec6698e05f149	140098827	1	main_slash	7	advance_on_keypress_SLASH	144	stimuli_target_squaretriangles.svg	stimuli_distractor_diamondtriangles.svg	7	yes	57	0	486
6.6.0	win	2022-12-14	18:40:27	18:46:05	337302	629e241d171ec6698e05f149	140098827	1	main_slash	7	main_slash	145	stimuli_distractor_diamondtriangles.svg	stimuli_target_squaretriangles.svg	15	yes	53	1	849
6.6.0	win	2022-12-14	18:40:27	18:46:05	337302	629e241d171ec6698e05f149	140098827	1	main_slash	7	advance_on_keypress_SLASH	146	stimuli_distractor_diamondtriangles.svg	stimuli_target_squaretriangles.svg	15	yes	57	0	350
6.6.0	win	2022-12-14	18:40:27	18:46:08	340287	629e241d171ec6698e05f149	140098827	1	main_slash	7	main_slash	147	stimuli_distractor_diamondtriangles.svg	stimuli_distractor_diamondtriangles.svg	39	no	0	1	2000
6.6.0	win	2022-12-14	18:40:27	18:46:08	340287	629e241d171ec6698e05f149	140098827	1	main_slash	7	advance_on_keypress_SLASH	148	stimuli_distractor_diamondtriangles.svg	stimuli_distractor_diamondtriangles.svg	39	no	57	0	252
6.6.0	win	2022-12-14	18:40:27	18:46:10	341798	629e241d171ec6698e05f149	140098827	1	main_slash	7	main_slash	149	stimuli_distractor_trianglediamonds.svg	stimuli_target_trianglecircles.svg	25	yes	53	1	625
6.6.0	win	2022-12-14	18:40:27	18:46:10	341798	629e241d171ec6698e05f149	140098827	1	main_slash	7	advance_on_keypress_SLASH	150	stimuli_distractor_trianglediamonds.svg	stimuli_target_trianglecircles.svg	25	yes	57	0	182
6.6.0	win	2022-12-14	18:40:27	18:46:11	343343	629e241d171ec6698e05f149	140098827	1	main_slash	7	main_slash	151	stimuli_distractor_diamondtriangles.svg	stimuli_target_diamondsquares.svg	32	yes	53	1	717
6.6.0	win	2022-12-14	18:40:27	18:46:11	343343	629e241d171ec6698e05f149	140098827	1	main_slash	7	advance_on_keypress_SLASH	152	stimuli_distractor_diamondtriangles.svg	stimuli_target_diamondsquares.svg	32	yes	57	0	175
6.6.0	win	2022-12-14	18:40:27	18:46:13	344911	629e241d171ec6698e05f149	140098827	1	main_slash	7	main_slash	153	stimuli_distractor_trianglediamonds.svg	stimuli_target_squarediamonds.svg	12	yes	53	1	750
6.6.0	win	2022-12-14	18:40:27	18:46:13	344911	629e241d171ec6698e05f149	140098827	1	main_slash	7	advance_on_keypress_SLASH	154	stimuli_distractor_trianglediamonds.svg	stimuli_target_squarediamonds.svg	12	yes	57	0	159
6.6.0	win	2022-12-14	18:40:27	18:46:14	346375	629e241d171ec6698e05f149	140098827	1	main_slash	7	main_slash	155	stimuli_distractor_diamondtriangles.svg	stimuli_target_circlediamonds.svg	14	yes	53	1	664
6.6.0	win	2022-12-14	18:40:27	18:46:14	346375	629e241d171ec6698e05f149	140098827	1	main_slash	7	advance_on_keypress_SLASH	156	stimuli_distractor_diamondtriangles.svg	stimuli_target_circlediamonds.svg	14	yes	57	0	180
6.6.0	win	2022-12-14	18:40:27	18:46:16	347911	629e241d171ec6698e05f149	140098827	1	main_slash	7	main_slash	157	stimuli_target_diamondsquares.svg	stimuli_distractor_diamondtriangles.svg	24	yes	53	1	732
6.6.0	win	2022-12-14	18:40:27	18:46:16	347911	629e241d171ec6698e05f149	140098827	1	main_slash	7	advance_on_keypress_SLASH	158	stimuli_target_diamondsquares.svg	stimuli_distractor_diamondtriangles.svg	24	yes	57	0	181
6.6.0	win	2022-12-14	18:40:27	18:46:19	350715	629e241d171ec6698e05f149	140098827	1	main_slash	7	main_slash	159	stimuli_distractor_trianglediamonds.svg	stimuli_distractor_diamondtriangles.svg	35	no	0	1	2000
6.6.0	win	2022-12-14	18:40:27	18:46:19	350715	629e241d171ec6698e05f149	140098827	1	main_slash	7	advance_on_keypress_SLASH	160	stimuli_distractor_trianglediamonds.svg	stimuli_distractor_diamondtriangles.svg	35	no	57	0	434
6.6.0	win	2022-12-14	18:40:27	18:47:27	419394	629e241d171ec6698e05f149	140098827	1	practice_z	9	practice_z	1	stimuli_distractor_trianglediamonds.svg	stimuli_target_squarediamonds.svg	11	yes	44	1	576
6.6.0	win	2022-12-14	18:40:27	18:47:27	419394	629e241d171ec6698e05f149	140098827	1	practice_z	9	advance_on_keypress_ZEE	2	stimuli_distractor_trianglediamonds.svg	stimuli_target_squarediamonds.svg	11	yes	57	0	518
6.6.0	win	2022-12-14	18:40:27	18:47:30	422282	629e241d171ec6698e05f149	140098827	1	practice_z	9	practice_z	3	stimuli_distractor_diamondtriangles.svg	stimuli_target_circletriangles.svg	7	yes	44	1	729
6.6.0	win	2022-12-14	18:40:27	18:47:30	422282	629e241d171ec6698e05f149	140098827	1	practice_z	9	advance_on_keypress_ZEE	4	stimuli_distractor_diamondtriangles.svg	stimuli_target_circletriangles.svg	7	yes	57	0	369
6.6.0	win	2022-12-14	18:40:27	18:47:33	424947	629e241d171ec6698e05f149	140098827	1	practice_z	9	practice_z	5	stimuli_target_diamondsquares.svg	stimuli_distractor_diamondtriangles.svg	3	yes	44	1	656
6.6.0	win	2022-12-14	18:40:27	18:47:33	424947	629e241d171ec6698e05f149	140098827	1	practice_z	9	advance_on_keypress_ZEE	6	stimuli_target_diamondsquares.svg	stimuli_distractor_diamondtriangles.svg	3	yes	57	0	427
6.6.0	win	2022-12-14	18:40:27	18:47:35	427475	629e241d171ec6698e05f149	140098827	1	practice_z	9	practice_z	7	stimuli_target_circlediamonds.svg	stimuli_distractor_diamondtriangles.svg	1	yes	44	1	465
6.6.0	win	2022-12-14	18:40:27	18:47:35	427475	629e241d171ec6698e05f149	140098827	1	practice_z	9	advance_on_keypress_ZEE	8	stimuli_target_circlediamonds.svg	stimuli_distractor_diamondtriangles.svg	1	yes	57	0	300
6.6.0	win	2022-12-14	18:40:27	18:47:38	430147	629e241d171ec6698e05f149	140098827	1	practice_z	9	practice_z	9	stimuli_target_squarediamonds.svg	stimuli_distractor_diamondtriangles.svg	2	yes	44	1	736
6.6.0	win	2022-12-14	18:40:27	18:47:38	430147	629e241d171ec6698e05f149	140098827	1	practice_z	9	advance_on_keypress_ZEE	10	stimuli_target_squarediamonds.svg	stimuli_distractor_diamondtriangles.svg	2	yes	57	0	8080
6.6.0	win	2022-12-14	18:40:27	18:47:49	440798	629e241d171ec6698e05f149	140098827	1	practice_z	9	practice_z	11	stimuli_distractor_trianglediamonds.svg	stimuli_target_diamondcircles.svg	12	yes	44	1	924
6.6.0	win	2022-12-14	18:40:27	18:47:49	440798	629e241d171ec6698e05f149	140098827	1	practice_z	9	advance_on_keypress_ZEE	12	stimuli_distractor_trianglediamonds.svg	stimuli_target_diamondcircles.svg	12	yes	57	0	437
6.6.0	win	2022-12-14	18:40:27	18:47:53	444876	629e241d171ec6698e05f149	140098827	1	practice_z	9	practice_z	13	stimuli_distractor_trianglediamonds.svg	stimuli_distractor_diamondtriangles.svg	16	no	0	1	2000
6.6.0	win	2022-12-14	18:40:27	18:47:53	444876	629e241d171ec6698e05f149	140098827	1	practice_z	9	advance_on_keypress_ZEE	14	stimuli_distractor_trianglediamonds.svg	stimuli_distractor_diamondtriangles.svg	16	no	57	0	342
6.6.0	win	2022-12-14	18:40:27	18:47:56	447517	629e241d171ec6698e05f149	140098827	1	practice_z	9	practice_z	15	stimuli_distractor_diamondtriangles.svg	stimuli_target_trianglecircles.svg	9	yes	44	1	671
6.6.0	win	2022-12-14	18:40:27	18:47:56	447517	629e241d171ec6698e05f149	140098827	1	practice_z	9	advance_on_keypress_ZEE	16	stimuli_distractor_diamondtriangles.svg	stimuli_target_trianglecircles.svg	9	yes	57	0	290
6.6.0	win	2022-12-14	18:40:27	18:47:59	451449	629e241d171ec6698e05f149	140098827	1	practice_z	9	practice_z	17	stimuli_distractor_diamondtriangles.svg	stimuli_distractor_trianglediamonds.svg	14	no	0	1	2000
6.6.0	win	2022-12-14	18:40:27	18:47:59	451449	629e241d171ec6698e05f149	140098827	1	practice_z	9	advance_on_keypress_ZEE	18	stimuli_distractor_diamondtriangles.svg	stimuli_distractor_trianglediamonds.svg	14	no	57	0	378
6.6.0	win	2022-12-14	18:40:27	18:48:02	454129	629e241d171ec6698e05f149	140098827	1	practice_z	9	practice_z	19	stimuli_distractor_trianglediamonds.svg	stimuli_target_circlediamonds.svg	10	yes	44	1	674
6.6.0	win	2022-12-14	18:40:27	18:48:02	454129	629e241d171ec6698e05f149	140098827	1	practice_z	9	advance_on_keypress_ZEE	20	stimuli_distractor_trianglediamonds.svg	stimuli_target_circlediamonds.svg	10	yes	57	0	444
6.6.0	win	2022-12-14	18:40:27	18:48:05	456823	629e241d171ec6698e05f149	140098827	1	practice_z	9	practice_z	21	stimuli_target_circlediamonds.svg	stimuli_distractor_trianglediamonds.svg	4	yes	44	1	618
6.6.0	win	2022-12-14	18:40:27	18:48:05	456823	629e241d171ec6698e05f149	140098827	1	practice_z	9	advance_on_keypress_ZEE	22	stimuli_target_circlediamonds.svg	stimuli_distractor_trianglediamonds.svg	4	yes	57	0	279
6.6.0	win	2022-12-14	18:40:27	18:48:07	459343	629e241d171ec6698e05f149	140098827	1	practice_z	9	practice_z	23	stimuli_distractor_diamondtriangles.svg	stimuli_target_diamondcircles.svg	8	yes	44	1	619
6.6.0	win	2022-12-14	18:40:27	18:48:07	459343	629e241d171ec6698e05f149	140098827	1	practice_z	9	advance_on_keypress_ZEE	24	stimuli_distractor_diamondtriangles.svg	stimuli_target_diamondcircles.svg	8	yes	57	0	231
6.6.0	win	2022-12-14	18:40:27	18:48:10	461817	629e241d171ec6698e05f149	140098827	1	practice_z	9	practice_z	25	stimuli_target_squarediamonds.svg	stimuli_distractor_trianglediamonds.svg	5	yes	44	1	588
6.6.0	win	2022-12-14	18:40:27	18:48:10	461817	629e241d171ec6698e05f149	140098827	1	practice_z	9	advance_on_keypress_ZEE	26	stimuli_target_squarediamonds.svg	stimuli_distractor_trianglediamonds.svg	5	yes	57	0	226
6.6.0	win	2022-12-14	18:40:27	18:48:12	464281	629e241d171ec6698e05f149	140098827	1	practice_z	9	practice_z	27	stimuli_target_diamondsquares.svg	stimuli_distractor_trianglediamonds.svg	6	yes	44	1	601
6.6.0	win	2022-12-14	18:40:27	18:48:12	464281	629e241d171ec6698e05f149	140098827	1	practice_z	9	advance_on_keypress_ZEE	28	stimuli_target_diamondsquares.svg	stimuli_distractor_trianglediamonds.svg	6	yes	57	0	38
6.6.0	win	2022-12-14	18:40:27	18:48:16	467966	629e241d171ec6698e05f149	140098827	1	practice_z	9	practice_z	29	stimuli_distractor_diamondtriangles.svg	stimuli_distractor_diamondtriangles.svg	13	no	0	1	2000
6.6.0	win	2022-12-14	18:40:27	18:48:16	467966	629e241d171ec6698e05f149	140098827	1	practice_z	9	advance_on_keypress_ZEE	30	stimuli_distractor_diamondtriangles.svg	stimuli_distractor_diamondtriangles.svg	13	no	57	0	375
6.6.0	win	2022-12-14	18:40:27	18:48:20	471970	629e241d171ec6698e05f149	140098827	1	practice_z	9	practice_z	31	stimuli_distractor_trianglediamonds.svg	stimuli_distractor_trianglediamonds.svg	15	no	0	1	2000
6.6.0	win	2022-12-14	18:40:27	18:48:20	471970	629e241d171ec6698e05f149	140098827	1	practice_z	9	advance_on_keypress_ZEE	32	stimuli_distractor_trianglediamonds.svg	stimuli_distractor_trianglediamonds.svg	15	no	57	0	260
6.6.0	win	2022-12-14	18:40:27	18:48:27	478675	629e241d171ec6698e05f149	140098827	1	main_z	11	main_z	1	stimuli_distractor_diamondtriangles.svg	stimuli_target_squaretriangles.svg	15	yes	44	1	746
6.6.0	win	2022-12-14	18:40:27	18:48:27	478675	629e241d171ec6698e05f149	140098827	1	main_z	11	advance_on_keypress_ZEE	2	stimuli_distractor_diamondtriangles.svg	stimuli_target_squaretriangles.svg	15	yes	57	0	410
6.6.0	win	2022-12-14	18:40:27	18:48:29	481075	629e241d171ec6698e05f149	140098827	1	main_z	11	main_z	3	stimuli_distractor_diamondtriangles.svg	stimuli_target_squarediamonds.svg	16	yes	44	1	1361
6.6.0	win	2022-12-14	18:40:27	18:48:29	481075	629e241d171ec6698e05f149	140098827	1	main_z	11	advance_on_keypress_ZEE	4	stimuli_distractor_diamondtriangles.svg	stimuli_target_squarediamonds.svg	16	yes	57	0	328
6.6.0	win	2022-12-14	18:40:27	18:48:32	484033	629e241d171ec6698e05f149	140098827	1	main_z	11	main_z	5	stimuli_distractor_diamondtriangles.svg	stimuli_distractor_trianglediamonds.svg	38	no	0	1	2000
6.6.0	win	2022-12-14	18:40:27	18:48:32	484033	629e241d171ec6698e05f149	140098827	1	main_z	11	advance_on_keypress_ZEE	6	stimuli_distractor_diamondtriangles.svg	stimuli_distractor_trianglediamonds.svg	38	no	57	0	472
6.6.0	win	2022-12-14	18:40:27	18:48:34	485755	629e241d171ec6698e05f149	140098827	1	main_z	11	main_z	7	stimuli_target_squarediamonds.svg	stimuli_distractor_diamondtriangles.svg	8	yes	44	1	620
6.6.0	win	2022-12-14	18:40:27	18:48:34	485755	629e241d171ec6698e05f149	140098827	1	main_z	11	advance_on_keypress_ZEE	8	stimuli_target_squarediamonds.svg	stimuli_distractor_diamondtriangles.svg	8	yes	57	0	305
6.6.0	win	2022-12-14	18:40:27	18:48:37	488704	629e241d171ec6698e05f149	140098827	1	main_z	11	main_z	9	stimuli_distractor_diamondtriangles.svg	stimuli_distractor_diamondtriangles.svg	39	no	0	1	2000
6.6.0	win	2022-12-14	18:40:27	18:48:37	488704	629e241d171ec6698e05f149	140098827	1	main_z	11	advance_on_keypress_ZEE	10	stimuli_distractor_diamondtriangles.svg	stimuli_distractor_diamondtriangles.svg	39	no	57	0	113
6.6.0	win	2022-12-14	18:40:27	18:48:38	490188	629e241d171ec6698e05f149	140098827	1	main_z	11	main_z	11	stimuli_distractor_trianglediamonds.svg	stimuli_target_trianglecircles.svg	25	yes	44	1	748
6.6.0	win	2022-12-14	18:40:27	18:48:38	490188	629e241d171ec6698e05f149	140098827	1	main_z	11	advance_on_keypress_ZEE	12	stimuli_distractor_trianglediamonds.svg	stimuli_target_trianglecircles.svg	25	yes	57	0	261
6.6.0	win	2022-12-14	18:40:27	18:48:40	491780	629e241d171ec6698e05f149	140098827	1	main_z	11	main_z	13	stimuli_target_diamondcircles.svg	stimuli_distractor_trianglediamonds.svg	19	yes	44	1	705
6.6.0	win	2022-12-14	18:40:27	18:48:40	491780	629e241d171ec6698e05f149	140098827	1	main_z	11	advance_on_keypress_ZEE	14	stimuli_target_diamondcircles.svg	stimuli_distractor_trianglediamonds.svg	19	yes	57	0	203
6.6.0	win	2022-12-14	18:40:27	18:48:41	493373	629e241d171ec6698e05f149	140098827	1	main_z	11	main_z	15	stimuli_target_squaretriangles.svg	stimuli_distractor_trianglediamonds.svg	3	yes	44	1	746
6.6.0	win	2022-12-14	18:40:27	18:48:41	493373	629e241d171ec6698e05f149	140098827	1	main_z	11	advance_on_keypress_ZEE	16	stimuli_target_squaretriangles.svg	stimuli_distractor_trianglediamonds.svg	3	yes	57	0	138
6.6.0	win	2022-12-14	18:40:27	18:48:43	494941	629e241d171ec6698e05f149	140098827	1	main_z	11	main_z	17	stimuli_distractor_diamondtriangles.svg	stimuli_target_circlediamonds.svg	14	yes	44	1	795
6.6.0	win	2022-12-14	18:40:27	18:48:43	494941	629e241d171ec6698e05f149	140098827	1	main_z	11	advance_on_keypress_ZEE	18	stimuli_distractor_diamondtriangles.svg	stimuli_target_circlediamonds.svg	14	yes	57	0	123
6.6.0	win	2022-12-14	18:40:27	18:48:44	496461	629e241d171ec6698e05f149	140098827	1	main_z	11	main_z	19	stimuli_target_trianglesquares.svg	stimuli_distractor_trianglediamonds.svg	18	yes	44	1	764
6.6.0	win	2022-12-14	18:40:27	18:48:44	496461	629e241d171ec6698e05f149	140098827	1	main_z	11	advance_on_keypress_ZEE	20	stimuli_target_trianglesquares.svg	stimuli_distractor_trianglediamonds.svg	18	yes	57	0	148
6.6.0	win	2022-12-14	18:40:27	18:48:47	499232	629e241d171ec6698e05f149	140098827	1	main_z	11	main_z	21	stimuli_distractor_diamondtriangles.svg	stimuli_distractor_diamondtriangles.svg	40	no	0	1	2000
6.6.0	win	2022-12-14	18:40:27	18:48:47	499232	629e241d171ec6698e05f149	140098827	1	main_z	11	advance_on_keypress_ZEE	22	stimuli_distractor_diamondtriangles.svg	stimuli_distractor_diamondtriangles.svg	40	no	57	0	331
6.6.0	win	2022-12-14	18:40:27	18:48:49	500862	629e241d171ec6698e05f149	140098827	1	main_z	11	main_z	23	stimuli_distractor_trianglediamonds.svg	stimuli_target_squaretriangles.svg	11	yes	44	1	660
6.6.0	win	2022-12-14	18:40:27	18:48:49	500862	629e241d171ec6698e05f149	140098827	1	main_z	11	advance_on_keypress_ZEE	24	stimuli_distractor_trianglediamonds.svg	stimuli_target_squaretriangles.svg	11	yes	57	0	128
6.6.0	win	2022-12-14	18:40:27	18:48:50	502326	629e241d171ec6698e05f149	140098827	1	main_z	11	main_z	25	stimuli_distractor_trianglediamonds.svg	stimuli_target_diamondsquares.svg	28	yes	44	1	706
6.6.0	win	2022-12-14	18:40:27	18:48:50	502326	629e241d171ec6698e05f149	140098827	1	main_z	11	advance_on_keypress_ZEE	26	stimuli_distractor_trianglediamonds.svg	stimuli_target_diamondsquares.svg	28	yes	57	0	132
6.6.0	win	2022-12-14	18:40:27	18:48:52	504486	629e241d171ec6698e05f149	140098827	1	main_z	11	main_z	27	stimuli_target_circlediamonds.svg	stimuli_distractor_trianglediamonds.svg	2	yes	44	1	1382
6.6.0	win	2022-12-14	18:40:27	18:48:52	504486	629e241d171ec6698e05f149	140098827	1	main_z	11	advance_on_keypress_ZEE	28	stimuli_target_circlediamonds.svg	stimuli_distractor_trianglediamonds.svg	2	yes	57	0	205
6.6.0	win	2022-12-14	18:40:27	18:48:54	505975	629e241d171ec6698e05f149	140098827	1	main_z	11	main_z	29	stimuli_distractor_diamondtriangles.svg	stimuli_target_circletriangles.svg	13	yes	44	1	651
6.6.0	win	2022-12-14	18:40:27	18:48:54	505975	629e241d171ec6698e05f149	140098827	1	main_z	11	advance_on_keypress_ZEE	30	stimuli_distractor_diamondtriangles.svg	stimuli_target_circletriangles.svg	13	yes	57	0	95
6.6.0	win	2022-12-14	18:40:27	18:48:57	508708	629e241d171ec6698e05f149	140098827	1	main_z	11	main_z	31	stimuli_distractor_trianglediamonds.svg	stimuli_distractor_diamondtriangles.svg	35	no	0	1	2000
6.6.0	win	2022-12-14	18:40:27	18:48:57	508708	629e241d171ec6698e05f149	140098827	1	main_z	11	advance_on_keypress_ZEE	32	stimuli_distractor_trianglediamonds.svg	stimuli_distractor_diamondtriangles.svg	35	no	57	0	304
6.6.0	win	2022-12-14	18:40:27	18:49:00	511644	629e241d171ec6698e05f149	140098827	1	main_z	11	main_z	33	stimuli_distractor_trianglediamonds.svg	stimuli_distractor_trianglediamonds.svg	34	no	0	1	2000
6.6.0	win	2022-12-14	18:40:27	18:49:00	511644	629e241d171ec6698e05f149	140098827	1	main_z	11	advance_on_keypress_ZEE	34	stimuli_distractor_trianglediamonds.svg	stimuli_distractor_trianglediamonds.svg	34	no	57	0	233
6.6.0	win	2022-12-14	18:40:27	18:49:01	513199	629e241d171ec6698e05f149	140098827	1	main_z	11	main_z	35	stimuli_target_diamondsquares.svg	stimuli_distractor_trianglediamonds.svg	20	yes	44	1	686
6.6.0	win	2022-12-14	18:40:27	18:49:01	513199	629e241d171ec6698e05f149	140098827	1	main_z	11	advance_on_keypress_ZEE	36	stimuli_target_diamondsquares.svg	stimuli_distractor_trianglediamonds.svg	20	yes	57	0	81
6.6.0	win	2022-12-14	18:40:27	18:49:03	514560	629e241d171ec6698e05f149	140098827	1	main_z	11	main_z	37	stimuli_target_circlediamonds.svg	stimuli_distractor_diamondtriangles.svg	6	yes	44	1	644
6.6.0	win	2022-12-14	18:40:27	18:49:03	514560	629e241d171ec6698e05f149	140098827	1	main_z	11	advance_on_keypress_ZEE	38	stimuli_target_circlediamonds.svg	stimuli_distractor_diamondtriangles.svg	6	yes	57	0	105
6.6.0	win	2022-12-14	18:40:27	18:49:04	515904	629e241d171ec6698e05f149	140098827	1	main_z	11	main_z	39	stimuli_target_squaretriangles.svg	stimuli_distractor_diamondtriangles.svg	7	yes	44	1	604
6.6.0	win	2022-12-14	18:40:27	18:49:04	515904	629e241d171ec6698e05f149	140098827	1	main_z	11	advance_on_keypress_ZEE	40	stimuli_target_squaretriangles.svg	stimuli_distractor_diamondtriangles.svg	7	yes	57	0	90
6.6.0	win	2022-12-14	18:40:27	18:49:05	517272	629e241d171ec6698e05f149	140098827	1	main_z	11	main_z	41	stimuli_target_trianglecircles.svg	stimuli_distractor_diamondtriangles.svg	21	yes	44	1	637
6.6.0	win	2022-12-14	18:40:27	18:49:05	517272	629e241d171ec6698e05f149	140098827	1	main_z	11	advance_on_keypress_ZEE	42	stimuli_target_trianglecircles.svg	stimuli_distractor_diamondtriangles.svg	21	yes	57	0	130
6.6.0	win	2022-12-14	18:40:27	18:49:07	518616	629e241d171ec6698e05f149	140098827	1	main_z	11	main_z	43	stimuli_target_circletriangles.svg	stimuli_distractor_trianglediamonds.svg	1	yes	44	1	581
6.6.0	win	2022-12-14	18:40:27	18:49:07	518616	629e241d171ec6698e05f149	140098827	1	main_z	11	advance_on_keypress_ZEE	44	stimuli_target_circletriangles.svg	stimuli_distractor_trianglediamonds.svg	1	yes	57	0	92
6.6.0	win	2022-12-14	18:40:27	18:49:08	520032	629e241d171ec6698e05f149	140098827	1	main_z	11	main_z	45	stimuli_distractor_trianglediamonds.svg	stimuli_target_circletriangles.svg	9	yes	44	1	695
6.6.0	win	2022-12-14	18:40:27	18:49:08	520032	629e241d171ec6698e05f149	140098827	1	main_z	11	advance_on_keypress_ZEE	46	stimuli_distractor_trianglediamonds.svg	stimuli_target_circletriangles.svg	9	yes	57	0	122
6.6.0	win	2022-12-14	18:40:27	18:49:09	521489	629e241d171ec6698e05f149	140098827	1	main_z	11	main_z	47	stimuli_distractor_diamondtriangles.svg	stimuli_target_diamondsquares.svg	32	yes	44	1	700
6.6.0	win	2022-12-14	18:40:27	18:49:09	521489	629e241d171ec6698e05f149	140098827	1	main_z	11	advance_on_keypress_ZEE	48	stimuli_distractor_diamondtriangles.svg	stimuli_target_diamondsquares.svg	32	yes	57	0	118
6.6.0	win	2022-12-14	18:40:27	18:49:11	523169	629e241d171ec6698e05f149	140098827	1	main_z	11	main_z	49	stimuli_distractor_trianglediamonds.svg	stimuli_target_diamondcircles.svg	27	yes	44	1	912
6.6.0	win	2022-12-14	18:40:27	18:49:11	523169	629e241d171ec6698e05f149	140098827	1	main_z	11	advance_on_keypress_ZEE	50	stimuli_distractor_trianglediamonds.svg	stimuli_target_diamondcircles.svg	27	yes	57	0	97
6.6.0	win	2022-12-14	18:40:27	18:49:13	524689	629e241d171ec6698e05f149	140098827	1	main_z	11	main_z	51	stimuli_target_squarediamonds.svg	stimuli_distractor_trianglediamonds.svg	4	yes	44	1	781
6.6.0	win	2022-12-14	18:40:27	18:49:13	524689	629e241d171ec6698e05f149	140098827	1	main_z	11	advance_on_keypress_ZEE	52	stimuli_target_squarediamonds.svg	stimuli_distractor_trianglediamonds.svg	4	yes	57	0	500
6.6.0	win	2022-12-14	18:40:27	18:49:15	526577	629e241d171ec6698e05f149	140098827	1	main_z	11	main_z	53	stimuli_target_diamondsquares.svg	stimuli_distractor_diamondtriangles.svg	24	yes	44	1	750
6.6.0	win	2022-12-14	18:40:27	18:49:15	526577	629e241d171ec6698e05f149	140098827	1	main_z	11	advance_on_keypress_ZEE	54	stimuli_target_diamondsquares.svg	stimuli_distractor_diamondtriangles.svg	24	yes	57	0	102
6.6.0	win	2022-12-14	18:40:27	18:49:17	529328	629e241d171ec6698e05f149	140098827	1	main_z	11	main_z	55	stimuli_distractor_trianglediamonds.svg	stimuli_distractor_diamondtriangles.svg	36	no	0	1	2000
6.6.0	win	2022-12-14	18:40:27	18:49:17	529328	629e241d171ec6698e05f149	140098827	1	main_z	11	advance_on_keypress_ZEE	56	stimuli_distractor_trianglediamonds.svg	stimuli_distractor_diamondtriangles.svg	36	no	57	0	358
6.6.0	win	2022-12-14	18:40:27	18:49:19	530954	629e241d171ec6698e05f149	140098827	1	main_z	11	main_z	57	stimuli_distractor_diamondtriangles.svg	stimuli_target_trianglesquares.svg	30	yes	44	1	640
6.6.0	win	2022-12-14	18:40:27	18:49:19	530954	629e241d171ec6698e05f149	140098827	1	main_z	11	advance_on_keypress_ZEE	58	stimuli_distractor_diamondtriangles.svg	stimuli_target_trianglesquares.svg	30	yes	57	0	131
6.6.0	win	2022-12-14	18:40:27	18:49:20	532458	629e241d171ec6698e05f149	140098827	1	main_z	11	main_z	59	stimuli_target_trianglecircles.svg	stimuli_distractor_trianglediamonds.svg	17	yes	44	1	742
6.6.0	win	2022-12-14	18:40:27	18:49:20	532458	629e241d171ec6698e05f149	140098827	1	main_z	11	advance_on_keypress_ZEE	60	stimuli_target_trianglecircles.svg	stimuli_distractor_trianglediamonds.svg	17	yes	57	0	143
6.6.0	win	2022-12-14	18:40:27	18:49:22	533963	629e241d171ec6698e05f149	140098827	1	main_z	11	main_z	61	stimuli_target_diamondcircles.svg	stimuli_distractor_diamondtriangles.svg	23	yes	44	1	728
6.6.0	win	2022-12-14	18:40:27	18:49:22	533963	629e241d171ec6698e05f149	140098827	1	main_z	11	advance_on_keypress_ZEE	62	stimuli_target_diamondcircles.svg	stimuli_distractor_diamondtriangles.svg	23	yes	57	0	105
6.6.0	win	2022-12-14	18:40:27	18:49:25	536703	629e241d171ec6698e05f149	140098827	1	main_z	11	main_z	63	stimuli_distractor_trianglediamonds.svg	stimuli_distractor_trianglediamonds.svg	33	no	0	1	2000
6.6.0	win	2022-12-14	18:40:27	18:49:25	536703	629e241d171ec6698e05f149	140098827	1	main_z	11	advance_on_keypress_ZEE	64	stimuli_distractor_trianglediamonds.svg	stimuli_distractor_trianglediamonds.svg	33	no	57	0	241
6.6.0	win	2022-12-14	18:40:27	18:49:26	538355	629e241d171ec6698e05f149	140098827	1	main_z	11	main_z	65	stimuli_target_circletriangles.svg	stimuli_distractor_diamondtriangles.svg	5	yes	44	1	783
6.6.0	win	2022-12-14	18:40:27	18:49:26	538355	629e241d171ec6698e05f149	140098827	1	main_z	11	advance_on_keypress_ZEE	66	stimuli_target_circletriangles.svg	stimuli_distractor_diamondtriangles.svg	5	yes	57	0	255
6.6.0	win	2022-12-14	18:40:27	18:49:28	540020	629e241d171ec6698e05f149	140098827	1	main_z	11	main_z	67	stimuli_target_trianglesquares.svg	stimuli_distractor_diamondtriangles.svg	22	yes	44	1	779
6.6.0	win	2022-12-14	18:40:27	18:49:28	540020	629e241d171ec6698e05f149	140098827	1	main_z	11	advance_on_keypress_ZEE	68	stimuli_target_trianglesquares.svg	stimuli_distractor_diamondtriangles.svg	22	yes	57	0	170
6.6.0	win	2022-12-14	18:40:27	18:49:30	541603	629e241d171ec6698e05f149	140098827	1	main_z	11	main_z	69	stimuli_distractor_diamondtriangles.svg	stimuli_target_diamondcircles.svg	31	yes	44	1	778
6.6.0	win	2022-12-14	18:40:27	18:49:30	541603	629e241d171ec6698e05f149	140098827	1	main_z	11	advance_on_keypress_ZEE	70	stimuli_distractor_diamondtriangles.svg	stimuli_target_diamondcircles.svg	31	yes	57	0	113
6.6.0	win	2022-12-14	18:40:27	18:49:32	544344	629e241d171ec6698e05f149	140098827	1	main_z	11	main_z	71	stimuli_distractor_diamondtriangles.svg	stimuli_distractor_trianglediamonds.svg	37	no	0	1	2000
6.6.0	win	2022-12-14	18:40:27	18:49:32	544344	629e241d171ec6698e05f149	140098827	1	main_z	11	advance_on_keypress_ZEE	72	stimuli_distractor_diamondtriangles.svg	stimuli_distractor_trianglediamonds.svg	37	no	57	0	233
6.6.0	win	2022-12-14	18:40:27	18:49:34	545916	629e241d171ec6698e05f149	140098827	1	main_z	11	main_z	73	stimuli_distractor_trianglediamonds.svg	stimuli_target_circlediamonds.svg	10	yes	44	1	703
6.6.0	win	2022-12-14	18:40:27	18:49:34	545916	629e241d171ec6698e05f149	140098827	1	main_z	11	advance_on_keypress_ZEE	74	stimuli_distractor_trianglediamonds.svg	stimuli_target_circlediamonds.svg	10	yes	57	0	105
6.6.0	win	2022-12-14	18:40:27	18:49:35	547428	629e241d171ec6698e05f149	140098827	1	main_z	11	main_z	75	stimuli_distractor_diamondtriangles.svg	stimuli_target_trianglecircles.svg	29	yes	44	1	764
6.6.0	win	2022-12-14	18:40:27	18:49:35	547428	629e241d171ec6698e05f149	140098827	1	main_z	11	advance_on_keypress_ZEE	76	stimuli_distractor_diamondtriangles.svg	stimuli_target_trianglecircles.svg	29	yes	57	0	84
6.6.0	win	2022-12-14	18:40:27	18:49:37	548893	629e241d171ec6698e05f149	140098827	1	main_z	11	main_z	77	stimuli_distractor_trianglediamonds.svg	stimuli_target_squarediamonds.svg	12	yes	44	1	743
6.6.0	win	2022-12-14	18:40:27	18:49:37	548893	629e241d171ec6698e05f149	140098827	1	main_z	11	advance_on_keypress_ZEE	78	stimuli_distractor_trianglediamonds.svg	stimuli_target_squarediamonds.svg	12	yes	57	0	111
6.6.0	win	2022-12-14	18:40:27	18:49:38	550341	629e241d171ec6698e05f149	140098827	1	main_z	11	main_z	79	stimuli_distractor_trianglediamonds.svg	stimuli_target_trianglesquares.svg	26	yes	44	1	706
6.6.0	win	2022-12-14	18:40:27	18:49:38	550341	629e241d171ec6698e05f149	140098827	1	main_z	11	advance_on_keypress_ZEE	80	stimuli_distractor_trianglediamonds.svg	stimuli_target_trianglesquares.svg	26	yes	57	0	84
6.6.0	win	2022-12-14	18:40:27	18:49:40	551821	629e241d171ec6698e05f149	140098827	1	main_z	11	main_z	81	stimuli_target_trianglesquares.svg	stimuli_distractor_trianglediamonds.svg	18	yes	44	1	751
6.6.0	win	2022-12-14	18:40:27	18:49:40	551821	629e241d171ec6698e05f149	140098827	1	main_z	11	advance_on_keypress_ZEE	82	stimuli_target_trianglesquares.svg	stimuli_distractor_trianglediamonds.svg	18	yes	57	0	103
6.6.0	win	2022-12-14	18:40:27	18:49:43	554571	629e241d171ec6698e05f149	140098827	1	main_z	11	main_z	83	stimuli_distractor_diamondtriangles.svg	stimuli_distractor_diamondtriangles.svg	40	no	0	1	2000
6.6.0	win	2022-12-14	18:40:27	18:49:43	554571	629e241d171ec6698e05f149	140098827	1	main_z	11	advance_on_keypress_ZEE	84	stimuli_distractor_diamondtriangles.svg	stimuli_distractor_diamondtriangles.svg	40	no	57	0	8
6.6.0	win	2022-12-14	18:40:27	18:49:44	555957	629e241d171ec6698e05f149	140098827	1	main_z	11	main_z	85	stimuli_distractor_diamondtriangles.svg	stimuli_target_diamondsquares.svg	32	yes	44	1	734
6.6.0	win	2022-12-14	18:40:27	18:49:44	555957	629e241d171ec6698e05f149	140098827	1	main_z	11	advance_on_keypress_ZEE	86	stimuli_distractor_diamondtriangles.svg	stimuli_target_diamondsquares.svg	32	yes	57	0	95
6.6.0	win	2022-12-14	18:40:27	18:49:45	557366	629e241d171ec6698e05f149	140098827	1	main_z	11	main_z	87	stimuli_target_squaretriangles.svg	stimuli_distractor_trianglediamonds.svg	3	yes	44	1	674
6.6.0	win	2022-12-14	18:40:27	18:49:45	557366	629e241d171ec6698e05f149	140098827	1	main_z	11	advance_on_keypress_ZEE	88	stimuli_target_squaretriangles.svg	stimuli_distractor_trianglediamonds.svg	3	yes	57	0	133
6.6.0	win	2022-12-14	18:40:27	18:49:48	560143	629e241d171ec6698e05f149	140098827	1	main_z	11	main_z	89	stimuli_distractor_diamondtriangles.svg	stimuli_distractor_trianglediamonds.svg	37	no	0	1	2000
6.6.0	win	2022-12-14	18:40:27	18:49:48	560143	629e241d171ec6698e05f149	140098827	1	main_z	11	advance_on_keypress_ZEE	90	stimuli_distractor_diamondtriangles.svg	stimuli_distractor_trianglediamonds.svg	37	no	57	0	237
6.6.0	win	2022-12-14	18:40:27	18:49:50	561830	629e241d171ec6698e05f149	140098827	1	main_z	11	main_z	91	stimuli_distractor_diamondtriangles.svg	stimuli_target_diamondcircles.svg	31	yes	44	1	818
6.6.0	win	2022-12-14	18:40:27	18:49:50	561830	629e241d171ec6698e05f149	140098827	1	main_z	11	advance_on_keypress_ZEE	92	stimuli_distractor_diamondtriangles.svg	stimuli_target_diamondcircles.svg	31	yes	57	0	87
6.6.0	win	2022-12-14	18:40:27	18:49:51	563311	629e241d171ec6698e05f149	140098827	1	main_z	11	main_z	93	stimuli_target_trianglecircles.svg	stimuli_distractor_trianglediamonds.svg	17	yes	44	1	746
6.6.0	win	2022-12-14	18:40:27	18:49:51	563311	629e241d171ec6698e05f149	140098827	1	main_z	11	advance_on_keypress_ZEE	94	stimuli_target_trianglecircles.svg	stimuli_distractor_trianglediamonds.svg	17	yes	57	0	99
6.6.0	win	2022-12-14	18:40:27	18:49:53	564751	629e241d171ec6698e05f149	140098827	1	main_z	11	main_z	95	stimuli_distractor_trianglediamonds.svg	stimuli_target_squaretriangles.svg	11	yes	44	1	701
6.6.0	win	2022-12-14	18:40:27	18:49:53	564751	629e241d171ec6698e05f149	140098827	1	main_z	11	advance_on_keypress_ZEE	96	stimuli_distractor_trianglediamonds.svg	stimuli_target_squaretriangles.svg	11	yes	57	0	87
6.6.0	win	2022-12-14	18:40:27	18:49:54	566264	629e241d171ec6698e05f149	140098827	1	main_z	11	main_z	97	stimuli_target_trianglesquares.svg	stimuli_distractor_diamondtriangles.svg	22	yes	44	1	780
6.6.0	win	2022-12-14	18:40:27	18:49:54	566264	629e241d171ec6698e05f149	140098827	1	main_z	11	advance_on_keypress_ZEE	98	stimuli_target_trianglesquares.svg	stimuli_distractor_diamondtriangles.svg	22	yes	57	0	83
6.6.0	win	2022-12-14	18:40:27	18:49:56	567655	629e241d171ec6698e05f149	140098827	1	main_z	11	main_z	99	stimuli_distractor_diamondtriangles.svg	stimuli_target_circlediamonds.svg	14	yes	44	1	670
6.6.0	win	2022-12-14	18:40:27	18:49:56	567655	629e241d171ec6698e05f149	140098827	1	main_z	11	advance_on_keypress_ZEE	100	stimuli_distractor_diamondtriangles.svg	stimuli_target_circlediamonds.svg	14	yes	57	0	73
6.6.0	win	2022-12-14	18:40:27	18:49:57	569056	629e241d171ec6698e05f149	140098827	1	main_z	11	main_z	101	stimuli_target_diamondsquares.svg	stimuli_distractor_diamondtriangles.svg	24	yes	44	1	685
6.6.0	win	2022-12-14	18:40:27	18:49:57	569056	629e241d171ec6698e05f149	140098827	1	main_z	11	advance_on_keypress_ZEE	102	stimuli_target_diamondsquares.svg	stimuli_distractor_diamondtriangles.svg	24	yes	57	0	80
6.6.0	win	2022-12-14	18:40:27	18:49:58	570464	629e241d171ec6698e05f149	140098827	1	main_z	11	main_z	103	stimuli_distractor_trianglediamonds.svg	stimuli_target_squarediamonds.svg	12	yes	44	1	692
6.6.0	win	2022-12-14	18:40:27	18:49:58	570464	629e241d171ec6698e05f149	140098827	1	main_z	11	advance_on_keypress_ZEE	104	stimuli_distractor_trianglediamonds.svg	stimuli_target_squarediamonds.svg	12	yes	57	0	79
6.6.0	win	2022-12-14	18:40:27	18:50:00	571824	629e241d171ec6698e05f149	140098827	1	main_z	11	main_z	105	stimuli_target_diamondsquares.svg	stimuli_distractor_trianglediamonds.svg	20	yes	44	1	652
6.6.0	win	2022-12-14	18:40:27	18:50:00	571824	629e241d171ec6698e05f149	140098827	1	main_z	11	advance_on_keypress_ZEE	106	stimuli_target_diamondsquares.svg	stimuli_distractor_trianglediamonds.svg	20	yes	57	0	175
6.6.0	win	2022-12-14	18:40:27	18:50:01	573304	629e241d171ec6698e05f149	140098827	1	main_z	11	main_z	107	stimuli_target_trianglecircles.svg	stimuli_distractor_diamondtriangles.svg	21	yes	44	1	663
6.6.0	win	2022-12-14	18:40:27	18:50:01	573304	629e241d171ec6698e05f149	140098827	1	main_z	11	advance_on_keypress_ZEE	108	stimuli_target_trianglecircles.svg	stimuli_distractor_diamondtriangles.svg	21	yes	57	0	99
6.6.0	win	2022-12-14	18:40:27	18:50:03	574728	629e241d171ec6698e05f149	140098827	1	main_z	11	main_z	109	stimuli_target_circletriangles.svg	stimuli_distractor_diamondtriangles.svg	5	yes	44	1	686
6.6.0	win	2022-12-14	18:40:27	18:50:03	574728	629e241d171ec6698e05f149	140098827	1	main_z	11	advance_on_keypress_ZEE	110	stimuli_target_circletriangles.svg	stimuli_distractor_diamondtriangles.svg	5	yes	57	0	105
6.6.0	win	2022-12-14	18:40:27	18:50:05	577477	629e241d171ec6698e05f149	140098827	1	main_z	11	main_z	111	stimuli_distractor_trianglediamonds.svg	stimuli_distractor_trianglediamonds.svg	34	no	0	1	2000
6.6.0	win	2022-12-14	18:40:27	18:50:05	577477	629e241d171ec6698e05f149	140098827	1	main_z	11	advance_on_keypress_ZEE	112	stimuli_distractor_trianglediamonds.svg	stimuli_distractor_trianglediamonds.svg	34	no	57	0	273
6.6.0	win	2022-12-14	18:40:27	18:50:08	580380	629e241d171ec6698e05f149	140098827	1	main_z	11	main_z	113	stimuli_distractor_diamondtriangles.svg	stimuli_distractor_diamondtriangles.svg	39	no	0	1	2000
6.6.0	win	2022-12-14	18:40:27	18:50:08	580380	629e241d171ec6698e05f149	140098827	1	main_z	11	advance_on_keypress_ZEE	114	stimuli_distractor_diamondtriangles.svg	stimuli_distractor_diamondtriangles.svg	39	no	57	0	483
6.6.0	win	2022-12-14	18:40:27	18:50:10	582146	629e241d171ec6698e05f149	140098827	1	main_z	11	main_z	115	stimuli_distractor_trianglediamonds.svg	stimuli_target_diamondcircles.svg	27	yes	44	1	645
6.6.0	win	2022-12-14	18:40:27	18:50:10	582146	629e241d171ec6698e05f149	140098827	1	main_z	11	advance_on_keypress_ZEE	116	stimuli_distractor_trianglediamonds.svg	stimuli_target_diamondcircles.svg	27	yes	57	0	130
6.6.0	win	2022-12-14	18:40:27	18:50:13	584901	629e241d171ec6698e05f149	140098827	1	main_z	11	main_z	117	stimuli_distractor_trianglediamonds.svg	stimuli_distractor_diamondtriangles.svg	35	no	0	1	2000
6.6.0	win	2022-12-14	18:40:27	18:50:13	584901	629e241d171ec6698e05f149	140098827	1	main_z	11	advance_on_keypress_ZEE	118	stimuli_distractor_trianglediamonds.svg	stimuli_distractor_diamondtriangles.svg	35	no	57	0	377
6.6.0	win	2022-12-14	18:40:27	18:50:16	587904	629e241d171ec6698e05f149	140098827	1	main_z	11	main_z	119	stimuli_distractor_trianglediamonds.svg	stimuli_distractor_trianglediamonds.svg	33	no	0	1	2000
6.6.0	win	2022-12-14	18:40:27	18:50:16	587904	629e241d171ec6698e05f149	140098827	1	main_z	11	advance_on_keypress_ZEE	120	stimuli_distractor_trianglediamonds.svg	stimuli_distractor_trianglediamonds.svg	33	no	57	0	279
6.6.0	win	2022-12-14	18:40:27	18:50:18	589515	629e241d171ec6698e05f149	140098827	1	main_z	11	main_z	121	stimuli_distractor_diamondtriangles.svg	stimuli_target_circletriangles.svg	13	yes	44	1	707
6.6.0	win	2022-12-14	18:40:27	18:50:18	589515	629e241d171ec6698e05f149	140098827	1	main_z	11	advance_on_keypress_ZEE	122	stimuli_distractor_diamondtriangles.svg	stimuli_target_circletriangles.svg	13	yes	57	0	85
6.6.0	win	2022-12-14	18:40:27	18:50:19	590891	629e241d171ec6698e05f149	140098827	1	main_z	11	main_z	123	stimuli_distractor_diamondtriangles.svg	stimuli_target_squarediamonds.svg	16	yes	44	1	648
6.6.0	win	2022-12-14	18:40:27	18:50:19	590891	629e241d171ec6698e05f149	140098827	1	main_z	11	advance_on_keypress_ZEE	124	stimuli_distractor_diamondtriangles.svg	stimuli_target_squarediamonds.svg	16	yes	57	0	69
6.6.0	win	2022-12-14	18:40:27	18:50:20	592251	629e241d171ec6698e05f149	140098827	1	main_z	11	main_z	125	stimuli_distractor_trianglediamonds.svg	stimuli_target_circlediamonds.svg	10	yes	44	1	657
6.6.0	win	2022-12-14	18:40:27	18:50:20	592251	629e241d171ec6698e05f149	140098827	1	main_z	11	advance_on_keypress_ZEE	126	stimuli_distractor_trianglediamonds.svg	stimuli_target_circlediamonds.svg	10	yes	57	0	93
6.6.0	win	2022-12-14	18:40:27	18:50:22	593699	629e241d171ec6698e05f149	140098827	1	main_z	11	main_z	127	stimuli_target_circlediamonds.svg	stimuli_distractor_trianglediamonds.svg	2	yes	44	1	721
6.6.0	win	2022-12-14	18:40:27	18:50:22	593699	629e241d171ec6698e05f149	140098827	1	main_z	11	advance_on_keypress_ZEE	128	stimuli_target_circlediamonds.svg	stimuli_distractor_trianglediamonds.svg	2	yes	57	0	90
6.6.0	win	2022-12-14	18:40:27	18:50:23	595203	629e241d171ec6698e05f149	140098827	1	main_z	11	main_z	129	stimuli_distractor_trianglediamonds.svg	stimuli_target_trianglesquares.svg	26	yes	44	1	774
6.6.0	win	2022-12-14	18:40:27	18:50:23	595203	629e241d171ec6698e05f149	140098827	1	main_z	11	advance_on_keypress_ZEE	130	stimuli_distractor_trianglediamonds.svg	stimuli_target_trianglesquares.svg	26	yes	57	0	69
6.6.0	win	2022-12-14	18:40:27	18:50:25	596651	629e241d171ec6698e05f149	140098827	1	main_z	11	main_z	131	stimuli_target_diamondcircles.svg	stimuli_distractor_trianglediamonds.svg	19	yes	44	1	737
6.6.0	win	2022-12-14	18:40:27	18:50:25	596651	629e241d171ec6698e05f149	140098827	1	main_z	11	advance_on_keypress_ZEE	132	stimuli_target_diamondcircles.svg	stimuli_distractor_trianglediamonds.svg	19	yes	57	0	49
6.6.0	win	2022-12-14	18:40:27	18:50:27	599349	629e241d171ec6698e05f149	140098827	1	main_z	11	main_z	133	stimuli_distractor_diamondtriangles.svg	stimuli_distractor_trianglediamonds.svg	38	no	0	1	2000
6.6.0	win	2022-12-14	18:40:27	18:50:27	599349	629e241d171ec6698e05f149	140098827	1	main_z	11	advance_on_keypress_ZEE	134	stimuli_distractor_diamondtriangles.svg	stimuli_distractor_trianglediamonds.svg	38	no	57	0	276
6.6.0	win	2022-12-14	18:40:27	18:50:29	600900	629e241d171ec6698e05f149	140098827	1	main_z	11	main_z	135	stimuli_distractor_trianglediamonds.svg	stimuli_target_circletriangles.svg	9	yes	44	1	648
6.6.0	win	2022-12-14	18:40:27	18:50:29	600900	629e241d171ec6698e05f149	140098827	1	main_z	11	advance_on_keypress_ZEE	136	stimuli_distractor_trianglediamonds.svg	stimuli_target_circletriangles.svg	9	yes	57	0	61
6.6.0	win	2022-12-14	18:40:27	18:50:30	602261	629e241d171ec6698e05f149	140098827	1	main_z	11	main_z	137	stimuli_target_squarediamonds.svg	stimuli_distractor_diamondtriangles.svg	8	yes	44	1	673
6.6.0	win	2022-12-14	18:40:27	18:50:30	602261	629e241d171ec6698e05f149	140098827	1	main_z	11	advance_on_keypress_ZEE	138	stimuli_target_squarediamonds.svg	stimuli_distractor_diamondtriangles.svg	8	yes	57	0	61
6.6.0	win	2022-12-14	18:40:27	18:50:32	603630	629e241d171ec6698e05f149	140098827	1	main_z	11	main_z	139	stimuli_target_squaretriangles.svg	stimuli_distractor_diamondtriangles.svg	7	yes	44	1	673
6.6.0	win	2022-12-14	18:40:27	18:50:32	603630	629e241d171ec6698e05f149	140098827	1	main_z	11	advance_on_keypress_ZEE	140	stimuli_target_squaretriangles.svg	stimuli_distractor_diamondtriangles.svg	7	yes	57	0	61
6.6.0	win	2022-12-14	18:40:27	18:50:33	605021	629e241d171ec6698e05f149	140098827	1	main_z	11	main_z	141	stimuli_target_squarediamonds.svg	stimuli_distractor_trianglediamonds.svg	4	yes	44	1	697
6.6.0	win	2022-12-14	18:40:27	18:50:33	605021	629e241d171ec6698e05f149	140098827	1	main_z	11	advance_on_keypress_ZEE	142	stimuli_target_squarediamonds.svg	stimuli_distractor_trianglediamonds.svg	4	yes	57	0	60
6.6.0	win	2022-12-14	18:40:27	18:50:34	606373	629e241d171ec6698e05f149	140098827	1	main_z	11	main_z	143	stimuli_distractor_diamondtriangles.svg	stimuli_target_squaretriangles.svg	15	yes	44	1	665
6.6.0	win	2022-12-14	18:40:27	18:50:34	606373	629e241d171ec6698e05f149	140098827	1	main_z	11	advance_on_keypress_ZEE	144	stimuli_distractor_diamondtriangles.svg	stimuli_target_squaretriangles.svg	15	yes	57	0	77
6.6.0	win	2022-12-14	18:40:27	18:50:36	607797	629e241d171ec6698e05f149	140098827	1	main_z	11	main_z	145	stimuli_distractor_diamondtriangles.svg	stimuli_target_trianglecircles.svg	29	yes	44	1	722
6.6.0	win	2022-12-14	18:40:27	18:50:36	607797	629e241d171ec6698e05f149	140098827	1	main_z	11	advance_on_keypress_ZEE	146	stimuli_distractor_diamondtriangles.svg	stimuli_target_trianglecircles.svg	29	yes	57	0	75
6.6.0	win	2022-12-14	18:40:27	18:50:37	609213	629e241d171ec6698e05f149	140098827	1	main_z	11	main_z	147	stimuli_target_diamondcircles.svg	stimuli_distractor_diamondtriangles.svg	23	yes	44	1	703
6.6.0	win	2022-12-14	18:40:27	18:50:37	609213	629e241d171ec6698e05f149	140098827	1	main_z	11	advance_on_keypress_ZEE	148	stimuli_target_diamondcircles.svg	stimuli_distractor_diamondtriangles.svg	23	yes	57	0	81
6.6.0	win	2022-12-14	18:40:27	18:50:39	610861	629e241d171ec6698e05f149	140098827	1	main_z	11	main_z	149	stimuli_distractor_diamondtriangles.svg	stimuli_target_trianglesquares.svg	30	yes	44	1	933
6.6.0	win	2022-12-14	18:40:27	18:50:39	610861	629e241d171ec6698e05f149	140098827	1	main_z	11	advance_on_keypress_ZEE	150	stimuli_distractor_diamondtriangles.svg	stimuli_target_trianglesquares.svg	30	yes	57	0	86
6.6.0	win	2022-12-14	18:40:27	18:50:40	612294	629e241d171ec6698e05f149	140098827	1	main_z	11	main_z	151	stimuli_target_circlediamonds.svg	stimuli_distractor_diamondtriangles.svg	6	yes	44	1	714
6.6.0	win	2022-12-14	18:40:27	18:50:40	612294	629e241d171ec6698e05f149	140098827	1	main_z	11	advance_on_keypress_ZEE	152	stimuli_target_circlediamonds.svg	stimuli_distractor_diamondtriangles.svg	6	yes	57	0	76
6.6.0	win	2022-12-14	18:40:27	18:50:42	613791	629e241d171ec6698e05f149	140098827	1	main_z	11	main_z	153	stimuli_distractor_trianglediamonds.svg	stimuli_target_trianglecircles.svg	25	yes	44	1	792
6.6.0	win	2022-12-14	18:40:27	18:50:42	613791	629e241d171ec6698e05f149	140098827	1	main_z	11	advance_on_keypress_ZEE	154	stimuli_distractor_trianglediamonds.svg	stimuli_target_trianglecircles.svg	25	yes	57	0	86
6.6.0	win	2022-12-14	18:40:27	18:50:43	615230	629e241d171ec6698e05f149	140098827	1	main_z	11	main_z	155	stimuli_target_circletriangles.svg	stimuli_distractor_trianglediamonds.svg	1	yes	44	1	714
6.6.0	win	2022-12-14	18:40:27	18:50:43	615230	629e241d171ec6698e05f149	140098827	1	main_z	11	advance_on_keypress_ZEE	156	stimuli_target_circletriangles.svg	stimuli_distractor_trianglediamonds.svg	1	yes	57	0	52
6.6.0	win	2022-12-14	18:40:27	18:50:46	617918	629e241d171ec6698e05f149	140098827	1	main_z	11	main_z	157	stimuli_distractor_trianglediamonds.svg	stimuli_distractor_diamondtriangles.svg	36	no	0	1	2000
6.6.0	win	2022-12-14	18:40:27	18:50:46	617918	629e241d171ec6698e05f149	140098827	1	main_z	11	advance_on_keypress_ZEE	158	stimuli_distractor_trianglediamonds.svg	stimuli_distractor_diamondtriangles.svg	36	no	57	0	46
6.6.0	win	2022-12-14	18:40:27	18:50:47	619296	629e241d171ec6698e05f149	140098827	1	main_z	11	main_z	159	stimuli_distractor_trianglediamonds.svg	stimuli_target_diamondsquares.svg	28	yes	44	1	707
6.6.0	win	2022-12-14	18:40:27	18:50:47	619296	629e241d171ec6698e05f149	140098827	1	main_z	11	advance_on_keypress_ZEE	160	stimuli_distractor_trianglediamonds.svg	stimuli_target_diamondsquares.svg	28	yes	57	0	69