build	computer.platform	date	time	timestamp	time_elapsed_ms	subject	group	session	blockcode	blocknum	trialcode	trialnum	stimulus_left	stimulus_right	stim_index	target_present	response	correct	latency
6.6.0	win	2022-12-14	14:43:32	14:48:19	282612	5cc5e72ce3c44e0015fdf990	486453697	1	practice_slash	5	practice_slash	1	stimuli_distractor_diamondtriangles.svg	stimuli_target_trianglecircles.svg	9	yes	53	1	1447
6.6.0	win	2022-12-14	14:43:32	14:48:19	282612	5cc5e72ce3c44e0015fdf990	486453697	1	practice_slash	5	advance_on_keypress_SLASH	2	stimuli_distractor_diamondtriangles.svg	stimuli_target_trianglecircles.svg	9	yes	57	0	2760
6.6.0	win	2022-12-14	14:43:32	14:48:24	288523	5cc5e72ce3c44e0015fdf990	486453697	1	practice_slash	5	practice_slash	3	stimuli_distractor_trianglediamonds.svg	stimuli_target_squarediamonds.svg	11	yes	53	1	1439
6.6.0	win	2022-12-14	14:43:32	14:48:24	288523	5cc5e72ce3c44e0015fdf990	486453697	1	practice_slash	5	advance_on_keypress_SLASH	4	stimuli_distractor_trianglediamonds.svg	stimuli_target_squarediamonds.svg	11	yes	57	0	915
6.6.0	win	2022-12-14	14:43:32	14:48:28	292135	5cc5e72ce3c44e0015fdf990	486453697	1	practice_slash	5	practice_slash	5	stimuli_distractor_diamondtriangles.svg	stimuli_target_circletriangles.svg	7	yes	53	1	1020
6.6.0	win	2022-12-14	14:43:32	14:48:28	292135	5cc5e72ce3c44e0015fdf990	486453697	1	practice_slash	5	advance_on_keypress_SLASH	6	stimuli_distractor_diamondtriangles.svg	stimuli_target_circletriangles.svg	7	yes	57	0	2993
6.6.0	win	2022-12-14	14:43:32	14:48:35	298799	5cc5e72ce3c44e0015fdf990	486453697	1	practice_slash	5	practice_slash	7	stimuli_distractor_trianglediamonds.svg	stimuli_distractor_diamondtriangles.svg	16	no	0	1	2000
6.6.0	win	2022-12-14	14:43:32	14:48:35	298799	5cc5e72ce3c44e0015fdf990	486453697	1	practice_slash	5	advance_on_keypress_SLASH	8	stimuli_distractor_trianglediamonds.svg	stimuli_distractor_diamondtriangles.svg	16	no	57	0	917
6.6.0	win	2022-12-14	14:43:32	14:48:38	302337	5cc5e72ce3c44e0015fdf990	486453697	1	practice_slash	5	practice_slash	9	stimuli_target_squarediamonds.svg	stimuli_distractor_trianglediamonds.svg	5	yes	53	1	971
6.6.0	win	2022-12-14	14:43:32	14:48:38	302337	5cc5e72ce3c44e0015fdf990	486453697	1	practice_slash	5	advance_on_keypress_SLASH	10	stimuli_target_squarediamonds.svg	stimuli_distractor_trianglediamonds.svg	5	yes	57	0	991
6.6.0	win	2022-12-14	14:43:32	14:48:42	305938	5cc5e72ce3c44e0015fdf990	486453697	1	practice_slash	5	practice_slash	11	stimuli_target_circlediamonds.svg	stimuli_distractor_trianglediamonds.svg	4	yes	53	1	956
6.6.0	win	2022-12-14	14:43:32	14:48:42	305938	5cc5e72ce3c44e0015fdf990	486453697	1	practice_slash	5	advance_on_keypress_SLASH	12	stimuli_target_circlediamonds.svg	stimuli_distractor_trianglediamonds.svg	4	yes	57	0	895
6.6.0	win	2022-12-14	14:43:32	14:48:46	310499	5cc5e72ce3c44e0015fdf990	486453697	1	practice_slash	5	practice_slash	13	stimuli_target_diamondsquares.svg	stimuli_distractor_trianglediamonds.svg	6	yes	0	0	2000
6.6.0	win	2022-12-14	14:43:32	14:48:46	310499	5cc5e72ce3c44e0015fdf990	486453697	1	practice_slash	5	advance_on_keypress_SLASH	14	stimuli_target_diamondsquares.svg	stimuli_distractor_trianglediamonds.svg	6	yes	57	0	1197
6.6.0	win	2022-12-14	14:43:32	14:48:51	315348	5cc5e72ce3c44e0015fdf990	486453697	1	practice_slash	5	practice_slash	15	stimuli_distractor_trianglediamonds.svg	stimuli_target_diamondcircles.svg	12	yes	0	0	2000
6.6.0	win	2022-12-14	14:43:32	14:48:51	315348	5cc5e72ce3c44e0015fdf990	486453697	1	practice_slash	5	advance_on_keypress_SLASH	16	stimuli_distractor_trianglediamonds.svg	stimuli_target_diamondcircles.svg	12	yes	57	0	842
6.6.0	win	2022-12-14	14:43:32	14:48:56	319849	5cc5e72ce3c44e0015fdf990	486453697	1	practice_slash	5	practice_slash	17	stimuli_distractor_diamondtriangles.svg	stimuli_distractor_diamondtriangles.svg	13	no	0	1	2000
6.6.0	win	2022-12-14	14:43:32	14:48:56	319849	5cc5e72ce3c44e0015fdf990	486453697	1	practice_slash	5	advance_on_keypress_SLASH	18	stimuli_distractor_diamondtriangles.svg	stimuli_distractor_diamondtriangles.svg	13	no	57	0	1201
6.6.0	win	2022-12-14	14:43:32	14:49:00	323830	5cc5e72ce3c44e0015fdf990	486453697	1	practice_slash	5	practice_slash	19	stimuli_target_diamondsquares.svg	stimuli_distractor_diamondtriangles.svg	3	yes	53	1	1130
6.6.0	win	2022-12-14	14:43:32	14:49:00	323830	5cc5e72ce3c44e0015fdf990	486453697	1	practice_slash	5	advance_on_keypress_SLASH	20	stimuli_target_diamondsquares.svg	stimuli_distractor_diamondtriangles.svg	3	yes	57	0	2674
6.6.0	win	2022-12-14	14:43:32	14:49:05	328898	5cc5e72ce3c44e0015fdf990	486453697	1	practice_slash	5	practice_slash	21	stimuli_target_circlediamonds.svg	stimuli_distractor_diamondtriangles.svg	1	yes	53	1	732
6.6.0	win	2022-12-14	14:43:32	14:49:05	328898	5cc5e72ce3c44e0015fdf990	486453697	1	practice_slash	5	advance_on_keypress_SLASH	22	stimuli_target_circlediamonds.svg	stimuli_distractor_diamondtriangles.svg	1	yes	57	0	1058
6.6.0	win	2022-12-14	14:43:32	14:49:10	333616	5cc5e72ce3c44e0015fdf990	486453697	1	practice_slash	5	practice_slash	23	stimuli_distractor_diamondtriangles.svg	stimuli_distractor_trianglediamonds.svg	14	no	0	1	2000
6.6.0	win	2022-12-14	14:43:32	14:49:10	333616	5cc5e72ce3c44e0015fdf990	486453697	1	practice_slash	5	advance_on_keypress_SLASH	24	stimuli_distractor_diamondtriangles.svg	stimuli_distractor_trianglediamonds.svg	14	no	57	0	843
6.6.0	win	2022-12-14	14:43:32	14:49:13	336840	5cc5e72ce3c44e0015fdf990	486453697	1	practice_slash	5	practice_slash	25	stimuli_distractor_trianglediamonds.svg	stimuli_target_circlediamonds.svg	10	yes	53	1	725
6.6.0	win	2022-12-14	14:43:32	14:49:13	336840	5cc5e72ce3c44e0015fdf990	486453697	1	practice_slash	5	advance_on_keypress_SLASH	26	stimuli_distractor_trianglediamonds.svg	stimuli_target_circlediamonds.svg	10	yes	57	0	820
6.6.0	win	2022-12-14	14:43:32	14:49:16	340363	5cc5e72ce3c44e0015fdf990	486453697	1	practice_slash	5	practice_slash	27	stimuli_distractor_diamondtriangles.svg	stimuli_target_diamondcircles.svg	8	yes	53	1	1046
6.6.0	win	2022-12-14	14:43:32	14:49:16	340363	5cc5e72ce3c44e0015fdf990	486453697	1	practice_slash	5	advance_on_keypress_SLASH	28	stimuli_distractor_diamondtriangles.svg	stimuli_target_diamondcircles.svg	8	yes	57	0	1627
6.6.0	win	2022-12-14	14:43:32	14:49:22	345649	5cc5e72ce3c44e0015fdf990	486453697	1	practice_slash	5	practice_slash	29	stimuli_distractor_trianglediamonds.svg	stimuli_distractor_trianglediamonds.svg	15	no	0	1	2000
6.6.0	win	2022-12-14	14:43:32	14:49:22	345649	5cc5e72ce3c44e0015fdf990	486453697	1	practice_slash	5	advance_on_keypress_SLASH	30	stimuli_distractor_trianglediamonds.svg	stimuli_distractor_trianglediamonds.svg	15	no	57	0	945
6.6.0	win	2022-12-14	14:43:32	14:49:25	348922	5cc5e72ce3c44e0015fdf990	486453697	1	practice_slash	5	practice_slash	31	stimuli_target_squarediamonds.svg	stimuli_distractor_diamondtriangles.svg	2	yes	53	1	672
6.6.0	win	2022-12-14	14:43:32	14:49:25	348922	5cc5e72ce3c44e0015fdf990	486453697	1	practice_slash	5	advance_on_keypress_SLASH	32	stimuli_target_squarediamonds.svg	stimuli_distractor_diamondtriangles.svg	2	yes	57	0	985
6.6.0	win	2022-12-14	14:43:32	14:50:15	399028	5cc5e72ce3c44e0015fdf990	486453697	1	main_slash	7	main_slash	1	stimuli_distractor_diamondtriangles.svg	stimuli_distractor_diamondtriangles.svg	39	no	0	1	2000
6.6.0	win	2022-12-14	14:43:32	14:50:15	399028	5cc5e72ce3c44e0015fdf990	486453697	1	main_slash	7	advance_on_keypress_SLASH	2	stimuli_distractor_diamondtriangles.svg	stimuli_distractor_diamondtriangles.svg	39	no	57	0	1592
6.6.0	win	2022-12-14	14:43:32	14:50:18	401944	5cc5e72ce3c44e0015fdf990	486453697	1	main_slash	7	main_slash	3	stimuli_target_squaretriangles.svg	stimuli_distractor_diamondtriangles.svg	7	yes	53	1	665
6.6.0	win	2022-12-14	14:43:32	14:50:18	401944	5cc5e72ce3c44e0015fdf990	486453697	1	main_slash	7	advance_on_keypress_SLASH	4	stimuli_target_squaretriangles.svg	stimuli_distractor_diamondtriangles.svg	7	yes	57	0	1170
6.6.0	win	2022-12-14	14:43:32	14:50:21	404686	5cc5e72ce3c44e0015fdf990	486453697	1	main_slash	7	main_slash	5	stimuli_target_trianglecircles.svg	stimuli_distractor_diamondtriangles.svg	21	yes	53	1	924
6.6.0	win	2022-12-14	14:43:32	14:50:21	404686	5cc5e72ce3c44e0015fdf990	486453697	1	main_slash	7	advance_on_keypress_SLASH	6	stimuli_target_trianglecircles.svg	stimuli_distractor_diamondtriangles.svg	21	yes	57	0	955
6.6.0	win	2022-12-14	14:43:32	14:50:23	407194	5cc5e72ce3c44e0015fdf990	486453697	1	main_slash	7	main_slash	7	stimuli_distractor_diamondtriangles.svg	stimuli_target_diamondsquares.svg	32	yes	53	1	915
6.6.0	win	2022-12-14	14:43:32	14:50:23	407194	5cc5e72ce3c44e0015fdf990	486453697	1	main_slash	7	advance_on_keypress_SLASH	8	stimuli_distractor_diamondtriangles.svg	stimuli_target_diamondsquares.svg	32	yes	57	0	1063
6.6.0	win	2022-12-14	14:43:32	14:50:26	409800	5cc5e72ce3c44e0015fdf990	486453697	1	main_slash	7	main_slash	9	stimuli_target_trianglecircles.svg	stimuli_distractor_trianglediamonds.svg	17	yes	53	1	888
6.6.0	win	2022-12-14	14:43:32	14:50:26	409800	5cc5e72ce3c44e0015fdf990	486453697	1	main_slash	7	advance_on_keypress_SLASH	10	stimuli_target_trianglecircles.svg	stimuli_distractor_trianglediamonds.svg	17	yes	57	0	724
6.6.0	win	2022-12-14	14:43:32	14:50:29	413163	5cc5e72ce3c44e0015fdf990	486453697	1	main_slash	7	main_slash	11	stimuli_distractor_trianglediamonds.svg	stimuli_distractor_diamondtriangles.svg	35	no	0	1	2000
6.6.0	win	2022-12-14	14:43:32	14:50:29	413163	5cc5e72ce3c44e0015fdf990	486453697	1	main_slash	7	advance_on_keypress_SLASH	12	stimuli_distractor_trianglediamonds.svg	stimuli_distractor_diamondtriangles.svg	35	no	57	0	513
6.6.0	win	2022-12-14	14:43:32	14:50:31	415024	5cc5e72ce3c44e0015fdf990	486453697	1	main_slash	7	main_slash	13	stimuli_distractor_trianglediamonds.svg	stimuli_target_squarediamonds.svg	12	yes	53	1	694
6.6.0	win	2022-12-14	14:43:32	14:50:31	415024	5cc5e72ce3c44e0015fdf990	486453697	1	main_slash	7	advance_on_keypress_SLASH	14	stimuli_distractor_trianglediamonds.svg	stimuli_target_squarediamonds.svg	12	yes	57	0	2508
6.6.0	win	2022-12-14	14:43:32	14:50:35	419105	5cc5e72ce3c44e0015fdf990	486453697	1	main_slash	7	main_slash	15	stimuli_target_diamondsquares.svg	stimuli_distractor_diamondtriangles.svg	24	yes	53	1	910
6.6.0	win	2022-12-14	14:43:32	14:50:35	419105	5cc5e72ce3c44e0015fdf990	486453697	1	main_slash	7	advance_on_keypress_SLASH	16	stimuli_target_diamondsquares.svg	stimuli_distractor_diamondtriangles.svg	24	yes	57	0	1410
6.6.0	win	2022-12-14	14:43:32	14:50:38	421677	5cc5e72ce3c44e0015fdf990	486453697	1	main_slash	7	main_slash	17	stimuli_distractor_diamondtriangles.svg	stimuli_target_squaretriangles.svg	15	yes	53	1	498
6.6.0	win	2022-12-14	14:43:32	14:50:38	421677	5cc5e72ce3c44e0015fdf990	486453697	1	main_slash	7	advance_on_keypress_SLASH	18	stimuli_distractor_diamondtriangles.svg	stimuli_target_squaretriangles.svg	15	yes	57	0	950
6.6.0	win	2022-12-14	14:43:32	14:50:40	424086	5cc5e72ce3c44e0015fdf990	486453697	1	main_slash	7	main_slash	19	stimuli_distractor_trianglediamonds.svg	stimuli_target_trianglesquares.svg	26	yes	53	1	807
6.6.0	win	2022-12-14	14:43:32	14:50:40	424086	5cc5e72ce3c44e0015fdf990	486453697	1	main_slash	7	advance_on_keypress_SLASH	20	stimuli_distractor_trianglediamonds.svg	stimuli_target_trianglesquares.svg	26	yes	57	0	1015
6.6.0	win	2022-12-14	14:43:32	14:50:44	427746	5cc5e72ce3c44e0015fdf990	486453697	1	main_slash	7	main_slash	21	stimuli_distractor_trianglediamonds.svg	stimuli_distractor_trianglediamonds.svg	33	no	0	1	2000
6.6.0	win	2022-12-14	14:43:32	14:50:44	427746	5cc5e72ce3c44e0015fdf990	486453697	1	main_slash	7	advance_on_keypress_SLASH	22	stimuli_distractor_trianglediamonds.svg	stimuli_distractor_trianglediamonds.svg	33	no	57	0	601
6.6.0	win	2022-12-14	14:43:32	14:50:46	429919	5cc5e72ce3c44e0015fdf990	486453697	1	main_slash	7	main_slash	23	stimuli_target_squaretriangles.svg	stimuli_distractor_trianglediamonds.svg	3	yes	53	1	924
6.6.0	win	2022-12-14	14:43:32	14:50:46	429919	5cc5e72ce3c44e0015fdf990	486453697	1	main_slash	7	advance_on_keypress_SLASH	24	stimuli_target_squaretriangles.svg	stimuli_distractor_trianglediamonds.svg	3	yes	57	0	979
6.6.0	win	2022-12-14	14:43:32	14:50:48	432269	5cc5e72ce3c44e0015fdf990	486453697	1	main_slash	7	main_slash	25	stimuli_distractor_diamondtriangles.svg	stimuli_target_squarediamonds.svg	16	yes	53	1	723
6.6.0	win	2022-12-14	14:43:32	14:50:48	432269	5cc5e72ce3c44e0015fdf990	486453697	1	main_slash	7	advance_on_keypress_SLASH	26	stimuli_distractor_diamondtriangles.svg	stimuli_target_squarediamonds.svg	16	yes	57	0	719
6.6.0	win	2022-12-14	14:43:32	14:50:50	434341	5cc5e72ce3c44e0015fdf990	486453697	1	main_slash	7	main_slash	27	stimuli_target_circletriangles.svg	stimuli_distractor_diamondtriangles.svg	5	yes	53	1	712
6.6.0	win	2022-12-14	14:43:32	14:50:50	434341	5cc5e72ce3c44e0015fdf990	486453697	1	main_slash	7	advance_on_keypress_SLASH	28	stimuli_target_circletriangles.svg	stimuli_distractor_diamondtriangles.svg	5	yes	57	0	779
6.6.0	win	2022-12-14	14:43:32	14:50:54	437779	5cc5e72ce3c44e0015fdf990	486453697	1	main_slash	7	main_slash	29	stimuli_distractor_diamondtriangles.svg	stimuli_distractor_trianglediamonds.svg	38	no	0	1	2000
6.6.0	win	2022-12-14	14:43:32	14:50:54	437779	5cc5e72ce3c44e0015fdf990	486453697	1	main_slash	7	advance_on_keypress_SLASH	30	stimuli_distractor_diamondtriangles.svg	stimuli_distractor_trianglediamonds.svg	38	no	57	0	872
6.6.0	win	2022-12-14	14:43:32	14:50:56	440274	5cc5e72ce3c44e0015fdf990	486453697	1	main_slash	7	main_slash	31	stimuli_distractor_trianglediamonds.svg	stimuli_target_circletriangles.svg	9	yes	53	1	978
6.6.0	win	2022-12-14	14:43:32	14:50:56	440274	5cc5e72ce3c44e0015fdf990	486453697	1	main_slash	7	advance_on_keypress_SLASH	32	stimuli_distractor_trianglediamonds.svg	stimuli_target_circletriangles.svg	9	yes	57	0	1095
6.6.0	win	2022-12-14	14:43:32	14:51:00	444029	5cc5e72ce3c44e0015fdf990	486453697	1	main_slash	7	main_slash	33	stimuli_distractor_trianglediamonds.svg	stimuli_target_diamondsquares.svg	28	yes	0	0	2000
6.6.0	win	2022-12-14	14:43:32	14:51:00	444029	5cc5e72ce3c44e0015fdf990	486453697	1	main_slash	7	advance_on_keypress_SLASH	34	stimuli_distractor_trianglediamonds.svg	stimuli_target_diamondsquares.svg	28	yes	57	0	726
6.6.0	win	2022-12-14	14:43:32	14:51:02	446541	5cc5e72ce3c44e0015fdf990	486453697	1	main_slash	7	main_slash	35	stimuli_target_diamondcircles.svg	stimuli_distractor_trianglediamonds.svg	19	yes	53	1	1145
6.6.0	win	2022-12-14	14:43:32	14:51:02	446541	5cc5e72ce3c44e0015fdf990	486453697	1	main_slash	7	advance_on_keypress_SLASH	36	stimuli_target_diamondcircles.svg	stimuli_distractor_trianglediamonds.svg	19	yes	57	0	1390
6.6.0	win	2022-12-14	14:43:32	14:51:06	449743	5cc5e72ce3c44e0015fdf990	486453697	1	main_slash	7	main_slash	37	stimuli_target_trianglesquares.svg	stimuli_distractor_diamondtriangles.svg	22	yes	53	1	1147
6.6.0	win	2022-12-14	14:43:32	14:51:06	449743	5cc5e72ce3c44e0015fdf990	486453697	1	main_slash	7	advance_on_keypress_SLASH	38	stimuli_target_trianglesquares.svg	stimuli_distractor_diamondtriangles.svg	22	yes	57	0	1021
6.6.0	win	2022-12-14	14:43:32	14:51:09	452709	5cc5e72ce3c44e0015fdf990	486453697	1	main_slash	7	main_slash	39	stimuli_distractor_diamondtriangles.svg	stimuli_distractor_trianglediamonds.svg	37	no	53	0	1296
6.6.0	win	2022-12-14	14:43:32	14:51:09	452709	5cc5e72ce3c44e0015fdf990	486453697	1	main_slash	7	advance_on_keypress_SLASH	40	stimuli_distractor_diamondtriangles.svg	stimuli_distractor_trianglediamonds.svg	37	no	57	0	766
6.6.0	win	2022-12-14	14:43:32	14:51:11	454787	5cc5e72ce3c44e0015fdf990	486453697	1	main_slash	7	main_slash	41	stimuli_distractor_diamondtriangles.svg	stimuli_target_trianglecircles.svg	29	yes	53	1	658
6.6.0	win	2022-12-14	14:43:32	14:51:11	454787	5cc5e72ce3c44e0015fdf990	486453697	1	main_slash	7	advance_on_keypress_SLASH	42	stimuli_distractor_diamondtriangles.svg	stimuli_target_trianglecircles.svg	29	yes	57	0	797
6.6.0	win	2022-12-14	14:43:32	14:51:14	458229	5cc5e72ce3c44e0015fdf990	486453697	1	main_slash	7	main_slash	43	stimuli_distractor_diamondtriangles.svg	stimuli_distractor_diamondtriangles.svg	40	no	0	1	2000
6.6.0	win	2022-12-14	14:43:32	14:51:14	458229	5cc5e72ce3c44e0015fdf990	486453697	1	main_slash	7	advance_on_keypress_SLASH	44	stimuli_distractor_diamondtriangles.svg	stimuli_distractor_diamondtriangles.svg	40	no	57	0	688
6.6.0	win	2022-12-14	14:43:32	14:51:16	460488	5cc5e72ce3c44e0015fdf990	486453697	1	main_slash	7	main_slash	45	stimuli_target_squarediamonds.svg	stimuli_distractor_trianglediamonds.svg	4	yes	53	1	925
6.6.0	win	2022-12-14	14:43:32	14:51:16	460488	5cc5e72ce3c44e0015fdf990	486453697	1	main_slash	7	advance_on_keypress_SLASH	46	stimuli_target_squarediamonds.svg	stimuli_distractor_trianglediamonds.svg	4	yes	57	0	719
6.6.0	win	2022-12-14	14:43:32	14:51:19	462782	5cc5e72ce3c44e0015fdf990	486453697	1	main_slash	7	main_slash	47	stimuli_target_circletriangles.svg	stimuli_distractor_trianglediamonds.svg	1	yes	53	1	918
6.6.0	win	2022-12-14	14:43:32	14:51:19	462782	5cc5e72ce3c44e0015fdf990	486453697	1	main_slash	7	advance_on_keypress_SLASH	48	stimuli_target_circletriangles.svg	stimuli_distractor_trianglediamonds.svg	1	yes	57	0	605
6.6.0	win	2022-12-14	14:43:32	14:51:22	466028	5cc5e72ce3c44e0015fdf990	486453697	1	main_slash	7	main_slash	49	stimuli_distractor_trianglediamonds.svg	stimuli_target_squaretriangles.svg	11	yes	0	0	2000
6.6.0	win	2022-12-14	14:43:32	14:51:22	466028	5cc5e72ce3c44e0015fdf990	486453697	1	main_slash	7	advance_on_keypress_SLASH	50	stimuli_distractor_trianglediamonds.svg	stimuli_target_squaretriangles.svg	11	yes	57	0	745
6.6.0	win	2022-12-14	14:43:32	14:51:24	468490	5cc5e72ce3c44e0015fdf990	486453697	1	main_slash	7	main_slash	51	stimuli_distractor_diamondtriangles.svg	stimuli_target_circlediamonds.svg	14	yes	53	1	1062
6.6.0	win	2022-12-14	14:43:32	14:51:24	468490	5cc5e72ce3c44e0015fdf990	486453697	1	main_slash	7	advance_on_keypress_SLASH	52	stimuli_distractor_diamondtriangles.svg	stimuli_target_circlediamonds.svg	14	yes	57	0	740
6.6.0	win	2022-12-14	14:43:32	14:51:28	471879	5cc5e72ce3c44e0015fdf990	486453697	1	main_slash	7	main_slash	53	stimuli_target_trianglesquares.svg	stimuli_distractor_trianglediamonds.svg	18	yes	0	0	2000
6.6.0	win	2022-12-14	14:43:32	14:51:28	471879	5cc5e72ce3c44e0015fdf990	486453697	1	main_slash	7	advance_on_keypress_SLASH	54	stimuli_target_trianglesquares.svg	stimuli_distractor_trianglediamonds.svg	18	yes	57	0	1458
6.6.0	win	2022-12-14	14:43:32	14:51:30	474547	5cc5e72ce3c44e0015fdf990	486453697	1	main_slash	7	main_slash	55	stimuli_target_circlediamonds.svg	stimuli_distractor_trianglediamonds.svg	2	yes	53	1	551
6.6.0	win	2022-12-14	14:43:32	14:51:30	474547	5cc5e72ce3c44e0015fdf990	486453697	1	main_slash	7	advance_on_keypress_SLASH	56	stimuli_target_circlediamonds.svg	stimuli_distractor_trianglediamonds.svg	2	yes	57	0	662
6.6.0	win	2022-12-14	14:43:32	14:51:33	476695	5cc5e72ce3c44e0015fdf990	486453697	1	main_slash	7	main_slash	57	stimuli_target_diamondcircles.svg	stimuli_distractor_diamondtriangles.svg	23	yes	53	1	832
6.6.0	win	2022-12-14	14:43:32	14:51:33	476695	5cc5e72ce3c44e0015fdf990	486453697	1	main_slash	7	advance_on_keypress_SLASH	58	stimuli_target_diamondcircles.svg	stimuli_distractor_diamondtriangles.svg	23	yes	57	0	694
6.6.0	win	2022-12-14	14:43:32	14:51:35	478855	5cc5e72ce3c44e0015fdf990	486453697	1	main_slash	7	main_slash	59	stimuli_distractor_diamondtriangles.svg	stimuli_target_circletriangles.svg	13	yes	53	1	809
6.6.0	win	2022-12-14	14:43:32	14:51:35	478855	5cc5e72ce3c44e0015fdf990	486453697	1	main_slash	7	advance_on_keypress_SLASH	60	stimuli_distractor_diamondtriangles.svg	stimuli_target_circletriangles.svg	13	yes	57	0	716
6.6.0	win	2022-12-14	14:43:32	14:51:37	481378	5cc5e72ce3c44e0015fdf990	486453697	1	main_slash	7	main_slash	61	stimuli_target_diamondsquares.svg	stimuli_distractor_trianglediamonds.svg	20	yes	53	1	1149
6.6.0	win	2022-12-14	14:43:32	14:51:37	481378	5cc5e72ce3c44e0015fdf990	486453697	1	main_slash	7	advance_on_keypress_SLASH	62	stimuli_target_diamondsquares.svg	stimuli_distractor_trianglediamonds.svg	20	yes	57	0	672
6.6.0	win	2022-12-14	14:43:32	14:51:41	484696	5cc5e72ce3c44e0015fdf990	486453697	1	main_slash	7	main_slash	63	stimuli_distractor_trianglediamonds.svg	stimuli_distractor_diamondtriangles.svg	36	no	0	1	2000
6.6.0	win	2022-12-14	14:43:32	14:51:41	484696	5cc5e72ce3c44e0015fdf990	486453697	1	main_slash	7	advance_on_keypress_SLASH	64	stimuli_distractor_trianglediamonds.svg	stimuli_distractor_diamondtriangles.svg	36	no	57	0	425
6.6.0	win	2022-12-14	14:43:32	14:51:42	486453	5cc5e72ce3c44e0015fdf990	486453697	1	main_slash	7	main_slash	65	stimuli_distractor_trianglediamonds.svg	stimuli_target_circlediamonds.svg	10	yes	53	1	674
6.6.0	win	2022-12-14	14:43:32	14:51:42	486453	5cc5e72ce3c44e0015fdf990	486453697	1	main_slash	7	advance_on_keypress_SLASH	66	stimuli_distractor_trianglediamonds.svg	stimuli_target_circlediamonds.svg	10	yes	57	0	751
6.6.0	win	2022-12-14	14:43:32	14:51:44	488436	5cc5e72ce3c44e0015fdf990	486453697	1	main_slash	7	main_slash	67	stimuli_distractor_trianglediamonds.svg	stimuli_target_trianglecircles.svg	25	yes	53	1	591
6.6.0	win	2022-12-14	14:43:32	14:51:44	488436	5cc5e72ce3c44e0015fdf990	486453697	1	main_slash	7	advance_on_keypress_SLASH	68	stimuli_distractor_trianglediamonds.svg	stimuli_target_trianglecircles.svg	25	yes	57	0	581
6.6.0	win	2022-12-14	14:43:32	14:51:46	490133	5cc5e72ce3c44e0015fdf990	486453697	1	main_slash	7	main_slash	69	stimuli_target_circlediamonds.svg	stimuli_distractor_diamondtriangles.svg	6	yes	53	1	471
6.6.0	win	2022-12-14	14:43:32	14:51:46	490133	5cc5e72ce3c44e0015fdf990	486453697	1	main_slash	7	advance_on_keypress_SLASH	70	stimuli_target_circlediamonds.svg	stimuli_distractor_diamondtriangles.svg	6	yes	57	0	582
6.6.0	win	2022-12-14	14:43:32	14:51:48	491804	5cc5e72ce3c44e0015fdf990	486453697	1	main_slash	7	main_slash	71	stimuli_distractor_diamondtriangles.svg	stimuli_target_diamondcircles.svg	31	yes	53	1	441
6.6.0	win	2022-12-14	14:43:32	14:51:48	491804	5cc5e72ce3c44e0015fdf990	486453697	1	main_slash	7	advance_on_keypress_SLASH	72	stimuli_distractor_diamondtriangles.svg	stimuli_target_diamondcircles.svg	31	yes	57	0	651
6.6.0	win	2022-12-14	14:43:32	14:51:50	493971	5cc5e72ce3c44e0015fdf990	486453697	1	main_slash	7	main_slash	73	stimuli_target_squarediamonds.svg	stimuli_distractor_diamondtriangles.svg	8	yes	53	1	858
6.6.0	win	2022-12-14	14:43:32	14:51:50	493971	5cc5e72ce3c44e0015fdf990	486453697	1	main_slash	7	advance_on_keypress_SLASH	74	stimuli_target_squarediamonds.svg	stimuli_distractor_diamondtriangles.svg	8	yes	57	0	642
6.6.0	win	2022-12-14	14:43:32	14:51:52	495846	5cc5e72ce3c44e0015fdf990	486453697	1	main_slash	7	main_slash	75	stimuli_distractor_trianglediamonds.svg	stimuli_target_diamondcircles.svg	27	yes	53	1	567
6.6.0	win	2022-12-14	14:43:32	14:51:52	495846	5cc5e72ce3c44e0015fdf990	486453697	1	main_slash	7	advance_on_keypress_SLASH	76	stimuli_distractor_trianglediamonds.svg	stimuli_target_diamondcircles.svg	27	yes	57	0	668
6.6.0	win	2022-12-14	14:43:32	14:51:55	499163	5cc5e72ce3c44e0015fdf990	486453697	1	main_slash	7	main_slash	77	stimuli_distractor_trianglediamonds.svg	stimuli_distractor_trianglediamonds.svg	34	no	0	1	2000
6.6.0	win	2022-12-14	14:43:32	14:51:55	499163	5cc5e72ce3c44e0015fdf990	486453697	1	main_slash	7	advance_on_keypress_SLASH	78	stimuli_distractor_trianglediamonds.svg	stimuli_distractor_trianglediamonds.svg	34	no	57	0	487
6.6.0	win	2022-12-14	14:43:32	14:51:57	501013	5cc5e72ce3c44e0015fdf990	486453697	1	main_slash	7	main_slash	79	stimuli_distractor_diamondtriangles.svg	stimuli_target_trianglesquares.svg	30	yes	53	1	717
6.6.0	win	2022-12-14	14:43:32	14:51:57	501013	5cc5e72ce3c44e0015fdf990	486453697	1	main_slash	7	advance_on_keypress_SLASH	80	stimuli_distractor_diamondtriangles.svg	stimuli_target_trianglesquares.svg	30	yes	57	0	848
6.6.0	win	2022-12-14	14:43:32	14:52:00	504512	5cc5e72ce3c44e0015fdf990	486453697	1	main_slash	7	main_slash	81	stimuli_distractor_diamondtriangles.svg	stimuli_distractor_diamondtriangles.svg	40	no	0	1	2000
6.6.0	win	2022-12-14	14:43:32	14:52:00	504512	5cc5e72ce3c44e0015fdf990	486453697	1	main_slash	7	advance_on_keypress_SLASH	82	stimuli_distractor_diamondtriangles.svg	stimuli_distractor_diamondtriangles.svg	40	no	57	0	568
6.6.0	win	2022-12-14	14:43:32	14:52:03	506752	5cc5e72ce3c44e0015fdf990	486453697	1	main_slash	7	main_slash	83	stimuli_distractor_diamondtriangles.svg	stimuli_target_diamondsquares.svg	32	yes	53	1	1023
6.6.0	win	2022-12-14	14:43:32	14:52:03	506752	5cc5e72ce3c44e0015fdf990	486453697	1	main_slash	7	advance_on_keypress_SLASH	84	stimuli_distractor_diamondtriangles.svg	stimuli_target_diamondsquares.svg	32	yes	57	0	686
6.6.0	win	2022-12-14	14:43:32	14:52:05	508702	5cc5e72ce3c44e0015fdf990	486453697	1	main_slash	7	main_slash	85	stimuli_target_circlediamonds.svg	stimuli_distractor_diamondtriangles.svg	6	yes	53	1	623
6.6.0	win	2022-12-14	14:43:32	14:52:05	508702	5cc5e72ce3c44e0015fdf990	486453697	1	main_slash	7	advance_on_keypress_SLASH	86	stimuli_target_circlediamonds.svg	stimuli_distractor_diamondtriangles.svg	6	yes	57	0	545
6.6.0	win	2022-12-14	14:43:32	14:52:07	510889	5cc5e72ce3c44e0015fdf990	486453697	1	main_slash	7	main_slash	87	stimuli_distractor_trianglediamonds.svg	stimuli_target_diamondsquares.svg	28	yes	53	1	994
6.6.0	win	2022-12-14	14:43:32	14:52:07	510889	5cc5e72ce3c44e0015fdf990	486453697	1	main_slash	7	advance_on_keypress_SLASH	88	stimuli_distractor_trianglediamonds.svg	stimuli_target_diamondsquares.svg	28	yes	57	0	595
6.6.0	win	2022-12-14	14:43:32	14:52:09	512687	5cc5e72ce3c44e0015fdf990	486453697	1	main_slash	7	main_slash	89	stimuli_target_diamondcircles.svg	stimuli_distractor_trianglediamonds.svg	19	yes	53	1	541
6.6.0	win	2022-12-14	14:43:32	14:52:09	512687	5cc5e72ce3c44e0015fdf990	486453697	1	main_slash	7	advance_on_keypress_SLASH	90	stimuli_target_diamondcircles.svg	stimuli_distractor_trianglediamonds.svg	19	yes	57	0	579
6.6.0	win	2022-12-14	14:43:32	14:52:10	514477	5cc5e72ce3c44e0015fdf990	486453697	1	main_slash	7	main_slash	91	stimuli_distractor_diamondtriangles.svg	stimuli_target_circlediamonds.svg	14	yes	53	1	548
6.6.0	win	2022-12-14	14:43:32	14:52:10	514477	5cc5e72ce3c44e0015fdf990	486453697	1	main_slash	7	advance_on_keypress_SLASH	92	stimuli_distractor_diamondtriangles.svg	stimuli_target_circlediamonds.svg	14	yes	57	0	458
6.6.0	win	2022-12-14	14:43:32	14:52:12	516073	5cc5e72ce3c44e0015fdf990	486453697	1	main_slash	7	main_slash	93	stimuli_distractor_trianglediamonds.svg	stimuli_target_trianglecircles.svg	25	yes	53	1	494
6.6.0	win	2022-12-14	14:43:32	14:52:12	516073	5cc5e72ce3c44e0015fdf990	486453697	1	main_slash	7	advance_on_keypress_SLASH	94	stimuli_distractor_trianglediamonds.svg	stimuli_target_trianglecircles.svg	25	yes	57	0	550
6.6.0	win	2022-12-14	14:43:32	14:52:14	517935	5cc5e72ce3c44e0015fdf990	486453697	1	main_slash	7	main_slash	95	stimuli_target_circletriangles.svg	stimuli_distractor_trianglediamonds.svg	1	yes	53	1	656
6.6.0	win	2022-12-14	14:43:32	14:52:14	517935	5cc5e72ce3c44e0015fdf990	486453697	1	main_slash	7	advance_on_keypress_SLASH	96	stimuli_target_circletriangles.svg	stimuli_distractor_trianglediamonds.svg	1	yes	57	0	397
6.6.0	win	2022-12-14	14:43:32	14:52:15	519435	5cc5e72ce3c44e0015fdf990	486453697	1	main_slash	7	main_slash	97	stimuli_distractor_diamondtriangles.svg	stimuli_target_trianglecircles.svg	29	yes	53	1	457
6.6.0	win	2022-12-14	14:43:32	14:52:15	519435	5cc5e72ce3c44e0015fdf990	486453697	1	main_slash	7	advance_on_keypress_SLASH	98	stimuli_distractor_diamondtriangles.svg	stimuli_target_trianglecircles.svg	29	yes	57	0	557
6.6.0	win	2022-12-14	14:43:32	14:52:17	521143	5cc5e72ce3c44e0015fdf990	486453697	1	main_slash	7	main_slash	99	stimuli_distractor_diamondtriangles.svg	stimuli_target_diamondcircles.svg	31	yes	53	1	505
6.6.0	win	2022-12-14	14:43:32	14:52:17	521143	5cc5e72ce3c44e0015fdf990	486453697	1	main_slash	7	advance_on_keypress_SLASH	100	stimuli_distractor_diamondtriangles.svg	stimuli_target_diamondcircles.svg	31	yes	57	0	455
6.6.0	win	2022-12-14	14:43:32	14:52:19	522837	5cc5e72ce3c44e0015fdf990	486453697	1	main_slash	7	main_slash	101	stimuli_distractor_trianglediamonds.svg	stimuli_target_squarediamonds.svg	12	yes	53	1	591
6.6.0	win	2022-12-14	14:43:32	14:52:19	522837	5cc5e72ce3c44e0015fdf990	486453697	1	main_slash	7	advance_on_keypress_SLASH	102	stimuli_distractor_trianglediamonds.svg	stimuli_target_squarediamonds.svg	12	yes	57	0	492
6.6.0	win	2022-12-14	14:43:32	14:52:22	525962	5cc5e72ce3c44e0015fdf990	486453697	1	main_slash	7	main_slash	103	stimuli_distractor_trianglediamonds.svg	stimuli_distractor_trianglediamonds.svg	33	no	0	1	2000
6.6.0	win	2022-12-14	14:43:32	14:52:22	525962	5cc5e72ce3c44e0015fdf990	486453697	1	main_slash	7	advance_on_keypress_SLASH	104	stimuli_distractor_trianglediamonds.svg	stimuli_distractor_trianglediamonds.svg	33	no	57	0	556
6.6.0	win	2022-12-14	14:43:32	14:52:24	528396	5cc5e72ce3c44e0015fdf990	486453697	1	main_slash	7	main_slash	105	stimuli_distractor_trianglediamonds.svg	stimuli_target_squaretriangles.svg	11	yes	53	1	1234
6.6.0	win	2022-12-14	14:43:32	14:52:24	528396	5cc5e72ce3c44e0015fdf990	486453697	1	main_slash	7	advance_on_keypress_SLASH	106	stimuli_distractor_trianglediamonds.svg	stimuli_target_squaretriangles.svg	11	yes	57	0	794
6.6.0	win	2022-12-14	14:43:32	14:52:26	530377	5cc5e72ce3c44e0015fdf990	486453697	1	main_slash	7	main_slash	107	stimuli_distractor_trianglediamonds.svg	stimuli_target_circlediamonds.svg	10	yes	53	1	530
6.6.0	win	2022-12-14	14:43:32	14:52:26	530377	5cc5e72ce3c44e0015fdf990	486453697	1	main_slash	7	advance_on_keypress_SLASH	108	stimuli_distractor_trianglediamonds.svg	stimuli_target_circlediamonds.svg	10	yes	57	0	590
6.6.0	win	2022-12-14	14:43:32	14:52:30	533613	5cc5e72ce3c44e0015fdf990	486453697	1	main_slash	7	main_slash	109	stimuli_distractor_diamondtriangles.svg	stimuli_distractor_trianglediamonds.svg	37	no	0	1	2000
6.6.0	win	2022-12-14	14:43:32	14:52:30	533613	5cc5e72ce3c44e0015fdf990	486453697	1	main_slash	7	advance_on_keypress_SLASH	110	stimuli_distractor_diamondtriangles.svg	stimuli_distractor_trianglediamonds.svg	37	no	57	0	498
6.6.0	win	2022-12-14	14:43:32	14:52:32	535617	5cc5e72ce3c44e0015fdf990	486453697	1	main_slash	7	main_slash	111	stimuli_distractor_trianglediamonds.svg	stimuli_target_trianglesquares.svg	26	yes	53	1	854
6.6.0	win	2022-12-14	14:43:32	14:52:32	535617	5cc5e72ce3c44e0015fdf990	486453697	1	main_slash	7	advance_on_keypress_SLASH	112	stimuli_distractor_trianglediamonds.svg	stimuli_target_trianglesquares.svg	26	yes	57	0	476
6.6.0	win	2022-12-14	14:43:32	14:52:33	537299	5cc5e72ce3c44e0015fdf990	486453697	1	main_slash	7	main_slash	113	stimuli_distractor_trianglediamonds.svg	stimuli_target_diamondcircles.svg	27	yes	53	1	554
6.6.0	win	2022-12-14	14:43:32	14:52:33	537299	5cc5e72ce3c44e0015fdf990	486453697	1	main_slash	7	advance_on_keypress_SLASH	114	stimuli_distractor_trianglediamonds.svg	stimuli_target_diamondcircles.svg	27	yes	57	0	455
6.6.0	win	2022-12-14	14:43:32	14:52:35	539108	5cc5e72ce3c44e0015fdf990	486453697	1	main_slash	7	main_slash	115	stimuli_distractor_diamondtriangles.svg	stimuli_target_trianglesquares.svg	30	yes	53	1	712
6.6.0	win	2022-12-14	14:43:32	14:52:35	539108	5cc5e72ce3c44e0015fdf990	486453697	1	main_slash	7	advance_on_keypress_SLASH	116	stimuli_distractor_diamondtriangles.svg	stimuli_target_trianglesquares.svg	30	yes	57	0	993
6.6.0	win	2022-12-14	14:43:32	14:52:37	541439	5cc5e72ce3c44e0015fdf990	486453697	1	main_slash	7	main_slash	117	stimuli_distractor_trianglediamonds.svg	stimuli_target_circletriangles.svg	9	yes	53	1	676
6.6.0	win	2022-12-14	14:43:32	14:52:37	541439	5cc5e72ce3c44e0015fdf990	486453697	1	main_slash	7	advance_on_keypress_SLASH	118	stimuli_distractor_trianglediamonds.svg	stimuli_target_circletriangles.svg	9	yes	57	0	762
6.6.0	win	2022-12-14	14:43:32	14:52:39	543478	5cc5e72ce3c44e0015fdf990	486453697	1	main_slash	7	main_slash	119	stimuli_target_trianglesquares.svg	stimuli_distractor_trianglediamonds.svg	18	yes	53	1	616
6.6.0	win	2022-12-14	14:43:32	14:52:39	543478	5cc5e72ce3c44e0015fdf990	486453697	1	main_slash	7	advance_on_keypress_SLASH	120	stimuli_target_trianglesquares.svg	stimuli_distractor_trianglediamonds.svg	18	yes	57	0	436
6.6.0	win	2022-12-14	14:43:32	14:52:41	545090	5cc5e72ce3c44e0015fdf990	486453697	1	main_slash	7	main_slash	121	stimuli_target_circletriangles.svg	stimuli_distractor_diamondtriangles.svg	5	yes	53	1	527
6.6.0	win	2022-12-14	14:43:32	14:52:41	545090	5cc5e72ce3c44e0015fdf990	486453697	1	main_slash	7	advance_on_keypress_SLASH	122	stimuli_target_circletriangles.svg	stimuli_distractor_diamondtriangles.svg	5	yes	57	0	448
6.6.0	win	2022-12-14	14:43:32	14:52:44	548196	5cc5e72ce3c44e0015fdf990	486453697	1	main_slash	7	main_slash	123	stimuli_distractor_diamondtriangles.svg	stimuli_distractor_diamondtriangles.svg	39	no	0	1	2000
6.6.0	win	2022-12-14	14:43:32	14:52:44	548196	5cc5e72ce3c44e0015fdf990	486453697	1	main_slash	7	advance_on_keypress_SLASH	124	stimuli_distractor_diamondtriangles.svg	stimuli_distractor_diamondtriangles.svg	39	no	57	0	439
6.6.0	win	2022-12-14	14:43:32	14:52:46	549928	5cc5e72ce3c44e0015fdf990	486453697	1	main_slash	7	main_slash	125	stimuli_target_squaretriangles.svg	stimuli_distractor_trianglediamonds.svg	3	yes	53	1	648
6.6.0	win	2022-12-14	14:43:32	14:52:46	549928	5cc5e72ce3c44e0015fdf990	486453697	1	main_slash	7	advance_on_keypress_SLASH	126	stimuli_target_squaretriangles.svg	stimuli_distractor_trianglediamonds.svg	3	yes	57	0	534
6.6.0	win	2022-12-14	14:43:32	14:52:49	553113	5cc5e72ce3c44e0015fdf990	486453697	1	main_slash	7	main_slash	127	stimuli_distractor_diamondtriangles.svg	stimuli_target_squaretriangles.svg	15	yes	0	0	2000
6.6.0	win	2022-12-14	14:43:32	14:52:49	553113	5cc5e72ce3c44e0015fdf990	486453697	1	main_slash	7	advance_on_keypress_SLASH	128	stimuli_distractor_diamondtriangles.svg	stimuli_target_squaretriangles.svg	15	yes	57	0	445
6.6.0	win	2022-12-14	14:43:32	14:52:51	554784	5cc5e72ce3c44e0015fdf990	486453697	1	main_slash	7	main_slash	129	stimuli_target_trianglecircles.svg	stimuli_distractor_diamondtriangles.svg	21	yes	53	1	572
6.6.0	win	2022-12-14	14:43:32	14:52:51	554784	5cc5e72ce3c44e0015fdf990	486453697	1	main_slash	7	advance_on_keypress_SLASH	130	stimuli_target_trianglecircles.svg	stimuli_distractor_diamondtriangles.svg	21	yes	57	0	518
6.6.0	win	2022-12-14	14:43:32	14:52:53	556625	5cc5e72ce3c44e0015fdf990	486453697	1	main_slash	7	main_slash	131	stimuli_distractor_diamondtriangles.svg	stimuli_target_circletriangles.svg	13	yes	53	1	680
6.6.0	win	2022-12-14	14:43:32	14:52:53	556625	5cc5e72ce3c44e0015fdf990	486453697	1	main_slash	7	advance_on_keypress_SLASH	132	stimuli_distractor_diamondtriangles.svg	stimuli_target_circletriangles.svg	13	yes	57	0	408
6.6.0	win	2022-12-14	14:43:32	14:52:54	558279	5cc5e72ce3c44e0015fdf990	486453697	1	main_slash	7	main_slash	133	stimuli_target_diamondcircles.svg	stimuli_distractor_diamondtriangles.svg	23	yes	53	1	600
6.6.0	win	2022-12-14	14:43:32	14:52:54	558279	5cc5e72ce3c44e0015fdf990	486453697	1	main_slash	7	advance_on_keypress_SLASH	134	stimuli_target_diamondcircles.svg	stimuli_distractor_diamondtriangles.svg	23	yes	57	0	411
6.6.0	win	2022-12-14	14:43:32	14:52:56	559726	5cc5e72ce3c44e0015fdf990	486453697	1	main_slash	7	main_slash	135	stimuli_distractor_trianglediamonds.svg	stimuli_distractor_diamondtriangles.svg	35	no	53	0	373
6.6.0	win	2022-12-14	14:43:32	14:52:56	559726	5cc5e72ce3c44e0015fdf990	486453697	1	main_slash	7	advance_on_keypress_SLASH	136	stimuli_distractor_trianglediamonds.svg	stimuli_distractor_diamondtriangles.svg	35	no	57	0	1244
6.6.0	win	2022-12-14	14:43:32	14:53:00	563629	5cc5e72ce3c44e0015fdf990	486453697	1	main_slash	7	main_slash	137	stimuli_target_diamondsquares.svg	stimuli_distractor_trianglediamonds.svg	20	yes	0	0	2000
6.6.0	win	2022-12-14	14:43:32	14:53:00	563629	5cc5e72ce3c44e0015fdf990	486453697	1	main_slash	7	advance_on_keypress_SLASH	138	stimuli_target_diamondsquares.svg	stimuli_distractor_trianglediamonds.svg	20	yes	57	0	555
6.6.0	win	2022-12-14	14:43:32	14:53:03	566829	5cc5e72ce3c44e0015fdf990	486453697	1	main_slash	7	main_slash	139	stimuli_distractor_trianglediamonds.svg	stimuli_distractor_trianglediamonds.svg	34	no	0	1	2000
6.6.0	win	2022-12-14	14:43:32	14:53:03	566829	5cc5e72ce3c44e0015fdf990	486453697	1	main_slash	7	advance_on_keypress_SLASH	140	stimuli_distractor_trianglediamonds.svg	stimuli_distractor_trianglediamonds.svg	34	no	57	0	1724
6.6.0	win	2022-12-14	14:43:32	14:53:06	569778	5cc5e72ce3c44e0015fdf990	486453697	1	main_slash	7	main_slash	141	stimuli_target_trianglecircles.svg	stimuli_distractor_trianglediamonds.svg	17	yes	53	1	565
6.6.0	win	2022-12-14	14:43:32	14:53:06	569778	5cc5e72ce3c44e0015fdf990	486453697	1	main_slash	7	advance_on_keypress_SLASH	142	stimuli_target_trianglecircles.svg	stimuli_distractor_trianglediamonds.svg	17	yes	57	0	588
6.6.0	win	2022-12-14	14:43:32	14:53:07	571526	5cc5e72ce3c44e0015fdf990	486453697	1	main_slash	7	main_slash	143	stimuli_target_squaretriangles.svg	stimuli_distractor_diamondtriangles.svg	7	yes	53	1	513
6.6.0	win	2022-12-14	14:43:32	14:53:07	571526	5cc5e72ce3c44e0015fdf990	486453697	1	main_slash	7	advance_on_keypress_SLASH	144	stimuli_target_squaretriangles.svg	stimuli_distractor_diamondtriangles.svg	7	yes	57	0	402
6.6.0	win	2022-12-14	14:43:32	14:53:09	573048	5cc5e72ce3c44e0015fdf990	486453697	1	main_slash	7	main_slash	145	stimuli_target_squarediamonds.svg	stimuli_distractor_diamondtriangles.svg	8	yes	53	1	470
6.6.0	win	2022-12-14	14:43:32	14:53:09	573048	5cc5e72ce3c44e0015fdf990	486453697	1	main_slash	7	advance_on_keypress_SLASH	146	stimuli_target_squarediamonds.svg	stimuli_distractor_diamondtriangles.svg	8	yes	57	0	441
6.6.0	win	2022-12-14	14:43:32	14:53:11	574775	5cc5e72ce3c44e0015fdf990	486453697	1	main_slash	7	main_slash	147	stimuli_target_diamondsquares.svg	stimuli_distractor_diamondtriangles.svg	24	yes	53	1	647
6.6.0	win	2022-12-14	14:43:32	14:53:11	574775	5cc5e72ce3c44e0015fdf990	486453697	1	main_slash	7	advance_on_keypress_SLASH	148	stimuli_target_diamondsquares.svg	stimuli_distractor_diamondtriangles.svg	24	yes	57	0	543
6.6.0	win	2022-12-14	14:43:32	14:53:12	576493	5cc5e72ce3c44e0015fdf990	486453697	1	main_slash	7	main_slash	149	stimuli_distractor_diamondtriangles.svg	stimuli_target_squarediamonds.svg	16	yes	53	1	512
6.6.0	win	2022-12-14	14:43:32	14:53:12	576493	5cc5e72ce3c44e0015fdf990	486453697	1	main_slash	7	advance_on_keypress_SLASH	150	stimuli_distractor_diamondtriangles.svg	stimuli_target_squarediamonds.svg	16	yes	57	0	388
6.6.0	win	2022-12-14	14:43:32	14:53:14	578043	5cc5e72ce3c44e0015fdf990	486453697	1	main_slash	7	main_slash	151	stimuli_target_squarediamonds.svg	stimuli_distractor_trianglediamonds.svg	4	yes	53	1	506
6.6.0	win	2022-12-14	14:43:32	14:53:14	578043	5cc5e72ce3c44e0015fdf990	486453697	1	main_slash	7	advance_on_keypress_SLASH	152	stimuli_target_squarediamonds.svg	stimuli_distractor_trianglediamonds.svg	4	yes	57	0	380
6.6.0	win	2022-12-14	14:43:32	14:53:16	579593	5cc5e72ce3c44e0015fdf990	486453697	1	main_slash	7	main_slash	153	stimuli_target_circlediamonds.svg	stimuli_distractor_trianglediamonds.svg	2	yes	53	1	506
6.6.0	win	2022-12-14	14:43:32	14:53:16	579593	5cc5e72ce3c44e0015fdf990	486453697	1	main_slash	7	advance_on_keypress_SLASH	154	stimuli_target_circlediamonds.svg	stimuli_distractor_trianglediamonds.svg	2	yes	57	0	390
6.6.0	win	2022-12-14	14:43:32	14:53:17	581216	5cc5e72ce3c44e0015fdf990	486453697	1	main_slash	7	main_slash	155	stimuli_target_trianglesquares.svg	stimuli_distractor_diamondtriangles.svg	22	yes	53	1	587
6.6.0	win	2022-12-14	14:43:32	14:53:17	581216	5cc5e72ce3c44e0015fdf990	486453697	1	main_slash	7	advance_on_keypress_SLASH	156	stimuli_target_trianglesquares.svg	stimuli_distractor_diamondtriangles.svg	22	yes	57	0	433
6.6.0	win	2022-12-14	14:43:32	14:53:20	584296	5cc5e72ce3c44e0015fdf990	486453697	1	main_slash	7	main_slash	157	stimuli_distractor_trianglediamonds.svg	stimuli_distractor_diamondtriangles.svg	36	no	0	1	2000
6.6.0	win	2022-12-14	14:43:32	14:53:20	584296	5cc5e72ce3c44e0015fdf990	486453697	1	main_slash	7	advance_on_keypress_SLASH	158	stimuli_distractor_trianglediamonds.svg	stimuli_distractor_diamondtriangles.svg	36	no	57	0	4413
6.6.0	win	2022-12-14	14:43:32	14:53:27	591362	5cc5e72ce3c44e0015fdf990	486453697	1	main_slash	7	main_slash	159	stimuli_distractor_diamondtriangles.svg	stimuli_distractor_trianglediamonds.svg	38	no	0	1	2000
6.6.0	win	2022-12-14	14:43:32	14:53:27	591362	5cc5e72ce3c44e0015fdf990	486453697	1	main_slash	7	advance_on_keypress_SLASH	160	stimuli_distractor_diamondtriangles.svg	stimuli_distractor_trianglediamonds.svg	38	no	57	0	588
6.6.0	win	2022-12-14	14:43:32	14:55:29	713299	5cc5e72ce3c44e0015fdf990	486453697	1	practice_z	9	practice_z	1	stimuli_distractor_trianglediamonds.svg	stimuli_distractor_diamondtriangles.svg	16	no	0	1	2000
6.6.0	win	2022-12-14	14:43:32	14:55:29	713299	5cc5e72ce3c44e0015fdf990	486453697	1	practice_z	9	advance_on_keypress_ZEE	2	stimuli_distractor_trianglediamonds.svg	stimuli_distractor_diamondtriangles.svg	16	no	57	0	1873
6.6.0	win	2022-12-14	14:43:32	14:55:34	717634	5cc5e72ce3c44e0015fdf990	486453697	1	practice_z	9	practice_z	3	stimuli_target_diamondsquares.svg	stimuli_distractor_diamondtriangles.svg	3	yes	44	1	784
6.6.0	win	2022-12-14	14:43:32	14:55:34	717634	5cc5e72ce3c44e0015fdf990	486453697	1	practice_z	9	advance_on_keypress_ZEE	4	stimuli_target_diamondsquares.svg	stimuli_distractor_diamondtriangles.svg	3	yes	57	0	644
6.6.0	win	2022-12-14	14:43:32	14:55:37	720853	5cc5e72ce3c44e0015fdf990	486453697	1	practice_z	9	practice_z	5	stimuli_distractor_trianglediamonds.svg	stimuli_target_squarediamonds.svg	11	yes	44	1	919
6.6.0	win	2022-12-14	14:43:32	14:55:37	720853	5cc5e72ce3c44e0015fdf990	486453697	1	practice_z	9	advance_on_keypress_ZEE	6	stimuli_distractor_trianglediamonds.svg	stimuli_target_squarediamonds.svg	11	yes	57	0	562
6.6.0	win	2022-12-14	14:43:32	14:55:41	725067	5cc5e72ce3c44e0015fdf990	486453697	1	practice_z	9	practice_z	7	stimuli_distractor_trianglediamonds.svg	stimuli_distractor_trianglediamonds.svg	15	no	0	1	2000
6.6.0	win	2022-12-14	14:43:32	14:55:41	725067	5cc5e72ce3c44e0015fdf990	486453697	1	practice_z	9	advance_on_keypress_ZEE	8	stimuli_distractor_trianglediamonds.svg	stimuli_distractor_trianglediamonds.svg	15	no	57	0	719
6.6.0	win	2022-12-14	14:43:32	14:55:44	727954	5cc5e72ce3c44e0015fdf990	486453697	1	practice_z	9	practice_z	9	stimuli_distractor_trianglediamonds.svg	stimuli_target_diamondcircles.svg	12	yes	44	1	521
6.6.0	win	2022-12-14	14:43:32	14:55:44	727954	5cc5e72ce3c44e0015fdf990	486453697	1	practice_z	9	advance_on_keypress_ZEE	10	stimuli_distractor_trianglediamonds.svg	stimuli_target_diamondcircles.svg	12	yes	57	0	613
6.6.0	win	2022-12-14	14:43:32	14:55:48	732215	5cc5e72ce3c44e0015fdf990	486453697	1	practice_z	9	practice_z	11	stimuli_distractor_diamondtriangles.svg	stimuli_distractor_trianglediamonds.svg	14	no	0	1	2000
6.6.0	win	2022-12-14	14:43:32	14:55:48	732215	5cc5e72ce3c44e0015fdf990	486453697	1	practice_z	9	advance_on_keypress_ZEE	12	stimuli_distractor_diamondtriangles.svg	stimuli_distractor_trianglediamonds.svg	14	no	57	0	623
6.6.0	win	2022-12-14	14:43:32	14:55:51	735109	5cc5e72ce3c44e0015fdf990	486453697	1	practice_z	9	practice_z	13	stimuli_target_diamondsquares.svg	stimuli_distractor_trianglediamonds.svg	6	yes	44	1	626
6.6.0	win	2022-12-14	14:43:32	14:55:51	735109	5cc5e72ce3c44e0015fdf990	486453697	1	practice_z	9	advance_on_keypress_ZEE	14	stimuli_target_diamondsquares.svg	stimuli_distractor_trianglediamonds.svg	6	yes	57	0	697
6.6.0	win	2022-12-14	14:43:32	14:55:54	737979	5cc5e72ce3c44e0015fdf990	486453697	1	practice_z	9	practice_z	15	stimuli_target_circlediamonds.svg	stimuli_distractor_trianglediamonds.svg	4	yes	44	1	513
6.6.0	win	2022-12-14	14:43:32	14:55:54	737979	5cc5e72ce3c44e0015fdf990	486453697	1	practice_z	9	advance_on_keypress_ZEE	16	stimuli_target_circlediamonds.svg	stimuli_distractor_trianglediamonds.svg	4	yes	57	0	504
6.6.0	win	2022-12-14	14:43:32	14:55:57	740573	5cc5e72ce3c44e0015fdf990	486453697	1	practice_z	9	practice_z	17	stimuli_target_squarediamonds.svg	stimuli_distractor_trianglediamonds.svg	5	yes	44	1	423
6.6.0	win	2022-12-14	14:43:32	14:55:57	740573	5cc5e72ce3c44e0015fdf990	486453697	1	practice_z	9	advance_on_keypress_ZEE	18	stimuli_target_squarediamonds.svg	stimuli_distractor_trianglediamonds.svg	5	yes	57	0	449
6.6.0	win	2022-12-14	14:43:32	14:55:59	743116	5cc5e72ce3c44e0015fdf990	486453697	1	practice_z	9	practice_z	19	stimuli_distractor_diamondtriangles.svg	stimuli_target_diamondcircles.svg	8	yes	44	1	433
6.6.0	win	2022-12-14	14:43:32	14:55:59	743116	5cc5e72ce3c44e0015fdf990	486453697	1	practice_z	9	advance_on_keypress_ZEE	20	stimuli_distractor_diamondtriangles.svg	stimuli_target_diamondcircles.svg	8	yes	57	0	470
6.6.0	win	2022-12-14	14:43:32	14:56:02	745746	5cc5e72ce3c44e0015fdf990	486453697	1	practice_z	9	practice_z	21	stimuli_distractor_diamondtriangles.svg	stimuli_target_trianglecircles.svg	9	yes	44	1	507
6.6.0	win	2022-12-14	14:43:32	14:56:02	745746	5cc5e72ce3c44e0015fdf990	486453697	1	practice_z	9	advance_on_keypress_ZEE	22	stimuli_distractor_diamondtriangles.svg	stimuli_target_trianglecircles.svg	9	yes	57	0	506
6.6.0	win	2022-12-14	14:43:32	14:56:04	748444	5cc5e72ce3c44e0015fdf990	486453697	1	practice_z	9	practice_z	23	stimuli_target_squarediamonds.svg	stimuli_distractor_diamondtriangles.svg	2	yes	44	1	544
6.6.0	win	2022-12-14	14:43:32	14:56:04	748444	5cc5e72ce3c44e0015fdf990	486453697	1	practice_z	9	advance_on_keypress_ZEE	24	stimuli_target_squarediamonds.svg	stimuli_distractor_diamondtriangles.svg	2	yes	57	0	557
6.6.0	win	2022-12-14	14:43:32	14:56:07	751017	5cc5e72ce3c44e0015fdf990	486453697	1	practice_z	9	practice_z	25	stimuli_distractor_diamondtriangles.svg	stimuli_distractor_diamondtriangles.svg	13	no	44	0	350
6.6.0	win	2022-12-14	14:43:32	14:56:07	751017	5cc5e72ce3c44e0015fdf990	486453697	1	practice_z	9	advance_on_keypress_ZEE	26	stimuli_distractor_diamondtriangles.svg	stimuli_distractor_diamondtriangles.svg	13	no	57	0	608
6.6.0	win	2022-12-14	14:43:32	14:56:10	753797	5cc5e72ce3c44e0015fdf990	486453697	1	practice_z	9	practice_z	27	stimuli_target_circlediamonds.svg	stimuli_distractor_diamondtriangles.svg	1	yes	44	1	509
6.6.0	win	2022-12-14	14:43:32	14:56:10	753797	5cc5e72ce3c44e0015fdf990	486453697	1	practice_z	9	advance_on_keypress_ZEE	28	stimuli_target_circlediamonds.svg	stimuli_distractor_diamondtriangles.svg	1	yes	57	0	452
6.6.0	win	2022-12-14	14:43:32	14:56:12	756366	5cc5e72ce3c44e0015fdf990	486453697	1	practice_z	9	practice_z	29	stimuli_distractor_diamondtriangles.svg	stimuli_target_circletriangles.svg	7	yes	44	1	466
6.6.0	win	2022-12-14	14:43:32	14:56:12	756366	5cc5e72ce3c44e0015fdf990	486453697	1	practice_z	9	advance_on_keypress_ZEE	30	stimuli_distractor_diamondtriangles.svg	stimuli_target_circletriangles.svg	7	yes	57	0	254
6.6.0	win	2022-12-14	14:43:32	14:56:15	758818	5cc5e72ce3c44e0015fdf990	486453697	1	practice_z	9	practice_z	31	stimuli_distractor_trianglediamonds.svg	stimuli_target_circlediamonds.svg	10	yes	44	1	547
6.6.0	win	2022-12-14	14:43:32	14:56:15	758818	5cc5e72ce3c44e0015fdf990	486453697	1	practice_z	9	advance_on_keypress_ZEE	32	stimuli_distractor_trianglediamonds.svg	stimuli_target_circlediamonds.svg	10	yes	57	0	357
6.6.0	win	2022-12-14	14:43:32	14:56:22	765811	5cc5e72ce3c44e0015fdf990	486453697	1	main_z	11	main_z	1	stimuli_target_squarediamonds.svg	stimuli_distractor_trianglediamonds.svg	4	yes	44	1	413
6.6.0	win	2022-12-14	14:43:32	14:56:22	765811	5cc5e72ce3c44e0015fdf990	486453697	1	main_z	11	advance_on_keypress_ZEE	2	stimuli_target_squarediamonds.svg	stimuli_distractor_trianglediamonds.svg	4	yes	57	0	925
6.6.0	win	2022-12-14	14:43:32	14:56:24	767733	5cc5e72ce3c44e0015fdf990	486453697	1	main_z	11	main_z	3	stimuli_distractor_trianglediamonds.svg	stimuli_distractor_trianglediamonds.svg	34	no	44	0	336
6.6.0	win	2022-12-14	14:43:32	14:56:24	767733	5cc5e72ce3c44e0015fdf990	486453697	1	main_z	11	advance_on_keypress_ZEE	4	stimuli_distractor_trianglediamonds.svg	stimuli_distractor_trianglediamonds.svg	34	no	57	0	638
6.6.0	win	2022-12-14	14:43:32	14:56:25	769425	5cc5e72ce3c44e0015fdf990	486453697	1	main_z	11	main_z	5	stimuli_distractor_diamondtriangles.svg	stimuli_target_diamondcircles.svg	31	yes	44	1	412
6.6.0	win	2022-12-14	14:43:32	14:56:25	769425	5cc5e72ce3c44e0015fdf990	486453697	1	main_z	11	advance_on_keypress_ZEE	6	stimuli_distractor_diamondtriangles.svg	stimuli_target_diamondcircles.svg	31	yes	57	0	692
6.6.0	win	2022-12-14	14:43:32	14:56:27	771279	5cc5e72ce3c44e0015fdf990	486453697	1	main_z	11	main_z	7	stimuli_distractor_trianglediamonds.svg	stimuli_distractor_trianglediamonds.svg	33	no	44	0	499
6.6.0	win	2022-12-14	14:43:32	14:56:27	771279	5cc5e72ce3c44e0015fdf990	486453697	1	main_z	11	advance_on_keypress_ZEE	8	stimuli_distractor_trianglediamonds.svg	stimuli_distractor_trianglediamonds.svg	33	no	57	0	647
6.6.0	win	2022-12-14	14:43:32	14:56:29	773287	5cc5e72ce3c44e0015fdf990	486453697	1	main_z	11	main_z	9	stimuli_target_diamondsquares.svg	stimuli_distractor_diamondtriangles.svg	24	yes	44	1	706
6.6.0	win	2022-12-14	14:43:32	14:56:29	773287	5cc5e72ce3c44e0015fdf990	486453697	1	main_z	11	advance_on_keypress_ZEE	10	stimuli_target_diamondsquares.svg	stimuli_distractor_diamondtriangles.svg	24	yes	57	0	1025
6.6.0	win	2022-12-14	14:43:32	14:56:31	775423	5cc5e72ce3c44e0015fdf990	486453697	1	main_z	11	main_z	11	stimuli_target_squaretriangles.svg	stimuli_distractor_diamondtriangles.svg	7	yes	44	1	460
6.6.0	win	2022-12-14	14:43:32	14:56:31	775423	5cc5e72ce3c44e0015fdf990	486453697	1	main_z	11	advance_on_keypress_ZEE	12	stimuli_target_squaretriangles.svg	stimuli_distractor_diamondtriangles.svg	7	yes	57	0	630
6.6.0	win	2022-12-14	14:43:32	14:56:33	777104	5cc5e72ce3c44e0015fdf990	486453697	1	main_z	11	main_z	13	stimuli_target_circlediamonds.svg	stimuli_distractor_diamondtriangles.svg	6	yes	44	1	391
6.6.0	win	2022-12-14	14:43:32	14:56:33	777104	5cc5e72ce3c44e0015fdf990	486453697	1	main_z	11	advance_on_keypress_ZEE	14	stimuli_target_circlediamonds.svg	stimuli_distractor_diamondtriangles.svg	6	yes	57	0	514
6.6.0	win	2022-12-14	14:43:32	14:56:35	778643	5cc5e72ce3c44e0015fdf990	486453697	1	main_z	11	main_z	15	stimuli_target_circletriangles.svg	stimuli_distractor_diamondtriangles.svg	5	yes	44	1	378
6.6.0	win	2022-12-14	14:43:32	14:56:35	778643	5cc5e72ce3c44e0015fdf990	486453697	1	main_z	11	advance_on_keypress_ZEE	16	stimuli_target_circletriangles.svg	stimuli_distractor_diamondtriangles.svg	5	yes	57	0	585
6.6.0	win	2022-12-14	14:43:32	14:56:37	780591	5cc5e72ce3c44e0015fdf990	486453697	1	main_z	11	main_z	17	stimuli_distractor_diamondtriangles.svg	stimuli_target_trianglesquares.svg	30	yes	44	1	711
6.6.0	win	2022-12-14	14:43:32	14:56:37	780591	5cc5e72ce3c44e0015fdf990	486453697	1	main_z	11	advance_on_keypress_ZEE	18	stimuli_distractor_diamondtriangles.svg	stimuli_target_trianglesquares.svg	30	yes	57	0	494
6.6.0	win	2022-12-14	14:43:32	14:56:38	782246	5cc5e72ce3c44e0015fdf990	486453697	1	main_z	11	main_z	19	stimuli_target_trianglesquares.svg	stimuli_distractor_diamondtriangles.svg	22	yes	44	1	499
6.6.0	win	2022-12-14	14:43:32	14:56:38	782246	5cc5e72ce3c44e0015fdf990	486453697	1	main_z	11	advance_on_keypress_ZEE	20	stimuli_target_trianglesquares.svg	stimuli_distractor_diamondtriangles.svg	22	yes	57	0	523
6.6.0	win	2022-12-14	14:43:32	14:56:40	783799	5cc5e72ce3c44e0015fdf990	486453697	1	main_z	11	main_z	21	stimuli_target_trianglecircles.svg	stimuli_distractor_trianglediamonds.svg	17	yes	44	1	386
6.6.0	win	2022-12-14	14:43:32	14:56:40	783799	5cc5e72ce3c44e0015fdf990	486453697	1	main_z	11	advance_on_keypress_ZEE	22	stimuli_target_trianglecircles.svg	stimuli_distractor_trianglediamonds.svg	17	yes	57	0	616
6.6.0	win	2022-12-14	14:43:32	14:56:41	785456	5cc5e72ce3c44e0015fdf990	486453697	1	main_z	11	main_z	23	stimuli_target_circletriangles.svg	stimuli_distractor_trianglediamonds.svg	1	yes	44	1	393
6.6.0	win	2022-12-14	14:43:32	14:56:41	785456	5cc5e72ce3c44e0015fdf990	486453697	1	main_z	11	advance_on_keypress_ZEE	24	stimuli_target_circletriangles.svg	stimuli_distractor_trianglediamonds.svg	1	yes	57	0	536
6.6.0	win	2022-12-14	14:43:32	14:56:43	787169	5cc5e72ce3c44e0015fdf990	486453697	1	main_z	11	main_z	25	stimuli_distractor_trianglediamonds.svg	stimuli_target_circletriangles.svg	9	yes	44	1	522
6.6.0	win	2022-12-14	14:43:32	14:56:43	787169	5cc5e72ce3c44e0015fdf990	486453697	1	main_z	11	advance_on_keypress_ZEE	26	stimuli_distractor_trianglediamonds.svg	stimuli_target_circletriangles.svg	9	yes	57	0	377
6.6.0	win	2022-12-14	14:43:32	14:56:45	788663	5cc5e72ce3c44e0015fdf990	486453697	1	main_z	11	main_z	27	stimuli_distractor_diamondtriangles.svg	stimuli_target_circlediamonds.svg	14	yes	44	1	466
6.6.0	win	2022-12-14	14:43:32	14:56:45	788663	5cc5e72ce3c44e0015fdf990	486453697	1	main_z	11	advance_on_keypress_ZEE	28	stimuli_distractor_diamondtriangles.svg	stimuli_target_circlediamonds.svg	14	yes	57	0	467
6.6.0	win	2022-12-14	14:43:32	14:56:46	790129	5cc5e72ce3c44e0015fdf990	486453697	1	main_z	11	main_z	29	stimuli_target_circlediamonds.svg	stimuli_distractor_trianglediamonds.svg	2	yes	44	1	349
6.6.0	win	2022-12-14	14:43:32	14:56:46	790129	5cc5e72ce3c44e0015fdf990	486453697	1	main_z	11	advance_on_keypress_ZEE	30	stimuli_target_circlediamonds.svg	stimuli_distractor_trianglediamonds.svg	2	yes	57	0	470
6.6.0	win	2022-12-14	14:43:32	14:56:48	791580	5cc5e72ce3c44e0015fdf990	486453697	1	main_z	11	main_z	31	stimuli_distractor_diamondtriangles.svg	stimuli_distractor_trianglediamonds.svg	37	no	44	0	335
6.6.0	win	2022-12-14	14:43:32	14:56:48	791580	5cc5e72ce3c44e0015fdf990	486453697	1	main_z	11	advance_on_keypress_ZEE	32	stimuli_distractor_diamondtriangles.svg	stimuli_distractor_trianglediamonds.svg	37	no	57	0	733
6.6.0	win	2022-12-14	14:43:32	14:56:50	793839	5cc5e72ce3c44e0015fdf990	486453697	1	main_z	11	main_z	33	stimuli_distractor_diamondtriangles.svg	stimuli_target_diamondsquares.svg	32	yes	44	1	876
6.6.0	win	2022-12-14	14:43:32	14:56:50	793839	5cc5e72ce3c44e0015fdf990	486453697	1	main_z	11	advance_on_keypress_ZEE	34	stimuli_distractor_diamondtriangles.svg	stimuli_target_diamondsquares.svg	32	yes	57	0	389
6.6.0	win	2022-12-14	14:43:32	14:56:51	795393	5cc5e72ce3c44e0015fdf990	486453697	1	main_z	11	main_z	35	stimuli_target_squarediamonds.svg	stimuli_distractor_diamondtriangles.svg	8	yes	44	1	506
6.6.0	win	2022-12-14	14:43:32	14:56:51	795393	5cc5e72ce3c44e0015fdf990	486453697	1	main_z	11	advance_on_keypress_ZEE	36	stimuli_target_squarediamonds.svg	stimuli_distractor_diamondtriangles.svg	8	yes	57	0	387
6.6.0	win	2022-12-14	14:43:32	14:56:53	796944	5cc5e72ce3c44e0015fdf990	486453697	1	main_z	11	main_z	37	stimuli_distractor_diamondtriangles.svg	stimuli_target_squaretriangles.svg	15	yes	44	1	513
6.6.0	win	2022-12-14	14:43:32	14:56:53	796944	5cc5e72ce3c44e0015fdf990	486453697	1	main_z	11	advance_on_keypress_ZEE	38	stimuli_distractor_diamondtriangles.svg	stimuli_target_squaretriangles.svg	15	yes	57	0	454
6.6.0	win	2022-12-14	14:43:32	14:56:54	798464	5cc5e72ce3c44e0015fdf990	486453697	1	main_z	11	main_z	39	stimuli_target_diamondcircles.svg	stimuli_distractor_diamondtriangles.svg	23	yes	44	1	417
6.6.0	win	2022-12-14	14:43:32	14:56:54	798464	5cc5e72ce3c44e0015fdf990	486453697	1	main_z	11	advance_on_keypress_ZEE	40	stimuli_target_diamondcircles.svg	stimuli_distractor_diamondtriangles.svg	23	yes	57	0	506
6.6.0	win	2022-12-14	14:43:32	14:56:58	801613	5cc5e72ce3c44e0015fdf990	486453697	1	main_z	11	main_z	41	stimuli_distractor_diamondtriangles.svg	stimuli_distractor_diamondtriangles.svg	39	no	0	1	2000
6.6.0	win	2022-12-14	14:43:32	14:56:58	801613	5cc5e72ce3c44e0015fdf990	486453697	1	main_z	11	advance_on_keypress_ZEE	42	stimuli_distractor_diamondtriangles.svg	stimuli_distractor_diamondtriangles.svg	39	no	57	0	570
6.6.0	win	2022-12-14	14:43:32	14:56:59	803447	5cc5e72ce3c44e0015fdf990	486453697	1	main_z	11	main_z	43	stimuli_distractor_trianglediamonds.svg	stimuli_target_squaretriangles.svg	11	yes	44	1	617
6.6.0	win	2022-12-14	14:43:32	14:56:59	803447	5cc5e72ce3c44e0015fdf990	486453697	1	main_z	11	advance_on_keypress_ZEE	44	stimuli_distractor_trianglediamonds.svg	stimuli_target_squaretriangles.svg	11	yes	57	0	451
6.6.0	win	2022-12-14	14:43:32	14:57:02	806546	5cc5e72ce3c44e0015fdf990	486453697	1	main_z	11	main_z	45	stimuli_distractor_diamondtriangles.svg	stimuli_distractor_diamondtriangles.svg	40	no	0	1	2000
6.6.0	win	2022-12-14	14:43:32	14:57:02	806546	5cc5e72ce3c44e0015fdf990	486453697	1	main_z	11	advance_on_keypress_ZEE	46	stimuli_distractor_diamondtriangles.svg	stimuli_distractor_diamondtriangles.svg	40	no	57	0	860
6.6.0	win	2022-12-14	14:43:32	14:57:05	808679	5cc5e72ce3c44e0015fdf990	486453697	1	main_z	11	main_z	47	stimuli_target_diamondsquares.svg	stimuli_distractor_trianglediamonds.svg	20	yes	44	1	616
6.6.0	win	2022-12-14	14:43:32	14:57:05	808679	5cc5e72ce3c44e0015fdf990	486453697	1	main_z	11	advance_on_keypress_ZEE	48	stimuli_target_diamondsquares.svg	stimuli_distractor_trianglediamonds.svg	20	yes	57	0	429
6.6.0	win	2022-12-14	14:43:32	14:57:06	810458	5cc5e72ce3c44e0015fdf990	486453697	1	main_z	11	main_z	49	stimuli_distractor_trianglediamonds.svg	stimuli_target_squarediamonds.svg	12	yes	44	1	696
6.6.0	win	2022-12-14	14:43:32	14:57:06	810458	5cc5e72ce3c44e0015fdf990	486453697	1	main_z	11	advance_on_keypress_ZEE	50	stimuli_distractor_trianglediamonds.svg	stimuli_target_squarediamonds.svg	12	yes	57	0	399
6.6.0	win	2022-12-14	14:43:32	14:57:08	811960	5cc5e72ce3c44e0015fdf990	486453697	1	main_z	11	main_z	51	stimuli_distractor_trianglediamonds.svg	stimuli_target_trianglesquares.svg	26	yes	44	1	448
6.6.0	win	2022-12-14	14:43:32	14:57:08	811960	5cc5e72ce3c44e0015fdf990	486453697	1	main_z	11	advance_on_keypress_ZEE	52	stimuli_distractor_trianglediamonds.svg	stimuli_target_trianglesquares.svg	26	yes	57	0	386
6.6.0	win	2022-12-14	14:43:32	14:57:10	813582	5cc5e72ce3c44e0015fdf990	486453697	1	main_z	11	main_z	53	stimuli_target_trianglesquares.svg	stimuli_distractor_trianglediamonds.svg	18	yes	44	1	585
6.6.0	win	2022-12-14	14:43:32	14:57:10	813582	5cc5e72ce3c44e0015fdf990	486453697	1	main_z	11	advance_on_keypress_ZEE	54	stimuli_target_trianglesquares.svg	stimuli_distractor_trianglediamonds.svg	18	yes	57	0	438
6.6.0	win	2022-12-14	14:43:32	14:57:11	815135	5cc5e72ce3c44e0015fdf990	486453697	1	main_z	11	main_z	55	stimuli_target_trianglecircles.svg	stimuli_distractor_diamondtriangles.svg	21	yes	44	1	473
6.6.0	win	2022-12-14	14:43:32	14:57:11	815135	5cc5e72ce3c44e0015fdf990	486453697	1	main_z	11	advance_on_keypress_ZEE	56	stimuli_target_trianglecircles.svg	stimuli_distractor_diamondtriangles.svg	21	yes	57	0	441
6.6.0	win	2022-12-14	14:43:32	14:57:13	816725	5cc5e72ce3c44e0015fdf990	486453697	1	main_z	11	main_z	57	stimuli_distractor_trianglediamonds.svg	stimuli_target_diamondcircles.svg	27	yes	44	1	494
6.6.0	win	2022-12-14	14:43:32	14:57:13	816725	5cc5e72ce3c44e0015fdf990	486453697	1	main_z	11	advance_on_keypress_ZEE	58	stimuli_distractor_trianglediamonds.svg	stimuli_target_diamondcircles.svg	27	yes	57	0	433
6.6.0	win	2022-12-14	14:43:32	14:57:14	818350	5cc5e72ce3c44e0015fdf990	486453697	1	main_z	11	main_z	59	stimuli_distractor_diamondtriangles.svg	stimuli_target_squarediamonds.svg	16	yes	44	1	537
6.6.0	win	2022-12-14	14:43:32	14:57:14	818350	5cc5e72ce3c44e0015fdf990	486453697	1	main_z	11	advance_on_keypress_ZEE	60	stimuli_distractor_diamondtriangles.svg	stimuli_target_squarediamonds.svg	16	yes	57	0	439
6.6.0	win	2022-12-14	14:43:32	14:57:16	819955	5cc5e72ce3c44e0015fdf990	486453697	1	main_z	11	main_z	61	stimuli_distractor_trianglediamonds.svg	stimuli_target_diamondsquares.svg	28	yes	44	1	525
6.6.0	win	2022-12-14	14:43:32	14:57:16	819955	5cc5e72ce3c44e0015fdf990	486453697	1	main_z	11	advance_on_keypress_ZEE	62	stimuli_distractor_trianglediamonds.svg	stimuli_target_diamondsquares.svg	28	yes	57	0	527
6.6.0	win	2022-12-14	14:43:32	14:57:19	823146	5cc5e72ce3c44e0015fdf990	486453697	1	main_z	11	main_z	63	stimuli_target_squaretriangles.svg	stimuli_distractor_trianglediamonds.svg	3	yes	0	0	2000
6.6.0	win	2022-12-14	14:43:32	14:57:19	823146	5cc5e72ce3c44e0015fdf990	486453697	1	main_z	11	advance_on_keypress_ZEE	64	stimuli_target_squaretriangles.svg	stimuli_distractor_trianglediamonds.svg	3	yes	57	0	575
6.6.0	win	2022-12-14	14:43:32	14:57:21	824893	5cc5e72ce3c44e0015fdf990	486453697	1	main_z	11	main_z	65	stimuli_distractor_diamondtriangles.svg	stimuli_target_circletriangles.svg	13	yes	44	1	506
6.6.0	win	2022-12-14	14:43:32	14:57:21	824893	5cc5e72ce3c44e0015fdf990	486453697	1	main_z	11	advance_on_keypress_ZEE	66	stimuli_distractor_diamondtriangles.svg	stimuli_target_circletriangles.svg	13	yes	57	0	403
6.6.0	win	2022-12-14	14:43:32	14:57:22	826513	5cc5e72ce3c44e0015fdf990	486453697	1	main_z	11	main_z	67	stimuli_distractor_diamondtriangles.svg	stimuli_distractor_trianglediamonds.svg	38	no	44	0	567
6.6.0	win	2022-12-14	14:43:32	14:57:22	826513	5cc5e72ce3c44e0015fdf990	486453697	1	main_z	11	advance_on_keypress_ZEE	68	stimuli_distractor_diamondtriangles.svg	stimuli_distractor_trianglediamonds.svg	38	no	57	0	695
6.6.0	win	2022-12-14	14:43:32	14:57:24	828492	5cc5e72ce3c44e0015fdf990	486453697	1	main_z	11	main_z	69	stimuli_distractor_diamondtriangles.svg	stimuli_target_trianglecircles.svg	29	yes	44	1	629
6.6.0	win	2022-12-14	14:43:32	14:57:24	828492	5cc5e72ce3c44e0015fdf990	486453697	1	main_z	11	advance_on_keypress_ZEE	70	stimuli_distractor_diamondtriangles.svg	stimuli_target_trianglecircles.svg	29	yes	57	0	416
6.6.0	win	2022-12-14	14:43:32	14:57:26	830174	5cc5e72ce3c44e0015fdf990	486453697	1	main_z	11	main_z	71	stimuli_distractor_trianglediamonds.svg	stimuli_target_circlediamonds.svg	10	yes	44	1	611
6.6.0	win	2022-12-14	14:43:32	14:57:26	830174	5cc5e72ce3c44e0015fdf990	486453697	1	main_z	11	advance_on_keypress_ZEE	72	stimuli_distractor_trianglediamonds.svg	stimuli_target_circlediamonds.svg	10	yes	57	0	350
6.6.0	win	2022-12-14	14:43:32	14:57:29	833180	5cc5e72ce3c44e0015fdf990	486453697	1	main_z	11	main_z	73	stimuli_distractor_trianglediamonds.svg	stimuli_distractor_diamondtriangles.svg	36	no	0	1	2000
6.6.0	win	2022-12-14	14:43:32	14:57:29	833180	5cc5e72ce3c44e0015fdf990	486453697	1	main_z	11	advance_on_keypress_ZEE	74	stimuli_distractor_trianglediamonds.svg	stimuli_distractor_diamondtriangles.svg	36	no	57	0	328
6.6.0	win	2022-12-14	14:43:32	14:57:31	834707	5cc5e72ce3c44e0015fdf990	486453697	1	main_z	11	main_z	75	stimuli_target_diamondcircles.svg	stimuli_distractor_trianglediamonds.svg	19	yes	44	1	544
6.6.0	win	2022-12-14	14:43:32	14:57:31	834707	5cc5e72ce3c44e0015fdf990	486453697	1	main_z	11	advance_on_keypress_ZEE	76	stimuli_target_diamondcircles.svg	stimuli_distractor_trianglediamonds.svg	19	yes	57	0	468
6.6.0	win	2022-12-14	14:43:32	14:57:32	836291	5cc5e72ce3c44e0015fdf990	486453697	1	main_z	11	main_z	77	stimuli_distractor_trianglediamonds.svg	stimuli_target_trianglecircles.svg	25	yes	44	1	461
6.6.0	win	2022-12-14	14:43:32	14:57:32	836291	5cc5e72ce3c44e0015fdf990	486453697	1	main_z	11	advance_on_keypress_ZEE	78	stimuli_distractor_trianglediamonds.svg	stimuli_target_trianglecircles.svg	25	yes	57	0	377
6.6.0	win	2022-12-14	14:43:32	14:57:35	839330	5cc5e72ce3c44e0015fdf990	486453697	1	main_z	11	main_z	79	stimuli_distractor_trianglediamonds.svg	stimuli_distractor_diamondtriangles.svg	35	no	0	1	2000
6.6.0	win	2022-12-14	14:43:32	14:57:35	839330	5cc5e72ce3c44e0015fdf990	486453697	1	main_z	11	advance_on_keypress_ZEE	80	stimuli_distractor_trianglediamonds.svg	stimuli_distractor_diamondtriangles.svg	35	no	57	0	582
6.6.0	win	2022-12-14	14:43:32	14:57:37	841084	5cc5e72ce3c44e0015fdf990	486453697	1	main_z	11	main_z	81	stimuli_distractor_diamondtriangles.svg	stimuli_target_trianglecircles.svg	29	yes	44	1	522
6.6.0	win	2022-12-14	14:43:32	14:57:37	841084	5cc5e72ce3c44e0015fdf990	486453697	1	main_z	11	advance_on_keypress_ZEE	82	stimuli_distractor_diamondtriangles.svg	stimuli_target_trianglecircles.svg	29	yes	57	0	333
6.6.0	win	2022-12-14	14:43:32	14:57:38	842544	5cc5e72ce3c44e0015fdf990	486453697	1	main_z	11	main_z	83	stimuli_distractor_trianglediamonds.svg	stimuli_target_trianglecircles.svg	25	yes	44	1	481
6.6.0	win	2022-12-14	14:43:32	14:57:38	842544	5cc5e72ce3c44e0015fdf990	486453697	1	main_z	11	advance_on_keypress_ZEE	84	stimuli_distractor_trianglediamonds.svg	stimuli_target_trianglecircles.svg	25	yes	57	0	331
6.6.0	win	2022-12-14	14:43:32	14:57:40	843895	5cc5e72ce3c44e0015fdf990	486453697	1	main_z	11	main_z	85	stimuli_target_diamondcircles.svg	stimuli_distractor_trianglediamonds.svg	19	yes	44	1	365
6.6.0	win	2022-12-14	14:43:32	14:57:40	843895	5cc5e72ce3c44e0015fdf990	486453697	1	main_z	11	advance_on_keypress_ZEE	86	stimuli_target_diamondcircles.svg	stimuli_distractor_trianglediamonds.svg	19	yes	57	0	413
6.6.0	win	2022-12-14	14:43:32	14:57:43	846962	5cc5e72ce3c44e0015fdf990	486453697	1	main_z	11	main_z	87	stimuli_distractor_diamondtriangles.svg	stimuli_distractor_diamondtriangles.svg	39	no	0	1	2000
6.6.0	win	2022-12-14	14:43:32	14:57:43	846962	5cc5e72ce3c44e0015fdf990	486453697	1	main_z	11	advance_on_keypress_ZEE	88	stimuli_distractor_diamondtriangles.svg	stimuli_distractor_diamondtriangles.svg	39	no	57	0	676
6.6.0	win	2022-12-14	14:43:32	14:57:45	848967	5cc5e72ce3c44e0015fdf990	486453697	1	main_z	11	main_z	89	stimuli_distractor_trianglediamonds.svg	stimuli_target_circletriangles.svg	9	yes	44	1	671
6.6.0	win	2022-12-14	14:43:32	14:57:45	848967	5cc5e72ce3c44e0015fdf990	486453697	1	main_z	11	advance_on_keypress_ZEE	90	stimuli_distractor_trianglediamonds.svg	stimuli_target_circletriangles.svg	9	yes	57	0	340
6.6.0	win	2022-12-14	14:43:32	14:57:46	850504	5cc5e72ce3c44e0015fdf990	486453697	1	main_z	11	main_z	91	stimuli_target_squarediamonds.svg	stimuli_distractor_diamondtriangles.svg	8	yes	44	1	556
6.6.0	win	2022-12-14	14:43:32	14:57:46	850504	5cc5e72ce3c44e0015fdf990	486453697	1	main_z	11	advance_on_keypress_ZEE	92	stimuli_target_squarediamonds.svg	stimuli_distractor_diamondtriangles.svg	8	yes	57	0	422
6.6.0	win	2022-12-14	14:43:32	14:57:50	853563	5cc5e72ce3c44e0015fdf990	486453697	1	main_z	11	main_z	93	stimuli_distractor_diamondtriangles.svg	stimuli_distractor_trianglediamonds.svg	37	no	0	1	2000
6.6.0	win	2022-12-14	14:43:32	14:57:50	853563	5cc5e72ce3c44e0015fdf990	486453697	1	main_z	11	advance_on_keypress_ZEE	94	stimuli_distractor_diamondtriangles.svg	stimuli_distractor_trianglediamonds.svg	37	no	57	0	533
6.6.0	win	2022-12-14	14:43:32	14:57:51	855260	5cc5e72ce3c44e0015fdf990	486453697	1	main_z	11	main_z	95	stimuli_target_circlediamonds.svg	stimuli_distractor_diamondtriangles.svg	6	yes	44	1	505
6.6.0	win	2022-12-14	14:43:32	14:57:51	855260	5cc5e72ce3c44e0015fdf990	486453697	1	main_z	11	advance_on_keypress_ZEE	96	stimuli_target_circlediamonds.svg	stimuli_distractor_diamondtriangles.svg	6	yes	57	0	317
6.6.0	win	2022-12-14	14:43:32	14:57:53	856868	5cc5e72ce3c44e0015fdf990	486453697	1	main_z	11	main_z	97	stimuli_target_diamondsquares.svg	stimuli_distractor_diamondtriangles.svg	24	yes	44	1	639
6.6.0	win	2022-12-14	14:43:32	14:57:53	856868	5cc5e72ce3c44e0015fdf990	486453697	1	main_z	11	advance_on_keypress_ZEE	98	stimuli_target_diamondsquares.svg	stimuli_distractor_diamondtriangles.svg	24	yes	57	0	304
6.6.0	win	2022-12-14	14:43:32	14:57:56	859813	5cc5e72ce3c44e0015fdf990	486453697	1	main_z	11	main_z	99	stimuli_distractor_diamondtriangles.svg	stimuli_distractor_trianglediamonds.svg	38	no	0	1	2000
6.6.0	win	2022-12-14	14:43:32	14:57:56	859813	5cc5e72ce3c44e0015fdf990	486453697	1	main_z	11	advance_on_keypress_ZEE	100	stimuli_distractor_diamondtriangles.svg	stimuli_distractor_trianglediamonds.svg	38	no	57	0	707
6.6.0	win	2022-12-14	14:43:32	14:57:58	861781	5cc5e72ce3c44e0015fdf990	486453697	1	main_z	11	main_z	101	stimuli_distractor_diamondtriangles.svg	stimuli_target_circletriangles.svg	13	yes	44	1	600
6.6.0	win	2022-12-14	14:43:32	14:57:58	861781	5cc5e72ce3c44e0015fdf990	486453697	1	main_z	11	advance_on_keypress_ZEE	102	stimuli_distractor_diamondtriangles.svg	stimuli_target_circletriangles.svg	13	yes	57	0	350
6.6.0	win	2022-12-14	14:43:32	14:57:59	863320	5cc5e72ce3c44e0015fdf990	486453697	1	main_z	11	main_z	103	stimuli_target_squaretriangles.svg	stimuli_distractor_diamondtriangles.svg	7	yes	44	1	524
6.6.0	win	2022-12-14	14:43:32	14:57:59	863320	5cc5e72ce3c44e0015fdf990	486453697	1	main_z	11	advance_on_keypress_ZEE	104	stimuli_target_squaretriangles.svg	stimuli_distractor_diamondtriangles.svg	7	yes	57	0	386
6.6.0	win	2022-12-14	14:43:32	14:58:02	866346	5cc5e72ce3c44e0015fdf990	486453697	1	main_z	11	main_z	105	stimuli_distractor_trianglediamonds.svg	stimuli_distractor_diamondtriangles.svg	35	no	0	1	2000
6.6.0	win	2022-12-14	14:43:32	14:58:02	866346	5cc5e72ce3c44e0015fdf990	486453697	1	main_z	11	advance_on_keypress_ZEE	106	stimuli_distractor_trianglediamonds.svg	stimuli_distractor_diamondtriangles.svg	35	no	57	0	711
6.6.0	win	2022-12-14	14:43:32	14:58:06	869715	5cc5e72ce3c44e0015fdf990	486453697	1	main_z	11	main_z	107	stimuli_distractor_trianglediamonds.svg	stimuli_distractor_trianglediamonds.svg	34	no	0	1	2000
6.6.0	win	2022-12-14	14:43:32	14:58:06	869715	5cc5e72ce3c44e0015fdf990	486453697	1	main_z	11	advance_on_keypress_ZEE	108	stimuli_distractor_trianglediamonds.svg	stimuli_distractor_trianglediamonds.svg	34	no	57	0	575
6.6.0	win	2022-12-14	14:43:32	14:58:09	872930	5cc5e72ce3c44e0015fdf990	486453697	1	main_z	11	main_z	109	stimuli_distractor_trianglediamonds.svg	stimuli_distractor_diamondtriangles.svg	36	no	0	1	2000
6.6.0	win	2022-12-14	14:43:32	14:58:09	872930	5cc5e72ce3c44e0015fdf990	486453697	1	main_z	11	advance_on_keypress_ZEE	110	stimuli_distractor_trianglediamonds.svg	stimuli_distractor_diamondtriangles.svg	36	no	57	0	453
6.6.0	win	2022-12-14	14:43:32	14:58:10	874463	5cc5e72ce3c44e0015fdf990	486453697	1	main_z	11	main_z	111	stimuli_distractor_trianglediamonds.svg	stimuli_target_diamondcircles.svg	27	yes	44	1	432
6.6.0	win	2022-12-14	14:43:32	14:58:10	874463	5cc5e72ce3c44e0015fdf990	486453697	1	main_z	11	advance_on_keypress_ZEE	112	stimuli_distractor_trianglediamonds.svg	stimuli_target_diamondcircles.svg	27	yes	57	0	378
6.6.0	win	2022-12-14	14:43:32	14:58:12	875934	5cc5e72ce3c44e0015fdf990	486453697	1	main_z	11	main_z	113	stimuli_target_circlediamonds.svg	stimuli_distractor_trianglediamonds.svg	2	yes	44	1	438
6.6.0	win	2022-12-14	14:43:32	14:58:12	875934	5cc5e72ce3c44e0015fdf990	486453697	1	main_z	11	advance_on_keypress_ZEE	114	stimuli_target_circlediamonds.svg	stimuli_distractor_trianglediamonds.svg	2	yes	57	0	307
6.6.0	win	2022-12-14	14:43:32	14:58:13	877277	5cc5e72ce3c44e0015fdf990	486453697	1	main_z	11	main_z	115	stimuli_distractor_diamondtriangles.svg	stimuli_target_squarediamonds.svg	16	yes	44	1	397
6.6.0	win	2022-12-14	14:43:32	14:58:13	877277	5cc5e72ce3c44e0015fdf990	486453697	1	main_z	11	advance_on_keypress_ZEE	116	stimuli_distractor_diamondtriangles.svg	stimuli_target_squarediamonds.svg	16	yes	57	0	269
6.6.0	win	2022-12-14	14:43:32	14:58:16	880197	5cc5e72ce3c44e0015fdf990	486453697	1	main_z	11	main_z	117	stimuli_distractor_trianglediamonds.svg	stimuli_distractor_trianglediamonds.svg	33	no	0	1	2000
6.6.0	win	2022-12-14	14:43:32	14:58:16	880197	5cc5e72ce3c44e0015fdf990	486453697	1	main_z	11	advance_on_keypress_ZEE	118	stimuli_distractor_trianglediamonds.svg	stimuli_distractor_trianglediamonds.svg	33	no	57	0	486
6.6.0	win	2022-12-14	14:43:32	14:58:18	881807	5cc5e72ce3c44e0015fdf990	486453697	1	main_z	11	main_z	119	stimuli_distractor_diamondtriangles.svg	stimuli_target_circlediamonds.svg	14	yes	44	1	477
6.6.0	win	2022-12-14	14:43:32	14:58:18	881807	5cc5e72ce3c44e0015fdf990	486453697	1	main_z	11	advance_on_keypress_ZEE	120	stimuli_distractor_diamondtriangles.svg	stimuli_target_circlediamonds.svg	14	yes	57	0	304
6.6.0	win	2022-12-14	14:43:32	14:58:19	883319	5cc5e72ce3c44e0015fdf990	486453697	1	main_z	11	main_z	121	stimuli_distractor_trianglediamonds.svg	stimuli_target_diamondsquares.svg	28	yes	44	1	557
6.6.0	win	2022-12-14	14:43:32	14:58:19	883319	5cc5e72ce3c44e0015fdf990	486453697	1	main_z	11	advance_on_keypress_ZEE	122	stimuli_distractor_trianglediamonds.svg	stimuli_target_diamondsquares.svg	28	yes	57	0	343
6.6.0	win	2022-12-14	14:43:32	14:58:21	884775	5cc5e72ce3c44e0015fdf990	486453697	1	main_z	11	main_z	123	stimuli_target_trianglesquares.svg	stimuli_distractor_diamondtriangles.svg	22	yes	44	1	461
6.6.0	win	2022-12-14	14:43:32	14:58:21	884775	5cc5e72ce3c44e0015fdf990	486453697	1	main_z	11	advance_on_keypress_ZEE	124	stimuli_target_trianglesquares.svg	stimuli_distractor_diamondtriangles.svg	22	yes	57	0	286
6.6.0	win	2022-12-14	14:43:32	14:58:22	886161	5cc5e72ce3c44e0015fdf990	486453697	1	main_z	11	main_z	125	stimuli_target_trianglecircles.svg	stimuli_distractor_diamondtriangles.svg	21	yes	44	1	449
6.6.0	win	2022-12-14	14:43:32	14:58:22	886161	5cc5e72ce3c44e0015fdf990	486453697	1	main_z	11	advance_on_keypress_ZEE	126	stimuli_target_trianglecircles.svg	stimuli_distractor_diamondtriangles.svg	21	yes	57	0	308
6.6.0	win	2022-12-14	14:43:32	14:58:25	889113	5cc5e72ce3c44e0015fdf990	486453697	1	main_z	11	main_z	127	stimuli_distractor_diamondtriangles.svg	stimuli_distractor_diamondtriangles.svg	40	no	0	1	2000
6.6.0	win	2022-12-14	14:43:32	14:58:25	889113	5cc5e72ce3c44e0015fdf990	486453697	1	main_z	11	advance_on_keypress_ZEE	128	stimuli_distractor_diamondtriangles.svg	stimuli_distractor_diamondtriangles.svg	40	no	57	0	466
6.6.0	win	2022-12-14	14:43:32	14:58:27	890793	5cc5e72ce3c44e0015fdf990	486453697	1	main_z	11	main_z	129	stimuli_target_trianglecircles.svg	stimuli_distractor_trianglediamonds.svg	17	yes	44	1	563
6.6.0	win	2022-12-14	14:43:32	14:58:27	890793	5cc5e72ce3c44e0015fdf990	486453697	1	main_z	11	advance_on_keypress_ZEE	130	stimuli_target_trianglecircles.svg	stimuli_distractor_trianglediamonds.svg	17	yes	57	0	288
6.6.0	win	2022-12-14	14:43:32	14:58:28	892087	5cc5e72ce3c44e0015fdf990	486453697	1	main_z	11	main_z	131	stimuli_distractor_trianglediamonds.svg	stimuli_target_squarediamonds.svg	12	yes	44	1	358
6.6.0	win	2022-12-14	14:43:32	14:58:28	892087	5cc5e72ce3c44e0015fdf990	486453697	1	main_z	11	advance_on_keypress_ZEE	132	stimuli_distractor_trianglediamonds.svg	stimuli_target_squarediamonds.svg	12	yes	57	0	389
6.6.0	win	2022-12-14	14:43:32	14:58:30	893571	5cc5e72ce3c44e0015fdf990	486453697	1	main_z	11	main_z	133	stimuli_distractor_diamondtriangles.svg	stimuli_target_squaretriangles.svg	15	yes	44	1	458
6.6.0	win	2022-12-14	14:43:32	14:58:30	893571	5cc5e72ce3c44e0015fdf990	486453697	1	main_z	11	advance_on_keypress_ZEE	134	stimuli_distractor_diamondtriangles.svg	stimuli_target_squaretriangles.svg	15	yes	57	0	257
6.6.0	win	2022-12-14	14:43:32	14:58:31	894854	5cc5e72ce3c44e0015fdf990	486453697	1	main_z	11	main_z	135	stimuli_target_diamondcircles.svg	stimuli_distractor_diamondtriangles.svg	23	yes	44	1	392
6.6.0	win	2022-12-14	14:43:32	14:58:31	894854	5cc5e72ce3c44e0015fdf990	486453697	1	main_z	11	advance_on_keypress_ZEE	136	stimuli_target_diamondcircles.svg	stimuli_distractor_diamondtriangles.svg	23	yes	57	0	509
6.6.0	win	2022-12-14	14:43:32	14:58:32	896399	5cc5e72ce3c44e0015fdf990	486453697	1	main_z	11	main_z	137	stimuli_target_squarediamonds.svg	stimuli_distractor_trianglediamonds.svg	4	yes	44	1	384
6.6.0	win	2022-12-14	14:43:32	14:58:32	896399	5cc5e72ce3c44e0015fdf990	486453697	1	main_z	11	advance_on_keypress_ZEE	138	stimuli_target_squarediamonds.svg	stimuli_distractor_trianglediamonds.svg	4	yes	57	0	399
6.6.0	win	2022-12-14	14:43:32	14:58:34	898375	5cc5e72ce3c44e0015fdf990	486453697	1	main_z	11	main_z	139	stimuli_target_squaretriangles.svg	stimuli_distractor_trianglediamonds.svg	3	yes	44	1	929
6.6.0	win	2022-12-14	14:43:32	14:58:34	898375	5cc5e72ce3c44e0015fdf990	486453697	1	main_z	11	advance_on_keypress_ZEE	140	stimuli_target_squaretriangles.svg	stimuli_distractor_trianglediamonds.svg	3	yes	57	0	261
6.6.0	win	2022-12-14	14:43:32	14:58:36	899867	5cc5e72ce3c44e0015fdf990	486453697	1	main_z	11	main_z	141	stimuli_target_trianglesquares.svg	stimuli_distractor_trianglediamonds.svg	18	yes	44	1	571
6.6.0	win	2022-12-14	14:43:32	14:58:36	899867	5cc5e72ce3c44e0015fdf990	486453697	1	main_z	11	advance_on_keypress_ZEE	142	stimuli_target_trianglesquares.svg	stimuli_distractor_trianglediamonds.svg	18	yes	57	0	302
6.6.0	win	2022-12-14	14:43:32	14:58:37	901307	5cc5e72ce3c44e0015fdf990	486453697	1	main_z	11	main_z	143	stimuli_target_diamondsquares.svg	stimuli_distractor_trianglediamonds.svg	20	yes	44	1	494
6.6.0	win	2022-12-14	14:43:32	14:58:37	901307	5cc5e72ce3c44e0015fdf990	486453697	1	main_z	11	advance_on_keypress_ZEE	144	stimuli_target_diamondsquares.svg	stimuli_distractor_trianglediamonds.svg	20	yes	57	0	250
6.6.0	win	2022-12-14	14:43:32	14:58:39	902627	5cc5e72ce3c44e0015fdf990	486453697	1	main_z	11	main_z	145	stimuli_distractor_diamondtriangles.svg	stimuli_target_diamondcircles.svg	31	yes	44	1	414
6.6.0	win	2022-12-14	14:43:32	14:58:39	902627	5cc5e72ce3c44e0015fdf990	486453697	1	main_z	11	advance_on_keypress_ZEE	146	stimuli_distractor_diamondtriangles.svg	stimuli_target_diamondcircles.svg	31	yes	57	0	267
6.6.0	win	2022-12-14	14:43:32	14:58:40	904191	5cc5e72ce3c44e0015fdf990	486453697	1	main_z	11	main_z	147	stimuli_distractor_diamondtriangles.svg	stimuli_target_diamondsquares.svg	32	yes	44	1	644
6.6.0	win	2022-12-14	14:43:32	14:58:40	904191	5cc5e72ce3c44e0015fdf990	486453697	1	main_z	11	advance_on_keypress_ZEE	148	stimuli_distractor_diamondtriangles.svg	stimuli_target_diamondsquares.svg	32	yes	57	0	304
6.6.0	win	2022-12-14	14:43:32	14:58:42	905555	5cc5e72ce3c44e0015fdf990	486453697	1	main_z	11	main_z	149	stimuli_distractor_diamondtriangles.svg	stimuli_target_trianglesquares.svg	30	yes	44	1	408
6.6.0	win	2022-12-14	14:43:32	14:58:42	905555	5cc5e72ce3c44e0015fdf990	486453697	1	main_z	11	advance_on_keypress_ZEE	150	stimuli_distractor_diamondtriangles.svg	stimuli_target_trianglesquares.svg	30	yes	57	0	281
6.6.0	win	2022-12-14	14:43:32	14:58:43	906929	5cc5e72ce3c44e0015fdf990	486453697	1	main_z	11	main_z	151	stimuli_target_circletriangles.svg	stimuli_distractor_trianglediamonds.svg	1	yes	44	1	450
6.6.0	win	2022-12-14	14:43:32	14:58:43	906929	5cc5e72ce3c44e0015fdf990	486453697	1	main_z	11	advance_on_keypress_ZEE	152	stimuli_target_circletriangles.svg	stimuli_distractor_trianglediamonds.svg	1	yes	57	0	254
6.6.0	win	2022-12-14	14:43:32	14:58:44	908216	5cc5e72ce3c44e0015fdf990	486453697	1	main_z	11	main_z	153	stimuli_distractor_trianglediamonds.svg	stimuli_target_circlediamonds.svg	10	yes	44	1	387
6.6.0	win	2022-12-14	14:43:32	14:58:44	908216	5cc5e72ce3c44e0015fdf990	486453697	1	main_z	11	advance_on_keypress_ZEE	154	stimuli_distractor_trianglediamonds.svg	stimuli_target_circlediamonds.svg	10	yes	57	0	275
6.6.0	win	2022-12-14	14:43:32	14:58:45	909444	5cc5e72ce3c44e0015fdf990	486453697	1	main_z	11	main_z	155	stimuli_distractor_trianglediamonds.svg	stimuli_target_trianglesquares.svg	26	yes	44	1	314
6.6.0	win	2022-12-14	14:43:32	14:58:45	909444	5cc5e72ce3c44e0015fdf990	486453697	1	main_z	11	advance_on_keypress_ZEE	156	stimuli_distractor_trianglediamonds.svg	stimuli_target_trianglesquares.svg	26	yes	57	0	299
6.6.0	win	2022-12-14	14:43:32	14:58:47	910715	5cc5e72ce3c44e0015fdf990	486453697	1	main_z	11	main_z	157	stimuli_target_circletriangles.svg	stimuli_distractor_diamondtriangles.svg	5	yes	44	1	318
6.6.0	win	2022-12-14	14:43:32	14:58:47	910715	5cc5e72ce3c44e0015fdf990	486453697	1	main_z	11	advance_on_keypress_ZEE	158	stimuli_target_circletriangles.svg	stimuli_distractor_diamondtriangles.svg	5	yes	57	0	231
6.6.0	win	2022-12-14	14:43:32	14:58:48	911928	5cc5e72ce3c44e0015fdf990	486453697	1	main_z	11	main_z	159	stimuli_distractor_trianglediamonds.svg	stimuli_target_squaretriangles.svg	11	yes	44	1	331
6.6.0	win	2022-12-14	14:43:32	14:58:48	911928	5cc5e72ce3c44e0015fdf990	486453697	1	main_z	11	advance_on_keypress_ZEE	160	stimuli_distractor_trianglediamonds.svg	stimuli_target_squaretriangles.svg	11	yes	57	0	220