build	computer.platform	date	time	timestamp	time_elapsed_ms	subject	group	session	blockcode	blocknum	trialcode	trialnum	stimulus_left	stimulus_right	stim_index	target_present	response	correct	latency
6.6.0	mac	2022-12-14	14:48:30	14:50:54	142382	6105a3ab3439f5af30a3777b	42278497	1	practice_slash	5	practice_slash	1	stimuli_target_diamondsquares.svg	stimuli_distractor_trianglediamonds.svg	6	yes	53	1	1512
6.6.0	mac	2022-12-14	14:48:30	14:50:54	142382	6105a3ab3439f5af30a3777b	42278497	1	practice_slash	5	advance_on_keypress_SLASH	2	stimuli_target_diamondsquares.svg	stimuli_distractor_trianglediamonds.svg	6	yes	57	0	2014
6.6.0	mac	2022-12-14	14:48:30	14:50:59	148036	6105a3ab3439f5af30a3777b	42278497	1	practice_slash	5	practice_slash	3	stimuli_distractor_trianglediamonds.svg	stimuli_distractor_trianglediamonds.svg	15	no	0	1	2000
6.6.0	mac	2022-12-14	14:48:30	14:50:59	148036	6105a3ab3439f5af30a3777b	42278497	1	practice_slash	5	advance_on_keypress_SLASH	4	stimuli_distractor_trianglediamonds.svg	stimuli_distractor_trianglediamonds.svg	15	no	57	0	1067
6.6.0	mac	2022-12-14	14:48:30	14:51:04	152736	6105a3ab3439f5af30a3777b	42278497	1	practice_slash	5	practice_slash	5	stimuli_distractor_trianglediamonds.svg	stimuli_distractor_diamondtriangles.svg	16	no	0	1	2000
6.6.0	mac	2022-12-14	14:48:30	14:51:04	152736	6105a3ab3439f5af30a3777b	42278497	1	practice_slash	5	advance_on_keypress_SLASH	6	stimuli_distractor_trianglediamonds.svg	stimuli_distractor_diamondtriangles.svg	16	no	57	0	553
6.6.0	mac	2022-12-14	14:48:30	14:51:07	155984	6105a3ab3439f5af30a3777b	42278497	1	practice_slash	5	practice_slash	7	stimuli_distractor_trianglediamonds.svg	stimuli_target_squarediamonds.svg	11	yes	53	1	1065
6.6.0	mac	2022-12-14	14:48:30	14:51:07	155984	6105a3ab3439f5af30a3777b	42278497	1	practice_slash	5	advance_on_keypress_SLASH	8	stimuli_distractor_trianglediamonds.svg	stimuli_target_squarediamonds.svg	11	yes	57	0	802
6.6.0	mac	2022-12-14	14:48:30	14:51:12	160419	6105a3ab3439f5af30a3777b	42278497	1	practice_slash	5	practice_slash	9	stimuli_target_diamondsquares.svg	stimuli_distractor_diamondtriangles.svg	3	yes	0	0	2000
6.6.0	mac	2022-12-14	14:48:30	14:51:12	160419	6105a3ab3439f5af30a3777b	42278497	1	practice_slash	5	advance_on_keypress_SLASH	10	stimuli_target_diamondsquares.svg	stimuli_distractor_diamondtriangles.svg	3	yes	57	0	569
6.6.0	mac	2022-12-14	14:48:30	14:51:15	163334	6105a3ab3439f5af30a3777b	42278497	1	practice_slash	5	practice_slash	11	stimuli_distractor_trianglediamonds.svg	stimuli_target_circlediamonds.svg	10	yes	53	1	716
6.6.0	mac	2022-12-14	14:48:30	14:51:15	163334	6105a3ab3439f5af30a3777b	42278497	1	practice_slash	5	advance_on_keypress_SLASH	12	stimuli_distractor_trianglediamonds.svg	stimuli_target_circlediamonds.svg	10	yes	57	0	511
6.6.0	mac	2022-12-14	14:48:30	14:51:18	166517	6105a3ab3439f5af30a3777b	42278497	1	practice_slash	5	practice_slash	13	stimuli_target_circlediamonds.svg	stimuli_distractor_trianglediamonds.svg	4	yes	53	1	1032
6.6.0	mac	2022-12-14	14:48:30	14:51:18	166517	6105a3ab3439f5af30a3777b	42278497	1	practice_slash	5	advance_on_keypress_SLASH	14	stimuli_target_circlediamonds.svg	stimuli_distractor_trianglediamonds.svg	4	yes	57	0	491
6.6.0	mac	2022-12-14	14:48:30	14:51:21	169521	6105a3ab3439f5af30a3777b	42278497	1	practice_slash	5	practice_slash	15	stimuli_distractor_diamondtriangles.svg	stimuli_target_circletriangles.svg	7	yes	53	1	868
6.6.0	mac	2022-12-14	14:48:30	14:51:21	169521	6105a3ab3439f5af30a3777b	42278497	1	practice_slash	5	advance_on_keypress_SLASH	16	stimuli_distractor_diamondtriangles.svg	stimuli_target_circletriangles.svg	7	yes	57	0	40
6.6.0	mac	2022-12-14	14:48:30	14:51:24	172250	6105a3ab3439f5af30a3777b	42278497	1	practice_slash	5	practice_slash	17	stimuli_target_squarediamonds.svg	stimuli_distractor_diamondtriangles.svg	2	yes	53	1	1064
6.6.0	mac	2022-12-14	14:48:30	14:51:24	172250	6105a3ab3439f5af30a3777b	42278497	1	practice_slash	5	advance_on_keypress_SLASH	18	stimuli_target_squarediamonds.svg	stimuli_distractor_diamondtriangles.svg	2	yes	57	0	623
6.6.0	mac	2022-12-14	14:48:30	14:51:27	175365	6105a3ab3439f5af30a3777b	42278497	1	practice_slash	5	practice_slash	19	stimuli_target_circlediamonds.svg	stimuli_distractor_diamondtriangles.svg	1	yes	53	1	862
6.6.0	mac	2022-12-14	14:48:30	14:51:27	175365	6105a3ab3439f5af30a3777b	42278497	1	practice_slash	5	advance_on_keypress_SLASH	20	stimuli_target_circlediamonds.svg	stimuli_distractor_diamondtriangles.svg	1	yes	57	0	26
6.6.0	mac	2022-12-14	14:48:30	14:51:30	178111	6105a3ab3439f5af30a3777b	42278497	1	practice_slash	5	practice_slash	21	stimuli_distractor_diamondtriangles.svg	stimuli_target_diamondcircles.svg	8	yes	53	1	1076
6.6.0	mac	2022-12-14	14:48:30	14:51:30	178111	6105a3ab3439f5af30a3777b	42278497	1	practice_slash	5	advance_on_keypress_SLASH	22	stimuli_distractor_diamondtriangles.svg	stimuli_target_diamondcircles.svg	8	yes	57	0	739
6.6.0	mac	2022-12-14	14:48:30	14:51:33	181496	6105a3ab3439f5af30a3777b	42278497	1	practice_slash	5	practice_slash	23	stimuli_target_squarediamonds.svg	stimuli_distractor_trianglediamonds.svg	5	yes	53	1	1027
6.6.0	mac	2022-12-14	14:48:30	14:51:33	181496	6105a3ab3439f5af30a3777b	42278497	1	practice_slash	5	advance_on_keypress_SLASH	24	stimuli_target_squarediamonds.svg	stimuli_distractor_trianglediamonds.svg	5	yes	57	0	573
6.6.0	mac	2022-12-14	14:48:30	14:51:36	184827	6105a3ab3439f5af30a3777b	42278497	1	practice_slash	5	practice_slash	25	stimuli_distractor_trianglediamonds.svg	stimuli_target_diamondcircles.svg	12	yes	53	1	1140
6.6.0	mac	2022-12-14	14:48:30	14:51:36	184827	6105a3ab3439f5af30a3777b	42278497	1	practice_slash	5	advance_on_keypress_SLASH	26	stimuli_distractor_trianglediamonds.svg	stimuli_target_diamondcircles.svg	12	yes	57	0	690
6.6.0	mac	2022-12-14	14:48:30	14:51:41	189152	6105a3ab3439f5af30a3777b	42278497	1	practice_slash	5	practice_slash	27	stimuli_distractor_diamondtriangles.svg	stimuli_distractor_trianglediamonds.svg	14	no	0	1	2000
6.6.0	mac	2022-12-14	14:48:30	14:51:41	189152	6105a3ab3439f5af30a3777b	42278497	1	practice_slash	5	advance_on_keypress_SLASH	28	stimuli_distractor_diamondtriangles.svg	stimuli_distractor_trianglediamonds.svg	14	no	57	0	541
6.6.0	mac	2022-12-14	14:48:30	14:51:45	193335	6105a3ab3439f5af30a3777b	42278497	1	practice_slash	5	practice_slash	29	stimuli_distractor_diamondtriangles.svg	stimuli_distractor_diamondtriangles.svg	13	no	0	1	2000
6.6.0	mac	2022-12-14	14:48:30	14:51:45	193335	6105a3ab3439f5af30a3777b	42278497	1	practice_slash	5	advance_on_keypress_SLASH	30	stimuli_distractor_diamondtriangles.svg	stimuli_distractor_diamondtriangles.svg	13	no	57	0	447
6.6.0	mac	2022-12-14	14:48:30	14:51:48	196648	6105a3ab3439f5af30a3777b	42278497	1	practice_slash	5	practice_slash	31	stimuli_distractor_diamondtriangles.svg	stimuli_target_trianglecircles.svg	9	yes	53	1	1229
6.6.0	mac	2022-12-14	14:48:30	14:51:48	196648	6105a3ab3439f5af30a3777b	42278497	1	practice_slash	5	advance_on_keypress_SLASH	32	stimuli_distractor_diamondtriangles.svg	stimuli_target_trianglecircles.svg	9	yes	57	0	707
6.6.0	mac	2022-12-14	14:48:30	14:51:54	203034	6105a3ab3439f5af30a3777b	42278497	1	main_slash	7	main_slash	1	stimuli_distractor_diamondtriangles.svg	stimuli_distractor_diamondtriangles.svg	40	no	0	1	2000
6.6.0	mac	2022-12-14	14:48:30	14:51:54	203034	6105a3ab3439f5af30a3777b	42278497	1	main_slash	7	advance_on_keypress_SLASH	2	stimuli_distractor_diamondtriangles.svg	stimuli_distractor_diamondtriangles.svg	40	no	57	0	872
6.6.0	mac	2022-12-14	14:48:30	14:51:57	205546	6105a3ab3439f5af30a3777b	42278497	1	main_slash	7	main_slash	3	stimuli_target_squaretriangles.svg	stimuli_distractor_diamondtriangles.svg	7	yes	53	1	994
6.6.0	mac	2022-12-14	14:48:30	14:51:57	205546	6105a3ab3439f5af30a3777b	42278497	1	main_slash	7	advance_on_keypress_SLASH	4	stimuli_target_squaretriangles.svg	stimuli_distractor_diamondtriangles.svg	7	yes	57	0	1408
6.6.0	mac	2022-12-14	14:48:30	14:52:01	209601	6105a3ab3439f5af30a3777b	42278497	1	main_slash	7	main_slash	5	stimuli_distractor_trianglediamonds.svg	stimuli_distractor_trianglediamonds.svg	34	no	0	1	2000
6.6.0	mac	2022-12-14	14:48:30	14:52:01	209601	6105a3ab3439f5af30a3777b	42278497	1	main_slash	7	advance_on_keypress_SLASH	6	stimuli_distractor_trianglediamonds.svg	stimuli_distractor_trianglediamonds.svg	34	no	57	0	820
6.6.0	mac	2022-12-14	14:48:30	14:52:03	211954	6105a3ab3439f5af30a3777b	42278497	1	main_slash	7	main_slash	7	stimuli_distractor_trianglediamonds.svg	stimuli_target_diamondcircles.svg	27	yes	53	1	886
6.6.0	mac	2022-12-14	14:48:30	14:52:03	211954	6105a3ab3439f5af30a3777b	42278497	1	main_slash	7	advance_on_keypress_SLASH	8	stimuli_distractor_trianglediamonds.svg	stimuli_target_diamondcircles.svg	27	yes	57	0	1132
6.6.0	mac	2022-12-14	14:48:30	14:52:06	214565	6105a3ab3439f5af30a3777b	42278497	1	main_slash	7	main_slash	9	stimuli_distractor_trianglediamonds.svg	stimuli_target_squarediamonds.svg	12	yes	53	1	847
6.6.0	mac	2022-12-14	14:48:30	14:52:06	214565	6105a3ab3439f5af30a3777b	42278497	1	main_slash	7	advance_on_keypress_SLASH	10	stimuli_distractor_trianglediamonds.svg	stimuli_target_squarediamonds.svg	12	yes	57	0	1236
6.6.0	mac	2022-12-14	14:48:30	14:52:10	218435	6105a3ab3439f5af30a3777b	42278497	1	main_slash	7	main_slash	11	stimuli_target_trianglesquares.svg	stimuli_distractor_trianglediamonds.svg	18	yes	0	0	2000
6.6.0	mac	2022-12-14	14:48:30	14:52:10	218435	6105a3ab3439f5af30a3777b	42278497	1	main_slash	7	advance_on_keypress_SLASH	12	stimuli_target_trianglesquares.svg	stimuli_distractor_trianglediamonds.svg	18	yes	57	0	770
6.6.0	mac	2022-12-14	14:48:30	14:52:12	220663	6105a3ab3439f5af30a3777b	42278497	1	main_slash	7	main_slash	13	stimuli_distractor_trianglediamonds.svg	stimuli_target_circlediamonds.svg	10	yes	53	1	811
6.6.0	mac	2022-12-14	14:48:30	14:52:12	220663	6105a3ab3439f5af30a3777b	42278497	1	main_slash	7	advance_on_keypress_SLASH	14	stimuli_distractor_trianglediamonds.svg	stimuli_target_circlediamonds.svg	10	yes	57	0	1228
6.6.0	mac	2022-12-14	14:48:30	14:52:14	223102	6105a3ab3439f5af30a3777b	42278497	1	main_slash	7	main_slash	15	stimuli_distractor_diamondtriangles.svg	stimuli_target_circletriangles.svg	13	yes	53	1	568
6.6.0	mac	2022-12-14	14:48:30	14:52:14	223102	6105a3ab3439f5af30a3777b	42278497	1	main_slash	7	advance_on_keypress_SLASH	16	stimuli_distractor_diamondtriangles.svg	stimuli_target_circletriangles.svg	13	yes	57	0	1602
6.6.0	mac	2022-12-14	14:48:30	14:52:18	226428	6105a3ab3439f5af30a3777b	42278497	1	main_slash	7	main_slash	17	stimuli_distractor_trianglediamonds.svg	stimuli_target_trianglecircles.svg	25	yes	53	1	1093
6.6.0	mac	2022-12-14	14:48:30	14:52:18	226428	6105a3ab3439f5af30a3777b	42278497	1	main_slash	7	advance_on_keypress_SLASH	18	stimuli_distractor_trianglediamonds.svg	stimuli_target_trianglecircles.svg	25	yes	57	0	905
6.6.0	mac	2022-12-14	14:48:30	14:52:21	229951	6105a3ab3439f5af30a3777b	42278497	1	main_slash	7	main_slash	19	stimuli_distractor_trianglediamonds.svg	stimuli_distractor_trianglediamonds.svg	33	no	0	1	2000
6.6.0	mac	2022-12-14	14:48:30	14:52:21	229951	6105a3ab3439f5af30a3777b	42278497	1	main_slash	7	advance_on_keypress_SLASH	20	stimuli_distractor_trianglediamonds.svg	stimuli_distractor_trianglediamonds.svg	33	no	57	0	702
6.6.0	mac	2022-12-14	14:48:30	14:52:23	231917	6105a3ab3439f5af30a3777b	42278497	1	main_slash	7	main_slash	21	stimuli_target_circlediamonds.svg	stimuli_distractor_diamondtriangles.svg	6	yes	53	1	616
6.6.0	mac	2022-12-14	14:48:30	14:52:23	231917	6105a3ab3439f5af30a3777b	42278497	1	main_slash	7	advance_on_keypress_SLASH	22	stimuli_target_circlediamonds.svg	stimuli_distractor_diamondtriangles.svg	6	yes	57	0	1381
6.6.0	mac	2022-12-14	14:48:30	14:52:27	235935	6105a3ab3439f5af30a3777b	42278497	1	main_slash	7	main_slash	23	stimuli_distractor_diamondtriangles.svg	stimuli_distractor_diamondtriangles.svg	39	no	0	1	2000
6.6.0	mac	2022-12-14	14:48:30	14:52:27	235935	6105a3ab3439f5af30a3777b	42278497	1	main_slash	7	advance_on_keypress_SLASH	24	stimuli_distractor_diamondtriangles.svg	stimuli_distractor_diamondtriangles.svg	39	no	57	0	843
6.6.0	mac	2022-12-14	14:48:30	14:52:29	237995	6105a3ab3439f5af30a3777b	42278497	1	main_slash	7	main_slash	25	stimuli_target_circletriangles.svg	stimuli_distractor_trianglediamonds.svg	1	yes	53	1	577
6.6.0	mac	2022-12-14	14:48:30	14:52:29	237995	6105a3ab3439f5af30a3777b	42278497	1	main_slash	7	advance_on_keypress_SLASH	26	stimuli_target_circletriangles.svg	stimuli_distractor_trianglediamonds.svg	1	yes	57	0	1090
6.6.0	mac	2022-12-14	14:48:30	14:52:33	241168	6105a3ab3439f5af30a3777b	42278497	1	main_slash	7	main_slash	27	stimuli_distractor_diamondtriangles.svg	stimuli_target_trianglecircles.svg	29	yes	53	1	1467
6.6.0	mac	2022-12-14	14:48:30	14:52:33	241168	6105a3ab3439f5af30a3777b	42278497	1	main_slash	7	advance_on_keypress_SLASH	28	stimuli_distractor_diamondtriangles.svg	stimuli_target_trianglecircles.svg	29	yes	57	0	880
6.6.0	mac	2022-12-14	14:48:30	14:52:35	243585	6105a3ab3439f5af30a3777b	42278497	1	main_slash	7	main_slash	29	stimuli_target_squaretriangles.svg	stimuli_distractor_trianglediamonds.svg	3	yes	53	1	900
6.6.0	mac	2022-12-14	14:48:30	14:52:35	243585	6105a3ab3439f5af30a3777b	42278497	1	main_slash	7	advance_on_keypress_SLASH	30	stimuli_target_squaretriangles.svg	stimuli_distractor_trianglediamonds.svg	3	yes	57	0	2104
6.6.0	mac	2022-12-14	14:48:30	14:52:38	246680	6105a3ab3439f5af30a3777b	42278497	1	main_slash	7	main_slash	31	stimuli_target_diamondcircles.svg	stimuli_distractor_diamondtriangles.svg	23	yes	53	1	361
6.6.0	mac	2022-12-14	14:48:30	14:52:38	246680	6105a3ab3439f5af30a3777b	42278497	1	main_slash	7	advance_on_keypress_SLASH	32	stimuli_target_diamondcircles.svg	stimuli_distractor_diamondtriangles.svg	23	yes	57	0	1400
6.6.0	mac	2022-12-14	14:48:30	14:52:41	249204	6105a3ab3439f5af30a3777b	42278497	1	main_slash	7	main_slash	33	stimuli_target_diamondcircles.svg	stimuli_distractor_trianglediamonds.svg	19	yes	53	1	486
6.6.0	mac	2022-12-14	14:48:30	14:52:41	249204	6105a3ab3439f5af30a3777b	42278497	1	main_slash	7	advance_on_keypress_SLASH	34	stimuli_target_diamondcircles.svg	stimuli_distractor_trianglediamonds.svg	19	yes	57	0	925
6.6.0	mac	2022-12-14	14:48:30	14:52:43	251831	6105a3ab3439f5af30a3777b	42278497	1	main_slash	7	main_slash	35	stimuli_target_diamondsquares.svg	stimuli_distractor_trianglediamonds.svg	20	yes	53	1	1063
6.6.0	mac	2022-12-14	14:48:30	14:52:43	251831	6105a3ab3439f5af30a3777b	42278497	1	main_slash	7	advance_on_keypress_SLASH	36	stimuli_target_diamondsquares.svg	stimuli_distractor_trianglediamonds.svg	20	yes	57	0	835
6.6.0	mac	2022-12-14	14:48:30	14:52:46	254883	6105a3ab3439f5af30a3777b	42278497	1	main_slash	7	main_slash	37	stimuli_distractor_diamondtriangles.svg	stimuli_target_squaretriangles.svg	15	yes	53	1	1580
6.6.0	mac	2022-12-14	14:48:30	14:52:46	254883	6105a3ab3439f5af30a3777b	42278497	1	main_slash	7	advance_on_keypress_SLASH	38	stimuli_distractor_diamondtriangles.svg	stimuli_target_squaretriangles.svg	15	yes	57	0	1148
6.6.0	mac	2022-12-14	14:48:30	14:52:49	257578	6105a3ab3439f5af30a3777b	42278497	1	main_slash	7	main_slash	39	stimuli_target_trianglecircles.svg	stimuli_distractor_trianglediamonds.svg	17	yes	53	1	909
6.6.0	mac	2022-12-14	14:48:30	14:52:49	257578	6105a3ab3439f5af30a3777b	42278497	1	main_slash	7	advance_on_keypress_SLASH	40	stimuli_target_trianglecircles.svg	stimuli_distractor_trianglediamonds.svg	17	yes	57	0	1711
6.6.0	mac	2022-12-14	14:48:30	14:52:53	261148	6105a3ab3439f5af30a3777b	42278497	1	main_slash	7	main_slash	41	stimuli_distractor_diamondtriangles.svg	stimuli_distractor_trianglediamonds.svg	37	no	53	0	1229
6.6.0	mac	2022-12-14	14:48:30	14:52:53	261148	6105a3ab3439f5af30a3777b	42278497	1	main_slash	7	advance_on_keypress_SLASH	42	stimuli_distractor_diamondtriangles.svg	stimuli_distractor_trianglediamonds.svg	37	no	57	0	734
6.6.0	mac	2022-12-14	14:48:30	14:52:56	264518	6105a3ab3439f5af30a3777b	42278497	1	main_slash	7	main_slash	43	stimuli_distractor_diamondtriangles.svg	stimuli_distractor_trianglediamonds.svg	38	no	0	1	2000
6.6.0	mac	2022-12-14	14:48:30	14:52:56	264518	6105a3ab3439f5af30a3777b	42278497	1	main_slash	7	advance_on_keypress_SLASH	44	stimuli_distractor_diamondtriangles.svg	stimuli_distractor_trianglediamonds.svg	38	no	57	0	638
6.6.0	mac	2022-12-14	14:48:30	14:52:58	266480	6105a3ab3439f5af30a3777b	42278497	1	main_slash	7	main_slash	45	stimuli_distractor_diamondtriangles.svg	stimuli_target_circlediamonds.svg	14	yes	53	1	680
6.6.0	mac	2022-12-14	14:48:30	14:52:58	266480	6105a3ab3439f5af30a3777b	42278497	1	main_slash	7	advance_on_keypress_SLASH	46	stimuli_distractor_diamondtriangles.svg	stimuli_target_circlediamonds.svg	14	yes	57	0	996
6.6.0	mac	2022-12-14	14:48:30	14:53:00	268594	6105a3ab3439f5af30a3777b	42278497	1	main_slash	7	main_slash	47	stimuli_target_squarediamonds.svg	stimuli_distractor_trianglediamonds.svg	4	yes	53	1	476
6.6.0	mac	2022-12-14	14:48:30	14:53:00	268594	6105a3ab3439f5af30a3777b	42278497	1	main_slash	7	advance_on_keypress_SLASH	48	stimuli_target_squarediamonds.svg	stimuli_distractor_trianglediamonds.svg	4	yes	57	0	874
6.6.0	mac	2022-12-14	14:48:30	14:53:03	272084	6105a3ab3439f5af30a3777b	42278497	1	main_slash	7	main_slash	49	stimuli_distractor_trianglediamonds.svg	stimuli_target_squaretriangles.svg	11	yes	0	0	2000
6.6.0	mac	2022-12-14	14:48:30	14:53:03	272084	6105a3ab3439f5af30a3777b	42278497	1	main_slash	7	advance_on_keypress_SLASH	50	stimuli_distractor_trianglediamonds.svg	stimuli_target_squaretriangles.svg	11	yes	57	0	555
6.6.0	mac	2022-12-14	14:48:30	14:53:07	275285	6105a3ab3439f5af30a3777b	42278497	1	main_slash	7	main_slash	51	stimuli_distractor_trianglediamonds.svg	stimuli_distractor_diamondtriangles.svg	36	no	0	1	2000
6.6.0	mac	2022-12-14	14:48:30	14:53:07	275285	6105a3ab3439f5af30a3777b	42278497	1	main_slash	7	advance_on_keypress_SLASH	52	stimuli_distractor_trianglediamonds.svg	stimuli_distractor_diamondtriangles.svg	36	no	57	0	564
6.6.0	mac	2022-12-14	14:48:30	14:53:09	277339	6105a3ab3439f5af30a3777b	42278497	1	main_slash	7	main_slash	53	stimuli_target_circlediamonds.svg	stimuli_distractor_trianglediamonds.svg	2	yes	53	1	854
6.6.0	mac	2022-12-14	14:48:30	14:53:09	277339	6105a3ab3439f5af30a3777b	42278497	1	main_slash	7	advance_on_keypress_SLASH	54	stimuli_target_circlediamonds.svg	stimuli_distractor_trianglediamonds.svg	2	yes	57	0	1059
6.6.0	mac	2022-12-14	14:48:30	14:53:12	280291	6105a3ab3439f5af30a3777b	42278497	1	main_slash	7	main_slash	55	stimuli_target_trianglecircles.svg	stimuli_distractor_diamondtriangles.svg	21	yes	53	1	1273
6.6.0	mac	2022-12-14	14:48:30	14:53:12	280291	6105a3ab3439f5af30a3777b	42278497	1	main_slash	7	advance_on_keypress_SLASH	56	stimuli_target_trianglecircles.svg	stimuli_distractor_diamondtriangles.svg	21	yes	57	0	782
6.6.0	mac	2022-12-14	14:48:30	14:53:15	283701	6105a3ab3439f5af30a3777b	42278497	1	main_slash	7	main_slash	57	stimuli_distractor_diamondtriangles.svg	stimuli_target_trianglesquares.svg	30	yes	0	0	2000
6.6.0	mac	2022-12-14	14:48:30	14:53:15	283701	6105a3ab3439f5af30a3777b	42278497	1	main_slash	7	advance_on_keypress_SLASH	58	stimuli_distractor_diamondtriangles.svg	stimuli_target_trianglesquares.svg	30	yes	57	0	1059
6.6.0	mac	2022-12-14	14:48:30	14:53:18	286476	6105a3ab3439f5af30a3777b	42278497	1	main_slash	7	main_slash	59	stimuli_distractor_trianglediamonds.svg	stimuli_target_trianglesquares.svg	26	yes	53	1	1091
6.6.0	mac	2022-12-14	14:48:30	14:53:18	286476	6105a3ab3439f5af30a3777b	42278497	1	main_slash	7	advance_on_keypress_SLASH	60	stimuli_distractor_trianglediamonds.svg	stimuli_target_trianglesquares.svg	26	yes	57	0	876
6.6.0	mac	2022-12-14	14:48:30	14:53:20	288868	6105a3ab3439f5af30a3777b	42278497	1	main_slash	7	main_slash	61	stimuli_target_trianglesquares.svg	stimuli_distractor_diamondtriangles.svg	22	yes	53	1	901
6.6.0	mac	2022-12-14	14:48:30	14:53:20	288868	6105a3ab3439f5af30a3777b	42278497	1	main_slash	7	advance_on_keypress_SLASH	62	stimuli_target_trianglesquares.svg	stimuli_distractor_diamondtriangles.svg	22	yes	57	0	877
6.6.0	mac	2022-12-14	14:48:30	14:53:23	291342	6105a3ab3439f5af30a3777b	42278497	1	main_slash	7	main_slash	63	stimuli_target_diamondsquares.svg	stimuli_distractor_diamondtriangles.svg	24	yes	53	1	974
6.6.0	mac	2022-12-14	14:48:30	14:53:23	291342	6105a3ab3439f5af30a3777b	42278497	1	main_slash	7	advance_on_keypress_SLASH	64	stimuli_target_diamondsquares.svg	stimuli_distractor_diamondtriangles.svg	24	yes	57	0	853
6.6.0	mac	2022-12-14	14:48:30	14:53:25	294016	6105a3ab3439f5af30a3777b	42278497	1	main_slash	7	main_slash	65	stimuli_distractor_diamondtriangles.svg	stimuli_target_diamondsquares.svg	32	yes	53	1	1198
6.6.0	mac	2022-12-14	14:48:30	14:53:25	294016	6105a3ab3439f5af30a3777b	42278497	1	main_slash	7	advance_on_keypress_SLASH	66	stimuli_distractor_diamondtriangles.svg	stimuli_target_diamondsquares.svg	32	yes	57	0	603
6.6.0	mac	2022-12-14	14:48:30	14:53:29	297251	6105a3ab3439f5af30a3777b	42278497	1	main_slash	7	main_slash	67	stimuli_distractor_trianglediamonds.svg	stimuli_distractor_diamondtriangles.svg	35	no	0	1	2000
6.6.0	mac	2022-12-14	14:48:30	14:53:29	297251	6105a3ab3439f5af30a3777b	42278497	1	main_slash	7	advance_on_keypress_SLASH	68	stimuli_distractor_trianglediamonds.svg	stimuli_distractor_diamondtriangles.svg	35	no	57	0	478
6.6.0	mac	2022-12-14	14:48:30	14:53:31	299594	6105a3ab3439f5af30a3777b	42278497	1	main_slash	7	main_slash	69	stimuli_distractor_diamondtriangles.svg	stimuli_target_squarediamonds.svg	16	yes	53	1	1226
6.6.0	mac	2022-12-14	14:48:30	14:53:31	299594	6105a3ab3439f5af30a3777b	42278497	1	main_slash	7	advance_on_keypress_SLASH	70	stimuli_distractor_diamondtriangles.svg	stimuli_target_squarediamonds.svg	16	yes	57	0	653
6.6.0	mac	2022-12-14	14:48:30	14:53:34	302326	6105a3ab3439f5af30a3777b	42278497	1	main_slash	7	main_slash	71	stimuli_target_squarediamonds.svg	stimuli_distractor_diamondtriangles.svg	8	yes	53	1	1458
6.6.0	mac	2022-12-14	14:48:30	14:53:34	302326	6105a3ab3439f5af30a3777b	42278497	1	main_slash	7	advance_on_keypress_SLASH	72	stimuli_target_squarediamonds.svg	stimuli_distractor_diamondtriangles.svg	8	yes	57	0	734
6.6.0	mac	2022-12-14	14:48:30	14:53:36	304848	6105a3ab3439f5af30a3777b	42278497	1	main_slash	7	main_slash	73	stimuli_distractor_trianglediamonds.svg	stimuli_target_circletriangles.svg	9	yes	53	1	1164
6.6.0	mac	2022-12-14	14:48:30	14:53:36	304848	6105a3ab3439f5af30a3777b	42278497	1	main_slash	7	advance_on_keypress_SLASH	74	stimuli_distractor_trianglediamonds.svg	stimuli_target_circletriangles.svg	9	yes	57	0	661
6.6.0	mac	2022-12-14	14:48:30	14:53:40	308151	6105a3ab3439f5af30a3777b	42278497	1	main_slash	7	main_slash	75	stimuli_distractor_trianglediamonds.svg	stimuli_target_diamondsquares.svg	28	yes	0	0	2000
6.6.0	mac	2022-12-14	14:48:30	14:53:40	308151	6105a3ab3439f5af30a3777b	42278497	1	main_slash	7	advance_on_keypress_SLASH	76	stimuli_distractor_trianglediamonds.svg	stimuli_target_diamondsquares.svg	28	yes	57	0	465
6.6.0	mac	2022-12-14	14:48:30	14:53:41	309910	6105a3ab3439f5af30a3777b	42278497	1	main_slash	7	main_slash	77	stimuli_distractor_diamondtriangles.svg	stimuli_target_diamondcircles.svg	31	yes	53	1	659
6.6.0	mac	2022-12-14	14:48:30	14:53:41	309910	6105a3ab3439f5af30a3777b	42278497	1	main_slash	7	advance_on_keypress_SLASH	78	stimuli_distractor_diamondtriangles.svg	stimuli_target_diamondcircles.svg	31	yes	57	0	769
6.6.0	mac	2022-12-14	14:48:30	14:53:43	311888	6105a3ab3439f5af30a3777b	42278497	1	main_slash	7	main_slash	79	stimuli_target_circletriangles.svg	stimuli_distractor_diamondtriangles.svg	5	yes	53	1	587
6.6.0	mac	2022-12-14	14:48:30	14:53:43	311888	6105a3ab3439f5af30a3777b	42278497	1	main_slash	7	advance_on_keypress_SLASH	80	stimuli_target_circletriangles.svg	stimuli_distractor_diamondtriangles.svg	5	yes	57	0	587
6.6.0	mac	2022-12-14	14:48:30	14:53:46	314326	6105a3ab3439f5af30a3777b	42278497	1	main_slash	7	main_slash	81	stimuli_distractor_diamondtriangles.svg	stimuli_target_squaretriangles.svg	15	yes	53	1	1225
6.6.0	mac	2022-12-14	14:48:30	14:53:46	314326	6105a3ab3439f5af30a3777b	42278497	1	main_slash	7	advance_on_keypress_SLASH	82	stimuli_distractor_diamondtriangles.svg	stimuli_target_squaretriangles.svg	15	yes	57	0	697
6.6.0	mac	2022-12-14	14:48:30	14:53:48	316334	6105a3ab3439f5af30a3777b	42278497	1	main_slash	7	main_slash	83	stimuli_target_circletriangles.svg	stimuli_distractor_diamondtriangles.svg	5	yes	53	1	682
6.6.0	mac	2022-12-14	14:48:30	14:53:48	316334	6105a3ab3439f5af30a3777b	42278497	1	main_slash	7	advance_on_keypress_SLASH	84	stimuli_target_circletriangles.svg	stimuli_distractor_diamondtriangles.svg	5	yes	57	0	649
6.6.0	mac	2022-12-14	14:48:30	14:53:51	319617	6105a3ab3439f5af30a3777b	42278497	1	main_slash	7	main_slash	85	stimuli_target_squaretriangles.svg	stimuli_distractor_trianglediamonds.svg	3	yes	0	0	2000
6.6.0	mac	2022-12-14	14:48:30	14:53:51	319617	6105a3ab3439f5af30a3777b	42278497	1	main_slash	7	advance_on_keypress_SLASH	86	stimuli_target_squaretriangles.svg	stimuli_distractor_trianglediamonds.svg	3	yes	57	0	464
6.6.0	mac	2022-12-14	14:48:30	14:53:52	321111	6105a3ab3439f5af30a3777b	42278497	1	main_slash	7	main_slash	87	stimuli_target_trianglecircles.svg	stimuli_distractor_diamondtriangles.svg	21	yes	53	1	394
6.6.0	mac	2022-12-14	14:48:30	14:53:52	321111	6105a3ab3439f5af30a3777b	42278497	1	main_slash	7	advance_on_keypress_SLASH	88	stimuli_target_trianglecircles.svg	stimuli_distractor_diamondtriangles.svg	21	yes	57	0	751
6.6.0	mac	2022-12-14	14:48:30	14:53:56	324484	6105a3ab3439f5af30a3777b	42278497	1	main_slash	7	main_slash	89	stimuli_distractor_trianglediamonds.svg	stimuli_distractor_diamondtriangles.svg	35	no	0	1	2000
6.6.0	mac	2022-12-14	14:48:30	14:53:56	324484	6105a3ab3439f5af30a3777b	42278497	1	main_slash	7	advance_on_keypress_SLASH	90	stimuli_distractor_trianglediamonds.svg	stimuli_distractor_diamondtriangles.svg	35	no	57	0	393
6.6.0	mac	2022-12-14	14:48:30	14:53:57	325909	6105a3ab3439f5af30a3777b	42278497	1	main_slash	7	main_slash	91	stimuli_target_circlediamonds.svg	stimuli_distractor_diamondtriangles.svg	6	yes	53	1	409
6.6.0	mac	2022-12-14	14:48:30	14:53:57	325909	6105a3ab3439f5af30a3777b	42278497	1	main_slash	7	advance_on_keypress_SLASH	92	stimuli_target_circlediamonds.svg	stimuli_distractor_diamondtriangles.svg	6	yes	57	0	800
6.6.0	mac	2022-12-14	14:48:30	14:54:01	329334	6105a3ab3439f5af30a3777b	42278497	1	main_slash	7	main_slash	93	stimuli_distractor_diamondtriangles.svg	stimuli_distractor_trianglediamonds.svg	37	no	0	1	2000
6.6.0	mac	2022-12-14	14:48:30	14:54:01	329334	6105a3ab3439f5af30a3777b	42278497	1	main_slash	7	advance_on_keypress_SLASH	94	stimuli_distractor_diamondtriangles.svg	stimuli_distractor_trianglediamonds.svg	37	no	57	0	420
6.6.0	mac	2022-12-14	14:48:30	14:54:03	331426	6105a3ab3439f5af30a3777b	42278497	1	main_slash	7	main_slash	95	stimuli_distractor_trianglediamonds.svg	stimuli_target_trianglesquares.svg	26	yes	53	1	1041
6.6.0	mac	2022-12-14	14:48:30	14:54:03	331426	6105a3ab3439f5af30a3777b	42278497	1	main_slash	7	advance_on_keypress_SLASH	96	stimuli_distractor_trianglediamonds.svg	stimuli_target_trianglesquares.svg	26	yes	57	0	641
6.6.0	mac	2022-12-14	14:48:30	14:54:06	334685	6105a3ab3439f5af30a3777b	42278497	1	main_slash	7	main_slash	97	stimuli_distractor_trianglediamonds.svg	stimuli_distractor_diamondtriangles.svg	36	no	0	1	2000
6.6.0	mac	2022-12-14	14:48:30	14:54:06	334685	6105a3ab3439f5af30a3777b	42278497	1	main_slash	7	advance_on_keypress_SLASH	98	stimuli_distractor_trianglediamonds.svg	stimuli_distractor_diamondtriangles.svg	36	no	57	0	495
6.6.0	mac	2022-12-14	14:48:30	14:54:08	336173	6105a3ab3439f5af30a3777b	42278497	1	main_slash	7	main_slash	99	stimuli_distractor_trianglediamonds.svg	stimuli_target_trianglecircles.svg	25	yes	53	1	356
6.6.0	mac	2022-12-14	14:48:30	14:54:08	336173	6105a3ab3439f5af30a3777b	42278497	1	main_slash	7	advance_on_keypress_SLASH	100	stimuli_distractor_trianglediamonds.svg	stimuli_target_trianglecircles.svg	25	yes	57	0	1110
6.6.0	mac	2022-12-14	14:48:30	14:54:10	338282	6105a3ab3439f5af30a3777b	42278497	1	main_slash	7	main_slash	101	stimuli_target_diamondcircles.svg	stimuli_distractor_diamondtriangles.svg	23	yes	53	1	382
6.6.0	mac	2022-12-14	14:48:30	14:54:10	338282	6105a3ab3439f5af30a3777b	42278497	1	main_slash	7	advance_on_keypress_SLASH	102	stimuli_target_diamondcircles.svg	stimuli_distractor_diamondtriangles.svg	23	yes	57	0	693
6.6.0	mac	2022-12-14	14:48:30	14:54:12	340114	6105a3ab3439f5af30a3777b	42278497	1	main_slash	7	main_slash	103	stimuli_distractor_trianglediamonds.svg	stimuli_target_circletriangles.svg	9	yes	53	1	496
6.6.0	mac	2022-12-14	14:48:30	14:54:12	340114	6105a3ab3439f5af30a3777b	42278497	1	main_slash	7	advance_on_keypress_SLASH	104	stimuli_distractor_trianglediamonds.svg	stimuli_target_circletriangles.svg	9	yes	57	0	576
6.6.0	mac	2022-12-14	14:48:30	14:54:14	342433	6105a3ab3439f5af30a3777b	42278497	1	main_slash	7	main_slash	105	stimuli_distractor_diamondtriangles.svg	stimuli_target_trianglesquares.svg	30	yes	53	1	1115
6.6.0	mac	2022-12-14	14:48:30	14:54:14	342433	6105a3ab3439f5af30a3777b	42278497	1	main_slash	7	advance_on_keypress_SLASH	106	stimuli_distractor_diamondtriangles.svg	stimuli_target_trianglesquares.svg	30	yes	57	0	614
6.6.0	mac	2022-12-14	14:48:30	14:54:16	344297	6105a3ab3439f5af30a3777b	42278497	1	main_slash	7	main_slash	107	stimuli_target_trianglesquares.svg	stimuli_distractor_diamondtriangles.svg	22	yes	53	1	612
6.6.0	mac	2022-12-14	14:48:30	14:54:16	344297	6105a3ab3439f5af30a3777b	42278497	1	main_slash	7	advance_on_keypress_SLASH	108	stimuli_target_trianglesquares.svg	stimuli_distractor_diamondtriangles.svg	22	yes	57	0	504
6.6.0	mac	2022-12-14	14:48:30	14:54:19	347434	6105a3ab3439f5af30a3777b	42278497	1	main_slash	7	main_slash	109	stimuli_target_squarediamonds.svg	stimuli_distractor_diamondtriangles.svg	8	yes	0	0	2000
6.6.0	mac	2022-12-14	14:48:30	14:54:19	347434	6105a3ab3439f5af30a3777b	42278497	1	main_slash	7	advance_on_keypress_SLASH	110	stimuli_target_squarediamonds.svg	stimuli_distractor_diamondtriangles.svg	8	yes	57	0	448
6.6.0	mac	2022-12-14	14:48:30	14:54:20	348862	6105a3ab3439f5af30a3777b	42278497	1	main_slash	7	main_slash	111	stimuli_distractor_diamondtriangles.svg	stimuli_target_circlediamonds.svg	14	yes	53	1	346
6.6.0	mac	2022-12-14	14:48:30	14:54:20	348862	6105a3ab3439f5af30a3777b	42278497	1	main_slash	7	advance_on_keypress_SLASH	112	stimuli_distractor_diamondtriangles.svg	stimuli_target_circlediamonds.svg	14	yes	57	0	924
6.6.0	mac	2022-12-14	14:48:30	14:54:24	352401	6105a3ab3439f5af30a3777b	42278497	1	main_slash	7	main_slash	113	stimuli_distractor_trianglediamonds.svg	stimuli_distractor_trianglediamonds.svg	33	no	0	1	2000
6.6.0	mac	2022-12-14	14:48:30	14:54:24	352401	6105a3ab3439f5af30a3777b	42278497	1	main_slash	7	advance_on_keypress_SLASH	114	stimuli_distractor_trianglediamonds.svg	stimuli_distractor_trianglediamonds.svg	33	no	57	0	360
6.6.0	mac	2022-12-14	14:48:30	14:54:27	355385	6105a3ab3439f5af30a3777b	42278497	1	main_slash	7	main_slash	115	stimuli_distractor_trianglediamonds.svg	stimuli_distractor_trianglediamonds.svg	34	no	0	1	2000
6.6.0	mac	2022-12-14	14:48:30	14:54:27	355385	6105a3ab3439f5af30a3777b	42278497	1	main_slash	7	advance_on_keypress_SLASH	116	stimuli_distractor_trianglediamonds.svg	stimuli_distractor_trianglediamonds.svg	34	no	57	0	572
6.6.0	mac	2022-12-14	14:48:30	14:54:28	356842	6105a3ab3439f5af30a3777b	42278497	1	main_slash	7	main_slash	117	stimuli_target_diamondcircles.svg	stimuli_distractor_trianglediamonds.svg	19	yes	53	1	257
6.6.0	mac	2022-12-14	14:48:30	14:54:28	356842	6105a3ab3439f5af30a3777b	42278497	1	main_slash	7	advance_on_keypress_SLASH	118	stimuli_target_diamondcircles.svg	stimuli_distractor_trianglediamonds.svg	19	yes	57	0	1003
6.6.0	mac	2022-12-14	14:48:30	14:54:31	359537	6105a3ab3439f5af30a3777b	42278497	1	main_slash	7	main_slash	119	stimuli_target_trianglesquares.svg	stimuli_distractor_trianglediamonds.svg	18	yes	53	1	1069
6.6.0	mac	2022-12-14	14:48:30	14:54:31	359537	6105a3ab3439f5af30a3777b	42278497	1	main_slash	7	advance_on_keypress_SLASH	120	stimuli_target_trianglesquares.svg	stimuli_distractor_trianglediamonds.svg	18	yes	57	0	536
6.6.0	mac	2022-12-14	14:48:30	14:54:33	362092	6105a3ab3439f5af30a3777b	42278497	1	main_slash	7	main_slash	121	stimuli_distractor_trianglediamonds.svg	stimuli_target_squaretriangles.svg	11	yes	53	1	1391
6.6.0	mac	2022-12-14	14:48:30	14:54:33	362092	6105a3ab3439f5af30a3777b	42278497	1	main_slash	7	advance_on_keypress_SLASH	122	stimuli_distractor_trianglediamonds.svg	stimuli_target_squaretriangles.svg	11	yes	57	0	540
6.6.0	mac	2022-12-14	14:48:30	14:54:37	365250	6105a3ab3439f5af30a3777b	42278497	1	main_slash	7	main_slash	123	stimuli_distractor_diamondtriangles.svg	stimuli_distractor_trianglediamonds.svg	38	no	0	1	2000
6.6.0	mac	2022-12-14	14:48:30	14:54:37	365250	6105a3ab3439f5af30a3777b	42278497	1	main_slash	7	advance_on_keypress_SLASH	124	stimuli_distractor_diamondtriangles.svg	stimuli_distractor_trianglediamonds.svg	38	no	57	0	368
6.6.0	mac	2022-12-14	14:48:30	14:54:38	366589	6105a3ab3439f5af30a3777b	42278497	1	main_slash	7	main_slash	125	stimuli_target_circletriangles.svg	stimuli_distractor_trianglediamonds.svg	1	yes	53	1	339
6.6.0	mac	2022-12-14	14:48:30	14:54:38	366589	6105a3ab3439f5af30a3777b	42278497	1	main_slash	7	advance_on_keypress_SLASH	126	stimuli_target_circletriangles.svg	stimuli_distractor_trianglediamonds.svg	1	yes	57	0	725
6.6.0	mac	2022-12-14	14:48:30	14:54:41	369934	6105a3ab3439f5af30a3777b	42278497	1	main_slash	7	main_slash	127	stimuli_distractor_diamondtriangles.svg	stimuli_distractor_diamondtriangles.svg	40	no	0	1	2000
6.6.0	mac	2022-12-14	14:48:30	14:54:41	369934	6105a3ab3439f5af30a3777b	42278497	1	main_slash	7	advance_on_keypress_SLASH	128	stimuli_distractor_diamondtriangles.svg	stimuli_distractor_diamondtriangles.svg	40	no	57	0	573
6.6.0	mac	2022-12-14	14:48:30	14:54:43	371544	6105a3ab3439f5af30a3777b	42278497	1	main_slash	7	main_slash	129	stimuli_target_squarediamonds.svg	stimuli_distractor_trianglediamonds.svg	4	yes	53	1	409
6.6.0	mac	2022-12-14	14:48:30	14:54:43	371544	6105a3ab3439f5af30a3777b	42278497	1	main_slash	7	advance_on_keypress_SLASH	130	stimuli_target_squarediamonds.svg	stimuli_distractor_trianglediamonds.svg	4	yes	57	0	807
6.6.0	mac	2022-12-14	14:48:30	14:54:45	373935	6105a3ab3439f5af30a3777b	42278497	1	main_slash	7	main_slash	131	stimuli_target_circlediamonds.svg	stimuli_distractor_trianglediamonds.svg	2	yes	53	1	968
6.6.0	mac	2022-12-14	14:48:30	14:54:45	373935	6105a3ab3439f5af30a3777b	42278497	1	main_slash	7	advance_on_keypress_SLASH	132	stimuli_target_circlediamonds.svg	stimuli_distractor_trianglediamonds.svg	2	yes	57	0	578
6.6.0	mac	2022-12-14	14:48:30	14:54:49	377151	6105a3ab3439f5af30a3777b	42278497	1	main_slash	7	main_slash	133	stimuli_distractor_trianglediamonds.svg	stimuli_target_diamondcircles.svg	27	yes	0	0	2000
6.6.0	mac	2022-12-14	14:48:30	14:54:49	377151	6105a3ab3439f5af30a3777b	42278497	1	main_slash	7	advance_on_keypress_SLASH	134	stimuli_distractor_trianglediamonds.svg	stimuli_target_diamondcircles.svg	27	yes	57	0	519
6.6.0	mac	2022-12-14	14:48:30	14:54:52	380300	6105a3ab3439f5af30a3777b	42278497	1	main_slash	7	main_slash	135	stimuli_distractor_diamondtriangles.svg	stimuli_distractor_diamondtriangles.svg	39	no	0	1	2000
6.6.0	mac	2022-12-14	14:48:30	14:54:52	380300	6105a3ab3439f5af30a3777b	42278497	1	main_slash	7	advance_on_keypress_SLASH	136	stimuli_distractor_diamondtriangles.svg	stimuli_distractor_diamondtriangles.svg	39	no	57	0	445
6.6.0	mac	2022-12-14	14:48:30	14:54:53	381733	6105a3ab3439f5af30a3777b	42278497	1	main_slash	7	main_slash	137	stimuli_distractor_trianglediamonds.svg	stimuli_target_squarediamonds.svg	12	yes	53	1	349
6.6.0	mac	2022-12-14	14:48:30	14:54:53	381733	6105a3ab3439f5af30a3777b	42278497	1	main_slash	7	advance_on_keypress_SLASH	138	stimuli_distractor_trianglediamonds.svg	stimuli_target_squarediamonds.svg	12	yes	57	0	776
6.6.0	mac	2022-12-14	14:48:30	14:54:55	384036	6105a3ab3439f5af30a3777b	42278497	1	main_slash	7	main_slash	139	stimuli_distractor_diamondtriangles.svg	stimuli_target_diamondcircles.svg	31	yes	53	1	901
6.6.0	mac	2022-12-14	14:48:30	14:54:55	384036	6105a3ab3439f5af30a3777b	42278497	1	main_slash	7	advance_on_keypress_SLASH	140	stimuli_distractor_diamondtriangles.svg	stimuli_target_diamondcircles.svg	31	yes	57	0	595
6.6.0	mac	2022-12-14	14:48:30	14:54:58	386347	6105a3ab3439f5af30a3777b	42278497	1	main_slash	7	main_slash	141	stimuli_distractor_diamondtriangles.svg	stimuli_target_circletriangles.svg	13	yes	53	1	1079
6.6.0	mac	2022-12-14	14:48:30	14:54:58	386347	6105a3ab3439f5af30a3777b	42278497	1	main_slash	7	advance_on_keypress_SLASH	142	stimuli_distractor_diamondtriangles.svg	stimuli_target_circletriangles.svg	13	yes	57	0	578
6.6.0	mac	2022-12-14	14:48:30	14:55:00	388443	6105a3ab3439f5af30a3777b	42278497	1	main_slash	7	main_slash	143	stimuli_target_diamondsquares.svg	stimuli_distractor_diamondtriangles.svg	24	yes	53	1	893
6.6.0	mac	2022-12-14	14:48:30	14:55:00	388443	6105a3ab3439f5af30a3777b	42278497	1	main_slash	7	advance_on_keypress_SLASH	144	stimuli_target_diamondsquares.svg	stimuli_distractor_diamondtriangles.svg	24	yes	57	0	561
6.6.0	mac	2022-12-14	14:48:30	14:55:03	391634	6105a3ab3439f5af30a3777b	42278497	1	main_slash	7	main_slash	145	stimuli_distractor_diamondtriangles.svg	stimuli_target_diamondsquares.svg	32	yes	0	0	2000
6.6.0	mac	2022-12-14	14:48:30	14:55:03	391634	6105a3ab3439f5af30a3777b	42278497	1	main_slash	7	advance_on_keypress_SLASH	146	stimuli_distractor_diamondtriangles.svg	stimuli_target_diamondsquares.svg	32	yes	57	0	598
6.6.0	mac	2022-12-14	14:48:30	14:55:06	394868	6105a3ab3439f5af30a3777b	42278497	1	main_slash	7	main_slash	147	stimuli_target_diamondsquares.svg	stimuli_distractor_trianglediamonds.svg	20	yes	0	0	2000
6.6.0	mac	2022-12-14	14:48:30	14:55:06	394868	6105a3ab3439f5af30a3777b	42278497	1	main_slash	7	advance_on_keypress_SLASH	148	stimuli_target_diamondsquares.svg	stimuli_distractor_trianglediamonds.svg	20	yes	57	0	498
6.6.0	mac	2022-12-14	14:48:30	14:55:08	396605	6105a3ab3439f5af30a3777b	42278497	1	main_slash	7	main_slash	149	stimuli_distractor_trianglediamonds.svg	stimuli_target_diamondsquares.svg	28	yes	53	1	604
6.6.0	mac	2022-12-14	14:48:30	14:55:08	396605	6105a3ab3439f5af30a3777b	42278497	1	main_slash	7	advance_on_keypress_SLASH	150	stimuli_distractor_trianglediamonds.svg	stimuli_target_diamondsquares.svg	28	yes	57	0	513
6.6.0	mac	2022-12-14	14:48:30	14:55:10	398405	6105a3ab3439f5af30a3777b	42278497	1	main_slash	7	main_slash	151	stimuli_distractor_diamondtriangles.svg	stimuli_target_trianglecircles.svg	29	yes	53	1	654
6.6.0	mac	2022-12-14	14:48:30	14:55:10	398405	6105a3ab3439f5af30a3777b	42278497	1	main_slash	7	advance_on_keypress_SLASH	152	stimuli_distractor_diamondtriangles.svg	stimuli_target_trianglecircles.svg	29	yes	57	0	562
6.6.0	mac	2022-12-14	14:48:30	14:55:11	400074	6105a3ab3439f5af30a3777b	42278497	1	main_slash	7	main_slash	153	stimuli_target_trianglecircles.svg	stimuli_distractor_trianglediamonds.svg	17	yes	53	1	474
6.6.0	mac	2022-12-14	14:48:30	14:55:11	400074	6105a3ab3439f5af30a3777b	42278497	1	main_slash	7	advance_on_keypress_SLASH	154	stimuli_target_trianglecircles.svg	stimuli_distractor_trianglediamonds.svg	17	yes	57	0	535
6.6.0	mac	2022-12-14	14:48:30	14:55:13	401920	6105a3ab3439f5af30a3777b	42278497	1	main_slash	7	main_slash	155	stimuli_target_squaretriangles.svg	stimuli_distractor_diamondtriangles.svg	7	yes	53	1	685
6.6.0	mac	2022-12-14	14:48:30	14:55:13	401920	6105a3ab3439f5af30a3777b	42278497	1	main_slash	7	advance_on_keypress_SLASH	156	stimuli_target_squaretriangles.svg	stimuli_distractor_diamondtriangles.svg	7	yes	57	0	397
6.6.0	mac	2022-12-14	14:48:30	14:55:16	404952	6105a3ab3439f5af30a3777b	42278497	1	main_slash	7	main_slash	157	stimuli_distractor_diamondtriangles.svg	stimuli_target_squarediamonds.svg	16	yes	0	0	2000
6.6.0	mac	2022-12-14	14:48:30	14:55:16	404952	6105a3ab3439f5af30a3777b	42278497	1	main_slash	7	advance_on_keypress_SLASH	158	stimuli_distractor_diamondtriangles.svg	stimuli_target_squarediamonds.svg	16	yes	57	0	481
6.6.0	mac	2022-12-14	14:48:30	14:55:18	406403	6105a3ab3439f5af30a3777b	42278497	1	main_slash	7	main_slash	159	stimuli_distractor_trianglediamonds.svg	stimuli_target_circlediamonds.svg	10	yes	53	1	336
6.6.0	mac	2022-12-14	14:48:30	14:55:18	406403	6105a3ab3439f5af30a3777b	42278497	1	main_slash	7	advance_on_keypress_SLASH	160	stimuli_distractor_trianglediamonds.svg	stimuli_target_circlediamonds.svg	10	yes	57	0	812
6.6.0	mac	2022-12-14	14:48:30	14:55:35	423348	6105a3ab3439f5af30a3777b	42278497	1	practice_z	9	practice_z	1	stimuli_distractor_trianglediamonds.svg	stimuli_target_squarediamonds.svg	11	yes	44	1	413
6.6.0	mac	2022-12-14	14:48:30	14:55:35	423348	6105a3ab3439f5af30a3777b	42278497	1	practice_z	9	advance_on_keypress_ZEE	2	stimuli_distractor_trianglediamonds.svg	stimuli_target_squarediamonds.svg	11	yes	57	0	671
6.6.0	mac	2022-12-14	14:48:30	14:55:39	427652	6105a3ab3439f5af30a3777b	42278497	1	practice_z	9	practice_z	3	stimuli_distractor_trianglediamonds.svg	stimuli_distractor_trianglediamonds.svg	15	no	0	1	2000
6.6.0	mac	2022-12-14	14:48:30	14:55:39	427652	6105a3ab3439f5af30a3777b	42278497	1	practice_z	9	advance_on_keypress_ZEE	4	stimuli_distractor_trianglediamonds.svg	stimuli_distractor_trianglediamonds.svg	15	no	57	0	431
6.6.0	mac	2022-12-14	14:48:30	14:55:42	430121	6105a3ab3439f5af30a3777b	42278497	1	practice_z	9	practice_z	5	stimuli_target_circlediamonds.svg	stimuli_distractor_diamondtriangles.svg	1	yes	44	1	403
6.6.0	mac	2022-12-14	14:48:30	14:55:42	430121	6105a3ab3439f5af30a3777b	42278497	1	practice_z	9	advance_on_keypress_ZEE	6	stimuli_target_circlediamonds.svg	stimuli_distractor_diamondtriangles.svg	1	yes	57	0	403
6.6.0	mac	2022-12-14	14:48:30	14:55:44	432562	6105a3ab3439f5af30a3777b	42278497	1	practice_z	9	practice_z	7	stimuli_distractor_diamondtriangles.svg	stimuli_target_trianglecircles.svg	9	yes	44	1	412
6.6.0	mac	2022-12-14	14:48:30	14:55:44	432562	6105a3ab3439f5af30a3777b	42278497	1	practice_z	9	advance_on_keypress_ZEE	8	stimuli_distractor_diamondtriangles.svg	stimuli_target_trianglecircles.svg	9	yes	57	0	546
6.6.0	mac	2022-12-14	14:48:30	14:55:47	435298	6105a3ab3439f5af30a3777b	42278497	1	practice_z	9	practice_z	9	stimuli_target_squarediamonds.svg	stimuli_distractor_diamondtriangles.svg	2	yes	44	1	547
6.6.0	mac	2022-12-14	14:48:30	14:55:47	435298	6105a3ab3439f5af30a3777b	42278497	1	practice_z	9	advance_on_keypress_ZEE	10	stimuli_target_squarediamonds.svg	stimuli_distractor_diamondtriangles.svg	2	yes	57	0	405
6.6.0	mac	2022-12-14	14:48:30	14:55:49	437921	6105a3ab3439f5af30a3777b	42278497	1	practice_z	9	practice_z	11	stimuli_distractor_diamondtriangles.svg	stimuli_target_diamondcircles.svg	8	yes	44	1	586
6.6.0	mac	2022-12-14	14:48:30	14:55:49	437921	6105a3ab3439f5af30a3777b	42278497	1	practice_z	9	advance_on_keypress_ZEE	12	stimuli_distractor_diamondtriangles.svg	stimuli_target_diamondcircles.svg	8	yes	57	0	550
6.6.0	mac	2022-12-14	14:48:30	14:55:53	442102	6105a3ab3439f5af30a3777b	42278497	1	practice_z	9	practice_z	13	stimuli_distractor_diamondtriangles.svg	stimuli_distractor_diamondtriangles.svg	13	no	0	1	2000
6.6.0	mac	2022-12-14	14:48:30	14:55:53	442102	6105a3ab3439f5af30a3777b	42278497	1	practice_z	9	advance_on_keypress_ZEE	14	stimuli_distractor_diamondtriangles.svg	stimuli_distractor_diamondtriangles.svg	13	no	57	0	721
6.6.0	mac	2022-12-14	14:48:30	14:55:56	444899	6105a3ab3439f5af30a3777b	42278497	1	practice_z	9	practice_z	15	stimuli_distractor_diamondtriangles.svg	stimuli_target_circletriangles.svg	7	yes	44	1	449
6.6.0	mac	2022-12-14	14:48:30	14:55:56	444899	6105a3ab3439f5af30a3777b	42278497	1	practice_z	9	advance_on_keypress_ZEE	16	stimuli_distractor_diamondtriangles.svg	stimuli_target_circletriangles.svg	7	yes	57	0	390
6.6.0	mac	2022-12-14	14:48:30	14:56:00	448919	6105a3ab3439f5af30a3777b	42278497	1	practice_z	9	practice_z	17	stimuli_distractor_trianglediamonds.svg	stimuli_distractor_diamondtriangles.svg	16	no	0	1	2000
6.6.0	mac	2022-12-14	14:48:30	14:56:00	448919	6105a3ab3439f5af30a3777b	42278497	1	practice_z	9	advance_on_keypress_ZEE	18	stimuli_distractor_trianglediamonds.svg	stimuli_distractor_diamondtriangles.svg	16	no	57	0	439
6.6.0	mac	2022-12-14	14:48:30	14:56:03	451397	6105a3ab3439f5af30a3777b	42278497	1	practice_z	9	practice_z	19	stimuli_target_circlediamonds.svg	stimuli_distractor_trianglediamonds.svg	4	yes	44	1	412
6.6.0	mac	2022-12-14	14:48:30	14:56:03	451397	6105a3ab3439f5af30a3777b	42278497	1	practice_z	9	advance_on_keypress_ZEE	20	stimuli_target_circlediamonds.svg	stimuli_distractor_trianglediamonds.svg	4	yes	57	0	438
6.6.0	mac	2022-12-14	14:48:30	14:56:06	454217	6105a3ab3439f5af30a3777b	42278497	1	practice_z	9	practice_z	21	stimuli_distractor_trianglediamonds.svg	stimuli_target_diamondcircles.svg	12	yes	44	1	747
6.6.0	mac	2022-12-14	14:48:30	14:56:06	454217	6105a3ab3439f5af30a3777b	42278497	1	practice_z	9	advance_on_keypress_ZEE	22	stimuli_distractor_trianglediamonds.svg	stimuli_target_diamondcircles.svg	12	yes	57	0	657
6.6.0	mac	2022-12-14	14:48:30	14:56:10	458501	6105a3ab3439f5af30a3777b	42278497	1	practice_z	9	practice_z	23	stimuli_distractor_diamondtriangles.svg	stimuli_distractor_trianglediamonds.svg	14	no	0	1	2000
6.6.0	mac	2022-12-14	14:48:30	14:56:10	458501	6105a3ab3439f5af30a3777b	42278497	1	practice_z	9	advance_on_keypress_ZEE	24	stimuli_distractor_diamondtriangles.svg	stimuli_distractor_trianglediamonds.svg	14	no	57	0	443
6.6.0	mac	2022-12-14	14:48:30	14:56:12	461107	6105a3ab3439f5af30a3777b	42278497	1	practice_z	9	practice_z	25	stimuli_target_squarediamonds.svg	stimuli_distractor_trianglediamonds.svg	5	yes	44	1	523
6.6.0	mac	2022-12-14	14:48:30	14:56:12	461107	6105a3ab3439f5af30a3777b	42278497	1	practice_z	9	advance_on_keypress_ZEE	26	stimuli_target_squarediamonds.svg	stimuli_distractor_trianglediamonds.svg	5	yes	57	0	498
6.6.0	mac	2022-12-14	14:48:30	14:56:16	464291	6105a3ab3439f5af30a3777b	42278497	1	practice_z	9	practice_z	27	stimuli_target_diamondsquares.svg	stimuli_distractor_diamondtriangles.svg	3	yes	44	1	1054
6.6.0	mac	2022-12-14	14:48:30	14:56:16	464291	6105a3ab3439f5af30a3777b	42278497	1	practice_z	9	advance_on_keypress_ZEE	28	stimuli_target_diamondsquares.svg	stimuli_distractor_diamondtriangles.svg	3	yes	57	0	431
6.6.0	mac	2022-12-14	14:48:30	14:56:18	467110	6105a3ab3439f5af30a3777b	42278497	1	practice_z	9	practice_z	29	stimuli_target_diamondsquares.svg	stimuli_distractor_trianglediamonds.svg	6	yes	44	1	758
6.6.0	mac	2022-12-14	14:48:30	14:56:18	467110	6105a3ab3439f5af30a3777b	42278497	1	practice_z	9	advance_on_keypress_ZEE	30	stimuli_target_diamondsquares.svg	stimuli_distractor_trianglediamonds.svg	6	yes	57	0	514
6.6.0	mac	2022-12-14	14:48:30	14:56:21	470011	6105a3ab3439f5af30a3777b	42278497	1	practice_z	9	practice_z	31	stimuli_distractor_trianglediamonds.svg	stimuli_target_circlediamonds.svg	10	yes	44	1	760
6.6.0	mac	2022-12-14	14:48:30	14:56:21	470011	6105a3ab3439f5af30a3777b	42278497	1	practice_z	9	advance_on_keypress_ZEE	32	stimuli_distractor_trianglediamonds.svg	stimuli_target_circlediamonds.svg	10	yes	57	0	497
6.6.0	mac	2022-12-14	14:48:30	14:56:26	474160	6105a3ab3439f5af30a3777b	42278497	1	main_z	11	main_z	1	stimuli_target_trianglesquares.svg	stimuli_distractor_trianglediamonds.svg	18	yes	44	1	526
6.6.0	mac	2022-12-14	14:48:30	14:56:26	474160	6105a3ab3439f5af30a3777b	42278497	1	main_z	11	advance_on_keypress_ZEE	2	stimuli_target_trianglesquares.svg	stimuli_distractor_trianglediamonds.svg	18	yes	57	0	1456
6.6.0	mac	2022-12-14	14:48:30	14:56:28	476610	6105a3ab3439f5af30a3777b	42278497	1	main_z	11	main_z	3	stimuli_distractor_diamondtriangles.svg	stimuli_target_trianglesquares.svg	30	yes	44	1	376
6.6.0	mac	2022-12-14	14:48:30	14:56:28	476610	6105a3ab3439f5af30a3777b	42278497	1	main_z	11	advance_on_keypress_ZEE	4	stimuli_distractor_diamondtriangles.svg	stimuli_target_trianglesquares.svg	30	yes	57	0	837
6.6.0	mac	2022-12-14	14:48:30	14:56:30	478641	6105a3ab3439f5af30a3777b	42278497	1	main_z	11	main_z	5	stimuli_target_circletriangles.svg	stimuli_distractor_trianglediamonds.svg	1	yes	44	1	572
6.6.0	mac	2022-12-14	14:48:30	14:56:30	478641	6105a3ab3439f5af30a3777b	42278497	1	main_z	11	advance_on_keypress_ZEE	6	stimuli_target_circletriangles.svg	stimuli_distractor_trianglediamonds.svg	1	yes	57	0	563
6.6.0	mac	2022-12-14	14:48:30	14:56:33	481834	6105a3ab3439f5af30a3777b	42278497	1	main_z	11	main_z	7	stimuli_distractor_trianglediamonds.svg	stimuli_target_diamondcircles.svg	27	yes	0	0	2000
6.6.0	mac	2022-12-14	14:48:30	14:56:33	481834	6105a3ab3439f5af30a3777b	42278497	1	main_z	11	advance_on_keypress_ZEE	8	stimuli_distractor_trianglediamonds.svg	stimuli_target_diamondcircles.svg	27	yes	57	0	442
6.6.0	mac	2022-12-14	14:48:30	14:56:35	483341	6105a3ab3439f5af30a3777b	42278497	1	main_z	11	main_z	9	stimuli_target_trianglecircles.svg	stimuli_distractor_trianglediamonds.svg	17	yes	44	1	440
6.6.0	mac	2022-12-14	14:48:30	14:56:35	483341	6105a3ab3439f5af30a3777b	42278497	1	main_z	11	advance_on_keypress_ZEE	10	stimuli_target_trianglecircles.svg	stimuli_distractor_trianglediamonds.svg	17	yes	57	0	1727
6.6.0	mac	2022-12-14	14:48:30	14:56:38	486375	6105a3ab3439f5af30a3777b	42278497	1	main_z	11	main_z	11	stimuli_distractor_diamondtriangles.svg	stimuli_target_diamondcircles.svg	31	yes	44	1	673
6.6.0	mac	2022-12-14	14:48:30	14:56:38	486375	6105a3ab3439f5af30a3777b	42278497	1	main_z	11	advance_on_keypress_ZEE	12	stimuli_distractor_diamondtriangles.svg	stimuli_target_diamondcircles.svg	31	yes	57	0	841
6.6.0	mac	2022-12-14	14:48:30	14:56:40	488302	6105a3ab3439f5af30a3777b	42278497	1	main_z	11	main_z	13	stimuli_distractor_diamondtriangles.svg	stimuli_target_trianglecircles.svg	29	yes	44	1	468
6.6.0	mac	2022-12-14	14:48:30	14:56:40	488302	6105a3ab3439f5af30a3777b	42278497	1	main_z	11	advance_on_keypress_ZEE	14	stimuli_distractor_diamondtriangles.svg	stimuli_target_trianglecircles.svg	29	yes	57	0	737
6.6.0	mac	2022-12-14	14:48:30	14:56:42	490432	6105a3ab3439f5af30a3777b	42278497	1	main_z	11	main_z	15	stimuli_distractor_diamondtriangles.svg	stimuli_target_circletriangles.svg	13	yes	44	1	764
6.6.0	mac	2022-12-14	14:48:30	14:56:42	490432	6105a3ab3439f5af30a3777b	42278497	1	main_z	11	advance_on_keypress_ZEE	16	stimuli_distractor_diamondtriangles.svg	stimuli_target_circletriangles.svg	13	yes	57	0	566
6.6.0	mac	2022-12-14	14:48:30	14:56:45	493634	6105a3ab3439f5af30a3777b	42278497	1	main_z	11	main_z	17	stimuli_distractor_diamondtriangles.svg	stimuli_distractor_trianglediamonds.svg	37	no	0	1	2000
6.6.0	mac	2022-12-14	14:48:30	14:56:45	493634	6105a3ab3439f5af30a3777b	42278497	1	main_z	11	advance_on_keypress_ZEE	18	stimuli_distractor_diamondtriangles.svg	stimuli_distractor_trianglediamonds.svg	37	no	57	0	357
6.6.0	mac	2022-12-14	14:48:30	14:56:46	495053	6105a3ab3439f5af30a3777b	42278497	1	main_z	11	main_z	19	stimuli_distractor_trianglediamonds.svg	stimuli_target_circletriangles.svg	9	yes	44	1	436
6.6.0	mac	2022-12-14	14:48:30	14:56:46	495053	6105a3ab3439f5af30a3777b	42278497	1	main_z	11	advance_on_keypress_ZEE	20	stimuli_distractor_trianglediamonds.svg	stimuli_target_circletriangles.svg	9	yes	57	0	687
6.6.0	mac	2022-12-14	14:48:30	14:56:48	497107	6105a3ab3439f5af30a3777b	42278497	1	main_z	11	main_z	21	stimuli_target_trianglesquares.svg	stimuli_distractor_diamondtriangles.svg	22	yes	44	1	740
6.6.0	mac	2022-12-14	14:48:30	14:56:48	497107	6105a3ab3439f5af30a3777b	42278497	1	main_z	11	advance_on_keypress_ZEE	22	stimuli_target_trianglesquares.svg	stimuli_distractor_diamondtriangles.svg	22	yes	57	0	608
6.6.0	mac	2022-12-14	14:48:30	14:56:52	500334	6105a3ab3439f5af30a3777b	42278497	1	main_z	11	main_z	23	stimuli_distractor_diamondtriangles.svg	stimuli_distractor_diamondtriangles.svg	40	no	0	1	2000
6.6.0	mac	2022-12-14	14:48:30	14:56:52	500334	6105a3ab3439f5af30a3777b	42278497	1	main_z	11	advance_on_keypress_ZEE	24	stimuli_distractor_diamondtriangles.svg	stimuli_distractor_diamondtriangles.svg	40	no	57	0	410
6.6.0	mac	2022-12-14	14:48:30	14:56:55	503367	6105a3ab3439f5af30a3777b	42278497	1	main_z	11	main_z	25	stimuli_distractor_trianglediamonds.svg	stimuli_distractor_diamondtriangles.svg	35	no	0	1	2000
6.6.0	mac	2022-12-14	14:48:30	14:56:55	503367	6105a3ab3439f5af30a3777b	42278497	1	main_z	11	advance_on_keypress_ZEE	26	stimuli_distractor_trianglediamonds.svg	stimuli_distractor_diamondtriangles.svg	35	no	57	0	461
6.6.0	mac	2022-12-14	14:48:30	14:56:56	504890	6105a3ab3439f5af30a3777b	42278497	1	main_z	11	main_z	27	stimuli_target_circlediamonds.svg	stimuli_distractor_trianglediamonds.svg	2	yes	44	1	422
6.6.0	mac	2022-12-14	14:48:30	14:56:56	504890	6105a3ab3439f5af30a3777b	42278497	1	main_z	11	advance_on_keypress_ZEE	28	stimuli_target_circlediamonds.svg	stimuli_distractor_trianglediamonds.svg	2	yes	57	0	685
6.6.0	mac	2022-12-14	14:48:30	14:56:59	507167	6105a3ab3439f5af30a3777b	42278497	1	main_z	11	main_z	29	stimuli_target_circletriangles.svg	stimuli_distractor_diamondtriangles.svg	5	yes	44	1	966
6.6.0	mac	2022-12-14	14:48:30	14:56:59	507167	6105a3ab3439f5af30a3777b	42278497	1	main_z	11	advance_on_keypress_ZEE	30	stimuli_target_circletriangles.svg	stimuli_distractor_diamondtriangles.svg	5	yes	57	0	562
6.6.0	mac	2022-12-14	14:48:30	14:57:00	508933	6105a3ab3439f5af30a3777b	42278497	1	main_z	11	main_z	31	stimuli_target_circlediamonds.svg	stimuli_distractor_diamondtriangles.svg	6	yes	44	1	566
6.6.0	mac	2022-12-14	14:48:30	14:57:00	508933	6105a3ab3439f5af30a3777b	42278497	1	main_z	11	advance_on_keypress_ZEE	32	stimuli_target_circlediamonds.svg	stimuli_distractor_diamondtriangles.svg	6	yes	57	0	512
6.6.0	mac	2022-12-14	14:48:30	14:57:03	511311	6105a3ab3439f5af30a3777b	42278497	1	main_z	11	main_z	33	stimuli_target_diamondsquares.svg	stimuli_distractor_diamondtriangles.svg	24	yes	44	1	1227
6.6.0	mac	2022-12-14	14:48:30	14:57:03	511311	6105a3ab3439f5af30a3777b	42278497	1	main_z	11	advance_on_keypress_ZEE	34	stimuli_target_diamondsquares.svg	stimuli_distractor_diamondtriangles.svg	24	yes	57	0	616
6.6.0	mac	2022-12-14	14:48:30	14:57:05	513601	6105a3ab3439f5af30a3777b	42278497	1	main_z	11	main_z	35	stimuli_distractor_diamondtriangles.svg	stimuli_target_squarediamonds.svg	16	yes	44	1	1050
6.6.0	mac	2022-12-14	14:48:30	14:57:05	513601	6105a3ab3439f5af30a3777b	42278497	1	main_z	11	advance_on_keypress_ZEE	36	stimuli_distractor_diamondtriangles.svg	stimuli_target_squarediamonds.svg	16	yes	57	0	580
6.6.0	mac	2022-12-14	14:48:30	14:57:07	515357	6105a3ab3439f5af30a3777b	42278497	1	main_z	11	main_z	37	stimuli_target_diamondcircles.svg	stimuli_distractor_diamondtriangles.svg	23	yes	44	1	538
6.6.0	mac	2022-12-14	14:48:30	14:57:07	515357	6105a3ab3439f5af30a3777b	42278497	1	main_z	11	advance_on_keypress_ZEE	38	stimuli_target_diamondcircles.svg	stimuli_distractor_diamondtriangles.svg	23	yes	57	0	632
6.6.0	mac	2022-12-14	14:48:30	14:57:08	517049	6105a3ab3439f5af30a3777b	42278497	1	main_z	11	main_z	39	stimuli_target_diamondcircles.svg	stimuli_distractor_trianglediamonds.svg	19	yes	44	1	432
6.6.0	mac	2022-12-14	14:48:30	14:57:08	517049	6105a3ab3439f5af30a3777b	42278497	1	main_z	11	advance_on_keypress_ZEE	40	stimuli_target_diamondcircles.svg	stimuli_distractor_trianglediamonds.svg	19	yes	57	0	600
6.6.0	mac	2022-12-14	14:48:30	14:57:10	518799	6105a3ab3439f5af30a3777b	42278497	1	main_z	11	main_z	41	stimuli_target_squaretriangles.svg	stimuli_distractor_trianglediamonds.svg	3	yes	44	1	516
6.6.0	mac	2022-12-14	14:48:30	14:57:10	518799	6105a3ab3439f5af30a3777b	42278497	1	main_z	11	advance_on_keypress_ZEE	42	stimuli_target_squaretriangles.svg	stimuli_distractor_trianglediamonds.svg	3	yes	57	0	564
6.6.0	mac	2022-12-14	14:48:30	14:57:12	520435	6105a3ab3439f5af30a3777b	42278497	1	main_z	11	main_z	43	stimuli_distractor_trianglediamonds.svg	stimuli_target_circlediamonds.svg	10	yes	44	1	435
6.6.0	mac	2022-12-14	14:48:30	14:57:12	520435	6105a3ab3439f5af30a3777b	42278497	1	main_z	11	advance_on_keypress_ZEE	44	stimuli_distractor_trianglediamonds.svg	stimuli_target_circlediamonds.svg	10	yes	57	0	527
6.6.0	mac	2022-12-14	14:48:30	14:57:14	522540	6105a3ab3439f5af30a3777b	42278497	1	main_z	11	main_z	45	stimuli_distractor_diamondtriangles.svg	stimuli_target_diamondsquares.svg	32	yes	44	1	940
6.6.0	mac	2022-12-14	14:48:30	14:57:14	522540	6105a3ab3439f5af30a3777b	42278497	1	main_z	11	advance_on_keypress_ZEE	46	stimuli_distractor_diamondtriangles.svg	stimuli_target_diamondsquares.svg	32	yes	57	0	505
6.6.0	mac	2022-12-14	14:48:30	14:57:16	524242	6105a3ab3439f5af30a3777b	42278497	1	main_z	11	main_z	47	stimuli_distractor_trianglediamonds.svg	stimuli_target_squarediamonds.svg	12	yes	44	1	575
6.6.0	mac	2022-12-14	14:48:30	14:57:16	524242	6105a3ab3439f5af30a3777b	42278497	1	main_z	11	advance_on_keypress_ZEE	48	stimuli_distractor_trianglediamonds.svg	stimuli_target_squarediamonds.svg	12	yes	57	0	495
6.6.0	mac	2022-12-14	14:48:30	14:57:19	527367	6105a3ab3439f5af30a3777b	42278497	1	main_z	11	main_z	49	stimuli_distractor_diamondtriangles.svg	stimuli_distractor_diamondtriangles.svg	39	no	0	1	2000
6.6.0	mac	2022-12-14	14:48:30	14:57:19	527367	6105a3ab3439f5af30a3777b	42278497	1	main_z	11	advance_on_keypress_ZEE	50	stimuli_distractor_diamondtriangles.svg	stimuli_distractor_diamondtriangles.svg	39	no	57	0	447
6.6.0	mac	2022-12-14	14:48:30	14:57:20	528815	6105a3ab3439f5af30a3777b	42278497	1	main_z	11	main_z	51	stimuli_distractor_trianglediamonds.svg	stimuli_distractor_diamondtriangles.svg	36	no	44	0	364
6.6.0	mac	2022-12-14	14:48:30	14:57:20	528815	6105a3ab3439f5af30a3777b	42278497	1	main_z	11	advance_on_keypress_ZEE	52	stimuli_distractor_trianglediamonds.svg	stimuli_distractor_diamondtriangles.svg	36	no	57	0	881
6.6.0	mac	2022-12-14	14:48:30	14:57:23	531884	6105a3ab3439f5af30a3777b	42278497	1	main_z	11	main_z	53	stimuli_target_diamondsquares.svg	stimuli_distractor_trianglediamonds.svg	20	yes	44	1	1549
6.6.0	mac	2022-12-14	14:48:30	14:57:23	531884	6105a3ab3439f5af30a3777b	42278497	1	main_z	11	advance_on_keypress_ZEE	54	stimuli_target_diamondsquares.svg	stimuli_distractor_trianglediamonds.svg	20	yes	57	0	502
6.6.0	mac	2022-12-14	14:48:30	14:57:25	533387	6105a3ab3439f5af30a3777b	42278497	1	main_z	11	main_z	55	stimuli_target_trianglecircles.svg	stimuli_distractor_diamondtriangles.svg	21	yes	44	1	370
6.6.0	mac	2022-12-14	14:48:30	14:57:25	533387	6105a3ab3439f5af30a3777b	42278497	1	main_z	11	advance_on_keypress_ZEE	56	stimuli_target_trianglecircles.svg	stimuli_distractor_diamondtriangles.svg	21	yes	57	0	943
6.6.0	mac	2022-12-14	14:48:30	14:57:27	535238	6105a3ab3439f5af30a3777b	42278497	1	main_z	11	main_z	57	stimuli_target_squaretriangles.svg	stimuli_distractor_diamondtriangles.svg	7	yes	44	1	288
6.6.0	mac	2022-12-14	14:48:30	14:57:27	535238	6105a3ab3439f5af30a3777b	42278497	1	main_z	11	advance_on_keypress_ZEE	58	stimuli_target_squaretriangles.svg	stimuli_distractor_diamondtriangles.svg	7	yes	57	0	568
6.6.0	mac	2022-12-14	14:48:30	14:57:28	536834	6105a3ab3439f5af30a3777b	42278497	1	main_z	11	main_z	59	stimuli_distractor_trianglediamonds.svg	stimuli_target_trianglesquares.svg	26	yes	44	1	400
6.6.0	mac	2022-12-14	14:48:30	14:57:28	536834	6105a3ab3439f5af30a3777b	42278497	1	main_z	11	advance_on_keypress_ZEE	60	stimuli_distractor_trianglediamonds.svg	stimuli_target_trianglesquares.svg	26	yes	57	0	841
6.6.0	mac	2022-12-14	14:48:30	14:57:32	540318	6105a3ab3439f5af30a3777b	42278497	1	main_z	11	main_z	61	stimuli_distractor_trianglediamonds.svg	stimuli_distractor_trianglediamonds.svg	34	no	0	1	2000
6.6.0	mac	2022-12-14	14:48:30	14:57:32	540318	6105a3ab3439f5af30a3777b	42278497	1	main_z	11	advance_on_keypress_ZEE	62	stimuli_distractor_trianglediamonds.svg	stimuli_distractor_trianglediamonds.svg	34	no	57	0	409
6.6.0	mac	2022-12-14	14:48:30	14:57:33	541786	6105a3ab3439f5af30a3777b	42278497	1	main_z	11	main_z	63	stimuli_target_squarediamonds.svg	stimuli_distractor_diamondtriangles.svg	8	yes	44	1	436
6.6.0	mac	2022-12-14	14:48:30	14:57:33	541786	6105a3ab3439f5af30a3777b	42278497	1	main_z	11	advance_on_keypress_ZEE	64	stimuli_target_squarediamonds.svg	stimuli_distractor_diamondtriangles.svg	8	yes	57	0	1548
6.6.0	mac	2022-12-14	14:48:30	14:57:36	544374	6105a3ab3439f5af30a3777b	42278497	1	main_z	11	main_z	65	stimuli_target_squarediamonds.svg	stimuli_distractor_trianglediamonds.svg	4	yes	44	1	407
6.6.0	mac	2022-12-14	14:48:30	14:57:36	544374	6105a3ab3439f5af30a3777b	42278497	1	main_z	11	advance_on_keypress_ZEE	66	stimuli_target_squarediamonds.svg	stimuli_distractor_trianglediamonds.svg	4	yes	57	0	518
6.6.0	mac	2022-12-14	14:48:30	14:57:37	546081	6105a3ab3439f5af30a3777b	42278497	1	main_z	11	main_z	67	stimuli_distractor_trianglediamonds.svg	stimuli_target_squaretriangles.svg	11	yes	44	1	564
6.6.0	mac	2022-12-14	14:48:30	14:57:37	546081	6105a3ab3439f5af30a3777b	42278497	1	main_z	11	advance_on_keypress_ZEE	68	stimuli_distractor_trianglediamonds.svg	stimuli_target_squaretriangles.svg	11	yes	57	0	610
6.6.0	mac	2022-12-14	14:48:30	14:57:40	548281	6105a3ab3439f5af30a3777b	42278497	1	main_z	11	main_z	69	stimuli_distractor_trianglediamonds.svg	stimuli_target_trianglecircles.svg	25	yes	44	1	963
6.6.0	mac	2022-12-14	14:48:30	14:57:40	548281	6105a3ab3439f5af30a3777b	42278497	1	main_z	11	advance_on_keypress_ZEE	70	stimuli_distractor_trianglediamonds.svg	stimuli_target_trianglecircles.svg	25	yes	57	0	540
6.6.0	mac	2022-12-14	14:48:30	14:57:43	551450	6105a3ab3439f5af30a3777b	42278497	1	main_z	11	main_z	71	stimuli_distractor_diamondtriangles.svg	stimuli_distractor_trianglediamonds.svg	38	no	0	1	2000
6.6.0	mac	2022-12-14	14:48:30	14:57:43	551450	6105a3ab3439f5af30a3777b	42278497	1	main_z	11	advance_on_keypress_ZEE	72	stimuli_distractor_diamondtriangles.svg	stimuli_distractor_trianglediamonds.svg	38	no	57	0	405
6.6.0	mac	2022-12-14	14:48:30	14:57:46	554484	6105a3ab3439f5af30a3777b	42278497	1	main_z	11	main_z	73	stimuli_distractor_trianglediamonds.svg	stimuli_distractor_trianglediamonds.svg	33	no	0	1	2000
6.6.0	mac	2022-12-14	14:48:30	14:57:46	554484	6105a3ab3439f5af30a3777b	42278497	1	main_z	11	advance_on_keypress_ZEE	74	stimuli_distractor_trianglediamonds.svg	stimuli_distractor_trianglediamonds.svg	33	no	57	0	402
6.6.0	mac	2022-12-14	14:48:30	14:57:47	555870	6105a3ab3439f5af30a3777b	42278497	1	main_z	11	main_z	75	stimuli_distractor_trianglediamonds.svg	stimuli_target_diamondsquares.svg	28	yes	44	1	352
6.6.0	mac	2022-12-14	14:48:30	14:57:47	555870	6105a3ab3439f5af30a3777b	42278497	1	main_z	11	advance_on_keypress_ZEE	76	stimuli_distractor_trianglediamonds.svg	stimuli_target_diamondsquares.svg	28	yes	57	0	807
6.6.0	mac	2022-12-14	14:48:30	14:57:49	557636	6105a3ab3439f5af30a3777b	42278497	1	main_z	11	main_z	77	stimuli_distractor_diamondtriangles.svg	stimuli_target_squaretriangles.svg	15	yes	44	1	335
6.6.0	mac	2022-12-14	14:48:30	14:57:49	557636	6105a3ab3439f5af30a3777b	42278497	1	main_z	11	advance_on_keypress_ZEE	78	stimuli_distractor_diamondtriangles.svg	stimuli_target_squaretriangles.svg	15	yes	57	0	625
6.6.0	mac	2022-12-14	14:48:30	14:57:51	559325	6105a3ab3439f5af30a3777b	42278497	1	main_z	11	main_z	79	stimuli_distractor_diamondtriangles.svg	stimuli_target_circlediamonds.svg	14	yes	44	1	440
6.6.0	mac	2022-12-14	14:48:30	14:57:51	559325	6105a3ab3439f5af30a3777b	42278497	1	main_z	11	advance_on_keypress_ZEE	80	stimuli_distractor_diamondtriangles.svg	stimuli_target_circlediamonds.svg	14	yes	57	0	496
6.6.0	mac	2022-12-14	14:48:30	14:57:52	561028	6105a3ab3439f5af30a3777b	42278497	1	main_z	11	main_z	81	stimuli_target_diamondsquares.svg	stimuli_distractor_diamondtriangles.svg	24	yes	44	1	577
6.6.0	mac	2022-12-14	14:48:30	14:57:52	561028	6105a3ab3439f5af30a3777b	42278497	1	main_z	11	advance_on_keypress_ZEE	82	stimuli_target_diamondsquares.svg	stimuli_distractor_diamondtriangles.svg	24	yes	57	0	542
6.6.0	mac	2022-12-14	14:48:30	14:57:54	562539	6105a3ab3439f5af30a3777b	42278497	1	main_z	11	main_z	83	stimuli_distractor_diamondtriangles.svg	stimuli_distractor_trianglediamonds.svg	37	no	44	0	338
6.6.0	mac	2022-12-14	14:48:30	14:57:54	562539	6105a3ab3439f5af30a3777b	42278497	1	main_z	11	advance_on_keypress_ZEE	84	stimuli_distractor_diamondtriangles.svg	stimuli_distractor_trianglediamonds.svg	37	no	57	0	615
6.6.0	mac	2022-12-14	14:48:30	14:57:56	564281	6105a3ab3439f5af30a3777b	42278497	1	main_z	11	main_z	85	stimuli_target_trianglecircles.svg	stimuli_distractor_trianglediamonds.svg	17	yes	44	1	497
6.6.0	mac	2022-12-14	14:48:30	14:57:56	564281	6105a3ab3439f5af30a3777b	42278497	1	main_z	11	advance_on_keypress_ZEE	86	stimuli_target_trianglecircles.svg	stimuli_distractor_trianglediamonds.svg	17	yes	57	0	490
6.6.0	mac	2022-12-14	14:48:30	14:57:57	565753	6105a3ab3439f5af30a3777b	42278497	1	main_z	11	main_z	87	stimuli_distractor_diamondtriangles.svg	stimuli_target_circlediamonds.svg	14	yes	44	1	352
6.6.0	mac	2022-12-14	14:48:30	14:57:57	565753	6105a3ab3439f5af30a3777b	42278497	1	main_z	11	advance_on_keypress_ZEE	88	stimuli_distractor_diamondtriangles.svg	stimuli_target_circlediamonds.svg	14	yes	57	0	690
6.6.0	mac	2022-12-14	14:48:30	14:57:59	567403	6105a3ab3439f5af30a3777b	42278497	1	main_z	11	main_z	89	stimuli_distractor_diamondtriangles.svg	stimuli_target_squaretriangles.svg	15	yes	44	1	335
6.6.0	mac	2022-12-14	14:48:30	14:57:59	567403	6105a3ab3439f5af30a3777b	42278497	1	main_z	11	advance_on_keypress_ZEE	90	stimuli_distractor_diamondtriangles.svg	stimuli_target_squaretriangles.svg	15	yes	57	0	674
6.6.0	mac	2022-12-14	14:48:30	14:58:01	569209	6105a3ab3439f5af30a3777b	42278497	1	main_z	11	main_z	91	stimuli_target_squarediamonds.svg	stimuli_distractor_diamondtriangles.svg	8	yes	44	1	508
6.6.0	mac	2022-12-14	14:48:30	14:58:01	569209	6105a3ab3439f5af30a3777b	42278497	1	main_z	11	advance_on_keypress_ZEE	92	stimuli_target_squarediamonds.svg	stimuli_distractor_diamondtriangles.svg	8	yes	57	0	558
6.6.0	mac	2022-12-14	14:48:30	14:58:02	570940	6105a3ab3439f5af30a3777b	42278497	1	main_z	11	main_z	93	stimuli_distractor_trianglediamonds.svg	stimuli_target_circletriangles.svg	9	yes	44	1	555
6.6.0	mac	2022-12-14	14:48:30	14:58:02	570940	6105a3ab3439f5af30a3777b	42278497	1	main_z	11	advance_on_keypress_ZEE	94	stimuli_distractor_trianglediamonds.svg	stimuli_target_circletriangles.svg	9	yes	57	0	470
6.6.0	mac	2022-12-14	14:48:30	14:58:05	574051	6105a3ab3439f5af30a3777b	42278497	1	main_z	11	main_z	95	stimuli_distractor_trianglediamonds.svg	stimuli_distractor_diamondtriangles.svg	35	no	0	1	2000
6.6.0	mac	2022-12-14	14:48:30	14:58:05	574051	6105a3ab3439f5af30a3777b	42278497	1	main_z	11	advance_on_keypress_ZEE	96	stimuli_distractor_trianglediamonds.svg	stimuli_distractor_diamondtriangles.svg	35	no	57	0	522
6.6.0	mac	2022-12-14	14:48:30	14:58:07	575670	6105a3ab3439f5af30a3777b	42278497	1	main_z	11	main_z	97	stimuli_distractor_diamondtriangles.svg	stimuli_target_circletriangles.svg	13	yes	44	1	470
6.6.0	mac	2022-12-14	14:48:30	14:58:07	575670	6105a3ab3439f5af30a3777b	42278497	1	main_z	11	advance_on_keypress_ZEE	98	stimuli_distractor_diamondtriangles.svg	stimuli_target_circletriangles.svg	13	yes	57	0	566
6.6.0	mac	2022-12-14	14:48:30	14:58:09	577361	6105a3ab3439f5af30a3777b	42278497	1	main_z	11	main_z	99	stimuli_target_circletriangles.svg	stimuli_distractor_trianglediamonds.svg	1	yes	44	1	494
6.6.0	mac	2022-12-14	14:48:30	14:58:09	577361	6105a3ab3439f5af30a3777b	42278497	1	main_z	11	advance_on_keypress_ZEE	100	stimuli_target_circletriangles.svg	stimuli_distractor_trianglediamonds.svg	1	yes	57	0	474
6.6.0	mac	2022-12-14	14:48:30	14:58:10	578815	6105a3ab3439f5af30a3777b	42278497	1	main_z	11	main_z	101	stimuli_target_diamondsquares.svg	stimuli_distractor_trianglediamonds.svg	20	yes	44	1	364
6.6.0	mac	2022-12-14	14:48:30	14:58:10	578815	6105a3ab3439f5af30a3777b	42278497	1	main_z	11	advance_on_keypress_ZEE	102	stimuli_target_diamondsquares.svg	stimuli_distractor_trianglediamonds.svg	20	yes	57	0	609
6.6.0	mac	2022-12-14	14:48:30	14:58:12	580387	6105a3ab3439f5af30a3777b	42278497	1	main_z	11	main_z	103	stimuli_distractor_trianglediamonds.svg	stimuli_target_squaretriangles.svg	11	yes	44	1	335
6.6.0	mac	2022-12-14	14:48:30	14:58:12	580387	6105a3ab3439f5af30a3777b	42278497	1	main_z	11	advance_on_keypress_ZEE	104	stimuli_distractor_trianglediamonds.svg	stimuli_target_squaretriangles.svg	11	yes	57	0	586
6.6.0	mac	2022-12-14	14:48:30	14:58:13	581929	6105a3ab3439f5af30a3777b	42278497	1	main_z	11	main_z	105	stimuli_distractor_diamondtriangles.svg	stimuli_target_squarediamonds.svg	16	yes	44	1	328
6.6.0	mac	2022-12-14	14:48:30	14:58:13	581929	6105a3ab3439f5af30a3777b	42278497	1	main_z	11	advance_on_keypress_ZEE	106	stimuli_distractor_diamondtriangles.svg	stimuli_target_squarediamonds.svg	16	yes	57	0	597
6.6.0	mac	2022-12-14	14:48:30	14:58:15	583525	6105a3ab3439f5af30a3777b	42278497	1	main_z	11	main_z	107	stimuli_distractor_trianglediamonds.svg	stimuli_distractor_trianglediamonds.svg	33	no	44	0	374
6.6.0	mac	2022-12-14	14:48:30	14:58:15	583525	6105a3ab3439f5af30a3777b	42278497	1	main_z	11	advance_on_keypress_ZEE	108	stimuli_distractor_trianglediamonds.svg	stimuli_distractor_trianglediamonds.svg	33	no	57	0	749
6.6.0	mac	2022-12-14	14:48:30	14:58:17	585368	6105a3ab3439f5af30a3777b	42278497	1	main_z	11	main_z	109	stimuli_target_circletriangles.svg	stimuli_distractor_diamondtriangles.svg	5	yes	44	1	467
6.6.0	mac	2022-12-14	14:48:30	14:58:17	585368	6105a3ab3439f5af30a3777b	42278497	1	main_z	11	advance_on_keypress_ZEE	110	stimuli_target_circletriangles.svg	stimuli_distractor_diamondtriangles.svg	5	yes	57	0	429
6.6.0	mac	2022-12-14	14:48:30	14:58:18	587010	6105a3ab3439f5af30a3777b	42278497	1	main_z	11	main_z	111	stimuli_distractor_diamondtriangles.svg	stimuli_target_trianglesquares.svg	30	yes	44	1	575
6.6.0	mac	2022-12-14	14:48:30	14:58:18	587010	6105a3ab3439f5af30a3777b	42278497	1	main_z	11	advance_on_keypress_ZEE	112	stimuli_distractor_diamondtriangles.svg	stimuli_target_trianglesquares.svg	30	yes	57	0	773
6.6.0	mac	2022-12-14	14:48:30	14:58:20	588871	6105a3ab3439f5af30a3777b	42278497	1	main_z	11	main_z	113	stimuli_target_trianglesquares.svg	stimuli_distractor_diamondtriangles.svg	22	yes	44	1	454
6.6.0	mac	2022-12-14	14:48:30	14:58:20	588871	6105a3ab3439f5af30a3777b	42278497	1	main_z	11	advance_on_keypress_ZEE	114	stimuli_target_trianglesquares.svg	stimuli_distractor_diamondtriangles.svg	22	yes	57	0	474
6.6.0	mac	2022-12-14	14:48:30	14:58:22	590568	6105a3ab3439f5af30a3777b	42278497	1	main_z	11	main_z	115	stimuli_distractor_trianglediamonds.svg	stimuli_target_circlediamonds.svg	10	yes	44	1	601
6.6.0	mac	2022-12-14	14:48:30	14:58:22	590568	6105a3ab3439f5af30a3777b	42278497	1	main_z	11	advance_on_keypress_ZEE	116	stimuli_distractor_trianglediamonds.svg	stimuli_target_circlediamonds.svg	10	yes	57	0	430
6.6.0	mac	2022-12-14	14:48:30	14:58:24	592152	6105a3ab3439f5af30a3777b	42278497	1	main_z	11	main_z	117	stimuli_distractor_trianglediamonds.svg	stimuli_target_squarediamonds.svg	12	yes	44	1	519
6.6.0	mac	2022-12-14	14:48:30	14:58:24	592152	6105a3ab3439f5af30a3777b	42278497	1	main_z	11	advance_on_keypress_ZEE	118	stimuli_distractor_trianglediamonds.svg	stimuli_target_squarediamonds.svg	12	yes	57	0	480
6.6.0	mac	2022-12-14	14:48:30	14:58:25	593820	6105a3ab3439f5af30a3777b	42278497	1	main_z	11	main_z	119	stimuli_target_circlediamonds.svg	stimuli_distractor_diamondtriangles.svg	6	yes	44	1	552
6.6.0	mac	2022-12-14	14:48:30	14:58:25	593820	6105a3ab3439f5af30a3777b	42278497	1	main_z	11	advance_on_keypress_ZEE	120	stimuli_target_circlediamonds.svg	stimuli_distractor_diamondtriangles.svg	6	yes	57	0	467
6.6.0	mac	2022-12-14	14:48:30	14:58:27	595678	6105a3ab3439f5af30a3777b	42278497	1	main_z	11	main_z	121	stimuli_distractor_trianglediamonds.svg	stimuli_target_diamondsquares.svg	28	yes	44	1	761
6.6.0	mac	2022-12-14	14:48:30	14:58:27	595678	6105a3ab3439f5af30a3777b	42278497	1	main_z	11	advance_on_keypress_ZEE	122	stimuli_distractor_trianglediamonds.svg	stimuli_target_diamondsquares.svg	28	yes	57	0	576
6.6.0	mac	2022-12-14	14:48:30	14:58:29	597444	6105a3ab3439f5af30a3777b	42278497	1	main_z	11	main_z	123	stimuli_target_diamondcircles.svg	stimuli_distractor_trianglediamonds.svg	19	yes	44	1	577
6.6.0	mac	2022-12-14	14:48:30	14:58:29	597444	6105a3ab3439f5af30a3777b	42278497	1	main_z	11	advance_on_keypress_ZEE	124	stimuli_target_diamondcircles.svg	stimuli_distractor_trianglediamonds.svg	19	yes	57	0	439
6.6.0	mac	2022-12-14	14:48:30	14:58:30	599008	6105a3ab3439f5af30a3777b	42278497	1	main_z	11	main_z	125	stimuli_target_circlediamonds.svg	stimuli_distractor_trianglediamonds.svg	2	yes	44	1	491
6.6.0	mac	2022-12-14	14:48:30	14:58:30	599008	6105a3ab3439f5af30a3777b	42278497	1	main_z	11	advance_on_keypress_ZEE	126	stimuli_target_circlediamonds.svg	stimuli_distractor_trianglediamonds.svg	2	yes	57	0	526
6.6.0	mac	2022-12-14	14:48:30	14:58:34	602150	6105a3ab3439f5af30a3777b	42278497	1	main_z	11	main_z	127	stimuli_distractor_diamondtriangles.svg	stimuli_distractor_trianglediamonds.svg	38	no	0	1	2000
6.6.0	mac	2022-12-14	14:48:30	14:58:34	602150	6105a3ab3439f5af30a3777b	42278497	1	main_z	11	advance_on_keypress_ZEE	128	stimuli_distractor_diamondtriangles.svg	stimuli_distractor_trianglediamonds.svg	38	no	57	0	900
6.6.0	mac	2022-12-14	14:48:30	14:58:35	604113	6105a3ab3439f5af30a3777b	42278497	1	main_z	11	main_z	129	stimuli_distractor_trianglediamonds.svg	stimuli_target_trianglecircles.svg	25	yes	44	1	429
6.6.0	mac	2022-12-14	14:48:30	14:58:35	604113	6105a3ab3439f5af30a3777b	42278497	1	main_z	11	advance_on_keypress_ZEE	130	stimuli_distractor_trianglediamonds.svg	stimuli_target_trianglecircles.svg	25	yes	57	0	787
6.6.0	mac	2022-12-14	14:48:30	14:58:39	607535	6105a3ab3439f5af30a3777b	42278497	1	main_z	11	main_z	131	stimuli_distractor_diamondtriangles.svg	stimuli_distractor_diamondtriangles.svg	39	no	0	1	2000
6.6.0	mac	2022-12-14	14:48:30	14:58:39	607535	6105a3ab3439f5af30a3777b	42278497	1	main_z	11	advance_on_keypress_ZEE	132	stimuli_distractor_diamondtriangles.svg	stimuli_distractor_diamondtriangles.svg	39	no	57	0	278
6.6.0	mac	2022-12-14	14:48:30	14:58:40	608956	6105a3ab3439f5af30a3777b	42278497	1	main_z	11	main_z	133	stimuli_distractor_diamondtriangles.svg	stimuli_target_diamondsquares.svg	32	yes	44	1	506
6.6.0	mac	2022-12-14	14:48:30	14:58:40	608956	6105a3ab3439f5af30a3777b	42278497	1	main_z	11	advance_on_keypress_ZEE	134	stimuli_distractor_diamondtriangles.svg	stimuli_target_diamondsquares.svg	32	yes	57	0	466
6.6.0	mac	2022-12-14	14:48:30	14:58:42	610432	6105a3ab3439f5af30a3777b	42278497	1	main_z	11	main_z	135	stimuli_distractor_trianglediamonds.svg	stimuli_distractor_diamondtriangles.svg	36	no	44	0	383
6.6.0	mac	2022-12-14	14:48:30	14:58:42	610432	6105a3ab3439f5af30a3777b	42278497	1	main_z	11	advance_on_keypress_ZEE	136	stimuli_distractor_trianglediamonds.svg	stimuli_distractor_diamondtriangles.svg	36	no	57	0	477
6.6.0	mac	2022-12-14	14:48:30	14:58:43	611992	6105a3ab3439f5af30a3777b	42278497	1	main_z	11	main_z	137	stimuli_target_trianglecircles.svg	stimuli_distractor_diamondtriangles.svg	21	yes	44	1	457
6.6.0	mac	2022-12-14	14:48:30	14:58:43	611992	6105a3ab3439f5af30a3777b	42278497	1	main_z	11	advance_on_keypress_ZEE	138	stimuli_target_trianglecircles.svg	stimuli_distractor_diamondtriangles.svg	21	yes	57	0	478
6.6.0	mac	2022-12-14	14:48:30	14:58:46	615084	6105a3ab3439f5af30a3777b	42278497	1	main_z	11	main_z	139	stimuli_distractor_diamondtriangles.svg	stimuli_distractor_diamondtriangles.svg	40	no	0	1	2000
6.6.0	mac	2022-12-14	14:48:30	14:58:46	615084	6105a3ab3439f5af30a3777b	42278497	1	main_z	11	advance_on_keypress_ZEE	140	stimuli_distractor_diamondtriangles.svg	stimuli_distractor_diamondtriangles.svg	40	no	57	0	366
6.6.0	mac	2022-12-14	14:48:30	14:58:48	616419	6105a3ab3439f5af30a3777b	42278497	1	main_z	11	main_z	141	stimuli_distractor_diamondtriangles.svg	stimuli_target_trianglecircles.svg	29	yes	44	1	334
6.6.0	mac	2022-12-14	14:48:30	14:58:48	616419	6105a3ab3439f5af30a3777b	42278497	1	main_z	11	advance_on_keypress_ZEE	142	stimuli_distractor_diamondtriangles.svg	stimuli_target_trianglecircles.svg	29	yes	57	0	635
6.6.0	mac	2022-12-14	14:48:30	14:58:49	618016	6105a3ab3439f5af30a3777b	42278497	1	main_z	11	main_z	143	stimuli_distractor_diamondtriangles.svg	stimuli_target_diamondcircles.svg	31	yes	44	1	331
6.6.0	mac	2022-12-14	14:48:30	14:58:49	618016	6105a3ab3439f5af30a3777b	42278497	1	main_z	11	advance_on_keypress_ZEE	144	stimuli_distractor_diamondtriangles.svg	stimuli_target_diamondcircles.svg	31	yes	57	0	1465
6.6.0	mac	2022-12-14	14:48:30	14:58:52	620494	6105a3ab3439f5af30a3777b	42278497	1	main_z	11	main_z	145	stimuli_distractor_trianglediamonds.svg	stimuli_target_diamondcircles.svg	27	yes	44	1	376
6.6.0	mac	2022-12-14	14:48:30	14:58:52	620494	6105a3ab3439f5af30a3777b	42278497	1	main_z	11	advance_on_keypress_ZEE	146	stimuli_distractor_trianglediamonds.svg	stimuli_target_diamondcircles.svg	27	yes	57	0	888
6.6.0	mac	2022-12-14	14:48:30	14:58:54	622526	6105a3ab3439f5af30a3777b	42278497	1	main_z	11	main_z	147	stimuli_target_squarediamonds.svg	stimuli_distractor_trianglediamonds.svg	4	yes	44	1	525
6.6.0	mac	2022-12-14	14:48:30	14:58:54	622526	6105a3ab3439f5af30a3777b	42278497	1	main_z	11	advance_on_keypress_ZEE	148	stimuli_target_squarediamonds.svg	stimuli_distractor_trianglediamonds.svg	4	yes	57	0	802
6.6.0	mac	2022-12-14	14:48:30	14:58:56	624379	6105a3ab3439f5af30a3777b	42278497	1	main_z	11	main_z	149	stimuli_target_squaretriangles.svg	stimuli_distractor_diamondtriangles.svg	7	yes	44	1	428
6.6.0	mac	2022-12-14	14:48:30	14:58:56	624379	6105a3ab3439f5af30a3777b	42278497	1	main_z	11	advance_on_keypress_ZEE	150	stimuli_target_squaretriangles.svg	stimuli_distractor_diamondtriangles.svg	7	yes	57	0	747
6.6.0	mac	2022-12-14	14:48:30	14:58:59	627768	6105a3ab3439f5af30a3777b	42278497	1	main_z	11	main_z	151	stimuli_target_trianglesquares.svg	stimuli_distractor_trianglediamonds.svg	18	yes	0	0	2000
6.6.0	mac	2022-12-14	14:48:30	14:58:59	627768	6105a3ab3439f5af30a3777b	42278497	1	main_z	11	advance_on_keypress_ZEE	152	stimuli_target_trianglesquares.svg	stimuli_distractor_trianglediamonds.svg	18	yes	57	0	495
6.6.0	mac	2022-12-14	14:48:30	14:59:01	629317	6105a3ab3439f5af30a3777b	42278497	1	main_z	11	main_z	153	stimuli_target_diamondcircles.svg	stimuli_distractor_diamondtriangles.svg	23	yes	44	1	417
6.6.0	mac	2022-12-14	14:48:30	14:59:01	629317	6105a3ab3439f5af30a3777b	42278497	1	main_z	11	advance_on_keypress_ZEE	154	stimuli_target_diamondcircles.svg	stimuli_distractor_diamondtriangles.svg	23	yes	57	0	607
6.6.0	mac	2022-12-14	14:48:30	14:59:02	631057	6105a3ab3439f5af30a3777b	42278497	1	main_z	11	main_z	155	stimuli_target_squaretriangles.svg	stimuli_distractor_trianglediamonds.svg	3	yes	44	1	507
6.6.0	mac	2022-12-14	14:48:30	14:59:02	631057	6105a3ab3439f5af30a3777b	42278497	1	main_z	11	advance_on_keypress_ZEE	156	stimuli_target_squaretriangles.svg	stimuli_distractor_trianglediamonds.svg	3	yes	57	0	517
6.6.0	mac	2022-12-14	14:48:30	14:59:04	632527	6105a3ab3439f5af30a3777b	42278497	1	main_z	11	main_z	157	stimuli_distractor_trianglediamonds.svg	stimuli_target_trianglesquares.svg	26	yes	44	1	326
6.6.0	mac	2022-12-14	14:48:30	14:59:04	632527	6105a3ab3439f5af30a3777b	42278497	1	main_z	11	advance_on_keypress_ZEE	158	stimuli_distractor_trianglediamonds.svg	stimuli_target_trianglesquares.svg	26	yes	57	0	1331
6.6.0	mac	2022-12-14	14:48:30	14:59:08	636484	6105a3ab3439f5af30a3777b	42278497	1	main_z	11	main_z	159	stimuli_distractor_trianglediamonds.svg	stimuli_distractor_trianglediamonds.svg	34	no	0	1	2000
6.6.0	mac	2022-12-14	14:48:30	14:59:08	636484	6105a3ab3439f5af30a3777b	42278497	1	main_z	11	advance_on_keypress_ZEE	160	stimuli_distractor_trianglediamonds.svg	stimuli_distractor_trianglediamonds.svg	34	no	57	0	478