build	computer.platform	date	time	timestamp	time_elapsed_ms	subject	group	session	blockcode	blocknum	trialcode	trialnum	stimulus_left	stimulus_right	stim_index	target_present	response	correct	latency
6.6.1	win	2022-12-29	13:38:37	13:43:11	272401	60c739d1b402ae0d42b37c66	807902584	1	practice_z	5	practice_z	1	stimuli_distractor_diamondtriangles.svg	stimuli_distractor_trianglediamonds.svg	14	no	0	1	2000
6.6.1	win	2022-12-29	13:38:37	13:43:11	272401	60c739d1b402ae0d42b37c66	807902584	1	practice_z	5	advance_on_keypress_ZEE	2	stimuli_distractor_diamondtriangles.svg	stimuli_distractor_trianglediamonds.svg	14	no	57	0	1222
6.6.1	win	2022-12-29	13:38:37	13:43:15	276003	60c739d1b402ae0d42b37c66	807902584	1	practice_z	5	practice_z	3	stimuli_target_squarediamonds.svg	stimuli_distractor_trianglediamonds.svg	5	yes	44	1	720
6.6.1	win	2022-12-29	13:38:37	13:43:15	276003	60c739d1b402ae0d42b37c66	807902584	1	practice_z	5	advance_on_keypress_ZEE	4	stimuli_target_squarediamonds.svg	stimuli_distractor_trianglediamonds.svg	5	yes	57	0	2832
6.6.1	win	2022-12-29	13:38:37	13:43:21	281756	60c739d1b402ae0d42b37c66	807902584	1	practice_z	5	practice_z	5	stimuli_distractor_diamondtriangles.svg	stimuli_target_diamondcircles.svg	8	yes	44	1	1272
6.6.1	win	2022-12-29	13:38:37	13:43:21	281756	60c739d1b402ae0d42b37c66	807902584	1	practice_z	5	advance_on_keypress_ZEE	6	stimuli_distractor_diamondtriangles.svg	stimuli_target_diamondcircles.svg	8	yes	57	0	788
6.6.1	win	2022-12-29	13:38:37	13:43:25	286183	60c739d1b402ae0d42b37c66	807902584	1	practice_z	5	practice_z	7	stimuli_distractor_trianglediamonds.svg	stimuli_distractor_trianglediamonds.svg	15	no	0	1	2000
6.6.1	win	2022-12-29	13:38:37	13:43:25	286183	60c739d1b402ae0d42b37c66	807902584	1	practice_z	5	advance_on_keypress_ZEE	8	stimuli_distractor_trianglediamonds.svg	stimuli_distractor_trianglediamonds.svg	15	no	57	0	1222
6.6.1	win	2022-12-29	13:38:37	13:43:28	289366	60c739d1b402ae0d42b37c66	807902584	1	practice_z	5	practice_z	9	stimuli_distractor_diamondtriangles.svg	stimuli_distractor_diamondtriangles.svg	13	no	44	0	316
6.6.1	win	2022-12-29	13:38:37	13:43:28	289366	60c739d1b402ae0d42b37c66	807902584	1	practice_z	5	advance_on_keypress_ZEE	10	stimuli_distractor_diamondtriangles.svg	stimuli_distractor_diamondtriangles.svg	13	no	57	0	1695
6.6.1	win	2022-12-29	13:38:37	13:43:32	293127	60c739d1b402ae0d42b37c66	807902584	1	practice_z	5	practice_z	11	stimuli_target_squarediamonds.svg	stimuli_distractor_diamondtriangles.svg	2	yes	44	1	410
6.6.1	win	2022-12-29	13:38:37	13:43:32	293127	60c739d1b402ae0d42b37c66	807902584	1	practice_z	5	advance_on_keypress_ZEE	12	stimuli_target_squarediamonds.svg	stimuli_distractor_diamondtriangles.svg	2	yes	57	0	934
6.6.1	win	2022-12-29	13:38:37	13:43:35	296122	60c739d1b402ae0d42b37c66	807902584	1	practice_z	5	practice_z	13	stimuli_target_circlediamonds.svg	stimuli_distractor_diamondtriangles.svg	1	yes	44	1	406
6.6.1	win	2022-12-29	13:38:37	13:43:35	296122	60c739d1b402ae0d42b37c66	807902584	1	practice_z	5	advance_on_keypress_ZEE	14	stimuli_target_circlediamonds.svg	stimuli_distractor_diamondtriangles.svg	1	yes	57	0	777
6.6.1	win	2022-12-29	13:38:37	13:43:38	298889	60c739d1b402ae0d42b37c66	807902584	1	practice_z	5	practice_z	15	stimuli_target_diamondsquares.svg	stimuli_distractor_diamondtriangles.svg	3	yes	44	1	340
6.6.1	win	2022-12-29	13:38:37	13:43:38	298889	60c739d1b402ae0d42b37c66	807902584	1	practice_z	5	advance_on_keypress_ZEE	16	stimuli_target_diamondsquares.svg	stimuli_distractor_diamondtriangles.svg	3	yes	57	0	1965
6.6.1	win	2022-12-29	13:38:37	13:43:42	302862	60c739d1b402ae0d42b37c66	807902584	1	practice_z	5	practice_z	17	stimuli_distractor_trianglediamonds.svg	stimuli_target_circlediamonds.svg	10	yes	44	1	364
6.6.1	win	2022-12-29	13:38:37	13:43:42	302862	60c739d1b402ae0d42b37c66	807902584	1	practice_z	5	advance_on_keypress_ZEE	18	stimuli_distractor_trianglediamonds.svg	stimuli_target_circlediamonds.svg	10	yes	57	0	768
6.6.1	win	2022-12-29	13:38:37	13:43:45	305609	60c739d1b402ae0d42b37c66	807902584	1	practice_z	5	practice_z	19	stimuli_target_diamondsquares.svg	stimuli_distractor_trianglediamonds.svg	6	yes	44	1	327
6.6.1	win	2022-12-29	13:38:37	13:43:45	305609	60c739d1b402ae0d42b37c66	807902584	1	practice_z	5	advance_on_keypress_ZEE	20	stimuli_target_diamondsquares.svg	stimuli_distractor_trianglediamonds.svg	6	yes	57	0	764
6.6.1	win	2022-12-29	13:38:37	13:43:47	308345	60c739d1b402ae0d42b37c66	807902584	1	practice_z	5	practice_z	21	stimuli_target_circlediamonds.svg	stimuli_distractor_trianglediamonds.svg	4	yes	44	1	313
6.6.1	win	2022-12-29	13:38:37	13:43:47	308345	60c739d1b402ae0d42b37c66	807902584	1	practice_z	5	advance_on_keypress_ZEE	22	stimuli_target_circlediamonds.svg	stimuli_distractor_trianglediamonds.svg	4	yes	57	0	1846
6.6.1	win	2022-12-29	13:38:37	13:43:51	312179	60c739d1b402ae0d42b37c66	807902584	1	practice_z	5	practice_z	23	stimuli_distractor_trianglediamonds.svg	stimuli_target_diamondcircles.svg	12	yes	44	1	331
6.6.1	win	2022-12-29	13:38:37	13:43:51	312179	60c739d1b402ae0d42b37c66	807902584	1	practice_z	5	advance_on_keypress_ZEE	24	stimuli_distractor_trianglediamonds.svg	stimuli_target_diamondcircles.svg	12	yes	57	0	920
6.6.1	win	2022-12-29	13:38:37	13:43:54	315129	60c739d1b402ae0d42b37c66	807902584	1	practice_z	5	practice_z	25	stimuli_distractor_diamondtriangles.svg	stimuli_target_circletriangles.svg	7	yes	44	1	370
6.6.1	win	2022-12-29	13:38:37	13:43:54	315129	60c739d1b402ae0d42b37c66	807902584	1	practice_z	5	advance_on_keypress_ZEE	26	stimuli_distractor_diamondtriangles.svg	stimuli_target_circletriangles.svg	7	yes	57	0	1230
6.6.1	win	2022-12-29	13:38:37	13:43:57	318371	60c739d1b402ae0d42b37c66	807902584	1	practice_z	5	practice_z	27	stimuli_distractor_diamondtriangles.svg	stimuli_target_trianglecircles.svg	9	yes	44	1	357
6.6.1	win	2022-12-29	13:38:37	13:43:57	318371	60c739d1b402ae0d42b37c66	807902584	1	practice_z	5	advance_on_keypress_ZEE	28	stimuli_distractor_diamondtriangles.svg	stimuli_target_trianglecircles.svg	9	yes	57	0	1328
6.6.1	win	2022-12-29	13:38:37	13:44:01	321986	60c739d1b402ae0d42b37c66	807902584	1	practice_z	5	practice_z	29	stimuli_distractor_trianglediamonds.svg	stimuli_target_squarediamonds.svg	11	yes	44	1	639
6.6.1	win	2022-12-29	13:38:37	13:44:01	321986	60c739d1b402ae0d42b37c66	807902584	1	practice_z	5	advance_on_keypress_ZEE	30	stimuli_distractor_trianglediamonds.svg	stimuli_target_squarediamonds.svg	11	yes	57	0	786
6.6.1	win	2022-12-29	13:38:37	13:44:05	326414	60c739d1b402ae0d42b37c66	807902584	1	practice_z	5	practice_z	31	stimuli_distractor_trianglediamonds.svg	stimuli_distractor_diamondtriangles.svg	16	no	0	1	2000
6.6.1	win	2022-12-29	13:38:37	13:44:05	326414	60c739d1b402ae0d42b37c66	807902584	1	practice_z	5	advance_on_keypress_ZEE	32	stimuli_distractor_trianglediamonds.svg	stimuli_distractor_diamondtriangles.svg	16	no	57	0	996
6.6.1	win	2022-12-29	13:38:37	13:44:15	335634	60c739d1b402ae0d42b37c66	807902584	1	main_z	7	main_z	1	stimuli_distractor_trianglediamonds.svg	stimuli_target_diamondsquares.svg	28	yes	44	1	522
6.6.1	win	2022-12-29	13:38:37	13:44:15	335634	60c739d1b402ae0d42b37c66	807902584	1	main_z	7	advance_on_keypress_ZEE	2	stimuli_distractor_trianglediamonds.svg	stimuli_target_diamondsquares.svg	28	yes	57	0	2545
6.6.1	win	2022-12-29	13:38:37	13:44:18	339160	60c739d1b402ae0d42b37c66	807902584	1	main_z	7	main_z	3	stimuli_distractor_diamondtriangles.svg	stimuli_target_circlediamonds.svg	14	yes	44	1	332
6.6.1	win	2022-12-29	13:38:37	13:44:18	339160	60c739d1b402ae0d42b37c66	807902584	1	main_z	7	advance_on_keypress_ZEE	4	stimuli_distractor_diamondtriangles.svg	stimuli_target_circlediamonds.svg	14	yes	57	0	1074
6.6.1	win	2022-12-29	13:38:37	13:44:20	341230	60c739d1b402ae0d42b37c66	807902584	1	main_z	7	main_z	5	stimuli_distractor_trianglediamonds.svg	stimuli_target_circlediamonds.svg	10	yes	44	1	352
6.6.1	win	2022-12-29	13:38:37	13:44:20	341230	60c739d1b402ae0d42b37c66	807902584	1	main_z	7	advance_on_keypress_ZEE	6	stimuli_distractor_trianglediamonds.svg	stimuli_target_circlediamonds.svg	10	yes	57	0	715
6.6.1	win	2022-12-29	13:38:37	13:44:22	342928	60c739d1b402ae0d42b37c66	807902584	1	main_z	7	main_z	7	stimuli_target_circletriangles.svg	stimuli_distractor_trianglediamonds.svg	1	yes	44	1	334
6.6.1	win	2022-12-29	13:38:37	13:44:22	342928	60c739d1b402ae0d42b37c66	807902584	1	main_z	7	advance_on_keypress_ZEE	8	stimuli_target_circletriangles.svg	stimuli_distractor_trianglediamonds.svg	1	yes	57	0	1252
6.6.1	win	2022-12-29	13:38:37	13:44:24	345125	60c739d1b402ae0d42b37c66	807902584	1	main_z	7	main_z	9	stimuli_target_trianglesquares.svg	stimuli_distractor_diamondtriangles.svg	22	yes	44	1	297
6.6.1	win	2022-12-29	13:38:37	13:44:24	345125	60c739d1b402ae0d42b37c66	807902584	1	main_z	7	advance_on_keypress_ZEE	10	stimuli_target_trianglesquares.svg	stimuli_distractor_diamondtriangles.svg	22	yes	57	0	940
6.6.1	win	2022-12-29	13:38:37	13:44:26	347012	60c739d1b402ae0d42b37c66	807902584	1	main_z	7	main_z	11	stimuli_distractor_trianglediamonds.svg	stimuli_distractor_trianglediamonds.svg	33	no	44	0	301
6.6.1	win	2022-12-29	13:38:37	13:44:26	347012	60c739d1b402ae0d42b37c66	807902584	1	main_z	7	advance_on_keypress_ZEE	12	stimuli_distractor_trianglediamonds.svg	stimuli_distractor_trianglediamonds.svg	33	no	57	0	1503
6.6.1	win	2022-12-29	13:38:37	13:44:28	349509	60c739d1b402ae0d42b37c66	807902584	1	main_z	7	main_z	13	stimuli_target_trianglecircles.svg	stimuli_distractor_diamondtriangles.svg	21	yes	44	1	348
6.6.1	win	2022-12-29	13:38:37	13:44:28	349509	60c739d1b402ae0d42b37c66	807902584	1	main_z	7	advance_on_keypress_ZEE	14	stimuli_target_trianglecircles.svg	stimuli_distractor_diamondtriangles.svg	21	yes	57	0	1012
6.6.1	win	2022-12-29	13:38:37	13:44:30	351518	60c739d1b402ae0d42b37c66	807902584	1	main_z	7	main_z	15	stimuli_target_circlediamonds.svg	stimuli_distractor_trianglediamonds.svg	2	yes	44	1	342
6.6.1	win	2022-12-29	13:38:37	13:44:30	351518	60c739d1b402ae0d42b37c66	807902584	1	main_z	7	advance_on_keypress_ZEE	16	stimuli_target_circlediamonds.svg	stimuli_distractor_trianglediamonds.svg	2	yes	57	0	2018
6.6.1	win	2022-12-29	13:38:37	13:44:35	356177	60c739d1b402ae0d42b37c66	807902584	1	main_z	7	main_z	17	stimuli_target_circletriangles.svg	stimuli_distractor_diamondtriangles.svg	5	yes	0	0	2000
6.6.1	win	2022-12-29	13:38:37	13:44:35	356177	60c739d1b402ae0d42b37c66	807902584	1	main_z	7	advance_on_keypress_ZEE	18	stimuli_target_circletriangles.svg	stimuli_distractor_diamondtriangles.svg	5	yes	57	0	878
6.6.1	win	2022-12-29	13:38:37	13:44:37	358339	60c739d1b402ae0d42b37c66	807902584	1	main_z	7	main_z	19	stimuli_distractor_diamondtriangles.svg	stimuli_distractor_trianglediamonds.svg	38	no	44	0	630
6.6.1	win	2022-12-29	13:38:37	13:44:37	358339	60c739d1b402ae0d42b37c66	807902584	1	main_z	7	advance_on_keypress_ZEE	20	stimuli_distractor_diamondtriangles.svg	stimuli_distractor_trianglediamonds.svg	38	no	57	0	2397
6.6.1	win	2022-12-29	13:38:37	13:44:42	363393	60c739d1b402ae0d42b37c66	807902584	1	main_z	7	main_z	21	stimuli_distractor_trianglediamonds.svg	stimuli_distractor_diamondtriangles.svg	36	no	0	1	2000
6.6.1	win	2022-12-29	13:38:37	13:44:42	363393	60c739d1b402ae0d42b37c66	807902584	1	main_z	7	advance_on_keypress_ZEE	22	stimuli_distractor_trianglediamonds.svg	stimuli_distractor_diamondtriangles.svg	36	no	57	0	632
6.6.1	win	2022-12-29	13:38:37	13:44:44	365371	60c739d1b402ae0d42b37c66	807902584	1	main_z	7	main_z	23	stimuli_distractor_diamondtriangles.svg	stimuli_target_trianglecircles.svg	29	yes	44	1	694
6.6.1	win	2022-12-29	13:38:37	13:44:44	365371	60c739d1b402ae0d42b37c66	807902584	1	main_z	7	advance_on_keypress_ZEE	24	stimuli_distractor_diamondtriangles.svg	stimuli_target_trianglecircles.svg	29	yes	57	0	987
6.6.1	win	2022-12-29	13:38:37	13:44:48	369010	60c739d1b402ae0d42b37c66	807902584	1	main_z	7	main_z	25	stimuli_distractor_trianglediamonds.svg	stimuli_target_squaretriangles.svg	11	yes	0	0	2000
6.6.1	win	2022-12-29	13:38:37	13:44:48	369010	60c739d1b402ae0d42b37c66	807902584	1	main_z	7	advance_on_keypress_ZEE	26	stimuli_distractor_trianglediamonds.svg	stimuli_target_squaretriangles.svg	11	yes	57	0	520
6.6.1	win	2022-12-29	13:38:37	13:44:51	372176	60c739d1b402ae0d42b37c66	807902584	1	main_z	7	main_z	27	stimuli_distractor_diamondtriangles.svg	stimuli_distractor_diamondtriangles.svg	39	no	0	1	2000
6.6.1	win	2022-12-29	13:38:37	13:44:51	372176	60c739d1b402ae0d42b37c66	807902584	1	main_z	7	advance_on_keypress_ZEE	28	stimuli_distractor_diamondtriangles.svg	stimuli_distractor_diamondtriangles.svg	39	no	57	0	689
6.6.1	win	2022-12-29	13:38:37	13:44:53	374439	60c739d1b402ae0d42b37c66	807902584	1	main_z	7	main_z	29	stimuli_target_circlediamonds.svg	stimuli_distractor_diamondtriangles.svg	6	yes	44	1	930
6.6.1	win	2022-12-29	13:38:37	13:44:53	374439	60c739d1b402ae0d42b37c66	807902584	1	main_z	7	advance_on_keypress_ZEE	30	stimuli_target_circlediamonds.svg	stimuli_distractor_diamondtriangles.svg	6	yes	57	0	1528
6.6.1	win	2022-12-29	13:38:37	13:44:56	377156	60c739d1b402ae0d42b37c66	807902584	1	main_z	7	main_z	31	stimuli_distractor_diamondtriangles.svg	stimuli_target_trianglesquares.svg	30	yes	44	1	530
6.6.1	win	2022-12-29	13:38:37	13:44:56	377156	60c739d1b402ae0d42b37c66	807902584	1	main_z	7	advance_on_keypress_ZEE	32	stimuli_distractor_diamondtriangles.svg	stimuli_target_trianglesquares.svg	30	yes	57	0	970
6.6.1	win	2022-12-29	13:38:37	13:44:58	379290	60c739d1b402ae0d42b37c66	807902584	1	main_z	7	main_z	33	stimuli_distractor_trianglediamonds.svg	stimuli_target_trianglecircles.svg	25	yes	44	1	508
6.6.1	win	2022-12-29	13:38:37	13:44:58	379290	60c739d1b402ae0d42b37c66	807902584	1	main_z	7	advance_on_keypress_ZEE	34	stimuli_distractor_trianglediamonds.svg	stimuli_target_trianglecircles.svg	25	yes	57	0	893
6.6.1	win	2022-12-29	13:38:37	13:45:00	381206	60c739d1b402ae0d42b37c66	807902584	1	main_z	7	main_z	35	stimuli_distractor_trianglediamonds.svg	stimuli_target_diamondcircles.svg	27	yes	44	1	375
6.6.1	win	2022-12-29	13:38:37	13:45:00	381206	60c739d1b402ae0d42b37c66	807902584	1	main_z	7	advance_on_keypress_ZEE	36	stimuli_distractor_trianglediamonds.svg	stimuli_target_diamondcircles.svg	27	yes	57	0	674
6.6.1	win	2022-12-29	13:38:37	13:45:02	383048	60c739d1b402ae0d42b37c66	807902584	1	main_z	7	main_z	37	stimuli_distractor_diamondtriangles.svg	stimuli_target_diamondcircles.svg	31	yes	44	1	523
6.6.1	win	2022-12-29	13:38:37	13:45:02	383048	60c739d1b402ae0d42b37c66	807902584	1	main_z	7	advance_on_keypress_ZEE	38	stimuli_distractor_diamondtriangles.svg	stimuli_target_diamondcircles.svg	31	yes	57	0	1288
6.6.1	win	2022-12-29	13:38:37	13:45:06	386975	60c739d1b402ae0d42b37c66	807902584	1	main_z	7	main_z	39	stimuli_distractor_trianglediamonds.svg	stimuli_target_circletriangles.svg	9	yes	0	0	2000
6.6.1	win	2022-12-29	13:38:37	13:45:06	386975	60c739d1b402ae0d42b37c66	807902584	1	main_z	7	advance_on_keypress_ZEE	40	stimuli_distractor_trianglediamonds.svg	stimuli_target_circletriangles.svg	9	yes	57	0	551
6.6.1	win	2022-12-29	13:38:37	13:45:08	388981	60c739d1b402ae0d42b37c66	807902584	1	main_z	7	main_z	41	stimuli_target_squarediamonds.svg	stimuli_distractor_trianglediamonds.svg	4	yes	44	1	806
6.6.1	win	2022-12-29	13:38:37	13:45:08	388981	60c739d1b402ae0d42b37c66	807902584	1	main_z	7	advance_on_keypress_ZEE	42	stimuli_target_squarediamonds.svg	stimuli_distractor_trianglediamonds.svg	4	yes	57	0	1059
6.6.1	win	2022-12-29	13:38:37	13:45:10	391298	60c739d1b402ae0d42b37c66	807902584	1	main_z	7	main_z	43	stimuli_distractor_trianglediamonds.svg	stimuli_target_trianglesquares.svg	26	yes	44	1	623
6.6.1	win	2022-12-29	13:38:37	13:45:10	391298	60c739d1b402ae0d42b37c66	807902584	1	main_z	7	advance_on_keypress_ZEE	44	stimuli_distractor_trianglediamonds.svg	stimuli_target_trianglesquares.svg	26	yes	57	0	980
6.6.1	win	2022-12-29	13:38:37	13:45:14	394925	60c739d1b402ae0d42b37c66	807902584	1	main_z	7	main_z	45	stimuli_target_diamondcircles.svg	stimuli_distractor_diamondtriangles.svg	23	yes	0	0	2000
6.6.1	win	2022-12-29	13:38:37	13:45:14	394925	60c739d1b402ae0d42b37c66	807902584	1	main_z	7	advance_on_keypress_ZEE	46	stimuli_target_diamondcircles.svg	stimuli_distractor_diamondtriangles.svg	23	yes	57	0	515
6.6.1	win	2022-12-29	13:38:37	13:45:16	396777	60c739d1b402ae0d42b37c66	807902584	1	main_z	7	main_z	47	stimuli_distractor_trianglediamonds.svg	stimuli_target_squarediamonds.svg	12	yes	44	1	686
6.6.1	win	2022-12-29	13:38:37	13:45:16	396777	60c739d1b402ae0d42b37c66	807902584	1	main_z	7	advance_on_keypress_ZEE	48	stimuli_distractor_trianglediamonds.svg	stimuli_target_squarediamonds.svg	12	yes	57	0	1634
6.6.1	win	2022-12-29	13:38:37	13:45:19	399707	60c739d1b402ae0d42b37c66	807902584	1	main_z	7	main_z	49	stimuli_target_squarediamonds.svg	stimuli_distractor_diamondtriangles.svg	8	yes	44	1	649
6.6.1	win	2022-12-29	13:38:37	13:45:19	399707	60c739d1b402ae0d42b37c66	807902584	1	main_z	7	advance_on_keypress_ZEE	50	stimuli_target_squarediamonds.svg	stimuli_distractor_diamondtriangles.svg	8	yes	57	0	824
6.6.1	win	2022-12-29	13:38:37	13:45:22	403174	60c739d1b402ae0d42b37c66	807902584	1	main_z	7	main_z	51	stimuli_distractor_diamondtriangles.svg	stimuli_distractor_trianglediamonds.svg	37	no	0	1	2000
6.6.1	win	2022-12-29	13:38:37	13:45:22	403174	60c739d1b402ae0d42b37c66	807902584	1	main_z	7	advance_on_keypress_ZEE	52	stimuli_distractor_diamondtriangles.svg	stimuli_distractor_trianglediamonds.svg	37	no	57	0	655
6.6.1	win	2022-12-29	13:38:37	13:45:24	405173	60c739d1b402ae0d42b37c66	807902584	1	main_z	7	main_z	53	stimuli_target_diamondsquares.svg	stimuli_distractor_diamondtriangles.svg	24	yes	44	1	699
6.6.1	win	2022-12-29	13:38:37	13:45:24	405173	60c739d1b402ae0d42b37c66	807902584	1	main_z	7	advance_on_keypress_ZEE	54	stimuli_target_diamondsquares.svg	stimuli_distractor_diamondtriangles.svg	24	yes	57	0	2370
6.6.1	win	2022-12-29	13:38:37	13:45:28	408789	60c739d1b402ae0d42b37c66	807902584	1	main_z	7	main_z	55	stimuli_distractor_diamondtriangles.svg	stimuli_target_diamondsquares.svg	32	yes	44	1	599
6.6.1	win	2022-12-29	13:38:37	13:45:28	408789	60c739d1b402ae0d42b37c66	807902584	1	main_z	7	advance_on_keypress_ZEE	56	stimuli_distractor_diamondtriangles.svg	stimuli_target_diamondsquares.svg	32	yes	57	0	632
6.6.1	win	2022-12-29	13:38:37	13:45:30	410896	60c739d1b402ae0d42b37c66	807902584	1	main_z	7	main_z	57	stimuli_target_diamondcircles.svg	stimuli_distractor_trianglediamonds.svg	19	yes	44	1	822
6.6.1	win	2022-12-29	13:38:37	13:45:30	410896	60c739d1b402ae0d42b37c66	807902584	1	main_z	7	advance_on_keypress_ZEE	58	stimuli_target_diamondcircles.svg	stimuli_distractor_trianglediamonds.svg	19	yes	57	0	1019
6.6.1	win	2022-12-29	13:38:37	13:45:32	413083	60c739d1b402ae0d42b37c66	807902584	1	main_z	7	main_z	59	stimuli_distractor_trianglediamonds.svg	stimuli_distractor_diamondtriangles.svg	35	no	44	0	526
6.6.1	win	2022-12-29	13:38:37	13:45:32	413083	60c739d1b402ae0d42b37c66	807902584	1	main_z	7	advance_on_keypress_ZEE	60	stimuli_distractor_trianglediamonds.svg	stimuli_distractor_diamondtriangles.svg	35	no	57	0	982
6.6.1	win	2022-12-29	13:38:37	13:45:36	416707	60c739d1b402ae0d42b37c66	807902584	1	main_z	7	main_z	61	stimuli_distractor_trianglediamonds.svg	stimuli_distractor_trianglediamonds.svg	34	no	0	1	2000
6.6.1	win	2022-12-29	13:38:37	13:45:36	416707	60c739d1b402ae0d42b37c66	807902584	1	main_z	7	advance_on_keypress_ZEE	62	stimuli_distractor_trianglediamonds.svg	stimuli_distractor_trianglediamonds.svg	34	no	57	0	605
6.6.1	win	2022-12-29	13:38:37	13:45:38	418669	60c739d1b402ae0d42b37c66	807902584	1	main_z	7	main_z	63	stimuli_target_diamondsquares.svg	stimuli_distractor_trianglediamonds.svg	20	yes	44	1	712
6.6.1	win	2022-12-29	13:38:37	13:45:38	418669	60c739d1b402ae0d42b37c66	807902584	1	main_z	7	advance_on_keypress_ZEE	64	stimuli_target_diamondsquares.svg	stimuli_distractor_trianglediamonds.svg	20	yes	57	0	638
6.6.1	win	2022-12-29	13:38:37	13:45:40	420678	60c739d1b402ae0d42b37c66	807902584	1	main_z	7	main_z	65	stimuli_distractor_diamondtriangles.svg	stimuli_target_circletriangles.svg	13	yes	44	1	721
6.6.1	win	2022-12-29	13:38:37	13:45:40	420678	60c739d1b402ae0d42b37c66	807902584	1	main_z	7	advance_on_keypress_ZEE	66	stimuli_distractor_diamondtriangles.svg	stimuli_target_circletriangles.svg	13	yes	57	0	717
6.6.1	win	2022-12-29	13:38:37	13:45:42	422555	60c739d1b402ae0d42b37c66	807902584	1	main_z	7	main_z	67	stimuli_target_squaretriangles.svg	stimuli_distractor_trianglediamonds.svg	3	yes	44	1	515
6.6.1	win	2022-12-29	13:38:37	13:45:42	422555	60c739d1b402ae0d42b37c66	807902584	1	main_z	7	advance_on_keypress_ZEE	68	stimuli_target_squaretriangles.svg	stimuli_distractor_trianglediamonds.svg	3	yes	57	0	912
6.6.1	win	2022-12-29	13:38:37	13:45:44	424673	60c739d1b402ae0d42b37c66	807902584	1	main_z	7	main_z	69	stimuli_target_trianglecircles.svg	stimuli_distractor_trianglediamonds.svg	17	yes	44	1	550
6.6.1	win	2022-12-29	13:38:37	13:45:44	424673	60c739d1b402ae0d42b37c66	807902584	1	main_z	7	advance_on_keypress_ZEE	70	stimuli_target_trianglecircles.svg	stimuli_distractor_trianglediamonds.svg	17	yes	57	0	802
6.6.1	win	2022-12-29	13:38:37	13:45:46	426853	60c739d1b402ae0d42b37c66	807902584	1	main_z	7	main_z	71	stimuli_distractor_diamondtriangles.svg	stimuli_target_squaretriangles.svg	15	yes	44	1	730
6.6.1	win	2022-12-29	13:38:37	13:45:46	426853	60c739d1b402ae0d42b37c66	807902584	1	main_z	7	advance_on_keypress_ZEE	72	stimuli_distractor_diamondtriangles.svg	stimuli_target_squaretriangles.svg	15	yes	57	0	717
6.6.1	win	2022-12-29	13:38:37	13:45:48	428817	60c739d1b402ae0d42b37c66	807902584	1	main_z	7	main_z	73	stimuli_target_trianglesquares.svg	stimuli_distractor_trianglediamonds.svg	18	yes	44	1	595
6.6.1	win	2022-12-29	13:38:37	13:45:48	428817	60c739d1b402ae0d42b37c66	807902584	1	main_z	7	advance_on_keypress_ZEE	74	stimuli_target_trianglesquares.svg	stimuli_distractor_trianglediamonds.svg	18	yes	57	0	628
6.6.1	win	2022-12-29	13:38:37	13:45:49	430456	60c739d1b402ae0d42b37c66	807902584	1	main_z	7	main_z	75	stimuli_distractor_diamondtriangles.svg	stimuli_target_squarediamonds.svg	16	yes	44	1	350
6.6.1	win	2022-12-29	13:38:37	13:45:49	430456	60c739d1b402ae0d42b37c66	807902584	1	main_z	7	advance_on_keypress_ZEE	76	stimuli_distractor_diamondtriangles.svg	stimuli_target_squarediamonds.svg	16	yes	57	0	524
6.6.1	win	2022-12-29	13:38:37	13:45:51	432115	60c739d1b402ae0d42b37c66	807902584	1	main_z	7	main_z	77	stimuli_target_squaretriangles.svg	stimuli_distractor_diamondtriangles.svg	7	yes	44	1	491
6.6.1	win	2022-12-29	13:38:37	13:45:51	432115	60c739d1b402ae0d42b37c66	807902584	1	main_z	7	advance_on_keypress_ZEE	78	stimuli_target_squaretriangles.svg	stimuli_distractor_diamondtriangles.svg	7	yes	57	0	712
6.6.1	win	2022-12-29	13:38:37	13:45:54	435473	60c739d1b402ae0d42b37c66	807902584	1	main_z	7	main_z	79	stimuli_distractor_diamondtriangles.svg	stimuli_distractor_diamondtriangles.svg	40	no	0	1	2000
6.6.1	win	2022-12-29	13:38:37	13:45:54	435473	60c739d1b402ae0d42b37c66	807902584	1	main_z	7	advance_on_keypress_ZEE	80	stimuli_distractor_diamondtriangles.svg	stimuli_distractor_diamondtriangles.svg	40	no	57	0	633
6.6.1	win	2022-12-29	13:38:37	13:45:58	438756	60c739d1b402ae0d42b37c66	807902584	1	main_z	7	main_z	81	stimuli_distractor_diamondtriangles.svg	stimuli_distractor_diamondtriangles.svg	40	no	0	1	2000
6.6.1	win	2022-12-29	13:38:37	13:45:58	438756	60c739d1b402ae0d42b37c66	807902584	1	main_z	7	advance_on_keypress_ZEE	82	stimuli_distractor_diamondtriangles.svg	stimuli_distractor_diamondtriangles.svg	40	no	57	0	756
6.6.1	win	2022-12-29	13:38:37	13:46:00	440687	60c739d1b402ae0d42b37c66	807902584	1	main_z	7	main_z	83	stimuli_distractor_trianglediamonds.svg	stimuli_target_circletriangles.svg	9	yes	44	1	530
6.6.1	win	2022-12-29	13:38:37	13:46:00	440687	60c739d1b402ae0d42b37c66	807902584	1	main_z	7	advance_on_keypress_ZEE	84	stimuli_distractor_trianglediamonds.svg	stimuli_target_circletriangles.svg	9	yes	57	0	630
6.6.1	win	2022-12-29	13:38:37	13:46:02	442643	60c739d1b402ae0d42b37c66	807902584	1	main_z	7	main_z	85	stimuli_target_diamondcircles.svg	stimuli_distractor_diamondtriangles.svg	23	yes	44	1	671
6.6.1	win	2022-12-29	13:38:37	13:46:02	442643	60c739d1b402ae0d42b37c66	807902584	1	main_z	7	advance_on_keypress_ZEE	86	stimuli_target_diamondcircles.svg	stimuli_distractor_diamondtriangles.svg	23	yes	57	0	968
6.6.1	win	2022-12-29	13:38:37	13:46:04	444862	60c739d1b402ae0d42b37c66	807902584	1	main_z	7	main_z	87	stimuli_distractor_diamondtriangles.svg	stimuli_target_circletriangles.svg	13	yes	44	1	607
6.6.1	win	2022-12-29	13:38:37	13:46:04	444862	60c739d1b402ae0d42b37c66	807902584	1	main_z	7	advance_on_keypress_ZEE	88	stimuli_distractor_diamondtriangles.svg	stimuli_target_circletriangles.svg	13	yes	57	0	541
6.6.1	win	2022-12-29	13:38:37	13:46:06	446553	60c739d1b402ae0d42b37c66	807902584	1	main_z	7	main_z	89	stimuli_distractor_trianglediamonds.svg	stimuli_target_circlediamonds.svg	10	yes	44	1	511
6.6.1	win	2022-12-29	13:38:37	13:46:06	446553	60c739d1b402ae0d42b37c66	807902584	1	main_z	7	advance_on_keypress_ZEE	90	stimuli_distractor_trianglediamonds.svg	stimuli_target_circlediamonds.svg	10	yes	57	0	607
6.6.1	win	2022-12-29	13:38:37	13:46:07	448319	60c739d1b402ae0d42b37c66	807902584	1	main_z	7	main_z	91	stimuli_distractor_diamondtriangles.svg	stimuli_target_squarediamonds.svg	16	yes	44	1	513
6.6.1	win	2022-12-29	13:38:37	13:46:07	448319	60c739d1b402ae0d42b37c66	807902584	1	main_z	7	advance_on_keypress_ZEE	92	stimuli_distractor_diamondtriangles.svg	stimuli_target_squarediamonds.svg	16	yes	57	0	639
6.6.1	win	2022-12-29	13:38:37	13:46:09	450246	60c739d1b402ae0d42b37c66	807902584	1	main_z	7	main_z	93	stimuli_distractor_diamondtriangles.svg	stimuli_target_squaretriangles.svg	15	yes	44	1	641
6.6.1	win	2022-12-29	13:38:37	13:46:09	450246	60c739d1b402ae0d42b37c66	807902584	1	main_z	7	advance_on_keypress_ZEE	94	stimuli_distractor_diamondtriangles.svg	stimuli_target_squaretriangles.svg	15	yes	57	0	1618
6.6.1	win	2022-12-29	13:38:37	13:46:12	453062	60c739d1b402ae0d42b37c66	807902584	1	main_z	7	main_z	95	stimuli_target_trianglesquares.svg	stimuli_distractor_trianglediamonds.svg	18	yes	44	1	557
6.6.1	win	2022-12-29	13:38:37	13:46:12	453062	60c739d1b402ae0d42b37c66	807902584	1	main_z	7	advance_on_keypress_ZEE	96	stimuli_target_trianglesquares.svg	stimuli_distractor_trianglediamonds.svg	18	yes	57	0	730
6.6.1	win	2022-12-29	13:38:37	13:46:14	454911	60c739d1b402ae0d42b37c66	807902584	1	main_z	7	main_z	97	stimuli_target_diamondsquares.svg	stimuli_distractor_trianglediamonds.svg	20	yes	44	1	472
6.6.1	win	2022-12-29	13:38:37	13:46:14	454911	60c739d1b402ae0d42b37c66	807902584	1	main_z	7	advance_on_keypress_ZEE	98	stimuli_target_diamondsquares.svg	stimuli_distractor_trianglediamonds.svg	20	yes	57	0	837
6.6.1	win	2022-12-29	13:38:37	13:46:17	458388	60c739d1b402ae0d42b37c66	807902584	1	main_z	7	main_z	99	stimuli_distractor_trianglediamonds.svg	stimuli_target_diamondcircles.svg	27	yes	0	0	2000
6.6.1	win	2022-12-29	13:38:37	13:46:17	458388	60c739d1b402ae0d42b37c66	807902584	1	main_z	7	advance_on_keypress_ZEE	100	stimuli_distractor_trianglediamonds.svg	stimuli_target_diamondcircles.svg	27	yes	57	0	790
6.6.1	win	2022-12-29	13:38:37	13:46:19	460284	60c739d1b402ae0d42b37c66	807902584	1	main_z	7	main_z	101	stimuli_target_squarediamonds.svg	stimuli_distractor_trianglediamonds.svg	4	yes	44	1	463
6.6.1	win	2022-12-29	13:38:37	13:46:19	460284	60c739d1b402ae0d42b37c66	807902584	1	main_z	7	advance_on_keypress_ZEE	102	stimuli_target_squarediamonds.svg	stimuli_distractor_trianglediamonds.svg	4	yes	57	0	3036
6.6.1	win	2022-12-29	13:38:37	13:46:24	464509	60c739d1b402ae0d42b37c66	807902584	1	main_z	7	main_z	103	stimuli_target_squaretriangles.svg	stimuli_distractor_trianglediamonds.svg	3	yes	44	1	538
6.6.1	win	2022-12-29	13:38:37	13:46:24	464509	60c739d1b402ae0d42b37c66	807902584	1	main_z	7	advance_on_keypress_ZEE	104	stimuli_target_squaretriangles.svg	stimuli_distractor_trianglediamonds.svg	3	yes	57	0	1007
6.6.1	win	2022-12-29	13:38:37	13:46:27	468154	60c739d1b402ae0d42b37c66	807902584	1	main_z	7	main_z	105	stimuli_distractor_diamondtriangles.svg	stimuli_distractor_diamondtriangles.svg	39	no	0	1	2000
6.6.1	win	2022-12-29	13:38:37	13:46:27	468154	60c739d1b402ae0d42b37c66	807902584	1	main_z	7	advance_on_keypress_ZEE	106	stimuli_distractor_diamondtriangles.svg	stimuli_distractor_diamondtriangles.svg	39	no	57	0	833
6.6.1	win	2022-12-29	13:38:37	13:46:29	470113	60c739d1b402ae0d42b37c66	807902584	1	main_z	7	main_z	107	stimuli_target_circlediamonds.svg	stimuli_distractor_diamondtriangles.svg	6	yes	44	1	476
6.6.1	win	2022-12-29	13:38:37	13:46:29	470113	60c739d1b402ae0d42b37c66	807902584	1	main_z	7	advance_on_keypress_ZEE	108	stimuli_target_circlediamonds.svg	stimuli_distractor_diamondtriangles.svg	6	yes	57	0	891
6.6.1	win	2022-12-29	13:38:37	13:46:33	473638	60c739d1b402ae0d42b37c66	807902584	1	main_z	7	main_z	109	stimuli_distractor_diamondtriangles.svg	stimuli_distractor_trianglediamonds.svg	37	no	0	1	2000
6.6.1	win	2022-12-29	13:38:37	13:46:33	473638	60c739d1b402ae0d42b37c66	807902584	1	main_z	7	advance_on_keypress_ZEE	110	stimuli_distractor_diamondtriangles.svg	stimuli_distractor_trianglediamonds.svg	37	no	57	0	603
6.6.1	win	2022-12-29	13:38:37	13:46:34	475487	60c739d1b402ae0d42b37c66	807902584	1	main_z	7	main_z	111	stimuli_target_trianglecircles.svg	stimuli_distractor_diamondtriangles.svg	21	yes	44	1	600
6.6.1	win	2022-12-29	13:38:37	13:46:34	475487	60c739d1b402ae0d42b37c66	807902584	1	main_z	7	advance_on_keypress_ZEE	112	stimuli_target_trianglecircles.svg	stimuli_distractor_diamondtriangles.svg	21	yes	57	0	812
6.6.1	win	2022-12-29	13:38:37	13:46:37	477567	60c739d1b402ae0d42b37c66	807902584	1	main_z	7	main_z	113	stimuli_distractor_diamondtriangles.svg	stimuli_target_diamondsquares.svg	32	yes	44	1	613
6.6.1	win	2022-12-29	13:38:37	13:46:37	477567	60c739d1b402ae0d42b37c66	807902584	1	main_z	7	advance_on_keypress_ZEE	114	stimuli_distractor_diamondtriangles.svg	stimuli_target_diamondsquares.svg	32	yes	57	0	2364
6.6.1	win	2022-12-29	13:38:37	13:46:40	481081	60c739d1b402ae0d42b37c66	807902584	1	main_z	7	main_z	115	stimuli_target_circlediamonds.svg	stimuli_distractor_trianglediamonds.svg	2	yes	44	1	494
6.6.1	win	2022-12-29	13:38:37	13:46:40	481081	60c739d1b402ae0d42b37c66	807902584	1	main_z	7	advance_on_keypress_ZEE	116	stimuli_target_circlediamonds.svg	stimuli_distractor_trianglediamonds.svg	2	yes	57	0	717
6.6.1	win	2022-12-29	13:38:37	13:46:42	483169	60c739d1b402ae0d42b37c66	807902584	1	main_z	7	main_z	117	stimuli_distractor_trianglediamonds.svg	stimuli_target_squarediamonds.svg	12	yes	44	1	715
6.6.1	win	2022-12-29	13:38:37	13:46:42	483169	60c739d1b402ae0d42b37c66	807902584	1	main_z	7	advance_on_keypress_ZEE	118	stimuli_distractor_trianglediamonds.svg	stimuli_target_squarediamonds.svg	12	yes	57	0	1801
6.6.1	win	2022-12-29	13:38:37	13:46:45	486164	60c739d1b402ae0d42b37c66	807902584	1	main_z	7	main_z	119	stimuli_distractor_trianglediamonds.svg	stimuli_target_trianglecircles.svg	25	yes	44	1	544
6.6.1	win	2022-12-29	13:38:37	13:46:45	486164	60c739d1b402ae0d42b37c66	807902584	1	main_z	7	advance_on_keypress_ZEE	120	stimuli_distractor_trianglediamonds.svg	stimuli_target_trianglecircles.svg	25	yes	57	0	1018
6.6.1	win	2022-12-29	13:38:37	13:46:48	488532	60c739d1b402ae0d42b37c66	807902584	1	main_z	7	main_z	121	stimuli_target_squaretriangles.svg	stimuli_distractor_diamondtriangles.svg	7	yes	44	1	696
6.6.1	win	2022-12-29	13:38:37	13:46:48	488532	60c739d1b402ae0d42b37c66	807902584	1	main_z	7	advance_on_keypress_ZEE	122	stimuli_target_squaretriangles.svg	stimuli_distractor_diamondtriangles.svg	7	yes	57	0	738
6.6.1	win	2022-12-29	13:38:37	13:46:49	490509	60c739d1b402ae0d42b37c66	807902584	1	main_z	7	main_z	123	stimuli_target_trianglesquares.svg	stimuli_distractor_diamondtriangles.svg	22	yes	44	1	587
6.6.1	win	2022-12-29	13:38:37	13:46:49	490509	60c739d1b402ae0d42b37c66	807902584	1	main_z	7	advance_on_keypress_ZEE	124	stimuli_target_trianglesquares.svg	stimuli_distractor_diamondtriangles.svg	22	yes	57	0	630
6.6.1	win	2022-12-29	13:38:37	13:46:51	492498	60c739d1b402ae0d42b37c66	807902584	1	main_z	7	main_z	125	stimuli_distractor_diamondtriangles.svg	stimuli_target_circlediamonds.svg	14	yes	44	1	712
6.6.1	win	2022-12-29	13:38:37	13:46:51	492498	60c739d1b402ae0d42b37c66	807902584	1	main_z	7	advance_on_keypress_ZEE	126	stimuli_distractor_diamondtriangles.svg	stimuli_target_circlediamonds.svg	14	yes	57	0	498
6.6.1	win	2022-12-29	13:38:37	13:46:55	495653	60c739d1b402ae0d42b37c66	807902584	1	main_z	7	main_z	127	stimuli_distractor_trianglediamonds.svg	stimuli_distractor_diamondtriangles.svg	35	no	0	1	2000
6.6.1	win	2022-12-29	13:38:37	13:46:55	495653	60c739d1b402ae0d42b37c66	807902584	1	main_z	7	advance_on_keypress_ZEE	128	stimuli_distractor_trianglediamonds.svg	stimuli_distractor_diamondtriangles.svg	35	no	57	0	1023
6.6.1	win	2022-12-29	13:38:37	13:46:57	497833	60c739d1b402ae0d42b37c66	807902584	1	main_z	7	main_z	129	stimuli_target_squarediamonds.svg	stimuli_distractor_diamondtriangles.svg	8	yes	44	1	513
6.6.1	win	2022-12-29	13:38:37	13:46:57	497833	60c739d1b402ae0d42b37c66	807902584	1	main_z	7	advance_on_keypress_ZEE	130	stimuli_target_squarediamonds.svg	stimuli_distractor_diamondtriangles.svg	8	yes	57	0	2130
6.6.1	win	2022-12-29	13:38:37	13:47:00	501257	60c739d1b402ae0d42b37c66	807902584	1	main_z	7	main_z	131	stimuli_distractor_diamondtriangles.svg	stimuli_target_trianglecircles.svg	29	yes	44	1	638
6.6.1	win	2022-12-29	13:38:37	13:47:00	501257	60c739d1b402ae0d42b37c66	807902584	1	main_z	7	advance_on_keypress_ZEE	132	stimuli_distractor_diamondtriangles.svg	stimuli_target_trianglecircles.svg	29	yes	57	0	1189
6.6.1	win	2022-12-29	13:38:37	13:47:03	503704	60c739d1b402ae0d42b37c66	807902584	1	main_z	7	main_z	133	stimuli_distractor_diamondtriangles.svg	stimuli_target_diamondcircles.svg	31	yes	44	1	619
6.6.1	win	2022-12-29	13:38:37	13:47:03	503704	60c739d1b402ae0d42b37c66	807902584	1	main_z	7	advance_on_keypress_ZEE	134	stimuli_distractor_diamondtriangles.svg	stimuli_target_diamondcircles.svg	31	yes	57	0	1004
6.6.1	win	2022-12-29	13:38:37	13:47:05	506133	60c739d1b402ae0d42b37c66	807902584	1	main_z	7	main_z	135	stimuli_target_diamondsquares.svg	stimuli_distractor_diamondtriangles.svg	24	yes	44	1	780
6.6.1	win	2022-12-29	13:38:37	13:47:05	506133	60c739d1b402ae0d42b37c66	807902584	1	main_z	7	advance_on_keypress_ZEE	136	stimuli_target_diamondsquares.svg	stimuli_distractor_diamondtriangles.svg	24	yes	57	0	1118
6.6.1	win	2022-12-29	13:38:37	13:47:07	508259	60c739d1b402ae0d42b37c66	807902584	1	main_z	7	main_z	137	stimuli_distractor_trianglediamonds.svg	stimuli_target_squaretriangles.svg	11	yes	44	1	357
6.6.1	win	2022-12-29	13:38:37	13:47:07	508259	60c739d1b402ae0d42b37c66	807902584	1	main_z	7	advance_on_keypress_ZEE	138	stimuli_distractor_trianglediamonds.svg	stimuli_target_squaretriangles.svg	11	yes	57	0	671
6.6.1	win	2022-12-29	13:38:37	13:47:09	509988	60c739d1b402ae0d42b37c66	807902584	1	main_z	7	main_z	139	stimuli_distractor_diamondtriangles.svg	stimuli_target_trianglesquares.svg	30	yes	44	1	419
6.6.1	win	2022-12-29	13:38:37	13:47:09	509988	60c739d1b402ae0d42b37c66	807902584	1	main_z	7	advance_on_keypress_ZEE	140	stimuli_distractor_diamondtriangles.svg	stimuli_target_trianglesquares.svg	30	yes	57	0	565
6.6.1	win	2022-12-29	13:38:37	13:47:11	511526	60c739d1b402ae0d42b37c66	807902584	1	main_z	7	main_z	141	stimuli_distractor_trianglediamonds.svg	stimuli_distractor_trianglediamonds.svg	34	no	44	0	324
6.6.1	win	2022-12-29	13:38:37	13:47:11	511526	60c739d1b402ae0d42b37c66	807902584	1	main_z	7	advance_on_keypress_ZEE	142	stimuli_distractor_trianglediamonds.svg	stimuli_distractor_trianglediamonds.svg	34	no	57	0	910
6.6.1	win	2022-12-29	13:38:37	13:47:12	513394	60c739d1b402ae0d42b37c66	807902584	1	main_z	7	main_z	143	stimuli_target_diamondcircles.svg	stimuli_distractor_trianglediamonds.svg	19	yes	44	1	326
6.6.1	win	2022-12-29	13:38:37	13:47:12	513394	60c739d1b402ae0d42b37c66	807902584	1	main_z	7	advance_on_keypress_ZEE	144	stimuli_target_diamondcircles.svg	stimuli_distractor_trianglediamonds.svg	19	yes	57	0	911
6.6.1	win	2022-12-29	13:38:37	13:47:14	515232	60c739d1b402ae0d42b37c66	807902584	1	main_z	7	main_z	145	stimuli_distractor_trianglediamonds.svg	stimuli_target_diamondsquares.svg	28	yes	44	1	281
6.6.1	win	2022-12-29	13:38:37	13:47:14	515232	60c739d1b402ae0d42b37c66	807902584	1	main_z	7	advance_on_keypress_ZEE	146	stimuli_distractor_trianglediamonds.svg	stimuli_target_diamondsquares.svg	28	yes	57	0	740
6.6.1	win	2022-12-29	13:38:37	13:47:18	518618	60c739d1b402ae0d42b37c66	807902584	1	main_z	7	main_z	147	stimuli_distractor_trianglediamonds.svg	stimuli_distractor_diamondtriangles.svg	36	no	0	1	2000
6.6.1	win	2022-12-29	13:38:37	13:47:18	518618	60c739d1b402ae0d42b37c66	807902584	1	main_z	7	advance_on_keypress_ZEE	148	stimuli_distractor_trianglediamonds.svg	stimuli_distractor_diamondtriangles.svg	36	no	57	0	513
6.6.1	win	2022-12-29	13:38:37	13:47:19	520426	60c739d1b402ae0d42b37c66	807902584	1	main_z	7	main_z	149	stimuli_distractor_trianglediamonds.svg	stimuli_target_trianglesquares.svg	26	yes	44	1	642
6.6.1	win	2022-12-29	13:38:37	13:47:19	520426	60c739d1b402ae0d42b37c66	807902584	1	main_z	7	advance_on_keypress_ZEE	150	stimuli_distractor_trianglediamonds.svg	stimuli_target_trianglesquares.svg	26	yes	57	0	821
6.6.1	win	2022-12-29	13:38:37	13:47:21	522455	60c739d1b402ae0d42b37c66	807902584	1	main_z	7	main_z	151	stimuli_target_circletriangles.svg	stimuli_distractor_diamondtriangles.svg	5	yes	44	1	571
6.6.1	win	2022-12-29	13:38:37	13:47:21	522455	60c739d1b402ae0d42b37c66	807902584	1	main_z	7	advance_on_keypress_ZEE	152	stimuli_target_circletriangles.svg	stimuli_distractor_diamondtriangles.svg	5	yes	57	0	627
6.6.1	win	2022-12-29	13:38:37	13:47:24	525112	60c739d1b402ae0d42b37c66	807902584	1	main_z	7	main_z	153	stimuli_distractor_diamondtriangles.svg	stimuli_distractor_trianglediamonds.svg	38	no	44	0	1394
6.6.1	win	2022-12-29	13:38:37	13:47:24	525112	60c739d1b402ae0d42b37c66	807902584	1	main_z	7	advance_on_keypress_ZEE	154	stimuli_distractor_diamondtriangles.svg	stimuli_distractor_trianglediamonds.svg	38	no	57	0	827
6.6.1	win	2022-12-29	13:38:37	13:47:26	527449	60c739d1b402ae0d42b37c66	807902584	1	main_z	7	main_z	155	stimuli_target_trianglecircles.svg	stimuli_distractor_trianglediamonds.svg	17	yes	44	1	865
6.6.1	win	2022-12-29	13:38:37	13:47:26	527449	60c739d1b402ae0d42b37c66	807902584	1	main_z	7	advance_on_keypress_ZEE	156	stimuli_target_trianglecircles.svg	stimuli_distractor_trianglediamonds.svg	17	yes	57	0	604
6.6.1	win	2022-12-29	13:38:37	13:47:30	530700	60c739d1b402ae0d42b37c66	807902584	1	main_z	7	main_z	157	stimuli_distractor_trianglediamonds.svg	stimuli_distractor_trianglediamonds.svg	33	no	0	1	2000
6.6.1	win	2022-12-29	13:38:37	13:47:30	530700	60c739d1b402ae0d42b37c66	807902584	1	main_z	7	advance_on_keypress_ZEE	158	stimuli_distractor_trianglediamonds.svg	stimuli_distractor_trianglediamonds.svg	33	no	57	0	459
6.6.1	win	2022-12-29	13:38:37	13:47:31	532334	60c739d1b402ae0d42b37c66	807902584	1	main_z	7	main_z	159	stimuli_target_circletriangles.svg	stimuli_distractor_trianglediamonds.svg	1	yes	44	1	534
6.6.1	win	2022-12-29	13:38:37	13:47:31	532334	60c739d1b402ae0d42b37c66	807902584	1	main_z	7	advance_on_keypress_ZEE	160	stimuli_target_circletriangles.svg	stimuli_distractor_trianglediamonds.svg	1	yes	57	0	2642
6.6.1	win	2022-12-29	13:38:37	13:48:11	572282	60c739d1b402ae0d42b37c66	807902584	1	practice_slash	9	practice_slash	1	stimuli_distractor_trianglediamonds.svg	stimuli_target_squarediamonds.svg	11	yes	53	1	564
6.6.1	win	2022-12-29	13:38:37	13:48:11	572282	60c739d1b402ae0d42b37c66	807902584	1	practice_slash	9	advance_on_keypress_SLASH	2	stimuli_distractor_trianglediamonds.svg	stimuli_target_squarediamonds.svg	11	yes	57	0	542
6.6.1	win	2022-12-29	13:38:37	13:48:14	574819	60c739d1b402ae0d42b37c66	807902584	1	practice_slash	9	practice_slash	3	stimuli_target_diamondsquares.svg	stimuli_distractor_diamondtriangles.svg	3	yes	53	1	352
6.6.1	win	2022-12-29	13:38:37	13:48:14	574819	60c739d1b402ae0d42b37c66	807902584	1	practice_slash	9	advance_on_keypress_SLASH	4	stimuli_target_diamondsquares.svg	stimuli_distractor_diamondtriangles.svg	3	yes	57	0	505
6.6.1	win	2022-12-29	13:38:37	13:48:16	577197	60c739d1b402ae0d42b37c66	807902584	1	practice_slash	9	practice_slash	5	stimuli_distractor_diamondtriangles.svg	stimuli_target_circletriangles.svg	7	yes	53	1	229
6.6.1	win	2022-12-29	13:38:37	13:48:16	577197	60c739d1b402ae0d42b37c66	807902584	1	practice_slash	9	advance_on_keypress_SLASH	6	stimuli_distractor_diamondtriangles.svg	stimuli_target_circletriangles.svg	7	yes	57	0	89
6.6.1	win	2022-12-29	13:38:37	13:48:18	578975	60c739d1b402ae0d42b37c66	807902584	1	practice_slash	9	practice_slash	7	stimuli_distractor_trianglediamonds.svg	stimuli_distractor_trianglediamonds.svg	15	no	53	0	43
6.6.1	win	2022-12-29	13:38:37	13:48:18	578975	60c739d1b402ae0d42b37c66	807902584	1	practice_slash	9	advance_on_keypress_SLASH	8	stimuli_distractor_trianglediamonds.svg	stimuli_distractor_trianglediamonds.svg	15	no	57	0	660
6.6.1	win	2022-12-29	13:38:37	13:48:21	581553	60c739d1b402ae0d42b37c66	807902584	1	practice_slash	9	practice_slash	9	stimuli_distractor_trianglediamonds.svg	stimuli_target_diamondcircles.svg	12	yes	53	1	271
6.6.1	win	2022-12-29	13:38:37	13:48:21	581553	60c739d1b402ae0d42b37c66	807902584	1	practice_slash	9	advance_on_keypress_SLASH	10	stimuli_distractor_trianglediamonds.svg	stimuli_target_diamondcircles.svg	12	yes	57	0	306
6.6.1	win	2022-12-29	13:38:37	13:48:23	584031	60c739d1b402ae0d42b37c66	807902584	1	practice_slash	9	practice_slash	11	stimuli_target_squarediamonds.svg	stimuli_distractor_diamondtriangles.svg	2	yes	53	1	531
6.6.1	win	2022-12-29	13:38:37	13:48:23	584031	60c739d1b402ae0d42b37c66	807902584	1	practice_slash	9	advance_on_keypress_SLASH	12	stimuli_target_squarediamonds.svg	stimuli_distractor_diamondtriangles.svg	2	yes	57	0	270
6.6.1	win	2022-12-29	13:38:37	13:48:25	586278	60c739d1b402ae0d42b37c66	807902584	1	practice_slash	9	practice_slash	13	stimuli_distractor_trianglediamonds.svg	stimuli_target_circlediamonds.svg	10	yes	53	1	329
6.6.1	win	2022-12-29	13:38:37	13:48:25	586278	60c739d1b402ae0d42b37c66	807902584	1	practice_slash	9	advance_on_keypress_SLASH	14	stimuli_distractor_trianglediamonds.svg	stimuli_target_circlediamonds.svg	10	yes	57	0	497
6.6.1	win	2022-12-29	13:38:37	13:48:28	588791	60c739d1b402ae0d42b37c66	807902584	1	practice_slash	9	practice_slash	15	stimuli_distractor_diamondtriangles.svg	stimuli_target_trianglecircles.svg	9	yes	53	1	358
6.6.1	win	2022-12-29	13:38:37	13:48:28	588791	60c739d1b402ae0d42b37c66	807902584	1	practice_slash	9	advance_on_keypress_SLASH	16	stimuli_distractor_diamondtriangles.svg	stimuli_target_trianglecircles.svg	9	yes	57	0	586
6.6.1	win	2022-12-29	13:38:37	13:48:30	591024	60c739d1b402ae0d42b37c66	807902584	1	practice_slash	9	practice_slash	17	stimuli_target_circlediamonds.svg	stimuli_distractor_diamondtriangles.svg	1	yes	53	1	8
6.6.1	win	2022-12-29	13:38:37	13:48:30	591024	60c739d1b402ae0d42b37c66	807902584	1	practice_slash	9	advance_on_keypress_SLASH	18	stimuli_target_circlediamonds.svg	stimuli_distractor_diamondtriangles.svg	1	yes	57	0	399
6.6.1	win	2022-12-29	13:38:37	13:48:33	593671	60c739d1b402ae0d42b37c66	807902584	1	practice_slash	9	practice_slash	19	stimuli_distractor_trianglediamonds.svg	stimuli_distractor_diamondtriangles.svg	16	no	53	0	605
6.6.1	win	2022-12-29	13:38:37	13:48:33	593671	60c739d1b402ae0d42b37c66	807902584	1	practice_slash	9	advance_on_keypress_SLASH	20	stimuli_distractor_trianglediamonds.svg	stimuli_distractor_diamondtriangles.svg	16	no	57	0	498
6.6.1	win	2022-12-29	13:38:37	13:48:35	596179	60c739d1b402ae0d42b37c66	807902584	1	practice_slash	9	practice_slash	21	stimuli_target_diamondsquares.svg	stimuli_distractor_trianglediamonds.svg	6	yes	53	1	362
6.6.1	win	2022-12-29	13:38:37	13:48:35	596179	60c739d1b402ae0d42b37c66	807902584	1	practice_slash	9	advance_on_keypress_SLASH	22	stimuli_target_diamondsquares.svg	stimuli_distractor_trianglediamonds.svg	6	yes	57	0	729
6.6.1	win	2022-12-29	13:38:37	13:48:38	599085	60c739d1b402ae0d42b37c66	807902584	1	practice_slash	9	practice_slash	23	stimuli_distractor_diamondtriangles.svg	stimuli_distractor_diamondtriangles.svg	13	no	53	0	520
6.6.1	win	2022-12-29	13:38:37	13:48:38	599085	60c739d1b402ae0d42b37c66	807902584	1	practice_slash	9	advance_on_keypress_SLASH	24	stimuli_distractor_diamondtriangles.svg	stimuli_distractor_diamondtriangles.svg	13	no	57	0	696
6.6.1	win	2022-12-29	13:38:37	13:48:41	602074	60c739d1b402ae0d42b37c66	807902584	1	practice_slash	9	practice_slash	25	stimuli_distractor_diamondtriangles.svg	stimuli_target_diamondcircles.svg	8	yes	53	1	642
6.6.1	win	2022-12-29	13:38:37	13:48:41	602074	60c739d1b402ae0d42b37c66	807902584	1	practice_slash	9	advance_on_keypress_SLASH	26	stimuli_distractor_diamondtriangles.svg	stimuli_target_diamondcircles.svg	8	yes	57	0	1160
6.6.1	win	2022-12-29	13:38:37	13:48:44	605396	60c739d1b402ae0d42b37c66	807902584	1	practice_slash	9	practice_slash	27	stimuli_target_squarediamonds.svg	stimuli_distractor_trianglediamonds.svg	5	yes	53	1	510
6.6.1	win	2022-12-29	13:38:37	13:48:44	605396	60c739d1b402ae0d42b37c66	807902584	1	practice_slash	9	advance_on_keypress_SLASH	28	stimuli_target_squarediamonds.svg	stimuli_distractor_trianglediamonds.svg	5	yes	57	0	594
6.6.1	win	2022-12-29	13:38:37	13:48:47	608147	60c739d1b402ae0d42b37c66	807902584	1	practice_slash	9	practice_slash	29	stimuli_target_circlediamonds.svg	stimuli_distractor_trianglediamonds.svg	4	yes	53	1	499
6.6.1	win	2022-12-29	13:38:37	13:48:47	608147	60c739d1b402ae0d42b37c66	807902584	1	practice_slash	9	advance_on_keypress_SLASH	30	stimuli_target_circlediamonds.svg	stimuli_distractor_trianglediamonds.svg	4	yes	57	0	541
6.6.1	win	2022-12-29	13:38:37	13:48:50	610986	60c739d1b402ae0d42b37c66	807902584	1	practice_slash	9	practice_slash	31	stimuli_distractor_diamondtriangles.svg	stimuli_distractor_trianglediamonds.svg	14	no	53	0	654
6.6.1	win	2022-12-29	13:38:37	13:48:50	610986	60c739d1b402ae0d42b37c66	807902584	1	practice_slash	9	advance_on_keypress_SLASH	32	stimuli_distractor_diamondtriangles.svg	stimuli_distractor_trianglediamonds.svg	14	no	57	0	526
6.6.1	win	2022-12-29	13:38:37	13:49:05	626318	60c739d1b402ae0d42b37c66	807902584	1	main_slash	11	main_slash	1	stimuli_distractor_diamondtriangles.svg	stimuli_target_diamondcircles.svg	31	yes	53	1	1057
6.6.1	win	2022-12-29	13:38:37	13:49:05	626318	60c739d1b402ae0d42b37c66	807902584	1	main_slash	11	advance_on_keypress_SLASH	2	stimuli_distractor_diamondtriangles.svg	stimuli_target_diamondcircles.svg	31	yes	57	0	656
6.6.1	win	2022-12-29	13:38:37	13:49:09	629612	60c739d1b402ae0d42b37c66	807902584	1	main_slash	11	main_slash	3	stimuli_distractor_trianglediamonds.svg	stimuli_distractor_trianglediamonds.svg	33	no	0	1	2000
6.6.1	win	2022-12-29	13:38:37	13:49:09	629612	60c739d1b402ae0d42b37c66	807902584	1	main_slash	11	advance_on_keypress_SLASH	4	stimuli_distractor_trianglediamonds.svg	stimuli_distractor_trianglediamonds.svg	33	no	57	0	602
6.6.1	win	2022-12-29	13:38:37	13:49:11	631548	60c739d1b402ae0d42b37c66	807902584	1	main_slash	11	main_slash	5	stimuli_target_trianglecircles.svg	stimuli_distractor_trianglediamonds.svg	17	yes	53	1	686
6.6.1	win	2022-12-29	13:38:37	13:49:11	631548	60c739d1b402ae0d42b37c66	807902584	1	main_slash	11	advance_on_keypress_SLASH	6	stimuli_target_trianglecircles.svg	stimuli_distractor_trianglediamonds.svg	17	yes	57	0	756
6.6.1	win	2022-12-29	13:38:37	13:49:12	633496	60c739d1b402ae0d42b37c66	807902584	1	main_slash	11	main_slash	7	stimuli_distractor_trianglediamonds.svg	stimuli_target_circletriangles.svg	9	yes	53	1	552
6.6.1	win	2022-12-29	13:38:37	13:49:12	633496	60c739d1b402ae0d42b37c66	807902584	1	main_slash	11	advance_on_keypress_SLASH	8	stimuli_distractor_trianglediamonds.svg	stimuli_target_circletriangles.svg	9	yes	57	0	596
6.6.1	win	2022-12-29	13:38:37	13:49:14	635285	60c739d1b402ae0d42b37c66	807902584	1	main_slash	11	main_slash	9	stimuli_target_squaretriangles.svg	stimuli_distractor_trianglediamonds.svg	3	yes	53	1	540
6.6.1	win	2022-12-29	13:38:37	13:49:14	635285	60c739d1b402ae0d42b37c66	807902584	1	main_slash	11	advance_on_keypress_SLASH	10	stimuli_target_squaretriangles.svg	stimuli_distractor_trianglediamonds.svg	3	yes	57	0	600
6.6.1	win	2022-12-29	13:38:37	13:49:16	636894	60c739d1b402ae0d42b37c66	807902584	1	main_slash	11	main_slash	11	stimuli_distractor_trianglediamonds.svg	stimuli_target_squaretriangles.svg	11	yes	53	1	366
6.6.1	win	2022-12-29	13:38:37	13:49:16	636894	60c739d1b402ae0d42b37c66	807902584	1	main_slash	11	advance_on_keypress_SLASH	12	stimuli_distractor_trianglediamonds.svg	stimuli_target_squaretriangles.svg	11	yes	57	0	882
6.6.1	win	2022-12-29	13:38:37	13:49:18	639292	60c739d1b402ae0d42b37c66	807902584	1	main_slash	11	main_slash	13	stimuli_distractor_trianglediamonds.svg	stimuli_target_squarediamonds.svg	12	yes	53	1	864
6.6.1	win	2022-12-29	13:38:37	13:49:18	639292	60c739d1b402ae0d42b37c66	807902584	1	main_slash	11	advance_on_keypress_SLASH	14	stimuli_distractor_trianglediamonds.svg	stimuli_target_squarediamonds.svg	12	yes	57	0	481
6.6.1	win	2022-12-29	13:38:37	13:49:20	640910	60c739d1b402ae0d42b37c66	807902584	1	main_slash	11	main_slash	15	stimuli_target_circletriangles.svg	stimuli_distractor_diamondtriangles.svg	5	yes	53	1	482
6.6.1	win	2022-12-29	13:38:37	13:49:20	640910	60c739d1b402ae0d42b37c66	807902584	1	main_slash	11	advance_on_keypress_SLASH	16	stimuli_target_circletriangles.svg	stimuli_distractor_diamondtriangles.svg	5	yes	57	0	562
6.6.1	win	2022-12-29	13:38:37	13:49:22	642579	60c739d1b402ae0d42b37c66	807902584	1	main_slash	11	main_slash	17	stimuli_target_circlediamonds.svg	stimuli_distractor_diamondtriangles.svg	6	yes	53	1	451
6.6.1	win	2022-12-29	13:38:37	13:49:22	642579	60c739d1b402ae0d42b37c66	807902584	1	main_slash	11	advance_on_keypress_SLASH	18	stimuli_target_circlediamonds.svg	stimuli_distractor_diamondtriangles.svg	6	yes	57	0	784
6.6.1	win	2022-12-29	13:38:37	13:49:23	644397	60c739d1b402ae0d42b37c66	807902584	1	main_slash	11	main_slash	19	stimuli_target_trianglesquares.svg	stimuli_distractor_trianglediamonds.svg	18	yes	53	1	387
6.6.1	win	2022-12-29	13:38:37	13:49:23	644397	60c739d1b402ae0d42b37c66	807902584	1	main_slash	11	advance_on_keypress_SLASH	20	stimuli_target_trianglesquares.svg	stimuli_distractor_trianglediamonds.svg	18	yes	57	0	1166
6.6.1	win	2022-12-29	13:38:37	13:49:27	648211	60c739d1b402ae0d42b37c66	807902584	1	main_slash	11	main_slash	21	stimuli_target_diamondsquares.svg	stimuli_distractor_diamondtriangles.svg	24	yes	0	0	2000
6.6.1	win	2022-12-29	13:38:37	13:49:27	648211	60c739d1b402ae0d42b37c66	807902584	1	main_slash	11	advance_on_keypress_SLASH	22	stimuli_target_diamondsquares.svg	stimuli_distractor_diamondtriangles.svg	24	yes	57	0	417
6.6.1	win	2022-12-29	13:38:37	13:49:29	649772	60c739d1b402ae0d42b37c66	807902584	1	main_slash	11	main_slash	23	stimuli_distractor_trianglediamonds.svg	stimuli_target_circlediamonds.svg	10	yes	53	1	495
6.6.1	win	2022-12-29	13:38:37	13:49:29	649772	60c739d1b402ae0d42b37c66	807902584	1	main_slash	11	advance_on_keypress_SLASH	24	stimuli_distractor_trianglediamonds.svg	stimuli_target_circlediamonds.svg	10	yes	57	0	1397
6.6.1	win	2022-12-29	13:38:37	13:49:33	653827	60c739d1b402ae0d42b37c66	807902584	1	main_slash	11	main_slash	25	stimuli_distractor_diamondtriangles.svg	stimuli_distractor_trianglediamonds.svg	38	no	0	1	2000
6.6.1	win	2022-12-29	13:38:37	13:49:33	653827	60c739d1b402ae0d42b37c66	807902584	1	main_slash	11	advance_on_keypress_SLASH	26	stimuli_distractor_diamondtriangles.svg	stimuli_distractor_trianglediamonds.svg	38	no	57	0	474
6.6.1	win	2022-12-29	13:38:37	13:49:35	655567	60c739d1b402ae0d42b37c66	807902584	1	main_slash	11	main_slash	27	stimuli_distractor_diamondtriangles.svg	stimuli_target_squaretriangles.svg	15	yes	53	1	624
6.6.1	win	2022-12-29	13:38:37	13:49:35	655567	60c739d1b402ae0d42b37c66	807902584	1	main_slash	11	advance_on_keypress_SLASH	28	stimuli_distractor_diamondtriangles.svg	stimuli_target_squaretriangles.svg	15	yes	57	0	710
6.6.1	win	2022-12-29	13:38:37	13:49:38	658910	60c739d1b402ae0d42b37c66	807902584	1	main_slash	11	main_slash	29	stimuli_distractor_trianglediamonds.svg	stimuli_target_diamondcircles.svg	27	yes	0	0	2000
6.6.1	win	2022-12-29	13:38:37	13:49:38	658910	60c739d1b402ae0d42b37c66	807902584	1	main_slash	11	advance_on_keypress_SLASH	30	stimuli_distractor_trianglediamonds.svg	stimuli_target_diamondcircles.svg	27	yes	57	0	666
6.6.1	win	2022-12-29	13:38:37	13:49:40	660563	60c739d1b402ae0d42b37c66	807902584	1	main_slash	11	main_slash	31	stimuli_target_squarediamonds.svg	stimuli_distractor_diamondtriangles.svg	8	yes	53	1	336
6.6.1	win	2022-12-29	13:38:37	13:49:40	660563	60c739d1b402ae0d42b37c66	807902584	1	main_slash	11	advance_on_keypress_SLASH	32	stimuli_target_squarediamonds.svg	stimuli_distractor_diamondtriangles.svg	8	yes	57	0	605
6.6.1	win	2022-12-29	13:38:37	13:49:43	663810	60c739d1b402ae0d42b37c66	807902584	1	main_slash	11	main_slash	33	stimuli_target_diamondsquares.svg	stimuli_distractor_trianglediamonds.svg	20	yes	0	0	2000
6.6.1	win	2022-12-29	13:38:37	13:49:43	663810	60c739d1b402ae0d42b37c66	807902584	1	main_slash	11	advance_on_keypress_SLASH	34	stimuli_target_diamondsquares.svg	stimuli_distractor_trianglediamonds.svg	20	yes	57	0	414
6.6.1	win	2022-12-29	13:38:37	13:49:46	666876	60c739d1b402ae0d42b37c66	807902584	1	main_slash	11	main_slash	35	stimuli_distractor_trianglediamonds.svg	stimuli_distractor_trianglediamonds.svg	34	no	0	1	2000
6.6.1	win	2022-12-29	13:38:37	13:49:46	666876	60c739d1b402ae0d42b37c66	807902584	1	main_slash	11	advance_on_keypress_SLASH	36	stimuli_distractor_trianglediamonds.svg	stimuli_distractor_trianglediamonds.svg	34	no	57	0	564
6.6.1	win	2022-12-29	13:38:37	13:49:48	668607	60c739d1b402ae0d42b37c66	807902584	1	main_slash	11	main_slash	37	stimuli_target_squarediamonds.svg	stimuli_distractor_trianglediamonds.svg	4	yes	53	1	513
6.6.1	win	2022-12-29	13:38:37	13:49:48	668607	60c739d1b402ae0d42b37c66	807902584	1	main_slash	11	advance_on_keypress_SLASH	38	stimuli_target_squarediamonds.svg	stimuli_distractor_trianglediamonds.svg	4	yes	57	0	1668
6.6.1	win	2022-12-29	13:38:37	13:49:52	672926	60c739d1b402ae0d42b37c66	807902584	1	main_slash	11	main_slash	39	stimuli_distractor_trianglediamonds.svg	stimuli_distractor_diamondtriangles.svg	36	no	0	1	2000
6.6.1	win	2022-12-29	13:38:37	13:49:52	672926	60c739d1b402ae0d42b37c66	807902584	1	main_slash	11	advance_on_keypress_SLASH	40	stimuli_distractor_trianglediamonds.svg	stimuli_distractor_diamondtriangles.svg	36	no	57	0	519
6.6.1	win	2022-12-29	13:38:37	13:49:53	674420	60c739d1b402ae0d42b37c66	807902584	1	main_slash	11	main_slash	41	stimuli_target_diamondcircles.svg	stimuli_distractor_diamondtriangles.svg	23	yes	53	1	327
6.6.1	win	2022-12-29	13:38:37	13:49:53	674420	60c739d1b402ae0d42b37c66	807902584	1	main_slash	11	advance_on_keypress_SLASH	42	stimuli_target_diamondcircles.svg	stimuli_distractor_diamondtriangles.svg	23	yes	57	0	1344
6.6.1	win	2022-12-29	13:38:37	13:49:56	677238	60c739d1b402ae0d42b37c66	807902584	1	main_slash	11	main_slash	43	stimuli_target_diamondcircles.svg	stimuli_distractor_trianglediamonds.svg	19	yes	53	1	845
6.6.1	win	2022-12-29	13:38:37	13:49:56	677238	60c739d1b402ae0d42b37c66	807902584	1	main_slash	11	advance_on_keypress_SLASH	44	stimuli_target_diamondcircles.svg	stimuli_distractor_trianglediamonds.svg	19	yes	57	0	509
6.6.1	win	2022-12-29	13:38:37	13:49:58	678773	60c739d1b402ae0d42b37c66	807902584	1	main_slash	11	main_slash	45	stimuli_distractor_diamondtriangles.svg	stimuli_target_circlediamonds.svg	14	yes	53	1	375
6.6.1	win	2022-12-29	13:38:37	13:49:58	678773	60c739d1b402ae0d42b37c66	807902584	1	main_slash	11	advance_on_keypress_SLASH	46	stimuli_distractor_diamondtriangles.svg	stimuli_target_circlediamonds.svg	14	yes	57	0	544
6.6.1	win	2022-12-29	13:38:37	13:50:01	681959	60c739d1b402ae0d42b37c66	807902584	1	main_slash	11	main_slash	47	stimuli_distractor_trianglediamonds.svg	stimuli_target_diamondsquares.svg	28	yes	0	0	2000
6.6.1	win	2022-12-29	13:38:37	13:50:01	681959	60c739d1b402ae0d42b37c66	807902584	1	main_slash	11	advance_on_keypress_SLASH	48	stimuli_distractor_trianglediamonds.svg	stimuli_target_diamondsquares.svg	28	yes	57	0	507
6.6.1	win	2022-12-29	13:38:37	13:50:03	683512	60c739d1b402ae0d42b37c66	807902584	1	main_slash	11	main_slash	49	stimuli_target_trianglecircles.svg	stimuli_distractor_diamondtriangles.svg	21	yes	53	1	403
6.6.1	win	2022-12-29	13:38:37	13:50:03	683512	60c739d1b402ae0d42b37c66	807902584	1	main_slash	11	advance_on_keypress_SLASH	50	stimuli_target_trianglecircles.svg	stimuli_distractor_diamondtriangles.svg	21	yes	57	0	556
6.6.1	win	2022-12-29	13:38:37	13:50:04	685161	60c739d1b402ae0d42b37c66	807902584	1	main_slash	11	main_slash	51	stimuli_target_circlediamonds.svg	stimuli_distractor_trianglediamonds.svg	2	yes	53	1	452
6.6.1	win	2022-12-29	13:38:37	13:50:04	685161	60c739d1b402ae0d42b37c66	807902584	1	main_slash	11	advance_on_keypress_SLASH	52	stimuli_target_circlediamonds.svg	stimuli_distractor_trianglediamonds.svg	2	yes	57	0	462
6.6.1	win	2022-12-29	13:38:37	13:50:06	687200	60c739d1b402ae0d42b37c66	807902584	1	main_slash	11	main_slash	53	stimuli_distractor_diamondtriangles.svg	stimuli_target_diamondsquares.svg	32	yes	53	1	925
6.6.1	win	2022-12-29	13:38:37	13:50:06	687200	60c739d1b402ae0d42b37c66	807902584	1	main_slash	11	advance_on_keypress_SLASH	54	stimuli_distractor_diamondtriangles.svg	stimuli_target_diamondsquares.svg	32	yes	57	0	481
6.6.1	win	2022-12-29	13:38:37	13:50:08	688638	60c739d1b402ae0d42b37c66	807902584	1	main_slash	11	main_slash	55	stimuli_distractor_diamondtriangles.svg	stimuli_target_circletriangles.svg	13	yes	53	1	314
6.6.1	win	2022-12-29	13:38:37	13:50:08	688638	60c739d1b402ae0d42b37c66	807902584	1	main_slash	11	advance_on_keypress_SLASH	56	stimuli_distractor_diamondtriangles.svg	stimuli_target_circletriangles.svg	13	yes	57	0	530
6.6.1	win	2022-12-29	13:38:37	13:50:09	690508	60c739d1b402ae0d42b37c66	807902584	1	main_slash	11	main_slash	57	stimuli_distractor_trianglediamonds.svg	stimuli_distractor_diamondtriangles.svg	35	no	53	0	683
6.6.1	win	2022-12-29	13:38:37	13:50:09	690508	60c739d1b402ae0d42b37c66	807902584	1	main_slash	11	advance_on_keypress_SLASH	58	stimuli_distractor_trianglediamonds.svg	stimuli_distractor_diamondtriangles.svg	35	no	57	0	651
6.6.1	win	2022-12-29	13:38:37	13:50:11	692086	60c739d1b402ae0d42b37c66	807902584	1	main_slash	11	main_slash	59	stimuli_target_trianglesquares.svg	stimuli_distractor_diamondtriangles.svg	22	yes	53	1	278
6.6.1	win	2022-12-29	13:38:37	13:50:11	692086	60c739d1b402ae0d42b37c66	807902584	1	main_slash	11	advance_on_keypress_SLASH	60	stimuli_target_trianglesquares.svg	stimuli_distractor_diamondtriangles.svg	22	yes	57	0	674
6.6.1	win	2022-12-29	13:38:37	13:50:13	693674	60c739d1b402ae0d42b37c66	807902584	1	main_slash	11	main_slash	61	stimuli_distractor_diamondtriangles.svg	stimuli_distractor_diamondtriangles.svg	39	no	53	0	283
6.6.1	win	2022-12-29	13:38:37	13:50:13	693674	60c739d1b402ae0d42b37c66	807902584	1	main_slash	11	advance_on_keypress_SLASH	62	stimuli_distractor_diamondtriangles.svg	stimuli_distractor_diamondtriangles.svg	39	no	57	0	1293
6.6.1	win	2022-12-29	13:38:37	13:50:17	697608	60c739d1b402ae0d42b37c66	807902584	1	main_slash	11	main_slash	63	stimuli_distractor_diamondtriangles.svg	stimuli_distractor_trianglediamonds.svg	37	no	0	1	2000
6.6.1	win	2022-12-29	13:38:37	13:50:17	697608	60c739d1b402ae0d42b37c66	807902584	1	main_slash	11	advance_on_keypress_SLASH	64	stimuli_distractor_diamondtriangles.svg	stimuli_distractor_trianglediamonds.svg	37	no	57	0	476
6.6.1	win	2022-12-29	13:38:37	13:50:18	699219	60c739d1b402ae0d42b37c66	807902584	1	main_slash	11	main_slash	65	stimuli_target_squaretriangles.svg	stimuli_distractor_diamondtriangles.svg	7	yes	53	1	494
6.6.1	win	2022-12-29	13:38:37	13:50:18	699219	60c739d1b402ae0d42b37c66	807902584	1	main_slash	11	advance_on_keypress_SLASH	66	stimuli_target_squaretriangles.svg	stimuli_distractor_diamondtriangles.svg	7	yes	57	0	536
6.6.1	win	2022-12-29	13:38:37	13:50:20	700959	60c739d1b402ae0d42b37c66	807902584	1	main_slash	11	main_slash	67	stimuli_target_circletriangles.svg	stimuli_distractor_trianglediamonds.svg	1	yes	53	1	568
6.6.1	win	2022-12-29	13:38:37	13:50:20	700959	60c739d1b402ae0d42b37c66	807902584	1	main_slash	11	advance_on_keypress_SLASH	68	stimuli_target_circletriangles.svg	stimuli_distractor_trianglediamonds.svg	1	yes	57	0	474
6.6.1	win	2022-12-29	13:38:37	13:50:23	704074	60c739d1b402ae0d42b37c66	807902584	1	main_slash	11	main_slash	69	stimuli_distractor_trianglediamonds.svg	stimuli_target_trianglecircles.svg	25	yes	0	0	2000
6.6.1	win	2022-12-29	13:38:37	13:50:23	704074	60c739d1b402ae0d42b37c66	807902584	1	main_slash	11	advance_on_keypress_SLASH	70	stimuli_distractor_trianglediamonds.svg	stimuli_target_trianglecircles.svg	25	yes	57	0	404
6.6.1	win	2022-12-29	13:38:37	13:50:26	707124	60c739d1b402ae0d42b37c66	807902584	1	main_slash	11	main_slash	71	stimuli_distractor_trianglediamonds.svg	stimuli_target_trianglesquares.svg	26	yes	0	0	2000
6.6.1	win	2022-12-29	13:38:37	13:50:26	707124	60c739d1b402ae0d42b37c66	807902584	1	main_slash	11	advance_on_keypress_SLASH	72	stimuli_distractor_trianglediamonds.svg	stimuli_target_trianglesquares.svg	26	yes	57	0	303
6.6.1	win	2022-12-29	13:38:37	13:50:29	710074	60c739d1b402ae0d42b37c66	807902584	1	main_slash	11	main_slash	73	stimuli_distractor_diamondtriangles.svg	stimuli_distractor_diamondtriangles.svg	40	no	0	1	2000
6.6.1	win	2022-12-29	13:38:37	13:50:29	710074	60c739d1b402ae0d42b37c66	807902584	1	main_slash	11	advance_on_keypress_SLASH	74	stimuli_distractor_diamondtriangles.svg	stimuli_distractor_diamondtriangles.svg	40	no	57	0	430
6.6.1	win	2022-12-29	13:38:37	13:50:31	711739	60c739d1b402ae0d42b37c66	807902584	1	main_slash	11	main_slash	75	stimuli_distractor_diamondtriangles.svg	stimuli_target_squarediamonds.svg	16	yes	53	1	582
6.6.1	win	2022-12-29	13:38:37	13:50:31	711739	60c739d1b402ae0d42b37c66	807902584	1	main_slash	11	advance_on_keypress_SLASH	76	stimuli_distractor_diamondtriangles.svg	stimuli_target_squarediamonds.svg	16	yes	57	0	552
6.6.1	win	2022-12-29	13:38:37	13:50:34	714941	60c739d1b402ae0d42b37c66	807902584	1	main_slash	11	main_slash	77	stimuli_distractor_diamondtriangles.svg	stimuli_target_trianglecircles.svg	29	yes	0	0	2000
6.6.1	win	2022-12-29	13:38:37	13:50:34	714941	60c739d1b402ae0d42b37c66	807902584	1	main_slash	11	advance_on_keypress_SLASH	78	stimuli_distractor_diamondtriangles.svg	stimuli_target_trianglecircles.svg	29	yes	57	0	475
6.6.1	win	2022-12-29	13:38:37	13:50:36	716731	60c739d1b402ae0d42b37c66	807902584	1	main_slash	11	main_slash	79	stimuli_distractor_diamondtriangles.svg	stimuli_target_trianglesquares.svg	30	yes	53	1	674
6.6.1	win	2022-12-29	13:38:37	13:50:36	716731	60c739d1b402ae0d42b37c66	807902584	1	main_slash	11	advance_on_keypress_SLASH	80	stimuli_distractor_diamondtriangles.svg	stimuli_target_trianglesquares.svg	30	yes	57	0	511
6.6.1	win	2022-12-29	13:38:37	13:50:38	718669	60c739d1b402ae0d42b37c66	807902584	1	main_slash	11	main_slash	81	stimuli_distractor_diamondtriangles.svg	stimuli_target_diamondcircles.svg	31	yes	53	1	795
6.6.1	win	2022-12-29	13:38:37	13:50:38	718669	60c739d1b402ae0d42b37c66	807902584	1	main_slash	11	advance_on_keypress_SLASH	82	stimuli_distractor_diamondtriangles.svg	stimuli_target_diamondcircles.svg	31	yes	57	0	559
6.6.1	win	2022-12-29	13:38:37	13:50:41	721873	60c739d1b402ae0d42b37c66	807902584	1	main_slash	11	main_slash	83	stimuli_distractor_trianglediamonds.svg	stimuli_target_squarediamonds.svg	12	yes	0	0	2000
6.6.1	win	2022-12-29	13:38:37	13:50:41	721873	60c739d1b402ae0d42b37c66	807902584	1	main_slash	11	advance_on_keypress_SLASH	84	stimuli_distractor_trianglediamonds.svg	stimuli_target_squarediamonds.svg	12	yes	57	0	736
6.6.1	win	2022-12-29	13:38:37	13:50:43	723774	60c739d1b402ae0d42b37c66	807902584	1	main_slash	11	main_slash	85	stimuli_target_diamondcircles.svg	stimuli_distractor_trianglediamonds.svg	19	yes	53	1	518
6.6.1	win	2022-12-29	13:38:37	13:50:43	723774	60c739d1b402ae0d42b37c66	807902584	1	main_slash	11	advance_on_keypress_SLASH	86	stimuli_target_diamondcircles.svg	stimuli_distractor_trianglediamonds.svg	19	yes	57	0	704
6.6.1	win	2022-12-29	13:38:37	13:50:45	725743	60c739d1b402ae0d42b37c66	807902584	1	main_slash	11	main_slash	87	stimuli_distractor_trianglediamonds.svg	stimuli_target_diamondsquares.svg	28	yes	53	1	620
6.6.1	win	2022-12-29	13:38:37	13:50:45	725743	60c739d1b402ae0d42b37c66	807902584	1	main_slash	11	advance_on_keypress_SLASH	88	stimuli_distractor_trianglediamonds.svg	stimuli_target_diamondsquares.svg	28	yes	57	0	1175
6.6.1	win	2022-12-29	13:38:37	13:50:47	727981	60c739d1b402ae0d42b37c66	807902584	1	main_slash	11	main_slash	89	stimuli_distractor_diamondtriangles.svg	stimuli_target_squarediamonds.svg	16	yes	53	1	424
6.6.1	win	2022-12-29	13:38:37	13:50:47	727981	60c739d1b402ae0d42b37c66	807902584	1	main_slash	11	advance_on_keypress_SLASH	90	stimuli_distractor_diamondtriangles.svg	stimuli_target_squarediamonds.svg	16	yes	57	0	814
6.6.1	win	2022-12-29	13:38:37	13:50:49	729938	60c739d1b402ae0d42b37c66	807902584	1	main_slash	11	main_slash	91	stimuli_distractor_trianglediamonds.svg	stimuli_target_trianglecircles.svg	25	yes	53	1	483
6.6.1	win	2022-12-29	13:38:37	13:50:49	729938	60c739d1b402ae0d42b37c66	807902584	1	main_slash	11	advance_on_keypress_SLASH	92	stimuli_distractor_trianglediamonds.svg	stimuli_target_trianglecircles.svg	25	yes	57	0	483
6.6.1	win	2022-12-29	13:38:37	13:50:51	731587	60c739d1b402ae0d42b37c66	807902584	1	main_slash	11	main_slash	93	stimuli_target_circlediamonds.svg	stimuli_distractor_trianglediamonds.svg	2	yes	53	1	504
6.6.1	win	2022-12-29	13:38:37	13:50:51	731587	60c739d1b402ae0d42b37c66	807902584	1	main_slash	11	advance_on_keypress_SLASH	94	stimuli_target_circlediamonds.svg	stimuli_distractor_trianglediamonds.svg	2	yes	57	0	404
6.6.1	win	2022-12-29	13:38:37	13:50:52	732966	60c739d1b402ae0d42b37c66	807902584	1	main_slash	11	main_slash	95	stimuli_distractor_diamondtriangles.svg	stimuli_target_diamondsquares.svg	32	yes	53	1	328
6.6.1	win	2022-12-29	13:38:37	13:50:52	732966	60c739d1b402ae0d42b37c66	807902584	1	main_slash	11	advance_on_keypress_SLASH	96	stimuli_distractor_diamondtriangles.svg	stimuli_target_diamondsquares.svg	32	yes	57	0	506
6.6.1	win	2022-12-29	13:38:37	13:50:53	734484	60c739d1b402ae0d42b37c66	807902584	1	main_slash	11	main_slash	97	stimuli_target_trianglesquares.svg	stimuli_distractor_trianglediamonds.svg	18	yes	53	1	361
6.6.1	win	2022-12-29	13:38:37	13:50:53	734484	60c739d1b402ae0d42b37c66	807902584	1	main_slash	11	advance_on_keypress_SLASH	98	stimuli_target_trianglesquares.svg	stimuli_distractor_trianglediamonds.svg	18	yes	57	0	499
6.6.1	win	2022-12-29	13:38:37	13:50:55	736020	60c739d1b402ae0d42b37c66	807902584	1	main_slash	11	main_slash	99	stimuli_target_squaretriangles.svg	stimuli_distractor_trianglediamonds.svg	3	yes	53	1	374
6.6.1	win	2022-12-29	13:38:37	13:50:55	736020	60c739d1b402ae0d42b37c66	807902584	1	main_slash	11	advance_on_keypress_SLASH	100	stimuli_target_squaretriangles.svg	stimuli_distractor_trianglediamonds.svg	3	yes	57	0	464
6.6.1	win	2022-12-29	13:38:37	13:50:56	737472	60c739d1b402ae0d42b37c66	807902584	1	main_slash	11	main_slash	101	stimuli_target_diamondsquares.svg	stimuli_distractor_diamondtriangles.svg	24	yes	53	1	333
6.6.1	win	2022-12-29	13:38:37	13:50:56	737472	60c739d1b402ae0d42b37c66	807902584	1	main_slash	11	advance_on_keypress_SLASH	102	stimuli_target_diamondsquares.svg	stimuli_distractor_diamondtriangles.svg	24	yes	57	0	532
6.6.1	win	2022-12-29	13:38:37	13:50:58	738961	60c739d1b402ae0d42b37c66	807902584	1	main_slash	11	main_slash	103	stimuli_distractor_trianglediamonds.svg	stimuli_distractor_trianglediamonds.svg	33	no	53	0	305
6.6.1	win	2022-12-29	13:38:37	13:50:58	738961	60c739d1b402ae0d42b37c66	807902584	1	main_slash	11	advance_on_keypress_SLASH	104	stimuli_distractor_trianglediamonds.svg	stimuli_distractor_trianglediamonds.svg	33	no	57	0	789
6.6.1	win	2022-12-29	13:38:37	13:51:00	740810	60c739d1b402ae0d42b37c66	807902584	1	main_slash	11	main_slash	105	stimuli_target_trianglecircles.svg	stimuli_distractor_diamondtriangles.svg	21	yes	53	1	421
6.6.1	win	2022-12-29	13:38:37	13:51:00	740810	60c739d1b402ae0d42b37c66	807902584	1	main_slash	11	advance_on_keypress_SLASH	106	stimuli_target_trianglecircles.svg	stimuli_distractor_diamondtriangles.svg	21	yes	57	0	426
6.6.1	win	2022-12-29	13:38:37	13:51:01	742298	60c739d1b402ae0d42b37c66	807902584	1	main_slash	11	main_slash	107	stimuli_target_squarediamonds.svg	stimuli_distractor_trianglediamonds.svg	4	yes	53	1	426
6.6.1	win	2022-12-29	13:38:37	13:51:01	742298	60c739d1b402ae0d42b37c66	807902584	1	main_slash	11	advance_on_keypress_SLASH	108	stimuli_target_squarediamonds.svg	stimuli_distractor_trianglediamonds.svg	4	yes	57	0	445
6.6.1	win	2022-12-29	13:38:37	13:51:03	743777	60c739d1b402ae0d42b37c66	807902584	1	main_slash	11	main_slash	109	stimuli_target_circletriangles.svg	stimuli_distractor_trianglediamonds.svg	1	yes	53	1	405
6.6.1	win	2022-12-29	13:38:37	13:51:03	743777	60c739d1b402ae0d42b37c66	807902584	1	main_slash	11	advance_on_keypress_SLASH	110	stimuli_target_circletriangles.svg	stimuli_distractor_trianglediamonds.svg	1	yes	57	0	407
6.6.1	win	2022-12-29	13:38:37	13:51:04	745415	60c739d1b402ae0d42b37c66	807902584	1	main_slash	11	main_slash	111	stimuli_distractor_diamondtriangles.svg	stimuli_distractor_trianglediamonds.svg	38	no	53	0	594
6.6.1	win	2022-12-29	13:38:37	13:51:04	745415	60c739d1b402ae0d42b37c66	807902584	1	main_slash	11	advance_on_keypress_SLASH	112	stimuli_distractor_diamondtriangles.svg	stimuli_distractor_trianglediamonds.svg	38	no	57	0	517
6.6.1	win	2022-12-29	13:38:37	13:51:06	747064	60c739d1b402ae0d42b37c66	807902584	1	main_slash	11	main_slash	113	stimuli_target_trianglesquares.svg	stimuli_distractor_diamondtriangles.svg	22	yes	53	1	475
6.6.1	win	2022-12-29	13:38:37	13:51:06	747064	60c739d1b402ae0d42b37c66	807902584	1	main_slash	11	advance_on_keypress_SLASH	114	stimuli_target_trianglesquares.svg	stimuli_distractor_diamondtriangles.svg	22	yes	57	0	372
6.6.1	win	2022-12-29	13:38:37	13:51:08	748664	60c739d1b402ae0d42b37c66	807902584	1	main_slash	11	main_slash	115	stimuli_target_squarediamonds.svg	stimuli_distractor_diamondtriangles.svg	8	yes	53	1	592
6.6.1	win	2022-12-29	13:38:37	13:51:08	748664	60c739d1b402ae0d42b37c66	807902584	1	main_slash	11	advance_on_keypress_SLASH	116	stimuli_target_squarediamonds.svg	stimuli_distractor_diamondtriangles.svg	8	yes	57	0	410
6.6.1	win	2022-12-29	13:38:37	13:51:09	750182	60c739d1b402ae0d42b37c66	807902584	1	main_slash	11	main_slash	117	stimuli_distractor_trianglediamonds.svg	stimuli_target_circlediamonds.svg	10	yes	53	1	460
6.6.1	win	2022-12-29	13:38:37	13:51:09	750182	60c739d1b402ae0d42b37c66	807902584	1	main_slash	11	advance_on_keypress_SLASH	118	stimuli_distractor_trianglediamonds.svg	stimuli_target_circlediamonds.svg	10	yes	57	0	327
6.6.1	win	2022-12-29	13:38:37	13:51:11	751531	60c739d1b402ae0d42b37c66	807902584	1	main_slash	11	main_slash	119	stimuli_distractor_diamondtriangles.svg	stimuli_target_circletriangles.svg	13	yes	53	1	359
6.6.1	win	2022-12-29	13:38:37	13:51:11	751531	60c739d1b402ae0d42b37c66	807902584	1	main_slash	11	advance_on_keypress_SLASH	120	stimuli_distractor_diamondtriangles.svg	stimuli_target_circletriangles.svg	13	yes	57	0	446
6.6.1	win	2022-12-29	13:38:37	13:51:12	753049	60c739d1b402ae0d42b37c66	807902584	1	main_slash	11	main_slash	121	stimuli_distractor_trianglediamonds.svg	stimuli_target_circletriangles.svg	9	yes	53	1	411
6.6.1	win	2022-12-29	13:38:37	13:51:12	753049	60c739d1b402ae0d42b37c66	807902584	1	main_slash	11	advance_on_keypress_SLASH	122	stimuli_distractor_trianglediamonds.svg	stimuli_target_circletriangles.svg	9	yes	57	0	538
6.6.1	win	2022-12-29	13:38:37	13:51:15	756238	60c739d1b402ae0d42b37c66	807902584	1	main_slash	11	main_slash	123	stimuli_distractor_diamondtriangles.svg	stimuli_distractor_diamondtriangles.svg	39	no	0	1	2000
6.6.1	win	2022-12-29	13:38:37	13:51:15	756238	60c739d1b402ae0d42b37c66	807902584	1	main_slash	11	advance_on_keypress_SLASH	124	stimuli_distractor_diamondtriangles.svg	stimuli_distractor_diamondtriangles.svg	39	no	57	0	402
6.6.1	win	2022-12-29	13:38:37	13:51:17	757669	60c739d1b402ae0d42b37c66	807902584	1	main_slash	11	main_slash	125	stimuli_target_diamondcircles.svg	stimuli_distractor_diamondtriangles.svg	23	yes	53	1	370
6.6.1	win	2022-12-29	13:38:37	13:51:17	757669	60c739d1b402ae0d42b37c66	807902584	1	main_slash	11	advance_on_keypress_SLASH	126	stimuli_target_diamondcircles.svg	stimuli_distractor_diamondtriangles.svg	23	yes	57	0	438
6.6.1	win	2022-12-29	13:38:37	13:51:18	759269	60c739d1b402ae0d42b37c66	807902584	1	main_slash	11	main_slash	127	stimuli_distractor_diamondtriangles.svg	stimuli_target_trianglecircles.svg	29	yes	53	1	510
6.6.1	win	2022-12-29	13:38:37	13:51:18	759269	60c739d1b402ae0d42b37c66	807902584	1	main_slash	11	advance_on_keypress_SLASH	128	stimuli_distractor_diamondtriangles.svg	stimuli_target_trianglecircles.svg	29	yes	57	0	316
6.6.1	win	2022-12-29	13:38:37	13:51:20	760645	60c739d1b402ae0d42b37c66	807902584	1	main_slash	11	main_slash	129	stimuli_distractor_trianglediamonds.svg	stimuli_distractor_trianglediamonds.svg	34	no	53	0	406
6.6.1	win	2022-12-29	13:38:37	13:51:20	760645	60c739d1b402ae0d42b37c66	807902584	1	main_slash	11	advance_on_keypress_SLASH	130	stimuli_distractor_trianglediamonds.svg	stimuli_distractor_trianglediamonds.svg	34	no	57	0	830
6.6.1	win	2022-12-29	13:38:37	13:51:22	762578	60c739d1b402ae0d42b37c66	807902584	1	main_slash	11	main_slash	131	stimuli_distractor_trianglediamonds.svg	stimuli_target_trianglesquares.svg	26	yes	53	1	457
6.6.1	win	2022-12-29	13:38:37	13:51:22	762578	60c739d1b402ae0d42b37c66	807902584	1	main_slash	11	advance_on_keypress_SLASH	132	stimuli_distractor_trianglediamonds.svg	stimuli_target_trianglesquares.svg	26	yes	57	0	374
6.6.1	win	2022-12-29	13:38:37	13:51:23	764142	60c739d1b402ae0d42b37c66	807902584	1	main_slash	11	main_slash	133	stimuli_distractor_trianglediamonds.svg	stimuli_target_diamondcircles.svg	27	yes	53	1	554
6.6.1	win	2022-12-29	13:38:37	13:51:23	764142	60c739d1b402ae0d42b37c66	807902584	1	main_slash	11	advance_on_keypress_SLASH	134	stimuli_distractor_trianglediamonds.svg	stimuli_target_diamondcircles.svg	27	yes	57	0	497
6.6.1	win	2022-12-29	13:38:37	13:51:26	767288	60c739d1b402ae0d42b37c66	807902584	1	main_slash	11	main_slash	135	stimuli_distractor_trianglediamonds.svg	stimuli_distractor_diamondtriangles.svg	36	no	0	1	2000
6.6.1	win	2022-12-29	13:38:37	13:51:26	767288	60c739d1b402ae0d42b37c66	807902584	1	main_slash	11	advance_on_keypress_SLASH	136	stimuli_distractor_trianglediamonds.svg	stimuli_distractor_diamondtriangles.svg	36	no	57	0	664
6.6.1	win	2022-12-29	13:38:37	13:51:28	769047	60c739d1b402ae0d42b37c66	807902584	1	main_slash	11	main_slash	137	stimuli_target_squaretriangles.svg	stimuli_distractor_diamondtriangles.svg	7	yes	53	1	443
6.6.1	win	2022-12-29	13:38:37	13:51:28	769047	60c739d1b402ae0d42b37c66	807902584	1	main_slash	11	advance_on_keypress_SLASH	138	stimuli_target_squaretriangles.svg	stimuli_distractor_diamondtriangles.svg	7	yes	57	0	443
6.6.1	win	2022-12-29	13:38:37	13:51:31	772137	60c739d1b402ae0d42b37c66	807902584	1	main_slash	11	main_slash	139	stimuli_distractor_diamondtriangles.svg	stimuli_distractor_trianglediamonds.svg	37	no	0	1	2000
6.6.1	win	2022-12-29	13:38:37	13:51:31	772137	60c739d1b402ae0d42b37c66	807902584	1	main_slash	11	advance_on_keypress_SLASH	140	stimuli_distractor_diamondtriangles.svg	stimuli_distractor_trianglediamonds.svg	37	no	57	0	541
6.6.1	win	2022-12-29	13:38:37	13:51:33	773793	60c739d1b402ae0d42b37c66	807902584	1	main_slash	11	main_slash	141	stimuli_distractor_diamondtriangles.svg	stimuli_target_trianglesquares.svg	30	yes	53	1	472
6.6.1	win	2022-12-29	13:38:37	13:51:33	773793	60c739d1b402ae0d42b37c66	807902584	1	main_slash	11	advance_on_keypress_SLASH	142	stimuli_distractor_diamondtriangles.svg	stimuli_target_trianglesquares.svg	30	yes	57	0	989
6.6.1	win	2022-12-29	13:38:37	13:51:35	775912	60c739d1b402ae0d42b37c66	807902584	1	main_slash	11	main_slash	143	stimuli_target_trianglecircles.svg	stimuli_distractor_trianglediamonds.svg	17	yes	53	1	492
6.6.1	win	2022-12-29	13:38:37	13:51:35	775912	60c739d1b402ae0d42b37c66	807902584	1	main_slash	11	advance_on_keypress_SLASH	144	stimuli_target_trianglecircles.svg	stimuli_distractor_trianglediamonds.svg	17	yes	57	0	511
6.6.1	win	2022-12-29	13:38:37	13:51:37	777675	60c739d1b402ae0d42b37c66	807902584	1	main_slash	11	main_slash	145	stimuli_distractor_diamondtriangles.svg	stimuli_target_squaretriangles.svg	15	yes	53	1	605
6.6.1	win	2022-12-29	13:38:37	13:51:37	777675	60c739d1b402ae0d42b37c66	807902584	1	main_slash	11	advance_on_keypress_SLASH	146	stimuli_distractor_diamondtriangles.svg	stimuli_target_squaretriangles.svg	15	yes	57	0	513
6.6.1	win	2022-12-29	13:38:37	13:51:38	779480	60c739d1b402ae0d42b37c66	807902584	1	main_slash	11	main_slash	147	stimuli_distractor_trianglediamonds.svg	stimuli_distractor_diamondtriangles.svg	35	no	53	0	643
6.6.1	win	2022-12-29	13:38:37	13:51:38	779480	60c739d1b402ae0d42b37c66	807902584	1	main_slash	11	advance_on_keypress_SLASH	148	stimuli_distractor_trianglediamonds.svg	stimuli_distractor_diamondtriangles.svg	35	no	57	0	522
6.6.1	win	2022-12-29	13:38:37	13:51:42	782636	60c739d1b402ae0d42b37c66	807902584	1	main_slash	11	main_slash	149	stimuli_distractor_diamondtriangles.svg	stimuli_distractor_diamondtriangles.svg	40	no	0	1	2000
6.6.1	win	2022-12-29	13:38:37	13:51:42	782636	60c739d1b402ae0d42b37c66	807902584	1	main_slash	11	advance_on_keypress_SLASH	150	stimuli_distractor_diamondtriangles.svg	stimuli_distractor_diamondtriangles.svg	40	no	57	0	613
6.6.1	win	2022-12-29	13:38:37	13:51:43	784425	60c739d1b402ae0d42b37c66	807902584	1	main_slash	11	main_slash	151	stimuli_target_circletriangles.svg	stimuli_distractor_diamondtriangles.svg	5	yes	53	1	521
6.6.1	win	2022-12-29	13:38:37	13:51:43	784425	60c739d1b402ae0d42b37c66	807902584	1	main_slash	11	advance_on_keypress_SLASH	152	stimuli_target_circletriangles.svg	stimuli_distractor_diamondtriangles.svg	5	yes	57	0	1009
6.6.1	win	2022-12-29	13:38:37	13:51:46	787384	60c739d1b402ae0d42b37c66	807902584	1	main_slash	11	main_slash	153	stimuli_distractor_trianglediamonds.svg	stimuli_target_squaretriangles.svg	11	yes	53	1	1314
6.6.1	win	2022-12-29	13:38:37	13:51:46	787384	60c739d1b402ae0d42b37c66	807902584	1	main_slash	11	advance_on_keypress_SLASH	154	stimuli_distractor_trianglediamonds.svg	stimuli_target_squaretriangles.svg	11	yes	57	0	680
6.6.1	win	2022-12-29	13:38:37	13:51:48	789133	60c739d1b402ae0d42b37c66	807902584	1	main_slash	11	main_slash	155	stimuli_target_diamondsquares.svg	stimuli_distractor_trianglediamonds.svg	20	yes	53	1	413
6.6.1	win	2022-12-29	13:38:37	13:51:48	789133	60c739d1b402ae0d42b37c66	807902584	1	main_slash	11	advance_on_keypress_SLASH	156	stimuli_target_diamondsquares.svg	stimuli_distractor_trianglediamonds.svg	20	yes	57	0	630
6.6.1	win	2022-12-29	13:38:37	13:51:50	791021	60c739d1b402ae0d42b37c66	807902584	1	main_slash	11	main_slash	157	stimuli_distractor_diamondtriangles.svg	stimuli_target_circlediamonds.svg	14	yes	53	1	602
6.6.1	win	2022-12-29	13:38:37	13:51:50	791021	60c739d1b402ae0d42b37c66	807902584	1	main_slash	11	advance_on_keypress_SLASH	158	stimuli_distractor_diamondtriangles.svg	stimuli_target_circlediamonds.svg	14	yes	57	0	496
6.6.1	win	2022-12-29	13:38:37	13:51:52	792570	60c739d1b402ae0d42b37c66	807902584	1	main_slash	11	main_slash	159	stimuli_target_circlediamonds.svg	stimuli_distractor_diamondtriangles.svg	6	yes	53	1	401
6.6.1	win	2022-12-29	13:38:37	13:51:52	792570	60c739d1b402ae0d42b37c66	807902584	1	main_slash	11	advance_on_keypress_SLASH	160	stimuli_target_circlediamonds.svg	stimuli_distractor_diamondtriangles.svg	6	yes	57	0	644