build	computer.platform	date	time	timestamp	time_elapsed_ms	subject	group	session	blockcode	blocknum	trialcode	trialnum	stimulus_left	stimulus_right	stim_index	target_present	response	correct	latency
6.6.1	win	2022-12-14	14:03:07	14:05:02	112372	62d6e24cf74647ef51a16300	619295404	1	practice_z	5	practice_z	1	stimuli_target_diamondsquares.svg	stimuli_distractor_diamondtriangles.svg	3	yes	44	1	1234
6.6.1	win	2022-12-14	14:03:07	14:05:02	112372	62d6e24cf74647ef51a16300	619295404	1	practice_z	5	advance_on_keypress_ZEE	2	stimuli_target_diamondsquares.svg	stimuli_distractor_diamondtriangles.svg	3	yes	57	0	2260
6.6.1	win	2022-12-14	14:03:07	14:05:07	117493	62d6e24cf74647ef51a16300	619295404	1	practice_z	5	practice_z	3	stimuli_target_circlediamonds.svg	stimuli_distractor_trianglediamonds.svg	4	yes	44	1	1198
6.6.1	win	2022-12-14	14:03:07	14:05:07	117493	62d6e24cf74647ef51a16300	619295404	1	practice_z	5	advance_on_keypress_ZEE	4	stimuli_target_circlediamonds.svg	stimuli_distractor_trianglediamonds.svg	4	yes	57	0	570
6.6.1	win	2022-12-14	14:03:07	14:05:10	120967	62d6e24cf74647ef51a16300	619295404	1	practice_z	5	practice_z	5	stimuli_distractor_diamondtriangles.svg	stimuli_target_circletriangles.svg	7	yes	44	1	1254
6.6.1	win	2022-12-14	14:03:07	14:05:10	120967	62d6e24cf74647ef51a16300	619295404	1	practice_z	5	advance_on_keypress_ZEE	6	stimuli_distractor_diamondtriangles.svg	stimuli_target_circletriangles.svg	7	yes	57	0	578
6.6.1	win	2022-12-14	14:03:07	14:05:13	124139	62d6e24cf74647ef51a16300	619295404	1	practice_z	5	practice_z	7	stimuli_target_squarediamonds.svg	stimuli_distractor_trianglediamonds.svg	5	yes	44	1	939
6.6.1	win	2022-12-14	14:03:07	14:05:13	124139	62d6e24cf74647ef51a16300	619295404	1	practice_z	5	advance_on_keypress_ZEE	8	stimuli_target_squarediamonds.svg	stimuli_distractor_trianglediamonds.svg	5	yes	57	0	533
6.6.1	win	2022-12-14	14:03:07	14:05:16	127031	62d6e24cf74647ef51a16300	619295404	1	practice_z	5	practice_z	9	stimuli_distractor_diamondtriangles.svg	stimuli_target_trianglecircles.svg	9	yes	44	1	712
6.6.1	win	2022-12-14	14:03:07	14:05:16	127031	62d6e24cf74647ef51a16300	619295404	1	practice_z	5	advance_on_keypress_ZEE	10	stimuli_distractor_diamondtriangles.svg	stimuli_target_trianglecircles.svg	9	yes	57	0	601
6.6.1	win	2022-12-14	14:03:07	14:05:19	130073	62d6e24cf74647ef51a16300	619295404	1	practice_z	5	practice_z	11	stimuli_distractor_trianglediamonds.svg	stimuli_target_circlediamonds.svg	10	yes	44	1	802
6.6.1	win	2022-12-14	14:03:07	14:05:19	130073	62d6e24cf74647ef51a16300	619295404	1	practice_z	5	advance_on_keypress_ZEE	12	stimuli_distractor_trianglediamonds.svg	stimuli_target_circlediamonds.svg	10	yes	57	0	395
6.6.1	win	2022-12-14	14:03:07	14:05:23	134123	62d6e24cf74647ef51a16300	619295404	1	practice_z	5	practice_z	13	stimuli_distractor_trianglediamonds.svg	stimuli_distractor_diamondtriangles.svg	16	no	0	1	2000
6.6.1	win	2022-12-14	14:03:07	14:05:23	134123	62d6e24cf74647ef51a16300	619295404	1	practice_z	5	advance_on_keypress_ZEE	14	stimuli_distractor_trianglediamonds.svg	stimuli_distractor_diamondtriangles.svg	16	no	57	0	918
6.6.1	win	2022-12-14	14:03:07	14:05:28	138694	62d6e24cf74647ef51a16300	619295404	1	practice_z	5	practice_z	15	stimuli_distractor_trianglediamonds.svg	stimuli_distractor_trianglediamonds.svg	15	no	0	1	2000
6.6.1	win	2022-12-14	14:03:07	14:05:28	138694	62d6e24cf74647ef51a16300	619295404	1	practice_z	5	advance_on_keypress_ZEE	16	stimuli_distractor_trianglediamonds.svg	stimuli_distractor_trianglediamonds.svg	15	no	57	0	584
6.6.1	win	2022-12-14	14:03:07	14:05:31	141618	62d6e24cf74647ef51a16300	619295404	1	practice_z	5	practice_z	17	stimuli_distractor_trianglediamonds.svg	stimuli_target_diamondcircles.svg	12	yes	44	1	688
6.6.1	win	2022-12-14	14:03:07	14:05:31	141618	62d6e24cf74647ef51a16300	619295404	1	practice_z	5	advance_on_keypress_ZEE	18	stimuli_distractor_trianglediamonds.svg	stimuli_target_diamondcircles.svg	12	yes	57	0	649
6.6.1	win	2022-12-14	14:03:07	14:05:35	145917	62d6e24cf74647ef51a16300	619295404	1	practice_z	5	practice_z	19	stimuli_target_diamondsquares.svg	stimuli_distractor_trianglediamonds.svg	6	yes	0	0	2000
6.6.1	win	2022-12-14	14:03:07	14:05:35	145917	62d6e24cf74647ef51a16300	619295404	1	practice_z	5	advance_on_keypress_ZEE	20	stimuli_target_diamondsquares.svg	stimuli_distractor_trianglediamonds.svg	6	yes	57	0	466
6.6.1	win	2022-12-14	14:03:07	14:05:38	148743	62d6e24cf74647ef51a16300	619295404	1	practice_z	5	practice_z	21	stimuli_target_squarediamonds.svg	stimuli_distractor_diamondtriangles.svg	2	yes	44	1	706
6.6.1	win	2022-12-14	14:03:07	14:05:38	148743	62d6e24cf74647ef51a16300	619295404	1	practice_z	5	advance_on_keypress_ZEE	22	stimuli_target_squarediamonds.svg	stimuli_distractor_diamondtriangles.svg	2	yes	57	0	452
6.6.1	win	2022-12-14	14:03:07	14:05:41	151703	62d6e24cf74647ef51a16300	619295404	1	practice_z	5	practice_z	23	stimuli_distractor_trianglediamonds.svg	stimuli_target_squarediamonds.svg	11	yes	44	1	864
6.6.1	win	2022-12-14	14:03:07	14:05:41	151703	62d6e24cf74647ef51a16300	619295404	1	practice_z	5	advance_on_keypress_ZEE	24	stimuli_distractor_trianglediamonds.svg	stimuli_target_squarediamonds.svg	11	yes	57	0	411
6.6.1	win	2022-12-14	14:03:07	14:05:45	155758	62d6e24cf74647ef51a16300	619295404	1	practice_z	5	practice_z	25	stimuli_distractor_diamondtriangles.svg	stimuli_distractor_trianglediamonds.svg	14	no	0	1	2000
6.6.1	win	2022-12-14	14:03:07	14:05:45	155758	62d6e24cf74647ef51a16300	619295404	1	practice_z	5	advance_on_keypress_ZEE	26	stimuli_distractor_diamondtriangles.svg	stimuli_distractor_trianglediamonds.svg	14	no	57	0	412
6.6.1	win	2022-12-14	14:03:07	14:05:49	159828	62d6e24cf74647ef51a16300	619295404	1	practice_z	5	practice_z	27	stimuli_distractor_diamondtriangles.svg	stimuli_distractor_diamondtriangles.svg	13	no	0	1	2000
6.6.1	win	2022-12-14	14:03:07	14:05:49	159828	62d6e24cf74647ef51a16300	619295404	1	practice_z	5	advance_on_keypress_ZEE	28	stimuli_distractor_diamondtriangles.svg	stimuli_distractor_diamondtriangles.svg	13	no	57	0	480
6.6.1	win	2022-12-14	14:03:07	14:05:52	162734	62d6e24cf74647ef51a16300	619295404	1	practice_z	5	practice_z	29	stimuli_target_circlediamonds.svg	stimuli_distractor_diamondtriangles.svg	1	yes	44	1	769
6.6.1	win	2022-12-14	14:03:07	14:05:52	162734	62d6e24cf74647ef51a16300	619295404	1	practice_z	5	advance_on_keypress_ZEE	30	stimuli_target_circlediamonds.svg	stimuli_distractor_diamondtriangles.svg	1	yes	57	0	783
6.6.1	win	2022-12-14	14:03:07	14:05:55	165924	62d6e24cf74647ef51a16300	619295404	1	practice_z	5	practice_z	31	stimuli_distractor_diamondtriangles.svg	stimuli_target_diamondcircles.svg	8	yes	44	1	756
6.6.1	win	2022-12-14	14:03:07	14:05:55	165924	62d6e24cf74647ef51a16300	619295404	1	practice_z	5	advance_on_keypress_ZEE	32	stimuli_distractor_diamondtriangles.svg	stimuli_target_diamondcircles.svg	8	yes	57	0	462
6.6.1	win	2022-12-14	14:03:07	14:06:02	173171	62d6e24cf74647ef51a16300	619295404	1	main_z	7	main_z	1	stimuli_target_squaretriangles.svg	stimuli_distractor_trianglediamonds.svg	3	yes	44	1	664
6.6.1	win	2022-12-14	14:03:07	14:06:02	173171	62d6e24cf74647ef51a16300	619295404	1	main_z	7	advance_on_keypress_ZEE	2	stimuli_target_squaretriangles.svg	stimuli_distractor_trianglediamonds.svg	3	yes	57	0	1107
6.6.1	win	2022-12-14	14:03:07	14:06:06	176927	62d6e24cf74647ef51a16300	619295404	1	main_z	7	main_z	3	stimuli_distractor_diamondtriangles.svg	stimuli_distractor_diamondtriangles.svg	39	no	0	1	2000
6.6.1	win	2022-12-14	14:03:07	14:06:06	176927	62d6e24cf74647ef51a16300	619295404	1	main_z	7	advance_on_keypress_ZEE	4	stimuli_distractor_diamondtriangles.svg	stimuli_distractor_diamondtriangles.svg	39	no	57	0	427
6.6.1	win	2022-12-14	14:03:07	14:06:08	178932	62d6e24cf74647ef51a16300	619295404	1	main_z	7	main_z	5	stimuli_target_diamondcircles.svg	stimuli_distractor_trianglediamonds.svg	19	yes	44	1	937
6.6.1	win	2022-12-14	14:03:07	14:06:08	178932	62d6e24cf74647ef51a16300	619295404	1	main_z	7	advance_on_keypress_ZEE	6	stimuli_target_diamondcircles.svg	stimuli_distractor_trianglediamonds.svg	19	yes	57	0	1325
6.6.1	win	2022-12-14	14:03:07	14:06:11	181611	62d6e24cf74647ef51a16300	619295404	1	main_z	7	main_z	7	stimuli_target_squarediamonds.svg	stimuli_distractor_trianglediamonds.svg	4	yes	44	1	713
6.6.1	win	2022-12-14	14:03:07	14:06:11	181611	62d6e24cf74647ef51a16300	619295404	1	main_z	7	advance_on_keypress_ZEE	8	stimuli_target_squarediamonds.svg	stimuli_distractor_trianglediamonds.svg	4	yes	57	0	633
6.6.1	win	2022-12-14	14:03:07	14:06:13	183637	62d6e24cf74647ef51a16300	619295404	1	main_z	7	main_z	9	stimuli_distractor_trianglediamonds.svg	stimuli_target_circlediamonds.svg	10	yes	44	1	754
6.6.1	win	2022-12-14	14:03:07	14:06:13	183637	62d6e24cf74647ef51a16300	619295404	1	main_z	7	advance_on_keypress_ZEE	10	stimuli_distractor_trianglediamonds.svg	stimuli_target_circlediamonds.svg	10	yes	57	0	431
6.6.1	win	2022-12-14	14:03:07	14:06:15	185382	62d6e24cf74647ef51a16300	619295404	1	main_z	7	main_z	11	stimuli_target_trianglesquares.svg	stimuli_distractor_trianglediamonds.svg	18	yes	44	1	664
6.6.1	win	2022-12-14	14:03:07	14:06:15	185382	62d6e24cf74647ef51a16300	619295404	1	main_z	7	advance_on_keypress_ZEE	12	stimuli_target_trianglesquares.svg	stimuli_distractor_trianglediamonds.svg	18	yes	57	0	611
6.6.1	win	2022-12-14	14:03:07	14:06:17	187434	62d6e24cf74647ef51a16300	619295404	1	main_z	7	main_z	13	stimuli_distractor_trianglediamonds.svg	stimuli_target_trianglesquares.svg	26	yes	44	1	815
6.6.1	win	2022-12-14	14:03:07	14:06:17	187434	62d6e24cf74647ef51a16300	619295404	1	main_z	7	advance_on_keypress_ZEE	14	stimuli_distractor_trianglediamonds.svg	stimuli_target_trianglesquares.svg	26	yes	57	0	469
6.6.1	win	2022-12-14	14:03:07	14:06:19	189314	62d6e24cf74647ef51a16300	619295404	1	main_z	7	main_z	15	stimuli_target_diamondsquares.svg	stimuli_distractor_diamondtriangles.svg	24	yes	44	1	776
6.6.1	win	2022-12-14	14:03:07	14:06:19	189314	62d6e24cf74647ef51a16300	619295404	1	main_z	7	advance_on_keypress_ZEE	16	stimuli_target_diamondsquares.svg	stimuli_distractor_diamondtriangles.svg	24	yes	57	0	423
6.6.1	win	2022-12-14	14:03:07	14:06:20	191054	62d6e24cf74647ef51a16300	619295404	1	main_z	7	main_z	17	stimuli_target_trianglecircles.svg	stimuli_distractor_trianglediamonds.svg	17	yes	44	1	681
6.6.1	win	2022-12-14	14:03:07	14:06:20	191054	62d6e24cf74647ef51a16300	619295404	1	main_z	7	advance_on_keypress_ZEE	18	stimuli_target_trianglecircles.svg	stimuli_distractor_trianglediamonds.svg	17	yes	57	0	472
6.6.1	win	2022-12-14	14:03:07	14:06:22	192977	62d6e24cf74647ef51a16300	619295404	1	main_z	7	main_z	19	stimuli_distractor_diamondtriangles.svg	stimuli_target_trianglesquares.svg	30	yes	44	1	803
6.6.1	win	2022-12-14	14:03:07	14:06:22	192977	62d6e24cf74647ef51a16300	619295404	1	main_z	7	advance_on_keypress_ZEE	20	stimuli_distractor_diamondtriangles.svg	stimuli_target_trianglesquares.svg	30	yes	57	0	345
6.6.1	win	2022-12-14	14:03:07	14:06:24	194753	62d6e24cf74647ef51a16300	619295404	1	main_z	7	main_z	21	stimuli_distractor_diamondtriangles.svg	stimuli_target_trianglecircles.svg	29	yes	44	1	794
6.6.1	win	2022-12-14	14:03:07	14:06:24	194753	62d6e24cf74647ef51a16300	619295404	1	main_z	7	advance_on_keypress_ZEE	22	stimuli_distractor_diamondtriangles.svg	stimuli_target_trianglecircles.svg	29	yes	57	0	374
6.6.1	win	2022-12-14	14:03:07	14:06:26	196441	62d6e24cf74647ef51a16300	619295404	1	main_z	7	main_z	23	stimuli_target_diamondcircles.svg	stimuli_distractor_diamondtriangles.svg	23	yes	44	1	680
6.6.1	win	2022-12-14	14:03:07	14:06:26	196441	62d6e24cf74647ef51a16300	619295404	1	main_z	7	advance_on_keypress_ZEE	24	stimuli_target_diamondcircles.svg	stimuli_distractor_diamondtriangles.svg	23	yes	57	0	453
6.6.1	win	2022-12-14	14:03:07	14:06:27	198168	62d6e24cf74647ef51a16300	619295404	1	main_z	7	main_z	25	stimuli_distractor_trianglediamonds.svg	stimuli_target_diamondcircles.svg	27	yes	44	1	639
6.6.1	win	2022-12-14	14:03:07	14:06:27	198168	62d6e24cf74647ef51a16300	619295404	1	main_z	7	advance_on_keypress_ZEE	26	stimuli_distractor_trianglediamonds.svg	stimuli_target_diamondcircles.svg	27	yes	57	0	433
6.6.1	win	2022-12-14	14:03:07	14:06:30	200533	62d6e24cf74647ef51a16300	619295404	1	main_z	7	main_z	27	stimuli_target_circletriangles.svg	stimuli_distractor_diamondtriangles.svg	5	yes	44	1	1286
6.6.1	win	2022-12-14	14:03:07	14:06:30	200533	62d6e24cf74647ef51a16300	619295404	1	main_z	7	advance_on_keypress_ZEE	28	stimuli_target_circletriangles.svg	stimuli_distractor_diamondtriangles.svg	5	yes	57	0	881
6.6.1	win	2022-12-14	14:03:07	14:06:32	202780	62d6e24cf74647ef51a16300	619295404	1	main_z	7	main_z	29	stimuli_distractor_diamondtriangles.svg	stimuli_target_diamondcircles.svg	31	yes	44	1	731
6.6.1	win	2022-12-14	14:03:07	14:06:32	202780	62d6e24cf74647ef51a16300	619295404	1	main_z	7	advance_on_keypress_ZEE	30	stimuli_distractor_diamondtriangles.svg	stimuli_target_diamondcircles.svg	31	yes	57	0	408
6.6.1	win	2022-12-14	14:03:07	14:06:34	205028	62d6e24cf74647ef51a16300	619295404	1	main_z	7	main_z	31	stimuli_distractor_diamondtriangles.svg	stimuli_target_squaretriangles.svg	15	yes	44	1	1211
6.6.1	win	2022-12-14	14:03:07	14:06:34	205028	62d6e24cf74647ef51a16300	619295404	1	main_z	7	advance_on_keypress_ZEE	32	stimuli_distractor_diamondtriangles.svg	stimuli_target_squaretriangles.svg	15	yes	57	0	492
6.6.1	win	2022-12-14	14:03:07	14:06:36	206976	62d6e24cf74647ef51a16300	619295404	1	main_z	7	main_z	33	stimuli_distractor_diamondtriangles.svg	stimuli_target_diamondsquares.svg	32	yes	44	1	823
6.6.1	win	2022-12-14	14:03:07	14:06:36	206976	62d6e24cf74647ef51a16300	619295404	1	main_z	7	advance_on_keypress_ZEE	34	stimuli_distractor_diamondtriangles.svg	stimuli_target_diamondsquares.svg	32	yes	57	0	371
6.6.1	win	2022-12-14	14:03:07	14:06:38	208773	62d6e24cf74647ef51a16300	619295404	1	main_z	7	main_z	35	stimuli_distractor_trianglediamonds.svg	stimuli_target_squarediamonds.svg	12	yes	44	1	785
6.6.1	win	2022-12-14	14:03:07	14:06:38	208773	62d6e24cf74647ef51a16300	619295404	1	main_z	7	advance_on_keypress_ZEE	36	stimuli_distractor_trianglediamonds.svg	stimuli_target_squarediamonds.svg	12	yes	57	0	477
6.6.1	win	2022-12-14	14:03:07	14:06:40	210723	62d6e24cf74647ef51a16300	619295404	1	main_z	7	main_z	37	stimuli_target_circletriangles.svg	stimuli_distractor_trianglediamonds.svg	1	yes	44	1	834
6.6.1	win	2022-12-14	14:03:07	14:06:40	210723	62d6e24cf74647ef51a16300	619295404	1	main_z	7	advance_on_keypress_ZEE	38	stimuli_target_circletriangles.svg	stimuli_distractor_trianglediamonds.svg	1	yes	57	0	361
6.6.1	win	2022-12-14	14:03:07	14:06:43	213724	62d6e24cf74647ef51a16300	619295404	1	main_z	7	main_z	39	stimuli_distractor_diamondtriangles.svg	stimuli_distractor_trianglediamonds.svg	38	no	0	1	2000
6.6.1	win	2022-12-14	14:03:07	14:06:43	213724	62d6e24cf74647ef51a16300	619295404	1	main_z	7	advance_on_keypress_ZEE	40	stimuli_distractor_diamondtriangles.svg	stimuli_distractor_trianglediamonds.svg	38	no	57	0	737
6.6.1	win	2022-12-14	14:03:07	14:06:45	215817	62d6e24cf74647ef51a16300	619295404	1	main_z	7	main_z	41	stimuli_distractor_trianglediamonds.svg	stimuli_target_trianglecircles.svg	25	yes	44	1	706
6.6.1	win	2022-12-14	14:03:07	14:06:45	215817	62d6e24cf74647ef51a16300	619295404	1	main_z	7	advance_on_keypress_ZEE	42	stimuli_distractor_trianglediamonds.svg	stimuli_target_trianglecircles.svg	25	yes	57	0	413
6.6.1	win	2022-12-14	14:03:07	14:06:48	218862	62d6e24cf74647ef51a16300	619295404	1	main_z	7	main_z	43	stimuli_distractor_trianglediamonds.svg	stimuli_distractor_diamondtriangles.svg	35	no	0	1	2000
6.6.1	win	2022-12-14	14:03:07	14:06:48	218862	62d6e24cf74647ef51a16300	619295404	1	main_z	7	advance_on_keypress_ZEE	44	stimuli_distractor_trianglediamonds.svg	stimuli_distractor_diamondtriangles.svg	35	no	57	0	364
6.6.1	win	2022-12-14	14:03:07	14:06:50	220652	62d6e24cf74647ef51a16300	619295404	1	main_z	7	main_z	45	stimuli_target_squaretriangles.svg	stimuli_distractor_diamondtriangles.svg	7	yes	44	1	784
6.6.1	win	2022-12-14	14:03:07	14:06:50	220652	62d6e24cf74647ef51a16300	619295404	1	main_z	7	advance_on_keypress_ZEE	46	stimuli_target_squaretriangles.svg	stimuli_distractor_diamondtriangles.svg	7	yes	57	0	588
6.6.1	win	2022-12-14	14:03:07	14:06:53	223884	62d6e24cf74647ef51a16300	619295404	1	main_z	7	main_z	47	stimuli_distractor_diamondtriangles.svg	stimuli_distractor_diamondtriangles.svg	40	no	0	1	2000
6.6.1	win	2022-12-14	14:03:07	14:06:53	223884	62d6e24cf74647ef51a16300	619295404	1	main_z	7	advance_on_keypress_ZEE	48	stimuli_distractor_diamondtriangles.svg	stimuli_distractor_diamondtriangles.svg	40	no	57	0	358
6.6.1	win	2022-12-14	14:03:07	14:06:55	225561	62d6e24cf74647ef51a16300	619295404	1	main_z	7	main_z	49	stimuli_target_trianglesquares.svg	stimuli_distractor_diamondtriangles.svg	22	yes	44	1	675
6.6.1	win	2022-12-14	14:03:07	14:06:55	225561	62d6e24cf74647ef51a16300	619295404	1	main_z	7	advance_on_keypress_ZEE	50	stimuli_target_trianglesquares.svg	stimuli_distractor_diamondtriangles.svg	22	yes	57	0	466
6.6.1	win	2022-12-14	14:03:07	14:06:58	228671	62d6e24cf74647ef51a16300	619295404	1	main_z	7	main_z	51	stimuli_distractor_trianglediamonds.svg	stimuli_distractor_trianglediamonds.svg	34	no	0	1	2000
6.6.1	win	2022-12-14	14:03:07	14:06:58	228671	62d6e24cf74647ef51a16300	619295404	1	main_z	7	advance_on_keypress_ZEE	52	stimuli_distractor_trianglediamonds.svg	stimuli_distractor_trianglediamonds.svg	34	no	57	0	362
6.6.1	win	2022-12-14	14:03:07	14:07:00	230436	62d6e24cf74647ef51a16300	619295404	1	main_z	7	main_z	53	stimuli_distractor_trianglediamonds.svg	stimuli_target_squaretriangles.svg	11	yes	44	1	763
6.6.1	win	2022-12-14	14:03:07	14:07:00	230436	62d6e24cf74647ef51a16300	619295404	1	main_z	7	advance_on_keypress_ZEE	54	stimuli_distractor_trianglediamonds.svg	stimuli_target_squaretriangles.svg	11	yes	57	0	475
6.6.1	win	2022-12-14	14:03:07	14:07:03	233541	62d6e24cf74647ef51a16300	619295404	1	main_z	7	main_z	55	stimuli_distractor_diamondtriangles.svg	stimuli_distractor_trianglediamonds.svg	37	no	0	1	2000
6.6.1	win	2022-12-14	14:03:07	14:07:03	233541	62d6e24cf74647ef51a16300	619295404	1	main_z	7	advance_on_keypress_ZEE	56	stimuli_distractor_diamondtriangles.svg	stimuli_distractor_trianglediamonds.svg	37	no	57	0	332
6.6.1	win	2022-12-14	14:03:07	14:07:05	235272	62d6e24cf74647ef51a16300	619295404	1	main_z	7	main_z	57	stimuli_target_diamondsquares.svg	stimuli_distractor_trianglediamonds.svg	20	yes	44	1	745
6.6.1	win	2022-12-14	14:03:07	14:07:05	235272	62d6e24cf74647ef51a16300	619295404	1	main_z	7	advance_on_keypress_ZEE	58	stimuli_target_diamondsquares.svg	stimuli_distractor_trianglediamonds.svg	20	yes	57	0	470
6.6.1	win	2022-12-14	14:03:07	14:07:08	238379	62d6e24cf74647ef51a16300	619295404	1	main_z	7	main_z	59	stimuli_distractor_trianglediamonds.svg	stimuli_distractor_trianglediamonds.svg	33	no	0	1	2000
6.6.1	win	2022-12-14	14:03:07	14:07:08	238379	62d6e24cf74647ef51a16300	619295404	1	main_z	7	advance_on_keypress_ZEE	60	stimuli_distractor_trianglediamonds.svg	stimuli_distractor_trianglediamonds.svg	33	no	57	0	460
6.6.1	win	2022-12-14	14:03:07	14:07:11	241482	62d6e24cf74647ef51a16300	619295404	1	main_z	7	main_z	61	stimuli_distractor_trianglediamonds.svg	stimuli_distractor_diamondtriangles.svg	36	no	0	1	2000
6.6.1	win	2022-12-14	14:03:07	14:07:11	241482	62d6e24cf74647ef51a16300	619295404	1	main_z	7	advance_on_keypress_ZEE	62	stimuli_distractor_trianglediamonds.svg	stimuli_distractor_diamondtriangles.svg	36	no	57	0	332
6.6.1	win	2022-12-14	14:03:07	14:07:13	243254	62d6e24cf74647ef51a16300	619295404	1	main_z	7	main_z	63	stimuli_target_circlediamonds.svg	stimuli_distractor_diamondtriangles.svg	6	yes	44	1	787
6.6.1	win	2022-12-14	14:03:07	14:07:13	243254	62d6e24cf74647ef51a16300	619295404	1	main_z	7	advance_on_keypress_ZEE	64	stimuli_target_circlediamonds.svg	stimuli_distractor_diamondtriangles.svg	6	yes	57	0	494
6.6.1	win	2022-12-14	14:03:07	14:07:14	245120	62d6e24cf74647ef51a16300	619295404	1	main_z	7	main_z	65	stimuli_distractor_diamondtriangles.svg	stimuli_target_squarediamonds.svg	16	yes	44	1	734
6.6.1	win	2022-12-14	14:03:07	14:07:14	245120	62d6e24cf74647ef51a16300	619295404	1	main_z	7	advance_on_keypress_ZEE	66	stimuli_distractor_diamondtriangles.svg	stimuli_target_squarediamonds.svg	16	yes	57	0	382
6.6.1	win	2022-12-14	14:03:07	14:07:16	246951	62d6e24cf74647ef51a16300	619295404	1	main_z	7	main_z	67	stimuli_target_trianglecircles.svg	stimuli_distractor_diamondtriangles.svg	21	yes	44	1	797
6.6.1	win	2022-12-14	14:03:07	14:07:16	246951	62d6e24cf74647ef51a16300	619295404	1	main_z	7	advance_on_keypress_ZEE	68	stimuli_target_trianglecircles.svg	stimuli_distractor_diamondtriangles.svg	21	yes	57	0	367
6.6.1	win	2022-12-14	14:03:07	14:07:18	248773	62d6e24cf74647ef51a16300	619295404	1	main_z	7	main_z	69	stimuli_distractor_diamondtriangles.svg	stimuli_target_circlediamonds.svg	14	yes	44	1	818
6.6.1	win	2022-12-14	14:03:07	14:07:18	248773	62d6e24cf74647ef51a16300	619295404	1	main_z	7	advance_on_keypress_ZEE	70	stimuli_distractor_diamondtriangles.svg	stimuli_target_circlediamonds.svg	14	yes	57	0	386
6.6.1	win	2022-12-14	14:03:07	14:07:20	250709	62d6e24cf74647ef51a16300	619295404	1	main_z	7	main_z	71	stimuli_distractor_trianglediamonds.svg	stimuli_target_circletriangles.svg	9	yes	44	1	902
6.6.1	win	2022-12-14	14:03:07	14:07:20	250709	62d6e24cf74647ef51a16300	619295404	1	main_z	7	advance_on_keypress_ZEE	72	stimuli_distractor_trianglediamonds.svg	stimuli_target_circletriangles.svg	9	yes	57	0	382
6.6.1	win	2022-12-14	14:03:07	14:07:22	252628	62d6e24cf74647ef51a16300	619295404	1	main_z	7	main_z	73	stimuli_distractor_diamondtriangles.svg	stimuli_target_circletriangles.svg	13	yes	44	1	886
6.6.1	win	2022-12-14	14:03:07	14:07:22	252628	62d6e24cf74647ef51a16300	619295404	1	main_z	7	advance_on_keypress_ZEE	74	stimuli_distractor_diamondtriangles.svg	stimuli_target_circletriangles.svg	13	yes	57	0	352
6.6.1	win	2022-12-14	14:03:07	14:07:24	254370	62d6e24cf74647ef51a16300	619295404	1	main_z	7	main_z	75	stimuli_target_squarediamonds.svg	stimuli_distractor_diamondtriangles.svg	8	yes	44	1	743
6.6.1	win	2022-12-14	14:03:07	14:07:24	254370	62d6e24cf74647ef51a16300	619295404	1	main_z	7	advance_on_keypress_ZEE	76	stimuli_target_squarediamonds.svg	stimuli_distractor_diamondtriangles.svg	8	yes	57	0	429
6.6.1	win	2022-12-14	14:03:07	14:07:26	256325	62d6e24cf74647ef51a16300	619295404	1	main_z	7	main_z	77	stimuli_target_circlediamonds.svg	stimuli_distractor_trianglediamonds.svg	2	yes	44	1	897
6.6.1	win	2022-12-14	14:03:07	14:07:26	256325	62d6e24cf74647ef51a16300	619295404	1	main_z	7	advance_on_keypress_ZEE	78	stimuli_target_circlediamonds.svg	stimuli_distractor_trianglediamonds.svg	2	yes	57	0	426
6.6.1	win	2022-12-14	14:03:07	14:07:28	258599	62d6e24cf74647ef51a16300	619295404	1	main_z	7	main_z	79	stimuli_distractor_trianglediamonds.svg	stimuli_target_diamondsquares.svg	28	yes	44	1	1219
6.6.1	win	2022-12-14	14:03:07	14:07:28	258599	62d6e24cf74647ef51a16300	619295404	1	main_z	7	advance_on_keypress_ZEE	80	stimuli_distractor_trianglediamonds.svg	stimuli_target_diamondsquares.svg	28	yes	57	0	610
6.6.1	win	2022-12-14	14:03:07	14:07:30	260639	62d6e24cf74647ef51a16300	619295404	1	main_z	7	main_z	81	stimuli_target_squarediamonds.svg	stimuli_distractor_diamondtriangles.svg	8	yes	44	1	790
6.6.1	win	2022-12-14	14:03:07	14:07:30	260639	62d6e24cf74647ef51a16300	619295404	1	main_z	7	advance_on_keypress_ZEE	82	stimuli_target_squarediamonds.svg	stimuli_distractor_diamondtriangles.svg	8	yes	57	0	363
6.6.1	win	2022-12-14	14:03:07	14:07:32	262418	62d6e24cf74647ef51a16300	619295404	1	main_z	7	main_z	83	stimuli_target_diamondsquares.svg	stimuli_distractor_diamondtriangles.svg	24	yes	44	1	784
6.6.1	win	2022-12-14	14:03:07	14:07:32	262418	62d6e24cf74647ef51a16300	619295404	1	main_z	7	advance_on_keypress_ZEE	84	stimuli_target_diamondsquares.svg	stimuli_distractor_diamondtriangles.svg	24	yes	57	0	438
6.6.1	win	2022-12-14	14:03:07	14:07:34	264299	62d6e24cf74647ef51a16300	619295404	1	main_z	7	main_z	85	stimuli_distractor_diamondtriangles.svg	stimuli_target_circlediamonds.svg	14	yes	44	1	797
6.6.1	win	2022-12-14	14:03:07	14:07:34	264299	62d6e24cf74647ef51a16300	619295404	1	main_z	7	advance_on_keypress_ZEE	86	stimuli_distractor_diamondtriangles.svg	stimuli_target_circlediamonds.svg	14	yes	57	0	447
6.6.1	win	2022-12-14	14:03:07	14:07:36	266538	62d6e24cf74647ef51a16300	619295404	1	main_z	7	main_z	87	stimuli_distractor_trianglediamonds.svg	stimuli_target_squaretriangles.svg	11	yes	44	1	1168
6.6.1	win	2022-12-14	14:03:07	14:07:36	266538	62d6e24cf74647ef51a16300	619295404	1	main_z	7	advance_on_keypress_ZEE	88	stimuli_distractor_trianglediamonds.svg	stimuli_target_squaretriangles.svg	11	yes	57	0	508
6.6.1	win	2022-12-14	14:03:07	14:07:38	268560	62d6e24cf74647ef51a16300	619295404	1	main_z	7	main_z	89	stimuli_target_trianglesquares.svg	stimuli_distractor_trianglediamonds.svg	18	yes	44	1	871
6.6.1	win	2022-12-14	14:03:07	14:07:38	268560	62d6e24cf74647ef51a16300	619295404	1	main_z	7	advance_on_keypress_ZEE	90	stimuli_target_trianglesquares.svg	stimuli_distractor_trianglediamonds.svg	18	yes	57	0	420
6.6.1	win	2022-12-14	14:03:07	14:07:40	270407	62d6e24cf74647ef51a16300	619295404	1	main_z	7	main_z	91	stimuli_distractor_diamondtriangles.svg	stimuli_target_trianglesquares.svg	30	yes	44	1	783
6.6.1	win	2022-12-14	14:03:07	14:07:40	270407	62d6e24cf74647ef51a16300	619295404	1	main_z	7	advance_on_keypress_ZEE	92	stimuli_distractor_diamondtriangles.svg	stimuli_target_trianglesquares.svg	30	yes	57	0	591
6.6.1	win	2022-12-14	14:03:07	14:07:42	272444	62d6e24cf74647ef51a16300	619295404	1	main_z	7	main_z	93	stimuli_target_diamondcircles.svg	stimuli_distractor_diamondtriangles.svg	23	yes	44	1	802
6.6.1	win	2022-12-14	14:03:07	14:07:42	272444	62d6e24cf74647ef51a16300	619295404	1	main_z	7	advance_on_keypress_ZEE	94	stimuli_target_diamondcircles.svg	stimuli_distractor_diamondtriangles.svg	23	yes	57	0	415
6.6.1	win	2022-12-14	14:03:07	14:07:44	274240	62d6e24cf74647ef51a16300	619295404	1	main_z	7	main_z	95	stimuli_distractor_trianglediamonds.svg	stimuli_target_circlediamonds.svg	10	yes	44	1	729
6.6.1	win	2022-12-14	14:03:07	14:07:44	274240	62d6e24cf74647ef51a16300	619295404	1	main_z	7	advance_on_keypress_ZEE	96	stimuli_distractor_trianglediamonds.svg	stimuli_target_circlediamonds.svg	10	yes	57	0	429
6.6.1	win	2022-12-14	14:03:07	14:07:47	277296	62d6e24cf74647ef51a16300	619295404	1	main_z	7	main_z	97	stimuli_distractor_diamondtriangles.svg	stimuli_distractor_diamondtriangles.svg	40	no	0	1	2000
6.6.1	win	2022-12-14	14:03:07	14:07:47	277296	62d6e24cf74647ef51a16300	619295404	1	main_z	7	advance_on_keypress_ZEE	98	stimuli_distractor_diamondtriangles.svg	stimuli_distractor_diamondtriangles.svg	40	no	57	0	348
6.6.1	win	2022-12-14	14:03:07	14:07:48	278923	62d6e24cf74647ef51a16300	619295404	1	main_z	7	main_z	99	stimuli_target_squaretriangles.svg	stimuli_distractor_diamondtriangles.svg	7	yes	44	1	625
6.6.1	win	2022-12-14	14:03:07	14:07:48	278923	62d6e24cf74647ef51a16300	619295404	1	main_z	7	advance_on_keypress_ZEE	100	stimuli_target_squaretriangles.svg	stimuli_distractor_diamondtriangles.svg	7	yes	57	0	498
6.6.1	win	2022-12-14	14:03:07	14:07:50	280838	62d6e24cf74647ef51a16300	619295404	1	main_z	7	main_z	101	stimuli_distractor_trianglediamonds.svg	stimuli_target_squarediamonds.svg	12	yes	44	1	772
6.6.1	win	2022-12-14	14:03:07	14:07:50	280838	62d6e24cf74647ef51a16300	619295404	1	main_z	7	advance_on_keypress_ZEE	102	stimuli_distractor_trianglediamonds.svg	stimuli_target_squarediamonds.svg	12	yes	57	0	573
6.6.1	win	2022-12-14	14:03:07	14:07:52	282849	62d6e24cf74647ef51a16300	619295404	1	main_z	7	main_z	103	stimuli_target_diamondcircles.svg	stimuli_distractor_trianglediamonds.svg	19	yes	44	1	798
6.6.1	win	2022-12-14	14:03:07	14:07:52	282849	62d6e24cf74647ef51a16300	619295404	1	main_z	7	advance_on_keypress_ZEE	104	stimuli_target_diamondcircles.svg	stimuli_distractor_trianglediamonds.svg	19	yes	57	0	442
6.6.1	win	2022-12-14	14:03:07	14:07:54	284660	62d6e24cf74647ef51a16300	619295404	1	main_z	7	main_z	105	stimuli_target_circletriangles.svg	stimuli_distractor_trianglediamonds.svg	1	yes	44	1	740
6.6.1	win	2022-12-14	14:03:07	14:07:54	284660	62d6e24cf74647ef51a16300	619295404	1	main_z	7	advance_on_keypress_ZEE	106	stimuli_target_circletriangles.svg	stimuli_distractor_trianglediamonds.svg	1	yes	57	0	401
6.6.1	win	2022-12-14	14:03:07	14:07:56	286458	62d6e24cf74647ef51a16300	619295404	1	main_z	7	main_z	107	stimuli_distractor_diamondtriangles.svg	stimuli_target_diamondcircles.svg	31	yes	44	1	754
6.6.1	win	2022-12-14	14:03:07	14:07:56	286458	62d6e24cf74647ef51a16300	619295404	1	main_z	7	advance_on_keypress_ZEE	108	stimuli_distractor_diamondtriangles.svg	stimuli_target_diamondcircles.svg	31	yes	57	0	364
6.6.1	win	2022-12-14	14:03:07	14:07:58	288273	62d6e24cf74647ef51a16300	619295404	1	main_z	7	main_z	109	stimuli_distractor_trianglediamonds.svg	stimuli_target_trianglesquares.svg	26	yes	44	1	800
6.6.1	win	2022-12-14	14:03:07	14:07:58	288273	62d6e24cf74647ef51a16300	619295404	1	main_z	7	advance_on_keypress_ZEE	110	stimuli_distractor_trianglediamonds.svg	stimuli_target_trianglesquares.svg	26	yes	57	0	539
6.6.1	win	2022-12-14	14:03:07	14:08:01	291458	62d6e24cf74647ef51a16300	619295404	1	main_z	7	main_z	111	stimuli_distractor_trianglediamonds.svg	stimuli_distractor_trianglediamonds.svg	33	no	0	1	2000
6.6.1	win	2022-12-14	14:03:07	14:08:01	291458	62d6e24cf74647ef51a16300	619295404	1	main_z	7	advance_on_keypress_ZEE	112	stimuli_distractor_trianglediamonds.svg	stimuli_distractor_trianglediamonds.svg	33	no	57	0	337
6.6.1	win	2022-12-14	14:03:07	14:08:02	293077	62d6e24cf74647ef51a16300	619295404	1	main_z	7	main_z	113	stimuli_distractor_diamondtriangles.svg	stimuli_target_trianglecircles.svg	29	yes	44	1	633
6.6.1	win	2022-12-14	14:03:07	14:08:02	293077	62d6e24cf74647ef51a16300	619295404	1	main_z	7	advance_on_keypress_ZEE	114	stimuli_distractor_diamondtriangles.svg	stimuli_target_trianglecircles.svg	29	yes	57	0	433
6.6.1	win	2022-12-14	14:03:07	14:08:04	294824	62d6e24cf74647ef51a16300	619295404	1	main_z	7	main_z	115	stimuli_target_squarediamonds.svg	stimuli_distractor_trianglediamonds.svg	4	yes	44	1	662
6.6.1	win	2022-12-14	14:03:07	14:08:04	294824	62d6e24cf74647ef51a16300	619295404	1	main_z	7	advance_on_keypress_ZEE	116	stimuli_target_squarediamonds.svg	stimuli_distractor_trianglediamonds.svg	4	yes	57	0	414
6.6.1	win	2022-12-14	14:03:07	14:08:06	296601	62d6e24cf74647ef51a16300	619295404	1	main_z	7	main_z	117	stimuli_target_circlediamonds.svg	stimuli_distractor_diamondtriangles.svg	6	yes	44	1	738
6.6.1	win	2022-12-14	14:03:07	14:08:06	296601	62d6e24cf74647ef51a16300	619295404	1	main_z	7	advance_on_keypress_ZEE	118	stimuli_target_circlediamonds.svg	stimuli_distractor_diamondtriangles.svg	6	yes	57	0	323
6.6.1	win	2022-12-14	14:03:07	14:08:08	298276	62d6e24cf74647ef51a16300	619295404	1	main_z	7	main_z	119	stimuli_target_circlediamonds.svg	stimuli_distractor_trianglediamonds.svg	2	yes	44	1	711
6.6.1	win	2022-12-14	14:03:07	14:08:08	298276	62d6e24cf74647ef51a16300	619295404	1	main_z	7	advance_on_keypress_ZEE	120	stimuli_target_circlediamonds.svg	stimuli_distractor_trianglediamonds.svg	2	yes	57	0	452
6.6.1	win	2022-12-14	14:03:07	14:08:09	300037	62d6e24cf74647ef51a16300	619295404	1	main_z	7	main_z	121	stimuli_target_trianglesquares.svg	stimuli_distractor_diamondtriangles.svg	22	yes	44	1	670
6.6.1	win	2022-12-14	14:03:07	14:08:09	300037	62d6e24cf74647ef51a16300	619295404	1	main_z	7	advance_on_keypress_ZEE	122	stimuli_target_trianglesquares.svg	stimuli_distractor_diamondtriangles.svg	22	yes	57	0	386
6.6.1	win	2022-12-14	14:03:07	14:08:11	301699	62d6e24cf74647ef51a16300	619295404	1	main_z	7	main_z	123	stimuli_target_squaretriangles.svg	stimuli_distractor_trianglediamonds.svg	3	yes	44	1	631
6.6.1	win	2022-12-14	14:03:07	14:08:11	301699	62d6e24cf74647ef51a16300	619295404	1	main_z	7	advance_on_keypress_ZEE	124	stimuli_target_squaretriangles.svg	stimuli_distractor_trianglediamonds.svg	3	yes	57	0	426
6.6.1	win	2022-12-14	14:03:07	14:08:13	303413	62d6e24cf74647ef51a16300	619295404	1	main_z	7	main_z	125	stimuli_distractor_trianglediamonds.svg	stimuli_target_trianglecircles.svg	25	yes	44	1	661
6.6.1	win	2022-12-14	14:03:07	14:08:13	303413	62d6e24cf74647ef51a16300	619295404	1	main_z	7	advance_on_keypress_ZEE	126	stimuli_distractor_trianglediamonds.svg	stimuli_target_trianglecircles.svg	25	yes	57	0	475
6.6.1	win	2022-12-14	14:03:07	14:08:15	305252	62d6e24cf74647ef51a16300	619295404	1	main_z	7	main_z	127	stimuli_distractor_diamondtriangles.svg	stimuli_target_circletriangles.svg	13	yes	44	1	731
6.6.1	win	2022-12-14	14:03:07	14:08:15	305252	62d6e24cf74647ef51a16300	619295404	1	main_z	7	advance_on_keypress_ZEE	128	stimuli_distractor_diamondtriangles.svg	stimuli_target_circletriangles.svg	13	yes	57	0	502
6.6.1	win	2022-12-14	14:03:07	14:08:17	307281	62d6e24cf74647ef51a16300	619295404	1	main_z	7	main_z	129	stimuli_distractor_trianglediamonds.svg	stimuli_target_diamondsquares.svg	28	yes	44	1	892
6.6.1	win	2022-12-14	14:03:07	14:08:17	307281	62d6e24cf74647ef51a16300	619295404	1	main_z	7	advance_on_keypress_ZEE	130	stimuli_distractor_trianglediamonds.svg	stimuli_target_diamondsquares.svg	28	yes	57	0	370
6.6.1	win	2022-12-14	14:03:07	14:08:19	309232	62d6e24cf74647ef51a16300	619295404	1	main_z	7	main_z	131	stimuli_target_diamondsquares.svg	stimuli_distractor_trianglediamonds.svg	20	yes	44	1	942
6.6.1	win	2022-12-14	14:03:07	14:08:19	309232	62d6e24cf74647ef51a16300	619295404	1	main_z	7	advance_on_keypress_ZEE	132	stimuli_target_diamondsquares.svg	stimuli_distractor_trianglediamonds.svg	20	yes	57	0	360
6.6.1	win	2022-12-14	14:03:07	14:08:21	311233	62d6e24cf74647ef51a16300	619295404	1	main_z	7	main_z	133	stimuli_distractor_trianglediamonds.svg	stimuli_target_circletriangles.svg	9	yes	44	1	1008
6.6.1	win	2022-12-14	14:03:07	14:08:21	311233	62d6e24cf74647ef51a16300	619295404	1	main_z	7	advance_on_keypress_ZEE	134	stimuli_distractor_trianglediamonds.svg	stimuli_target_circletriangles.svg	9	yes	57	0	392
6.6.1	win	2022-12-14	14:03:07	14:08:22	313147	62d6e24cf74647ef51a16300	619295404	1	main_z	7	main_z	135	stimuli_distractor_diamondtriangles.svg	stimuli_target_squarediamonds.svg	16	yes	44	1	887
6.6.1	win	2022-12-14	14:03:07	14:08:22	313147	62d6e24cf74647ef51a16300	619295404	1	main_z	7	advance_on_keypress_ZEE	136	stimuli_distractor_diamondtriangles.svg	stimuli_target_squarediamonds.svg	16	yes	57	0	284
6.6.1	win	2022-12-14	14:03:07	14:08:25	316079	62d6e24cf74647ef51a16300	619295404	1	main_z	7	main_z	137	stimuli_distractor_diamondtriangles.svg	stimuli_distractor_diamondtriangles.svg	39	no	0	1	2000
6.6.1	win	2022-12-14	14:03:07	14:08:25	316079	62d6e24cf74647ef51a16300	619295404	1	main_z	7	advance_on_keypress_ZEE	138	stimuli_distractor_diamondtriangles.svg	stimuli_distractor_diamondtriangles.svg	39	no	57	0	399
6.6.1	win	2022-12-14	14:03:07	14:08:27	317773	62d6e24cf74647ef51a16300	619295404	1	main_z	7	main_z	139	stimuli_target_circletriangles.svg	stimuli_distractor_diamondtriangles.svg	5	yes	44	1	642
6.6.1	win	2022-12-14	14:03:07	14:08:27	317773	62d6e24cf74647ef51a16300	619295404	1	main_z	7	advance_on_keypress_ZEE	140	stimuli_target_circletriangles.svg	stimuli_distractor_diamondtriangles.svg	5	yes	57	0	455
6.6.1	win	2022-12-14	14:03:07	14:08:29	320126	62d6e24cf74647ef51a16300	619295404	1	main_z	7	main_z	141	stimuli_distractor_diamondtriangles.svg	stimuli_distractor_trianglediamonds.svg	38	no	44	0	1260
6.6.1	win	2022-12-14	14:03:07	14:08:29	320126	62d6e24cf74647ef51a16300	619295404	1	main_z	7	advance_on_keypress_ZEE	142	stimuli_distractor_diamondtriangles.svg	stimuli_distractor_trianglediamonds.svg	38	no	57	0	553
6.6.1	win	2022-12-14	14:03:07	14:08:31	322133	62d6e24cf74647ef51a16300	619295404	1	main_z	7	main_z	143	stimuli_target_trianglecircles.svg	stimuli_distractor_diamondtriangles.svg	21	yes	44	1	814
6.6.1	win	2022-12-14	14:03:07	14:08:31	322133	62d6e24cf74647ef51a16300	619295404	1	main_z	7	advance_on_keypress_ZEE	144	stimuli_target_trianglecircles.svg	stimuli_distractor_diamondtriangles.svg	21	yes	57	0	404
6.6.1	win	2022-12-14	14:03:07	14:08:34	325170	62d6e24cf74647ef51a16300	619295404	1	main_z	7	main_z	145	stimuli_distractor_diamondtriangles.svg	stimuli_distractor_trianglediamonds.svg	37	no	0	1	2000
6.6.1	win	2022-12-14	14:03:07	14:08:34	325170	62d6e24cf74647ef51a16300	619295404	1	main_z	7	advance_on_keypress_ZEE	146	stimuli_distractor_diamondtriangles.svg	stimuli_distractor_trianglediamonds.svg	37	no	57	0	473
6.6.1	win	2022-12-14	14:03:07	14:08:38	328289	62d6e24cf74647ef51a16300	619295404	1	main_z	7	main_z	147	stimuli_distractor_trianglediamonds.svg	stimuli_distractor_diamondtriangles.svg	35	no	0	1	2000
6.6.1	win	2022-12-14	14:03:07	14:08:38	328289	62d6e24cf74647ef51a16300	619295404	1	main_z	7	advance_on_keypress_ZEE	148	stimuli_distractor_trianglediamonds.svg	stimuli_distractor_diamondtriangles.svg	35	no	57	0	326
6.6.1	win	2022-12-14	14:03:07	14:08:40	330404	62d6e24cf74647ef51a16300	619295404	1	main_z	7	main_z	149	stimuli_distractor_diamondtriangles.svg	stimuli_target_squaretriangles.svg	15	yes	44	1	1146
6.6.1	win	2022-12-14	14:03:07	14:08:40	330404	62d6e24cf74647ef51a16300	619295404	1	main_z	7	advance_on_keypress_ZEE	150	stimuli_distractor_diamondtriangles.svg	stimuli_target_squaretriangles.svg	15	yes	57	0	626
6.6.1	win	2022-12-14	14:03:07	14:08:42	332429	62d6e24cf74647ef51a16300	619295404	1	main_z	7	main_z	151	stimuli_target_trianglecircles.svg	stimuli_distractor_trianglediamonds.svg	17	yes	44	1	768
6.6.1	win	2022-12-14	14:03:07	14:08:42	332429	62d6e24cf74647ef51a16300	619295404	1	main_z	7	advance_on_keypress_ZEE	152	stimuli_target_trianglecircles.svg	stimuli_distractor_trianglediamonds.svg	17	yes	57	0	382
6.6.1	win	2022-12-14	14:03:07	14:08:45	335462	62d6e24cf74647ef51a16300	619295404	1	main_z	7	main_z	153	stimuli_distractor_trianglediamonds.svg	stimuli_distractor_trianglediamonds.svg	34	no	0	1	2000
6.6.1	win	2022-12-14	14:03:07	14:08:45	335462	62d6e24cf74647ef51a16300	619295404	1	main_z	7	advance_on_keypress_ZEE	154	stimuli_distractor_trianglediamonds.svg	stimuli_distractor_trianglediamonds.svg	34	no	57	0	363
6.6.1	win	2022-12-14	14:03:07	14:08:48	338465	62d6e24cf74647ef51a16300	619295404	1	main_z	7	main_z	155	stimuli_distractor_trianglediamonds.svg	stimuli_distractor_diamondtriangles.svg	36	no	0	1	2000
6.6.1	win	2022-12-14	14:03:07	14:08:48	338465	62d6e24cf74647ef51a16300	619295404	1	main_z	7	advance_on_keypress_ZEE	156	stimuli_distractor_trianglediamonds.svg	stimuli_distractor_diamondtriangles.svg	36	no	57	0	458
6.6.1	win	2022-12-14	14:03:07	14:08:50	340322	62d6e24cf74647ef51a16300	619295404	1	main_z	7	main_z	157	stimuli_distractor_trianglediamonds.svg	stimuli_target_diamondcircles.svg	27	yes	44	1	755
6.6.1	win	2022-12-14	14:03:07	14:08:50	340322	62d6e24cf74647ef51a16300	619295404	1	main_z	7	advance_on_keypress_ZEE	158	stimuli_distractor_trianglediamonds.svg	stimuli_target_diamondcircles.svg	27	yes	57	0	398
6.6.1	win	2022-12-14	14:03:07	14:08:51	342046	62d6e24cf74647ef51a16300	619295404	1	main_z	7	main_z	159	stimuli_distractor_diamondtriangles.svg	stimuli_target_diamondsquares.svg	32	yes	44	1	677
6.6.1	win	2022-12-14	14:03:07	14:08:51	342046	62d6e24cf74647ef51a16300	619295404	1	main_z	7	advance_on_keypress_ZEE	160	stimuli_distractor_diamondtriangles.svg	stimuli_target_diamondsquares.svg	32	yes	57	0	398
6.6.1	win	2022-12-14	14:03:07	14:09:14	365179	62d6e24cf74647ef51a16300	619295404	1	practice_slash	9	practice_slash	1	stimuli_target_squarediamonds.svg	stimuli_distractor_trianglediamonds.svg	5	yes	53	1	640
6.6.1	win	2022-12-14	14:03:07	14:09:14	365179	62d6e24cf74647ef51a16300	619295404	1	practice_slash	9	advance_on_keypress_SLASH	2	stimuli_target_squarediamonds.svg	stimuli_distractor_trianglediamonds.svg	5	yes	57	0	398
6.6.1	win	2022-12-14	14:03:07	14:09:19	369225	62d6e24cf74647ef51a16300	619295404	1	practice_slash	9	practice_slash	3	stimuli_distractor_trianglediamonds.svg	stimuli_distractor_diamondtriangles.svg	16	no	0	1	2000
6.6.1	win	2022-12-14	14:03:07	14:09:19	369225	62d6e24cf74647ef51a16300	619295404	1	practice_slash	9	advance_on_keypress_SLASH	4	stimuli_distractor_trianglediamonds.svg	stimuli_distractor_diamondtriangles.svg	16	no	57	0	297
6.6.1	win	2022-12-14	14:03:07	14:09:21	371941	62d6e24cf74647ef51a16300	619295404	1	practice_slash	9	practice_slash	5	stimuli_target_squarediamonds.svg	stimuli_distractor_diamondtriangles.svg	2	yes	53	1	763
6.6.1	win	2022-12-14	14:03:07	14:09:21	371941	62d6e24cf74647ef51a16300	619295404	1	practice_slash	9	advance_on_keypress_SLASH	6	stimuli_target_squarediamonds.svg	stimuli_distractor_diamondtriangles.svg	2	yes	57	0	436
6.6.1	win	2022-12-14	14:03:07	14:09:24	374844	62d6e24cf74647ef51a16300	619295404	1	practice_slash	9	practice_slash	7	stimuli_distractor_diamondtriangles.svg	stimuli_target_diamondcircles.svg	8	yes	53	1	830
6.6.1	win	2022-12-14	14:03:07	14:09:24	374844	62d6e24cf74647ef51a16300	619295404	1	practice_slash	9	advance_on_keypress_SLASH	8	stimuli_distractor_diamondtriangles.svg	stimuli_target_diamondcircles.svg	8	yes	57	0	385
6.6.1	win	2022-12-14	14:03:07	14:09:27	377722	62d6e24cf74647ef51a16300	619295404	1	practice_slash	9	practice_slash	9	stimuli_target_circlediamonds.svg	stimuli_distractor_diamondtriangles.svg	1	yes	53	1	856
6.6.1	win	2022-12-14	14:03:07	14:09:27	377722	62d6e24cf74647ef51a16300	619295404	1	practice_slash	9	advance_on_keypress_SLASH	10	stimuli_target_circlediamonds.svg	stimuli_distractor_diamondtriangles.svg	1	yes	57	0	348
6.6.1	win	2022-12-14	14:03:07	14:09:31	381719	62d6e24cf74647ef51a16300	619295404	1	practice_slash	9	practice_slash	11	stimuli_distractor_diamondtriangles.svg	stimuli_distractor_diamondtriangles.svg	13	no	0	1	2000
6.6.1	win	2022-12-14	14:03:07	14:09:31	381719	62d6e24cf74647ef51a16300	619295404	1	practice_slash	9	advance_on_keypress_SLASH	12	stimuli_distractor_diamondtriangles.svg	stimuli_distractor_diamondtriangles.svg	13	no	57	0	318
6.6.1	win	2022-12-14	14:03:07	14:09:35	385689	62d6e24cf74647ef51a16300	619295404	1	practice_slash	9	practice_slash	13	stimuli_distractor_trianglediamonds.svg	stimuli_distractor_trianglediamonds.svg	15	no	0	1	2000
6.6.1	win	2022-12-14	14:03:07	14:09:35	385689	62d6e24cf74647ef51a16300	619295404	1	practice_slash	9	advance_on_keypress_SLASH	14	stimuli_distractor_trianglediamonds.svg	stimuli_distractor_trianglediamonds.svg	15	no	57	0	513
6.6.1	win	2022-12-14	14:03:07	14:09:38	388580	62d6e24cf74647ef51a16300	619295404	1	practice_slash	9	practice_slash	15	stimuli_distractor_trianglediamonds.svg	stimuli_target_circlediamonds.svg	10	yes	53	1	721
6.6.1	win	2022-12-14	14:03:07	14:09:38	388580	62d6e24cf74647ef51a16300	619295404	1	practice_slash	9	advance_on_keypress_SLASH	16	stimuli_distractor_trianglediamonds.svg	stimuli_target_circlediamonds.svg	10	yes	57	0	452
6.6.1	win	2022-12-14	14:03:07	14:09:41	391389	62d6e24cf74647ef51a16300	619295404	1	practice_slash	9	practice_slash	17	stimuli_distractor_trianglediamonds.svg	stimuli_target_squarediamonds.svg	11	yes	53	1	711
6.6.1	win	2022-12-14	14:03:07	14:09:41	391389	62d6e24cf74647ef51a16300	619295404	1	practice_slash	9	advance_on_keypress_SLASH	18	stimuli_distractor_trianglediamonds.svg	stimuli_target_squarediamonds.svg	11	yes	57	0	520
6.6.1	win	2022-12-14	14:03:07	14:09:44	394450	62d6e24cf74647ef51a16300	619295404	1	practice_slash	9	practice_slash	19	stimuli_target_diamondsquares.svg	stimuli_distractor_trianglediamonds.svg	6	yes	53	1	903
6.6.1	win	2022-12-14	14:03:07	14:09:44	394450	62d6e24cf74647ef51a16300	619295404	1	practice_slash	9	advance_on_keypress_SLASH	20	stimuli_target_diamondsquares.svg	stimuli_distractor_trianglediamonds.svg	6	yes	57	0	376
6.6.1	win	2022-12-14	14:03:07	14:09:47	397371	62d6e24cf74647ef51a16300	619295404	1	practice_slash	9	practice_slash	21	stimuli_distractor_trianglediamonds.svg	stimuli_target_diamondcircles.svg	12	yes	53	1	887
6.6.1	win	2022-12-14	14:03:07	14:09:47	397371	62d6e24cf74647ef51a16300	619295404	1	practice_slash	9	advance_on_keypress_SLASH	22	stimuli_distractor_trianglediamonds.svg	stimuli_target_diamondcircles.svg	12	yes	57	0	342
6.6.1	win	2022-12-14	14:03:07	14:09:49	400179	62d6e24cf74647ef51a16300	619295404	1	practice_slash	9	practice_slash	23	stimuli_target_circlediamonds.svg	stimuli_distractor_trianglediamonds.svg	4	yes	53	1	810
6.6.1	win	2022-12-14	14:03:07	14:09:49	400179	62d6e24cf74647ef51a16300	619295404	1	practice_slash	9	advance_on_keypress_SLASH	24	stimuli_target_circlediamonds.svg	stimuli_distractor_trianglediamonds.svg	4	yes	57	0	290
6.6.1	win	2022-12-14	14:03:07	14:09:52	402982	62d6e24cf74647ef51a16300	619295404	1	practice_slash	9	practice_slash	25	stimuli_target_diamondsquares.svg	stimuli_distractor_diamondtriangles.svg	3	yes	53	1	861
6.6.1	win	2022-12-14	14:03:07	14:09:52	402982	62d6e24cf74647ef51a16300	619295404	1	practice_slash	9	advance_on_keypress_SLASH	26	stimuli_target_diamondsquares.svg	stimuli_distractor_diamondtriangles.svg	3	yes	57	0	333
6.6.1	win	2022-12-14	14:03:07	14:09:56	406957	62d6e24cf74647ef51a16300	619295404	1	practice_slash	9	practice_slash	27	stimuli_distractor_diamondtriangles.svg	stimuli_distractor_trianglediamonds.svg	14	no	0	1	2000
6.6.1	win	2022-12-14	14:03:07	14:09:56	406957	62d6e24cf74647ef51a16300	619295404	1	practice_slash	9	advance_on_keypress_SLASH	28	stimuli_distractor_diamondtriangles.svg	stimuli_distractor_trianglediamonds.svg	14	no	57	0	388
6.6.1	win	2022-12-14	14:03:07	14:09:59	409806	62d6e24cf74647ef51a16300	619295404	1	practice_slash	9	practice_slash	29	stimuli_distractor_diamondtriangles.svg	stimuli_target_circletriangles.svg	7	yes	53	1	796
6.6.1	win	2022-12-14	14:03:07	14:09:59	409806	62d6e24cf74647ef51a16300	619295404	1	practice_slash	9	advance_on_keypress_SLASH	30	stimuli_distractor_diamondtriangles.svg	stimuli_target_circletriangles.svg	7	yes	57	0	495
6.6.1	win	2022-12-14	14:03:07	14:10:02	412773	62d6e24cf74647ef51a16300	619295404	1	practice_slash	9	practice_slash	31	stimuli_distractor_diamondtriangles.svg	stimuli_target_trianglecircles.svg	9	yes	53	1	827
6.6.1	win	2022-12-14	14:03:07	14:10:02	412773	62d6e24cf74647ef51a16300	619295404	1	practice_slash	9	advance_on_keypress_SLASH	32	stimuli_distractor_diamondtriangles.svg	stimuli_target_trianglecircles.svg	9	yes	57	0	409
6.6.1	win	2022-12-14	14:03:07	14:10:09	419501	62d6e24cf74647ef51a16300	619295404	1	main_slash	11	main_slash	1	stimuli_distractor_trianglediamonds.svg	stimuli_distractor_trianglediamonds.svg	33	no	0	1	2000
6.6.1	win	2022-12-14	14:03:07	14:10:09	419501	62d6e24cf74647ef51a16300	619295404	1	main_slash	11	advance_on_keypress_SLASH	2	stimuli_distractor_trianglediamonds.svg	stimuli_distractor_trianglediamonds.svg	33	no	57	0	344
6.6.1	win	2022-12-14	14:03:07	14:10:10	421150	62d6e24cf74647ef51a16300	619295404	1	main_slash	11	main_slash	3	stimuli_target_trianglesquares.svg	stimuli_distractor_trianglediamonds.svg	18	yes	53	1	663
6.6.1	win	2022-12-14	14:03:07	14:10:10	421150	62d6e24cf74647ef51a16300	619295404	1	main_slash	11	advance_on_keypress_SLASH	4	stimuli_target_trianglesquares.svg	stimuli_distractor_trianglediamonds.svg	18	yes	57	0	586
6.6.1	win	2022-12-14	14:03:07	14:10:12	423058	62d6e24cf74647ef51a16300	619295404	1	main_slash	11	main_slash	5	stimuli_target_squaretriangles.svg	stimuli_distractor_diamondtriangles.svg	7	yes	53	1	686
6.6.1	win	2022-12-14	14:03:07	14:10:12	423058	62d6e24cf74647ef51a16300	619295404	1	main_slash	11	advance_on_keypress_SLASH	6	stimuli_target_squaretriangles.svg	stimuli_distractor_diamondtriangles.svg	7	yes	57	0	354
6.6.1	win	2022-12-14	14:03:07	14:10:14	424693	62d6e24cf74647ef51a16300	619295404	1	main_slash	11	main_slash	7	stimuli_distractor_trianglediamonds.svg	stimuli_target_trianglecircles.svg	25	yes	53	1	637
6.6.1	win	2022-12-14	14:03:07	14:10:14	424693	62d6e24cf74647ef51a16300	619295404	1	main_slash	11	advance_on_keypress_SLASH	8	stimuli_distractor_trianglediamonds.svg	stimuli_target_trianglecircles.svg	25	yes	57	0	337
6.6.1	win	2022-12-14	14:03:07	14:10:16	426303	62d6e24cf74647ef51a16300	619295404	1	main_slash	11	main_slash	9	stimuli_target_diamondcircles.svg	stimuli_distractor_diamondtriangles.svg	23	yes	53	1	629
6.6.1	win	2022-12-14	14:03:07	14:10:16	426303	62d6e24cf74647ef51a16300	619295404	1	main_slash	11	advance_on_keypress_SLASH	10	stimuli_target_diamondcircles.svg	stimuli_distractor_diamondtriangles.svg	23	yes	57	0	312
6.6.1	win	2022-12-14	14:03:07	14:10:17	427851	62d6e24cf74647ef51a16300	619295404	1	main_slash	11	main_slash	11	stimuli_distractor_trianglediamonds.svg	stimuli_target_diamondsquares.svg	28	yes	53	1	609
6.6.1	win	2022-12-14	14:03:07	14:10:17	427851	62d6e24cf74647ef51a16300	619295404	1	main_slash	11	advance_on_keypress_SLASH	12	stimuli_distractor_trianglediamonds.svg	stimuli_target_diamondsquares.svg	28	yes	57	0	391
6.6.1	win	2022-12-14	14:03:07	14:10:19	429476	62d6e24cf74647ef51a16300	619295404	1	main_slash	11	main_slash	13	stimuli_distractor_trianglediamonds.svg	stimuli_target_diamondcircles.svg	27	yes	53	1	599
6.6.1	win	2022-12-14	14:03:07	14:10:19	429476	62d6e24cf74647ef51a16300	619295404	1	main_slash	11	advance_on_keypress_SLASH	14	stimuli_distractor_trianglediamonds.svg	stimuli_target_diamondcircles.svg	27	yes	57	0	408
6.6.1	win	2022-12-14	14:03:07	14:10:21	431208	62d6e24cf74647ef51a16300	619295404	1	main_slash	11	main_slash	15	stimuli_target_circlediamonds.svg	stimuli_distractor_trianglediamonds.svg	2	yes	53	1	679
6.6.1	win	2022-12-14	14:03:07	14:10:21	431208	62d6e24cf74647ef51a16300	619295404	1	main_slash	11	advance_on_keypress_SLASH	16	stimuli_target_circlediamonds.svg	stimuli_distractor_trianglediamonds.svg	2	yes	57	0	393
6.6.1	win	2022-12-14	14:03:07	14:10:22	432925	62d6e24cf74647ef51a16300	619295404	1	main_slash	11	main_slash	17	stimuli_target_squarediamonds.svg	stimuli_distractor_diamondtriangles.svg	8	yes	53	1	695
6.6.1	win	2022-12-14	14:03:07	14:10:22	432925	62d6e24cf74647ef51a16300	619295404	1	main_slash	11	advance_on_keypress_SLASH	18	stimuli_target_squarediamonds.svg	stimuli_distractor_diamondtriangles.svg	8	yes	57	0	278
6.6.1	win	2022-12-14	14:03:07	14:10:24	434516	62d6e24cf74647ef51a16300	619295404	1	main_slash	11	main_slash	19	stimuli_distractor_trianglediamonds.svg	stimuli_target_squaretriangles.svg	11	yes	53	1	684
6.6.1	win	2022-12-14	14:03:07	14:10:24	434516	62d6e24cf74647ef51a16300	619295404	1	main_slash	11	advance_on_keypress_SLASH	20	stimuli_distractor_trianglediamonds.svg	stimuli_target_squaretriangles.svg	11	yes	57	0	284
6.6.1	win	2022-12-14	14:03:07	14:10:25	436079	62d6e24cf74647ef51a16300	619295404	1	main_slash	11	main_slash	21	stimuli_distractor_diamondtriangles.svg	stimuli_target_trianglesquares.svg	30	yes	53	1	629
6.6.1	win	2022-12-14	14:03:07	14:10:25	436079	62d6e24cf74647ef51a16300	619295404	1	main_slash	11	advance_on_keypress_SLASH	22	stimuli_distractor_diamondtriangles.svg	stimuli_target_trianglesquares.svg	30	yes	57	0	331
6.6.1	win	2022-12-14	14:03:07	14:10:27	437686	62d6e24cf74647ef51a16300	619295404	1	main_slash	11	main_slash	23	stimuli_distractor_diamondtriangles.svg	stimuli_target_diamondcircles.svg	31	yes	53	1	635
6.6.1	win	2022-12-14	14:03:07	14:10:27	437686	62d6e24cf74647ef51a16300	619295404	1	main_slash	11	advance_on_keypress_SLASH	24	stimuli_distractor_diamondtriangles.svg	stimuli_target_diamondcircles.svg	31	yes	57	0	341
6.6.1	win	2022-12-14	14:03:07	14:10:29	439248	62d6e24cf74647ef51a16300	619295404	1	main_slash	11	main_slash	25	stimuli_target_diamondsquares.svg	stimuli_distractor_diamondtriangles.svg	24	yes	53	1	579
6.6.1	win	2022-12-14	14:03:07	14:10:29	439248	62d6e24cf74647ef51a16300	619295404	1	main_slash	11	advance_on_keypress_SLASH	26	stimuli_target_diamondsquares.svg	stimuli_distractor_diamondtriangles.svg	24	yes	57	0	436
6.6.1	win	2022-12-14	14:03:07	14:10:30	441063	62d6e24cf74647ef51a16300	619295404	1	main_slash	11	main_slash	27	stimuli_target_circlediamonds.svg	stimuli_distractor_diamondtriangles.svg	6	yes	53	1	743
6.6.1	win	2022-12-14	14:03:07	14:10:30	441063	62d6e24cf74647ef51a16300	619295404	1	main_slash	11	advance_on_keypress_SLASH	28	stimuli_target_circlediamonds.svg	stimuli_distractor_diamondtriangles.svg	6	yes	57	0	358
6.6.1	win	2022-12-14	14:03:07	14:10:32	442747	62d6e24cf74647ef51a16300	619295404	1	main_slash	11	main_slash	29	stimuli_distractor_diamondtriangles.svg	stimuli_target_circlediamonds.svg	14	yes	53	1	692
6.6.1	win	2022-12-14	14:03:07	14:10:32	442747	62d6e24cf74647ef51a16300	619295404	1	main_slash	11	advance_on_keypress_SLASH	30	stimuli_distractor_diamondtriangles.svg	stimuli_target_circlediamonds.svg	14	yes	57	0	447
6.6.1	win	2022-12-14	14:03:07	14:10:34	444570	62d6e24cf74647ef51a16300	619295404	1	main_slash	11	main_slash	31	stimuli_distractor_diamondtriangles.svg	stimuli_target_circletriangles.svg	13	yes	53	1	747
6.6.1	win	2022-12-14	14:03:07	14:10:34	444570	62d6e24cf74647ef51a16300	619295404	1	main_slash	11	advance_on_keypress_SLASH	32	stimuli_distractor_diamondtriangles.svg	stimuli_target_circletriangles.svg	13	yes	57	0	405
6.6.1	win	2022-12-14	14:03:07	14:10:37	447608	62d6e24cf74647ef51a16300	619295404	1	main_slash	11	main_slash	33	stimuli_distractor_diamondtriangles.svg	stimuli_distractor_diamondtriangles.svg	40	no	0	1	2000
6.6.1	win	2022-12-14	14:03:07	14:10:37	447608	62d6e24cf74647ef51a16300	619295404	1	main_slash	11	advance_on_keypress_SLASH	34	stimuli_distractor_diamondtriangles.svg	stimuli_distractor_diamondtriangles.svg	40	no	57	0	342
6.6.1	win	2022-12-14	14:03:07	14:10:39	449212	62d6e24cf74647ef51a16300	619295404	1	main_slash	11	main_slash	35	stimuli_distractor_trianglediamonds.svg	stimuli_target_circlediamonds.svg	10	yes	53	1	618
6.6.1	win	2022-12-14	14:03:07	14:10:39	449212	62d6e24cf74647ef51a16300	619295404	1	main_slash	11	advance_on_keypress_SLASH	36	stimuli_distractor_trianglediamonds.svg	stimuli_target_circlediamonds.svg	10	yes	57	0	480
6.6.1	win	2022-12-14	14:03:07	14:10:40	451018	62d6e24cf74647ef51a16300	619295404	1	main_slash	11	main_slash	37	stimuli_target_squarediamonds.svg	stimuli_distractor_trianglediamonds.svg	4	yes	53	1	689
6.6.1	win	2022-12-14	14:03:07	14:10:40	451018	62d6e24cf74647ef51a16300	619295404	1	main_slash	11	advance_on_keypress_SLASH	38	stimuli_target_squarediamonds.svg	stimuli_distractor_trianglediamonds.svg	4	yes	57	0	399
6.6.1	win	2022-12-14	14:03:07	14:10:42	452745	62d6e24cf74647ef51a16300	619295404	1	main_slash	11	main_slash	39	stimuli_distractor_diamondtriangles.svg	stimuli_target_trianglecircles.svg	29	yes	53	1	681
6.6.1	win	2022-12-14	14:03:07	14:10:42	452745	62d6e24cf74647ef51a16300	619295404	1	main_slash	11	advance_on_keypress_SLASH	40	stimuli_distractor_diamondtriangles.svg	stimuli_target_trianglecircles.svg	29	yes	57	0	414
6.6.1	win	2022-12-14	14:03:07	14:10:44	454514	62d6e24cf74647ef51a16300	619295404	1	main_slash	11	main_slash	41	stimuli_distractor_diamondtriangles.svg	stimuli_target_diamondsquares.svg	32	yes	53	1	732
6.6.1	win	2022-12-14	14:03:07	14:10:44	454514	62d6e24cf74647ef51a16300	619295404	1	main_slash	11	advance_on_keypress_SLASH	42	stimuli_distractor_diamondtriangles.svg	stimuli_target_diamondsquares.svg	32	yes	57	0	326
6.6.1	win	2022-12-14	14:03:07	14:10:45	456163	62d6e24cf74647ef51a16300	619295404	1	main_slash	11	main_slash	43	stimuli_target_diamondsquares.svg	stimuli_distractor_trianglediamonds.svg	20	yes	53	1	680
6.6.1	win	2022-12-14	14:03:07	14:10:45	456163	62d6e24cf74647ef51a16300	619295404	1	main_slash	11	advance_on_keypress_SLASH	44	stimuli_target_diamondsquares.svg	stimuli_distractor_trianglediamonds.svg	20	yes	57	0	346
6.6.1	win	2022-12-14	14:03:07	14:10:47	457869	62d6e24cf74647ef51a16300	619295404	1	main_slash	11	main_slash	45	stimuli_target_circletriangles.svg	stimuli_distractor_trianglediamonds.svg	1	yes	53	1	734
6.6.1	win	2022-12-14	14:03:07	14:10:47	457869	62d6e24cf74647ef51a16300	619295404	1	main_slash	11	advance_on_keypress_SLASH	46	stimuli_target_circletriangles.svg	stimuli_distractor_trianglediamonds.svg	1	yes	57	0	347
6.6.1	win	2022-12-14	14:03:07	14:10:50	460870	62d6e24cf74647ef51a16300	619295404	1	main_slash	11	main_slash	47	stimuli_distractor_diamondtriangles.svg	stimuli_distractor_diamondtriangles.svg	39	no	0	1	2000
6.6.1	win	2022-12-14	14:03:07	14:10:50	460870	62d6e24cf74647ef51a16300	619295404	1	main_slash	11	advance_on_keypress_SLASH	48	stimuli_distractor_diamondtriangles.svg	stimuli_distractor_diamondtriangles.svg	39	no	57	0	345
6.6.1	win	2022-12-14	14:03:07	14:10:52	462536	62d6e24cf74647ef51a16300	619295404	1	main_slash	11	main_slash	49	stimuli_target_diamondcircles.svg	stimuli_distractor_trianglediamonds.svg	19	yes	53	1	681
6.6.1	win	2022-12-14	14:03:07	14:10:52	462536	62d6e24cf74647ef51a16300	619295404	1	main_slash	11	advance_on_keypress_SLASH	50	stimuli_target_diamondcircles.svg	stimuli_distractor_trianglediamonds.svg	19	yes	57	0	412
6.6.1	win	2022-12-14	14:03:07	14:10:54	464209	62d6e24cf74647ef51a16300	619295404	1	main_slash	11	main_slash	51	stimuli_distractor_diamondtriangles.svg	stimuli_target_squarediamonds.svg	16	yes	53	1	636
6.6.1	win	2022-12-14	14:03:07	14:10:54	464209	62d6e24cf74647ef51a16300	619295404	1	main_slash	11	advance_on_keypress_SLASH	52	stimuli_distractor_diamondtriangles.svg	stimuli_target_squarediamonds.svg	16	yes	57	0	358
6.6.1	win	2022-12-14	14:03:07	14:10:55	465888	62d6e24cf74647ef51a16300	619295404	1	main_slash	11	main_slash	53	stimuli_distractor_trianglediamonds.svg	stimuli_target_circletriangles.svg	9	yes	53	1	680
6.6.1	win	2022-12-14	14:03:07	14:10:55	465888	62d6e24cf74647ef51a16300	619295404	1	main_slash	11	advance_on_keypress_SLASH	54	stimuli_distractor_trianglediamonds.svg	stimuli_target_circletriangles.svg	9	yes	57	0	375
6.6.1	win	2022-12-14	14:03:07	14:10:58	468893	62d6e24cf74647ef51a16300	619295404	1	main_slash	11	main_slash	55	stimuli_distractor_trianglediamonds.svg	stimuli_distractor_trianglediamonds.svg	34	no	0	1	2000
6.6.1	win	2022-12-14	14:03:07	14:10:58	468893	62d6e24cf74647ef51a16300	619295404	1	main_slash	11	advance_on_keypress_SLASH	56	stimuli_distractor_trianglediamonds.svg	stimuli_distractor_trianglediamonds.svg	34	no	57	0	316
6.6.1	win	2022-12-14	14:03:07	14:11:00	470266	62d6e24cf74647ef51a16300	619295404	1	main_slash	11	main_slash	57	stimuli_distractor_trianglediamonds.svg	stimuli_target_squarediamonds.svg	12	yes	53	1	404
6.6.1	win	2022-12-14	14:03:07	14:11:00	470266	62d6e24cf74647ef51a16300	619295404	1	main_slash	11	advance_on_keypress_SLASH	58	stimuli_distractor_trianglediamonds.svg	stimuli_target_squarediamonds.svg	12	yes	57	0	460
6.6.1	win	2022-12-14	14:03:07	14:11:01	471995	62d6e24cf74647ef51a16300	619295404	1	main_slash	11	main_slash	59	stimuli_target_trianglecircles.svg	stimuli_distractor_trianglediamonds.svg	17	yes	53	1	630
6.6.1	win	2022-12-14	14:03:07	14:11:01	471995	62d6e24cf74647ef51a16300	619295404	1	main_slash	11	advance_on_keypress_SLASH	60	stimuli_target_trianglecircles.svg	stimuli_distractor_trianglediamonds.svg	17	yes	57	0	353
6.6.1	win	2022-12-14	14:03:07	14:11:03	473669	62d6e24cf74647ef51a16300	619295404	1	main_slash	11	main_slash	61	stimuli_target_trianglecircles.svg	stimuli_distractor_diamondtriangles.svg	21	yes	53	1	687
6.6.1	win	2022-12-14	14:03:07	14:11:03	473669	62d6e24cf74647ef51a16300	619295404	1	main_slash	11	advance_on_keypress_SLASH	62	stimuli_target_trianglecircles.svg	stimuli_distractor_diamondtriangles.svg	21	yes	57	0	370
6.6.1	win	2022-12-14	14:03:07	14:11:05	475576	62d6e24cf74647ef51a16300	619295404	1	main_slash	11	main_slash	63	stimuli_distractor_diamondtriangles.svg	stimuli_distractor_trianglediamonds.svg	37	no	53	0	893
6.6.1	win	2022-12-14	14:03:07	14:11:05	475576	62d6e24cf74647ef51a16300	619295404	1	main_slash	11	advance_on_keypress_SLASH	64	stimuli_distractor_diamondtriangles.svg	stimuli_distractor_trianglediamonds.svg	37	no	57	0	764
6.6.1	win	2022-12-14	14:03:07	14:11:07	477674	62d6e24cf74647ef51a16300	619295404	1	main_slash	11	main_slash	65	stimuli_target_circletriangles.svg	stimuli_distractor_diamondtriangles.svg	5	yes	53	1	706
6.6.1	win	2022-12-14	14:03:07	14:11:07	477674	62d6e24cf74647ef51a16300	619295404	1	main_slash	11	advance_on_keypress_SLASH	66	stimuli_target_circletriangles.svg	stimuli_distractor_diamondtriangles.svg	5	yes	57	0	395
6.6.1	win	2022-12-14	14:03:07	14:11:09	479595	62d6e24cf74647ef51a16300	619295404	1	main_slash	11	main_slash	67	stimuli_distractor_trianglediamonds.svg	stimuli_target_trianglesquares.svg	26	yes	53	1	892
6.6.1	win	2022-12-14	14:03:07	14:11:09	479595	62d6e24cf74647ef51a16300	619295404	1	main_slash	11	advance_on_keypress_SLASH	68	stimuli_distractor_trianglediamonds.svg	stimuli_target_trianglesquares.svg	26	yes	57	0	275
6.6.1	win	2022-12-14	14:03:07	14:11:12	482505	62d6e24cf74647ef51a16300	619295404	1	main_slash	11	main_slash	69	stimuli_distractor_trianglediamonds.svg	stimuli_distractor_diamondtriangles.svg	35	no	0	1	2000
6.6.1	win	2022-12-14	14:03:07	14:11:12	482505	62d6e24cf74647ef51a16300	619295404	1	main_slash	11	advance_on_keypress_SLASH	70	stimuli_distractor_trianglediamonds.svg	stimuli_distractor_diamondtriangles.svg	35	no	57	0	342
6.6.1	win	2022-12-14	14:03:07	14:11:13	484123	62d6e24cf74647ef51a16300	619295404	1	main_slash	11	main_slash	71	stimuli_target_squaretriangles.svg	stimuli_distractor_trianglediamonds.svg	3	yes	53	1	632
6.6.1	win	2022-12-14	14:03:07	14:11:13	484123	62d6e24cf74647ef51a16300	619295404	1	main_slash	11	advance_on_keypress_SLASH	72	stimuli_target_squaretriangles.svg	stimuli_distractor_trianglediamonds.svg	3	yes	57	0	325
6.6.1	win	2022-12-14	14:03:07	14:11:16	487092	62d6e24cf74647ef51a16300	619295404	1	main_slash	11	main_slash	73	stimuli_distractor_diamondtriangles.svg	stimuli_distractor_trianglediamonds.svg	38	no	0	1	2000
6.6.1	win	2022-12-14	14:03:07	14:11:16	487092	62d6e24cf74647ef51a16300	619295404	1	main_slash	11	advance_on_keypress_SLASH	74	stimuli_distractor_diamondtriangles.svg	stimuli_distractor_trianglediamonds.svg	38	no	57	0	277
6.6.1	win	2022-12-14	14:03:07	14:11:18	488683	62d6e24cf74647ef51a16300	619295404	1	main_slash	11	main_slash	75	stimuli_target_trianglesquares.svg	stimuli_distractor_diamondtriangles.svg	22	yes	53	1	672
6.6.1	win	2022-12-14	14:03:07	14:11:18	488683	62d6e24cf74647ef51a16300	619295404	1	main_slash	11	advance_on_keypress_SLASH	76	stimuli_target_trianglesquares.svg	stimuli_distractor_diamondtriangles.svg	22	yes	57	0	336
6.6.1	win	2022-12-14	14:03:07	14:11:21	491663	62d6e24cf74647ef51a16300	619295404	1	main_slash	11	main_slash	77	stimuli_distractor_trianglediamonds.svg	stimuli_distractor_diamondtriangles.svg	36	no	0	1	2000
6.6.1	win	2022-12-14	14:03:07	14:11:21	491663	62d6e24cf74647ef51a16300	619295404	1	main_slash	11	advance_on_keypress_SLASH	78	stimuli_distractor_trianglediamonds.svg	stimuli_distractor_diamondtriangles.svg	36	no	57	0	302
6.6.1	win	2022-12-14	14:03:07	14:11:23	493374	62d6e24cf74647ef51a16300	619295404	1	main_slash	11	main_slash	79	stimuli_distractor_diamondtriangles.svg	stimuli_target_squaretriangles.svg	15	yes	53	1	759
6.6.1	win	2022-12-14	14:03:07	14:11:23	493374	62d6e24cf74647ef51a16300	619295404	1	main_slash	11	advance_on_keypress_SLASH	80	stimuli_distractor_diamondtriangles.svg	stimuli_target_squaretriangles.svg	15	yes	57	0	272
6.6.1	win	2022-12-14	14:03:07	14:11:24	495072	62d6e24cf74647ef51a16300	619295404	1	main_slash	11	main_slash	81	stimuli_distractor_diamondtriangles.svg	stimuli_target_trianglesquares.svg	30	yes	53	1	788
6.6.1	win	2022-12-14	14:03:07	14:11:24	495072	62d6e24cf74647ef51a16300	619295404	1	main_slash	11	advance_on_keypress_SLASH	82	stimuli_distractor_diamondtriangles.svg	stimuli_target_trianglesquares.svg	30	yes	57	0	234
6.6.1	win	2022-12-14	14:03:07	14:11:27	497952	62d6e24cf74647ef51a16300	619295404	1	main_slash	11	main_slash	83	stimuli_distractor_diamondtriangles.svg	stimuli_distractor_trianglediamonds.svg	37	no	0	1	2000
6.6.1	win	2022-12-14	14:03:07	14:11:27	497952	62d6e24cf74647ef51a16300	619295404	1	main_slash	11	advance_on_keypress_SLASH	84	stimuli_distractor_diamondtriangles.svg	stimuli_distractor_trianglediamonds.svg	37	no	57	0	301
6.6.1	win	2022-12-14	14:03:07	14:11:29	499695	62d6e24cf74647ef51a16300	619295404	1	main_slash	11	main_slash	85	stimuli_target_squaretriangles.svg	stimuli_distractor_diamondtriangles.svg	7	yes	53	1	791
6.6.1	win	2022-12-14	14:03:07	14:11:29	499695	62d6e24cf74647ef51a16300	619295404	1	main_slash	11	advance_on_keypress_SLASH	86	stimuli_target_squaretriangles.svg	stimuli_distractor_diamondtriangles.svg	7	yes	57	0	264
6.6.1	win	2022-12-14	14:03:07	14:11:31	501284	62d6e24cf74647ef51a16300	619295404	1	main_slash	11	main_slash	87	stimuli_distractor_trianglediamonds.svg	stimuli_target_diamondcircles.svg	27	yes	53	1	695
6.6.1	win	2022-12-14	14:03:07	14:11:31	501284	62d6e24cf74647ef51a16300	619295404	1	main_slash	11	advance_on_keypress_SLASH	88	stimuli_distractor_trianglediamonds.svg	stimuli_target_diamondcircles.svg	27	yes	57	0	330
6.6.1	win	2022-12-14	14:03:07	14:11:32	502929	62d6e24cf74647ef51a16300	619295404	1	main_slash	11	main_slash	89	stimuli_target_trianglecircles.svg	stimuli_distractor_diamondtriangles.svg	21	yes	53	1	688
6.6.1	win	2022-12-14	14:03:07	14:11:32	502929	62d6e24cf74647ef51a16300	619295404	1	main_slash	11	advance_on_keypress_SLASH	90	stimuli_target_trianglecircles.svg	stimuli_distractor_diamondtriangles.svg	21	yes	57	0	289
6.6.1	win	2022-12-14	14:03:07	14:11:34	504618	62d6e24cf74647ef51a16300	619295404	1	main_slash	11	main_slash	91	stimuli_distractor_diamondtriangles.svg	stimuli_target_circletriangles.svg	13	yes	53	1	759
6.6.1	win	2022-12-14	14:03:07	14:11:34	504618	62d6e24cf74647ef51a16300	619295404	1	main_slash	11	advance_on_keypress_SLASH	92	stimuli_distractor_diamondtriangles.svg	stimuli_target_circletriangles.svg	13	yes	57	0	341
6.6.1	win	2022-12-14	14:03:07	14:11:36	506411	62d6e24cf74647ef51a16300	619295404	1	main_slash	11	main_slash	93	stimuli_target_circlediamonds.svg	stimuli_distractor_trianglediamonds.svg	2	yes	53	1	818
6.6.1	win	2022-12-14	14:03:07	14:11:36	506411	62d6e24cf74647ef51a16300	619295404	1	main_slash	11	advance_on_keypress_SLASH	94	stimuli_target_circlediamonds.svg	stimuli_distractor_trianglediamonds.svg	2	yes	57	0	227
6.6.1	win	2022-12-14	14:03:07	14:11:37	508006	62d6e24cf74647ef51a16300	619295404	1	main_slash	11	main_slash	95	stimuli_distractor_trianglediamonds.svg	stimuli_target_trianglesquares.svg	26	yes	53	1	728
6.6.1	win	2022-12-14	14:03:07	14:11:37	508006	62d6e24cf74647ef51a16300	619295404	1	main_slash	11	advance_on_keypress_SLASH	96	stimuli_distractor_trianglediamonds.svg	stimuli_target_trianglesquares.svg	26	yes	57	0	323
6.6.1	win	2022-12-14	14:03:07	14:11:39	509616	62d6e24cf74647ef51a16300	619295404	1	main_slash	11	main_slash	97	stimuli_target_diamondcircles.svg	stimuli_distractor_trianglediamonds.svg	19	yes	53	1	654
6.6.1	win	2022-12-14	14:03:07	14:11:39	509616	62d6e24cf74647ef51a16300	619295404	1	main_slash	11	advance_on_keypress_SLASH	98	stimuli_target_diamondcircles.svg	stimuli_distractor_trianglediamonds.svg	19	yes	57	0	325
6.6.1	win	2022-12-14	14:03:07	14:11:41	511284	62d6e24cf74647ef51a16300	619295404	1	main_slash	11	main_slash	99	stimuli_target_squarediamonds.svg	stimuli_distractor_diamondtriangles.svg	8	yes	53	1	704
6.6.1	win	2022-12-14	14:03:07	14:11:41	511284	62d6e24cf74647ef51a16300	619295404	1	main_slash	11	advance_on_keypress_SLASH	100	stimuli_target_squarediamonds.svg	stimuli_distractor_diamondtriangles.svg	8	yes	57	0	233
6.6.1	win	2022-12-14	14:03:07	14:11:42	512910	62d6e24cf74647ef51a16300	619295404	1	main_slash	11	main_slash	101	stimuli_distractor_diamondtriangles.svg	stimuli_target_diamondsquares.svg	32	yes	53	1	745
6.6.1	win	2022-12-14	14:03:07	14:11:42	512910	62d6e24cf74647ef51a16300	619295404	1	main_slash	11	advance_on_keypress_SLASH	102	stimuli_distractor_diamondtriangles.svg	stimuli_target_diamondsquares.svg	32	yes	57	0	344
6.6.1	win	2022-12-14	14:03:07	14:11:44	514677	62d6e24cf74647ef51a16300	619295404	1	main_slash	11	main_slash	103	stimuli_target_trianglesquares.svg	stimuli_distractor_diamondtriangles.svg	22	yes	53	1	794
6.6.1	win	2022-12-14	14:03:07	14:11:44	514677	62d6e24cf74647ef51a16300	619295404	1	main_slash	11	advance_on_keypress_SLASH	104	stimuli_target_trianglesquares.svg	stimuli_distractor_diamondtriangles.svg	22	yes	57	0	282
6.6.1	win	2022-12-14	14:03:07	14:11:46	516326	62d6e24cf74647ef51a16300	619295404	1	main_slash	11	main_slash	105	stimuli_distractor_trianglediamonds.svg	stimuli_target_circletriangles.svg	9	yes	53	1	725
6.6.1	win	2022-12-14	14:03:07	14:11:46	516326	62d6e24cf74647ef51a16300	619295404	1	main_slash	11	advance_on_keypress_SLASH	106	stimuli_distractor_trianglediamonds.svg	stimuli_target_circletriangles.svg	9	yes	57	0	360
6.6.1	win	2022-12-14	14:03:07	14:11:47	518100	62d6e24cf74647ef51a16300	619295404	1	main_slash	11	main_slash	107	stimuli_distractor_trianglediamonds.svg	stimuli_target_diamondsquares.svg	28	yes	53	1	780
6.6.1	win	2022-12-14	14:03:07	14:11:47	518100	62d6e24cf74647ef51a16300	619295404	1	main_slash	11	advance_on_keypress_SLASH	108	stimuli_distractor_trianglediamonds.svg	stimuli_target_diamondsquares.svg	28	yes	57	0	303
6.6.1	win	2022-12-14	14:03:07	14:11:49	519677	62d6e24cf74647ef51a16300	619295404	1	main_slash	11	main_slash	109	stimuli_distractor_diamondtriangles.svg	stimuli_target_squarediamonds.svg	16	yes	53	1	639
6.6.1	win	2022-12-14	14:03:07	14:11:49	519677	62d6e24cf74647ef51a16300	619295404	1	main_slash	11	advance_on_keypress_SLASH	110	stimuli_distractor_diamondtriangles.svg	stimuli_target_squarediamonds.svg	16	yes	57	0	375
6.6.1	win	2022-12-14	14:03:07	14:11:51	521225	62d6e24cf74647ef51a16300	619295404	1	main_slash	11	main_slash	111	stimuli_target_circletriangles.svg	stimuli_distractor_diamondtriangles.svg	5	yes	53	1	536
6.6.1	win	2022-12-14	14:03:07	14:11:51	521225	62d6e24cf74647ef51a16300	619295404	1	main_slash	11	advance_on_keypress_SLASH	112	stimuli_target_circletriangles.svg	stimuli_distractor_diamondtriangles.svg	5	yes	57	0	339
6.6.1	win	2022-12-14	14:03:07	14:11:52	522845	62d6e24cf74647ef51a16300	619295404	1	main_slash	11	main_slash	113	stimuli_target_squaretriangles.svg	stimuli_distractor_trianglediamonds.svg	3	yes	53	1	638
6.6.1	win	2022-12-14	14:03:07	14:11:52	522845	62d6e24cf74647ef51a16300	619295404	1	main_slash	11	advance_on_keypress_SLASH	114	stimuli_target_squaretriangles.svg	stimuli_distractor_trianglediamonds.svg	3	yes	57	0	394
6.6.1	win	2022-12-14	14:03:07	14:11:54	524597	62d6e24cf74647ef51a16300	619295404	1	main_slash	11	main_slash	115	stimuli_target_diamondsquares.svg	stimuli_distractor_diamondtriangles.svg	24	yes	53	1	722
6.6.1	win	2022-12-14	14:03:07	14:11:54	524597	62d6e24cf74647ef51a16300	619295404	1	main_slash	11	advance_on_keypress_SLASH	116	stimuli_target_diamondsquares.svg	stimuli_distractor_diamondtriangles.svg	24	yes	57	0	321
6.6.1	win	2022-12-14	14:03:07	14:11:56	526241	62d6e24cf74647ef51a16300	619295404	1	main_slash	11	main_slash	117	stimuli_target_trianglecircles.svg	stimuli_distractor_trianglediamonds.svg	17	yes	53	1	681
6.6.1	win	2022-12-14	14:03:07	14:11:56	526241	62d6e24cf74647ef51a16300	619295404	1	main_slash	11	advance_on_keypress_SLASH	118	stimuli_target_trianglecircles.svg	stimuli_distractor_trianglediamonds.svg	17	yes	57	0	430
6.6.1	win	2022-12-14	14:03:07	14:11:57	528149	62d6e24cf74647ef51a16300	619295404	1	main_slash	11	main_slash	119	stimuli_distractor_trianglediamonds.svg	stimuli_target_trianglecircles.svg	25	yes	53	1	854
6.6.1	win	2022-12-14	14:03:07	14:11:57	528149	62d6e24cf74647ef51a16300	619295404	1	main_slash	11	advance_on_keypress_SLASH	120	stimuli_distractor_trianglediamonds.svg	stimuli_target_trianglecircles.svg	25	yes	57	0	258
6.6.1	win	2022-12-14	14:03:07	14:11:59	529858	62d6e24cf74647ef51a16300	619295404	1	main_slash	11	main_slash	121	stimuli_distractor_trianglediamonds.svg	stimuli_target_squaretriangles.svg	11	yes	53	1	812
6.6.1	win	2022-12-14	14:03:07	14:11:59	529858	62d6e24cf74647ef51a16300	619295404	1	main_slash	11	advance_on_keypress_SLASH	122	stimuli_distractor_trianglediamonds.svg	stimuli_target_squaretriangles.svg	11	yes	57	0	305
6.6.1	win	2022-12-14	14:03:07	14:12:01	531629	62d6e24cf74647ef51a16300	619295404	1	main_slash	11	main_slash	123	stimuli_target_circlediamonds.svg	stimuli_distractor_diamondtriangles.svg	6	yes	53	1	831
6.6.1	win	2022-12-14	14:03:07	14:12:01	531629	62d6e24cf74647ef51a16300	619295404	1	main_slash	11	advance_on_keypress_SLASH	124	stimuli_target_circlediamonds.svg	stimuli_distractor_diamondtriangles.svg	6	yes	57	0	291
6.6.1	win	2022-12-14	14:03:07	14:12:04	534566	62d6e24cf74647ef51a16300	619295404	1	main_slash	11	main_slash	125	stimuli_distractor_diamondtriangles.svg	stimuli_distractor_diamondtriangles.svg	39	no	0	1	2000
6.6.1	win	2022-12-14	14:03:07	14:12:04	534566	62d6e24cf74647ef51a16300	619295404	1	main_slash	11	advance_on_keypress_SLASH	126	stimuli_distractor_diamondtriangles.svg	stimuli_distractor_diamondtriangles.svg	39	no	57	0	402
6.6.1	win	2022-12-14	14:03:07	14:12:06	536254	62d6e24cf74647ef51a16300	619295404	1	main_slash	11	main_slash	127	stimuli_distractor_diamondtriangles.svg	stimuli_target_diamondcircles.svg	31	yes	53	1	635
6.6.1	win	2022-12-14	14:03:07	14:12:06	536254	62d6e24cf74647ef51a16300	619295404	1	main_slash	11	advance_on_keypress_SLASH	128	stimuli_distractor_diamondtriangles.svg	stimuli_target_diamondcircles.svg	31	yes	57	0	357
6.6.1	win	2022-12-14	14:03:07	14:12:07	538037	62d6e24cf74647ef51a16300	619295404	1	main_slash	11	main_slash	129	stimuli_target_diamondsquares.svg	stimuli_distractor_trianglediamonds.svg	20	yes	53	1	784
6.6.1	win	2022-12-14	14:03:07	14:12:07	538037	62d6e24cf74647ef51a16300	619295404	1	main_slash	11	advance_on_keypress_SLASH	130	stimuli_target_diamondsquares.svg	stimuli_distractor_trianglediamonds.svg	20	yes	57	0	445
6.6.1	win	2022-12-14	14:03:07	14:12:09	539847	62d6e24cf74647ef51a16300	619295404	1	main_slash	11	main_slash	131	stimuli_distractor_diamondtriangles.svg	stimuli_target_squaretriangles.svg	15	yes	53	1	724
6.6.1	win	2022-12-14	14:03:07	14:12:09	539847	62d6e24cf74647ef51a16300	619295404	1	main_slash	11	advance_on_keypress_SLASH	132	stimuli_distractor_diamondtriangles.svg	stimuli_target_squaretriangles.svg	15	yes	57	0	314
6.6.1	win	2022-12-14	14:03:07	14:12:11	541396	62d6e24cf74647ef51a16300	619295404	1	main_slash	11	main_slash	133	stimuli_target_squarediamonds.svg	stimuli_distractor_trianglediamonds.svg	4	yes	53	1	606
6.6.1	win	2022-12-14	14:03:07	14:12:11	541396	62d6e24cf74647ef51a16300	619295404	1	main_slash	11	advance_on_keypress_SLASH	134	stimuli_target_squarediamonds.svg	stimuli_distractor_trianglediamonds.svg	4	yes	57	0	391
6.6.1	win	2022-12-14	14:03:07	14:12:12	543061	62d6e24cf74647ef51a16300	619295404	1	main_slash	11	main_slash	135	stimuli_target_circletriangles.svg	stimuli_distractor_trianglediamonds.svg	1	yes	53	1	637
6.6.1	win	2022-12-14	14:03:07	14:12:12	543061	62d6e24cf74647ef51a16300	619295404	1	main_slash	11	advance_on_keypress_SLASH	136	stimuli_target_circletriangles.svg	stimuli_distractor_trianglediamonds.svg	1	yes	57	0	342
6.6.1	win	2022-12-14	14:03:07	14:12:14	544644	62d6e24cf74647ef51a16300	619295404	1	main_slash	11	main_slash	137	stimuli_distractor_diamondtriangles.svg	stimuli_target_trianglecircles.svg	29	yes	53	1	602
6.6.1	win	2022-12-14	14:03:07	14:12:14	544644	62d6e24cf74647ef51a16300	619295404	1	main_slash	11	advance_on_keypress_SLASH	138	stimuli_distractor_diamondtriangles.svg	stimuli_target_trianglecircles.svg	29	yes	57	0	351
6.6.1	win	2022-12-14	14:03:07	14:12:17	547644	62d6e24cf74647ef51a16300	619295404	1	main_slash	11	main_slash	139	stimuli_distractor_trianglediamonds.svg	stimuli_distractor_diamondtriangles.svg	35	no	0	1	2000
6.6.1	win	2022-12-14	14:03:07	14:12:17	547644	62d6e24cf74647ef51a16300	619295404	1	main_slash	11	advance_on_keypress_SLASH	140	stimuli_distractor_trianglediamonds.svg	stimuli_distractor_diamondtriangles.svg	35	no	57	0	293
6.6.1	win	2022-12-14	14:03:07	14:12:20	550580	62d6e24cf74647ef51a16300	619295404	1	main_slash	11	main_slash	141	stimuli_distractor_trianglediamonds.svg	stimuli_distractor_trianglediamonds.svg	33	no	0	1	2000
6.6.1	win	2022-12-14	14:03:07	14:12:20	550580	62d6e24cf74647ef51a16300	619295404	1	main_slash	11	advance_on_keypress_SLASH	142	stimuli_distractor_trianglediamonds.svg	stimuli_distractor_trianglediamonds.svg	33	no	57	0	293
6.6.1	win	2022-12-14	14:03:07	14:12:21	552042	62d6e24cf74647ef51a16300	619295404	1	main_slash	11	main_slash	143	stimuli_distractor_trianglediamonds.svg	stimuli_target_circlediamonds.svg	10	yes	53	1	526
6.6.1	win	2022-12-14	14:03:07	14:12:21	552042	62d6e24cf74647ef51a16300	619295404	1	main_slash	11	advance_on_keypress_SLASH	144	stimuli_distractor_trianglediamonds.svg	stimuli_target_circlediamonds.svg	10	yes	57	0	671
6.6.1	win	2022-12-14	14:03:07	14:12:25	555351	62d6e24cf74647ef51a16300	619295404	1	main_slash	11	main_slash	145	stimuli_distractor_trianglediamonds.svg	stimuli_distractor_trianglediamonds.svg	34	no	0	1	2000
6.6.1	win	2022-12-14	14:03:07	14:12:25	555351	62d6e24cf74647ef51a16300	619295404	1	main_slash	11	advance_on_keypress_SLASH	146	stimuli_distractor_trianglediamonds.svg	stimuli_distractor_trianglediamonds.svg	34	no	57	0	328
6.6.1	win	2022-12-14	14:03:07	14:12:28	558320	62d6e24cf74647ef51a16300	619295404	1	main_slash	11	main_slash	147	stimuli_distractor_diamondtriangles.svg	stimuli_distractor_diamondtriangles.svg	40	no	0	1	2000
6.6.1	win	2022-12-14	14:03:07	14:12:28	558320	62d6e24cf74647ef51a16300	619295404	1	main_slash	11	advance_on_keypress_SLASH	148	stimuli_distractor_diamondtriangles.svg	stimuli_distractor_diamondtriangles.svg	40	no	57	0	299
6.6.1	win	2022-12-14	14:03:07	14:12:29	560097	62d6e24cf74647ef51a16300	619295404	1	main_slash	11	main_slash	149	stimuli_target_trianglesquares.svg	stimuli_distractor_trianglediamonds.svg	18	yes	53	1	825
6.6.1	win	2022-12-14	14:03:07	14:12:29	560097	62d6e24cf74647ef51a16300	619295404	1	main_slash	11	advance_on_keypress_SLASH	150	stimuli_target_trianglesquares.svg	stimuli_distractor_trianglediamonds.svg	18	yes	57	0	268
6.6.1	win	2022-12-14	14:03:07	14:12:32	563007	62d6e24cf74647ef51a16300	619295404	1	main_slash	11	main_slash	151	stimuli_distractor_trianglediamonds.svg	stimuli_distractor_diamondtriangles.svg	36	no	0	1	2000
6.6.1	win	2022-12-14	14:03:07	14:12:32	563007	62d6e24cf74647ef51a16300	619295404	1	main_slash	11	advance_on_keypress_SLASH	152	stimuli_distractor_trianglediamonds.svg	stimuli_distractor_diamondtriangles.svg	36	no	57	0	300
6.6.1	win	2022-12-14	14:03:07	14:12:34	564758	62d6e24cf74647ef51a16300	619295404	1	main_slash	11	main_slash	153	stimuli_target_diamondcircles.svg	stimuli_distractor_diamondtriangles.svg	23	yes	53	1	798
6.6.1	win	2022-12-14	14:03:07	14:12:34	564758	62d6e24cf74647ef51a16300	619295404	1	main_slash	11	advance_on_keypress_SLASH	154	stimuli_target_diamondcircles.svg	stimuli_distractor_diamondtriangles.svg	23	yes	57	0	304
6.6.1	win	2022-12-14	14:03:07	14:12:36	566464	62d6e24cf74647ef51a16300	619295404	1	main_slash	11	main_slash	155	stimuli_distractor_trianglediamonds.svg	stimuli_target_squarediamonds.svg	12	yes	53	1	753
6.6.1	win	2022-12-14	14:03:07	14:12:36	566464	62d6e24cf74647ef51a16300	619295404	1	main_slash	11	advance_on_keypress_SLASH	156	stimuli_distractor_trianglediamonds.svg	stimuli_target_squarediamonds.svg	12	yes	57	0	260
6.6.1	win	2022-12-14	14:03:07	14:12:39	569363	62d6e24cf74647ef51a16300	619295404	1	main_slash	11	main_slash	157	stimuli_distractor_diamondtriangles.svg	stimuli_distractor_trianglediamonds.svg	38	no	0	1	2000
6.6.1	win	2022-12-14	14:03:07	14:12:39	569363	62d6e24cf74647ef51a16300	619295404	1	main_slash	11	advance_on_keypress_SLASH	158	stimuli_distractor_diamondtriangles.svg	stimuli_distractor_trianglediamonds.svg	38	no	57	0	378
6.6.1	win	2022-12-14	14:03:07	14:12:41	571447	62d6e24cf74647ef51a16300	619295404	1	main_slash	11	main_slash	159	stimuli_distractor_diamondtriangles.svg	stimuli_target_circlediamonds.svg	14	yes	53	1	1065
6.6.1	win	2022-12-14	14:03:07	14:12:41	571447	62d6e24cf74647ef51a16300	619295404	1	main_slash	11	advance_on_keypress_SLASH	160	stimuli_distractor_diamondtriangles.svg	stimuli_target_circlediamonds.svg	14	yes	57	0	539