build	computer.platform	date	time	timestamp	time_elapsed_ms	subject	group	session	blockcode	blocknum	trialcode	trialnum	stimulus_left	stimulus_right	stim_index	target_present	response	correct	latency
6.6.1	mac	2022-12-30	02:30:49	02:32:27	97117	60fe07f8bf59907b6249b488	267952585	1	practice_slash	5	practice_slash	1	stimuli_target_squarediamonds.svg	stimuli_distractor_diamondtriangles.svg	2	yes	53	1	1115
6.6.1	mac	2022-12-30	02:30:49	02:32:27	97117	60fe07f8bf59907b6249b488	267952585	1	practice_slash	5	advance_on_keypress_SLASH	2	stimuli_target_squarediamonds.svg	stimuli_distractor_diamondtriangles.svg	2	yes	57	0	3518
6.6.1	mac	2022-12-30	02:30:49	02:32:33	102659	60fe07f8bf59907b6249b488	267952585	1	practice_slash	5	practice_slash	3	stimuli_distractor_diamondtriangles.svg	stimuli_target_circletriangles.svg	7	yes	53	1	354
6.6.1	mac	2022-12-30	02:30:49	02:32:33	102659	60fe07f8bf59907b6249b488	267952585	1	practice_slash	5	advance_on_keypress_SLASH	4	stimuli_distractor_diamondtriangles.svg	stimuli_target_circletriangles.svg	7	yes	57	0	951
6.6.1	mac	2022-12-30	02:30:49	02:32:36	105584	60fe07f8bf59907b6249b488	267952585	1	practice_slash	5	practice_slash	5	stimuli_distractor_trianglediamonds.svg	stimuli_target_squarediamonds.svg	11	yes	53	1	341
6.6.1	mac	2022-12-30	02:30:49	02:32:36	105584	60fe07f8bf59907b6249b488	267952585	1	practice_slash	5	advance_on_keypress_SLASH	6	stimuli_distractor_trianglediamonds.svg	stimuli_target_squarediamonds.svg	11	yes	57	0	674
6.6.1	mac	2022-12-30	02:30:49	02:32:40	109915	60fe07f8bf59907b6249b488	267952585	1	practice_slash	5	practice_slash	7	stimuli_distractor_diamondtriangles.svg	stimuli_target_trianglecircles.svg	9	yes	0	0	2000
6.6.1	mac	2022-12-30	02:30:49	02:32:40	109915	60fe07f8bf59907b6249b488	267952585	1	practice_slash	5	advance_on_keypress_SLASH	8	stimuli_distractor_diamondtriangles.svg	stimuli_target_trianglecircles.svg	9	yes	57	0	642
6.6.1	mac	2022-12-30	02:30:49	02:32:43	112927	60fe07f8bf59907b6249b488	267952585	1	practice_slash	5	practice_slash	9	stimuli_target_squarediamonds.svg	stimuli_distractor_trianglediamonds.svg	5	yes	53	1	727
6.6.1	mac	2022-12-30	02:30:49	02:32:43	112927	60fe07f8bf59907b6249b488	267952585	1	practice_slash	5	advance_on_keypress_SLASH	10	stimuli_target_squarediamonds.svg	stimuli_distractor_trianglediamonds.svg	5	yes	57	0	591
6.6.1	mac	2022-12-30	02:30:49	02:32:46	115752	60fe07f8bf59907b6249b488	267952585	1	practice_slash	5	practice_slash	11	stimuli_target_diamondsquares.svg	stimuli_distractor_diamondtriangles.svg	3	yes	53	1	574
6.6.1	mac	2022-12-30	02:30:49	02:32:46	115752	60fe07f8bf59907b6249b488	267952585	1	practice_slash	5	advance_on_keypress_SLASH	12	stimuli_target_diamondsquares.svg	stimuli_distractor_diamondtriangles.svg	3	yes	57	0	1143
6.6.1	mac	2022-12-30	02:30:49	02:32:49	118883	60fe07f8bf59907b6249b488	267952585	1	practice_slash	5	practice_slash	13	stimuli_distractor_trianglediamonds.svg	stimuli_target_circlediamonds.svg	10	yes	53	1	341
6.6.1	mac	2022-12-30	02:30:49	02:32:49	118883	60fe07f8bf59907b6249b488	267952585	1	practice_slash	5	advance_on_keypress_SLASH	14	stimuli_distractor_trianglediamonds.svg	stimuli_target_circlediamonds.svg	10	yes	57	0	1369
6.6.1	mac	2022-12-30	02:30:49	02:32:52	122268	60fe07f8bf59907b6249b488	267952585	1	practice_slash	5	practice_slash	15	stimuli_target_circlediamonds.svg	stimuli_distractor_trianglediamonds.svg	4	yes	53	1	355
6.6.1	mac	2022-12-30	02:30:49	02:32:52	122268	60fe07f8bf59907b6249b488	267952585	1	practice_slash	5	advance_on_keypress_SLASH	16	stimuli_target_circlediamonds.svg	stimuli_distractor_trianglediamonds.svg	4	yes	57	0	592
6.6.1	mac	2022-12-30	02:30:49	02:32:55	124850	60fe07f8bf59907b6249b488	267952585	1	practice_slash	5	practice_slash	17	stimuli_distractor_trianglediamonds.svg	stimuli_distractor_diamondtriangles.svg	16	no	53	0	353
6.6.1	mac	2022-12-30	02:30:49	02:32:55	124850	60fe07f8bf59907b6249b488	267952585	1	practice_slash	5	advance_on_keypress_SLASH	18	stimuli_distractor_trianglediamonds.svg	stimuli_distractor_diamondtriangles.svg	16	no	57	0	457
6.6.1	mac	2022-12-30	02:30:49	02:32:57	127257	60fe07f8bf59907b6249b488	267952585	1	practice_slash	5	practice_slash	19	stimuli_distractor_trianglediamonds.svg	stimuli_distractor_trianglediamonds.svg	15	no	53	0	309
6.6.1	mac	2022-12-30	02:30:49	02:32:57	127257	60fe07f8bf59907b6249b488	267952585	1	practice_slash	5	advance_on_keypress_SLASH	20	stimuli_distractor_trianglediamonds.svg	stimuli_distractor_trianglediamonds.svg	15	no	57	0	11
6.6.1	mac	2022-12-30	02:30:49	02:33:00	129636	60fe07f8bf59907b6249b488	267952585	1	practice_slash	5	practice_slash	21	stimuli_target_circlediamonds.svg	stimuli_distractor_diamondtriangles.svg	1	yes	53	1	734
6.6.1	mac	2022-12-30	02:30:49	02:33:00	129636	60fe07f8bf59907b6249b488	267952585	1	practice_slash	5	advance_on_keypress_SLASH	22	stimuli_target_circlediamonds.svg	stimuli_distractor_diamondtriangles.svg	1	yes	57	0	517
6.6.1	mac	2022-12-30	02:30:49	02:33:04	133820	60fe07f8bf59907b6249b488	267952585	1	practice_slash	5	practice_slash	23	stimuli_distractor_diamondtriangles.svg	stimuli_distractor_trianglediamonds.svg	14	no	0	1	2000
6.6.1	mac	2022-12-30	02:30:49	02:33:04	133820	60fe07f8bf59907b6249b488	267952585	1	practice_slash	5	advance_on_keypress_SLASH	24	stimuli_distractor_diamondtriangles.svg	stimuli_distractor_trianglediamonds.svg	14	no	57	0	613
6.6.1	mac	2022-12-30	02:30:49	02:33:07	136794	60fe07f8bf59907b6249b488	267952585	1	practice_slash	5	practice_slash	25	stimuli_distractor_trianglediamonds.svg	stimuli_target_diamondcircles.svg	12	yes	53	1	721
6.6.1	mac	2022-12-30	02:30:49	02:33:07	136794	60fe07f8bf59907b6249b488	267952585	1	practice_slash	5	advance_on_keypress_SLASH	26	stimuli_distractor_trianglediamonds.svg	stimuli_target_diamondcircles.svg	12	yes	57	0	533
6.6.1	mac	2022-12-30	02:30:49	02:33:10	139650	60fe07f8bf59907b6249b488	267952585	1	practice_slash	5	practice_slash	27	stimuli_target_diamondsquares.svg	stimuli_distractor_trianglediamonds.svg	6	yes	53	1	691
6.6.1	mac	2022-12-30	02:30:49	02:33:10	139650	60fe07f8bf59907b6249b488	267952585	1	practice_slash	5	advance_on_keypress_SLASH	28	stimuli_target_diamondsquares.svg	stimuli_distractor_trianglediamonds.svg	6	yes	57	0	1010
6.6.1	mac	2022-12-30	02:30:49	02:33:13	142743	60fe07f8bf59907b6249b488	267952585	1	practice_slash	5	practice_slash	29	stimuli_distractor_diamondtriangles.svg	stimuli_target_diamondcircles.svg	8	yes	53	1	449
6.6.1	mac	2022-12-30	02:30:49	02:33:13	142743	60fe07f8bf59907b6249b488	267952585	1	practice_slash	5	advance_on_keypress_SLASH	30	stimuli_distractor_diamondtriangles.svg	stimuli_target_diamondcircles.svg	8	yes	57	0	723
6.6.1	mac	2022-12-30	02:30:49	02:33:15	145358	60fe07f8bf59907b6249b488	267952585	1	practice_slash	5	practice_slash	31	stimuli_distractor_diamondtriangles.svg	stimuli_distractor_diamondtriangles.svg	13	no	53	0	254
6.6.1	mac	2022-12-30	02:30:49	02:33:15	145358	60fe07f8bf59907b6249b488	267952585	1	practice_slash	5	advance_on_keypress_SLASH	32	stimuli_distractor_diamondtriangles.svg	stimuli_distractor_diamondtriangles.svg	13	no	57	0	577
6.6.1	mac	2022-12-30	02:30:49	02:33:26	156004	60fe07f8bf59907b6249b488	267952585	1	main_slash	7	main_slash	1	stimuli_target_squarediamonds.svg	stimuli_distractor_diamondtriangles.svg	8	yes	53	1	678
6.6.1	mac	2022-12-30	02:30:49	02:33:26	156004	60fe07f8bf59907b6249b488	267952585	1	main_slash	7	advance_on_keypress_SLASH	2	stimuli_target_squarediamonds.svg	stimuli_distractor_diamondtriangles.svg	8	yes	57	0	4527
6.6.1	mac	2022-12-30	02:30:49	02:33:32	161539	60fe07f8bf59907b6249b488	267952585	1	main_slash	7	main_slash	3	stimuli_distractor_diamondtriangles.svg	stimuli_target_diamondsquares.svg	32	yes	53	1	341
6.6.1	mac	2022-12-30	02:30:49	02:33:32	161539	60fe07f8bf59907b6249b488	267952585	1	main_slash	7	advance_on_keypress_SLASH	4	stimuli_distractor_diamondtriangles.svg	stimuli_target_diamondsquares.svg	32	yes	57	0	1676
6.6.1	mac	2022-12-30	02:30:49	02:33:34	164172	60fe07f8bf59907b6249b488	267952585	1	main_slash	7	main_slash	5	stimuli_distractor_diamondtriangles.svg	stimuli_target_squarediamonds.svg	16	yes	53	1	320
6.6.1	mac	2022-12-30	02:30:49	02:33:34	164172	60fe07f8bf59907b6249b488	267952585	1	main_slash	7	advance_on_keypress_SLASH	6	stimuli_distractor_diamondtriangles.svg	stimuli_target_squarediamonds.svg	16	yes	57	0	1104
6.6.1	mac	2022-12-30	02:30:49	02:33:36	166350	60fe07f8bf59907b6249b488	267952585	1	main_slash	7	main_slash	7	stimuli_distractor_diamondtriangles.svg	stimuli_distractor_diamondtriangles.svg	39	no	53	0	428
6.6.1	mac	2022-12-30	02:30:49	02:33:36	166350	60fe07f8bf59907b6249b488	267952585	1	main_slash	7	advance_on_keypress_SLASH	8	stimuli_distractor_diamondtriangles.svg	stimuli_distractor_diamondtriangles.svg	39	no	57	0	742
6.6.1	mac	2022-12-30	02:30:49	02:33:38	168221	60fe07f8bf59907b6249b488	267952585	1	main_slash	7	main_slash	9	stimuli_target_circlediamonds.svg	stimuli_distractor_diamondtriangles.svg	6	yes	53	1	499
6.6.1	mac	2022-12-30	02:30:49	02:33:38	168221	60fe07f8bf59907b6249b488	267952585	1	main_slash	7	advance_on_keypress_SLASH	10	stimuli_target_circlediamonds.svg	stimuli_distractor_diamondtriangles.svg	6	yes	57	0	794
6.6.1	mac	2022-12-30	02:30:49	02:33:40	170102	60fe07f8bf59907b6249b488	267952585	1	main_slash	7	main_slash	11	stimuli_target_circlediamonds.svg	stimuli_distractor_trianglediamonds.svg	2	yes	53	1	428
6.6.1	mac	2022-12-30	02:30:49	02:33:40	170102	60fe07f8bf59907b6249b488	267952585	1	main_slash	7	advance_on_keypress_SLASH	12	stimuli_target_circlediamonds.svg	stimuli_distractor_trianglediamonds.svg	2	yes	57	0	601
6.6.1	mac	2022-12-30	02:30:49	02:33:43	173200	60fe07f8bf59907b6249b488	267952585	1	main_slash	7	main_slash	13	stimuli_distractor_diamondtriangles.svg	stimuli_target_squaretriangles.svg	15	yes	53	1	1855
6.6.1	mac	2022-12-30	02:30:49	02:33:43	173200	60fe07f8bf59907b6249b488	267952585	1	main_slash	7	advance_on_keypress_SLASH	14	stimuli_distractor_diamondtriangles.svg	stimuli_target_squaretriangles.svg	15	yes	57	0	731
6.6.1	mac	2022-12-30	02:30:49	02:33:45	175100	60fe07f8bf59907b6249b488	267952585	1	main_slash	7	main_slash	15	stimuli_distractor_trianglediamonds.svg	stimuli_target_trianglesquares.svg	26	yes	53	1	539
6.6.1	mac	2022-12-30	02:30:49	02:33:45	175100	60fe07f8bf59907b6249b488	267952585	1	main_slash	7	advance_on_keypress_SLASH	16	stimuli_distractor_trianglediamonds.svg	stimuli_target_trianglesquares.svg	26	yes	57	0	1517
6.6.1	mac	2022-12-30	02:30:49	02:33:48	177603	60fe07f8bf59907b6249b488	267952585	1	main_slash	7	main_slash	17	stimuli_distractor_trianglediamonds.svg	stimuli_distractor_trianglediamonds.svg	34	no	53	0	356
6.6.1	mac	2022-12-30	02:30:49	02:33:48	177603	60fe07f8bf59907b6249b488	267952585	1	main_slash	7	advance_on_keypress_SLASH	18	stimuli_distractor_trianglediamonds.svg	stimuli_distractor_trianglediamonds.svg	34	no	57	0	963
6.6.1	mac	2022-12-30	02:30:49	02:33:51	181200	60fe07f8bf59907b6249b488	267952585	1	main_slash	7	main_slash	19	stimuli_distractor_trianglediamonds.svg	stimuli_distractor_diamondtriangles.svg	36	no	0	1	2000
6.6.1	mac	2022-12-30	02:30:49	02:33:51	181200	60fe07f8bf59907b6249b488	267952585	1	main_slash	7	advance_on_keypress_SLASH	20	stimuli_distractor_trianglediamonds.svg	stimuli_distractor_diamondtriangles.svg	36	no	57	0	622
6.6.1	mac	2022-12-30	02:30:49	02:33:53	183112	60fe07f8bf59907b6249b488	267952585	1	main_slash	7	main_slash	21	stimuli_distractor_diamondtriangles.svg	stimuli_target_circletriangles.svg	13	yes	53	1	659
6.6.1	mac	2022-12-30	02:30:49	02:33:53	183112	60fe07f8bf59907b6249b488	267952585	1	main_slash	7	advance_on_keypress_SLASH	22	stimuli_distractor_diamondtriangles.svg	stimuli_target_circletriangles.svg	13	yes	57	0	1386
6.6.1	mac	2022-12-30	02:30:49	02:33:56	185573	60fe07f8bf59907b6249b488	267952585	1	main_slash	7	main_slash	23	stimuli_distractor_trianglediamonds.svg	stimuli_target_squarediamonds.svg	12	yes	53	1	451
6.6.1	mac	2022-12-30	02:30:49	02:33:56	185573	60fe07f8bf59907b6249b488	267952585	1	main_slash	7	advance_on_keypress_SLASH	24	stimuli_distractor_trianglediamonds.svg	stimuli_target_squarediamonds.svg	12	yes	57	0	2029
6.6.1	mac	2022-12-30	02:30:49	02:33:59	189067	60fe07f8bf59907b6249b488	267952585	1	main_slash	7	main_slash	25	stimuli_target_trianglesquares.svg	stimuli_distractor_diamondtriangles.svg	22	yes	53	1	825
6.6.1	mac	2022-12-30	02:30:49	02:33:59	189067	60fe07f8bf59907b6249b488	267952585	1	main_slash	7	advance_on_keypress_SLASH	26	stimuli_target_trianglesquares.svg	stimuli_distractor_diamondtriangles.svg	22	yes	57	0	976
6.6.1	mac	2022-12-30	02:30:49	02:34:04	194253	60fe07f8bf59907b6249b488	267952585	1	main_slash	7	main_slash	27	stimuli_distractor_diamondtriangles.svg	stimuli_distractor_trianglediamonds.svg	37	no	0	1	2000
6.6.1	mac	2022-12-30	02:30:49	02:34:04	194253	60fe07f8bf59907b6249b488	267952585	1	main_slash	7	advance_on_keypress_SLASH	28	stimuli_distractor_diamondtriangles.svg	stimuli_distractor_trianglediamonds.svg	37	no	57	0	736
6.6.1	mac	2022-12-30	02:30:49	02:34:06	196473	60fe07f8bf59907b6249b488	267952585	1	main_slash	7	main_slash	29	stimuli_target_trianglecircles.svg	stimuli_distractor_diamondtriangles.svg	21	yes	53	1	857
6.6.1	mac	2022-12-30	02:30:49	02:34:06	196473	60fe07f8bf59907b6249b488	267952585	1	main_slash	7	advance_on_keypress_SLASH	30	stimuli_target_trianglecircles.svg	stimuli_distractor_diamondtriangles.svg	21	yes	57	0	1105
6.6.1	mac	2022-12-30	02:30:49	02:34:09	199027	60fe07f8bf59907b6249b488	267952585	1	main_slash	7	main_slash	31	stimuli_distractor_trianglediamonds.svg	stimuli_target_trianglecircles.svg	25	yes	53	1	824
6.6.1	mac	2022-12-30	02:30:49	02:34:09	199027	60fe07f8bf59907b6249b488	267952585	1	main_slash	7	advance_on_keypress_SLASH	32	stimuli_distractor_trianglediamonds.svg	stimuli_target_trianglecircles.svg	25	yes	57	0	678
6.6.1	mac	2022-12-30	02:30:49	02:34:11	201358	60fe07f8bf59907b6249b488	267952585	1	main_slash	7	main_slash	33	stimuli_target_squarediamonds.svg	stimuli_distractor_trianglediamonds.svg	4	yes	53	1	1021
6.6.1	mac	2022-12-30	02:30:49	02:34:11	201358	60fe07f8bf59907b6249b488	267952585	1	main_slash	7	advance_on_keypress_SLASH	34	stimuli_target_squarediamonds.svg	stimuli_distractor_trianglediamonds.svg	4	yes	57	0	698
6.6.1	mac	2022-12-30	02:30:49	02:34:13	203478	60fe07f8bf59907b6249b488	267952585	1	main_slash	7	main_slash	35	stimuli_target_diamondsquares.svg	stimuli_distractor_trianglediamonds.svg	20	yes	53	1	790
6.6.1	mac	2022-12-30	02:30:49	02:34:13	203478	60fe07f8bf59907b6249b488	267952585	1	main_slash	7	advance_on_keypress_SLASH	36	stimuli_target_diamondsquares.svg	stimuli_distractor_trianglediamonds.svg	20	yes	57	0	642
6.6.1	mac	2022-12-30	02:30:49	02:34:15	205283	60fe07f8bf59907b6249b488	267952585	1	main_slash	7	main_slash	37	stimuli_distractor_diamondtriangles.svg	stimuli_target_circlediamonds.svg	14	yes	53	1	542
6.6.1	mac	2022-12-30	02:30:49	02:34:15	205283	60fe07f8bf59907b6249b488	267952585	1	main_slash	7	advance_on_keypress_SLASH	38	stimuli_distractor_diamondtriangles.svg	stimuli_target_circlediamonds.svg	14	yes	57	0	998
6.6.1	mac	2022-12-30	02:30:49	02:34:17	207437	60fe07f8bf59907b6249b488	267952585	1	main_slash	7	main_slash	39	stimuli_distractor_trianglediamonds.svg	stimuli_target_diamondcircles.svg	27	yes	53	1	527
6.6.1	mac	2022-12-30	02:30:49	02:34:17	207437	60fe07f8bf59907b6249b488	267952585	1	main_slash	7	advance_on_keypress_SLASH	40	stimuli_distractor_trianglediamonds.svg	stimuli_target_diamondcircles.svg	27	yes	57	0	733
6.6.1	mac	2022-12-30	02:30:49	02:34:19	209240	60fe07f8bf59907b6249b488	267952585	1	main_slash	7	main_slash	41	stimuli_target_squaretriangles.svg	stimuli_distractor_trianglediamonds.svg	3	yes	53	1	429
6.6.1	mac	2022-12-30	02:30:49	02:34:19	209240	60fe07f8bf59907b6249b488	267952585	1	main_slash	7	advance_on_keypress_SLASH	42	stimuli_target_squaretriangles.svg	stimuli_distractor_trianglediamonds.svg	3	yes	57	0	625
6.6.1	mac	2022-12-30	02:30:49	02:34:21	210806	60fe07f8bf59907b6249b488	267952585	1	main_slash	7	main_slash	43	stimuli_distractor_trianglediamonds.svg	stimuli_target_circletriangles.svg	9	yes	53	1	309
6.6.1	mac	2022-12-30	02:30:49	02:34:21	210806	60fe07f8bf59907b6249b488	267952585	1	main_slash	7	advance_on_keypress_SLASH	44	stimuli_distractor_trianglediamonds.svg	stimuli_target_circletriangles.svg	9	yes	57	0	546
6.6.1	mac	2022-12-30	02:30:49	02:34:22	212431	60fe07f8bf59907b6249b488	267952585	1	main_slash	7	main_slash	45	stimuli_target_squaretriangles.svg	stimuli_distractor_diamondtriangles.svg	7	yes	53	1	449
6.6.1	mac	2022-12-30	02:30:49	02:34:22	212431	60fe07f8bf59907b6249b488	267952585	1	main_slash	7	advance_on_keypress_SLASH	46	stimuli_target_squaretriangles.svg	stimuli_distractor_diamondtriangles.svg	7	yes	57	0	481
6.6.1	mac	2022-12-30	02:30:49	02:34:24	213952	60fe07f8bf59907b6249b488	267952585	1	main_slash	7	main_slash	47	stimuli_distractor_trianglediamonds.svg	stimuli_target_diamondsquares.svg	28	yes	53	1	402
6.6.1	mac	2022-12-30	02:30:49	02:34:24	213952	60fe07f8bf59907b6249b488	267952585	1	main_slash	7	advance_on_keypress_SLASH	48	stimuli_distractor_trianglediamonds.svg	stimuli_target_diamondsquares.svg	28	yes	57	0	579
6.6.1	mac	2022-12-30	02:30:49	02:34:26	215683	60fe07f8bf59907b6249b488	267952585	1	main_slash	7	main_slash	49	stimuli_target_trianglecircles.svg	stimuli_distractor_trianglediamonds.svg	17	yes	53	1	516
6.6.1	mac	2022-12-30	02:30:49	02:34:26	215683	60fe07f8bf59907b6249b488	267952585	1	main_slash	7	advance_on_keypress_SLASH	50	stimuli_target_trianglecircles.svg	stimuli_distractor_trianglediamonds.svg	17	yes	57	0	431
6.6.1	mac	2022-12-30	02:30:49	02:34:27	217122	60fe07f8bf59907b6249b488	267952585	1	main_slash	7	main_slash	51	stimuli_distractor_trianglediamonds.svg	stimuli_distractor_trianglediamonds.svg	33	no	53	0	351
6.6.1	mac	2022-12-30	02:30:49	02:34:27	217122	60fe07f8bf59907b6249b488	267952585	1	main_slash	7	advance_on_keypress_SLASH	52	stimuli_distractor_trianglediamonds.svg	stimuli_distractor_trianglediamonds.svg	33	no	57	0	989
6.6.1	mac	2022-12-30	02:30:49	02:34:29	219281	60fe07f8bf59907b6249b488	267952585	1	main_slash	7	main_slash	53	stimuli_target_diamondcircles.svg	stimuli_distractor_diamondtriangles.svg	23	yes	53	1	541
6.6.1	mac	2022-12-30	02:30:49	02:34:29	219281	60fe07f8bf59907b6249b488	267952585	1	main_slash	7	advance_on_keypress_SLASH	54	stimuli_target_diamondcircles.svg	stimuli_distractor_diamondtriangles.svg	23	yes	57	0	504
6.6.1	mac	2022-12-30	02:30:49	02:34:31	220905	60fe07f8bf59907b6249b488	267952585	1	main_slash	7	main_slash	55	stimuli_distractor_trianglediamonds.svg	stimuli_target_squaretriangles.svg	11	yes	53	1	482
6.6.1	mac	2022-12-30	02:30:49	02:34:31	220905	60fe07f8bf59907b6249b488	267952585	1	main_slash	7	advance_on_keypress_SLASH	56	stimuli_distractor_trianglediamonds.svg	stimuli_target_squaretriangles.svg	11	yes	57	0	548
6.6.1	mac	2022-12-30	02:30:49	02:34:32	222491	60fe07f8bf59907b6249b488	267952585	1	main_slash	7	main_slash	57	stimuli_distractor_diamondtriangles.svg	stimuli_distractor_diamondtriangles.svg	40	no	53	0	400
6.6.1	mac	2022-12-30	02:30:49	02:34:32	222491	60fe07f8bf59907b6249b488	267952585	1	main_slash	7	advance_on_keypress_SLASH	58	stimuli_distractor_diamondtriangles.svg	stimuli_distractor_diamondtriangles.svg	40	no	57	0	650
6.6.1	mac	2022-12-30	02:30:49	02:34:34	224233	60fe07f8bf59907b6249b488	267952585	1	main_slash	7	main_slash	59	stimuli_distractor_trianglediamonds.svg	stimuli_target_circlediamonds.svg	10	yes	53	1	456
6.6.1	mac	2022-12-30	02:30:49	02:34:34	224233	60fe07f8bf59907b6249b488	267952585	1	main_slash	7	advance_on_keypress_SLASH	60	stimuli_distractor_trianglediamonds.svg	stimuli_target_circlediamonds.svg	10	yes	57	0	646
6.6.1	mac	2022-12-30	02:30:49	02:34:37	227513	60fe07f8bf59907b6249b488	267952585	1	main_slash	7	main_slash	61	stimuli_distractor_diamondtriangles.svg	stimuli_distractor_trianglediamonds.svg	38	no	0	1	2000
6.6.1	mac	2022-12-30	02:30:49	02:34:37	227513	60fe07f8bf59907b6249b488	267952585	1	main_slash	7	advance_on_keypress_SLASH	62	stimuli_distractor_diamondtriangles.svg	stimuli_distractor_trianglediamonds.svg	38	no	57	0	437
6.6.1	mac	2022-12-30	02:30:49	02:34:39	229150	60fe07f8bf59907b6249b488	267952585	1	main_slash	7	main_slash	63	stimuli_distractor_diamondtriangles.svg	stimuli_target_trianglesquares.svg	30	yes	53	1	550
6.6.1	mac	2022-12-30	02:30:49	02:34:39	229150	60fe07f8bf59907b6249b488	267952585	1	main_slash	7	advance_on_keypress_SLASH	64	stimuli_distractor_diamondtriangles.svg	stimuli_target_trianglesquares.svg	30	yes	57	0	1838
6.6.1	mac	2022-12-30	02:30:49	02:34:42	231893	60fe07f8bf59907b6249b488	267952585	1	main_slash	7	main_slash	65	stimuli_distractor_diamondtriangles.svg	stimuli_target_trianglecircles.svg	29	yes	53	1	275
6.6.1	mac	2022-12-30	02:30:49	02:34:42	231893	60fe07f8bf59907b6249b488	267952585	1	main_slash	7	advance_on_keypress_SLASH	66	stimuli_distractor_diamondtriangles.svg	stimuli_target_trianglecircles.svg	29	yes	57	0	2472
6.6.1	mac	2022-12-30	02:30:49	02:34:47	236988	60fe07f8bf59907b6249b488	267952585	1	main_slash	7	main_slash	67	stimuli_distractor_diamondtriangles.svg	stimuli_target_diamondcircles.svg	31	yes	0	0	2000
6.6.1	mac	2022-12-30	02:30:49	02:34:47	236988	60fe07f8bf59907b6249b488	267952585	1	main_slash	7	advance_on_keypress_SLASH	68	stimuli_distractor_diamondtriangles.svg	stimuli_target_diamondcircles.svg	31	yes	57	0	650
6.6.1	mac	2022-12-30	02:30:49	02:34:49	239249	60fe07f8bf59907b6249b488	267952585	1	main_slash	7	main_slash	69	stimuli_target_trianglesquares.svg	stimuli_distractor_trianglediamonds.svg	18	yes	53	1	974
6.6.1	mac	2022-12-30	02:30:49	02:34:49	239249	60fe07f8bf59907b6249b488	267952585	1	main_slash	7	advance_on_keypress_SLASH	70	stimuli_target_trianglesquares.svg	stimuli_distractor_trianglediamonds.svg	18	yes	57	0	747
6.6.1	mac	2022-12-30	02:30:49	02:34:53	242627	60fe07f8bf59907b6249b488	267952585	1	main_slash	7	main_slash	71	stimuli_distractor_trianglediamonds.svg	stimuli_distractor_diamondtriangles.svg	35	no	0	1	2000
6.6.1	mac	2022-12-30	02:30:49	02:34:53	242627	60fe07f8bf59907b6249b488	267952585	1	main_slash	7	advance_on_keypress_SLASH	72	stimuli_distractor_trianglediamonds.svg	stimuli_distractor_diamondtriangles.svg	35	no	57	0	845
6.6.1	mac	2022-12-30	02:30:49	02:34:55	244624	60fe07f8bf59907b6249b488	267952585	1	main_slash	7	main_slash	73	stimuli_target_diamondcircles.svg	stimuli_distractor_trianglediamonds.svg	19	yes	53	1	510
6.6.1	mac	2022-12-30	02:30:49	02:34:55	244624	60fe07f8bf59907b6249b488	267952585	1	main_slash	7	advance_on_keypress_SLASH	74	stimuli_target_diamondcircles.svg	stimuli_distractor_trianglediamonds.svg	19	yes	57	0	610
6.6.1	mac	2022-12-30	02:30:49	02:34:56	246434	60fe07f8bf59907b6249b488	267952585	1	main_slash	7	main_slash	75	stimuli_target_diamondsquares.svg	stimuli_distractor_diamondtriangles.svg	24	yes	53	1	550
6.6.1	mac	2022-12-30	02:30:49	02:34:56	246434	60fe07f8bf59907b6249b488	267952585	1	main_slash	7	advance_on_keypress_SLASH	76	stimuli_target_diamondsquares.svg	stimuli_distractor_diamondtriangles.svg	24	yes	57	0	494
6.6.1	mac	2022-12-30	02:30:49	02:34:58	247894	60fe07f8bf59907b6249b488	267952585	1	main_slash	7	main_slash	77	stimuli_target_circletriangles.svg	stimuli_distractor_trianglediamonds.svg	1	yes	53	1	326
6.6.1	mac	2022-12-30	02:30:49	02:34:58	247894	60fe07f8bf59907b6249b488	267952585	1	main_slash	7	advance_on_keypress_SLASH	78	stimuli_target_circletriangles.svg	stimuli_distractor_trianglediamonds.svg	1	yes	57	0	586
6.6.1	mac	2022-12-30	02:30:49	02:34:59	249466	60fe07f8bf59907b6249b488	267952585	1	main_slash	7	main_slash	79	stimuli_target_circletriangles.svg	stimuli_distractor_diamondtriangles.svg	5	yes	53	1	365
6.6.1	mac	2022-12-30	02:30:49	02:34:59	249466	60fe07f8bf59907b6249b488	267952585	1	main_slash	7	advance_on_keypress_SLASH	80	stimuli_target_circletriangles.svg	stimuli_distractor_diamondtriangles.svg	5	yes	57	0	508
6.6.1	mac	2022-12-30	02:30:49	02:35:03	252622	60fe07f8bf59907b6249b488	267952585	1	main_slash	7	main_slash	81	stimuli_distractor_diamondtriangles.svg	stimuli_distractor_trianglediamonds.svg	38	no	0	1	2000
6.6.1	mac	2022-12-30	02:30:49	02:35:03	252622	60fe07f8bf59907b6249b488	267952585	1	main_slash	7	advance_on_keypress_SLASH	82	stimuli_distractor_diamondtriangles.svg	stimuli_distractor_trianglediamonds.svg	38	no	57	0	457
6.6.1	mac	2022-12-30	02:30:49	02:35:06	255707	60fe07f8bf59907b6249b488	267952585	1	main_slash	7	main_slash	83	stimuli_distractor_diamondtriangles.svg	stimuli_target_squarediamonds.svg	16	yes	0	0	2000
6.6.1	mac	2022-12-30	02:30:49	02:35:06	255707	60fe07f8bf59907b6249b488	267952585	1	main_slash	7	advance_on_keypress_SLASH	84	stimuli_distractor_diamondtriangles.svg	stimuli_target_squarediamonds.svg	16	yes	57	0	874
6.6.1	mac	2022-12-30	02:30:49	02:35:08	258137	60fe07f8bf59907b6249b488	267952585	1	main_slash	7	main_slash	85	stimuli_distractor_trianglediamonds.svg	stimuli_distractor_trianglediamonds.svg	34	no	53	0	926
6.6.1	mac	2022-12-30	02:30:49	02:35:08	258137	60fe07f8bf59907b6249b488	267952585	1	main_slash	7	advance_on_keypress_SLASH	86	stimuli_distractor_trianglediamonds.svg	stimuli_distractor_trianglediamonds.svg	34	no	57	0	697
6.6.1	mac	2022-12-30	02:30:49	02:35:10	260467	60fe07f8bf59907b6249b488	267952585	1	main_slash	7	main_slash	87	stimuli_target_squaretriangles.svg	stimuli_distractor_diamondtriangles.svg	7	yes	53	1	1004
6.6.1	mac	2022-12-30	02:30:49	02:35:10	260467	60fe07f8bf59907b6249b488	267952585	1	main_slash	7	advance_on_keypress_SLASH	88	stimuli_target_squaretriangles.svg	stimuli_distractor_diamondtriangles.svg	7	yes	57	0	625
6.6.1	mac	2022-12-30	02:30:49	02:35:14	263715	60fe07f8bf59907b6249b488	267952585	1	main_slash	7	main_slash	89	stimuli_distractor_trianglediamonds.svg	stimuli_target_squarediamonds.svg	12	yes	0	0	2000
6.6.1	mac	2022-12-30	02:30:49	02:35:14	263715	60fe07f8bf59907b6249b488	267952585	1	main_slash	7	advance_on_keypress_SLASH	90	stimuli_distractor_trianglediamonds.svg	stimuli_target_squarediamonds.svg	12	yes	57	0	516
6.6.1	mac	2022-12-30	02:30:49	02:35:15	265431	60fe07f8bf59907b6249b488	267952585	1	main_slash	7	main_slash	91	stimuli_target_squarediamonds.svg	stimuli_distractor_trianglediamonds.svg	4	yes	53	1	549
6.6.1	mac	2022-12-30	02:30:49	02:35:15	265431	60fe07f8bf59907b6249b488	267952585	1	main_slash	7	advance_on_keypress_SLASH	92	stimuli_target_squarediamonds.svg	stimuli_distractor_trianglediamonds.svg	4	yes	57	0	1456
6.6.1	mac	2022-12-30	02:30:49	02:35:18	267874	60fe07f8bf59907b6249b488	267952585	1	main_slash	7	main_slash	93	stimuli_distractor_trianglediamonds.svg	stimuli_target_circlediamonds.svg	10	yes	53	1	355
6.6.1	mac	2022-12-30	02:30:49	02:35:18	267874	60fe07f8bf59907b6249b488	267952585	1	main_slash	7	advance_on_keypress_SLASH	94	stimuli_distractor_trianglediamonds.svg	stimuli_target_circlediamonds.svg	10	yes	57	0	606
6.6.1	mac	2022-12-30	02:30:49	02:35:19	269478	60fe07f8bf59907b6249b488	267952585	1	main_slash	7	main_slash	95	stimuli_target_circletriangles.svg	stimuli_distractor_trianglediamonds.svg	1	yes	53	1	372
6.6.1	mac	2022-12-30	02:30:49	02:35:19	269478	60fe07f8bf59907b6249b488	267952585	1	main_slash	7	advance_on_keypress_SLASH	96	stimuli_target_circletriangles.svg	stimuli_distractor_trianglediamonds.svg	1	yes	57	0	567
6.6.1	mac	2022-12-30	02:30:49	02:35:21	270939	60fe07f8bf59907b6249b488	267952585	1	main_slash	7	main_slash	97	stimuli_distractor_diamondtriangles.svg	stimuli_target_diamondcircles.svg	31	yes	53	1	248
6.6.1	mac	2022-12-30	02:30:49	02:35:21	270939	60fe07f8bf59907b6249b488	267952585	1	main_slash	7	advance_on_keypress_SLASH	98	stimuli_distractor_diamondtriangles.svg	stimuli_target_diamondcircles.svg	31	yes	57	0	607
6.6.1	mac	2022-12-30	02:30:49	02:35:23	272860	60fe07f8bf59907b6249b488	267952585	1	main_slash	7	main_slash	99	stimuli_distractor_diamondtriangles.svg	stimuli_target_diamondsquares.svg	32	yes	53	1	685
6.6.1	mac	2022-12-30	02:30:49	02:35:23	272860	60fe07f8bf59907b6249b488	267952585	1	main_slash	7	advance_on_keypress_SLASH	100	stimuli_distractor_diamondtriangles.svg	stimuli_target_diamondsquares.svg	32	yes	57	0	565
6.6.1	mac	2022-12-30	02:30:49	02:35:24	274450	60fe07f8bf59907b6249b488	267952585	1	main_slash	7	main_slash	101	stimuli_target_diamondsquares.svg	stimuli_distractor_diamondtriangles.svg	24	yes	53	1	391
6.6.1	mac	2022-12-30	02:30:49	02:35:24	274450	60fe07f8bf59907b6249b488	267952585	1	main_slash	7	advance_on_keypress_SLASH	102	stimuli_target_diamondsquares.svg	stimuli_distractor_diamondtriangles.svg	24	yes	57	0	519
6.6.1	mac	2022-12-30	02:30:49	02:35:26	276092	60fe07f8bf59907b6249b488	267952585	1	main_slash	7	main_slash	103	stimuli_target_circlediamonds.svg	stimuli_distractor_diamondtriangles.svg	6	yes	53	1	498
6.6.1	mac	2022-12-30	02:30:49	02:35:26	276092	60fe07f8bf59907b6249b488	267952585	1	main_slash	7	advance_on_keypress_SLASH	104	stimuli_target_circlediamonds.svg	stimuli_distractor_diamondtriangles.svg	6	yes	57	0	400
6.6.1	mac	2022-12-30	02:30:49	02:35:27	277408	60fe07f8bf59907b6249b488	267952585	1	main_slash	7	main_slash	105	stimuli_target_trianglesquares.svg	stimuli_distractor_diamondtriangles.svg	22	yes	53	1	277
6.6.1	mac	2022-12-30	02:30:49	02:35:27	277408	60fe07f8bf59907b6249b488	267952585	1	main_slash	7	advance_on_keypress_SLASH	106	stimuli_target_trianglesquares.svg	stimuli_distractor_diamondtriangles.svg	22	yes	57	0	557
6.6.1	mac	2022-12-30	02:30:49	02:35:29	278931	60fe07f8bf59907b6249b488	267952585	1	main_slash	7	main_slash	107	stimuli_distractor_trianglediamonds.svg	stimuli_distractor_diamondtriangles.svg	36	no	53	0	330
6.6.1	mac	2022-12-30	02:30:49	02:35:29	278931	60fe07f8bf59907b6249b488	267952585	1	main_slash	7	advance_on_keypress_SLASH	108	stimuli_distractor_trianglediamonds.svg	stimuli_distractor_diamondtriangles.svg	36	no	57	0	687
6.6.1	mac	2022-12-30	02:30:49	02:35:31	280784	60fe07f8bf59907b6249b488	267952585	1	main_slash	7	main_slash	109	stimuli_target_circletriangles.svg	stimuli_distractor_diamondtriangles.svg	5	yes	53	1	535
6.6.1	mac	2022-12-30	02:30:49	02:35:31	280784	60fe07f8bf59907b6249b488	267952585	1	main_slash	7	advance_on_keypress_SLASH	110	stimuli_target_circletriangles.svg	stimuli_distractor_diamondtriangles.svg	5	yes	57	0	468
6.6.1	mac	2022-12-30	02:30:49	02:35:33	282806	60fe07f8bf59907b6249b488	267952585	1	main_slash	7	main_slash	111	stimuli_target_diamondsquares.svg	stimuli_distractor_trianglediamonds.svg	20	yes	53	1	920
6.6.1	mac	2022-12-30	02:30:49	02:35:33	282806	60fe07f8bf59907b6249b488	267952585	1	main_slash	7	advance_on_keypress_SLASH	112	stimuli_target_diamondsquares.svg	stimuli_distractor_trianglediamonds.svg	20	yes	57	0	675
6.6.1	mac	2022-12-30	02:30:49	02:35:34	284444	60fe07f8bf59907b6249b488	267952585	1	main_slash	7	main_slash	113	stimuli_target_trianglesquares.svg	stimuli_distractor_trianglediamonds.svg	18	yes	53	1	341
6.6.1	mac	2022-12-30	02:30:49	02:35:34	284444	60fe07f8bf59907b6249b488	267952585	1	main_slash	7	advance_on_keypress_SLASH	114	stimuli_target_trianglesquares.svg	stimuli_distractor_trianglediamonds.svg	18	yes	57	0	611
6.6.1	mac	2022-12-30	02:30:49	02:35:36	285892	60fe07f8bf59907b6249b488	267952585	1	main_slash	7	main_slash	115	stimuli_target_squaretriangles.svg	stimuli_distractor_trianglediamonds.svg	3	yes	53	1	203
6.6.1	mac	2022-12-30	02:30:49	02:35:36	285892	60fe07f8bf59907b6249b488	267952585	1	main_slash	7	advance_on_keypress_SLASH	116	stimuli_target_squaretriangles.svg	stimuli_distractor_trianglediamonds.svg	3	yes	57	0	589
6.6.1	mac	2022-12-30	02:30:49	02:35:37	287375	60fe07f8bf59907b6249b488	267952585	1	main_slash	7	main_slash	117	stimuli_distractor_trianglediamonds.svg	stimuli_distractor_diamondtriangles.svg	35	no	53	0	268
6.6.1	mac	2022-12-30	02:30:49	02:35:37	287375	60fe07f8bf59907b6249b488	267952585	1	main_slash	7	advance_on_keypress_SLASH	118	stimuli_distractor_trianglediamonds.svg	stimuli_distractor_diamondtriangles.svg	35	no	57	0	641
6.6.1	mac	2022-12-30	02:30:49	02:35:39	289365	60fe07f8bf59907b6249b488	267952585	1	main_slash	7	main_slash	119	stimuli_distractor_trianglediamonds.svg	stimuli_target_diamondsquares.svg	28	yes	53	1	723
6.6.1	mac	2022-12-30	02:30:49	02:35:39	289365	60fe07f8bf59907b6249b488	267952585	1	main_slash	7	advance_on_keypress_SLASH	120	stimuli_distractor_trianglediamonds.svg	stimuli_target_diamondsquares.svg	28	yes	57	0	1286
6.6.1	mac	2022-12-30	02:30:49	02:35:42	291834	60fe07f8bf59907b6249b488	267952585	1	main_slash	7	main_slash	121	stimuli_target_trianglecircles.svg	stimuli_distractor_trianglediamonds.svg	17	yes	53	1	540
6.6.1	mac	2022-12-30	02:30:49	02:35:42	291834	60fe07f8bf59907b6249b488	267952585	1	main_slash	7	advance_on_keypress_SLASH	122	stimuli_target_trianglecircles.svg	stimuli_distractor_trianglediamonds.svg	17	yes	57	0	463
6.6.1	mac	2022-12-30	02:30:49	02:35:43	293326	60fe07f8bf59907b6249b488	267952585	1	main_slash	7	main_slash	123	stimuli_distractor_trianglediamonds.svg	stimuli_target_trianglesquares.svg	26	yes	53	1	398
6.6.1	mac	2022-12-30	02:30:49	02:35:43	293326	60fe07f8bf59907b6249b488	267952585	1	main_slash	7	advance_on_keypress_SLASH	124	stimuli_distractor_trianglediamonds.svg	stimuli_target_trianglesquares.svg	26	yes	57	0	574
6.6.1	mac	2022-12-30	02:30:49	02:35:45	295012	60fe07f8bf59907b6249b488	267952585	1	main_slash	7	main_slash	125	stimuli_distractor_diamondtriangles.svg	stimuli_target_circletriangles.svg	13	yes	53	1	479
6.6.1	mac	2022-12-30	02:30:49	02:35:45	295012	60fe07f8bf59907b6249b488	267952585	1	main_slash	7	advance_on_keypress_SLASH	126	stimuli_distractor_diamondtriangles.svg	stimuli_target_circletriangles.svg	13	yes	57	0	505
6.6.1	mac	2022-12-30	02:30:49	02:35:47	296569	60fe07f8bf59907b6249b488	267952585	1	main_slash	7	main_slash	127	stimuli_distractor_trianglediamonds.svg	stimuli_distractor_trianglediamonds.svg	33	no	53	0	420
6.6.1	mac	2022-12-30	02:30:49	02:35:47	296569	60fe07f8bf59907b6249b488	267952585	1	main_slash	7	advance_on_keypress_SLASH	128	stimuli_distractor_trianglediamonds.svg	stimuli_distractor_trianglediamonds.svg	33	no	57	0	599
6.6.1	mac	2022-12-30	02:30:49	02:35:48	298212	60fe07f8bf59907b6249b488	267952585	1	main_slash	7	main_slash	129	stimuli_distractor_diamondtriangles.svg	stimuli_target_trianglesquares.svg	30	yes	53	1	400
6.6.1	mac	2022-12-30	02:30:49	02:35:48	298212	60fe07f8bf59907b6249b488	267952585	1	main_slash	7	advance_on_keypress_SLASH	130	stimuli_distractor_diamondtriangles.svg	stimuli_target_trianglesquares.svg	30	yes	57	0	502
6.6.1	mac	2022-12-30	02:30:49	02:35:50	299822	60fe07f8bf59907b6249b488	267952585	1	main_slash	7	main_slash	131	stimuli_distractor_trianglediamonds.svg	stimuli_target_diamondcircles.svg	27	yes	53	1	469
6.6.1	mac	2022-12-30	02:30:49	02:35:50	299822	60fe07f8bf59907b6249b488	267952585	1	main_slash	7	advance_on_keypress_SLASH	132	stimuli_distractor_trianglediamonds.svg	stimuli_target_diamondcircles.svg	27	yes	57	0	495
6.6.1	mac	2022-12-30	02:30:49	02:35:52	301838	60fe07f8bf59907b6249b488	267952585	1	main_slash	7	main_slash	133	stimuli_distractor_diamondtriangles.svg	stimuli_distractor_trianglediamonds.svg	37	no	53	0	882
6.6.1	mac	2022-12-30	02:30:49	02:35:52	301838	60fe07f8bf59907b6249b488	267952585	1	main_slash	7	advance_on_keypress_SLASH	134	stimuli_distractor_diamondtriangles.svg	stimuli_distractor_trianglediamonds.svg	37	no	57	0	416
6.6.1	mac	2022-12-30	02:30:49	02:35:53	303224	60fe07f8bf59907b6249b488	267952585	1	main_slash	7	main_slash	135	stimuli_distractor_trianglediamonds.svg	stimuli_target_circletriangles.svg	9	yes	53	1	334
6.6.1	mac	2022-12-30	02:30:49	02:35:53	303224	60fe07f8bf59907b6249b488	267952585	1	main_slash	7	advance_on_keypress_SLASH	136	stimuli_distractor_trianglediamonds.svg	stimuli_target_circletriangles.svg	9	yes	57	0	614
6.6.1	mac	2022-12-30	02:30:49	02:35:55	304869	60fe07f8bf59907b6249b488	267952585	1	main_slash	7	main_slash	137	stimuli_distractor_diamondtriangles.svg	stimuli_target_squaretriangles.svg	15	yes	53	1	395
6.6.1	mac	2022-12-30	02:30:49	02:35:55	304869	60fe07f8bf59907b6249b488	267952585	1	main_slash	7	advance_on_keypress_SLASH	138	stimuli_distractor_diamondtriangles.svg	stimuli_target_squaretriangles.svg	15	yes	57	0	484
6.6.1	mac	2022-12-30	02:30:49	02:35:57	306713	60fe07f8bf59907b6249b488	267952585	1	main_slash	7	main_slash	139	stimuli_target_diamondcircles.svg	stimuli_distractor_diamondtriangles.svg	23	yes	53	1	710
6.6.1	mac	2022-12-30	02:30:49	02:35:57	306713	60fe07f8bf59907b6249b488	267952585	1	main_slash	7	advance_on_keypress_SLASH	140	stimuli_target_diamondcircles.svg	stimuli_distractor_diamondtriangles.svg	23	yes	57	0	526
6.6.1	mac	2022-12-30	02:30:49	02:35:58	308245	60fe07f8bf59907b6249b488	267952585	1	main_slash	7	main_slash	141	stimuli_target_squarediamonds.svg	stimuli_distractor_diamondtriangles.svg	8	yes	53	1	366
6.6.1	mac	2022-12-30	02:30:49	02:35:58	308245	60fe07f8bf59907b6249b488	267952585	1	main_slash	7	advance_on_keypress_SLASH	142	stimuli_target_squarediamonds.svg	stimuli_distractor_diamondtriangles.svg	8	yes	57	0	421
6.6.1	mac	2022-12-30	02:30:49	02:36:00	309599	60fe07f8bf59907b6249b488	267952585	1	main_slash	7	main_slash	143	stimuli_distractor_diamondtriangles.svg	stimuli_target_trianglecircles.svg	29	yes	53	1	287
6.6.1	mac	2022-12-30	02:30:49	02:36:00	309599	60fe07f8bf59907b6249b488	267952585	1	main_slash	7	advance_on_keypress_SLASH	144	stimuli_distractor_diamondtriangles.svg	stimuli_target_trianglecircles.svg	29	yes	57	0	516
6.6.1	mac	2022-12-30	02:30:49	02:36:01	311023	60fe07f8bf59907b6249b488	267952585	1	main_slash	7	main_slash	145	stimuli_target_circlediamonds.svg	stimuli_distractor_trianglediamonds.svg	2	yes	53	1	276
6.6.1	mac	2022-12-30	02:30:49	02:36:01	311023	60fe07f8bf59907b6249b488	267952585	1	main_slash	7	advance_on_keypress_SLASH	146	stimuli_target_circlediamonds.svg	stimuli_distractor_trianglediamonds.svg	2	yes	57	0	536
6.6.1	mac	2022-12-30	02:30:49	02:36:02	312436	60fe07f8bf59907b6249b488	267952585	1	main_slash	7	main_slash	147	stimuli_target_diamondcircles.svg	stimuli_distractor_trianglediamonds.svg	19	yes	53	1	255
6.6.1	mac	2022-12-30	02:30:49	02:36:02	312436	60fe07f8bf59907b6249b488	267952585	1	main_slash	7	advance_on_keypress_SLASH	148	stimuli_target_diamondcircles.svg	stimuli_distractor_trianglediamonds.svg	19	yes	57	0	434
6.6.1	mac	2022-12-30	02:30:49	02:36:04	313776	60fe07f8bf59907b6249b488	267952585	1	main_slash	7	main_slash	149	stimuli_distractor_diamondtriangles.svg	stimuli_distractor_diamondtriangles.svg	39	no	53	0	277
6.6.1	mac	2022-12-30	02:30:49	02:36:04	313776	60fe07f8bf59907b6249b488	267952585	1	main_slash	7	advance_on_keypress_SLASH	150	stimuli_distractor_diamondtriangles.svg	stimuli_distractor_diamondtriangles.svg	39	no	57	0	498
6.6.1	mac	2022-12-30	02:30:49	02:36:06	315684	60fe07f8bf59907b6249b488	267952585	1	main_slash	7	main_slash	151	stimuli_distractor_trianglediamonds.svg	stimuli_target_trianglecircles.svg	25	yes	53	1	781
6.6.1	mac	2022-12-30	02:30:49	02:36:06	315684	60fe07f8bf59907b6249b488	267952585	1	main_slash	7	advance_on_keypress_SLASH	152	stimuli_distractor_trianglediamonds.svg	stimuli_target_trianglecircles.svg	25	yes	57	0	503
6.6.1	mac	2022-12-30	02:30:49	02:36:07	317231	60fe07f8bf59907b6249b488	267952585	1	main_slash	7	main_slash	153	stimuli_target_trianglecircles.svg	stimuli_distractor_diamondtriangles.svg	21	yes	53	1	409
6.6.1	mac	2022-12-30	02:30:49	02:36:07	317231	60fe07f8bf59907b6249b488	267952585	1	main_slash	7	advance_on_keypress_SLASH	154	stimuli_target_trianglecircles.svg	stimuli_distractor_diamondtriangles.svg	21	yes	57	0	650
6.6.1	mac	2022-12-30	02:30:49	02:36:09	319069	60fe07f8bf59907b6249b488	267952585	1	main_slash	7	main_slash	155	stimuli_distractor_diamondtriangles.svg	stimuli_target_circlediamonds.svg	14	yes	53	1	546
6.6.1	mac	2022-12-30	02:30:49	02:36:09	319069	60fe07f8bf59907b6249b488	267952585	1	main_slash	7	advance_on_keypress_SLASH	156	stimuli_distractor_diamondtriangles.svg	stimuli_target_circlediamonds.svg	14	yes	57	0	637
6.6.1	mac	2022-12-30	02:30:49	02:36:12	322341	60fe07f8bf59907b6249b488	267952585	1	main_slash	7	main_slash	157	stimuli_distractor_diamondtriangles.svg	stimuli_distractor_diamondtriangles.svg	40	no	0	1	2000
6.6.1	mac	2022-12-30	02:30:49	02:36:12	322341	60fe07f8bf59907b6249b488	267952585	1	main_slash	7	advance_on_keypress_SLASH	158	stimuli_distractor_diamondtriangles.svg	stimuli_distractor_diamondtriangles.svg	40	no	57	0	423
6.6.1	mac	2022-12-30	02:30:49	02:36:14	323805	60fe07f8bf59907b6249b488	267952585	1	main_slash	7	main_slash	159	stimuli_distractor_trianglediamonds.svg	stimuli_target_squaretriangles.svg	11	yes	53	1	413
6.6.1	mac	2022-12-30	02:30:49	02:36:14	323805	60fe07f8bf59907b6249b488	267952585	1	main_slash	7	advance_on_keypress_SLASH	160	stimuli_distractor_trianglediamonds.svg	stimuli_target_squaretriangles.svg	11	yes	57	0	511
6.6.1	mac	2022-12-30	02:30:49	02:36:26	336501	60fe07f8bf59907b6249b488	267952585	1	practice_z	9	practice_z	1	stimuli_distractor_trianglediamonds.svg	stimuli_target_circlediamonds.svg	10	yes	44	1	512
6.6.1	mac	2022-12-30	02:30:49	02:36:26	336501	60fe07f8bf59907b6249b488	267952585	1	practice_z	9	advance_on_keypress_ZEE	2	stimuli_distractor_trianglediamonds.svg	stimuli_target_circlediamonds.svg	10	yes	57	0	541
6.6.1	mac	2022-12-30	02:30:49	02:36:29	339253	60fe07f8bf59907b6249b488	267952585	1	practice_z	9	practice_z	3	stimuli_distractor_trianglediamonds.svg	stimuli_target_diamondcircles.svg	12	yes	44	1	578
6.6.1	mac	2022-12-30	02:30:49	02:36:29	339253	60fe07f8bf59907b6249b488	267952585	1	practice_z	9	advance_on_keypress_ZEE	4	stimuli_distractor_trianglediamonds.svg	stimuli_target_diamondcircles.svg	12	yes	57	0	340
6.6.1	mac	2022-12-30	02:30:49	02:36:32	341588	60fe07f8bf59907b6249b488	267952585	1	practice_z	9	practice_z	5	stimuli_target_diamondsquares.svg	stimuli_distractor_diamondtriangles.svg	3	yes	44	1	361
6.6.1	mac	2022-12-30	02:30:49	02:36:32	341588	60fe07f8bf59907b6249b488	267952585	1	practice_z	9	advance_on_keypress_ZEE	6	stimuli_target_diamondsquares.svg	stimuli_distractor_diamondtriangles.svg	3	yes	57	0	453
6.6.1	mac	2022-12-30	02:30:49	02:36:34	344332	60fe07f8bf59907b6249b488	267952585	1	practice_z	9	practice_z	7	stimuli_target_diamondsquares.svg	stimuli_distractor_trianglediamonds.svg	6	yes	44	1	652
6.6.1	mac	2022-12-30	02:30:49	02:36:34	344332	60fe07f8bf59907b6249b488	267952585	1	practice_z	9	advance_on_keypress_ZEE	8	stimuli_target_diamondsquares.svg	stimuli_distractor_trianglediamonds.svg	6	yes	57	0	1231
6.6.1	mac	2022-12-30	02:30:49	02:36:38	347697	60fe07f8bf59907b6249b488	267952585	1	practice_z	9	practice_z	9	stimuli_distractor_diamondtriangles.svg	stimuli_target_diamondcircles.svg	8	yes	44	1	496
6.6.1	mac	2022-12-30	02:30:49	02:36:38	347697	60fe07f8bf59907b6249b488	267952585	1	practice_z	9	advance_on_keypress_ZEE	10	stimuli_distractor_diamondtriangles.svg	stimuli_target_diamondcircles.svg	8	yes	57	0	384
6.6.1	mac	2022-12-30	02:30:49	02:36:42	351736	60fe07f8bf59907b6249b488	267952585	1	practice_z	9	practice_z	11	stimuli_distractor_trianglediamonds.svg	stimuli_distractor_trianglediamonds.svg	15	no	0	1	2000
6.6.1	mac	2022-12-30	02:30:49	02:36:42	351736	60fe07f8bf59907b6249b488	267952585	1	practice_z	9	advance_on_keypress_ZEE	12	stimuli_distractor_trianglediamonds.svg	stimuli_distractor_trianglediamonds.svg	15	no	57	0	429
6.6.1	mac	2022-12-30	02:30:49	02:36:44	354440	60fe07f8bf59907b6249b488	267952585	1	practice_z	9	practice_z	13	stimuli_distractor_diamondtriangles.svg	stimuli_target_circletriangles.svg	7	yes	44	1	633
6.6.1	mac	2022-12-30	02:30:49	02:36:44	354440	60fe07f8bf59907b6249b488	267952585	1	practice_z	9	advance_on_keypress_ZEE	14	stimuli_distractor_diamondtriangles.svg	stimuli_target_circletriangles.svg	7	yes	57	0	493
6.6.1	mac	2022-12-30	02:30:49	02:36:47	357129	60fe07f8bf59907b6249b488	267952585	1	practice_z	9	practice_z	15	stimuli_target_circlediamonds.svg	stimuli_distractor_trianglediamonds.svg	4	yes	44	1	552
6.6.1	mac	2022-12-30	02:30:49	02:36:47	357129	60fe07f8bf59907b6249b488	267952585	1	practice_z	9	advance_on_keypress_ZEE	16	stimuli_target_circlediamonds.svg	stimuli_distractor_trianglediamonds.svg	4	yes	57	0	473
6.6.1	mac	2022-12-30	02:30:49	02:36:50	359797	60fe07f8bf59907b6249b488	267952585	1	practice_z	9	practice_z	17	stimuli_distractor_diamondtriangles.svg	stimuli_target_trianglecircles.svg	9	yes	44	1	549
6.6.1	mac	2022-12-30	02:30:49	02:36:50	359797	60fe07f8bf59907b6249b488	267952585	1	practice_z	9	advance_on_keypress_ZEE	18	stimuli_distractor_diamondtriangles.svg	stimuli_target_trianglecircles.svg	9	yes	57	0	370
6.6.1	mac	2022-12-30	02:30:49	02:36:53	362576	60fe07f8bf59907b6249b488	267952585	1	practice_z	9	practice_z	19	stimuli_target_squarediamonds.svg	stimuli_distractor_trianglediamonds.svg	5	yes	44	1	778
6.6.1	mac	2022-12-30	02:30:49	02:36:53	362576	60fe07f8bf59907b6249b488	267952585	1	practice_z	9	advance_on_keypress_ZEE	20	stimuli_target_squarediamonds.svg	stimuli_distractor_trianglediamonds.svg	5	yes	57	0	481
6.6.1	mac	2022-12-30	02:30:49	02:36:56	365667	60fe07f8bf59907b6249b488	267952585	1	practice_z	9	practice_z	21	stimuli_target_circlediamonds.svg	stimuli_distractor_diamondtriangles.svg	1	yes	44	1	965
6.6.1	mac	2022-12-30	02:30:49	02:36:56	365667	60fe07f8bf59907b6249b488	267952585	1	practice_z	9	advance_on_keypress_ZEE	22	stimuli_target_circlediamonds.svg	stimuli_distractor_diamondtriangles.svg	1	yes	57	0	396
6.6.1	mac	2022-12-30	02:30:49	02:37:00	369706	60fe07f8bf59907b6249b488	267952585	1	practice_z	9	practice_z	23	stimuli_distractor_trianglediamonds.svg	stimuli_distractor_diamondtriangles.svg	16	no	0	1	2000
6.6.1	mac	2022-12-30	02:30:49	02:37:00	369706	60fe07f8bf59907b6249b488	267952585	1	practice_z	9	advance_on_keypress_ZEE	24	stimuli_distractor_trianglediamonds.svg	stimuli_distractor_diamondtriangles.svg	16	no	57	0	680
6.6.1	mac	2022-12-30	02:30:49	02:37:04	374037	60fe07f8bf59907b6249b488	267952585	1	practice_z	9	practice_z	25	stimuli_distractor_diamondtriangles.svg	stimuli_distractor_trianglediamonds.svg	14	no	0	1	2000
6.6.1	mac	2022-12-30	02:30:49	02:37:04	374037	60fe07f8bf59907b6249b488	267952585	1	practice_z	9	advance_on_keypress_ZEE	26	stimuli_distractor_diamondtriangles.svg	stimuli_distractor_trianglediamonds.svg	14	no	57	0	432
6.6.1	mac	2022-12-30	02:30:49	02:37:07	376954	60fe07f8bf59907b6249b488	267952585	1	practice_z	9	practice_z	27	stimuli_distractor_trianglediamonds.svg	stimuli_target_squarediamonds.svg	11	yes	44	1	840
6.6.1	mac	2022-12-30	02:30:49	02:37:07	376954	60fe07f8bf59907b6249b488	267952585	1	practice_z	9	advance_on_keypress_ZEE	28	stimuli_distractor_trianglediamonds.svg	stimuli_target_squarediamonds.svg	11	yes	57	0	367
6.6.1	mac	2022-12-30	02:30:49	02:37:09	379518	60fe07f8bf59907b6249b488	267952585	1	practice_z	9	practice_z	29	stimuli_target_squarediamonds.svg	stimuli_distractor_diamondtriangles.svg	2	yes	44	1	570
6.6.1	mac	2022-12-30	02:30:49	02:37:09	379518	60fe07f8bf59907b6249b488	267952585	1	practice_z	9	advance_on_keypress_ZEE	30	stimuli_target_squarediamonds.svg	stimuli_distractor_diamondtriangles.svg	2	yes	57	0	417
6.6.1	mac	2022-12-30	02:30:49	02:37:14	383568	60fe07f8bf59907b6249b488	267952585	1	practice_z	9	practice_z	31	stimuli_distractor_diamondtriangles.svg	stimuli_distractor_diamondtriangles.svg	13	no	0	1	2000
6.6.1	mac	2022-12-30	02:30:49	02:37:14	383568	60fe07f8bf59907b6249b488	267952585	1	practice_z	9	advance_on_keypress_ZEE	32	stimuli_distractor_diamondtriangles.svg	stimuli_distractor_diamondtriangles.svg	13	no	57	0	776
6.6.1	mac	2022-12-30	02:30:49	02:37:18	387668	60fe07f8bf59907b6249b488	267952585	1	main_z	11	main_z	1	stimuli_target_trianglesquares.svg	stimuli_distractor_trianglediamonds.svg	18	yes	44	1	745
6.6.1	mac	2022-12-30	02:30:49	02:37:18	387668	60fe07f8bf59907b6249b488	267952585	1	main_z	11	advance_on_keypress_ZEE	2	stimuli_target_trianglesquares.svg	stimuli_distractor_trianglediamonds.svg	18	yes	57	0	2202
6.6.1	mac	2022-12-30	02:30:49	02:37:21	391018	60fe07f8bf59907b6249b488	267952585	1	main_z	11	main_z	3	stimuli_target_squarediamonds.svg	stimuli_distractor_trianglediamonds.svg	4	yes	44	1	503
6.6.1	mac	2022-12-30	02:30:49	02:37:21	391018	60fe07f8bf59907b6249b488	267952585	1	main_z	11	advance_on_keypress_ZEE	4	stimuli_target_squarediamonds.svg	stimuli_distractor_trianglediamonds.svg	4	yes	57	0	916
6.6.1	mac	2022-12-30	02:30:49	02:37:23	393407	60fe07f8bf59907b6249b488	267952585	1	main_z	11	main_z	5	stimuli_target_diamondcircles.svg	stimuli_distractor_diamondtriangles.svg	23	yes	44	1	828
6.6.1	mac	2022-12-30	02:30:49	02:37:23	393407	60fe07f8bf59907b6249b488	267952585	1	main_z	11	advance_on_keypress_ZEE	6	stimuli_target_diamondcircles.svg	stimuli_distractor_diamondtriangles.svg	23	yes	57	0	872
6.6.1	mac	2022-12-30	02:30:49	02:37:27	396898	60fe07f8bf59907b6249b488	267952585	1	main_z	11	main_z	7	stimuli_distractor_trianglediamonds.svg	stimuli_distractor_trianglediamonds.svg	34	no	0	1	2000
6.6.1	mac	2022-12-30	02:30:49	02:37:27	396898	60fe07f8bf59907b6249b488	267952585	1	main_z	11	advance_on_keypress_ZEE	8	stimuli_distractor_trianglediamonds.svg	stimuli_distractor_trianglediamonds.svg	34	no	57	0	465
6.6.1	mac	2022-12-30	02:30:49	02:37:30	400000	60fe07f8bf59907b6249b488	267952585	1	main_z	11	main_z	9	stimuli_distractor_diamondtriangles.svg	stimuli_distractor_diamondtriangles.svg	39	no	0	1	2000
6.6.1	mac	2022-12-30	02:30:49	02:37:30	400000	60fe07f8bf59907b6249b488	267952585	1	main_z	11	advance_on_keypress_ZEE	10	stimuli_distractor_diamondtriangles.svg	stimuli_distractor_diamondtriangles.svg	39	no	57	0	553
6.6.1	mac	2022-12-30	02:30:49	02:37:32	401865	60fe07f8bf59907b6249b488	267952585	1	main_z	11	main_z	11	stimuli_target_diamondsquares.svg	stimuli_distractor_trianglediamonds.svg	20	yes	44	1	678
6.6.1	mac	2022-12-30	02:30:49	02:37:32	401865	60fe07f8bf59907b6249b488	267952585	1	main_z	11	advance_on_keypress_ZEE	12	stimuli_target_diamondsquares.svg	stimuli_distractor_trianglediamonds.svg	20	yes	57	0	766
6.6.1	mac	2022-12-30	02:30:49	02:37:34	403978	60fe07f8bf59907b6249b488	267952585	1	main_z	11	main_z	13	stimuli_target_diamondcircles.svg	stimuli_distractor_trianglediamonds.svg	19	yes	44	1	706
6.6.1	mac	2022-12-30	02:30:49	02:37:34	403978	60fe07f8bf59907b6249b488	267952585	1	main_z	11	advance_on_keypress_ZEE	14	stimuli_target_diamondcircles.svg	stimuli_distractor_trianglediamonds.svg	19	yes	57	0	509
6.6.1	mac	2022-12-30	02:30:49	02:37:37	407142	60fe07f8bf59907b6249b488	267952585	1	main_z	11	main_z	15	stimuli_distractor_diamondtriangles.svg	stimuli_distractor_trianglediamonds.svg	37	no	0	1	2000
6.6.1	mac	2022-12-30	02:30:49	02:37:37	407142	60fe07f8bf59907b6249b488	267952585	1	main_z	11	advance_on_keypress_ZEE	16	stimuli_distractor_diamondtriangles.svg	stimuli_distractor_trianglediamonds.svg	37	no	57	0	474
6.6.1	mac	2022-12-30	02:30:49	02:37:39	408790	60fe07f8bf59907b6249b488	267952585	1	main_z	11	main_z	17	stimuli_target_diamondsquares.svg	stimuli_distractor_diamondtriangles.svg	24	yes	44	1	530
6.6.1	mac	2022-12-30	02:30:49	02:37:39	408790	60fe07f8bf59907b6249b488	267952585	1	main_z	11	advance_on_keypress_ZEE	18	stimuli_target_diamondsquares.svg	stimuli_distractor_diamondtriangles.svg	24	yes	57	0	537
6.6.1	mac	2022-12-30	02:30:49	02:37:40	410467	60fe07f8bf59907b6249b488	267952585	1	main_z	11	main_z	19	stimuli_target_trianglesquares.svg	stimuli_distractor_diamondtriangles.svg	22	yes	44	1	503
6.6.1	mac	2022-12-30	02:30:49	02:37:40	410467	60fe07f8bf59907b6249b488	267952585	1	main_z	11	advance_on_keypress_ZEE	20	stimuli_target_trianglesquares.svg	stimuli_distractor_diamondtriangles.svg	22	yes	57	0	416
6.6.1	mac	2022-12-30	02:30:49	02:37:44	413531	60fe07f8bf59907b6249b488	267952585	1	main_z	11	main_z	21	stimuli_distractor_trianglediamonds.svg	stimuli_distractor_diamondtriangles.svg	36	no	0	1	2000
6.6.1	mac	2022-12-30	02:30:49	02:37:44	413531	60fe07f8bf59907b6249b488	267952585	1	main_z	11	advance_on_keypress_ZEE	22	stimuli_distractor_trianglediamonds.svg	stimuli_distractor_diamondtriangles.svg	36	no	57	0	546
6.6.1	mac	2022-12-30	02:30:49	02:37:45	415267	60fe07f8bf59907b6249b488	267952585	1	main_z	11	main_z	23	stimuli_target_circletriangles.svg	stimuli_distractor_trianglediamonds.svg	1	yes	44	1	549
6.6.1	mac	2022-12-30	02:30:49	02:37:45	415267	60fe07f8bf59907b6249b488	267952585	1	main_z	11	advance_on_keypress_ZEE	24	stimuli_target_circletriangles.svg	stimuli_distractor_trianglediamonds.svg	1	yes	57	0	508
6.6.1	mac	2022-12-30	02:30:49	02:37:47	417037	60fe07f8bf59907b6249b488	267952585	1	main_z	11	main_z	25	stimuli_distractor_diamondtriangles.svg	stimuli_target_diamondsquares.svg	32	yes	44	1	634
6.6.1	mac	2022-12-30	02:30:49	02:37:47	417037	60fe07f8bf59907b6249b488	267952585	1	main_z	11	advance_on_keypress_ZEE	26	stimuli_distractor_diamondtriangles.svg	stimuli_target_diamondsquares.svg	32	yes	57	0	557
6.6.1	mac	2022-12-30	02:30:49	02:37:49	418768	60fe07f8bf59907b6249b488	267952585	1	main_z	11	main_z	27	stimuli_target_circlediamonds.svg	stimuli_distractor_diamondtriangles.svg	6	yes	44	1	546
6.6.1	mac	2022-12-30	02:30:49	02:37:49	418768	60fe07f8bf59907b6249b488	267952585	1	main_z	11	advance_on_keypress_ZEE	28	stimuli_target_circlediamonds.svg	stimuli_distractor_diamondtriangles.svg	6	yes	57	0	609
6.6.1	mac	2022-12-30	02:30:49	02:37:50	420499	60fe07f8bf59907b6249b488	267952585	1	main_z	11	main_z	29	stimuli_distractor_diamondtriangles.svg	stimuli_target_trianglecircles.svg	29	yes	44	1	493
6.6.1	mac	2022-12-30	02:30:49	02:37:50	420499	60fe07f8bf59907b6249b488	267952585	1	main_z	11	advance_on_keypress_ZEE	30	stimuli_distractor_diamondtriangles.svg	stimuli_target_trianglecircles.svg	29	yes	57	0	612
6.6.1	mac	2022-12-30	02:30:49	02:37:54	423742	60fe07f8bf59907b6249b488	267952585	1	main_z	11	main_z	31	stimuli_distractor_diamondtriangles.svg	stimuli_distractor_trianglediamonds.svg	38	no	0	1	2000
6.6.1	mac	2022-12-30	02:30:49	02:37:54	423742	60fe07f8bf59907b6249b488	267952585	1	main_z	11	advance_on_keypress_ZEE	32	stimuli_distractor_diamondtriangles.svg	stimuli_distractor_trianglediamonds.svg	38	no	57	0	388
6.6.1	mac	2022-12-30	02:30:49	02:37:57	426761	60fe07f8bf59907b6249b488	267952585	1	main_z	11	main_z	33	stimuli_distractor_diamondtriangles.svg	stimuli_distractor_diamondtriangles.svg	40	no	0	1	2000
6.6.1	mac	2022-12-30	02:30:49	02:37:57	426761	60fe07f8bf59907b6249b488	267952585	1	main_z	11	advance_on_keypress_ZEE	34	stimuli_distractor_diamondtriangles.svg	stimuli_distractor_diamondtriangles.svg	40	no	57	0	589
6.6.1	mac	2022-12-30	02:30:49	02:37:59	428561	60fe07f8bf59907b6249b488	267952585	1	main_z	11	main_z	35	stimuli_distractor_diamondtriangles.svg	stimuli_target_trianglesquares.svg	30	yes	44	1	580
6.6.1	mac	2022-12-30	02:30:49	02:37:59	428561	60fe07f8bf59907b6249b488	267952585	1	main_z	11	advance_on_keypress_ZEE	36	stimuli_distractor_diamondtriangles.svg	stimuli_target_trianglesquares.svg	30	yes	57	0	1193
6.6.1	mac	2022-12-30	02:30:49	02:38:01	430920	60fe07f8bf59907b6249b488	267952585	1	main_z	11	main_z	37	stimuli_distractor_trianglediamonds.svg	stimuli_target_circlediamonds.svg	10	yes	44	1	520
6.6.1	mac	2022-12-30	02:30:49	02:38:01	430920	60fe07f8bf59907b6249b488	267952585	1	main_z	11	advance_on_keypress_ZEE	38	stimuli_distractor_trianglediamonds.svg	stimuli_target_circlediamonds.svg	10	yes	57	0	444
6.6.1	mac	2022-12-30	02:30:49	02:38:02	432434	60fe07f8bf59907b6249b488	267952585	1	main_z	11	main_z	39	stimuli_distractor_diamondtriangles.svg	stimuli_target_squarediamonds.svg	16	yes	44	1	416
6.6.1	mac	2022-12-30	02:30:49	02:38:02	432434	60fe07f8bf59907b6249b488	267952585	1	main_z	11	advance_on_keypress_ZEE	40	stimuli_distractor_diamondtriangles.svg	stimuli_target_squarediamonds.svg	16	yes	57	0	432
6.6.1	mac	2022-12-30	02:30:49	02:38:04	433959	60fe07f8bf59907b6249b488	267952585	1	main_z	11	main_z	41	stimuli_distractor_diamondtriangles.svg	stimuli_target_circlediamonds.svg	14	yes	44	1	455
6.6.1	mac	2022-12-30	02:30:49	02:38:04	433959	60fe07f8bf59907b6249b488	267952585	1	main_z	11	advance_on_keypress_ZEE	42	stimuli_distractor_diamondtriangles.svg	stimuli_target_circlediamonds.svg	14	yes	57	0	411
6.6.1	mac	2022-12-30	02:30:49	02:38:06	435537	60fe07f8bf59907b6249b488	267952585	1	main_z	11	main_z	43	stimuli_distractor_trianglediamonds.svg	stimuli_target_diamondsquares.svg	28	yes	44	1	532
6.6.1	mac	2022-12-30	02:30:49	02:38:06	435537	60fe07f8bf59907b6249b488	267952585	1	main_z	11	advance_on_keypress_ZEE	44	stimuli_distractor_trianglediamonds.svg	stimuli_target_diamondsquares.svg	28	yes	57	0	482
6.6.1	mac	2022-12-30	02:30:49	02:38:07	436994	60fe07f8bf59907b6249b488	267952585	1	main_z	11	main_z	45	stimuli_target_trianglecircles.svg	stimuli_distractor_trianglediamonds.svg	17	yes	44	1	335
6.6.1	mac	2022-12-30	02:30:49	02:38:07	436994	60fe07f8bf59907b6249b488	267952585	1	main_z	11	advance_on_keypress_ZEE	46	stimuli_target_trianglecircles.svg	stimuli_distractor_trianglediamonds.svg	17	yes	57	0	692
6.6.1	mac	2022-12-30	02:30:49	02:38:09	438801	60fe07f8bf59907b6249b488	267952585	1	main_z	11	main_z	47	stimuli_distractor_trianglediamonds.svg	stimuli_target_trianglecircles.svg	25	yes	44	1	477
6.6.1	mac	2022-12-30	02:30:49	02:38:09	438801	60fe07f8bf59907b6249b488	267952585	1	main_z	11	advance_on_keypress_ZEE	48	stimuli_distractor_trianglediamonds.svg	stimuli_target_trianglecircles.svg	25	yes	57	0	450
6.6.1	mac	2022-12-30	02:30:49	02:38:12	441910	60fe07f8bf59907b6249b488	267952585	1	main_z	11	main_z	49	stimuli_distractor_trianglediamonds.svg	stimuli_distractor_trianglediamonds.svg	33	no	0	1	2000
6.6.1	mac	2022-12-30	02:30:49	02:38:12	441910	60fe07f8bf59907b6249b488	267952585	1	main_z	11	advance_on_keypress_ZEE	50	stimuli_distractor_trianglediamonds.svg	stimuli_distractor_trianglediamonds.svg	33	no	57	0	392
6.6.1	mac	2022-12-30	02:30:49	02:38:13	443421	60fe07f8bf59907b6249b488	267952585	1	main_z	11	main_z	51	stimuli_target_squaretriangles.svg	stimuli_distractor_trianglediamonds.svg	3	yes	44	1	491
6.6.1	mac	2022-12-30	02:30:49	02:38:13	443421	60fe07f8bf59907b6249b488	267952585	1	main_z	11	advance_on_keypress_ZEE	52	stimuli_target_squaretriangles.svg	stimuli_distractor_trianglediamonds.svg	3	yes	57	0	482
6.6.1	mac	2022-12-30	02:30:49	02:38:15	444972	60fe07f8bf59907b6249b488	267952585	1	main_z	11	main_z	53	stimuli_target_circlediamonds.svg	stimuli_distractor_trianglediamonds.svg	2	yes	44	1	442
6.6.1	mac	2022-12-30	02:30:49	02:38:15	444972	60fe07f8bf59907b6249b488	267952585	1	main_z	11	advance_on_keypress_ZEE	54	stimuli_target_circlediamonds.svg	stimuli_distractor_trianglediamonds.svg	2	yes	57	0	411
6.6.1	mac	2022-12-30	02:30:49	02:38:17	447428	60fe07f8bf59907b6249b488	267952585	1	main_z	11	main_z	55	stimuli_target_squaretriangles.svg	stimuli_distractor_diamondtriangles.svg	7	yes	44	1	1411
6.6.1	mac	2022-12-30	02:30:49	02:38:17	447428	60fe07f8bf59907b6249b488	267952585	1	main_z	11	advance_on_keypress_ZEE	56	stimuli_target_squaretriangles.svg	stimuli_distractor_diamondtriangles.svg	7	yes	57	0	764
6.6.1	mac	2022-12-30	02:30:49	02:38:19	449479	60fe07f8bf59907b6249b488	267952585	1	main_z	11	main_z	57	stimuli_distractor_diamondtriangles.svg	stimuli_target_circletriangles.svg	13	yes	44	1	661
6.6.1	mac	2022-12-30	02:30:49	02:38:19	449479	60fe07f8bf59907b6249b488	267952585	1	main_z	11	advance_on_keypress_ZEE	58	stimuli_distractor_diamondtriangles.svg	stimuli_target_circletriangles.svg	13	yes	57	0	764
6.6.1	mac	2022-12-30	02:30:49	02:38:21	451385	60fe07f8bf59907b6249b488	267952585	1	main_z	11	main_z	59	stimuli_target_circletriangles.svg	stimuli_distractor_diamondtriangles.svg	5	yes	44	1	514
6.6.1	mac	2022-12-30	02:30:49	02:38:21	451385	60fe07f8bf59907b6249b488	267952585	1	main_z	11	advance_on_keypress_ZEE	60	stimuli_target_circletriangles.svg	stimuli_distractor_diamondtriangles.svg	5	yes	57	0	394
6.6.1	mac	2022-12-30	02:30:49	02:38:23	452829	60fe07f8bf59907b6249b488	267952585	1	main_z	11	main_z	61	stimuli_distractor_trianglediamonds.svg	stimuli_target_circletriangles.svg	9	yes	44	1	392
6.6.1	mac	2022-12-30	02:30:49	02:38:23	452829	60fe07f8bf59907b6249b488	267952585	1	main_z	11	advance_on_keypress_ZEE	62	stimuli_distractor_trianglediamonds.svg	stimuli_target_circletriangles.svg	9	yes	57	0	438
6.6.1	mac	2022-12-30	02:30:49	02:38:24	454172	60fe07f8bf59907b6249b488	267952585	1	main_z	11	main_z	63	stimuli_target_trianglecircles.svg	stimuli_distractor_diamondtriangles.svg	21	yes	44	1	282
6.6.1	mac	2022-12-30	02:30:49	02:38:24	454172	60fe07f8bf59907b6249b488	267952585	1	main_z	11	advance_on_keypress_ZEE	64	stimuli_target_trianglecircles.svg	stimuli_distractor_diamondtriangles.svg	21	yes	57	0	799
6.6.1	mac	2022-12-30	02:30:49	02:38:26	455988	60fe07f8bf59907b6249b488	267952585	1	main_z	11	main_z	65	stimuli_distractor_diamondtriangles.svg	stimuli_target_diamondcircles.svg	31	yes	44	1	379
6.6.1	mac	2022-12-30	02:30:49	02:38:26	455988	60fe07f8bf59907b6249b488	267952585	1	main_z	11	advance_on_keypress_ZEE	66	stimuli_distractor_diamondtriangles.svg	stimuli_target_diamondcircles.svg	31	yes	57	0	457
6.6.1	mac	2022-12-30	02:30:49	02:38:27	457462	60fe07f8bf59907b6249b488	267952585	1	main_z	11	main_z	67	stimuli_distractor_trianglediamonds.svg	stimuli_target_diamondcircles.svg	27	yes	44	1	385
6.6.1	mac	2022-12-30	02:30:49	02:38:27	457462	60fe07f8bf59907b6249b488	267952585	1	main_z	11	advance_on_keypress_ZEE	68	stimuli_distractor_trianglediamonds.svg	stimuli_target_diamondcircles.svg	27	yes	57	0	460
6.6.1	mac	2022-12-30	02:30:49	02:38:29	459045	60fe07f8bf59907b6249b488	267952585	1	main_z	11	main_z	69	stimuli_target_squarediamonds.svg	stimuli_distractor_diamondtriangles.svg	8	yes	44	1	468
6.6.1	mac	2022-12-30	02:30:49	02:38:29	459045	60fe07f8bf59907b6249b488	267952585	1	main_z	11	advance_on_keypress_ZEE	70	stimuli_target_squarediamonds.svg	stimuli_distractor_diamondtriangles.svg	8	yes	57	0	428
6.6.1	mac	2022-12-30	02:30:49	02:38:30	460479	60fe07f8bf59907b6249b488	267952585	1	main_z	11	main_z	71	stimuli_distractor_trianglediamonds.svg	stimuli_target_trianglesquares.svg	26	yes	44	1	384
6.6.1	mac	2022-12-30	02:30:49	02:38:30	460479	60fe07f8bf59907b6249b488	267952585	1	main_z	11	advance_on_keypress_ZEE	72	stimuli_distractor_trianglediamonds.svg	stimuli_target_trianglesquares.svg	26	yes	57	0	615
6.6.1	mac	2022-12-30	02:30:49	02:38:32	462095	60fe07f8bf59907b6249b488	267952585	1	main_z	11	main_z	73	stimuli_distractor_trianglediamonds.svg	stimuli_target_squarediamonds.svg	12	yes	44	1	344
6.6.1	mac	2022-12-30	02:30:49	02:38:32	462095	60fe07f8bf59907b6249b488	267952585	1	main_z	11	advance_on_keypress_ZEE	74	stimuli_distractor_trianglediamonds.svg	stimuli_target_squarediamonds.svg	12	yes	57	0	608
6.6.1	mac	2022-12-30	02:30:49	02:38:34	464463	60fe07f8bf59907b6249b488	267952585	1	main_z	11	main_z	75	stimuli_distractor_trianglediamonds.svg	stimuli_distractor_diamondtriangles.svg	35	no	44	0	1123
6.6.1	mac	2022-12-30	02:30:49	02:38:34	464463	60fe07f8bf59907b6249b488	267952585	1	main_z	11	advance_on_keypress_ZEE	76	stimuli_distractor_trianglediamonds.svg	stimuli_distractor_diamondtriangles.svg	35	no	57	0	667
6.6.1	mac	2022-12-30	02:30:49	02:38:36	466468	60fe07f8bf59907b6249b488	267952585	1	main_z	11	main_z	77	stimuli_distractor_diamondtriangles.svg	stimuli_target_squaretriangles.svg	15	yes	44	1	697
6.6.1	mac	2022-12-30	02:30:49	02:38:36	466468	60fe07f8bf59907b6249b488	267952585	1	main_z	11	advance_on_keypress_ZEE	78	stimuli_distractor_diamondtriangles.svg	stimuli_target_squaretriangles.svg	15	yes	57	0	462
6.6.1	mac	2022-12-30	02:30:49	02:38:38	468519	60fe07f8bf59907b6249b488	267952585	1	main_z	11	main_z	79	stimuli_distractor_trianglediamonds.svg	stimuli_target_squaretriangles.svg	11	yes	44	1	947
6.6.1	mac	2022-12-30	02:30:49	02:38:38	468519	60fe07f8bf59907b6249b488	267952585	1	main_z	11	advance_on_keypress_ZEE	80	stimuli_distractor_trianglediamonds.svg	stimuli_target_squaretriangles.svg	11	yes	57	0	712
6.6.1	mac	2022-12-30	02:30:49	02:38:41	470870	60fe07f8bf59907b6249b488	267952585	1	main_z	11	main_z	81	stimuli_distractor_trianglediamonds.svg	stimuli_target_trianglesquares.svg	26	yes	44	1	995
6.6.1	mac	2022-12-30	02:30:49	02:38:41	470870	60fe07f8bf59907b6249b488	267952585	1	main_z	11	advance_on_keypress_ZEE	82	stimuli_distractor_trianglediamonds.svg	stimuli_target_trianglesquares.svg	26	yes	57	0	538
6.6.1	mac	2022-12-30	02:30:49	02:38:43	472770	60fe07f8bf59907b6249b488	267952585	1	main_z	11	main_z	83	stimuli_target_circletriangles.svg	stimuli_distractor_diamondtriangles.svg	5	yes	44	1	728
6.6.1	mac	2022-12-30	02:30:49	02:38:43	472770	60fe07f8bf59907b6249b488	267952585	1	main_z	11	advance_on_keypress_ZEE	84	stimuli_target_circletriangles.svg	stimuli_distractor_diamondtriangles.svg	5	yes	57	0	620
6.6.1	mac	2022-12-30	02:30:49	02:38:44	474489	60fe07f8bf59907b6249b488	267952585	1	main_z	11	main_z	85	stimuli_distractor_diamondtriangles.svg	stimuli_target_squarediamonds.svg	16	yes	44	1	461
6.6.1	mac	2022-12-30	02:30:49	02:38:44	474489	60fe07f8bf59907b6249b488	267952585	1	main_z	11	advance_on_keypress_ZEE	86	stimuli_distractor_diamondtriangles.svg	stimuli_target_squarediamonds.svg	16	yes	57	0	658
6.6.1	mac	2022-12-30	02:30:49	02:38:47	476580	60fe07f8bf59907b6249b488	267952585	1	main_z	11	main_z	87	stimuli_distractor_diamondtriangles.svg	stimuli_target_diamondsquares.svg	32	yes	44	1	800
6.6.1	mac	2022-12-30	02:30:49	02:38:47	476580	60fe07f8bf59907b6249b488	267952585	1	main_z	11	advance_on_keypress_ZEE	88	stimuli_distractor_diamondtriangles.svg	stimuli_target_diamondsquares.svg	32	yes	57	0	466
6.6.1	mac	2022-12-30	02:30:49	02:38:48	478091	60fe07f8bf59907b6249b488	267952585	1	main_z	11	main_z	89	stimuli_distractor_trianglediamonds.svg	stimuli_distractor_trianglediamonds.svg	34	no	44	0	411
6.6.1	mac	2022-12-30	02:30:49	02:38:48	478091	60fe07f8bf59907b6249b488	267952585	1	main_z	11	advance_on_keypress_ZEE	90	stimuli_distractor_trianglediamonds.svg	stimuli_distractor_trianglediamonds.svg	34	no	57	0	607
6.6.1	mac	2022-12-30	02:30:49	02:38:50	480054	60fe07f8bf59907b6249b488	267952585	1	main_z	11	main_z	91	stimuli_target_squaretriangles.svg	stimuli_distractor_diamondtriangles.svg	7	yes	44	1	721
6.6.1	mac	2022-12-30	02:30:49	02:38:50	480054	60fe07f8bf59907b6249b488	267952585	1	main_z	11	advance_on_keypress_ZEE	92	stimuli_target_squaretriangles.svg	stimuli_distractor_diamondtriangles.svg	7	yes	57	0	416
6.6.1	mac	2022-12-30	02:30:49	02:38:52	481668	60fe07f8bf59907b6249b488	267952585	1	main_z	11	main_z	93	stimuli_distractor_diamondtriangles.svg	stimuli_target_trianglesquares.svg	30	yes	44	1	568
6.6.1	mac	2022-12-30	02:30:49	02:38:52	481668	60fe07f8bf59907b6249b488	267952585	1	main_z	11	advance_on_keypress_ZEE	94	stimuli_distractor_diamondtriangles.svg	stimuli_target_trianglesquares.svg	30	yes	57	0	709
6.6.1	mac	2022-12-30	02:30:49	02:38:53	483416	60fe07f8bf59907b6249b488	267952585	1	main_z	11	main_z	95	stimuli_distractor_diamondtriangles.svg	stimuli_target_diamondcircles.svg	31	yes	44	1	411
6.6.1	mac	2022-12-30	02:30:49	02:38:53	483416	60fe07f8bf59907b6249b488	267952585	1	main_z	11	advance_on_keypress_ZEE	96	stimuli_distractor_diamondtriangles.svg	stimuli_target_diamondcircles.svg	31	yes	57	0	444
6.6.1	mac	2022-12-30	02:30:49	02:38:55	484975	60fe07f8bf59907b6249b488	267952585	1	main_z	11	main_z	97	stimuli_distractor_diamondtriangles.svg	stimuli_target_squaretriangles.svg	15	yes	44	1	485
6.6.1	mac	2022-12-30	02:30:49	02:38:55	484975	60fe07f8bf59907b6249b488	267952585	1	main_z	11	advance_on_keypress_ZEE	98	stimuli_distractor_diamondtriangles.svg	stimuli_target_squaretriangles.svg	15	yes	57	0	379
6.6.1	mac	2022-12-30	02:30:49	02:38:56	486432	60fe07f8bf59907b6249b488	267952585	1	main_z	11	main_z	99	stimuli_distractor_trianglediamonds.svg	stimuli_distractor_diamondtriangles.svg	36	no	44	0	444
6.6.1	mac	2022-12-30	02:30:49	02:38:56	486432	60fe07f8bf59907b6249b488	267952585	1	main_z	11	advance_on_keypress_ZEE	100	stimuli_distractor_trianglediamonds.svg	stimuli_distractor_diamondtriangles.svg	36	no	57	0	595
6.6.1	mac	2022-12-30	02:30:49	02:39:00	489659	60fe07f8bf59907b6249b488	267952585	1	main_z	11	main_z	101	stimuli_distractor_trianglediamonds.svg	stimuli_distractor_diamondtriangles.svg	35	no	0	1	2000
6.6.1	mac	2022-12-30	02:30:49	02:39:00	489659	60fe07f8bf59907b6249b488	267952585	1	main_z	11	advance_on_keypress_ZEE	102	stimuli_distractor_trianglediamonds.svg	stimuli_distractor_diamondtriangles.svg	35	no	57	0	663
6.6.1	mac	2022-12-30	02:30:49	02:39:02	491784	60fe07f8bf59907b6249b488	267952585	1	main_z	11	main_z	103	stimuli_distractor_diamondtriangles.svg	stimuli_target_trianglecircles.svg	29	yes	44	1	823
6.6.1	mac	2022-12-30	02:30:49	02:39:02	491784	60fe07f8bf59907b6249b488	267952585	1	main_z	11	advance_on_keypress_ZEE	104	stimuli_distractor_diamondtriangles.svg	stimuli_target_trianglecircles.svg	29	yes	57	0	448
6.6.1	mac	2022-12-30	02:30:49	02:39:04	493567	60fe07f8bf59907b6249b488	267952585	1	main_z	11	main_z	105	stimuli_distractor_trianglediamonds.svg	stimuli_target_diamondsquares.svg	28	yes	44	1	704
6.6.1	mac	2022-12-30	02:30:49	02:39:04	493567	60fe07f8bf59907b6249b488	267952585	1	main_z	11	advance_on_keypress_ZEE	106	stimuli_distractor_trianglediamonds.svg	stimuli_target_diamondsquares.svg	28	yes	57	0	563
6.6.1	mac	2022-12-30	02:30:49	02:39:05	495269	60fe07f8bf59907b6249b488	267952585	1	main_z	11	main_z	107	stimuli_target_trianglecircles.svg	stimuli_distractor_trianglediamonds.svg	17	yes	44	1	504
6.6.1	mac	2022-12-30	02:30:49	02:39:05	495269	60fe07f8bf59907b6249b488	267952585	1	main_z	11	advance_on_keypress_ZEE	108	stimuli_target_trianglecircles.svg	stimuli_distractor_trianglediamonds.svg	17	yes	57	0	426
6.6.1	mac	2022-12-30	02:30:49	02:39:07	496885	60fe07f8bf59907b6249b488	267952585	1	main_z	11	main_z	109	stimuli_target_squarediamonds.svg	stimuli_distractor_trianglediamonds.svg	4	yes	44	1	552
6.6.1	mac	2022-12-30	02:30:49	02:39:07	496885	60fe07f8bf59907b6249b488	267952585	1	main_z	11	advance_on_keypress_ZEE	110	stimuli_target_squarediamonds.svg	stimuli_distractor_trianglediamonds.svg	4	yes	57	0	470
6.6.1	mac	2022-12-30	02:30:49	02:39:08	498377	60fe07f8bf59907b6249b488	267952585	1	main_z	11	main_z	111	stimuli_target_squarediamonds.svg	stimuli_distractor_diamondtriangles.svg	8	yes	44	1	394
6.6.1	mac	2022-12-30	02:30:49	02:39:08	498377	60fe07f8bf59907b6249b488	267952585	1	main_z	11	advance_on_keypress_ZEE	112	stimuli_target_squarediamonds.svg	stimuli_distractor_diamondtriangles.svg	8	yes	57	0	646
6.6.1	mac	2022-12-30	02:30:49	02:39:10	500096	60fe07f8bf59907b6249b488	267952585	1	main_z	11	main_z	113	stimuli_target_circlediamonds.svg	stimuli_distractor_diamondtriangles.svg	6	yes	44	1	443
6.6.1	mac	2022-12-30	02:30:49	02:39:10	500096	60fe07f8bf59907b6249b488	267952585	1	main_z	11	advance_on_keypress_ZEE	114	stimuli_target_circlediamonds.svg	stimuli_distractor_diamondtriangles.svg	6	yes	57	0	408
6.6.1	mac	2022-12-30	02:30:49	02:39:11	501501	60fe07f8bf59907b6249b488	267952585	1	main_z	11	main_z	115	stimuli_target_diamondsquares.svg	stimuli_distractor_diamondtriangles.svg	24	yes	44	1	364
6.6.1	mac	2022-12-30	02:30:49	02:39:11	501501	60fe07f8bf59907b6249b488	267952585	1	main_z	11	advance_on_keypress_ZEE	116	stimuli_target_diamondsquares.svg	stimuli_distractor_diamondtriangles.svg	24	yes	57	0	499
6.6.1	mac	2022-12-30	02:30:49	02:39:13	503065	60fe07f8bf59907b6249b488	267952585	1	main_z	11	main_z	117	stimuli_distractor_diamondtriangles.svg	stimuli_distractor_diamondtriangles.svg	40	no	44	0	427
6.6.1	mac	2022-12-30	02:30:49	02:39:13	503065	60fe07f8bf59907b6249b488	267952585	1	main_z	11	advance_on_keypress_ZEE	118	stimuli_distractor_diamondtriangles.svg	stimuli_distractor_diamondtriangles.svg	40	no	57	0	962
6.6.1	mac	2022-12-30	02:30:49	02:39:15	505326	60fe07f8bf59907b6249b488	267952585	1	main_z	11	main_z	119	stimuli_target_circletriangles.svg	stimuli_distractor_trianglediamonds.svg	1	yes	44	1	667
6.6.1	mac	2022-12-30	02:30:49	02:39:15	505326	60fe07f8bf59907b6249b488	267952585	1	main_z	11	advance_on_keypress_ZEE	120	stimuli_target_circletriangles.svg	stimuli_distractor_trianglediamonds.svg	1	yes	57	0	471
6.6.1	mac	2022-12-30	02:30:49	02:39:17	507009	60fe07f8bf59907b6249b488	267952585	1	main_z	11	main_z	121	stimuli_distractor_trianglediamonds.svg	stimuli_target_squarediamonds.svg	12	yes	44	1	567
6.6.1	mac	2022-12-30	02:30:49	02:39:17	507009	60fe07f8bf59907b6249b488	267952585	1	main_z	11	advance_on_keypress_ZEE	122	stimuli_distractor_trianglediamonds.svg	stimuli_target_squarediamonds.svg	12	yes	57	0	475
6.6.1	mac	2022-12-30	02:30:49	02:39:19	508875	60fe07f8bf59907b6249b488	267952585	1	main_z	11	main_z	123	stimuli_target_diamondcircles.svg	stimuli_distractor_diamondtriangles.svg	23	yes	44	1	763
6.6.1	mac	2022-12-30	02:30:49	02:39:19	508875	60fe07f8bf59907b6249b488	267952585	1	main_z	11	advance_on_keypress_ZEE	124	stimuli_target_diamondcircles.svg	stimuli_distractor_diamondtriangles.svg	23	yes	57	0	448
6.6.1	mac	2022-12-30	02:30:49	02:39:21	510653	60fe07f8bf59907b6249b488	267952585	1	main_z	11	main_z	125	stimuli_distractor_diamondtriangles.svg	stimuli_target_circletriangles.svg	13	yes	44	1	690
6.6.1	mac	2022-12-30	02:30:49	02:39:21	510653	60fe07f8bf59907b6249b488	267952585	1	main_z	11	advance_on_keypress_ZEE	126	stimuli_distractor_diamondtriangles.svg	stimuli_target_circletriangles.svg	13	yes	57	0	677
6.6.1	mac	2022-12-30	02:30:49	02:39:23	512964	60fe07f8bf59907b6249b488	267952585	1	main_z	11	main_z	127	stimuli_distractor_trianglediamonds.svg	stimuli_target_diamondcircles.svg	27	yes	44	1	1000
6.6.1	mac	2022-12-30	02:30:49	02:39:23	512964	60fe07f8bf59907b6249b488	267952585	1	main_z	11	advance_on_keypress_ZEE	128	stimuli_distractor_trianglediamonds.svg	stimuli_target_diamondcircles.svg	27	yes	57	0	516
6.6.1	mac	2022-12-30	02:30:49	02:39:26	516122	60fe07f8bf59907b6249b488	267952585	1	main_z	11	main_z	129	stimuli_distractor_diamondtriangles.svg	stimuli_distractor_trianglediamonds.svg	37	no	0	1	2000
6.6.1	mac	2022-12-30	02:30:49	02:39:26	516122	60fe07f8bf59907b6249b488	267952585	1	main_z	11	advance_on_keypress_ZEE	130	stimuli_distractor_diamondtriangles.svg	stimuli_distractor_trianglediamonds.svg	37	no	57	0	514
6.6.1	mac	2022-12-30	02:30:49	02:39:28	517697	60fe07f8bf59907b6249b488	267952585	1	main_z	11	main_z	131	stimuli_target_trianglesquares.svg	stimuli_distractor_trianglediamonds.svg	18	yes	44	1	427
6.6.1	mac	2022-12-30	02:30:49	02:39:28	517697	60fe07f8bf59907b6249b488	267952585	1	main_z	11	advance_on_keypress_ZEE	132	stimuli_target_trianglesquares.svg	stimuli_distractor_trianglediamonds.svg	18	yes	57	0	444
6.6.1	mac	2022-12-30	02:30:49	02:39:29	519193	60fe07f8bf59907b6249b488	267952585	1	main_z	11	main_z	133	stimuli_target_diamondsquares.svg	stimuli_distractor_trianglediamonds.svg	20	yes	44	1	422
6.6.1	mac	2022-12-30	02:30:49	02:39:29	519193	60fe07f8bf59907b6249b488	267952585	1	main_z	11	advance_on_keypress_ZEE	134	stimuli_target_diamondsquares.svg	stimuli_distractor_trianglediamonds.svg	20	yes	57	0	457
6.6.1	mac	2022-12-30	02:30:49	02:39:31	520643	60fe07f8bf59907b6249b488	267952585	1	main_z	11	main_z	135	stimuli_distractor_diamondtriangles.svg	stimuli_distractor_trianglediamonds.svg	38	no	44	0	354
6.6.1	mac	2022-12-30	02:30:49	02:39:31	520643	60fe07f8bf59907b6249b488	267952585	1	main_z	11	advance_on_keypress_ZEE	136	stimuli_distractor_diamondtriangles.svg	stimuli_distractor_trianglediamonds.svg	38	no	57	0	605
6.6.1	mac	2022-12-30	02:30:49	02:39:32	522363	60fe07f8bf59907b6249b488	267952585	1	main_z	11	main_z	137	stimuli_target_squaretriangles.svg	stimuli_distractor_trianglediamonds.svg	3	yes	44	1	489
6.6.1	mac	2022-12-30	02:30:49	02:39:32	522363	60fe07f8bf59907b6249b488	267952585	1	main_z	11	advance_on_keypress_ZEE	138	stimuli_target_squaretriangles.svg	stimuli_distractor_trianglediamonds.svg	3	yes	57	0	434
6.6.1	mac	2022-12-30	02:30:49	02:39:34	523874	60fe07f8bf59907b6249b488	267952585	1	main_z	11	main_z	139	stimuli_target_trianglesquares.svg	stimuli_distractor_diamondtriangles.svg	22	yes	44	1	447
6.6.1	mac	2022-12-30	02:30:49	02:39:34	523874	60fe07f8bf59907b6249b488	267952585	1	main_z	11	advance_on_keypress_ZEE	140	stimuli_target_trianglesquares.svg	stimuli_distractor_diamondtriangles.svg	22	yes	57	0	430
6.6.1	mac	2022-12-30	02:30:49	02:39:37	526947	60fe07f8bf59907b6249b488	267952585	1	main_z	11	main_z	141	stimuli_distractor_trianglediamonds.svg	stimuli_target_squaretriangles.svg	11	yes	0	0	2000
6.6.1	mac	2022-12-30	02:30:49	02:39:37	526947	60fe07f8bf59907b6249b488	267952585	1	main_z	11	advance_on_keypress_ZEE	142	stimuli_distractor_trianglediamonds.svg	stimuli_target_squaretriangles.svg	11	yes	57	0	446
6.6.1	mac	2022-12-30	02:30:49	02:39:38	528493	60fe07f8bf59907b6249b488	267952585	1	main_z	11	main_z	143	stimuli_target_diamondcircles.svg	stimuli_distractor_trianglediamonds.svg	19	yes	44	1	461
6.6.1	mac	2022-12-30	02:30:49	02:39:38	528493	60fe07f8bf59907b6249b488	267952585	1	main_z	11	advance_on_keypress_ZEE	144	stimuli_target_diamondcircles.svg	stimuli_distractor_trianglediamonds.svg	19	yes	57	0	470
6.6.1	mac	2022-12-30	02:30:49	02:39:40	530287	60fe07f8bf59907b6249b488	267952585	1	main_z	11	main_z	145	stimuli_distractor_trianglediamonds.svg	stimuli_target_circletriangles.svg	9	yes	44	1	688
6.6.1	mac	2022-12-30	02:30:49	02:39:40	530287	60fe07f8bf59907b6249b488	267952585	1	main_z	11	advance_on_keypress_ZEE	146	stimuli_distractor_trianglediamonds.svg	stimuli_target_circletriangles.svg	9	yes	57	0	466
6.6.1	mac	2022-12-30	02:30:49	02:39:42	531911	60fe07f8bf59907b6249b488	267952585	1	main_z	11	main_z	147	stimuli_target_trianglecircles.svg	stimuli_distractor_diamondtriangles.svg	21	yes	44	1	527
6.6.1	mac	2022-12-30	02:30:49	02:39:42	531911	60fe07f8bf59907b6249b488	267952585	1	main_z	11	advance_on_keypress_ZEE	148	stimuli_target_trianglecircles.svg	stimuli_distractor_diamondtriangles.svg	21	yes	57	0	384
6.6.1	mac	2022-12-30	02:30:49	02:39:43	533425	60fe07f8bf59907b6249b488	267952585	1	main_z	11	main_z	149	stimuli_distractor_diamondtriangles.svg	stimuli_distractor_diamondtriangles.svg	39	no	44	0	505
6.6.1	mac	2022-12-30	02:30:49	02:39:43	533425	60fe07f8bf59907b6249b488	267952585	1	main_z	11	advance_on_keypress_ZEE	150	stimuli_distractor_diamondtriangles.svg	stimuli_distractor_diamondtriangles.svg	39	no	57	0	476
6.6.1	mac	2022-12-30	02:30:49	02:39:47	536558	60fe07f8bf59907b6249b488	267952585	1	main_z	11	main_z	151	stimuli_distractor_trianglediamonds.svg	stimuli_target_circlediamonds.svg	10	yes	0	0	2000
6.6.1	mac	2022-12-30	02:30:49	02:39:47	536558	60fe07f8bf59907b6249b488	267952585	1	main_z	11	advance_on_keypress_ZEE	152	stimuli_distractor_trianglediamonds.svg	stimuli_target_circlediamonds.svg	10	yes	57	0	458
6.6.1	mac	2022-12-30	02:30:49	02:39:48	538077	60fe07f8bf59907b6249b488	267952585	1	main_z	11	main_z	153	stimuli_target_circlediamonds.svg	stimuli_distractor_trianglediamonds.svg	2	yes	44	1	420
6.6.1	mac	2022-12-30	02:30:49	02:39:48	538077	60fe07f8bf59907b6249b488	267952585	1	main_z	11	advance_on_keypress_ZEE	154	stimuli_target_circlediamonds.svg	stimuli_distractor_trianglediamonds.svg	2	yes	57	0	606
6.6.1	mac	2022-12-30	02:30:49	02:39:50	539755	60fe07f8bf59907b6249b488	267952585	1	main_z	11	main_z	155	stimuli_distractor_trianglediamonds.svg	stimuli_target_trianglecircles.svg	25	yes	44	1	447
6.6.1	mac	2022-12-30	02:30:49	02:39:50	539755	60fe07f8bf59907b6249b488	267952585	1	main_z	11	advance_on_keypress_ZEE	156	stimuli_distractor_trianglediamonds.svg	stimuli_target_trianglecircles.svg	25	yes	57	0	483
6.6.1	mac	2022-12-30	02:30:49	02:39:51	541507	60fe07f8bf59907b6249b488	267952585	1	main_z	11	main_z	157	stimuli_distractor_diamondtriangles.svg	stimuli_target_circlediamonds.svg	14	yes	44	1	630
6.6.1	mac	2022-12-30	02:30:49	02:39:51	541507	60fe07f8bf59907b6249b488	267952585	1	main_z	11	advance_on_keypress_ZEE	158	stimuli_distractor_diamondtriangles.svg	stimuli_target_circlediamonds.svg	14	yes	57	0	689
6.6.1	mac	2022-12-30	02:30:49	02:39:55	544829	60fe07f8bf59907b6249b488	267952585	1	main_z	11	main_z	159	stimuli_distractor_trianglediamonds.svg	stimuli_distractor_trianglediamonds.svg	33	no	0	1	2000
6.6.1	mac	2022-12-30	02:30:49	02:39:55	544829	60fe07f8bf59907b6249b488	267952585	1	main_z	11	advance_on_keypress_ZEE	160	stimuli_distractor_trianglediamonds.svg	stimuli_distractor_trianglediamonds.svg	33	no	57	0	494