build	computer.platform	date	time	timestamp	time_elapsed_ms	subject	group	session	blockcode	blocknum	trialcode	trialnum	stimulus_left	stimulus_right	stim_index	target_present	response	correct	latency
6.6.1	win	2022-12-19	22:29:01	22:30:53	110485	5cfe7510d987a800178eab1a	986630850	2	practice_z	5	practice_z	1	stimuli_distractor_trianglediamonds.svg	stimuli_distractor_diamondtriangles.svg	16	no	44	0	504
6.6.1	win	2022-12-19	22:29:01	22:30:53	110485	5cfe7510d987a800178eab1a	986630850	2	practice_z	5	advance_on_keypress_ZEE	2	stimuli_distractor_trianglediamonds.svg	stimuli_distractor_diamondtriangles.svg	16	no	57	0	1722
6.6.1	win	2022-12-19	22:29:01	22:30:56	114127	5cfe7510d987a800178eab1a	986630850	2	practice_z	5	practice_z	3	stimuli_distractor_trianglediamonds.svg	stimuli_distractor_trianglediamonds.svg	15	no	44	0	274
6.6.1	win	2022-12-19	22:29:01	22:30:56	114127	5cfe7510d987a800178eab1a	986630850	2	practice_z	5	advance_on_keypress_ZEE	4	stimuli_distractor_trianglediamonds.svg	stimuli_distractor_trianglediamonds.svg	15	no	57	0	944
6.6.1	win	2022-12-19	22:29:01	22:31:01	118720	5cfe7510d987a800178eab1a	986630850	2	practice_z	5	practice_z	5	stimuli_distractor_diamondtriangles.svg	stimuli_target_circletriangles.svg	7	yes	0	0	2000
6.6.1	win	2022-12-19	22:29:01	22:31:01	118720	5cfe7510d987a800178eab1a	986630850	2	practice_z	5	advance_on_keypress_ZEE	6	stimuli_distractor_diamondtriangles.svg	stimuli_target_circletriangles.svg	7	yes	57	0	763
6.6.1	win	2022-12-19	22:29:01	22:31:03	121415	5cfe7510d987a800178eab1a	986630850	2	practice_z	5	practice_z	7	stimuli_target_diamondsquares.svg	stimuli_distractor_diamondtriangles.svg	3	yes	44	1	279
6.6.1	win	2022-12-19	22:29:01	22:31:03	121415	5cfe7510d987a800178eab1a	986630850	2	practice_z	5	advance_on_keypress_ZEE	8	stimuli_target_diamondsquares.svg	stimuli_distractor_diamondtriangles.svg	3	yes	57	0	743
6.6.1	win	2022-12-19	22:29:01	22:31:06	124045	5cfe7510d987a800178eab1a	986630850	2	practice_z	5	practice_z	9	stimuli_target_diamondsquares.svg	stimuli_distractor_trianglediamonds.svg	6	yes	44	1	242
6.6.1	win	2022-12-19	22:29:01	22:31:06	124045	5cfe7510d987a800178eab1a	986630850	2	practice_z	5	advance_on_keypress_ZEE	10	stimuli_target_diamondsquares.svg	stimuli_distractor_trianglediamonds.svg	6	yes	57	0	691
6.6.1	win	2022-12-19	22:29:01	22:31:09	127388	5cfe7510d987a800178eab1a	986630850	2	practice_z	5	practice_z	11	stimuli_distractor_diamondtriangles.svg	stimuli_distractor_trianglediamonds.svg	14	no	44	0	1003
6.6.1	win	2022-12-19	22:29:01	22:31:09	127388	5cfe7510d987a800178eab1a	986630850	2	practice_z	5	advance_on_keypress_ZEE	12	stimuli_distractor_diamondtriangles.svg	stimuli_distractor_trianglediamonds.svg	14	no	57	0	452
6.6.1	win	2022-12-19	22:29:01	22:31:12	129943	5cfe7510d987a800178eab1a	986630850	2	practice_z	5	practice_z	13	stimuli_distractor_diamondtriangles.svg	stimuli_target_trianglecircles.svg	9	yes	44	1	457
6.6.1	win	2022-12-19	22:29:01	22:31:12	129943	5cfe7510d987a800178eab1a	986630850	2	practice_z	5	advance_on_keypress_ZEE	14	stimuli_distractor_diamondtriangles.svg	stimuli_target_trianglecircles.svg	9	yes	57	0	554
6.6.1	win	2022-12-19	22:29:01	22:31:14	132265	5cfe7510d987a800178eab1a	986630850	2	practice_z	5	practice_z	15	stimuli_target_squarediamonds.svg	stimuli_distractor_trianglediamonds.svg	5	yes	44	1	126
6.6.1	win	2022-12-19	22:29:01	22:31:14	132265	5cfe7510d987a800178eab1a	986630850	2	practice_z	5	advance_on_keypress_ZEE	16	stimuli_target_squarediamonds.svg	stimuli_distractor_trianglediamonds.svg	5	yes	57	0	431
6.6.1	win	2022-12-19	22:29:01	22:31:17	135225	5cfe7510d987a800178eab1a	986630850	2	practice_z	5	practice_z	17	stimuli_target_circlediamonds.svg	stimuli_distractor_diamondtriangles.svg	1	yes	44	1	873
6.6.1	win	2022-12-19	22:29:01	22:31:17	135225	5cfe7510d987a800178eab1a	986630850	2	practice_z	5	advance_on_keypress_ZEE	18	stimuli_target_circlediamonds.svg	stimuli_distractor_diamondtriangles.svg	1	yes	57	0	154
6.6.1	win	2022-12-19	22:29:01	22:31:19	137218	5cfe7510d987a800178eab1a	986630850	2	practice_z	5	practice_z	19	stimuli_target_squarediamonds.svg	stimuli_distractor_diamondtriangles.svg	2	yes	44	1	200
6.6.1	win	2022-12-19	22:29:01	22:31:19	137218	5cfe7510d987a800178eab1a	986630850	2	practice_z	5	advance_on_keypress_ZEE	20	stimuli_target_squarediamonds.svg	stimuli_distractor_diamondtriangles.svg	2	yes	57	0	390
6.6.1	win	2022-12-19	22:29:01	22:31:22	139610	5cfe7510d987a800178eab1a	986630850	2	practice_z	5	practice_z	21	stimuli_distractor_trianglediamonds.svg	stimuli_target_squarediamonds.svg	11	yes	44	1	360
6.6.1	win	2022-12-19	22:29:01	22:31:22	139610	5cfe7510d987a800178eab1a	986630850	2	practice_z	5	advance_on_keypress_ZEE	22	stimuli_distractor_trianglediamonds.svg	stimuli_target_squarediamonds.svg	11	yes	57	0	429
6.6.1	win	2022-12-19	22:29:01	22:31:24	142161	5cfe7510d987a800178eab1a	986630850	2	practice_z	5	practice_z	23	stimuli_target_circlediamonds.svg	stimuli_distractor_trianglediamonds.svg	4	yes	44	1	461
6.6.1	win	2022-12-19	22:29:01	22:31:24	142161	5cfe7510d987a800178eab1a	986630850	2	practice_z	5	advance_on_keypress_ZEE	24	stimuli_target_circlediamonds.svg	stimuli_distractor_trianglediamonds.svg	4	yes	57	0	434
6.6.1	win	2022-12-19	22:29:01	22:31:27	144561	5cfe7510d987a800178eab1a	986630850	2	practice_z	5	practice_z	25	stimuli_distractor_trianglediamonds.svg	stimuli_target_circlediamonds.svg	10	yes	44	1	311
6.6.1	win	2022-12-19	22:29:01	22:31:27	144561	5cfe7510d987a800178eab1a	986630850	2	practice_z	5	advance_on_keypress_ZEE	26	stimuli_distractor_trianglediamonds.svg	stimuli_target_circlediamonds.svg	10	yes	57	0	328
6.6.1	win	2022-12-19	22:29:01	22:31:29	146873	5cfe7510d987a800178eab1a	986630850	2	practice_z	5	practice_z	27	stimuli_distractor_diamondtriangles.svg	stimuli_target_diamondcircles.svg	8	yes	44	1	324
6.6.1	win	2022-12-19	22:29:01	22:31:29	146873	5cfe7510d987a800178eab1a	986630850	2	practice_z	5	advance_on_keypress_ZEE	28	stimuli_distractor_diamondtriangles.svg	stimuli_target_diamondcircles.svg	8	yes	57	0	355
6.6.1	win	2022-12-19	22:29:01	22:31:31	149190	5cfe7510d987a800178eab1a	986630850	2	practice_z	5	practice_z	29	stimuli_distractor_diamondtriangles.svg	stimuli_distractor_diamondtriangles.svg	13	no	44	0	323
6.6.1	win	2022-12-19	22:29:01	22:31:31	149190	5cfe7510d987a800178eab1a	986630850	2	practice_z	5	advance_on_keypress_ZEE	30	stimuli_distractor_diamondtriangles.svg	stimuli_distractor_diamondtriangles.svg	13	no	57	0	660
6.6.1	win	2022-12-19	22:29:01	22:31:34	151749	5cfe7510d987a800178eab1a	986630850	2	practice_z	5	practice_z	31	stimuli_distractor_trianglediamonds.svg	stimuli_target_diamondcircles.svg	12	yes	44	1	250
6.6.1	win	2022-12-19	22:29:01	22:31:34	151749	5cfe7510d987a800178eab1a	986630850	2	practice_z	5	advance_on_keypress_ZEE	32	stimuli_distractor_trianglediamonds.svg	stimuli_target_diamondcircles.svg	12	yes	57	0	296
6.6.1	win	2022-12-19	22:29:01	22:31:39	156947	5cfe7510d987a800178eab1a	986630850	2	main_z	7	main_z	1	stimuli_target_squaretriangles.svg	stimuli_distractor_diamondtriangles.svg	7	yes	44	1	750
6.6.1	win	2022-12-19	22:29:01	22:31:39	156947	5cfe7510d987a800178eab1a	986630850	2	main_z	7	advance_on_keypress_ZEE	2	stimuli_target_squaretriangles.svg	stimuli_distractor_diamondtriangles.svg	7	yes	57	0	918
6.6.1	win	2022-12-19	22:29:01	22:31:41	158996	5cfe7510d987a800178eab1a	986630850	2	main_z	7	main_z	3	stimuli_distractor_diamondtriangles.svg	stimuli_target_trianglecircles.svg	29	yes	44	1	483
6.6.1	win	2022-12-19	22:29:01	22:31:41	158996	5cfe7510d987a800178eab1a	986630850	2	main_z	7	advance_on_keypress_ZEE	4	stimuli_distractor_diamondtriangles.svg	stimuli_target_trianglecircles.svg	29	yes	57	0	684
6.6.1	win	2022-12-19	22:29:01	22:31:43	160567	5cfe7510d987a800178eab1a	986630850	2	main_z	7	main_z	5	stimuli_target_diamondsquares.svg	stimuli_distractor_diamondtriangles.svg	24	yes	44	1	238
6.6.1	win	2022-12-19	22:29:01	22:31:43	160567	5cfe7510d987a800178eab1a	986630850	2	main_z	7	advance_on_keypress_ZEE	6	stimuli_target_diamondsquares.svg	stimuli_distractor_diamondtriangles.svg	24	yes	57	0	502
6.6.1	win	2022-12-19	22:29:01	22:31:44	161975	5cfe7510d987a800178eab1a	986630850	2	main_z	7	main_z	7	stimuli_distractor_trianglediamonds.svg	stimuli_distractor_trianglediamonds.svg	34	no	44	0	264
6.6.1	win	2022-12-19	22:29:01	22:31:44	161975	5cfe7510d987a800178eab1a	986630850	2	main_z	7	advance_on_keypress_ZEE	8	stimuli_distractor_trianglediamonds.svg	stimuli_distractor_trianglediamonds.svg	34	no	57	0	462
6.6.1	win	2022-12-19	22:29:01	22:31:45	163377	5cfe7510d987a800178eab1a	986630850	2	main_z	7	main_z	9	stimuli_distractor_trianglediamonds.svg	stimuli_target_circlediamonds.svg	10	yes	44	1	283
6.6.1	win	2022-12-19	22:29:01	22:31:45	163377	5cfe7510d987a800178eab1a	986630850	2	main_z	7	advance_on_keypress_ZEE	10	stimuli_distractor_trianglediamonds.svg	stimuli_target_circlediamonds.svg	10	yes	57	0	652
6.6.1	win	2022-12-19	22:29:01	22:31:49	166678	5cfe7510d987a800178eab1a	986630850	2	main_z	7	main_z	11	stimuli_distractor_trianglediamonds.svg	stimuli_distractor_trianglediamonds.svg	33	no	0	1	2000
6.6.1	win	2022-12-19	22:29:01	22:31:49	166678	5cfe7510d987a800178eab1a	986630850	2	main_z	7	advance_on_keypress_ZEE	12	stimuli_distractor_trianglediamonds.svg	stimuli_distractor_trianglediamonds.svg	33	no	57	0	581
6.6.1	win	2022-12-19	22:29:01	22:31:50	168149	5cfe7510d987a800178eab1a	986630850	2	main_z	7	main_z	13	stimuli_distractor_diamondtriangles.svg	stimuli_distractor_trianglediamonds.svg	37	no	44	0	239
6.6.1	win	2022-12-19	22:29:01	22:31:50	168149	5cfe7510d987a800178eab1a	986630850	2	main_z	7	advance_on_keypress_ZEE	14	stimuli_distractor_diamondtriangles.svg	stimuli_distractor_trianglediamonds.svg	37	no	57	0	468
6.6.1	win	2022-12-19	22:29:01	22:31:52	169515	5cfe7510d987a800178eab1a	986630850	2	main_z	7	main_z	15	stimuli_distractor_diamondtriangles.svg	stimuli_target_squaretriangles.svg	15	yes	44	1	254
6.6.1	win	2022-12-19	22:29:01	22:31:52	169515	5cfe7510d987a800178eab1a	986630850	2	main_z	7	advance_on_keypress_ZEE	16	stimuli_distractor_diamondtriangles.svg	stimuli_target_squaretriangles.svg	15	yes	57	0	398
6.6.1	win	2022-12-19	22:29:01	22:31:53	171110	5cfe7510d987a800178eab1a	986630850	2	main_z	7	main_z	17	stimuli_distractor_trianglediamonds.svg	stimuli_target_trianglesquares.svg	26	yes	44	1	549
6.6.1	win	2022-12-19	22:29:01	22:31:53	171110	5cfe7510d987a800178eab1a	986630850	2	main_z	7	advance_on_keypress_ZEE	18	stimuli_distractor_trianglediamonds.svg	stimuli_target_trianglesquares.svg	26	yes	57	0	818
6.6.1	win	2022-12-19	22:29:01	22:31:55	172855	5cfe7510d987a800178eab1a	986630850	2	main_z	7	main_z	19	stimuli_target_squaretriangles.svg	stimuli_distractor_trianglediamonds.svg	3	yes	44	1	278
6.6.1	win	2022-12-19	22:29:01	22:31:55	172855	5cfe7510d987a800178eab1a	986630850	2	main_z	7	advance_on_keypress_ZEE	20	stimuli_target_squaretriangles.svg	stimuli_distractor_trianglediamonds.svg	3	yes	57	0	405
6.6.1	win	2022-12-19	22:29:01	22:31:56	174298	5cfe7510d987a800178eab1a	986630850	2	main_z	7	main_z	21	stimuli_distractor_diamondtriangles.svg	stimuli_distractor_diamondtriangles.svg	39	no	44	0	405
6.6.1	win	2022-12-19	22:29:01	22:31:56	174298	5cfe7510d987a800178eab1a	986630850	2	main_z	7	advance_on_keypress_ZEE	22	stimuli_distractor_diamondtriangles.svg	stimuli_distractor_diamondtriangles.svg	39	no	57	0	400
6.6.1	win	2022-12-19	22:29:01	22:31:58	175634	5cfe7510d987a800178eab1a	986630850	2	main_z	7	main_z	23	stimuli_target_circlediamonds.svg	stimuli_distractor_diamondtriangles.svg	6	yes	44	1	291
6.6.1	win	2022-12-19	22:29:01	22:31:58	175634	5cfe7510d987a800178eab1a	986630850	2	main_z	7	advance_on_keypress_ZEE	24	stimuli_target_circlediamonds.svg	stimuli_distractor_diamondtriangles.svg	6	yes	57	0	397
6.6.1	win	2022-12-19	22:29:01	22:31:59	176990	5cfe7510d987a800178eab1a	986630850	2	main_z	7	main_z	25	stimuli_distractor_trianglediamonds.svg	stimuli_target_diamondcircles.svg	27	yes	44	1	313
6.6.1	win	2022-12-19	22:29:01	22:31:59	176990	5cfe7510d987a800178eab1a	986630850	2	main_z	7	advance_on_keypress_ZEE	26	stimuli_distractor_trianglediamonds.svg	stimuli_target_diamondcircles.svg	27	yes	57	0	426
6.6.1	win	2022-12-19	22:29:01	22:32:01	178611	5cfe7510d987a800178eab1a	986630850	2	main_z	7	main_z	27	stimuli_distractor_trianglediamonds.svg	stimuli_target_squaretriangles.svg	11	yes	44	1	551
6.6.1	win	2022-12-19	22:29:01	22:32:01	178611	5cfe7510d987a800178eab1a	986630850	2	main_z	7	advance_on_keypress_ZEE	28	stimuli_distractor_trianglediamonds.svg	stimuli_target_squaretriangles.svg	11	yes	57	0	342
6.6.1	win	2022-12-19	22:29:01	22:32:04	181610	5cfe7510d987a800178eab1a	986630850	2	main_z	7	main_z	29	stimuli_distractor_diamondtriangles.svg	stimuli_target_diamondsquares.svg	32	yes	0	0	2000
6.6.1	win	2022-12-19	22:29:01	22:32:04	181610	5cfe7510d987a800178eab1a	986630850	2	main_z	7	advance_on_keypress_ZEE	30	stimuli_distractor_diamondtriangles.svg	stimuli_target_diamondsquares.svg	32	yes	57	0	274
6.6.1	win	2022-12-19	22:29:01	22:32:05	182913	5cfe7510d987a800178eab1a	986630850	2	main_z	7	main_z	31	stimuli_target_squarediamonds.svg	stimuli_distractor_diamondtriangles.svg	8	yes	44	1	388
6.6.1	win	2022-12-19	22:29:01	22:32:05	182913	5cfe7510d987a800178eab1a	986630850	2	main_z	7	advance_on_keypress_ZEE	32	stimuli_target_squarediamonds.svg	stimuli_distractor_diamondtriangles.svg	8	yes	57	0	498
6.6.1	win	2022-12-19	22:29:01	22:32:06	184394	5cfe7510d987a800178eab1a	986630850	2	main_z	7	main_z	33	stimuli_distractor_diamondtriangles.svg	stimuli_target_trianglesquares.svg	30	yes	44	1	335
6.6.1	win	2022-12-19	22:29:01	22:32:06	184394	5cfe7510d987a800178eab1a	986630850	2	main_z	7	advance_on_keypress_ZEE	34	stimuli_distractor_diamondtriangles.svg	stimuli_target_trianglesquares.svg	30	yes	57	0	331
6.6.1	win	2022-12-19	22:29:01	22:32:08	185734	5cfe7510d987a800178eab1a	986630850	2	main_z	7	main_z	35	stimuli_distractor_trianglediamonds.svg	stimuli_target_diamondsquares.svg	28	yes	44	1	358
6.6.1	win	2022-12-19	22:29:01	22:32:08	185734	5cfe7510d987a800178eab1a	986630850	2	main_z	7	advance_on_keypress_ZEE	36	stimuli_distractor_trianglediamonds.svg	stimuli_target_diamondsquares.svg	28	yes	57	0	371
6.6.1	win	2022-12-19	22:29:01	22:32:09	186931	5cfe7510d987a800178eab1a	986630850	2	main_z	7	main_z	37	stimuli_distractor_diamondtriangles.svg	stimuli_target_circletriangles.svg	13	yes	44	1	190
6.6.1	win	2022-12-19	22:29:01	22:32:09	186931	5cfe7510d987a800178eab1a	986630850	2	main_z	7	advance_on_keypress_ZEE	38	stimuli_distractor_diamondtriangles.svg	stimuli_target_circletriangles.svg	13	yes	57	0	354
6.6.1	win	2022-12-19	22:29:01	22:32:10	188168	5cfe7510d987a800178eab1a	986630850	2	main_z	7	main_z	39	stimuli_target_trianglesquares.svg	stimuli_distractor_trianglediamonds.svg	18	yes	44	1	243
6.6.1	win	2022-12-19	22:29:01	22:32:10	188168	5cfe7510d987a800178eab1a	986630850	2	main_z	7	advance_on_keypress_ZEE	40	stimuli_target_trianglesquares.svg	stimuli_distractor_trianglediamonds.svg	18	yes	57	0	301
6.6.1	win	2022-12-19	22:29:01	22:32:11	189334	5cfe7510d987a800178eab1a	986630850	2	main_z	7	main_z	41	stimuli_distractor_diamondtriangles.svg	stimuli_target_circlediamonds.svg	14	yes	44	1	209
6.6.1	win	2022-12-19	22:29:01	22:32:11	189334	5cfe7510d987a800178eab1a	986630850	2	main_z	7	advance_on_keypress_ZEE	42	stimuli_distractor_diamondtriangles.svg	stimuli_target_circlediamonds.svg	14	yes	57	0	319
6.6.1	win	2022-12-19	22:29:01	22:32:13	190519	5cfe7510d987a800178eab1a	986630850	2	main_z	7	main_z	43	stimuli_target_diamondsquares.svg	stimuli_distractor_trianglediamonds.svg	20	yes	44	1	227
6.6.1	win	2022-12-19	22:29:01	22:32:13	190519	5cfe7510d987a800178eab1a	986630850	2	main_z	7	advance_on_keypress_ZEE	44	stimuli_target_diamondsquares.svg	stimuli_distractor_trianglediamonds.svg	20	yes	57	0	233
6.6.1	win	2022-12-19	22:29:01	22:32:14	191488	5cfe7510d987a800178eab1a	986630850	2	main_z	7	main_z	45	stimuli_target_trianglecircles.svg	stimuli_distractor_diamondtriangles.svg	21	yes	44	1	80
6.6.1	win	2022-12-19	22:29:01	22:32:14	191488	5cfe7510d987a800178eab1a	986630850	2	main_z	7	advance_on_keypress_ZEE	46	stimuli_target_trianglecircles.svg	stimuli_distractor_diamondtriangles.svg	21	yes	57	0	361
6.6.1	win	2022-12-19	22:29:01	22:32:15	192583	5cfe7510d987a800178eab1a	986630850	2	main_z	7	main_z	47	stimuli_distractor_trianglediamonds.svg	stimuli_target_trianglecircles.svg	25	yes	44	1	75
6.6.1	win	2022-12-19	22:29:01	22:32:15	192583	5cfe7510d987a800178eab1a	986630850	2	main_z	7	advance_on_keypress_ZEE	48	stimuli_distractor_trianglediamonds.svg	stimuli_target_trianglecircles.svg	25	yes	57	0	347
6.6.1	win	2022-12-19	22:29:01	22:32:16	193628	5cfe7510d987a800178eab1a	986630850	2	main_z	7	main_z	49	stimuli_target_circletriangles.svg	stimuli_distractor_trianglediamonds.svg	1	yes	44	1	54
6.6.1	win	2022-12-19	22:29:01	22:32:16	193628	5cfe7510d987a800178eab1a	986630850	2	main_z	7	advance_on_keypress_ZEE	50	stimuli_target_circletriangles.svg	stimuli_distractor_trianglediamonds.svg	1	yes	57	0	337
6.6.1	win	2022-12-19	22:29:01	22:32:17	194661	5cfe7510d987a800178eab1a	986630850	2	main_z	7	main_z	51	stimuli_distractor_trianglediamonds.svg	stimuli_distractor_diamondtriangles.svg	36	no	44	0	53
6.6.1	win	2022-12-19	22:29:01	22:32:17	194661	5cfe7510d987a800178eab1a	986630850	2	main_z	7	advance_on_keypress_ZEE	52	stimuli_distractor_trianglediamonds.svg	stimuli_distractor_diamondtriangles.svg	36	no	57	0	321
6.6.1	win	2022-12-19	22:29:01	22:32:18	195642	5cfe7510d987a800178eab1a	986630850	2	main_z	7	main_z	53	stimuli_target_trianglecircles.svg	stimuli_distractor_trianglediamonds.svg	17	yes	44	1	17
6.6.1	win	2022-12-19	22:29:01	22:32:18	195642	5cfe7510d987a800178eab1a	986630850	2	main_z	7	advance_on_keypress_ZEE	54	stimuli_target_trianglecircles.svg	stimuli_distractor_trianglediamonds.svg	17	yes	57	0	335
6.6.1	win	2022-12-19	22:29:01	22:32:20	197893	5cfe7510d987a800178eab1a	986630850	2	main_z	7	main_z	55	stimuli_target_diamondcircles.svg	stimuli_distractor_diamondtriangles.svg	23	yes	44	1	1269
6.6.1	win	2022-12-19	22:29:01	22:32:20	197893	5cfe7510d987a800178eab1a	986630850	2	main_z	7	advance_on_keypress_ZEE	56	stimuli_target_diamondcircles.svg	stimuli_distractor_diamondtriangles.svg	23	yes	57	0	1314
6.6.1	win	2022-12-19	22:29:01	22:32:24	201857	5cfe7510d987a800178eab1a	986630850	2	main_z	7	main_z	57	stimuli_target_trianglesquares.svg	stimuli_distractor_diamondtriangles.svg	22	yes	0	0	2000
6.6.1	win	2022-12-19	22:29:01	22:32:24	201857	5cfe7510d987a800178eab1a	986630850	2	main_z	7	advance_on_keypress_ZEE	58	stimuli_target_trianglesquares.svg	stimuli_distractor_diamondtriangles.svg	22	yes	57	0	2646
6.6.1	win	2022-12-19	22:29:01	22:32:28	205502	5cfe7510d987a800178eab1a	986630850	2	main_z	7	main_z	59	stimuli_distractor_diamondtriangles.svg	stimuli_target_diamondcircles.svg	31	yes	44	1	345
6.6.1	win	2022-12-19	22:29:01	22:32:28	205502	5cfe7510d987a800178eab1a	986630850	2	main_z	7	advance_on_keypress_ZEE	60	stimuli_distractor_diamondtriangles.svg	stimuli_target_diamondcircles.svg	31	yes	57	0	355
6.6.1	win	2022-12-19	22:29:01	22:32:29	206725	5cfe7510d987a800178eab1a	986630850	2	main_z	7	main_z	61	stimuli_distractor_trianglediamonds.svg	stimuli_target_squarediamonds.svg	12	yes	44	1	235
6.6.1	win	2022-12-19	22:29:01	22:32:29	206725	5cfe7510d987a800178eab1a	986630850	2	main_z	7	advance_on_keypress_ZEE	62	stimuli_distractor_trianglediamonds.svg	stimuli_target_squarediamonds.svg	12	yes	57	0	277
6.6.1	win	2022-12-19	22:29:01	22:32:30	207896	5cfe7510d987a800178eab1a	986630850	2	main_z	7	main_z	63	stimuli_distractor_trianglediamonds.svg	stimuli_target_circletriangles.svg	9	yes	44	1	256
6.6.1	win	2022-12-19	22:29:01	22:32:30	207896	5cfe7510d987a800178eab1a	986630850	2	main_z	7	advance_on_keypress_ZEE	64	stimuli_distractor_trianglediamonds.svg	stimuli_target_circletriangles.svg	9	yes	57	0	266
6.6.1	win	2022-12-19	22:29:01	22:32:31	208962	5cfe7510d987a800178eab1a	986630850	2	main_z	7	main_z	65	stimuli_target_diamondcircles.svg	stimuli_distractor_trianglediamonds.svg	19	yes	44	1	156
6.6.1	win	2022-12-19	22:29:01	22:32:31	208962	5cfe7510d987a800178eab1a	986630850	2	main_z	7	advance_on_keypress_ZEE	66	stimuli_target_diamondcircles.svg	stimuli_distractor_trianglediamonds.svg	19	yes	57	0	285
6.6.1	win	2022-12-19	22:29:01	22:32:32	209986	5cfe7510d987a800178eab1a	986630850	2	main_z	7	main_z	67	stimuli_distractor_diamondtriangles.svg	stimuli_distractor_diamondtriangles.svg	40	no	44	0	97
6.6.1	win	2022-12-19	22:29:01	22:32:32	209986	5cfe7510d987a800178eab1a	986630850	2	main_z	7	advance_on_keypress_ZEE	68	stimuli_distractor_diamondtriangles.svg	stimuli_distractor_diamondtriangles.svg	40	no	57	0	296
6.6.1	win	2022-12-19	22:29:01	22:32:33	211101	5cfe7510d987a800178eab1a	986630850	2	main_z	7	main_z	69	stimuli_distractor_trianglediamonds.svg	stimuli_distractor_diamondtriangles.svg	35	no	44	0	163
6.6.1	win	2022-12-19	22:29:01	22:32:33	211101	5cfe7510d987a800178eab1a	986630850	2	main_z	7	advance_on_keypress_ZEE	70	stimuli_distractor_trianglediamonds.svg	stimuli_distractor_diamondtriangles.svg	35	no	57	0	321
6.6.1	win	2022-12-19	22:29:01	22:32:34	212168	5cfe7510d987a800178eab1a	986630850	2	main_z	7	main_z	71	stimuli_target_circletriangles.svg	stimuli_distractor_diamondtriangles.svg	5	yes	44	1	96
6.6.1	win	2022-12-19	22:29:01	22:32:34	212168	5cfe7510d987a800178eab1a	986630850	2	main_z	7	advance_on_keypress_ZEE	72	stimuli_target_circletriangles.svg	stimuli_distractor_diamondtriangles.svg	5	yes	57	0	333
6.6.1	win	2022-12-19	22:29:01	22:32:35	213224	5cfe7510d987a800178eab1a	986630850	2	main_z	7	main_z	73	stimuli_distractor_diamondtriangles.svg	stimuli_distractor_trianglediamonds.svg	38	no	44	0	69
6.6.1	win	2022-12-19	22:29:01	22:32:35	213224	5cfe7510d987a800178eab1a	986630850	2	main_z	7	advance_on_keypress_ZEE	74	stimuli_distractor_diamondtriangles.svg	stimuli_distractor_trianglediamonds.svg	38	no	57	0	314
6.6.1	win	2022-12-19	22:29:01	22:32:36	214244	5cfe7510d987a800178eab1a	986630850	2	main_z	7	main_z	75	stimuli_distractor_diamondtriangles.svg	stimuli_target_squarediamonds.svg	16	yes	44	1	55
6.6.1	win	2022-12-19	22:29:01	22:32:36	214244	5cfe7510d987a800178eab1a	986630850	2	main_z	7	advance_on_keypress_ZEE	76	stimuli_distractor_diamondtriangles.svg	stimuli_target_squarediamonds.svg	16	yes	57	0	328
6.6.1	win	2022-12-19	22:29:01	22:32:37	215303	5cfe7510d987a800178eab1a	986630850	2	main_z	7	main_z	77	stimuli_target_circlediamonds.svg	stimuli_distractor_trianglediamonds.svg	2	yes	44	1	82
6.6.1	win	2022-12-19	22:29:01	22:32:37	215303	5cfe7510d987a800178eab1a	986630850	2	main_z	7	advance_on_keypress_ZEE	78	stimuli_target_circlediamonds.svg	stimuli_distractor_trianglediamonds.svg	2	yes	57	0	302
6.6.1	win	2022-12-19	22:29:01	22:32:38	216297	5cfe7510d987a800178eab1a	986630850	2	main_z	7	main_z	79	stimuli_target_squarediamonds.svg	stimuli_distractor_trianglediamonds.svg	4	yes	44	1	42
6.6.1	win	2022-12-19	22:29:01	22:32:38	216297	5cfe7510d987a800178eab1a	986630850	2	main_z	7	advance_on_keypress_ZEE	80	stimuli_target_squarediamonds.svg	stimuli_distractor_trianglediamonds.svg	4	yes	57	0	323
6.6.1	win	2022-12-19	22:29:01	22:32:40	218381	5cfe7510d987a800178eab1a	986630850	2	main_z	7	main_z	81	stimuli_distractor_diamondtriangles.svg	stimuli_target_trianglecircles.svg	29	yes	44	1	1126
6.6.1	win	2022-12-19	22:29:01	22:32:40	218381	5cfe7510d987a800178eab1a	986630850	2	main_z	7	advance_on_keypress_ZEE	82	stimuli_distractor_diamondtriangles.svg	stimuli_target_trianglecircles.svg	29	yes	57	0	343
6.6.1	win	2022-12-19	22:29:01	22:32:43	220570	5cfe7510d987a800178eab1a	986630850	2	main_z	7	main_z	83	stimuli_target_trianglesquares.svg	stimuli_distractor_trianglediamonds.svg	18	yes	44	1	1199
6.6.1	win	2022-12-19	22:29:01	22:32:43	220570	5cfe7510d987a800178eab1a	986630850	2	main_z	7	advance_on_keypress_ZEE	84	stimuli_target_trianglesquares.svg	stimuli_distractor_trianglediamonds.svg	18	yes	57	0	326
6.6.1	win	2022-12-19	22:29:01	22:32:44	221553	5cfe7510d987a800178eab1a	986630850	2	main_z	7	main_z	85	stimuli_distractor_trianglediamonds.svg	stimuli_target_trianglecircles.svg	25	yes	44	1	16
6.6.1	win	2022-12-19	22:29:01	22:32:44	221553	5cfe7510d987a800178eab1a	986630850	2	main_z	7	advance_on_keypress_ZEE	86	stimuli_distractor_trianglediamonds.svg	stimuli_target_trianglecircles.svg	25	yes	57	0	314
6.6.1	win	2022-12-19	22:29:01	22:32:46	223465	5cfe7510d987a800178eab1a	986630850	2	main_z	7	main_z	87	stimuli_target_circlediamonds.svg	stimuli_distractor_diamondtriangles.svg	6	yes	44	1	944
6.6.1	win	2022-12-19	22:29:01	22:32:46	223465	5cfe7510d987a800178eab1a	986630850	2	main_z	7	advance_on_keypress_ZEE	88	stimuli_target_circlediamonds.svg	stimuli_distractor_diamondtriangles.svg	6	yes	57	0	1160
6.6.1	win	2022-12-19	22:29:01	22:32:48	225998	5cfe7510d987a800178eab1a	986630850	2	main_z	7	main_z	89	stimuli_distractor_diamondtriangles.svg	stimuli_target_circletriangles.svg	13	yes	44	1	745
6.6.1	win	2022-12-19	22:29:01	22:32:48	225998	5cfe7510d987a800178eab1a	986630850	2	main_z	7	advance_on_keypress_ZEE	90	stimuli_distractor_diamondtriangles.svg	stimuli_target_circletriangles.svg	13	yes	57	0	537
6.6.1	win	2022-12-19	22:29:01	22:32:50	227551	5cfe7510d987a800178eab1a	986630850	2	main_z	7	main_z	91	stimuli_distractor_diamondtriangles.svg	stimuli_target_diamondsquares.svg	32	yes	44	1	370
6.6.1	win	2022-12-19	22:29:01	22:32:50	227551	5cfe7510d987a800178eab1a	986630850	2	main_z	7	advance_on_keypress_ZEE	92	stimuli_distractor_diamondtriangles.svg	stimuli_target_diamondsquares.svg	32	yes	57	0	560
6.6.1	win	2022-12-19	22:29:01	22:32:52	229637	5cfe7510d987a800178eab1a	986630850	2	main_z	7	main_z	93	stimuli_target_circletriangles.svg	stimuli_distractor_diamondtriangles.svg	5	yes	44	1	868
6.6.1	win	2022-12-19	22:29:01	22:32:52	229637	5cfe7510d987a800178eab1a	986630850	2	main_z	7	advance_on_keypress_ZEE	94	stimuli_target_circletriangles.svg	stimuli_distractor_diamondtriangles.svg	5	yes	57	0	252
6.6.1	win	2022-12-19	22:29:01	22:32:53	230859	5cfe7510d987a800178eab1a	986630850	2	main_z	7	main_z	95	stimuli_target_diamondsquares.svg	stimuli_distractor_diamondtriangles.svg	24	yes	44	1	322
6.6.1	win	2022-12-19	22:29:01	22:32:53	230859	5cfe7510d987a800178eab1a	986630850	2	main_z	7	advance_on_keypress_ZEE	96	stimuli_target_diamondsquares.svg	stimuli_distractor_diamondtriangles.svg	24	yes	57	0	468
6.6.1	win	2022-12-19	22:29:01	22:32:55	232801	5cfe7510d987a800178eab1a	986630850	2	main_z	7	main_z	97	stimuli_distractor_diamondtriangles.svg	stimuli_target_squarediamonds.svg	16	yes	44	1	831
6.6.1	win	2022-12-19	22:29:01	22:32:55	232801	5cfe7510d987a800178eab1a	986630850	2	main_z	7	advance_on_keypress_ZEE	98	stimuli_distractor_diamondtriangles.svg	stimuli_target_squarediamonds.svg	16	yes	57	0	386
6.6.1	win	2022-12-19	22:29:01	22:32:56	234327	5cfe7510d987a800178eab1a	986630850	2	main_z	7	main_z	99	stimuli_distractor_diamondtriangles.svg	stimuli_distractor_diamondtriangles.svg	40	no	44	0	491
6.6.1	win	2022-12-19	22:29:01	22:32:56	234327	5cfe7510d987a800178eab1a	986630850	2	main_z	7	advance_on_keypress_ZEE	100	stimuli_distractor_diamondtriangles.svg	stimuli_distractor_diamondtriangles.svg	40	no	57	0	365
6.6.1	win	2022-12-19	22:29:01	22:32:58	235872	5cfe7510d987a800178eab1a	986630850	2	main_z	7	main_z	101	stimuli_distractor_trianglediamonds.svg	stimuli_target_diamondsquares.svg	28	yes	44	1	536
6.6.1	win	2022-12-19	22:29:01	22:32:58	235872	5cfe7510d987a800178eab1a	986630850	2	main_z	7	advance_on_keypress_ZEE	102	stimuli_distractor_trianglediamonds.svg	stimuli_target_diamondsquares.svg	28	yes	57	0	249
6.6.1	win	2022-12-19	22:29:01	22:33:01	238769	5cfe7510d987a800178eab1a	986630850	2	main_z	7	main_z	103	stimuli_target_diamondcircles.svg	stimuli_distractor_trianglediamonds.svg	19	yes	0	0	2000
6.6.1	win	2022-12-19	22:29:01	22:33:01	238769	5cfe7510d987a800178eab1a	986630850	2	main_z	7	advance_on_keypress_ZEE	104	stimuli_target_diamondcircles.svg	stimuli_distractor_trianglediamonds.svg	19	yes	57	0	277
6.6.1	win	2022-12-19	22:29:01	22:33:02	240137	5cfe7510d987a800178eab1a	986630850	2	main_z	7	main_z	105	stimuli_distractor_trianglediamonds.svg	stimuli_target_trianglesquares.svg	26	yes	44	1	451
6.6.1	win	2022-12-19	22:29:01	22:33:02	240137	5cfe7510d987a800178eab1a	986630850	2	main_z	7	advance_on_keypress_ZEE	106	stimuli_distractor_trianglediamonds.svg	stimuli_target_trianglesquares.svg	26	yes	57	0	196
6.6.1	win	2022-12-19	22:29:01	22:33:05	242985	5cfe7510d987a800178eab1a	986630850	2	main_z	7	main_z	107	stimuli_distractor_diamondtriangles.svg	stimuli_distractor_trianglediamonds.svg	38	no	0	1	2000
6.6.1	win	2022-12-19	22:29:01	22:33:05	242985	5cfe7510d987a800178eab1a	986630850	2	main_z	7	advance_on_keypress_ZEE	108	stimuli_distractor_diamondtriangles.svg	stimuli_distractor_trianglediamonds.svg	38	no	57	0	222
6.6.1	win	2022-12-19	22:29:01	22:33:06	244366	5cfe7510d987a800178eab1a	986630850	2	main_z	7	main_z	109	stimuli_target_diamondcircles.svg	stimuli_distractor_diamondtriangles.svg	23	yes	44	1	508
6.6.1	win	2022-12-19	22:29:01	22:33:06	244366	5cfe7510d987a800178eab1a	986630850	2	main_z	7	advance_on_keypress_ZEE	110	stimuli_target_diamondcircles.svg	stimuli_distractor_diamondtriangles.svg	23	yes	57	0	318
6.6.1	win	2022-12-19	22:29:01	22:33:09	247335	5cfe7510d987a800178eab1a	986630850	2	main_z	7	main_z	111	stimuli_target_squarediamonds.svg	stimuli_distractor_diamondtriangles.svg	8	yes	0	0	2000
6.6.1	win	2022-12-19	22:29:01	22:33:09	247335	5cfe7510d987a800178eab1a	986630850	2	main_z	7	advance_on_keypress_ZEE	112	stimuli_target_squarediamonds.svg	stimuli_distractor_diamondtriangles.svg	8	yes	57	0	111
6.6.1	win	2022-12-19	22:29:01	22:33:12	250085	5cfe7510d987a800178eab1a	986630850	2	main_z	7	main_z	113	stimuli_distractor_diamondtriangles.svg	stimuli_target_squaretriangles.svg	15	yes	0	0	2000
6.6.1	win	2022-12-19	22:29:01	22:33:12	250085	5cfe7510d987a800178eab1a	986630850	2	main_z	7	advance_on_keypress_ZEE	114	stimuli_distractor_diamondtriangles.svg	stimuli_target_squaretriangles.svg	15	yes	57	0	290
6.6.1	win	2022-12-19	22:29:01	22:33:14	252067	5cfe7510d987a800178eab1a	986630850	2	main_z	7	main_z	115	stimuli_distractor_diamondtriangles.svg	stimuli_distractor_trianglediamonds.svg	37	no	44	0	1050
6.6.1	win	2022-12-19	22:29:01	22:33:14	252067	5cfe7510d987a800178eab1a	986630850	2	main_z	7	advance_on_keypress_ZEE	116	stimuli_distractor_diamondtriangles.svg	stimuli_distractor_trianglediamonds.svg	37	no	57	0	227
6.6.1	win	2022-12-19	22:29:01	22:33:16	253464	5cfe7510d987a800178eab1a	986630850	2	main_z	7	main_z	117	stimuli_distractor_trianglediamonds.svg	stimuli_distractor_diamondtriangles.svg	35	no	44	0	530
6.6.1	win	2022-12-19	22:29:01	22:33:16	253464	5cfe7510d987a800178eab1a	986630850	2	main_z	7	advance_on_keypress_ZEE	118	stimuli_distractor_trianglediamonds.svg	stimuli_distractor_diamondtriangles.svg	35	no	57	0	308
6.6.1	win	2022-12-19	22:29:01	22:33:18	256417	5cfe7510d987a800178eab1a	986630850	2	main_z	7	main_z	119	stimuli_distractor_diamondtriangles.svg	stimuli_target_diamondcircles.svg	31	yes	0	0	2000
6.6.1	win	2022-12-19	22:29:01	22:33:18	256417	5cfe7510d987a800178eab1a	986630850	2	main_z	7	advance_on_keypress_ZEE	120	stimuli_distractor_diamondtriangles.svg	stimuli_target_diamondcircles.svg	31	yes	57	0	321
6.6.1	win	2022-12-19	22:29:01	22:33:20	258137	5cfe7510d987a800178eab1a	986630850	2	main_z	7	main_z	121	stimuli_distractor_trianglediamonds.svg	stimuli_target_circletriangles.svg	9	yes	44	1	754
6.6.1	win	2022-12-19	22:29:01	22:33:20	258137	5cfe7510d987a800178eab1a	986630850	2	main_z	7	advance_on_keypress_ZEE	122	stimuli_distractor_trianglediamonds.svg	stimuli_target_circletriangles.svg	9	yes	57	0	384
6.6.1	win	2022-12-19	22:29:01	22:33:23	261166	5cfe7510d987a800178eab1a	986630850	2	main_z	7	main_z	123	stimuli_distractor_diamondtriangles.svg	stimuli_target_trianglesquares.svg	30	yes	0	0	2000
6.6.1	win	2022-12-19	22:29:01	22:33:23	261166	5cfe7510d987a800178eab1a	986630850	2	main_z	7	advance_on_keypress_ZEE	124	stimuli_distractor_diamondtriangles.svg	stimuli_target_trianglesquares.svg	30	yes	57	0	236
6.6.1	win	2022-12-19	22:29:01	22:33:25	262620	5cfe7510d987a800178eab1a	986630850	2	main_z	7	main_z	125	stimuli_distractor_trianglediamonds.svg	stimuli_distractor_trianglediamonds.svg	33	no	44	0	571
6.6.1	win	2022-12-19	22:29:01	22:33:25	262620	5cfe7510d987a800178eab1a	986630850	2	main_z	7	advance_on_keypress_ZEE	126	stimuli_distractor_trianglediamonds.svg	stimuli_distractor_trianglediamonds.svg	33	no	57	0	360
6.6.1	win	2022-12-19	22:29:01	22:33:26	264055	5cfe7510d987a800178eab1a	986630850	2	main_z	7	main_z	127	stimuli_distractor_trianglediamonds.svg	stimuli_target_circlediamonds.svg	10	yes	44	1	439
6.6.1	win	2022-12-19	22:29:01	22:33:26	264055	5cfe7510d987a800178eab1a	986630850	2	main_z	7	advance_on_keypress_ZEE	128	stimuli_distractor_trianglediamonds.svg	stimuli_target_circlediamonds.svg	10	yes	57	0	186
6.6.1	win	2022-12-19	22:29:01	22:33:27	265340	5cfe7510d987a800178eab1a	986630850	2	main_z	7	main_z	129	stimuli_target_circlediamonds.svg	stimuli_distractor_trianglediamonds.svg	2	yes	44	1	459
6.6.1	win	2022-12-19	22:29:01	22:33:27	265340	5cfe7510d987a800178eab1a	986630850	2	main_z	7	advance_on_keypress_ZEE	130	stimuli_target_circlediamonds.svg	stimuli_distractor_trianglediamonds.svg	2	yes	57	0	506
6.6.1	win	2022-12-19	22:29:01	22:33:29	267033	5cfe7510d987a800178eab1a	986630850	2	main_z	7	main_z	131	stimuli_distractor_trianglediamonds.svg	stimuli_distractor_trianglediamonds.svg	34	no	44	0	551
6.6.1	win	2022-12-19	22:29:01	22:33:29	267033	5cfe7510d987a800178eab1a	986630850	2	main_z	7	advance_on_keypress_ZEE	132	stimuli_distractor_trianglediamonds.svg	stimuli_distractor_trianglediamonds.svg	34	no	57	0	214
6.6.1	win	2022-12-19	22:29:01	22:33:32	269898	5cfe7510d987a800178eab1a	986630850	2	main_z	7	main_z	133	stimuli_distractor_diamondtriangles.svg	stimuli_target_circlediamonds.svg	14	yes	0	0	2000
6.6.1	win	2022-12-19	22:29:01	22:33:32	269898	5cfe7510d987a800178eab1a	986630850	2	main_z	7	advance_on_keypress_ZEE	134	stimuli_distractor_diamondtriangles.svg	stimuli_target_circlediamonds.svg	14	yes	57	0	339
6.6.1	win	2022-12-19	22:29:01	22:33:35	272881	5cfe7510d987a800178eab1a	986630850	2	main_z	7	main_z	135	stimuli_target_squaretriangles.svg	stimuli_distractor_diamondtriangles.svg	7	yes	0	0	2000
6.6.1	win	2022-12-19	22:29:01	22:33:35	272881	5cfe7510d987a800178eab1a	986630850	2	main_z	7	advance_on_keypress_ZEE	136	stimuli_target_squaretriangles.svg	stimuli_distractor_diamondtriangles.svg	7	yes	57	0	336
6.6.1	win	2022-12-19	22:29:01	22:33:37	274484	5cfe7510d987a800178eab1a	986630850	2	main_z	7	main_z	137	stimuli_distractor_trianglediamonds.svg	stimuli_target_squarediamonds.svg	12	yes	44	1	619
6.6.1	win	2022-12-19	22:29:01	22:33:37	274484	5cfe7510d987a800178eab1a	986630850	2	main_z	7	advance_on_keypress_ZEE	138	stimuli_distractor_trianglediamonds.svg	stimuli_target_squarediamonds.svg	12	yes	57	0	493
6.6.1	win	2022-12-19	22:29:01	22:33:38	275938	5cfe7510d987a800178eab1a	986630850	2	main_z	7	main_z	139	stimuli_distractor_trianglediamonds.svg	stimuli_distractor_diamondtriangles.svg	36	no	44	0	325
6.6.1	win	2022-12-19	22:29:01	22:33:38	275938	5cfe7510d987a800178eab1a	986630850	2	main_z	7	advance_on_keypress_ZEE	140	stimuli_distractor_trianglediamonds.svg	stimuli_distractor_diamondtriangles.svg	36	no	57	0	213
6.6.1	win	2022-12-19	22:29:01	22:33:41	278797	5cfe7510d987a800178eab1a	986630850	2	main_z	7	main_z	141	stimuli_target_squaretriangles.svg	stimuli_distractor_trianglediamonds.svg	3	yes	0	0	2000
6.6.1	win	2022-12-19	22:29:01	22:33:41	278797	5cfe7510d987a800178eab1a	986630850	2	main_z	7	advance_on_keypress_ZEE	142	stimuli_target_squaretriangles.svg	stimuli_distractor_trianglediamonds.svg	3	yes	57	0	310
6.6.1	win	2022-12-19	22:29:01	22:33:42	280245	5cfe7510d987a800178eab1a	986630850	2	main_z	7	main_z	143	stimuli_target_trianglecircles.svg	stimuli_distractor_trianglediamonds.svg	17	yes	44	1	498
6.6.1	win	2022-12-19	22:29:01	22:33:42	280245	5cfe7510d987a800178eab1a	986630850	2	main_z	7	advance_on_keypress_ZEE	144	stimuli_target_trianglecircles.svg	stimuli_distractor_trianglediamonds.svg	17	yes	57	0	203
6.6.1	win	2022-12-19	22:29:01	22:33:44	281500	5cfe7510d987a800178eab1a	986630850	2	main_z	7	main_z	145	stimuli_distractor_trianglediamonds.svg	stimuli_target_squaretriangles.svg	11	yes	44	1	403
6.6.1	win	2022-12-19	22:29:01	22:33:44	281500	5cfe7510d987a800178eab1a	986630850	2	main_z	7	advance_on_keypress_ZEE	146	stimuli_distractor_trianglediamonds.svg	stimuli_target_squaretriangles.svg	11	yes	57	0	283
6.6.1	win	2022-12-19	22:29:01	22:33:46	284430	5cfe7510d987a800178eab1a	986630850	2	main_z	7	main_z	147	stimuli_target_squarediamonds.svg	stimuli_distractor_trianglediamonds.svg	4	yes	0	0	2000
6.6.1	win	2022-12-19	22:29:01	22:33:46	284430	5cfe7510d987a800178eab1a	986630850	2	main_z	7	advance_on_keypress_ZEE	148	stimuli_target_squarediamonds.svg	stimuli_distractor_trianglediamonds.svg	4	yes	57	0	326
6.6.1	win	2022-12-19	22:29:01	22:33:48	285865	5cfe7510d987a800178eab1a	986630850	2	main_z	7	main_z	149	stimuli_target_trianglesquares.svg	stimuli_distractor_diamondtriangles.svg	22	yes	44	1	470
6.6.1	win	2022-12-19	22:29:01	22:33:48	285865	5cfe7510d987a800178eab1a	986630850	2	main_z	7	advance_on_keypress_ZEE	150	stimuli_target_trianglesquares.svg	stimuli_distractor_diamondtriangles.svg	22	yes	57	0	190
6.6.1	win	2022-12-19	22:29:01	22:33:49	287268	5cfe7510d987a800178eab1a	986630850	2	main_z	7	main_z	151	stimuli_target_trianglecircles.svg	stimuli_distractor_diamondtriangles.svg	21	yes	44	1	556
6.6.1	win	2022-12-19	22:29:01	22:33:49	287268	5cfe7510d987a800178eab1a	986630850	2	main_z	7	advance_on_keypress_ZEE	152	stimuli_target_trianglecircles.svg	stimuli_distractor_diamondtriangles.svg	21	yes	57	0	187
6.6.1	win	2022-12-19	22:29:01	22:33:51	288751	5cfe7510d987a800178eab1a	986630850	2	main_z	7	main_z	153	stimuli_distractor_diamondtriangles.svg	stimuli_distractor_diamondtriangles.svg	39	no	44	0	655
6.6.1	win	2022-12-19	22:29:01	22:33:51	288751	5cfe7510d987a800178eab1a	986630850	2	main_z	7	advance_on_keypress_ZEE	154	stimuli_distractor_diamondtriangles.svg	stimuli_distractor_diamondtriangles.svg	39	no	57	0	192
6.6.1	win	2022-12-19	22:29:01	22:33:54	291579	5cfe7510d987a800178eab1a	986630850	2	main_z	7	main_z	155	stimuli_target_diamondsquares.svg	stimuli_distractor_trianglediamonds.svg	20	yes	0	0	2000
6.6.1	win	2022-12-19	22:29:01	22:33:54	291579	5cfe7510d987a800178eab1a	986630850	2	main_z	7	advance_on_keypress_ZEE	156	stimuli_target_diamondsquares.svg	stimuli_distractor_trianglediamonds.svg	20	yes	57	0	298
6.6.1	win	2022-12-19	22:29:01	22:33:55	293043	5cfe7510d987a800178eab1a	986630850	2	main_z	7	main_z	157	stimuli_target_circletriangles.svg	stimuli_distractor_trianglediamonds.svg	1	yes	44	1	504
6.6.1	win	2022-12-19	22:29:01	22:33:55	293043	5cfe7510d987a800178eab1a	986630850	2	main_z	7	advance_on_keypress_ZEE	158	stimuli_target_circletriangles.svg	stimuli_distractor_trianglediamonds.svg	1	yes	57	0	185
6.6.1	win	2022-12-19	22:29:01	22:33:57	294523	5cfe7510d987a800178eab1a	986630850	2	main_z	7	main_z	159	stimuli_distractor_trianglediamonds.svg	stimuli_target_diamondcircles.svg	27	yes	44	1	644
6.6.1	win	2022-12-19	22:29:01	22:33:57	294523	5cfe7510d987a800178eab1a	986630850	2	main_z	7	advance_on_keypress_ZEE	160	stimuli_distractor_trianglediamonds.svg	stimuli_target_diamondcircles.svg	27	yes	57	0	154
6.6.1	win	2022-12-19	22:29:01	22:34:16	314428	5cfe7510d987a800178eab1a	986630850	2	practice_slash	9	practice_slash	1	stimuli_distractor_diamondtriangles.svg	stimuli_target_circletriangles.svg	7	yes	0	0	2000
6.6.1	win	2022-12-19	22:29:01	22:34:16	314428	5cfe7510d987a800178eab1a	986630850	2	practice_slash	9	advance_on_keypress_SLASH	2	stimuli_distractor_diamondtriangles.svg	stimuli_target_circletriangles.svg	7	yes	57	0	1591
6.6.1	win	2022-12-19	22:29:01	22:34:20	318010	5cfe7510d987a800178eab1a	986630850	2	practice_slash	9	practice_slash	3	stimuli_distractor_trianglediamonds.svg	stimuli_target_squarediamonds.svg	11	yes	53	1	349
6.6.1	win	2022-12-19	22:29:01	22:34:20	318010	5cfe7510d987a800178eab1a	986630850	2	practice_slash	9	advance_on_keypress_SLASH	4	stimuli_distractor_trianglediamonds.svg	stimuli_target_squarediamonds.svg	11	yes	57	0	485
6.6.1	win	2022-12-19	22:29:01	22:34:24	322144	5cfe7510d987a800178eab1a	986630850	2	practice_slash	9	practice_slash	5	stimuli_distractor_trianglediamonds.svg	stimuli_distractor_trianglediamonds.svg	15	no	0	1	2000
6.6.1	win	2022-12-19	22:29:01	22:34:24	322144	5cfe7510d987a800178eab1a	986630850	2	practice_slash	9	advance_on_keypress_SLASH	6	stimuli_distractor_trianglediamonds.svg	stimuli_distractor_trianglediamonds.svg	15	no	57	0	727
6.6.1	win	2022-12-19	22:29:01	22:34:29	326510	5cfe7510d987a800178eab1a	986630850	2	practice_slash	9	practice_slash	7	stimuli_distractor_trianglediamonds.svg	stimuli_distractor_diamondtriangles.svg	16	no	0	1	2000
6.6.1	win	2022-12-19	22:29:01	22:34:29	326510	5cfe7510d987a800178eab1a	986630850	2	practice_slash	9	advance_on_keypress_SLASH	8	stimuli_distractor_trianglediamonds.svg	stimuli_distractor_diamondtriangles.svg	16	no	57	0	591
6.6.1	win	2022-12-19	22:29:01	22:34:33	330744	5cfe7510d987a800178eab1a	986630850	2	practice_slash	9	practice_slash	9	stimuli_distractor_diamondtriangles.svg	stimuli_distractor_trianglediamonds.svg	14	no	0	1	2000
6.6.1	win	2022-12-19	22:29:01	22:34:33	330744	5cfe7510d987a800178eab1a	986630850	2	practice_slash	9	advance_on_keypress_SLASH	10	stimuli_distractor_diamondtriangles.svg	stimuli_distractor_trianglediamonds.svg	14	no	57	0	375
6.6.1	win	2022-12-19	22:29:01	22:34:37	334759	5cfe7510d987a800178eab1a	986630850	2	practice_slash	9	practice_slash	11	stimuli_target_diamondsquares.svg	stimuli_distractor_diamondtriangles.svg	3	yes	0	0	2000
6.6.1	win	2022-12-19	22:29:01	22:34:37	334759	5cfe7510d987a800178eab1a	986630850	2	practice_slash	9	advance_on_keypress_SLASH	12	stimuli_target_diamondsquares.svg	stimuli_distractor_diamondtriangles.svg	3	yes	57	0	712
6.6.1	win	2022-12-19	22:29:01	22:34:40	337625	5cfe7510d987a800178eab1a	986630850	2	practice_slash	9	practice_slash	13	stimuli_distractor_diamondtriangles.svg	stimuli_distractor_diamondtriangles.svg	13	no	53	0	500
6.6.1	win	2022-12-19	22:29:01	22:34:40	337625	5cfe7510d987a800178eab1a	986630850	2	practice_slash	9	advance_on_keypress_SLASH	14	stimuli_distractor_diamondtriangles.svg	stimuli_distractor_diamondtriangles.svg	13	no	57	0	678
6.6.1	win	2022-12-19	22:29:01	22:34:44	341958	5cfe7510d987a800178eab1a	986630850	2	practice_slash	9	practice_slash	15	stimuli_distractor_trianglediamonds.svg	stimuli_target_diamondcircles.svg	12	yes	0	0	2000
6.6.1	win	2022-12-19	22:29:01	22:34:44	341958	5cfe7510d987a800178eab1a	986630850	2	practice_slash	9	advance_on_keypress_SLASH	16	stimuli_distractor_trianglediamonds.svg	stimuli_target_diamondcircles.svg	12	yes	57	0	668
6.6.1	win	2022-12-19	22:29:01	22:34:47	344809	5cfe7510d987a800178eab1a	986630850	2	practice_slash	9	practice_slash	17	stimuli_target_circlediamonds.svg	stimuli_distractor_diamondtriangles.svg	1	yes	53	1	535
6.6.1	win	2022-12-19	22:29:01	22:34:47	344809	5cfe7510d987a800178eab1a	986630850	2	practice_slash	9	advance_on_keypress_SLASH	18	stimuli_target_circlediamonds.svg	stimuli_distractor_diamondtriangles.svg	1	yes	57	0	773
6.6.1	win	2022-12-19	22:29:01	22:34:50	348311	5cfe7510d987a800178eab1a	986630850	2	practice_slash	9	practice_slash	19	stimuli_distractor_diamondtriangles.svg	stimuli_target_diamondcircles.svg	8	yes	53	1	1087
6.6.1	win	2022-12-19	22:29:01	22:34:50	348311	5cfe7510d987a800178eab1a	986630850	2	practice_slash	9	advance_on_keypress_SLASH	20	stimuli_distractor_diamondtriangles.svg	stimuli_target_diamondcircles.svg	8	yes	57	0	515
6.6.1	win	2022-12-19	22:29:01	22:34:53	350910	5cfe7510d987a800178eab1a	986630850	2	practice_slash	9	practice_slash	21	stimuli_target_diamondsquares.svg	stimuli_distractor_trianglediamonds.svg	6	yes	53	1	437
6.6.1	win	2022-12-19	22:29:01	22:34:53	350910	5cfe7510d987a800178eab1a	986630850	2	practice_slash	9	advance_on_keypress_SLASH	22	stimuli_target_diamondsquares.svg	stimuli_distractor_trianglediamonds.svg	6	yes	57	0	862
6.6.1	win	2022-12-19	22:29:01	22:34:56	353826	5cfe7510d987a800178eab1a	986630850	2	practice_slash	9	practice_slash	23	stimuli_target_squarediamonds.svg	stimuli_distractor_diamondtriangles.svg	2	yes	53	1	403
6.6.1	win	2022-12-19	22:29:01	22:34:56	353826	5cfe7510d987a800178eab1a	986630850	2	practice_slash	9	advance_on_keypress_SLASH	24	stimuli_target_squarediamonds.svg	stimuli_distractor_diamondtriangles.svg	2	yes	57	0	357
6.6.1	win	2022-12-19	22:29:01	22:34:59	356493	5cfe7510d987a800178eab1a	986630850	2	practice_slash	9	practice_slash	25	stimuli_target_circlediamonds.svg	stimuli_distractor_trianglediamonds.svg	4	yes	53	1	670
6.6.1	win	2022-12-19	22:29:01	22:34:59	356493	5cfe7510d987a800178eab1a	986630850	2	practice_slash	9	advance_on_keypress_SLASH	26	stimuli_target_circlediamonds.svg	stimuli_distractor_trianglediamonds.svg	4	yes	57	0	808
6.6.1	win	2022-12-19	22:29:01	22:35:02	359556	5cfe7510d987a800178eab1a	986630850	2	practice_slash	9	practice_slash	27	stimuli_distractor_diamondtriangles.svg	stimuli_target_trianglecircles.svg	9	yes	53	1	617
6.6.1	win	2022-12-19	22:29:01	22:35:02	359556	5cfe7510d987a800178eab1a	986630850	2	practice_slash	9	advance_on_keypress_SLASH	28	stimuli_distractor_diamondtriangles.svg	stimuli_target_trianglecircles.svg	9	yes	57	0	450
6.6.1	win	2022-12-19	22:29:01	22:35:04	362399	5cfe7510d987a800178eab1a	986630850	2	practice_slash	9	practice_slash	29	stimuli_distractor_trianglediamonds.svg	stimuli_target_circlediamonds.svg	10	yes	53	1	743
6.6.1	win	2022-12-19	22:29:01	22:35:04	362399	5cfe7510d987a800178eab1a	986630850	2	practice_slash	9	advance_on_keypress_SLASH	30	stimuli_distractor_trianglediamonds.svg	stimuli_target_circlediamonds.svg	10	yes	57	0	456
6.6.1	win	2022-12-19	22:29:01	22:35:07	365135	5cfe7510d987a800178eab1a	986630850	2	practice_slash	9	practice_slash	31	stimuli_target_squarediamonds.svg	stimuli_distractor_trianglediamonds.svg	5	yes	53	1	629
6.6.1	win	2022-12-19	22:29:01	22:35:07	365135	5cfe7510d987a800178eab1a	986630850	2	practice_slash	9	advance_on_keypress_SLASH	32	stimuli_target_squarediamonds.svg	stimuli_distractor_trianglediamonds.svg	5	yes	57	0	431
6.6.1	win	2022-12-19	22:29:01	22:35:11	368991	5cfe7510d987a800178eab1a	986630850	2	main_slash	11	main_slash	1	stimuli_distractor_trianglediamonds.svg	stimuli_target_trianglecircles.svg	25	yes	53	1	723
6.6.1	win	2022-12-19	22:29:01	22:35:11	368991	5cfe7510d987a800178eab1a	986630850	2	main_slash	11	advance_on_keypress_SLASH	2	stimuli_distractor_trianglediamonds.svg	stimuli_target_trianglecircles.svg	25	yes	57	0	750
6.6.1	win	2022-12-19	22:29:01	22:35:14	372386	5cfe7510d987a800178eab1a	986630850	2	main_slash	11	main_slash	3	stimuli_distractor_trianglediamonds.svg	stimuli_target_diamondcircles.svg	27	yes	0	0	2000
6.6.1	win	2022-12-19	22:29:01	22:35:14	372386	5cfe7510d987a800178eab1a	986630850	2	main_slash	11	advance_on_keypress_SLASH	4	stimuli_distractor_trianglediamonds.svg	stimuli_target_diamondcircles.svg	27	yes	57	0	357
6.6.1	win	2022-12-19	22:29:01	22:35:16	373949	5cfe7510d987a800178eab1a	986630850	2	main_slash	11	main_slash	5	stimuli_distractor_diamondtriangles.svg	stimuli_target_squarediamonds.svg	16	yes	53	1	564
6.6.1	win	2022-12-19	22:29:01	22:35:16	373949	5cfe7510d987a800178eab1a	986630850	2	main_slash	11	advance_on_keypress_SLASH	6	stimuli_distractor_diamondtriangles.svg	stimuli_target_squarediamonds.svg	16	yes	57	0	635
6.6.1	win	2022-12-19	22:29:01	22:35:18	375915	5cfe7510d987a800178eab1a	986630850	2	main_slash	11	main_slash	7	stimuli_distractor_diamondtriangles.svg	stimuli_distractor_diamondtriangles.svg	40	no	53	0	680
6.6.1	win	2022-12-19	22:29:01	22:35:18	375915	5cfe7510d987a800178eab1a	986630850	2	main_slash	11	advance_on_keypress_SLASH	8	stimuli_distractor_diamondtriangles.svg	stimuli_distractor_diamondtriangles.svg	40	no	57	0	494
6.6.1	win	2022-12-19	22:29:01	22:35:20	377513	5cfe7510d987a800178eab1a	986630850	2	main_slash	11	main_slash	9	stimuli_distractor_trianglediamonds.svg	stimuli_target_squarediamonds.svg	12	yes	53	1	462
6.6.1	win	2022-12-19	22:29:01	22:35:20	377513	5cfe7510d987a800178eab1a	986630850	2	main_slash	11	advance_on_keypress_SLASH	10	stimuli_distractor_trianglediamonds.svg	stimuli_target_squarediamonds.svg	12	yes	57	0	555
6.6.1	win	2022-12-19	22:29:01	22:35:22	379527	5cfe7510d987a800178eab1a	986630850	2	main_slash	11	main_slash	11	stimuli_target_diamondsquares.svg	stimuli_distractor_diamondtriangles.svg	24	yes	53	1	809
6.6.1	win	2022-12-19	22:29:01	22:35:22	379527	5cfe7510d987a800178eab1a	986630850	2	main_slash	11	advance_on_keypress_SLASH	12	stimuli_target_diamondsquares.svg	stimuli_distractor_diamondtriangles.svg	24	yes	57	0	1065
6.6.1	win	2022-12-19	22:29:01	22:35:25	383251	5cfe7510d987a800178eab1a	986630850	2	main_slash	11	main_slash	13	stimuli_target_diamondcircles.svg	stimuli_distractor_trianglediamonds.svg	19	yes	0	0	2000
6.6.1	win	2022-12-19	22:29:01	22:35:25	383251	5cfe7510d987a800178eab1a	986630850	2	main_slash	11	advance_on_keypress_SLASH	14	stimuli_target_diamondcircles.svg	stimuli_distractor_trianglediamonds.svg	19	yes	57	0	172
6.6.1	win	2022-12-19	22:29:01	22:35:28	386067	5cfe7510d987a800178eab1a	986630850	2	main_slash	11	main_slash	15	stimuli_distractor_diamondtriangles.svg	stimuli_distractor_trianglediamonds.svg	38	no	0	1	2000
6.6.1	win	2022-12-19	22:29:01	22:35:28	386067	5cfe7510d987a800178eab1a	986630850	2	main_slash	11	advance_on_keypress_SLASH	16	stimuli_distractor_diamondtriangles.svg	stimuli_distractor_trianglediamonds.svg	38	no	57	0	330
6.6.1	win	2022-12-19	22:29:01	22:35:30	387593	5cfe7510d987a800178eab1a	986630850	2	main_slash	11	main_slash	17	stimuli_target_squarediamonds.svg	stimuli_distractor_trianglediamonds.svg	4	yes	53	1	543
6.6.1	win	2022-12-19	22:29:01	22:35:30	387593	5cfe7510d987a800178eab1a	986630850	2	main_slash	11	advance_on_keypress_SLASH	18	stimuli_target_squarediamonds.svg	stimuli_distractor_trianglediamonds.svg	4	yes	57	0	576
6.6.1	win	2022-12-19	22:29:01	22:35:32	389671	5cfe7510d987a800178eab1a	986630850	2	main_slash	11	main_slash	19	stimuli_distractor_trianglediamonds.svg	stimuli_distractor_diamondtriangles.svg	35	no	53	0	871
6.6.1	win	2022-12-19	22:29:01	22:35:32	389671	5cfe7510d987a800178eab1a	986630850	2	main_slash	11	advance_on_keypress_SLASH	20	stimuli_distractor_trianglediamonds.svg	stimuli_distractor_diamondtriangles.svg	35	no	57	0	1232
6.6.1	win	2022-12-19	22:29:01	22:35:36	393550	5cfe7510d987a800178eab1a	986630850	2	main_slash	11	main_slash	21	stimuli_distractor_trianglediamonds.svg	stimuli_target_trianglesquares.svg	26	yes	0	0	2000
6.6.1	win	2022-12-19	22:29:01	22:35:36	393550	5cfe7510d987a800178eab1a	986630850	2	main_slash	11	advance_on_keypress_SLASH	22	stimuli_distractor_trianglediamonds.svg	stimuli_target_trianglesquares.svg	26	yes	57	0	249
6.6.1	win	2022-12-19	22:29:01	22:35:37	394878	5cfe7510d987a800178eab1a	986630850	2	main_slash	11	main_slash	23	stimuli_target_squarediamonds.svg	stimuli_distractor_diamondtriangles.svg	8	yes	53	1	429
6.6.1	win	2022-12-19	22:29:01	22:35:37	394878	5cfe7510d987a800178eab1a	986630850	2	main_slash	11	advance_on_keypress_SLASH	24	stimuli_target_squarediamonds.svg	stimuli_distractor_diamondtriangles.svg	8	yes	57	0	529
6.6.1	win	2022-12-19	22:29:01	22:35:40	398065	5cfe7510d987a800178eab1a	986630850	2	main_slash	11	main_slash	25	stimuli_distractor_diamondtriangles.svg	stimuli_target_trianglecircles.svg	29	yes	0	0	2000
6.6.1	win	2022-12-19	22:29:01	22:35:40	398065	5cfe7510d987a800178eab1a	986630850	2	main_slash	11	advance_on_keypress_SLASH	26	stimuli_distractor_diamondtriangles.svg	stimuli_target_trianglecircles.svg	29	yes	57	0	527
6.6.1	win	2022-12-19	22:29:01	22:35:43	401232	5cfe7510d987a800178eab1a	986630850	2	main_slash	11	main_slash	27	stimuli_distractor_trianglediamonds.svg	stimuli_target_diamondsquares.svg	28	yes	0	0	2000
6.6.1	win	2022-12-19	22:29:01	22:35:43	401232	5cfe7510d987a800178eab1a	986630850	2	main_slash	11	advance_on_keypress_SLASH	28	stimuli_distractor_trianglediamonds.svg	stimuli_target_diamondsquares.svg	28	yes	57	0	361
6.6.1	win	2022-12-19	22:29:01	22:35:45	402978	5cfe7510d987a800178eab1a	986630850	2	main_slash	11	main_slash	29	stimuli_distractor_diamondtriangles.svg	stimuli_distractor_trianglediamonds.svg	37	no	53	0	747
6.6.1	win	2022-12-19	22:29:01	22:35:45	402978	5cfe7510d987a800178eab1a	986630850	2	main_slash	11	advance_on_keypress_SLASH	30	stimuli_distractor_diamondtriangles.svg	stimuli_distractor_trianglediamonds.svg	37	no	57	0	662
6.6.1	win	2022-12-19	22:29:01	22:35:47	404926	5cfe7510d987a800178eab1a	986630850	2	main_slash	11	main_slash	31	stimuli_distractor_diamondtriangles.svg	stimuli_target_circlediamonds.svg	14	yes	53	1	628
6.6.1	win	2022-12-19	22:29:01	22:35:47	404926	5cfe7510d987a800178eab1a	986630850	2	main_slash	11	advance_on_keypress_SLASH	32	stimuli_distractor_diamondtriangles.svg	stimuli_target_circlediamonds.svg	14	yes	57	0	380
6.6.1	win	2022-12-19	22:29:01	22:35:48	406377	5cfe7510d987a800178eab1a	986630850	2	main_slash	11	main_slash	33	stimuli_target_circlediamonds.svg	stimuli_distractor_trianglediamonds.svg	2	yes	53	1	413
6.6.1	win	2022-12-19	22:29:01	22:35:48	406377	5cfe7510d987a800178eab1a	986630850	2	main_slash	11	advance_on_keypress_SLASH	34	stimuli_target_circlediamonds.svg	stimuli_distractor_trianglediamonds.svg	2	yes	57	0	327
6.6.1	win	2022-12-19	22:29:01	22:35:50	407843	5cfe7510d987a800178eab1a	986630850	2	main_slash	11	main_slash	35	stimuli_target_circletriangles.svg	stimuli_distractor_diamondtriangles.svg	5	yes	53	1	496
6.6.1	win	2022-12-19	22:29:01	22:35:50	407843	5cfe7510d987a800178eab1a	986630850	2	main_slash	11	advance_on_keypress_SLASH	36	stimuli_target_circletriangles.svg	stimuli_distractor_diamondtriangles.svg	5	yes	57	0	245
6.6.1	win	2022-12-19	22:29:01	22:35:51	409197	5cfe7510d987a800178eab1a	986630850	2	main_slash	11	main_slash	37	stimuli_distractor_diamondtriangles.svg	stimuli_target_circletriangles.svg	13	yes	53	1	450
6.6.1	win	2022-12-19	22:29:01	22:35:51	409197	5cfe7510d987a800178eab1a	986630850	2	main_slash	11	advance_on_keypress_SLASH	38	stimuli_distractor_diamondtriangles.svg	stimuli_target_circletriangles.svg	13	yes	57	0	234
6.6.1	win	2022-12-19	22:29:01	22:35:53	410547	5cfe7510d987a800178eab1a	986630850	2	main_slash	11	main_slash	39	stimuli_target_circlediamonds.svg	stimuli_distractor_diamondtriangles.svg	6	yes	53	1	467
6.6.1	win	2022-12-19	22:29:01	22:35:53	410547	5cfe7510d987a800178eab1a	986630850	2	main_slash	11	advance_on_keypress_SLASH	40	stimuli_target_circlediamonds.svg	stimuli_distractor_diamondtriangles.svg	6	yes	57	0	167
6.6.1	win	2022-12-19	22:29:01	22:35:54	411978	5cfe7510d987a800178eab1a	986630850	2	main_slash	11	main_slash	41	stimuli_distractor_trianglediamonds.svg	stimuli_target_circletriangles.svg	9	yes	53	1	614
6.6.1	win	2022-12-19	22:29:01	22:35:54	411978	5cfe7510d987a800178eab1a	986630850	2	main_slash	11	advance_on_keypress_SLASH	42	stimuli_distractor_trianglediamonds.svg	stimuli_target_circletriangles.svg	9	yes	57	0	163
6.6.1	win	2022-12-19	22:29:01	22:35:57	414797	5cfe7510d987a800178eab1a	986630850	2	main_slash	11	main_slash	43	stimuli_target_trianglecircles.svg	stimuli_distractor_trianglediamonds.svg	17	yes	0	0	2000
6.6.1	win	2022-12-19	22:29:01	22:35:57	414797	5cfe7510d987a800178eab1a	986630850	2	main_slash	11	advance_on_keypress_SLASH	44	stimuli_target_trianglecircles.svg	stimuli_distractor_trianglediamonds.svg	17	yes	57	0	151
6.6.1	win	2022-12-19	22:29:01	22:35:58	416343	5cfe7510d987a800178eab1a	986630850	2	main_slash	11	main_slash	45	stimuli_distractor_diamondtriangles.svg	stimuli_target_diamondsquares.svg	32	yes	53	1	747
6.6.1	win	2022-12-19	22:29:01	22:35:58	416343	5cfe7510d987a800178eab1a	986630850	2	main_slash	11	advance_on_keypress_SLASH	46	stimuli_distractor_diamondtriangles.svg	stimuli_target_diamondsquares.svg	32	yes	57	0	226
6.6.1	win	2022-12-19	22:29:01	22:36:00	417573	5cfe7510d987a800178eab1a	986630850	2	main_slash	11	main_slash	47	stimuli_target_diamondcircles.svg	stimuli_distractor_diamondtriangles.svg	23	yes	53	1	360
6.6.1	win	2022-12-19	22:29:01	22:36:00	417573	5cfe7510d987a800178eab1a	986630850	2	main_slash	11	advance_on_keypress_SLASH	48	stimuli_target_diamondcircles.svg	stimuli_distractor_diamondtriangles.svg	23	yes	57	0	152
6.6.1	win	2022-12-19	22:29:01	22:36:01	418761	5cfe7510d987a800178eab1a	986630850	2	main_slash	11	main_slash	49	stimuli_distractor_trianglediamonds.svg	stimuli_distractor_trianglediamonds.svg	34	no	53	0	398
6.6.1	win	2022-12-19	22:29:01	22:36:01	418761	5cfe7510d987a800178eab1a	986630850	2	main_slash	11	advance_on_keypress_SLASH	50	stimuli_distractor_trianglediamonds.svg	stimuli_distractor_trianglediamonds.svg	34	no	57	0	199
6.6.1	win	2022-12-19	22:29:01	22:36:02	419898	5cfe7510d987a800178eab1a	986630850	2	main_slash	11	main_slash	51	stimuli_distractor_diamondtriangles.svg	stimuli_target_diamondcircles.svg	31	yes	53	1	286
6.6.1	win	2022-12-19	22:29:01	22:36:02	419898	5cfe7510d987a800178eab1a	986630850	2	main_slash	11	advance_on_keypress_SLASH	52	stimuli_distractor_diamondtriangles.svg	stimuli_target_diamondcircles.svg	31	yes	57	0	96
6.6.1	win	2022-12-19	22:29:01	22:36:03	420933	5cfe7510d987a800178eab1a	986630850	2	main_slash	11	main_slash	53	stimuli_target_trianglecircles.svg	stimuli_distractor_diamondtriangles.svg	21	yes	53	1	287
6.6.1	win	2022-12-19	22:29:01	22:36:03	420933	5cfe7510d987a800178eab1a	986630850	2	main_slash	11	advance_on_keypress_SLASH	54	stimuli_target_trianglecircles.svg	stimuli_distractor_diamondtriangles.svg	21	yes	57	0	95
6.6.1	win	2022-12-19	22:29:01	22:36:04	421907	5cfe7510d987a800178eab1a	986630850	2	main_slash	11	main_slash	55	stimuli_target_trianglesquares.svg	stimuli_distractor_diamondtriangles.svg	22	yes	53	1	246
6.6.1	win	2022-12-19	22:29:01	22:36:04	421907	5cfe7510d987a800178eab1a	986630850	2	main_slash	11	advance_on_keypress_SLASH	56	stimuli_target_trianglesquares.svg	stimuli_distractor_diamondtriangles.svg	22	yes	57	0	82
6.6.1	win	2022-12-19	22:29:01	22:36:05	422832	5cfe7510d987a800178eab1a	986630850	2	main_slash	11	main_slash	57	stimuli_distractor_diamondtriangles.svg	stimuli_distractor_diamondtriangles.svg	39	no	53	0	188
6.6.1	win	2022-12-19	22:29:01	22:36:05	422832	5cfe7510d987a800178eab1a	986630850	2	main_slash	11	advance_on_keypress_SLASH	58	stimuli_distractor_diamondtriangles.svg	stimuli_distractor_diamondtriangles.svg	39	no	57	0	109
6.6.1	win	2022-12-19	22:29:01	22:36:06	423622	5cfe7510d987a800178eab1a	986630850	2	main_slash	11	main_slash	59	stimuli_distractor_diamondtriangles.svg	stimuli_target_trianglesquares.svg	30	yes	53	1	43
6.6.1	win	2022-12-19	22:29:01	22:36:06	423622	5cfe7510d987a800178eab1a	986630850	2	main_slash	11	advance_on_keypress_SLASH	60	stimuli_distractor_diamondtriangles.svg	stimuli_target_trianglesquares.svg	30	yes	57	0	181
6.6.1	win	2022-12-19	22:29:01	22:36:07	424537	5cfe7510d987a800178eab1a	986630850	2	main_slash	11	main_slash	61	stimuli_distractor_trianglediamonds.svg	stimuli_distractor_diamondtriangles.svg	36	no	53	0	93
6.6.1	win	2022-12-19	22:29:01	22:36:07	424537	5cfe7510d987a800178eab1a	986630850	2	main_slash	11	advance_on_keypress_SLASH	62	stimuli_distractor_trianglediamonds.svg	stimuli_distractor_diamondtriangles.svg	36	no	57	0	178
6.6.1	win	2022-12-19	22:29:01	22:36:07	425448	5cfe7510d987a800178eab1a	986630850	2	main_slash	11	main_slash	63	stimuli_target_diamondsquares.svg	stimuli_distractor_trianglediamonds.svg	20	yes	53	1	86
6.6.1	win	2022-12-19	22:29:01	22:36:07	425448	5cfe7510d987a800178eab1a	986630850	2	main_slash	11	advance_on_keypress_SLASH	64	stimuli_target_diamondsquares.svg	stimuli_distractor_trianglediamonds.svg	20	yes	57	0	152
6.6.1	win	2022-12-19	22:29:01	22:36:08	426397	5cfe7510d987a800178eab1a	986630850	2	main_slash	11	main_slash	65	stimuli_target_squaretriangles.svg	stimuli_distractor_trianglediamonds.svg	3	yes	53	1	153
6.6.1	win	2022-12-19	22:29:01	22:36:08	426397	5cfe7510d987a800178eab1a	986630850	2	main_slash	11	advance_on_keypress_SLASH	66	stimuli_target_squaretriangles.svg	stimuli_distractor_trianglediamonds.svg	3	yes	57	0	181
6.6.1	win	2022-12-19	22:29:01	22:36:09	427407	5cfe7510d987a800178eab1a	986630850	2	main_slash	11	main_slash	67	stimuli_distractor_diamondtriangles.svg	stimuli_target_squaretriangles.svg	15	yes	53	1	179
6.6.1	win	2022-12-19	22:29:01	22:36:09	427407	5cfe7510d987a800178eab1a	986630850	2	main_slash	11	advance_on_keypress_SLASH	68	stimuli_distractor_diamondtriangles.svg	stimuli_target_squaretriangles.svg	15	yes	57	0	96
6.6.1	win	2022-12-19	22:29:01	22:36:10	428225	5cfe7510d987a800178eab1a	986630850	2	main_slash	11	main_slash	69	stimuli_distractor_trianglediamonds.svg	stimuli_target_squaretriangles.svg	11	yes	53	1	65
6.6.1	win	2022-12-19	22:29:01	22:36:10	428225	5cfe7510d987a800178eab1a	986630850	2	main_slash	11	advance_on_keypress_SLASH	70	stimuli_distractor_trianglediamonds.svg	stimuli_target_squaretriangles.svg	11	yes	57	0	161
6.6.1	win	2022-12-19	22:29:01	22:36:11	429096	5cfe7510d987a800178eab1a	986630850	2	main_slash	11	main_slash	71	stimuli_distractor_trianglediamonds.svg	stimuli_target_circlediamonds.svg	10	yes	53	1	68
6.6.1	win	2022-12-19	22:29:01	22:36:11	429096	5cfe7510d987a800178eab1a	986630850	2	main_slash	11	advance_on_keypress_SLASH	72	stimuli_distractor_trianglediamonds.svg	stimuli_target_circlediamonds.svg	10	yes	57	0	174
6.6.1	win	2022-12-19	22:29:01	22:36:13	430671	5cfe7510d987a800178eab1a	986630850	2	main_slash	11	main_slash	73	stimuli_distractor_trianglediamonds.svg	stimuli_distractor_trianglediamonds.svg	33	no	53	0	760
6.6.1	win	2022-12-19	22:29:01	22:36:13	430671	5cfe7510d987a800178eab1a	986630850	2	main_slash	11	advance_on_keypress_SLASH	74	stimuli_distractor_trianglediamonds.svg	stimuli_distractor_trianglediamonds.svg	33	no	57	0	296
6.6.1	win	2022-12-19	22:29:01	22:36:14	432329	5cfe7510d987a800178eab1a	986630850	2	main_slash	11	main_slash	75	stimuli_target_trianglesquares.svg	stimuli_distractor_trianglediamonds.svg	18	yes	53	1	718
6.6.1	win	2022-12-19	22:29:01	22:36:14	432329	5cfe7510d987a800178eab1a	986630850	2	main_slash	11	advance_on_keypress_SLASH	76	stimuli_target_trianglesquares.svg	stimuli_distractor_trianglediamonds.svg	18	yes	57	0	193
6.6.1	win	2022-12-19	22:29:01	22:36:16	433815	5cfe7510d987a800178eab1a	986630850	2	main_slash	11	main_slash	77	stimuli_target_circletriangles.svg	stimuli_distractor_trianglediamonds.svg	1	yes	53	1	654
6.6.1	win	2022-12-19	22:29:01	22:36:16	433815	5cfe7510d987a800178eab1a	986630850	2	main_slash	11	advance_on_keypress_SLASH	78	stimuli_target_circletriangles.svg	stimuli_distractor_trianglediamonds.svg	1	yes	57	0	198
6.6.1	win	2022-12-19	22:29:01	22:36:17	435410	5cfe7510d987a800178eab1a	986630850	2	main_slash	11	main_slash	79	stimuli_target_squaretriangles.svg	stimuli_distractor_diamondtriangles.svg	7	yes	53	1	750
6.6.1	win	2022-12-19	22:29:01	22:36:17	435410	5cfe7510d987a800178eab1a	986630850	2	main_slash	11	advance_on_keypress_SLASH	80	stimuli_target_squaretriangles.svg	stimuli_distractor_diamondtriangles.svg	7	yes	57	0	250
6.6.1	win	2022-12-19	22:29:01	22:36:19	436993	5cfe7510d987a800178eab1a	986630850	2	main_slash	11	main_slash	81	stimuli_distractor_trianglediamonds.svg	stimuli_target_squaretriangles.svg	11	yes	53	1	684
6.6.1	win	2022-12-19	22:29:01	22:36:19	436993	5cfe7510d987a800178eab1a	986630850	2	main_slash	11	advance_on_keypress_SLASH	82	stimuli_distractor_trianglediamonds.svg	stimuli_target_squaretriangles.svg	11	yes	57	0	242
6.6.1	win	2022-12-19	22:29:01	22:36:21	438498	5cfe7510d987a800178eab1a	986630850	2	main_slash	11	main_slash	83	stimuli_distractor_trianglediamonds.svg	stimuli_target_diamondcircles.svg	27	yes	53	1	621
6.6.1	win	2022-12-19	22:29:01	22:36:21	438498	5cfe7510d987a800178eab1a	986630850	2	main_slash	11	advance_on_keypress_SLASH	84	stimuli_distractor_trianglediamonds.svg	stimuli_target_diamondcircles.svg	27	yes	57	0	208
6.6.1	win	2022-12-19	22:29:01	22:36:22	439896	5cfe7510d987a800178eab1a	986630850	2	main_slash	11	main_slash	85	stimuli_target_squaretriangles.svg	stimuli_distractor_diamondtriangles.svg	7	yes	53	1	552
6.6.1	win	2022-12-19	22:29:01	22:36:22	439896	5cfe7510d987a800178eab1a	986630850	2	main_slash	11	advance_on_keypress_SLASH	86	stimuli_target_squaretriangles.svg	stimuli_distractor_diamondtriangles.svg	7	yes	57	0	266
6.6.1	win	2022-12-19	22:29:01	22:36:23	441370	5cfe7510d987a800178eab1a	986630850	2	main_slash	11	main_slash	87	stimuli_target_diamondcircles.svg	stimuli_distractor_diamondtriangles.svg	23	yes	53	1	560
6.6.1	win	2022-12-19	22:29:01	22:36:23	441370	5cfe7510d987a800178eab1a	986630850	2	main_slash	11	advance_on_keypress_SLASH	88	stimuli_target_diamondcircles.svg	stimuli_distractor_diamondtriangles.svg	23	yes	57	0	212
6.6.1	win	2022-12-19	22:29:01	22:36:25	442607	5cfe7510d987a800178eab1a	986630850	2	main_slash	11	main_slash	89	stimuli_distractor_diamondtriangles.svg	stimuli_target_trianglesquares.svg	30	yes	53	1	367
6.6.1	win	2022-12-19	22:29:01	22:36:25	442607	5cfe7510d987a800178eab1a	986630850	2	main_slash	11	advance_on_keypress_SLASH	90	stimuli_distractor_diamondtriangles.svg	stimuli_target_trianglesquares.svg	30	yes	57	0	223
6.6.1	win	2022-12-19	22:29:01	22:36:26	444024	5cfe7510d987a800178eab1a	986630850	2	main_slash	11	main_slash	91	stimuli_target_squaretriangles.svg	stimuli_distractor_trianglediamonds.svg	3	yes	53	1	548
6.6.1	win	2022-12-19	22:29:01	22:36:26	444024	5cfe7510d987a800178eab1a	986630850	2	main_slash	11	advance_on_keypress_SLASH	92	stimuli_target_squaretriangles.svg	stimuli_distractor_trianglediamonds.svg	3	yes	57	0	207
6.6.1	win	2022-12-19	22:29:01	22:36:27	445308	5cfe7510d987a800178eab1a	986630850	2	main_slash	11	main_slash	93	stimuli_target_trianglecircles.svg	stimuli_distractor_diamondtriangles.svg	21	yes	53	1	423
6.6.1	win	2022-12-19	22:29:01	22:36:27	445308	5cfe7510d987a800178eab1a	986630850	2	main_slash	11	advance_on_keypress_SLASH	94	stimuli_target_trianglecircles.svg	stimuli_distractor_diamondtriangles.svg	21	yes	57	0	258
6.6.1	win	2022-12-19	22:29:01	22:36:28	446379	5cfe7510d987a800178eab1a	986630850	2	main_slash	11	main_slash	95	stimuli_distractor_trianglediamonds.svg	stimuli_target_circlediamonds.svg	10	yes	53	1	170
6.6.1	win	2022-12-19	22:29:01	22:36:28	446379	5cfe7510d987a800178eab1a	986630850	2	main_slash	11	advance_on_keypress_SLASH	96	stimuli_distractor_trianglediamonds.svg	stimuli_target_circlediamonds.svg	10	yes	57	0	350
6.6.1	win	2022-12-19	22:29:01	22:36:30	447552	5cfe7510d987a800178eab1a	986630850	2	main_slash	11	main_slash	97	stimuli_distractor_diamondtriangles.svg	stimuli_distractor_trianglediamonds.svg	37	no	53	0	176
6.6.1	win	2022-12-19	22:29:01	22:36:30	447552	5cfe7510d987a800178eab1a	986630850	2	main_slash	11	advance_on_keypress_SLASH	98	stimuli_distractor_diamondtriangles.svg	stimuli_distractor_trianglediamonds.svg	37	no	57	0	410
6.6.1	win	2022-12-19	22:29:01	22:36:31	448750	5cfe7510d987a800178eab1a	986630850	2	main_slash	11	main_slash	99	stimuli_distractor_diamondtriangles.svg	stimuli_distractor_trianglediamonds.svg	38	no	53	0	158
6.6.1	win	2022-12-19	22:29:01	22:36:31	448750	5cfe7510d987a800178eab1a	986630850	2	main_slash	11	advance_on_keypress_SLASH	100	stimuli_distractor_diamondtriangles.svg	stimuli_distractor_trianglediamonds.svg	38	no	57	0	173
6.6.1	win	2022-12-19	22:29:01	22:36:32	449839	5cfe7510d987a800178eab1a	986630850	2	main_slash	11	main_slash	101	stimuli_distractor_trianglediamonds.svg	stimuli_distractor_diamondtriangles.svg	35	no	53	0	281
6.6.1	win	2022-12-19	22:29:01	22:36:32	449839	5cfe7510d987a800178eab1a	986630850	2	main_slash	11	advance_on_keypress_SLASH	102	stimuli_distractor_trianglediamonds.svg	stimuli_distractor_diamondtriangles.svg	35	no	57	0	178
6.6.1	win	2022-12-19	22:29:01	22:36:33	450689	5cfe7510d987a800178eab1a	986630850	2	main_slash	11	main_slash	103	stimuli_target_circletriangles.svg	stimuli_distractor_diamondtriangles.svg	5	yes	53	1	14
6.6.1	win	2022-12-19	22:29:01	22:36:33	450689	5cfe7510d987a800178eab1a	986630850	2	main_slash	11	advance_on_keypress_SLASH	104	stimuli_target_circletriangles.svg	stimuli_distractor_diamondtriangles.svg	5	yes	57	0	165
6.6.1	win	2022-12-19	22:29:01	22:36:34	451743	5cfe7510d987a800178eab1a	986630850	2	main_slash	11	main_slash	105	stimuli_target_squarediamonds.svg	stimuli_distractor_diamondtriangles.svg	8	yes	53	1	235
6.6.1	win	2022-12-19	22:29:01	22:36:34	451743	5cfe7510d987a800178eab1a	986630850	2	main_slash	11	advance_on_keypress_SLASH	106	stimuli_target_squarediamonds.svg	stimuli_distractor_diamondtriangles.svg	8	yes	57	0	175
6.6.1	win	2022-12-19	22:29:01	22:36:35	452850	5cfe7510d987a800178eab1a	986630850	2	main_slash	11	main_slash	107	stimuli_target_circlediamonds.svg	stimuli_distractor_diamondtriangles.svg	6	yes	53	1	292
6.6.1	win	2022-12-19	22:29:01	22:36:35	452850	5cfe7510d987a800178eab1a	986630850	2	main_slash	11	advance_on_keypress_SLASH	108	stimuli_target_circlediamonds.svg	stimuli_distractor_diamondtriangles.svg	6	yes	57	0	186
6.6.1	win	2022-12-19	22:29:01	22:36:36	453902	5cfe7510d987a800178eab1a	986630850	2	main_slash	11	main_slash	109	stimuli_distractor_trianglediamonds.svg	stimuli_distractor_trianglediamonds.svg	33	no	53	0	227
6.6.1	win	2022-12-19	22:29:01	22:36:36	453902	5cfe7510d987a800178eab1a	986630850	2	main_slash	11	advance_on_keypress_SLASH	110	stimuli_distractor_trianglediamonds.svg	stimuli_distractor_trianglediamonds.svg	33	no	57	0	242
6.6.1	win	2022-12-19	22:29:01	22:36:37	455040	5cfe7510d987a800178eab1a	986630850	2	main_slash	11	main_slash	111	stimuli_distractor_trianglediamonds.svg	stimuli_target_squarediamonds.svg	12	yes	53	1	265
6.6.1	win	2022-12-19	22:29:01	22:36:37	455040	5cfe7510d987a800178eab1a	986630850	2	main_slash	11	advance_on_keypress_SLASH	112	stimuli_distractor_trianglediamonds.svg	stimuli_target_squarediamonds.svg	12	yes	57	0	214
6.6.1	win	2022-12-19	22:29:01	22:36:38	456152	5cfe7510d987a800178eab1a	986630850	2	main_slash	11	main_slash	113	stimuli_distractor_trianglediamonds.svg	stimuli_distractor_diamondtriangles.svg	36	no	53	0	244
6.6.1	win	2022-12-19	22:29:01	22:36:38	456152	5cfe7510d987a800178eab1a	986630850	2	main_slash	11	advance_on_keypress_SLASH	114	stimuli_distractor_trianglediamonds.svg	stimuli_distractor_diamondtriangles.svg	36	no	57	0	233
6.6.1	win	2022-12-19	22:29:01	22:36:39	457267	5cfe7510d987a800178eab1a	986630850	2	main_slash	11	main_slash	115	stimuli_distractor_diamondtriangles.svg	stimuli_distractor_diamondtriangles.svg	39	no	53	0	243
6.6.1	win	2022-12-19	22:29:01	22:36:39	457267	5cfe7510d987a800178eab1a	986630850	2	main_slash	11	advance_on_keypress_SLASH	116	stimuli_distractor_diamondtriangles.svg	stimuli_distractor_diamondtriangles.svg	39	no	57	0	230
6.6.1	win	2022-12-19	22:29:01	22:36:40	458342	5cfe7510d987a800178eab1a	986630850	2	main_slash	11	main_slash	117	stimuli_distractor_trianglediamonds.svg	stimuli_distractor_trianglediamonds.svg	34	no	53	0	201
6.6.1	win	2022-12-19	22:29:01	22:36:40	458342	5cfe7510d987a800178eab1a	986630850	2	main_slash	11	advance_on_keypress_SLASH	118	stimuli_distractor_trianglediamonds.svg	stimuli_distractor_trianglediamonds.svg	34	no	57	0	232
6.6.1	win	2022-12-19	22:29:01	22:36:42	459513	5cfe7510d987a800178eab1a	986630850	2	main_slash	11	main_slash	119	stimuli_target_squarediamonds.svg	stimuli_distractor_trianglediamonds.svg	4	yes	53	1	290
6.6.1	win	2022-12-19	22:29:01	22:36:42	459513	5cfe7510d987a800178eab1a	986630850	2	main_slash	11	advance_on_keypress_SLASH	120	stimuli_target_squarediamonds.svg	stimuli_distractor_trianglediamonds.svg	4	yes	57	0	186
6.6.1	win	2022-12-19	22:29:01	22:36:43	460573	5cfe7510d987a800178eab1a	986630850	2	main_slash	11	main_slash	121	stimuli_target_diamondcircles.svg	stimuli_distractor_trianglediamonds.svg	19	yes	53	1	233
6.6.1	win	2022-12-19	22:29:01	22:36:43	460573	5cfe7510d987a800178eab1a	986630850	2	main_slash	11	advance_on_keypress_SLASH	122	stimuli_target_diamondcircles.svg	stimuli_distractor_trianglediamonds.svg	19	yes	57	0	211
6.6.1	win	2022-12-19	22:29:01	22:36:44	461635	5cfe7510d987a800178eab1a	986630850	2	main_slash	11	main_slash	123	stimuli_distractor_diamondtriangles.svg	stimuli_target_diamondsquares.svg	32	yes	53	1	212
6.6.1	win	2022-12-19	22:29:01	22:36:44	461635	5cfe7510d987a800178eab1a	986630850	2	main_slash	11	advance_on_keypress_SLASH	124	stimuli_distractor_diamondtriangles.svg	stimuli_target_diamondsquares.svg	32	yes	57	0	211
6.6.1	win	2022-12-19	22:29:01	22:36:45	462740	5cfe7510d987a800178eab1a	986630850	2	main_slash	11	main_slash	125	stimuli_distractor_diamondtriangles.svg	stimuli_distractor_diamondtriangles.svg	40	no	53	0	251
6.6.1	win	2022-12-19	22:29:01	22:36:45	462740	5cfe7510d987a800178eab1a	986630850	2	main_slash	11	advance_on_keypress_SLASH	126	stimuli_distractor_diamondtriangles.svg	stimuli_distractor_diamondtriangles.svg	40	no	57	0	200
6.6.1	win	2022-12-19	22:29:01	22:36:46	463797	5cfe7510d987a800178eab1a	986630850	2	main_slash	11	main_slash	127	stimuli_distractor_trianglediamonds.svg	stimuli_target_circletriangles.svg	9	yes	53	1	207
6.6.1	win	2022-12-19	22:29:01	22:36:46	463797	5cfe7510d987a800178eab1a	986630850	2	main_slash	11	advance_on_keypress_SLASH	128	stimuli_distractor_trianglediamonds.svg	stimuli_target_circletriangles.svg	9	yes	57	0	229
6.6.1	win	2022-12-19	22:29:01	22:36:47	464902	5cfe7510d987a800178eab1a	986630850	2	main_slash	11	main_slash	129	stimuli_target_trianglesquares.svg	stimuli_distractor_trianglediamonds.svg	18	yes	53	1	229
6.6.1	win	2022-12-19	22:29:01	22:36:47	464902	5cfe7510d987a800178eab1a	986630850	2	main_slash	11	advance_on_keypress_SLASH	130	stimuli_target_trianglesquares.svg	stimuli_distractor_trianglediamonds.svg	18	yes	57	0	221
6.6.1	win	2022-12-19	22:29:01	22:36:48	466021	5cfe7510d987a800178eab1a	986630850	2	main_slash	11	main_slash	131	stimuli_target_diamondsquares.svg	stimuli_distractor_trianglediamonds.svg	20	yes	53	1	248
6.6.1	win	2022-12-19	22:29:01	22:36:48	466021	5cfe7510d987a800178eab1a	986630850	2	main_slash	11	advance_on_keypress_SLASH	132	stimuli_target_diamondsquares.svg	stimuli_distractor_trianglediamonds.svg	20	yes	57	0	211
6.6.1	win	2022-12-19	22:29:01	22:36:49	467107	5cfe7510d987a800178eab1a	986630850	2	main_slash	11	main_slash	133	stimuli_target_trianglesquares.svg	stimuli_distractor_diamondtriangles.svg	22	yes	53	1	217
6.6.1	win	2022-12-19	22:29:01	22:36:49	467107	5cfe7510d987a800178eab1a	986630850	2	main_slash	11	advance_on_keypress_SLASH	134	stimuli_target_trianglesquares.svg	stimuli_distractor_diamondtriangles.svg	22	yes	57	0	229
6.6.1	win	2022-12-19	22:29:01	22:36:50	468225	5cfe7510d987a800178eab1a	986630850	2	main_slash	11	main_slash	135	stimuli_distractor_diamondtriangles.svg	stimuli_target_trianglecircles.svg	29	yes	53	1	235
6.6.1	win	2022-12-19	22:29:01	22:36:50	468225	5cfe7510d987a800178eab1a	986630850	2	main_slash	11	advance_on_keypress_SLASH	136	stimuli_distractor_diamondtriangles.svg	stimuli_target_trianglecircles.svg	29	yes	57	0	157
6.6.1	win	2022-12-19	22:29:01	22:36:51	469240	5cfe7510d987a800178eab1a	986630850	2	main_slash	11	main_slash	137	stimuli_distractor_trianglediamonds.svg	stimuli_target_trianglecircles.svg	25	yes	53	1	218
6.6.1	win	2022-12-19	22:29:01	22:36:51	469240	5cfe7510d987a800178eab1a	986630850	2	main_slash	11	advance_on_keypress_SLASH	138	stimuli_distractor_trianglediamonds.svg	stimuli_target_trianglecircles.svg	25	yes	57	0	209
6.6.1	win	2022-12-19	22:29:01	22:36:52	470358	5cfe7510d987a800178eab1a	986630850	2	main_slash	11	main_slash	139	stimuli_distractor_diamondtriangles.svg	stimuli_target_squarediamonds.svg	16	yes	53	1	269
6.6.1	win	2022-12-19	22:29:01	22:36:52	470358	5cfe7510d987a800178eab1a	986630850	2	main_slash	11	advance_on_keypress_SLASH	140	stimuli_distractor_diamondtriangles.svg	stimuli_target_squarediamonds.svg	16	yes	57	0	165
6.6.1	win	2022-12-19	22:29:01	22:36:53	471373	5cfe7510d987a800178eab1a	986630850	2	main_slash	11	main_slash	141	stimuli_distractor_trianglediamonds.svg	stimuli_target_trianglesquares.svg	26	yes	53	1	201
6.6.1	win	2022-12-19	22:29:01	22:36:53	471373	5cfe7510d987a800178eab1a	986630850	2	main_slash	11	advance_on_keypress_SLASH	142	stimuli_distractor_trianglediamonds.svg	stimuli_target_trianglesquares.svg	26	yes	57	0	212
6.6.1	win	2022-12-19	22:29:01	22:36:54	472417	5cfe7510d987a800178eab1a	986630850	2	main_slash	11	main_slash	143	stimuli_target_circletriangles.svg	stimuli_distractor_trianglediamonds.svg	1	yes	53	1	179
6.6.1	win	2022-12-19	22:29:01	22:36:54	472417	5cfe7510d987a800178eab1a	986630850	2	main_slash	11	advance_on_keypress_SLASH	144	stimuli_target_circletriangles.svg	stimuli_distractor_trianglediamonds.svg	1	yes	57	0	232
6.6.1	win	2022-12-19	22:29:01	22:36:56	473491	5cfe7510d987a800178eab1a	986630850	2	main_slash	11	main_slash	145	stimuli_distractor_diamondtriangles.svg	stimuli_target_diamondcircles.svg	31	yes	53	1	185
6.6.1	win	2022-12-19	22:29:01	22:36:56	473491	5cfe7510d987a800178eab1a	986630850	2	main_slash	11	advance_on_keypress_SLASH	146	stimuli_distractor_diamondtriangles.svg	stimuli_target_diamondcircles.svg	31	yes	57	0	222
6.6.1	win	2022-12-19	22:29:01	22:36:57	474604	5cfe7510d987a800178eab1a	986630850	2	main_slash	11	main_slash	147	stimuli_target_circlediamonds.svg	stimuli_distractor_trianglediamonds.svg	2	yes	53	1	249
6.6.1	win	2022-12-19	22:29:01	22:36:57	474604	5cfe7510d987a800178eab1a	986630850	2	main_slash	11	advance_on_keypress_SLASH	148	stimuli_target_circlediamonds.svg	stimuli_distractor_trianglediamonds.svg	2	yes	57	0	224
6.6.1	win	2022-12-19	22:29:01	22:36:58	475478	5cfe7510d987a800178eab1a	986630850	2	main_slash	11	main_slash	149	stimuli_distractor_diamondtriangles.svg	stimuli_target_circletriangles.svg	13	yes	53	1	7
6.6.1	win	2022-12-19	22:29:01	22:36:58	475478	5cfe7510d987a800178eab1a	986630850	2	main_slash	11	advance_on_keypress_SLASH	150	stimuli_distractor_diamondtriangles.svg	stimuli_target_circletriangles.svg	13	yes	57	0	179
6.6.1	win	2022-12-19	22:29:01	22:36:59	476500	5cfe7510d987a800178eab1a	986630850	2	main_slash	11	main_slash	151	stimuli_distractor_diamondtriangles.svg	stimuli_target_squaretriangles.svg	15	yes	53	1	195
6.6.1	win	2022-12-19	22:29:01	22:36:59	476500	5cfe7510d987a800178eab1a	986630850	2	main_slash	11	advance_on_keypress_SLASH	152	stimuli_distractor_diamondtriangles.svg	stimuli_target_squaretriangles.svg	15	yes	57	0	225
6.6.1	win	2022-12-19	22:29:01	22:37:00	477575	5cfe7510d987a800178eab1a	986630850	2	main_slash	11	main_slash	153	stimuli_distractor_trianglediamonds.svg	stimuli_target_diamondsquares.svg	28	yes	53	1	221
6.6.1	win	2022-12-19	22:29:01	22:37:00	477575	5cfe7510d987a800178eab1a	986630850	2	main_slash	11	advance_on_keypress_SLASH	154	stimuli_distractor_trianglediamonds.svg	stimuli_target_diamondsquares.svg	28	yes	57	0	233
6.6.1	win	2022-12-19	22:29:01	22:37:01	478526	5cfe7510d987a800178eab1a	986630850	2	main_slash	11	main_slash	155	stimuli_target_trianglecircles.svg	stimuli_distractor_trianglediamonds.svg	17	yes	53	1	72
6.6.1	win	2022-12-19	22:29:01	22:37:01	478526	5cfe7510d987a800178eab1a	986630850	2	main_slash	11	advance_on_keypress_SLASH	156	stimuli_target_trianglecircles.svg	stimuli_distractor_trianglediamonds.svg	17	yes	57	0	179
6.6.1	win	2022-12-19	22:29:01	22:37:02	479582	5cfe7510d987a800178eab1a	986630850	2	main_slash	11	main_slash	157	stimuli_target_diamondsquares.svg	stimuli_distractor_diamondtriangles.svg	24	yes	53	1	228
6.6.1	win	2022-12-19	22:29:01	22:37:02	479582	5cfe7510d987a800178eab1a	986630850	2	main_slash	11	advance_on_keypress_SLASH	158	stimuli_target_diamondsquares.svg	stimuli_distractor_diamondtriangles.svg	24	yes	57	0	192
6.6.1	win	2022-12-19	22:29:01	22:37:03	480623	5cfe7510d987a800178eab1a	986630850	2	main_slash	11	main_slash	159	stimuli_distractor_diamondtriangles.svg	stimuli_target_circlediamonds.svg	14	yes	53	1	219
6.6.1	win	2022-12-19	22:29:01	22:37:03	480623	5cfe7510d987a800178eab1a	986630850	2	main_slash	11	advance_on_keypress_SLASH	160	stimuli_distractor_diamondtriangles.svg	stimuli_target_circlediamonds.svg	14	yes	57	0	221