build	computer.platform	date	time	timestamp	time_elapsed_ms	subject	group	session	blockcode	blocknum	trialcode	trialnum	stimulus_left	stimulus_right	stim_index	target_present	response	correct	latency
6.6.1	win	2022-12-14	21:23:46	21:26:30	162411	6172cf92f2ea6613f717abb6	331133331	1	practice_slash	5	practice_slash	1	stimuli_target_diamondsquares.svg	stimuli_distractor_diamondtriangles.svg	3	yes	53	1	667
6.6.1	win	2022-12-14	21:23:46	21:26:30	162411	6172cf92f2ea6613f717abb6	331133331	1	practice_slash	5	advance_on_keypress_SLASH	2	stimuli_target_diamondsquares.svg	stimuli_distractor_diamondtriangles.svg	3	yes	57	0	1857
6.6.1	win	2022-12-14	21:23:46	21:26:35	167940	6172cf92f2ea6613f717abb6	331133331	1	practice_slash	5	practice_slash	3	stimuli_target_diamondsquares.svg	stimuli_distractor_trianglediamonds.svg	6	yes	0	0	2000
6.6.1	win	2022-12-14	21:23:46	21:26:35	167940	6172cf92f2ea6613f717abb6	331133331	1	practice_slash	5	advance_on_keypress_SLASH	4	stimuli_target_diamondsquares.svg	stimuli_distractor_trianglediamonds.svg	6	yes	57	0	473
6.6.1	win	2022-12-14	21:23:46	21:26:38	170972	6172cf92f2ea6613f717abb6	331133331	1	practice_slash	5	practice_slash	5	stimuli_distractor_diamondtriangles.svg	stimuli_target_circletriangles.svg	7	yes	53	1	902
6.6.1	win	2022-12-14	21:23:46	21:26:38	170972	6172cf92f2ea6613f717abb6	331133331	1	practice_slash	5	advance_on_keypress_SLASH	6	stimuli_distractor_diamondtriangles.svg	stimuli_target_circletriangles.svg	7	yes	57	0	767
6.6.1	win	2022-12-14	21:23:46	21:26:42	174320	6172cf92f2ea6613f717abb6	331133331	1	practice_slash	5	practice_slash	7	stimuli_target_squarediamonds.svg	stimuli_distractor_diamondtriangles.svg	2	yes	53	1	936
6.6.1	win	2022-12-14	21:23:46	21:26:42	174320	6172cf92f2ea6613f717abb6	331133331	1	practice_slash	5	advance_on_keypress_SLASH	8	stimuli_target_squarediamonds.svg	stimuli_distractor_diamondtriangles.svg	2	yes	57	0	394
6.6.1	win	2022-12-14	21:23:46	21:26:44	177142	6172cf92f2ea6613f717abb6	331133331	1	practice_slash	5	practice_slash	9	stimuli_distractor_trianglediamonds.svg	stimuli_target_circlediamonds.svg	10	yes	53	1	779
6.6.1	win	2022-12-14	21:23:46	21:26:44	177142	6172cf92f2ea6613f717abb6	331133331	1	practice_slash	5	advance_on_keypress_SLASH	10	stimuli_distractor_trianglediamonds.svg	stimuli_target_circlediamonds.svg	10	yes	57	0	346
6.6.1	win	2022-12-14	21:23:46	21:26:48	180220	6172cf92f2ea6613f717abb6	331133331	1	practice_slash	5	practice_slash	11	stimuli_distractor_trianglediamonds.svg	stimuli_target_diamondcircles.svg	12	yes	53	1	1076
6.6.1	win	2022-12-14	21:23:46	21:26:48	180220	6172cf92f2ea6613f717abb6	331133331	1	practice_slash	5	advance_on_keypress_SLASH	12	stimuli_distractor_trianglediamonds.svg	stimuli_target_diamondcircles.svg	12	yes	57	0	304
6.6.1	win	2022-12-14	21:23:46	21:26:52	184176	6172cf92f2ea6613f717abb6	331133331	1	practice_slash	5	practice_slash	13	stimuli_distractor_trianglediamonds.svg	stimuli_distractor_diamondtriangles.svg	16	no	0	1	2000
6.6.1	win	2022-12-14	21:23:46	21:26:52	184176	6172cf92f2ea6613f717abb6	331133331	1	practice_slash	5	advance_on_keypress_SLASH	14	stimuli_distractor_trianglediamonds.svg	stimuli_distractor_diamondtriangles.svg	16	no	57	0	428
6.6.1	win	2022-12-14	21:23:46	21:26:54	187020	6172cf92f2ea6613f717abb6	331133331	1	practice_slash	5	practice_slash	15	stimuli_distractor_diamondtriangles.svg	stimuli_target_diamondcircles.svg	8	yes	53	1	763
6.6.1	win	2022-12-14	21:23:46	21:26:54	187020	6172cf92f2ea6613f717abb6	331133331	1	practice_slash	5	advance_on_keypress_SLASH	16	stimuli_distractor_diamondtriangles.svg	stimuli_target_diamondcircles.svg	8	yes	57	0	409
6.6.1	win	2022-12-14	21:23:46	21:26:57	189906	6172cf92f2ea6613f717abb6	331133331	1	practice_slash	5	practice_slash	17	stimuli_target_circlediamonds.svg	stimuli_distractor_trianglediamonds.svg	4	yes	53	1	819
6.6.1	win	2022-12-14	21:23:46	21:26:57	189906	6172cf92f2ea6613f717abb6	331133331	1	practice_slash	5	advance_on_keypress_SLASH	18	stimuli_target_circlediamonds.svg	stimuli_distractor_trianglediamonds.svg	4	yes	57	0	419
6.6.1	win	2022-12-14	21:23:46	21:27:00	193029	6172cf92f2ea6613f717abb6	331133331	1	practice_slash	5	practice_slash	19	stimuli_distractor_diamondtriangles.svg	stimuli_target_trianglecircles.svg	9	yes	53	1	1043
6.6.1	win	2022-12-14	21:23:46	21:27:00	193029	6172cf92f2ea6613f717abb6	331133331	1	practice_slash	5	advance_on_keypress_SLASH	20	stimuli_distractor_diamondtriangles.svg	stimuli_target_trianglecircles.svg	9	yes	57	0	382
6.6.1	win	2022-12-14	21:23:46	21:27:03	195938	6172cf92f2ea6613f717abb6	331133331	1	practice_slash	5	practice_slash	21	stimuli_target_squarediamonds.svg	stimuli_distractor_trianglediamonds.svg	5	yes	53	1	873
6.6.1	win	2022-12-14	21:23:46	21:27:03	195938	6172cf92f2ea6613f717abb6	331133331	1	practice_slash	5	advance_on_keypress_SLASH	22	stimuli_target_squarediamonds.svg	stimuli_distractor_trianglediamonds.svg	5	yes	57	0	332
6.6.1	win	2022-12-14	21:23:46	21:27:07	199929	6172cf92f2ea6613f717abb6	331133331	1	practice_slash	5	practice_slash	23	stimuli_distractor_trianglediamonds.svg	stimuli_distractor_trianglediamonds.svg	15	no	0	1	2000
6.6.1	win	2022-12-14	21:23:46	21:27:07	199929	6172cf92f2ea6613f717abb6	331133331	1	practice_slash	5	advance_on_keypress_SLASH	24	stimuli_distractor_trianglediamonds.svg	stimuli_distractor_trianglediamonds.svg	15	no	57	0	424
6.6.1	win	2022-12-14	21:23:46	21:27:11	204009	6172cf92f2ea6613f717abb6	331133331	1	practice_slash	5	practice_slash	25	stimuli_distractor_diamondtriangles.svg	stimuli_distractor_diamondtriangles.svg	13	no	0	1	2000
6.6.1	win	2022-12-14	21:23:46	21:27:11	204009	6172cf92f2ea6613f717abb6	331133331	1	practice_slash	5	advance_on_keypress_SLASH	26	stimuli_distractor_diamondtriangles.svg	stimuli_distractor_diamondtriangles.svg	13	no	57	0	399
6.6.1	win	2022-12-14	21:23:46	21:27:14	206980	6172cf92f2ea6613f717abb6	331133331	1	practice_slash	5	practice_slash	27	stimuli_distractor_trianglediamonds.svg	stimuli_target_squarediamonds.svg	11	yes	53	1	925
6.6.1	win	2022-12-14	21:23:46	21:27:14	206980	6172cf92f2ea6613f717abb6	331133331	1	practice_slash	5	advance_on_keypress_SLASH	28	stimuli_distractor_trianglediamonds.svg	stimuli_target_squarediamonds.svg	11	yes	57	0	321
6.6.1	win	2022-12-14	21:23:46	21:27:17	209889	6172cf92f2ea6613f717abb6	331133331	1	practice_slash	5	practice_slash	29	stimuli_target_circlediamonds.svg	stimuli_distractor_diamondtriangles.svg	1	yes	53	1	938
6.6.1	win	2022-12-14	21:23:46	21:27:17	209889	6172cf92f2ea6613f717abb6	331133331	1	practice_slash	5	advance_on_keypress_SLASH	30	stimuli_target_circlediamonds.svg	stimuli_distractor_diamondtriangles.svg	1	yes	57	0	962
6.6.1	win	2022-12-14	21:23:46	21:27:22	214500	6172cf92f2ea6613f717abb6	331133331	1	practice_slash	5	practice_slash	31	stimuli_distractor_diamondtriangles.svg	stimuli_distractor_trianglediamonds.svg	14	no	0	1	2000
6.6.1	win	2022-12-14	21:23:46	21:27:22	214500	6172cf92f2ea6613f717abb6	331133331	1	practice_slash	5	advance_on_keypress_SLASH	32	stimuli_distractor_diamondtriangles.svg	stimuli_distractor_trianglediamonds.svg	14	no	57	0	318
6.6.1	win	2022-12-14	21:23:46	21:27:31	223877	6172cf92f2ea6613f717abb6	331133331	1	main_slash	7	main_slash	1	stimuli_distractor_trianglediamonds.svg	stimuli_target_circletriangles.svg	9	yes	53	1	691
6.6.1	win	2022-12-14	21:23:46	21:27:31	223877	6172cf92f2ea6613f717abb6	331133331	1	main_slash	7	advance_on_keypress_SLASH	2	stimuli_distractor_trianglediamonds.svg	stimuli_target_circletriangles.svg	9	yes	57	0	1683
6.6.1	win	2022-12-14	21:23:46	21:27:36	228217	6172cf92f2ea6613f717abb6	331133331	1	main_slash	7	main_slash	3	stimuli_distractor_trianglediamonds.svg	stimuli_distractor_diamondtriangles.svg	35	no	0	1	2000
6.6.1	win	2022-12-14	21:23:46	21:27:36	228217	6172cf92f2ea6613f717abb6	331133331	1	main_slash	7	advance_on_keypress_SLASH	4	stimuli_distractor_trianglediamonds.svg	stimuli_distractor_diamondtriangles.svg	35	no	57	0	361
6.6.1	win	2022-12-14	21:23:46	21:27:38	230166	6172cf92f2ea6613f717abb6	331133331	1	main_slash	7	main_slash	5	stimuli_target_trianglesquares.svg	stimuli_distractor_trianglediamonds.svg	18	yes	53	1	935
6.6.1	win	2022-12-14	21:23:46	21:27:38	230166	6172cf92f2ea6613f717abb6	331133331	1	main_slash	7	advance_on_keypress_SLASH	6	stimuli_target_trianglesquares.svg	stimuli_distractor_trianglediamonds.svg	18	yes	57	0	760
6.6.1	win	2022-12-14	21:23:46	21:27:40	232303	6172cf92f2ea6613f717abb6	331133331	1	main_slash	7	main_slash	7	stimuli_target_trianglecircles.svg	stimuli_distractor_trianglediamonds.svg	17	yes	53	1	741
6.6.1	win	2022-12-14	21:23:46	21:27:40	232303	6172cf92f2ea6613f717abb6	331133331	1	main_slash	7	advance_on_keypress_SLASH	8	stimuli_target_trianglecircles.svg	stimuli_distractor_trianglediamonds.svg	17	yes	57	0	648
6.6.1	win	2022-12-14	21:23:46	21:27:42	234307	6172cf92f2ea6613f717abb6	331133331	1	main_slash	7	main_slash	9	stimuli_distractor_trianglediamonds.svg	stimuli_target_diamondcircles.svg	27	yes	53	1	713
6.6.1	win	2022-12-14	21:23:46	21:27:42	234307	6172cf92f2ea6613f717abb6	331133331	1	main_slash	7	advance_on_keypress_SLASH	10	stimuli_distractor_trianglediamonds.svg	stimuli_target_diamondcircles.svg	27	yes	57	0	396
6.6.1	win	2022-12-14	21:23:46	21:27:45	237359	6172cf92f2ea6613f717abb6	331133331	1	main_slash	7	main_slash	11	stimuli_target_diamondsquares.svg	stimuli_distractor_trianglediamonds.svg	20	yes	0	0	2000
6.6.1	win	2022-12-14	21:23:46	21:27:45	237359	6172cf92f2ea6613f717abb6	331133331	1	main_slash	7	advance_on_keypress_SLASH	12	stimuli_target_diamondsquares.svg	stimuli_distractor_trianglediamonds.svg	20	yes	57	0	290
6.6.1	win	2022-12-14	21:23:46	21:27:48	240290	6172cf92f2ea6613f717abb6	331133331	1	main_slash	7	main_slash	13	stimuli_distractor_trianglediamonds.svg	stimuli_distractor_trianglediamonds.svg	33	no	0	1	2000
6.6.1	win	2022-12-14	21:23:46	21:27:48	240290	6172cf92f2ea6613f717abb6	331133331	1	main_slash	7	advance_on_keypress_SLASH	14	stimuli_distractor_trianglediamonds.svg	stimuli_distractor_trianglediamonds.svg	33	no	57	0	414
6.6.1	win	2022-12-14	21:23:46	21:27:49	241820	6172cf92f2ea6613f717abb6	331133331	1	main_slash	7	main_slash	15	stimuli_distractor_diamondtriangles.svg	stimuli_target_circlediamonds.svg	14	yes	53	1	465
6.6.1	win	2022-12-14	21:23:46	21:27:49	241820	6172cf92f2ea6613f717abb6	331133331	1	main_slash	7	advance_on_keypress_SLASH	16	stimuli_distractor_diamondtriangles.svg	stimuli_target_circlediamonds.svg	14	yes	57	0	483
6.6.1	win	2022-12-14	21:23:46	21:27:51	243656	6172cf92f2ea6613f717abb6	331133331	1	main_slash	7	main_slash	17	stimuli_distractor_diamondtriangles.svg	stimuli_target_diamondsquares.svg	32	yes	53	1	704
6.6.1	win	2022-12-14	21:23:46	21:27:51	243656	6172cf92f2ea6613f717abb6	331133331	1	main_slash	7	advance_on_keypress_SLASH	18	stimuli_distractor_diamondtriangles.svg	stimuli_target_diamondsquares.svg	32	yes	57	0	387
6.6.1	win	2022-12-14	21:23:46	21:27:53	245350	6172cf92f2ea6613f717abb6	331133331	1	main_slash	7	main_slash	19	stimuli_target_trianglesquares.svg	stimuli_distractor_diamondtriangles.svg	22	yes	53	1	666
6.6.1	win	2022-12-14	21:23:46	21:27:53	245350	6172cf92f2ea6613f717abb6	331133331	1	main_slash	7	advance_on_keypress_SLASH	20	stimuli_target_trianglesquares.svg	stimuli_distractor_diamondtriangles.svg	22	yes	57	0	394
6.6.1	win	2022-12-14	21:23:46	21:27:54	247023	6172cf92f2ea6613f717abb6	331133331	1	main_slash	7	main_slash	21	stimuli_distractor_diamondtriangles.svg	stimuli_target_trianglecircles.svg	29	yes	53	1	624
6.6.1	win	2022-12-14	21:23:46	21:27:54	247023	6172cf92f2ea6613f717abb6	331133331	1	main_slash	7	advance_on_keypress_SLASH	22	stimuli_distractor_diamondtriangles.svg	stimuli_target_trianglecircles.svg	29	yes	57	0	413
6.6.1	win	2022-12-14	21:23:46	21:27:56	248775	6172cf92f2ea6613f717abb6	331133331	1	main_slash	7	main_slash	23	stimuli_target_diamondcircles.svg	stimuli_distractor_diamondtriangles.svg	23	yes	53	1	694
6.6.1	win	2022-12-14	21:23:46	21:27:56	248775	6172cf92f2ea6613f717abb6	331133331	1	main_slash	7	advance_on_keypress_SLASH	24	stimuli_target_diamondcircles.svg	stimuli_distractor_diamondtriangles.svg	23	yes	57	0	337
6.6.1	win	2022-12-14	21:23:46	21:27:58	250490	6172cf92f2ea6613f717abb6	331133331	1	main_slash	7	main_slash	25	stimuli_target_squarediamonds.svg	stimuli_distractor_diamondtriangles.svg	8	yes	53	1	727
6.6.1	win	2022-12-14	21:23:46	21:27:58	250490	6172cf92f2ea6613f717abb6	331133331	1	main_slash	7	advance_on_keypress_SLASH	26	stimuli_target_squarediamonds.svg	stimuli_distractor_diamondtriangles.svg	8	yes	57	0	280
6.6.1	win	2022-12-14	21:23:46	21:28:01	253428	6172cf92f2ea6613f717abb6	331133331	1	main_slash	7	main_slash	27	stimuli_target_squaretriangles.svg	stimuli_distractor_trianglediamonds.svg	3	yes	0	0	2000
6.6.1	win	2022-12-14	21:23:46	21:28:01	253428	6172cf92f2ea6613f717abb6	331133331	1	main_slash	7	advance_on_keypress_SLASH	28	stimuli_target_squaretriangles.svg	stimuli_distractor_trianglediamonds.svg	3	yes	57	0	403
6.6.1	win	2022-12-14	21:23:46	21:28:02	255132	6172cf92f2ea6613f717abb6	331133331	1	main_slash	7	main_slash	29	stimuli_target_trianglecircles.svg	stimuli_distractor_diamondtriangles.svg	21	yes	53	1	656
6.6.1	win	2022-12-14	21:23:46	21:28:02	255132	6172cf92f2ea6613f717abb6	331133331	1	main_slash	7	advance_on_keypress_SLASH	30	stimuli_target_trianglecircles.svg	stimuli_distractor_diamondtriangles.svg	21	yes	57	0	762
6.6.1	win	2022-12-14	21:23:46	21:28:06	258541	6172cf92f2ea6613f717abb6	331133331	1	main_slash	7	main_slash	31	stimuli_distractor_trianglediamonds.svg	stimuli_distractor_diamondtriangles.svg	36	no	0	1	2000
6.6.1	win	2022-12-14	21:23:46	21:28:06	258541	6172cf92f2ea6613f717abb6	331133331	1	main_slash	7	advance_on_keypress_SLASH	32	stimuli_distractor_trianglediamonds.svg	stimuli_distractor_diamondtriangles.svg	36	no	57	0	366
6.6.1	win	2022-12-14	21:23:46	21:28:08	260241	6172cf92f2ea6613f717abb6	331133331	1	main_slash	7	main_slash	33	stimuli_distractor_diamondtriangles.svg	stimuli_target_circletriangles.svg	13	yes	53	1	687
6.6.1	win	2022-12-14	21:23:46	21:28:08	260241	6172cf92f2ea6613f717abb6	331133331	1	main_slash	7	advance_on_keypress_SLASH	34	stimuli_distractor_diamondtriangles.svg	stimuli_target_circletriangles.svg	13	yes	57	0	428
6.6.1	win	2022-12-14	21:23:46	21:28:09	261980	6172cf92f2ea6613f717abb6	331133331	1	main_slash	7	main_slash	35	stimuli_target_squarediamonds.svg	stimuli_distractor_trianglediamonds.svg	4	yes	53	1	660
6.6.1	win	2022-12-14	21:23:46	21:28:09	261980	6172cf92f2ea6613f717abb6	331133331	1	main_slash	7	advance_on_keypress_SLASH	36	stimuli_target_squarediamonds.svg	stimuli_distractor_trianglediamonds.svg	4	yes	57	0	318
6.6.1	win	2022-12-14	21:23:46	21:28:11	263556	6172cf92f2ea6613f717abb6	331133331	1	main_slash	7	main_slash	37	stimuli_distractor_trianglediamonds.svg	stimuli_target_squaretriangles.svg	11	yes	53	1	604
6.6.1	win	2022-12-14	21:23:46	21:28:11	263556	6172cf92f2ea6613f717abb6	331133331	1	main_slash	7	advance_on_keypress_SLASH	38	stimuli_distractor_trianglediamonds.svg	stimuli_target_squaretriangles.svg	11	yes	57	0	358
6.6.1	win	2022-12-14	21:23:46	21:28:14	266567	6172cf92f2ea6613f717abb6	331133331	1	main_slash	7	main_slash	39	stimuli_distractor_diamondtriangles.svg	stimuli_distractor_diamondtriangles.svg	40	no	0	1	2000
6.6.1	win	2022-12-14	21:23:46	21:28:14	266567	6172cf92f2ea6613f717abb6	331133331	1	main_slash	7	advance_on_keypress_SLASH	40	stimuli_distractor_diamondtriangles.svg	stimuli_distractor_diamondtriangles.svg	40	no	57	0	390
6.6.1	win	2022-12-14	21:23:46	21:28:16	268173	6172cf92f2ea6613f717abb6	331133331	1	main_slash	7	main_slash	41	stimuli_distractor_diamondtriangles.svg	stimuli_target_squarediamonds.svg	16	yes	53	1	576
6.6.1	win	2022-12-14	21:23:46	21:28:16	268173	6172cf92f2ea6613f717abb6	331133331	1	main_slash	7	advance_on_keypress_SLASH	42	stimuli_distractor_diamondtriangles.svg	stimuli_target_squarediamonds.svg	16	yes	57	0	473
6.6.1	win	2022-12-14	21:23:46	21:28:17	270052	6172cf92f2ea6613f717abb6	331133331	1	main_slash	7	main_slash	43	stimuli_target_circletriangles.svg	stimuli_distractor_trianglediamonds.svg	1	yes	53	1	773
6.6.1	win	2022-12-14	21:23:46	21:28:17	270052	6172cf92f2ea6613f717abb6	331133331	1	main_slash	7	advance_on_keypress_SLASH	44	stimuli_target_circletriangles.svg	stimuli_distractor_trianglediamonds.svg	1	yes	57	0	365
6.6.1	win	2022-12-14	21:23:46	21:28:19	271750	6172cf92f2ea6613f717abb6	331133331	1	main_slash	7	main_slash	45	stimuli_distractor_trianglediamonds.svg	stimuli_target_trianglecircles.svg	25	yes	53	1	689
6.6.1	win	2022-12-14	21:23:46	21:28:19	271750	6172cf92f2ea6613f717abb6	331133331	1	main_slash	7	advance_on_keypress_SLASH	46	stimuli_distractor_trianglediamonds.svg	stimuli_target_trianglecircles.svg	25	yes	57	0	460
6.6.1	win	2022-12-14	21:23:46	21:28:22	274860	6172cf92f2ea6613f717abb6	331133331	1	main_slash	7	main_slash	47	stimuli_distractor_diamondtriangles.svg	stimuli_distractor_diamondtriangles.svg	39	no	0	1	2000
6.6.1	win	2022-12-14	21:23:46	21:28:22	274860	6172cf92f2ea6613f717abb6	331133331	1	main_slash	7	advance_on_keypress_SLASH	48	stimuli_distractor_diamondtriangles.svg	stimuli_distractor_diamondtriangles.svg	39	no	57	0	548
6.6.1	win	2022-12-14	21:23:46	21:28:24	276600	6172cf92f2ea6613f717abb6	331133331	1	main_slash	7	main_slash	49	stimuli_target_circletriangles.svg	stimuli_distractor_diamondtriangles.svg	5	yes	53	1	543
6.6.1	win	2022-12-14	21:23:46	21:28:24	276600	6172cf92f2ea6613f717abb6	331133331	1	main_slash	7	advance_on_keypress_SLASH	50	stimuli_target_circletriangles.svg	stimuli_distractor_diamondtriangles.svg	5	yes	57	0	351
6.6.1	win	2022-12-14	21:23:46	21:28:27	279589	6172cf92f2ea6613f717abb6	331133331	1	main_slash	7	main_slash	51	stimuli_distractor_trianglediamonds.svg	stimuli_target_circlediamonds.svg	10	yes	0	0	2000
6.6.1	win	2022-12-14	21:23:46	21:28:27	279589	6172cf92f2ea6613f717abb6	331133331	1	main_slash	7	advance_on_keypress_SLASH	52	stimuli_distractor_trianglediamonds.svg	stimuli_target_circlediamonds.svg	10	yes	57	0	418
6.6.1	win	2022-12-14	21:23:46	21:28:30	282653	6172cf92f2ea6613f717abb6	331133331	1	main_slash	7	main_slash	53	stimuli_distractor_trianglediamonds.svg	stimuli_distractor_trianglediamonds.svg	34	no	0	1	2000
6.6.1	win	2022-12-14	21:23:46	21:28:30	282653	6172cf92f2ea6613f717abb6	331133331	1	main_slash	7	advance_on_keypress_SLASH	54	stimuli_distractor_trianglediamonds.svg	stimuli_distractor_trianglediamonds.svg	34	no	57	0	274
6.6.1	win	2022-12-14	21:23:46	21:28:32	284182	6172cf92f2ea6613f717abb6	331133331	1	main_slash	7	main_slash	55	stimuli_distractor_trianglediamonds.svg	stimuli_target_trianglesquares.svg	26	yes	53	1	615
6.6.1	win	2022-12-14	21:23:46	21:28:32	284182	6172cf92f2ea6613f717abb6	331133331	1	main_slash	7	advance_on_keypress_SLASH	56	stimuli_distractor_trianglediamonds.svg	stimuli_target_trianglesquares.svg	26	yes	57	0	408
6.6.1	win	2022-12-14	21:23:46	21:28:33	285893	6172cf92f2ea6613f717abb6	331133331	1	main_slash	7	main_slash	57	stimuli_target_diamondsquares.svg	stimuli_distractor_diamondtriangles.svg	24	yes	53	1	643
6.6.1	win	2022-12-14	21:23:46	21:28:33	285893	6172cf92f2ea6613f717abb6	331133331	1	main_slash	7	advance_on_keypress_SLASH	58	stimuli_target_diamondsquares.svg	stimuli_distractor_diamondtriangles.svg	24	yes	57	0	337
6.6.1	win	2022-12-14	21:23:46	21:28:35	287680	6172cf92f2ea6613f717abb6	331133331	1	main_slash	7	main_slash	59	stimuli_target_diamondcircles.svg	stimuli_distractor_trianglediamonds.svg	19	yes	53	1	799
6.6.1	win	2022-12-14	21:23:46	21:28:35	287680	6172cf92f2ea6613f717abb6	331133331	1	main_slash	7	advance_on_keypress_SLASH	60	stimuli_target_diamondcircles.svg	stimuli_distractor_trianglediamonds.svg	19	yes	57	0	382
6.6.1	win	2022-12-14	21:23:46	21:28:37	289431	6172cf92f2ea6613f717abb6	331133331	1	main_slash	7	main_slash	61	stimuli_distractor_diamondtriangles.svg	stimuli_target_squaretriangles.svg	15	yes	53	1	719
6.6.1	win	2022-12-14	21:23:46	21:28:37	289431	6172cf92f2ea6613f717abb6	331133331	1	main_slash	7	advance_on_keypress_SLASH	62	stimuli_distractor_diamondtriangles.svg	stimuli_target_squaretriangles.svg	15	yes	57	0	255
6.6.1	win	2022-12-14	21:23:46	21:28:38	290879	6172cf92f2ea6613f717abb6	331133331	1	main_slash	7	main_slash	63	stimuli_target_circlediamonds.svg	stimuli_distractor_trianglediamonds.svg	2	yes	53	1	551
6.6.1	win	2022-12-14	21:23:46	21:28:38	290879	6172cf92f2ea6613f717abb6	331133331	1	main_slash	7	advance_on_keypress_SLASH	64	stimuli_target_circlediamonds.svg	stimuli_distractor_trianglediamonds.svg	2	yes	57	0	304
6.6.1	win	2022-12-14	21:23:46	21:28:40	292556	6172cf92f2ea6613f717abb6	331133331	1	main_slash	7	main_slash	65	stimuli_distractor_trianglediamonds.svg	stimuli_target_diamondsquares.svg	28	yes	53	1	729
6.6.1	win	2022-12-14	21:23:46	21:28:40	292556	6172cf92f2ea6613f717abb6	331133331	1	main_slash	7	advance_on_keypress_SLASH	66	stimuli_distractor_trianglediamonds.svg	stimuli_target_diamondsquares.svg	28	yes	57	0	250
6.6.1	win	2022-12-14	21:23:46	21:28:43	295458	6172cf92f2ea6613f717abb6	331133331	1	main_slash	7	main_slash	67	stimuli_target_squaretriangles.svg	stimuli_distractor_diamondtriangles.svg	7	yes	0	0	2000
6.6.1	win	2022-12-14	21:23:46	21:28:43	295458	6172cf92f2ea6613f717abb6	331133331	1	main_slash	7	advance_on_keypress_SLASH	68	stimuli_target_squaretriangles.svg	stimuli_distractor_diamondtriangles.svg	7	yes	57	0	303
6.6.1	win	2022-12-14	21:23:46	21:28:46	298406	6172cf92f2ea6613f717abb6	331133331	1	main_slash	7	main_slash	69	stimuli_distractor_diamondtriangles.svg	stimuli_distractor_trianglediamonds.svg	38	no	0	1	2000
6.6.1	win	2022-12-14	21:23:46	21:28:46	298406	6172cf92f2ea6613f717abb6	331133331	1	main_slash	7	advance_on_keypress_SLASH	70	stimuli_distractor_diamondtriangles.svg	stimuli_distractor_trianglediamonds.svg	38	no	57	0	372
6.6.1	win	2022-12-14	21:23:46	21:28:47	300113	6172cf92f2ea6613f717abb6	331133331	1	main_slash	7	main_slash	71	stimuli_distractor_diamondtriangles.svg	stimuli_target_diamondcircles.svg	31	yes	53	1	693
6.6.1	win	2022-12-14	21:23:46	21:28:47	300113	6172cf92f2ea6613f717abb6	331133331	1	main_slash	7	advance_on_keypress_SLASH	72	stimuli_distractor_diamondtriangles.svg	stimuli_target_diamondcircles.svg	31	yes	57	0	311
6.6.1	win	2022-12-14	21:23:46	21:28:49	301788	6172cf92f2ea6613f717abb6	331133331	1	main_slash	7	main_slash	73	stimuli_distractor_trianglediamonds.svg	stimuli_target_squarediamonds.svg	12	yes	53	1	720
6.6.1	win	2022-12-14	21:23:46	21:28:49	301788	6172cf92f2ea6613f717abb6	331133331	1	main_slash	7	advance_on_keypress_SLASH	74	stimuli_distractor_trianglediamonds.svg	stimuli_target_squarediamonds.svg	12	yes	57	0	250
6.6.1	win	2022-12-14	21:23:46	21:28:51	303302	6172cf92f2ea6613f717abb6	331133331	1	main_slash	7	main_slash	75	stimuli_target_circlediamonds.svg	stimuli_distractor_diamondtriangles.svg	6	yes	53	1	619
6.6.1	win	2022-12-14	21:23:46	21:28:51	303302	6172cf92f2ea6613f717abb6	331133331	1	main_slash	7	advance_on_keypress_SLASH	76	stimuli_target_circlediamonds.svg	stimuli_distractor_diamondtriangles.svg	6	yes	57	0	314
6.6.1	win	2022-12-14	21:23:46	21:28:52	305047	6172cf92f2ea6613f717abb6	331133331	1	main_slash	7	main_slash	77	stimuli_distractor_diamondtriangles.svg	stimuli_target_trianglesquares.svg	30	yes	53	1	781
6.6.1	win	2022-12-14	21:23:46	21:28:52	305047	6172cf92f2ea6613f717abb6	331133331	1	main_slash	7	advance_on_keypress_SLASH	78	stimuli_distractor_diamondtriangles.svg	stimuli_target_trianglesquares.svg	30	yes	57	0	303
6.6.1	win	2022-12-14	21:23:46	21:28:55	307997	6172cf92f2ea6613f717abb6	331133331	1	main_slash	7	main_slash	79	stimuli_distractor_diamondtriangles.svg	stimuli_distractor_trianglediamonds.svg	37	no	0	1	2000
6.6.1	win	2022-12-14	21:23:46	21:28:55	307997	6172cf92f2ea6613f717abb6	331133331	1	main_slash	7	advance_on_keypress_SLASH	80	stimuli_distractor_diamondtriangles.svg	stimuli_distractor_trianglediamonds.svg	37	no	57	0	294
6.6.1	win	2022-12-14	21:23:46	21:28:57	309542	6172cf92f2ea6613f717abb6	331133331	1	main_slash	7	main_slash	81	stimuli_distractor_trianglediamonds.svg	stimuli_target_diamondcircles.svg	27	yes	53	1	596
6.6.1	win	2022-12-14	21:23:46	21:28:57	309542	6172cf92f2ea6613f717abb6	331133331	1	main_slash	7	advance_on_keypress_SLASH	82	stimuli_distractor_trianglediamonds.svg	stimuli_target_diamondcircles.svg	27	yes	57	0	299
6.6.1	win	2022-12-14	21:23:46	21:29:00	312494	6172cf92f2ea6613f717abb6	331133331	1	main_slash	7	main_slash	83	stimuli_distractor_diamondtriangles.svg	stimuli_distractor_diamondtriangles.svg	40	no	0	1	2000
6.6.1	win	2022-12-14	21:23:46	21:29:00	312494	6172cf92f2ea6613f717abb6	331133331	1	main_slash	7	advance_on_keypress_SLASH	84	stimuli_distractor_diamondtriangles.svg	stimuli_distractor_diamondtriangles.svg	40	no	57	0	399
6.6.1	win	2022-12-14	21:23:46	21:29:01	313991	6172cf92f2ea6613f717abb6	331133331	1	main_slash	7	main_slash	85	stimuli_distractor_diamondtriangles.svg	stimuli_target_diamondcircles.svg	31	yes	53	1	450
6.6.1	win	2022-12-14	21:23:46	21:29:01	313991	6172cf92f2ea6613f717abb6	331133331	1	main_slash	7	advance_on_keypress_SLASH	86	stimuli_distractor_diamondtriangles.svg	stimuli_target_diamondcircles.svg	31	yes	57	0	225
6.6.1	win	2022-12-14	21:23:46	21:29:03	315680	6172cf92f2ea6613f717abb6	331133331	1	main_slash	7	main_slash	87	stimuli_distractor_trianglediamonds.svg	stimuli_target_diamondsquares.svg	28	yes	53	1	824
6.6.1	win	2022-12-14	21:23:46	21:29:03	315680	6172cf92f2ea6613f717abb6	331133331	1	main_slash	7	advance_on_keypress_SLASH	88	stimuli_distractor_trianglediamonds.svg	stimuli_target_diamondsquares.svg	28	yes	57	0	177
6.6.1	win	2022-12-14	21:23:46	21:29:05	317161	6172cf92f2ea6613f717abb6	331133331	1	main_slash	7	main_slash	89	stimuli_target_trianglecircles.svg	stimuli_distractor_diamondtriangles.svg	21	yes	53	1	655
6.6.1	win	2022-12-14	21:23:46	21:29:05	317161	6172cf92f2ea6613f717abb6	331133331	1	main_slash	7	advance_on_keypress_SLASH	90	stimuli_target_trianglecircles.svg	stimuli_distractor_diamondtriangles.svg	21	yes	57	0	229
6.6.1	win	2022-12-14	21:23:46	21:29:06	318762	6172cf92f2ea6613f717abb6	331133331	1	main_slash	7	main_slash	91	stimuli_distractor_diamondtriangles.svg	stimuli_target_squarediamonds.svg	16	yes	53	1	725
6.6.1	win	2022-12-14	21:23:46	21:29:06	318762	6172cf92f2ea6613f717abb6	331133331	1	main_slash	7	advance_on_keypress_SLASH	92	stimuli_distractor_diamondtriangles.svg	stimuli_target_squarediamonds.svg	16	yes	57	0	245
6.6.1	win	2022-12-14	21:23:46	21:29:08	320312	6172cf92f2ea6613f717abb6	331133331	1	main_slash	7	main_slash	93	stimuli_target_diamondcircles.svg	stimuli_distractor_diamondtriangles.svg	23	yes	53	1	660
6.6.1	win	2022-12-14	21:23:46	21:29:08	320312	6172cf92f2ea6613f717abb6	331133331	1	main_slash	7	advance_on_keypress_SLASH	94	stimuli_target_diamondcircles.svg	stimuli_distractor_diamondtriangles.svg	23	yes	57	0	235
6.6.1	win	2022-12-14	21:23:46	21:29:09	321751	6172cf92f2ea6613f717abb6	331133331	1	main_slash	7	main_slash	95	stimuli_target_trianglesquares.svg	stimuli_distractor_trianglediamonds.svg	18	yes	53	1	550
6.6.1	win	2022-12-14	21:23:46	21:29:09	321751	6172cf92f2ea6613f717abb6	331133331	1	main_slash	7	advance_on_keypress_SLASH	96	stimuli_target_trianglesquares.svg	stimuli_distractor_trianglediamonds.svg	18	yes	57	0	250
6.6.1	win	2022-12-14	21:23:46	21:29:11	323323	6172cf92f2ea6613f717abb6	331133331	1	main_slash	7	main_slash	97	stimuli_target_diamondcircles.svg	stimuli_distractor_trianglediamonds.svg	19	yes	53	1	673
6.6.1	win	2022-12-14	21:23:46	21:29:11	323323	6172cf92f2ea6613f717abb6	331133331	1	main_slash	7	advance_on_keypress_SLASH	98	stimuli_target_diamondcircles.svg	stimuli_distractor_trianglediamonds.svg	19	yes	57	0	267
6.6.1	win	2022-12-14	21:23:46	21:29:12	324874	6172cf92f2ea6613f717abb6	331133331	1	main_slash	7	main_slash	99	stimuli_distractor_diamondtriangles.svg	stimuli_target_trianglesquares.svg	30	yes	53	1	641
6.6.1	win	2022-12-14	21:23:46	21:29:12	324874	6172cf92f2ea6613f717abb6	331133331	1	main_slash	7	advance_on_keypress_SLASH	100	stimuli_distractor_diamondtriangles.svg	stimuli_target_trianglesquares.svg	30	yes	57	0	250
6.6.1	win	2022-12-14	21:23:46	21:29:14	326450	6172cf92f2ea6613f717abb6	331133331	1	main_slash	7	main_slash	101	stimuli_target_squaretriangles.svg	stimuli_distractor_trianglediamonds.svg	3	yes	53	1	686
6.6.1	win	2022-12-14	21:23:46	21:29:14	326450	6172cf92f2ea6613f717abb6	331133331	1	main_slash	7	advance_on_keypress_SLASH	102	stimuli_target_squaretriangles.svg	stimuli_distractor_trianglediamonds.svg	3	yes	57	0	223
6.6.1	win	2022-12-14	21:23:46	21:29:17	329312	6172cf92f2ea6613f717abb6	331133331	1	main_slash	7	main_slash	103	stimuli_distractor_diamondtriangles.svg	stimuli_distractor_trianglediamonds.svg	37	no	0	1	2000
6.6.1	win	2022-12-14	21:23:46	21:29:17	329312	6172cf92f2ea6613f717abb6	331133331	1	main_slash	7	advance_on_keypress_SLASH	104	stimuli_distractor_diamondtriangles.svg	stimuli_distractor_trianglediamonds.svg	37	no	57	0	282
6.6.1	win	2022-12-14	21:23:46	21:29:18	330770	6172cf92f2ea6613f717abb6	331133331	1	main_slash	7	main_slash	105	stimuli_target_trianglecircles.svg	stimuli_distractor_trianglediamonds.svg	17	yes	53	1	527
6.6.1	win	2022-12-14	21:23:46	21:29:18	330770	6172cf92f2ea6613f717abb6	331133331	1	main_slash	7	advance_on_keypress_SLASH	106	stimuli_target_trianglecircles.svg	stimuli_distractor_trianglediamonds.svg	17	yes	57	0	220
6.6.1	win	2022-12-14	21:23:46	21:29:20	332387	6172cf92f2ea6613f717abb6	331133331	1	main_slash	7	main_slash	107	stimuli_target_diamondsquares.svg	stimuli_distractor_trianglediamonds.svg	20	yes	53	1	744
6.6.1	win	2022-12-14	21:23:46	21:29:20	332387	6172cf92f2ea6613f717abb6	331133331	1	main_slash	7	advance_on_keypress_SLASH	108	stimuli_target_diamondsquares.svg	stimuli_distractor_trianglediamonds.svg	20	yes	57	0	194
6.6.1	win	2022-12-14	21:23:46	21:29:21	333762	6172cf92f2ea6613f717abb6	331133331	1	main_slash	7	main_slash	109	stimuli_target_diamondsquares.svg	stimuli_distractor_diamondtriangles.svg	24	yes	53	1	538
6.6.1	win	2022-12-14	21:23:46	21:29:21	333762	6172cf92f2ea6613f717abb6	331133331	1	main_slash	7	advance_on_keypress_SLASH	110	stimuli_target_diamondsquares.svg	stimuli_distractor_diamondtriangles.svg	24	yes	57	0	176
6.6.1	win	2022-12-14	21:23:46	21:29:22	335124	6172cf92f2ea6613f717abb6	331133331	1	main_slash	7	main_slash	111	stimuli_distractor_trianglediamonds.svg	stimuli_target_trianglecircles.svg	25	yes	53	1	550
6.6.1	win	2022-12-14	21:23:46	21:29:22	335124	6172cf92f2ea6613f717abb6	331133331	1	main_slash	7	advance_on_keypress_SLASH	112	stimuli_distractor_trianglediamonds.svg	stimuli_target_trianglecircles.svg	25	yes	57	0	167
6.6.1	win	2022-12-14	21:23:46	21:29:24	336433	6172cf92f2ea6613f717abb6	331133331	1	main_slash	7	main_slash	113	stimuli_target_squarediamonds.svg	stimuli_distractor_trianglediamonds.svg	4	yes	53	1	495
6.6.1	win	2022-12-14	21:23:46	21:29:24	336433	6172cf92f2ea6613f717abb6	331133331	1	main_slash	7	advance_on_keypress_SLASH	114	stimuli_target_squarediamonds.svg	stimuli_distractor_trianglediamonds.svg	4	yes	57	0	188
6.6.1	win	2022-12-14	21:23:46	21:29:25	337735	6172cf92f2ea6613f717abb6	331133331	1	main_slash	7	main_slash	115	stimuli_target_circlediamonds.svg	stimuli_distractor_diamondtriangles.svg	6	yes	53	1	465
6.6.1	win	2022-12-14	21:23:46	21:29:25	337735	6172cf92f2ea6613f717abb6	331133331	1	main_slash	7	advance_on_keypress_SLASH	116	stimuli_target_circlediamonds.svg	stimuli_distractor_diamondtriangles.svg	6	yes	57	0	106
6.6.1	win	2022-12-14	21:23:46	21:29:28	340485	6172cf92f2ea6613f717abb6	331133331	1	main_slash	7	main_slash	117	stimuli_distractor_trianglediamonds.svg	stimuli_distractor_diamondtriangles.svg	35	no	0	1	2000
6.6.1	win	2022-12-14	21:23:46	21:29:28	340485	6172cf92f2ea6613f717abb6	331133331	1	main_slash	7	advance_on_keypress_SLASH	118	stimuli_distractor_trianglediamonds.svg	stimuli_distractor_diamondtriangles.svg	35	no	57	0	308
6.6.1	win	2022-12-14	21:23:46	21:29:29	342026	6172cf92f2ea6613f717abb6	331133331	1	main_slash	7	main_slash	119	stimuli_target_squarediamonds.svg	stimuli_distractor_diamondtriangles.svg	8	yes	53	1	593
6.6.1	win	2022-12-14	21:23:46	21:29:29	342026	6172cf92f2ea6613f717abb6	331133331	1	main_slash	7	advance_on_keypress_SLASH	120	stimuli_target_squarediamonds.svg	stimuli_distractor_diamondtriangles.svg	8	yes	57	0	192
6.6.1	win	2022-12-14	21:23:46	21:29:32	344217	6172cf92f2ea6613f717abb6	331133331	1	main_slash	7	main_slash	121	stimuli_distractor_trianglediamonds.svg	stimuli_target_circlediamonds.svg	10	yes	53	1	1368
6.6.1	win	2022-12-14	21:23:46	21:29:32	344217	6172cf92f2ea6613f717abb6	331133331	1	main_slash	7	advance_on_keypress_SLASH	122	stimuli_distractor_trianglediamonds.svg	stimuli_target_circlediamonds.svg	10	yes	57	0	335
6.6.1	win	2022-12-14	21:23:46	21:29:35	347197	6172cf92f2ea6613f717abb6	331133331	1	main_slash	7	main_slash	123	stimuli_distractor_trianglediamonds.svg	stimuli_distractor_diamondtriangles.svg	36	no	0	1	2000
6.6.1	win	2022-12-14	21:23:46	21:29:35	347197	6172cf92f2ea6613f717abb6	331133331	1	main_slash	7	advance_on_keypress_SLASH	124	stimuli_distractor_trianglediamonds.svg	stimuli_distractor_diamondtriangles.svg	36	no	57	0	265
6.6.1	win	2022-12-14	21:23:46	21:29:36	348593	6172cf92f2ea6613f717abb6	331133331	1	main_slash	7	main_slash	125	stimuli_target_circletriangles.svg	stimuli_distractor_trianglediamonds.svg	1	yes	53	1	482
6.6.1	win	2022-12-14	21:23:46	21:29:36	348593	6172cf92f2ea6613f717abb6	331133331	1	main_slash	7	advance_on_keypress_SLASH	126	stimuli_target_circletriangles.svg	stimuli_distractor_trianglediamonds.svg	1	yes	57	0	270
6.6.1	win	2022-12-14	21:23:46	21:29:38	350363	6172cf92f2ea6613f717abb6	331133331	1	main_slash	7	main_slash	127	stimuli_distractor_diamondtriangles.svg	stimuli_target_circletriangles.svg	13	yes	53	1	853
6.6.1	win	2022-12-14	21:23:46	21:29:38	350363	6172cf92f2ea6613f717abb6	331133331	1	main_slash	7	advance_on_keypress_SLASH	128	stimuli_distractor_diamondtriangles.svg	stimuli_target_circletriangles.svg	13	yes	57	0	255
6.6.1	win	2022-12-14	21:23:46	21:29:39	351896	6172cf92f2ea6613f717abb6	331133331	1	main_slash	7	main_slash	129	stimuli_target_circletriangles.svg	stimuli_distractor_diamondtriangles.svg	5	yes	53	1	637
6.6.1	win	2022-12-14	21:23:46	21:29:39	351896	6172cf92f2ea6613f717abb6	331133331	1	main_slash	7	advance_on_keypress_SLASH	130	stimuli_target_circletriangles.svg	stimuli_distractor_diamondtriangles.svg	5	yes	57	0	222
6.6.1	win	2022-12-14	21:23:46	21:29:41	353393	6172cf92f2ea6613f717abb6	331133331	1	main_slash	7	main_slash	131	stimuli_distractor_trianglediamonds.svg	stimuli_target_trianglesquares.svg	26	yes	53	1	636
6.6.1	win	2022-12-14	21:23:46	21:29:41	353393	6172cf92f2ea6613f717abb6	331133331	1	main_slash	7	advance_on_keypress_SLASH	132	stimuli_distractor_trianglediamonds.svg	stimuli_target_trianglesquares.svg	26	yes	57	0	297
6.6.1	win	2022-12-14	21:23:46	21:29:42	354865	6172cf92f2ea6613f717abb6	331133331	1	main_slash	7	main_slash	133	stimuli_distractor_diamondtriangles.svg	stimuli_target_trianglecircles.svg	29	yes	53	1	526
6.6.1	win	2022-12-14	21:23:46	21:29:42	354865	6172cf92f2ea6613f717abb6	331133331	1	main_slash	7	advance_on_keypress_SLASH	134	stimuli_distractor_diamondtriangles.svg	stimuli_target_trianglecircles.svg	29	yes	57	0	256
6.6.1	win	2022-12-14	21:23:46	21:29:44	356289	6172cf92f2ea6613f717abb6	331133331	1	main_slash	7	main_slash	135	stimuli_distractor_diamondtriangles.svg	stimuli_target_circlediamonds.svg	14	yes	53	1	535
6.6.1	win	2022-12-14	21:23:46	21:29:44	356289	6172cf92f2ea6613f717abb6	331133331	1	main_slash	7	advance_on_keypress_SLASH	136	stimuli_distractor_diamondtriangles.svg	stimuli_target_circlediamonds.svg	14	yes	57	0	234
6.6.1	win	2022-12-14	21:23:46	21:29:45	357652	6172cf92f2ea6613f717abb6	331133331	1	main_slash	7	main_slash	137	stimuli_distractor_trianglediamonds.svg	stimuli_target_squaretriangles.svg	11	yes	53	1	483
6.6.1	win	2022-12-14	21:23:46	21:29:45	357652	6172cf92f2ea6613f717abb6	331133331	1	main_slash	7	advance_on_keypress_SLASH	138	stimuli_distractor_trianglediamonds.svg	stimuli_target_squaretriangles.svg	11	yes	57	0	188
6.6.1	win	2022-12-14	21:23:46	21:29:46	358940	6172cf92f2ea6613f717abb6	331133331	1	main_slash	7	main_slash	139	stimuli_target_squaretriangles.svg	stimuli_distractor_diamondtriangles.svg	7	yes	53	1	455
6.6.1	win	2022-12-14	21:23:46	21:29:46	358940	6172cf92f2ea6613f717abb6	331133331	1	main_slash	7	advance_on_keypress_SLASH	140	stimuli_target_squaretriangles.svg	stimuli_distractor_diamondtriangles.svg	7	yes	57	0	174
6.6.1	win	2022-12-14	21:23:46	21:29:49	361751	6172cf92f2ea6613f717abb6	331133331	1	main_slash	7	main_slash	141	stimuli_distractor_diamondtriangles.svg	stimuli_distractor_trianglediamonds.svg	38	no	0	1	2000
6.6.1	win	2022-12-14	21:23:46	21:29:49	361751	6172cf92f2ea6613f717abb6	331133331	1	main_slash	7	advance_on_keypress_SLASH	142	stimuli_distractor_diamondtriangles.svg	stimuli_distractor_trianglediamonds.svg	38	no	57	0	274
6.6.1	win	2022-12-14	21:23:46	21:29:52	364665	6172cf92f2ea6613f717abb6	331133331	1	main_slash	7	main_slash	143	stimuli_distractor_trianglediamonds.svg	stimuli_distractor_trianglediamonds.svg	33	no	0	1	2000
6.6.1	win	2022-12-14	21:23:46	21:29:52	364665	6172cf92f2ea6613f717abb6	331133331	1	main_slash	7	advance_on_keypress_SLASH	144	stimuli_distractor_trianglediamonds.svg	stimuli_distractor_trianglediamonds.svg	33	no	57	0	274
6.6.1	win	2022-12-14	21:23:46	21:29:53	366013	6172cf92f2ea6613f717abb6	331133331	1	main_slash	7	main_slash	145	stimuli_distractor_diamondtriangles.svg	stimuli_target_squaretriangles.svg	15	yes	53	1	433
6.6.1	win	2022-12-14	21:23:46	21:29:53	366013	6172cf92f2ea6613f717abb6	331133331	1	main_slash	7	advance_on_keypress_SLASH	146	stimuli_distractor_diamondtriangles.svg	stimuli_target_squaretriangles.svg	15	yes	57	0	261
6.6.1	win	2022-12-14	21:23:46	21:29:55	367440	6172cf92f2ea6613f717abb6	331133331	1	main_slash	7	main_slash	147	stimuli_distractor_diamondtriangles.svg	stimuli_target_diamondsquares.svg	32	yes	53	1	528
6.6.1	win	2022-12-14	21:23:46	21:29:55	367440	6172cf92f2ea6613f717abb6	331133331	1	main_slash	7	advance_on_keypress_SLASH	148	stimuli_distractor_diamondtriangles.svg	stimuli_target_diamondsquares.svg	32	yes	57	0	203
6.6.1	win	2022-12-14	21:23:46	21:29:56	368761	6172cf92f2ea6613f717abb6	331133331	1	main_slash	7	main_slash	149	stimuli_distractor_trianglediamonds.svg	stimuli_target_squarediamonds.svg	12	yes	53	1	467
6.6.1	win	2022-12-14	21:23:46	21:29:56	368761	6172cf92f2ea6613f717abb6	331133331	1	main_slash	7	advance_on_keypress_SLASH	150	stimuli_distractor_trianglediamonds.svg	stimuli_target_squarediamonds.svg	12	yes	57	0	220
6.6.1	win	2022-12-14	21:23:46	21:29:58	370429	6172cf92f2ea6613f717abb6	331133331	1	main_slash	7	main_slash	151	stimuli_target_trianglesquares.svg	stimuli_distractor_diamondtriangles.svg	22	yes	53	1	804
6.6.1	win	2022-12-14	21:23:46	21:29:58	370429	6172cf92f2ea6613f717abb6	331133331	1	main_slash	7	advance_on_keypress_SLASH	152	stimuli_target_trianglesquares.svg	stimuli_distractor_diamondtriangles.svg	22	yes	57	0	226
6.6.1	win	2022-12-14	21:23:46	21:30:01	373307	6172cf92f2ea6613f717abb6	331133331	1	main_slash	7	main_slash	153	stimuli_distractor_diamondtriangles.svg	stimuli_distractor_diamondtriangles.svg	39	no	0	1	2000
6.6.1	win	2022-12-14	21:23:46	21:30:01	373307	6172cf92f2ea6613f717abb6	331133331	1	main_slash	7	advance_on_keypress_SLASH	154	stimuli_distractor_diamondtriangles.svg	stimuli_distractor_diamondtriangles.svg	39	no	57	0	252
6.6.1	win	2022-12-14	21:23:46	21:30:04	376205	6172cf92f2ea6613f717abb6	331133331	1	main_slash	7	main_slash	155	stimuli_distractor_trianglediamonds.svg	stimuli_distractor_trianglediamonds.svg	34	no	0	1	2000
6.6.1	win	2022-12-14	21:23:46	21:30:04	376205	6172cf92f2ea6613f717abb6	331133331	1	main_slash	7	advance_on_keypress_SLASH	156	stimuli_distractor_trianglediamonds.svg	stimuli_distractor_trianglediamonds.svg	34	no	57	0	795
6.6.1	win	2022-12-14	21:23:46	21:30:06	378317	6172cf92f2ea6613f717abb6	331133331	1	main_slash	7	main_slash	157	stimuli_target_circlediamonds.svg	stimuli_distractor_trianglediamonds.svg	2	yes	53	1	665
6.6.1	win	2022-12-14	21:23:46	21:30:06	378317	6172cf92f2ea6613f717abb6	331133331	1	main_slash	7	advance_on_keypress_SLASH	158	stimuli_target_circlediamonds.svg	stimuli_distractor_trianglediamonds.svg	2	yes	57	0	317
6.6.1	win	2022-12-14	21:23:46	21:30:07	379695	6172cf92f2ea6613f717abb6	331133331	1	main_slash	7	main_slash	159	stimuli_distractor_trianglediamonds.svg	stimuli_target_circletriangles.svg	9	yes	53	1	411
6.6.1	win	2022-12-14	21:23:46	21:30:07	379695	6172cf92f2ea6613f717abb6	331133331	1	main_slash	7	advance_on_keypress_SLASH	160	stimuli_distractor_trianglediamonds.svg	stimuli_target_circletriangles.svg	9	yes	57	0	260
6.6.1	win	2022-12-14	21:23:46	21:30:37	409372	6172cf92f2ea6613f717abb6	331133331	1	practice_z	9	practice_z	1	stimuli_distractor_diamondtriangles.svg	stimuli_target_diamondcircles.svg	8	yes	44	1	695
6.6.1	win	2022-12-14	21:23:46	21:30:37	409372	6172cf92f2ea6613f717abb6	331133331	1	practice_z	9	advance_on_keypress_ZEE	2	stimuli_distractor_diamondtriangles.svg	stimuli_target_diamondcircles.svg	8	yes	57	0	676
6.6.1	win	2022-12-14	21:23:46	21:30:40	412181	6172cf92f2ea6613f717abb6	331133331	1	practice_z	9	practice_z	3	stimuli_distractor_diamondtriangles.svg	stimuli_target_circletriangles.svg	7	yes	44	1	471
6.6.1	win	2022-12-14	21:23:46	21:30:40	412181	6172cf92f2ea6613f717abb6	331133331	1	practice_z	9	advance_on_keypress_ZEE	4	stimuli_distractor_diamondtriangles.svg	stimuli_target_circletriangles.svg	7	yes	57	0	293
6.6.1	win	2022-12-14	21:23:46	21:30:42	414613	6172cf92f2ea6613f717abb6	331133331	1	practice_z	9	practice_z	5	stimuli_distractor_diamondtriangles.svg	stimuli_distractor_trianglediamonds.svg	14	no	44	0	489
6.6.1	win	2022-12-14	21:23:46	21:30:42	414613	6172cf92f2ea6613f717abb6	331133331	1	practice_z	9	advance_on_keypress_ZEE	6	stimuli_distractor_diamondtriangles.svg	stimuli_distractor_trianglediamonds.svg	14	no	57	0	246
6.6.1	win	2022-12-14	21:23:46	21:30:44	416976	6172cf92f2ea6613f717abb6	331133331	1	practice_z	9	practice_z	7	stimuli_distractor_trianglediamonds.svg	stimuli_target_circlediamonds.svg	10	yes	44	1	454
6.6.1	win	2022-12-14	21:23:46	21:30:44	416976	6172cf92f2ea6613f717abb6	331133331	1	practice_z	9	advance_on_keypress_ZEE	8	stimuli_distractor_trianglediamonds.svg	stimuli_target_circlediamonds.svg	10	yes	57	0	361
6.6.1	win	2022-12-14	21:23:46	21:30:47	419397	6172cf92f2ea6613f717abb6	331133331	1	practice_z	9	practice_z	9	stimuli_target_circlediamonds.svg	stimuli_distractor_diamondtriangles.svg	1	yes	44	1	412
6.6.1	win	2022-12-14	21:23:46	21:30:47	419397	6172cf92f2ea6613f717abb6	331133331	1	practice_z	9	advance_on_keypress_ZEE	10	stimuli_target_circlediamonds.svg	stimuli_distractor_diamondtriangles.svg	1	yes	57	0	259
6.6.1	win	2022-12-14	21:23:46	21:30:49	421714	6172cf92f2ea6613f717abb6	331133331	1	practice_z	9	practice_z	11	stimuli_target_squarediamonds.svg	stimuli_distractor_diamondtriangles.svg	2	yes	44	1	397
6.6.1	win	2022-12-14	21:23:46	21:30:49	421714	6172cf92f2ea6613f717abb6	331133331	1	practice_z	9	advance_on_keypress_ZEE	12	stimuli_target_squarediamonds.svg	stimuli_distractor_diamondtriangles.svg	2	yes	57	0	314
6.6.1	win	2022-12-14	21:23:46	21:30:51	424087	6172cf92f2ea6613f717abb6	331133331	1	practice_z	9	practice_z	13	stimuli_distractor_trianglediamonds.svg	stimuli_target_diamondcircles.svg	12	yes	44	1	404
6.6.1	win	2022-12-14	21:23:46	21:30:51	424087	6172cf92f2ea6613f717abb6	331133331	1	practice_z	9	advance_on_keypress_ZEE	14	stimuli_distractor_trianglediamonds.svg	stimuli_target_diamondcircles.svg	12	yes	57	0	239
6.6.1	win	2022-12-14	21:23:46	21:30:54	426545	6172cf92f2ea6613f717abb6	331133331	1	practice_z	9	practice_z	15	stimuli_target_diamondsquares.svg	stimuli_distractor_trianglediamonds.svg	6	yes	44	1	565
6.6.1	win	2022-12-14	21:23:46	21:30:54	426545	6172cf92f2ea6613f717abb6	331133331	1	practice_z	9	advance_on_keypress_ZEE	16	stimuli_target_diamondsquares.svg	stimuli_distractor_trianglediamonds.svg	6	yes	57	0	362
6.6.1	win	2022-12-14	21:23:46	21:30:56	429050	6172cf92f2ea6613f717abb6	331133331	1	practice_z	9	practice_z	17	stimuli_distractor_diamondtriangles.svg	stimuli_target_trianglecircles.svg	9	yes	44	1	489
6.6.1	win	2022-12-14	21:23:46	21:30:56	429050	6172cf92f2ea6613f717abb6	331133331	1	practice_z	9	advance_on_keypress_ZEE	18	stimuli_distractor_diamondtriangles.svg	stimuli_target_trianglecircles.svg	9	yes	57	0	248
6.6.1	win	2022-12-14	21:23:46	21:31:00	432942	6172cf92f2ea6613f717abb6	331133331	1	practice_z	9	practice_z	19	stimuli_distractor_trianglediamonds.svg	stimuli_distractor_diamondtriangles.svg	16	no	0	1	2000
6.6.1	win	2022-12-14	21:23:46	21:31:00	432942	6172cf92f2ea6613f717abb6	331133331	1	practice_z	9	advance_on_keypress_ZEE	20	stimuli_distractor_trianglediamonds.svg	stimuli_distractor_diamondtriangles.svg	16	no	57	0	341
6.6.1	win	2022-12-14	21:23:46	21:31:03	435908	6172cf92f2ea6613f717abb6	331133331	1	practice_z	9	practice_z	21	stimuli_target_circlediamonds.svg	stimuli_distractor_trianglediamonds.svg	4	yes	44	1	969
6.6.1	win	2022-12-14	21:23:46	21:31:03	435908	6172cf92f2ea6613f717abb6	331133331	1	practice_z	9	advance_on_keypress_ZEE	22	stimuli_target_circlediamonds.svg	stimuli_distractor_trianglediamonds.svg	4	yes	57	0	255
6.6.1	win	2022-12-14	21:23:46	21:31:06	438296	6172cf92f2ea6613f717abb6	331133331	1	practice_z	9	practice_z	23	stimuli_target_squarediamonds.svg	stimuli_distractor_trianglediamonds.svg	5	yes	44	1	494
6.6.1	win	2022-12-14	21:23:46	21:31:06	438296	6172cf92f2ea6613f717abb6	331133331	1	practice_z	9	advance_on_keypress_ZEE	24	stimuli_target_squarediamonds.svg	stimuli_distractor_trianglediamonds.svg	5	yes	57	0	258
6.6.1	win	2022-12-14	21:23:46	21:31:10	442219	6172cf92f2ea6613f717abb6	331133331	1	practice_z	9	practice_z	25	stimuli_distractor_diamondtriangles.svg	stimuli_distractor_diamondtriangles.svg	13	no	0	1	2000
6.6.1	win	2022-12-14	21:23:46	21:31:10	442219	6172cf92f2ea6613f717abb6	331133331	1	practice_z	9	advance_on_keypress_ZEE	26	stimuli_distractor_diamondtriangles.svg	stimuli_distractor_diamondtriangles.svg	13	no	57	0	329
6.6.1	win	2022-12-14	21:23:46	21:31:12	444707	6172cf92f2ea6613f717abb6	331133331	1	practice_z	9	practice_z	27	stimuli_distractor_trianglediamonds.svg	stimuli_distractor_trianglediamonds.svg	15	no	44	0	506
6.6.1	win	2022-12-14	21:23:46	21:31:12	444707	6172cf92f2ea6613f717abb6	331133331	1	practice_z	9	advance_on_keypress_ZEE	28	stimuli_distractor_trianglediamonds.svg	stimuli_distractor_trianglediamonds.svg	15	no	57	0	327
6.6.1	win	2022-12-14	21:23:46	21:31:15	447225	6172cf92f2ea6613f717abb6	331133331	1	practice_z	9	practice_z	29	stimuli_distractor_trianglediamonds.svg	stimuli_target_squarediamonds.svg	11	yes	44	1	529
6.6.1	win	2022-12-14	21:23:46	21:31:15	447225	6172cf92f2ea6613f717abb6	331133331	1	practice_z	9	advance_on_keypress_ZEE	30	stimuli_distractor_trianglediamonds.svg	stimuli_target_squarediamonds.svg	11	yes	57	0	311
6.6.1	win	2022-12-14	21:23:46	21:31:17	449673	6172cf92f2ea6613f717abb6	331133331	1	practice_z	9	practice_z	31	stimuli_target_diamondsquares.svg	stimuli_distractor_diamondtriangles.svg	3	yes	44	1	481
6.6.1	win	2022-12-14	21:23:46	21:31:17	449673	6172cf92f2ea6613f717abb6	331133331	1	practice_z	9	advance_on_keypress_ZEE	32	stimuli_target_diamondsquares.svg	stimuli_distractor_diamondtriangles.svg	3	yes	57	0	305
6.6.1	win	2022-12-14	21:23:46	21:31:20	452732	6172cf92f2ea6613f717abb6	331133331	1	main_z	11	main_z	1	stimuli_target_circlediamonds.svg	stimuli_distractor_diamondtriangles.svg	6	yes	44	1	578
6.6.1	win	2022-12-14	21:23:46	21:31:20	452732	6172cf92f2ea6613f717abb6	331133331	1	main_z	11	advance_on_keypress_ZEE	2	stimuli_target_circlediamonds.svg	stimuli_distractor_diamondtriangles.svg	6	yes	57	0	456
6.6.1	win	2022-12-14	21:23:46	21:31:22	454516	6172cf92f2ea6613f717abb6	331133331	1	main_z	11	main_z	3	stimuli_target_trianglesquares.svg	stimuli_distractor_diamondtriangles.svg	22	yes	44	1	681
6.6.1	win	2022-12-14	21:23:46	21:31:22	454516	6172cf92f2ea6613f717abb6	331133331	1	main_z	11	advance_on_keypress_ZEE	4	stimuli_target_trianglesquares.svg	stimuli_distractor_diamondtriangles.svg	22	yes	57	0	295
6.6.1	win	2022-12-14	21:23:46	21:31:23	455913	6172cf92f2ea6613f717abb6	331133331	1	main_z	11	main_z	5	stimuli_distractor_diamondtriangles.svg	stimuli_target_diamondsquares.svg	32	yes	44	1	446
6.6.1	win	2022-12-14	21:23:46	21:31:23	455913	6172cf92f2ea6613f717abb6	331133331	1	main_z	11	advance_on_keypress_ZEE	6	stimuli_distractor_diamondtriangles.svg	stimuli_target_diamondsquares.svg	32	yes	57	0	424
6.6.1	win	2022-12-14	21:23:46	21:31:26	458999	6172cf92f2ea6613f717abb6	331133331	1	main_z	11	main_z	7	stimuli_distractor_trianglediamonds.svg	stimuli_distractor_diamondtriangles.svg	35	no	0	1	2000
6.6.1	win	2022-12-14	21:23:46	21:31:26	458999	6172cf92f2ea6613f717abb6	331133331	1	main_z	11	advance_on_keypress_ZEE	8	stimuli_distractor_trianglediamonds.svg	stimuli_distractor_diamondtriangles.svg	35	no	57	0	262
6.6.1	win	2022-12-14	21:23:46	21:31:28	460374	6172cf92f2ea6613f717abb6	331133331	1	main_z	11	main_z	9	stimuli_distractor_trianglediamonds.svg	stimuli_target_diamondcircles.svg	27	yes	44	1	461
6.6.1	win	2022-12-14	21:23:46	21:31:28	460374	6172cf92f2ea6613f717abb6	331133331	1	main_z	11	advance_on_keypress_ZEE	10	stimuli_distractor_trianglediamonds.svg	stimuli_target_diamondcircles.svg	27	yes	57	0	315
6.6.1	win	2022-12-14	21:23:46	21:31:31	463345	6172cf92f2ea6613f717abb6	331133331	1	main_z	11	main_z	11	stimuli_distractor_diamondtriangles.svg	stimuli_distractor_trianglediamonds.svg	38	no	0	1	2000
6.6.1	win	2022-12-14	21:23:46	21:31:31	463345	6172cf92f2ea6613f717abb6	331133331	1	main_z	11	advance_on_keypress_ZEE	12	stimuli_distractor_diamondtriangles.svg	stimuli_distractor_trianglediamonds.svg	38	no	57	0	292
6.6.1	win	2022-12-14	21:23:46	21:31:32	464737	6172cf92f2ea6613f717abb6	331133331	1	main_z	11	main_z	13	stimuli_distractor_diamondtriangles.svg	stimuli_target_squarediamonds.svg	16	yes	44	1	461
6.6.1	win	2022-12-14	21:23:46	21:31:32	464737	6172cf92f2ea6613f717abb6	331133331	1	main_z	11	advance_on_keypress_ZEE	14	stimuli_distractor_diamondtriangles.svg	stimuli_target_squarediamonds.svg	16	yes	57	0	304
6.6.1	win	2022-12-14	21:23:46	21:31:34	466212	6172cf92f2ea6613f717abb6	331133331	1	main_z	11	main_z	15	stimuli_distractor_diamondtriangles.svg	stimuli_target_circletriangles.svg	13	yes	44	1	521
6.6.1	win	2022-12-14	21:23:46	21:31:34	466212	6172cf92f2ea6613f717abb6	331133331	1	main_z	11	advance_on_keypress_ZEE	16	stimuli_distractor_diamondtriangles.svg	stimuli_target_circletriangles.svg	13	yes	57	0	275
6.6.1	win	2022-12-14	21:23:46	21:31:36	469124	6172cf92f2ea6613f717abb6	331133331	1	main_z	11	main_z	17	stimuli_distractor_trianglediamonds.svg	stimuli_distractor_diamondtriangles.svg	36	no	0	1	2000
6.6.1	win	2022-12-14	21:23:46	21:31:36	469124	6172cf92f2ea6613f717abb6	331133331	1	main_z	11	advance_on_keypress_ZEE	18	stimuli_distractor_trianglediamonds.svg	stimuli_distractor_diamondtriangles.svg	36	no	57	0	175
6.6.1	win	2022-12-14	21:23:46	21:31:38	470320	6172cf92f2ea6613f717abb6	331133331	1	main_z	11	main_z	19	stimuli_target_circletriangles.svg	stimuli_distractor_diamondtriangles.svg	5	yes	44	1	365
6.6.1	win	2022-12-14	21:23:46	21:31:38	470320	6172cf92f2ea6613f717abb6	331133331	1	main_z	11	advance_on_keypress_ZEE	20	stimuli_target_circletriangles.svg	stimuli_distractor_diamondtriangles.svg	5	yes	57	0	295
6.6.1	win	2022-12-14	21:23:46	21:31:39	471645	6172cf92f2ea6613f717abb6	331133331	1	main_z	11	main_z	21	stimuli_distractor_diamondtriangles.svg	stimuli_target_trianglesquares.svg	30	yes	44	1	372
6.6.1	win	2022-12-14	21:23:46	21:31:39	471645	6172cf92f2ea6613f717abb6	331133331	1	main_z	11	advance_on_keypress_ZEE	22	stimuli_distractor_diamondtriangles.svg	stimuli_target_trianglesquares.svg	30	yes	57	0	279
6.6.1	win	2022-12-14	21:23:46	21:31:40	473054	6172cf92f2ea6613f717abb6	331133331	1	main_z	11	main_z	23	stimuli_target_diamondsquares.svg	stimuli_distractor_diamondtriangles.svg	24	yes	44	1	485
6.6.1	win	2022-12-14	21:23:46	21:31:40	473054	6172cf92f2ea6613f717abb6	331133331	1	main_z	11	advance_on_keypress_ZEE	24	stimuli_target_diamondsquares.svg	stimuli_distractor_diamondtriangles.svg	24	yes	57	0	213
6.6.1	win	2022-12-14	21:23:46	21:31:42	474281	6172cf92f2ea6613f717abb6	331133331	1	main_z	11	main_z	25	stimuli_distractor_trianglediamonds.svg	stimuli_target_circlediamonds.svg	10	yes	44	1	363
6.6.1	win	2022-12-14	21:23:46	21:31:42	474281	6172cf92f2ea6613f717abb6	331133331	1	main_z	11	advance_on_keypress_ZEE	26	stimuli_distractor_trianglediamonds.svg	stimuli_target_circlediamonds.svg	10	yes	57	0	233
6.6.1	win	2022-12-14	21:23:46	21:31:43	475567	6172cf92f2ea6613f717abb6	331133331	1	main_z	11	main_z	27	stimuli_distractor_trianglediamonds.svg	stimuli_target_diamondsquares.svg	28	yes	44	1	400
6.6.1	win	2022-12-14	21:23:46	21:31:43	475567	6172cf92f2ea6613f717abb6	331133331	1	main_z	11	advance_on_keypress_ZEE	28	stimuli_distractor_trianglediamonds.svg	stimuli_target_diamondsquares.svg	28	yes	57	0	232
6.6.1	win	2022-12-14	21:23:46	21:31:46	478449	6172cf92f2ea6613f717abb6	331133331	1	main_z	11	main_z	29	stimuli_distractor_diamondtriangles.svg	stimuli_distractor_diamondtriangles.svg	40	no	0	1	2000
6.6.1	win	2022-12-14	21:23:46	21:31:46	478449	6172cf92f2ea6613f717abb6	331133331	1	main_z	11	advance_on_keypress_ZEE	30	stimuli_distractor_diamondtriangles.svg	stimuli_distractor_diamondtriangles.svg	40	no	57	0	237
6.6.1	win	2022-12-14	21:23:46	21:31:47	479807	6172cf92f2ea6613f717abb6	331133331	1	main_z	11	main_z	31	stimuli_distractor_trianglediamonds.svg	stimuli_target_trianglesquares.svg	26	yes	44	1	476
6.6.1	win	2022-12-14	21:23:46	21:31:47	479807	6172cf92f2ea6613f717abb6	331133331	1	main_z	11	advance_on_keypress_ZEE	32	stimuli_distractor_trianglediamonds.svg	stimuli_target_trianglesquares.svg	26	yes	57	0	229
6.6.1	win	2022-12-14	21:23:46	21:31:50	482695	6172cf92f2ea6613f717abb6	331133331	1	main_z	11	main_z	33	stimuli_distractor_diamondtriangles.svg	stimuli_distractor_diamondtriangles.svg	39	no	0	1	2000
6.6.1	win	2022-12-14	21:23:46	21:31:50	482695	6172cf92f2ea6613f717abb6	331133331	1	main_z	11	advance_on_keypress_ZEE	34	stimuli_distractor_diamondtriangles.svg	stimuli_distractor_diamondtriangles.svg	39	no	57	0	416
6.6.1	win	2022-12-14	21:23:46	21:31:51	484144	6172cf92f2ea6613f717abb6	331133331	1	main_z	11	main_z	35	stimuli_target_diamondcircles.svg	stimuli_distractor_trianglediamonds.svg	19	yes	44	1	384
6.6.1	win	2022-12-14	21:23:46	21:31:51	484144	6172cf92f2ea6613f717abb6	331133331	1	main_z	11	advance_on_keypress_ZEE	36	stimuli_target_diamondcircles.svg	stimuli_distractor_trianglediamonds.svg	19	yes	57	0	193
6.6.1	win	2022-12-14	21:23:46	21:31:53	485361	6172cf92f2ea6613f717abb6	331133331	1	main_z	11	main_z	37	stimuli_distractor_trianglediamonds.svg	stimuli_target_trianglecircles.svg	25	yes	44	1	386
6.6.1	win	2022-12-14	21:23:46	21:31:53	485361	6172cf92f2ea6613f717abb6	331133331	1	main_z	11	advance_on_keypress_ZEE	38	stimuli_distractor_trianglediamonds.svg	stimuli_target_trianglecircles.svg	25	yes	57	0	205
6.6.1	win	2022-12-14	21:23:46	21:31:54	486594	6172cf92f2ea6613f717abb6	331133331	1	main_z	11	main_z	39	stimuli_target_trianglesquares.svg	stimuli_distractor_trianglediamonds.svg	18	yes	44	1	387
6.6.1	win	2022-12-14	21:23:46	21:31:54	486594	6172cf92f2ea6613f717abb6	331133331	1	main_z	11	advance_on_keypress_ZEE	40	stimuli_target_trianglesquares.svg	stimuli_distractor_trianglediamonds.svg	18	yes	57	0	168
6.6.1	win	2022-12-14	21:23:46	21:31:55	487747	6172cf92f2ea6613f717abb6	331133331	1	main_z	11	main_z	41	stimuli_distractor_diamondtriangles.svg	stimuli_target_diamondcircles.svg	31	yes	44	1	341
6.6.1	win	2022-12-14	21:23:46	21:31:55	487747	6172cf92f2ea6613f717abb6	331133331	1	main_z	11	advance_on_keypress_ZEE	42	stimuli_distractor_diamondtriangles.svg	stimuli_target_diamondcircles.svg	31	yes	57	0	190
6.6.1	win	2022-12-14	21:23:46	21:31:56	488933	6172cf92f2ea6613f717abb6	331133331	1	main_z	11	main_z	43	stimuli_target_trianglecircles.svg	stimuli_distractor_trianglediamonds.svg	17	yes	44	1	362
6.6.1	win	2022-12-14	21:23:46	21:31:56	488933	6172cf92f2ea6613f717abb6	331133331	1	main_z	11	advance_on_keypress_ZEE	44	stimuli_target_trianglecircles.svg	stimuli_distractor_trianglediamonds.svg	17	yes	57	0	195
6.6.1	win	2022-12-14	21:23:46	21:31:58	490224	6172cf92f2ea6613f717abb6	331133331	1	main_z	11	main_z	45	stimuli_distractor_diamondtriangles.svg	stimuli_target_squaretriangles.svg	15	yes	44	1	438
6.6.1	win	2022-12-14	21:23:46	21:31:58	490224	6172cf92f2ea6613f717abb6	331133331	1	main_z	11	advance_on_keypress_ZEE	46	stimuli_distractor_diamondtriangles.svg	stimuli_target_squaretriangles.svg	15	yes	57	0	201
6.6.1	win	2022-12-14	21:23:46	21:31:59	491433	6172cf92f2ea6613f717abb6	331133331	1	main_z	11	main_z	47	stimuli_target_trianglecircles.svg	stimuli_distractor_diamondtriangles.svg	21	yes	44	1	362
6.6.1	win	2022-12-14	21:23:46	21:31:59	491433	6172cf92f2ea6613f717abb6	331133331	1	main_z	11	advance_on_keypress_ZEE	48	stimuli_target_trianglecircles.svg	stimuli_distractor_diamondtriangles.svg	21	yes	57	0	211
6.6.1	win	2022-12-14	21:23:46	21:32:02	494302	6172cf92f2ea6613f717abb6	331133331	1	main_z	11	main_z	49	stimuli_distractor_trianglediamonds.svg	stimuli_distractor_trianglediamonds.svg	34	no	0	1	2000
6.6.1	win	2022-12-14	21:23:46	21:32:02	494302	6172cf92f2ea6613f717abb6	331133331	1	main_z	11	advance_on_keypress_ZEE	50	stimuli_distractor_trianglediamonds.svg	stimuli_distractor_trianglediamonds.svg	34	no	57	0	311
6.6.1	win	2022-12-14	21:23:46	21:32:05	497267	6172cf92f2ea6613f717abb6	331133331	1	main_z	11	main_z	51	stimuli_distractor_trianglediamonds.svg	stimuli_distractor_trianglediamonds.svg	33	no	0	1	2000
6.6.1	win	2022-12-14	21:23:46	21:32:05	497267	6172cf92f2ea6613f717abb6	331133331	1	main_z	11	advance_on_keypress_ZEE	52	stimuli_distractor_trianglediamonds.svg	stimuli_distractor_trianglediamonds.svg	33	no	57	0	297
6.6.1	win	2022-12-14	21:23:46	21:32:06	498597	6172cf92f2ea6613f717abb6	331133331	1	main_z	11	main_z	53	stimuli_target_squarediamonds.svg	stimuli_distractor_diamondtriangles.svg	8	yes	44	1	384
6.6.1	win	2022-12-14	21:23:46	21:32:06	498597	6172cf92f2ea6613f717abb6	331133331	1	main_z	11	advance_on_keypress_ZEE	54	stimuli_target_squarediamonds.svg	stimuli_distractor_diamondtriangles.svg	8	yes	57	0	193
6.6.1	win	2022-12-14	21:23:46	21:32:07	499960	6172cf92f2ea6613f717abb6	331133331	1	main_z	11	main_z	55	stimuli_distractor_trianglediamonds.svg	stimuli_target_circletriangles.svg	9	yes	44	1	531
6.6.1	win	2022-12-14	21:23:46	21:32:07	499960	6172cf92f2ea6613f717abb6	331133331	1	main_z	11	advance_on_keypress_ZEE	56	stimuli_distractor_trianglediamonds.svg	stimuli_target_circletriangles.svg	9	yes	57	0	124
6.6.1	win	2022-12-14	21:23:46	21:32:10	502728	6172cf92f2ea6613f717abb6	331133331	1	main_z	11	main_z	57	stimuli_distractor_diamondtriangles.svg	stimuli_distractor_trianglediamonds.svg	37	no	0	1	2000
6.6.1	win	2022-12-14	21:23:46	21:32:10	502728	6172cf92f2ea6613f717abb6	331133331	1	main_z	11	advance_on_keypress_ZEE	58	stimuli_distractor_diamondtriangles.svg	stimuli_distractor_trianglediamonds.svg	37	no	57	0	277
6.6.1	win	2022-12-14	21:23:46	21:32:11	503996	6172cf92f2ea6613f717abb6	331133331	1	main_z	11	main_z	59	stimuli_target_squaretriangles.svg	stimuli_distractor_diamondtriangles.svg	7	yes	44	1	336
6.6.1	win	2022-12-14	21:23:46	21:32:11	503996	6172cf92f2ea6613f717abb6	331133331	1	main_z	11	advance_on_keypress_ZEE	60	stimuli_target_squaretriangles.svg	stimuli_distractor_diamondtriangles.svg	7	yes	57	0	206
6.6.1	win	2022-12-14	21:23:46	21:32:13	505304	6172cf92f2ea6613f717abb6	331133331	1	main_z	11	main_z	61	stimuli_distractor_trianglediamonds.svg	stimuli_target_squarediamonds.svg	12	yes	44	1	463
6.6.1	win	2022-12-14	21:23:46	21:32:13	505304	6172cf92f2ea6613f717abb6	331133331	1	main_z	11	advance_on_keypress_ZEE	62	stimuli_distractor_trianglediamonds.svg	stimuli_target_squarediamonds.svg	12	yes	57	0	179
6.6.1	win	2022-12-14	21:23:46	21:32:14	506539	6172cf92f2ea6613f717abb6	331133331	1	main_z	11	main_z	63	stimuli_distractor_diamondtriangles.svg	stimuli_target_trianglecircles.svg	29	yes	44	1	399
6.6.1	win	2022-12-14	21:23:46	21:32:14	506539	6172cf92f2ea6613f717abb6	331133331	1	main_z	11	advance_on_keypress_ZEE	64	stimuli_distractor_diamondtriangles.svg	stimuli_target_trianglecircles.svg	29	yes	57	0	176
6.6.1	win	2022-12-14	21:23:46	21:32:15	507733	6172cf92f2ea6613f717abb6	331133331	1	main_z	11	main_z	65	stimuli_target_circlediamonds.svg	stimuli_distractor_trianglediamonds.svg	2	yes	44	1	375
6.6.1	win	2022-12-14	21:23:46	21:32:15	507733	6172cf92f2ea6613f717abb6	331133331	1	main_z	11	advance_on_keypress_ZEE	66	stimuli_target_circlediamonds.svg	stimuli_distractor_trianglediamonds.svg	2	yes	57	0	188
6.6.1	win	2022-12-14	21:23:46	21:32:16	508970	6172cf92f2ea6613f717abb6	331133331	1	main_z	11	main_z	67	stimuli_target_circletriangles.svg	stimuli_distractor_trianglediamonds.svg	1	yes	44	1	399
6.6.1	win	2022-12-14	21:23:46	21:32:16	508970	6172cf92f2ea6613f717abb6	331133331	1	main_z	11	advance_on_keypress_ZEE	68	stimuli_target_circletriangles.svg	stimuli_distractor_trianglediamonds.svg	1	yes	57	0	172
6.6.1	win	2022-12-14	21:23:46	21:32:17	510115	6172cf92f2ea6613f717abb6	331133331	1	main_z	11	main_z	69	stimuli_distractor_trianglediamonds.svg	stimuli_target_squaretriangles.svg	11	yes	44	1	329
6.6.1	win	2022-12-14	21:23:46	21:32:17	510115	6172cf92f2ea6613f717abb6	331133331	1	main_z	11	advance_on_keypress_ZEE	70	stimuli_distractor_trianglediamonds.svg	stimuli_target_squaretriangles.svg	11	yes	57	0	197
6.6.1	win	2022-12-14	21:23:46	21:32:19	511567	6172cf92f2ea6613f717abb6	331133331	1	main_z	11	main_z	71	stimuli_target_diamondsquares.svg	stimuli_distractor_trianglediamonds.svg	20	yes	44	1	598
6.6.1	win	2022-12-14	21:23:46	21:32:19	511567	6172cf92f2ea6613f717abb6	331133331	1	main_z	11	advance_on_keypress_ZEE	72	stimuli_target_diamondsquares.svg	stimuli_distractor_trianglediamonds.svg	20	yes	57	0	216
6.6.1	win	2022-12-14	21:23:46	21:32:20	512823	6172cf92f2ea6613f717abb6	331133331	1	main_z	11	main_z	73	stimuli_target_squaretriangles.svg	stimuli_distractor_trianglediamonds.svg	3	yes	44	1	388
6.6.1	win	2022-12-14	21:23:46	21:32:20	512823	6172cf92f2ea6613f717abb6	331133331	1	main_z	11	advance_on_keypress_ZEE	74	stimuli_target_squaretriangles.svg	stimuli_distractor_trianglediamonds.svg	3	yes	57	0	220
6.6.1	win	2022-12-14	21:23:46	21:32:21	514098	6172cf92f2ea6613f717abb6	331133331	1	main_z	11	main_z	75	stimuli_distractor_diamondtriangles.svg	stimuli_target_circlediamonds.svg	14	yes	44	1	414
6.6.1	win	2022-12-14	21:23:46	21:32:21	514098	6172cf92f2ea6613f717abb6	331133331	1	main_z	11	advance_on_keypress_ZEE	76	stimuli_distractor_diamondtriangles.svg	stimuli_target_circlediamonds.svg	14	yes	57	0	234
6.6.1	win	2022-12-14	21:23:46	21:32:23	515363	6172cf92f2ea6613f717abb6	331133331	1	main_z	11	main_z	77	stimuli_target_diamondcircles.svg	stimuli_distractor_diamondtriangles.svg	23	yes	44	1	382
6.6.1	win	2022-12-14	21:23:46	21:32:23	515363	6172cf92f2ea6613f717abb6	331133331	1	main_z	11	advance_on_keypress_ZEE	78	stimuli_target_diamondcircles.svg	stimuli_distractor_diamondtriangles.svg	23	yes	57	0	232
6.6.1	win	2022-12-14	21:23:46	21:32:24	516571	6172cf92f2ea6613f717abb6	331133331	1	main_z	11	main_z	79	stimuli_target_squarediamonds.svg	stimuli_distractor_trianglediamonds.svg	4	yes	44	1	323
6.6.1	win	2022-12-14	21:23:46	21:32:24	516571	6172cf92f2ea6613f717abb6	331133331	1	main_z	11	advance_on_keypress_ZEE	80	stimuli_target_squarediamonds.svg	stimuli_distractor_trianglediamonds.svg	4	yes	57	0	239
6.6.1	win	2022-12-14	21:23:46	21:32:25	517826	6172cf92f2ea6613f717abb6	331133331	1	main_z	11	main_z	81	stimuli_target_squarediamonds.svg	stimuli_distractor_trianglediamonds.svg	4	yes	44	1	379
6.6.1	win	2022-12-14	21:23:46	21:32:25	517826	6172cf92f2ea6613f717abb6	331133331	1	main_z	11	advance_on_keypress_ZEE	82	stimuli_target_squarediamonds.svg	stimuli_distractor_trianglediamonds.svg	4	yes	57	0	187
6.6.1	win	2022-12-14	21:23:46	21:32:26	518987	6172cf92f2ea6613f717abb6	331133331	1	main_z	11	main_z	83	stimuli_target_trianglecircles.svg	stimuli_distractor_trianglediamonds.svg	17	yes	44	1	325
6.6.1	win	2022-12-14	21:23:46	21:32:26	518987	6172cf92f2ea6613f717abb6	331133331	1	main_z	11	advance_on_keypress_ZEE	84	stimuli_target_trianglecircles.svg	stimuli_distractor_trianglediamonds.svg	17	yes	57	0	244
6.6.1	win	2022-12-14	21:23:46	21:32:28	520232	6172cf92f2ea6613f717abb6	331133331	1	main_z	11	main_z	85	stimuli_distractor_trianglediamonds.svg	stimuli_target_circlediamonds.svg	10	yes	44	1	354
6.6.1	win	2022-12-14	21:23:46	21:32:28	520232	6172cf92f2ea6613f717abb6	331133331	1	main_z	11	advance_on_keypress_ZEE	86	stimuli_distractor_trianglediamonds.svg	stimuli_target_circlediamonds.svg	10	yes	57	0	220
6.6.1	win	2022-12-14	21:23:46	21:32:29	521409	6172cf92f2ea6613f717abb6	331133331	1	main_z	11	main_z	87	stimuli_target_trianglesquares.svg	stimuli_distractor_diamondtriangles.svg	22	yes	44	1	316
6.6.1	win	2022-12-14	21:23:46	21:32:29	521409	6172cf92f2ea6613f717abb6	331133331	1	main_z	11	advance_on_keypress_ZEE	88	stimuli_target_trianglesquares.svg	stimuli_distractor_diamondtriangles.svg	22	yes	57	0	526
6.6.1	win	2022-12-14	21:23:46	21:32:32	524593	6172cf92f2ea6613f717abb6	331133331	1	main_z	11	main_z	89	stimuli_distractor_trianglediamonds.svg	stimuli_distractor_diamondtriangles.svg	36	no	0	1	2000
6.6.1	win	2022-12-14	21:23:46	21:32:32	524593	6172cf92f2ea6613f717abb6	331133331	1	main_z	11	advance_on_keypress_ZEE	90	stimuli_distractor_trianglediamonds.svg	stimuli_distractor_diamondtriangles.svg	36	no	57	0	616
6.6.1	win	2022-12-14	21:23:46	21:32:35	527856	6172cf92f2ea6613f717abb6	331133331	1	main_z	11	main_z	91	stimuli_distractor_diamondtriangles.svg	stimuli_distractor_diamondtriangles.svg	40	no	0	1	2000
6.6.1	win	2022-12-14	21:23:46	21:32:35	527856	6172cf92f2ea6613f717abb6	331133331	1	main_z	11	advance_on_keypress_ZEE	92	stimuli_distractor_diamondtriangles.svg	stimuli_distractor_diamondtriangles.svg	40	no	57	0	405
6.6.1	win	2022-12-14	21:23:46	21:32:37	529247	6172cf92f2ea6613f717abb6	331133331	1	main_z	11	main_z	93	stimuli_distractor_trianglediamonds.svg	stimuli_target_trianglesquares.svg	26	yes	44	1	343
6.6.1	win	2022-12-14	21:23:46	21:32:37	529247	6172cf92f2ea6613f717abb6	331133331	1	main_z	11	advance_on_keypress_ZEE	94	stimuli_distractor_trianglediamonds.svg	stimuli_target_trianglesquares.svg	26	yes	57	0	214
6.6.1	win	2022-12-14	21:23:46	21:32:38	530568	6172cf92f2ea6613f717abb6	331133331	1	main_z	11	main_z	95	stimuli_distractor_diamondtriangles.svg	stimuli_distractor_trianglediamonds.svg	37	no	44	0	449
6.6.1	win	2022-12-14	21:23:46	21:32:38	530568	6172cf92f2ea6613f717abb6	331133331	1	main_z	11	advance_on_keypress_ZEE	96	stimuli_distractor_diamondtriangles.svg	stimuli_distractor_trianglediamonds.svg	37	no	57	0	348
6.6.1	win	2022-12-14	21:23:46	21:32:41	533568	6172cf92f2ea6613f717abb6	331133331	1	main_z	11	main_z	97	stimuli_distractor_diamondtriangles.svg	stimuli_distractor_trianglediamonds.svg	38	no	0	1	2000
6.6.1	win	2022-12-14	21:23:46	21:32:41	533568	6172cf92f2ea6613f717abb6	331133331	1	main_z	11	advance_on_keypress_ZEE	98	stimuli_distractor_diamondtriangles.svg	stimuli_distractor_trianglediamonds.svg	38	no	57	0	368
6.6.1	win	2022-12-14	21:23:46	21:32:42	534945	6172cf92f2ea6613f717abb6	331133331	1	main_z	11	main_z	99	stimuli_distractor_trianglediamonds.svg	stimuli_target_diamondcircles.svg	27	yes	44	1	363
6.6.1	win	2022-12-14	21:23:46	21:32:42	534945	6172cf92f2ea6613f717abb6	331133331	1	main_z	11	advance_on_keypress_ZEE	100	stimuli_distractor_trianglediamonds.svg	stimuli_target_diamondcircles.svg	27	yes	57	0	186
6.6.1	win	2022-12-14	21:23:46	21:32:43	536110	6172cf92f2ea6613f717abb6	331133331	1	main_z	11	main_z	101	stimuli_target_squarediamonds.svg	stimuli_distractor_diamondtriangles.svg	8	yes	44	1	329
6.6.1	win	2022-12-14	21:23:46	21:32:43	536110	6172cf92f2ea6613f717abb6	331133331	1	main_z	11	advance_on_keypress_ZEE	102	stimuli_target_squarediamonds.svg	stimuli_distractor_diamondtriangles.svg	8	yes	57	0	136
6.6.1	win	2022-12-14	21:23:46	21:32:45	537344	6172cf92f2ea6613f717abb6	331133331	1	main_z	11	main_z	103	stimuli_target_circletriangles.svg	stimuli_distractor_diamondtriangles.svg	5	yes	44	1	448
6.6.1	win	2022-12-14	21:23:46	21:32:45	537344	6172cf92f2ea6613f717abb6	331133331	1	main_z	11	advance_on_keypress_ZEE	104	stimuli_target_circletriangles.svg	stimuli_distractor_diamondtriangles.svg	5	yes	57	0	110
6.6.1	win	2022-12-14	21:23:46	21:32:47	540095	6172cf92f2ea6613f717abb6	331133331	1	main_z	11	main_z	105	stimuli_distractor_trianglediamonds.svg	stimuli_distractor_diamondtriangles.svg	35	no	0	1	2000
6.6.1	win	2022-12-14	21:23:46	21:32:47	540095	6172cf92f2ea6613f717abb6	331133331	1	main_z	11	advance_on_keypress_ZEE	106	stimuli_distractor_trianglediamonds.svg	stimuli_distractor_diamondtriangles.svg	35	no	57	0	369
6.6.1	win	2022-12-14	21:23:46	21:32:49	541468	6172cf92f2ea6613f717abb6	331133331	1	main_z	11	main_z	107	stimuli_distractor_trianglediamonds.svg	stimuli_target_circletriangles.svg	9	yes	44	1	359
6.6.1	win	2022-12-14	21:23:46	21:32:49	541468	6172cf92f2ea6613f717abb6	331133331	1	main_z	11	advance_on_keypress_ZEE	108	stimuli_distractor_trianglediamonds.svg	stimuli_target_circletriangles.svg	9	yes	57	0	188
6.6.1	win	2022-12-14	21:23:46	21:32:52	544292	6172cf92f2ea6613f717abb6	331133331	1	main_z	11	main_z	109	stimuli_distractor_trianglediamonds.svg	stimuli_distractor_trianglediamonds.svg	34	no	0	1	2000
6.6.1	win	2022-12-14	21:23:46	21:32:52	544292	6172cf92f2ea6613f717abb6	331133331	1	main_z	11	advance_on_keypress_ZEE	110	stimuli_distractor_trianglediamonds.svg	stimuli_distractor_trianglediamonds.svg	34	no	57	0	278
6.6.1	win	2022-12-14	21:23:46	21:32:53	545650	6172cf92f2ea6613f717abb6	331133331	1	main_z	11	main_z	111	stimuli_target_diamondsquares.svg	stimuli_distractor_trianglediamonds.svg	20	yes	44	1	428
6.6.1	win	2022-12-14	21:23:46	21:32:53	545650	6172cf92f2ea6613f717abb6	331133331	1	main_z	11	advance_on_keypress_ZEE	112	stimuli_target_diamondsquares.svg	stimuli_distractor_trianglediamonds.svg	20	yes	57	0	202
6.6.1	win	2022-12-14	21:23:46	21:32:54	546826	6172cf92f2ea6613f717abb6	331133331	1	main_z	11	main_z	113	stimuli_target_diamondsquares.svg	stimuli_distractor_diamondtriangles.svg	24	yes	44	1	322
6.6.1	win	2022-12-14	21:23:46	21:32:54	546826	6172cf92f2ea6613f717abb6	331133331	1	main_z	11	advance_on_keypress_ZEE	114	stimuli_target_diamondsquares.svg	stimuli_distractor_diamondtriangles.svg	24	yes	57	0	173
6.6.1	win	2022-12-14	21:23:46	21:32:55	548095	6172cf92f2ea6613f717abb6	331133331	1	main_z	11	main_z	115	stimuli_distractor_diamondtriangles.svg	stimuli_target_circlediamonds.svg	14	yes	44	1	458
6.6.1	win	2022-12-14	21:23:46	21:32:55	548095	6172cf92f2ea6613f717abb6	331133331	1	main_z	11	advance_on_keypress_ZEE	116	stimuli_distractor_diamondtriangles.svg	stimuli_target_circlediamonds.svg	14	yes	57	0	175
6.6.1	win	2022-12-14	21:23:46	21:32:57	549305	6172cf92f2ea6613f717abb6	331133331	1	main_z	11	main_z	117	stimuli_distractor_diamondtriangles.svg	stimuli_target_diamondsquares.svg	32	yes	44	1	386
6.6.1	win	2022-12-14	21:23:46	21:32:57	549305	6172cf92f2ea6613f717abb6	331133331	1	main_z	11	advance_on_keypress_ZEE	118	stimuli_distractor_diamondtriangles.svg	stimuli_target_diamondsquares.svg	32	yes	57	0	179
6.6.1	win	2022-12-14	21:23:46	21:32:58	550454	6172cf92f2ea6613f717abb6	331133331	1	main_z	11	main_z	119	stimuli_distractor_diamondtriangles.svg	stimuli_target_diamondcircles.svg	31	yes	44	1	320
6.6.1	win	2022-12-14	21:23:46	21:32:58	550454	6172cf92f2ea6613f717abb6	331133331	1	main_z	11	advance_on_keypress_ZEE	120	stimuli_distractor_diamondtriangles.svg	stimuli_target_diamondcircles.svg	31	yes	57	0	196
6.6.1	win	2022-12-14	21:23:46	21:32:59	551775	6172cf92f2ea6613f717abb6	331133331	1	main_z	11	main_z	121	stimuli_target_circletriangles.svg	stimuli_distractor_trianglediamonds.svg	1	yes	44	1	475
6.6.1	win	2022-12-14	21:23:46	21:32:59	551775	6172cf92f2ea6613f717abb6	331133331	1	main_z	11	advance_on_keypress_ZEE	122	stimuli_target_circletriangles.svg	stimuli_distractor_trianglediamonds.svg	1	yes	57	0	172
6.6.1	win	2022-12-14	21:23:46	21:33:00	552890	6172cf92f2ea6613f717abb6	331133331	1	main_z	11	main_z	123	stimuli_target_circlediamonds.svg	stimuli_distractor_diamondtriangles.svg	6	yes	44	1	307
6.6.1	win	2022-12-14	21:23:46	21:33:00	552890	6172cf92f2ea6613f717abb6	331133331	1	main_z	11	advance_on_keypress_ZEE	124	stimuli_target_circlediamonds.svg	stimuli_distractor_diamondtriangles.svg	6	yes	57	0	146
6.6.1	win	2022-12-14	21:23:46	21:33:03	555682	6172cf92f2ea6613f717abb6	331133331	1	main_z	11	main_z	125	stimuli_distractor_trianglediamonds.svg	stimuli_distractor_trianglediamonds.svg	33	no	0	1	2000
6.6.1	win	2022-12-14	21:23:46	21:33:03	555682	6172cf92f2ea6613f717abb6	331133331	1	main_z	11	advance_on_keypress_ZEE	126	stimuli_distractor_trianglediamonds.svg	stimuli_distractor_trianglediamonds.svg	33	no	57	0	267
6.6.1	win	2022-12-14	21:23:46	21:33:04	556975	6172cf92f2ea6613f717abb6	331133331	1	main_z	11	main_z	127	stimuli_distractor_trianglediamonds.svg	stimuli_target_diamondsquares.svg	28	yes	44	1	379
6.6.1	win	2022-12-14	21:23:46	21:33:04	556975	6172cf92f2ea6613f717abb6	331133331	1	main_z	11	advance_on_keypress_ZEE	128	stimuli_distractor_trianglediamonds.svg	stimuli_target_diamondsquares.svg	28	yes	57	0	149
6.6.1	win	2022-12-14	21:23:46	21:33:05	558122	6172cf92f2ea6613f717abb6	331133331	1	main_z	11	main_z	129	stimuli_distractor_trianglediamonds.svg	stimuli_target_trianglecircles.svg	25	yes	44	1	344
6.6.1	win	2022-12-14	21:23:46	21:33:05	558122	6172cf92f2ea6613f717abb6	331133331	1	main_z	11	advance_on_keypress_ZEE	130	stimuli_distractor_trianglediamonds.svg	stimuli_target_trianglecircles.svg	25	yes	57	0	151
6.6.1	win	2022-12-14	21:23:46	21:33:07	559247	6172cf92f2ea6613f717abb6	331133331	1	main_z	11	main_z	131	stimuli_target_diamondcircles.svg	stimuli_distractor_trianglediamonds.svg	19	yes	44	1	320
6.6.1	win	2022-12-14	21:23:46	21:33:07	559247	6172cf92f2ea6613f717abb6	331133331	1	main_z	11	advance_on_keypress_ZEE	132	stimuli_target_diamondcircles.svg	stimuli_distractor_trianglediamonds.svg	19	yes	57	0	171
6.6.1	win	2022-12-14	21:23:46	21:33:08	560623	6172cf92f2ea6613f717abb6	331133331	1	main_z	11	main_z	133	stimuli_distractor_diamondtriangles.svg	stimuli_target_trianglecircles.svg	29	yes	44	1	564
6.6.1	win	2022-12-14	21:23:46	21:33:08	560623	6172cf92f2ea6613f717abb6	331133331	1	main_z	11	advance_on_keypress_ZEE	134	stimuli_distractor_diamondtriangles.svg	stimuli_target_trianglecircles.svg	29	yes	57	0	120
6.6.1	win	2022-12-14	21:23:46	21:33:11	563392	6172cf92f2ea6613f717abb6	331133331	1	main_z	11	main_z	135	stimuli_distractor_diamondtriangles.svg	stimuli_distractor_diamondtriangles.svg	39	no	0	1	2000
6.6.1	win	2022-12-14	21:23:46	21:33:11	563392	6172cf92f2ea6613f717abb6	331133331	1	main_z	11	advance_on_keypress_ZEE	136	stimuli_distractor_diamondtriangles.svg	stimuli_distractor_diamondtriangles.svg	39	no	57	0	257
6.6.1	win	2022-12-14	21:23:46	21:33:12	564664	6172cf92f2ea6613f717abb6	331133331	1	main_z	11	main_z	137	stimuli_target_circlediamonds.svg	stimuli_distractor_trianglediamonds.svg	2	yes	44	1	372
6.6.1	win	2022-12-14	21:23:46	21:33:12	564664	6172cf92f2ea6613f717abb6	331133331	1	main_z	11	advance_on_keypress_ZEE	138	stimuli_target_circlediamonds.svg	stimuli_distractor_trianglediamonds.svg	2	yes	57	0	140
6.6.1	win	2022-12-14	21:23:46	21:33:13	565765	6172cf92f2ea6613f717abb6	331133331	1	main_z	11	main_z	139	stimuli_target_trianglesquares.svg	stimuli_distractor_trianglediamonds.svg	18	yes	44	1	327
6.6.1	win	2022-12-14	21:23:46	21:33:13	565765	6172cf92f2ea6613f717abb6	331133331	1	main_z	11	advance_on_keypress_ZEE	140	stimuli_target_trianglesquares.svg	stimuli_distractor_trianglediamonds.svg	18	yes	57	0	94
6.6.1	win	2022-12-14	21:23:46	21:33:14	566992	6172cf92f2ea6613f717abb6	331133331	1	main_z	11	main_z	141	stimuli_target_diamondcircles.svg	stimuli_distractor_diamondtriangles.svg	23	yes	44	1	472
6.6.1	win	2022-12-14	21:23:46	21:33:14	566992	6172cf92f2ea6613f717abb6	331133331	1	main_z	11	advance_on_keypress_ZEE	142	stimuli_target_diamondcircles.svg	stimuli_distractor_diamondtriangles.svg	23	yes	57	0	64
6.6.1	win	2022-12-14	21:23:46	21:33:15	568036	6172cf92f2ea6613f717abb6	331133331	1	main_z	11	main_z	143	stimuli_target_squaretriangles.svg	stimuli_distractor_trianglediamonds.svg	3	yes	44	1	332
6.6.1	win	2022-12-14	21:23:46	21:33:15	568036	6172cf92f2ea6613f717abb6	331133331	1	main_z	11	advance_on_keypress_ZEE	144	stimuli_target_squaretriangles.svg	stimuli_distractor_trianglediamonds.svg	3	yes	57	0	163
6.6.1	win	2022-12-14	21:23:46	21:33:17	569173	6172cf92f2ea6613f717abb6	331133331	1	main_z	11	main_z	145	stimuli_target_squaretriangles.svg	stimuli_distractor_diamondtriangles.svg	7	yes	44	1	321
6.6.1	win	2022-12-14	21:23:46	21:33:17	569173	6172cf92f2ea6613f717abb6	331133331	1	main_z	11	advance_on_keypress_ZEE	146	stimuli_target_squaretriangles.svg	stimuli_distractor_diamondtriangles.svg	7	yes	57	0	154
6.6.1	win	2022-12-14	21:23:46	21:33:18	570272	6172cf92f2ea6613f717abb6	331133331	1	main_z	11	main_z	147	stimuli_distractor_trianglediamonds.svg	stimuli_target_squarediamonds.svg	12	yes	44	1	305
6.6.1	win	2022-12-14	21:23:46	21:33:18	570272	6172cf92f2ea6613f717abb6	331133331	1	main_z	11	advance_on_keypress_ZEE	148	stimuli_distractor_trianglediamonds.svg	stimuli_target_squarediamonds.svg	12	yes	57	0	188
6.6.1	win	2022-12-14	21:23:46	21:33:19	571609	6172cf92f2ea6613f717abb6	331133331	1	main_z	11	main_z	149	stimuli_distractor_diamondtriangles.svg	stimuli_target_trianglesquares.svg	30	yes	44	1	506
6.6.1	win	2022-12-14	21:23:46	21:33:19	571609	6172cf92f2ea6613f717abb6	331133331	1	main_z	11	advance_on_keypress_ZEE	150	stimuli_distractor_diamondtriangles.svg	stimuli_target_trianglesquares.svg	30	yes	57	0	167
6.6.1	win	2022-12-14	21:23:46	21:33:20	572838	6172cf92f2ea6613f717abb6	331133331	1	main_z	11	main_z	151	stimuli_distractor_diamondtriangles.svg	stimuli_target_squarediamonds.svg	16	yes	44	1	423
6.6.1	win	2022-12-14	21:23:46	21:33:20	572838	6172cf92f2ea6613f717abb6	331133331	1	main_z	11	advance_on_keypress_ZEE	152	stimuli_distractor_diamondtriangles.svg	stimuli_target_squarediamonds.svg	16	yes	57	0	136
6.6.1	win	2022-12-14	21:23:46	21:33:21	574001	6172cf92f2ea6613f717abb6	331133331	1	main_z	11	main_z	153	stimuli_distractor_diamondtriangles.svg	stimuli_target_circletriangles.svg	13	yes	44	1	387
6.6.1	win	2022-12-14	21:23:46	21:33:21	574001	6172cf92f2ea6613f717abb6	331133331	1	main_z	11	advance_on_keypress_ZEE	154	stimuli_distractor_diamondtriangles.svg	stimuli_target_circletriangles.svg	13	yes	57	0	131
6.6.1	win	2022-12-14	21:23:46	21:33:22	575111	6172cf92f2ea6613f717abb6	331133331	1	main_z	11	main_z	155	stimuli_target_trianglecircles.svg	stimuli_distractor_diamondtriangles.svg	21	yes	44	1	331
6.6.1	win	2022-12-14	21:23:46	21:33:22	575111	6172cf92f2ea6613f717abb6	331133331	1	main_z	11	advance_on_keypress_ZEE	156	stimuli_target_trianglecircles.svg	stimuli_distractor_diamondtriangles.svg	21	yes	57	0	172
6.6.1	win	2022-12-14	21:23:46	21:33:24	576369	6172cf92f2ea6613f717abb6	331133331	1	main_z	11	main_z	157	stimuli_distractor_diamondtriangles.svg	stimuli_target_squaretriangles.svg	15	yes	44	1	440
6.6.1	win	2022-12-14	21:23:46	21:33:24	576369	6172cf92f2ea6613f717abb6	331133331	1	main_z	11	advance_on_keypress_ZEE	158	stimuli_distractor_diamondtriangles.svg	stimuli_target_squaretriangles.svg	15	yes	57	0	139
6.6.1	win	2022-12-14	21:23:46	21:33:25	577467	6172cf92f2ea6613f717abb6	331133331	1	main_z	11	main_z	159	stimuli_distractor_trianglediamonds.svg	stimuli_target_squaretriangles.svg	11	yes	44	1	323
6.6.1	win	2022-12-14	21:23:46	21:33:25	577467	6172cf92f2ea6613f717abb6	331133331	1	main_z	11	advance_on_keypress_ZEE	160	stimuli_distractor_trianglediamonds.svg	stimuli_target_squaretriangles.svg	11	yes	57	0	181