build	computer.platform	date	time	timestamp	time_elapsed_ms	subject	group	session	blockcode	blocknum	trialcode	trialnum	stimulus_left	stimulus_right	stim_index	target_present	response	correct	latency
6.6.1	win	2022-12-15	20:58:34	21:00:46	130755	5da23c68cf775d001724d361	552277658	1	practice_z	5	practice_z	1	stimuli_target_squarediamonds.svg	stimuli_distractor_diamondtriangles.svg	2	yes	44	1	504
6.6.1	win	2022-12-15	20:58:34	21:00:46	130755	5da23c68cf775d001724d361	552277658	1	practice_z	5	advance_on_keypress_ZEE	2	stimuli_target_squarediamonds.svg	stimuli_distractor_diamondtriangles.svg	2	yes	57	0	2036
6.6.1	win	2022-12-15	20:58:34	21:00:50	134895	5da23c68cf775d001724d361	552277658	1	practice_z	5	practice_z	3	stimuli_target_circlediamonds.svg	stimuli_distractor_trianglediamonds.svg	4	yes	44	1	445
6.6.1	win	2022-12-15	20:58:34	21:00:50	134895	5da23c68cf775d001724d361	552277658	1	practice_z	5	advance_on_keypress_ZEE	4	stimuli_target_circlediamonds.svg	stimuli_distractor_trianglediamonds.svg	4	yes	57	0	959
6.6.1	win	2022-12-15	20:58:34	21:00:55	139511	5da23c68cf775d001724d361	552277658	1	practice_z	5	practice_z	5	stimuli_distractor_trianglediamonds.svg	stimuli_distractor_trianglediamonds.svg	15	no	0	1	2000
6.6.1	win	2022-12-15	20:58:34	21:00:55	139511	5da23c68cf775d001724d361	552277658	1	practice_z	5	advance_on_keypress_ZEE	6	stimuli_distractor_trianglediamonds.svg	stimuli_distractor_trianglediamonds.svg	15	no	57	0	2192
6.6.1	win	2022-12-15	20:58:34	21:01:00	144584	5da23c68cf775d001724d361	552277658	1	practice_z	5	practice_z	7	stimuli_distractor_trianglediamonds.svg	stimuli_target_diamondcircles.svg	12	yes	44	1	1235
6.6.1	win	2022-12-15	20:58:34	21:01:00	144584	5da23c68cf775d001724d361	552277658	1	practice_z	5	advance_on_keypress_ZEE	8	stimuli_distractor_trianglediamonds.svg	stimuli_target_diamondcircles.svg	12	yes	57	0	1159
6.6.1	win	2022-12-15	20:58:34	21:01:05	149390	5da23c68cf775d001724d361	552277658	1	practice_z	5	practice_z	9	stimuli_distractor_diamondtriangles.svg	stimuli_distractor_diamondtriangles.svg	13	no	0	1	2000
6.6.1	win	2022-12-15	20:58:34	21:01:05	149390	5da23c68cf775d001724d361	552277658	1	practice_z	5	advance_on_keypress_ZEE	10	stimuli_distractor_diamondtriangles.svg	stimuli_distractor_diamondtriangles.svg	13	no	57	0	633
6.6.1	win	2022-12-15	20:58:34	21:01:08	152544	5da23c68cf775d001724d361	552277658	1	practice_z	5	practice_z	11	stimuli_target_diamondsquares.svg	stimuli_distractor_trianglediamonds.svg	6	yes	44	1	880
6.6.1	win	2022-12-15	20:58:34	21:01:08	152544	5da23c68cf775d001724d361	552277658	1	practice_z	5	advance_on_keypress_ZEE	12	stimuli_target_diamondsquares.svg	stimuli_distractor_trianglediamonds.svg	6	yes	57	0	825
6.6.1	win	2022-12-15	20:58:34	21:01:12	156455	5da23c68cf775d001724d361	552277658	1	practice_z	5	practice_z	13	stimuli_distractor_trianglediamonds.svg	stimuli_target_squarediamonds.svg	11	yes	44	1	1432
6.6.1	win	2022-12-15	20:58:34	21:01:12	156455	5da23c68cf775d001724d361	552277658	1	practice_z	5	advance_on_keypress_ZEE	14	stimuli_distractor_trianglediamonds.svg	stimuli_target_squarediamonds.svg	11	yes	57	0	661
6.6.1	win	2022-12-15	20:58:34	21:01:15	159479	5da23c68cf775d001724d361	552277658	1	practice_z	5	practice_z	15	stimuli_target_diamondsquares.svg	stimuli_distractor_diamondtriangles.svg	3	yes	44	1	714
6.6.1	win	2022-12-15	20:58:34	21:01:15	159479	5da23c68cf775d001724d361	552277658	1	practice_z	5	advance_on_keypress_ZEE	16	stimuli_target_diamondsquares.svg	stimuli_distractor_diamondtriangles.svg	3	yes	57	0	650
6.6.1	win	2022-12-15	20:58:34	21:01:18	162617	5da23c68cf775d001724d361	552277658	1	practice_z	5	practice_z	17	stimuli_distractor_diamondtriangles.svg	stimuli_target_diamondcircles.svg	8	yes	44	1	840
6.6.1	win	2022-12-15	20:58:34	21:01:18	162617	5da23c68cf775d001724d361	552277658	1	practice_z	5	advance_on_keypress_ZEE	18	stimuli_distractor_diamondtriangles.svg	stimuli_target_diamondcircles.svg	8	yes	57	0	787
6.6.1	win	2022-12-15	20:58:34	21:01:21	165952	5da23c68cf775d001724d361	552277658	1	practice_z	5	practice_z	19	stimuli_distractor_trianglediamonds.svg	stimuli_target_circlediamonds.svg	10	yes	44	1	900
6.6.1	win	2022-12-15	20:58:34	21:01:21	165952	5da23c68cf775d001724d361	552277658	1	practice_z	5	advance_on_keypress_ZEE	20	stimuli_distractor_trianglediamonds.svg	stimuli_target_circlediamonds.svg	10	yes	57	0	508
6.6.1	win	2022-12-15	20:58:34	21:01:25	170096	5da23c68cf775d001724d361	552277658	1	practice_z	5	practice_z	21	stimuli_distractor_trianglediamonds.svg	stimuli_distractor_diamondtriangles.svg	16	no	0	1	2000
6.6.1	win	2022-12-15	20:58:34	21:01:25	170096	5da23c68cf775d001724d361	552277658	1	practice_z	5	advance_on_keypress_ZEE	22	stimuli_distractor_trianglediamonds.svg	stimuli_distractor_diamondtriangles.svg	16	no	57	0	520
6.6.1	win	2022-12-15	20:58:34	21:01:28	172920	5da23c68cf775d001724d361	552277658	1	practice_z	5	practice_z	23	stimuli_distractor_diamondtriangles.svg	stimuli_target_trianglecircles.svg	9	yes	44	1	666
6.6.1	win	2022-12-15	20:58:34	21:01:28	172920	5da23c68cf775d001724d361	552277658	1	practice_z	5	advance_on_keypress_ZEE	24	stimuli_distractor_diamondtriangles.svg	stimuli_target_trianglecircles.svg	9	yes	57	0	524
6.6.1	win	2022-12-15	20:58:34	21:01:31	175999	5da23c68cf775d001724d361	552277658	1	practice_z	5	practice_z	25	stimuli_target_squarediamonds.svg	stimuli_distractor_trianglediamonds.svg	5	yes	44	1	919
6.6.1	win	2022-12-15	20:58:34	21:01:31	175999	5da23c68cf775d001724d361	552277658	1	practice_z	5	advance_on_keypress_ZEE	26	stimuli_target_squarediamonds.svg	stimuli_distractor_trianglediamonds.svg	5	yes	57	0	559
6.6.1	win	2022-12-15	20:58:34	21:01:34	178879	5da23c68cf775d001724d361	552277658	1	practice_z	5	practice_z	27	stimuli_target_circlediamonds.svg	stimuli_distractor_diamondtriangles.svg	1	yes	44	1	672
6.6.1	win	2022-12-15	20:58:34	21:01:34	178879	5da23c68cf775d001724d361	552277658	1	practice_z	5	advance_on_keypress_ZEE	28	stimuli_target_circlediamonds.svg	stimuli_distractor_diamondtriangles.svg	1	yes	57	0	570
6.6.1	win	2022-12-15	20:58:34	21:01:37	181575	5da23c68cf775d001724d361	552277658	1	practice_z	5	practice_z	29	stimuli_distractor_diamondtriangles.svg	stimuli_target_circletriangles.svg	7	yes	44	1	491
6.6.1	win	2022-12-15	20:58:34	21:01:37	181575	5da23c68cf775d001724d361	552277658	1	practice_z	5	advance_on_keypress_ZEE	30	stimuli_distractor_diamondtriangles.svg	stimuli_target_circletriangles.svg	7	yes	57	0	515
6.6.1	win	2022-12-15	20:58:34	21:01:41	185745	5da23c68cf775d001724d361	552277658	1	practice_z	5	practice_z	31	stimuli_distractor_diamondtriangles.svg	stimuli_distractor_trianglediamonds.svg	14	no	0	1	2000
6.6.1	win	2022-12-15	20:58:34	21:01:41	185745	5da23c68cf775d001724d361	552277658	1	practice_z	5	advance_on_keypress_ZEE	32	stimuli_distractor_diamondtriangles.svg	stimuli_distractor_trianglediamonds.svg	14	no	57	0	589
6.6.1	win	2022-12-15	20:58:34	21:02:10	214262	5da23c68cf775d001724d361	552277658	1	main_z	7	main_z	1	stimuli_target_circletriangles.svg	stimuli_distractor_trianglediamonds.svg	1	yes	44	1	484
6.6.1	win	2022-12-15	20:58:34	21:02:10	214262	5da23c68cf775d001724d361	552277658	1	main_z	7	advance_on_keypress_ZEE	2	stimuli_target_circletriangles.svg	stimuli_distractor_trianglediamonds.svg	1	yes	57	0	1323
6.6.1	win	2022-12-15	20:58:34	21:02:12	216862	5da23c68cf775d001724d361	552277658	1	main_z	7	main_z	3	stimuli_target_circlediamonds.svg	stimuli_distractor_diamondtriangles.svg	6	yes	44	1	640
6.6.1	win	2022-12-15	20:58:34	21:02:12	216862	5da23c68cf775d001724d361	552277658	1	main_z	7	advance_on_keypress_ZEE	4	stimuli_target_circlediamonds.svg	stimuli_distractor_diamondtriangles.svg	6	yes	57	0	952
6.6.1	win	2022-12-15	20:58:34	21:02:14	219006	5da23c68cf775d001724d361	552277658	1	main_z	7	main_z	5	stimuli_distractor_trianglediamonds.svg	stimuli_target_squaretriangles.svg	11	yes	44	1	555
6.6.1	win	2022-12-15	20:58:34	21:02:14	219006	5da23c68cf775d001724d361	552277658	1	main_z	7	advance_on_keypress_ZEE	6	stimuli_distractor_trianglediamonds.svg	stimuli_target_squaretriangles.svg	11	yes	57	0	631
6.6.1	win	2022-12-15	20:58:34	21:02:16	220798	5da23c68cf775d001724d361	552277658	1	main_z	7	main_z	7	stimuli_distractor_trianglediamonds.svg	stimuli_target_circlediamonds.svg	10	yes	44	1	517
6.6.1	win	2022-12-15	20:58:34	21:02:16	220798	5da23c68cf775d001724d361	552277658	1	main_z	7	advance_on_keypress_ZEE	8	stimuli_distractor_trianglediamonds.svg	stimuli_target_circlediamonds.svg	10	yes	57	0	684
6.6.1	win	2022-12-15	20:58:34	21:02:18	222639	5da23c68cf775d001724d361	552277658	1	main_z	7	main_z	9	stimuli_target_trianglesquares.svg	stimuli_distractor_trianglediamonds.svg	18	yes	44	1	503
6.6.1	win	2022-12-15	20:58:34	21:02:18	222639	5da23c68cf775d001724d361	552277658	1	main_z	7	advance_on_keypress_ZEE	10	stimuli_target_trianglesquares.svg	stimuli_distractor_trianglediamonds.svg	18	yes	57	0	1116
6.6.1	win	2022-12-15	20:58:34	21:02:22	226405	5da23c68cf775d001724d361	552277658	1	main_z	7	main_z	11	stimuli_distractor_diamondtriangles.svg	stimuli_distractor_trianglediamonds.svg	37	no	0	1	2000
6.6.1	win	2022-12-15	20:58:34	21:02:22	226405	5da23c68cf775d001724d361	552277658	1	main_z	7	advance_on_keypress_ZEE	12	stimuli_distractor_diamondtriangles.svg	stimuli_distractor_trianglediamonds.svg	37	no	57	0	430
6.6.1	win	2022-12-15	20:58:34	21:02:25	229482	5da23c68cf775d001724d361	552277658	1	main_z	7	main_z	13	stimuli_distractor_trianglediamonds.svg	stimuli_distractor_diamondtriangles.svg	36	no	0	1	2000
6.6.1	win	2022-12-15	20:58:34	21:02:25	229482	5da23c68cf775d001724d361	552277658	1	main_z	7	advance_on_keypress_ZEE	14	stimuli_distractor_trianglediamonds.svg	stimuli_distractor_diamondtriangles.svg	36	no	57	0	529
6.6.1	win	2022-12-15	20:58:34	21:02:27	231358	5da23c68cf775d001724d361	552277658	1	main_z	7	main_z	15	stimuli_target_trianglecircles.svg	stimuli_distractor_trianglediamonds.svg	17	yes	44	1	699
6.6.1	win	2022-12-15	20:58:34	21:02:27	231358	5da23c68cf775d001724d361	552277658	1	main_z	7	advance_on_keypress_ZEE	16	stimuli_target_trianglecircles.svg	stimuli_distractor_trianglediamonds.svg	17	yes	57	0	1090
6.6.1	win	2022-12-15	20:58:34	21:02:29	233830	5da23c68cf775d001724d361	552277658	1	main_z	7	main_z	17	stimuli_target_diamondcircles.svg	stimuli_distractor_trianglediamonds.svg	19	yes	44	1	743
6.6.1	win	2022-12-15	20:58:34	21:02:29	233830	5da23c68cf775d001724d361	552277658	1	main_z	7	advance_on_keypress_ZEE	18	stimuli_target_diamondcircles.svg	stimuli_distractor_trianglediamonds.svg	19	yes	57	0	604
6.6.1	win	2022-12-15	20:58:34	21:02:31	235966	5da23c68cf775d001724d361	552277658	1	main_z	7	main_z	19	stimuli_distractor_diamondtriangles.svg	stimuli_target_diamondsquares.svg	32	yes	44	1	884
6.6.1	win	2022-12-15	20:58:34	21:02:31	235966	5da23c68cf775d001724d361	552277658	1	main_z	7	advance_on_keypress_ZEE	20	stimuli_distractor_diamondtriangles.svg	stimuli_target_diamondsquares.svg	32	yes	57	0	1267
6.6.1	win	2022-12-15	20:58:34	21:02:34	238430	5da23c68cf775d001724d361	552277658	1	main_z	7	main_z	21	stimuli_distractor_trianglediamonds.svg	stimuli_target_trianglesquares.svg	26	yes	44	1	554
6.6.1	win	2022-12-15	20:58:34	21:02:34	238430	5da23c68cf775d001724d361	552277658	1	main_z	7	advance_on_keypress_ZEE	22	stimuli_distractor_trianglediamonds.svg	stimuli_target_trianglesquares.svg	26	yes	57	0	789
6.6.1	win	2022-12-15	20:58:34	21:02:36	240782	5da23c68cf775d001724d361	552277658	1	main_z	7	main_z	23	stimuli_target_squarediamonds.svg	stimuli_distractor_diamondtriangles.svg	8	yes	44	1	926
6.6.1	win	2022-12-15	20:58:34	21:02:36	240782	5da23c68cf775d001724d361	552277658	1	main_z	7	advance_on_keypress_ZEE	24	stimuli_target_squarediamonds.svg	stimuli_distractor_diamondtriangles.svg	8	yes	57	0	717
6.6.1	win	2022-12-15	20:58:34	21:02:38	243046	5da23c68cf775d001724d361	552277658	1	main_z	7	main_z	25	stimuli_target_diamondcircles.svg	stimuli_distractor_diamondtriangles.svg	23	yes	44	1	895
6.6.1	win	2022-12-15	20:58:34	21:02:38	243046	5da23c68cf775d001724d361	552277658	1	main_z	7	advance_on_keypress_ZEE	26	stimuli_target_diamondcircles.svg	stimuli_distractor_diamondtriangles.svg	23	yes	57	0	806
6.6.1	win	2022-12-15	20:58:34	21:02:42	246495	5da23c68cf775d001724d361	552277658	1	main_z	7	main_z	27	stimuli_distractor_diamondtriangles.svg	stimuli_distractor_diamondtriangles.svg	39	no	0	1	2000
6.6.1	win	2022-12-15	20:58:34	21:02:42	246495	5da23c68cf775d001724d361	552277658	1	main_z	7	advance_on_keypress_ZEE	28	stimuli_distractor_diamondtriangles.svg	stimuli_distractor_diamondtriangles.svg	39	no	57	0	3908
6.6.1	win	2022-12-15	20:58:34	21:02:47	251878	5da23c68cf775d001724d361	552277658	1	main_z	7	main_z	29	stimuli_distractor_trianglediamonds.svg	stimuli_target_circletriangles.svg	9	yes	44	1	830
6.6.1	win	2022-12-15	20:58:34	21:02:47	251878	5da23c68cf775d001724d361	552277658	1	main_z	7	advance_on_keypress_ZEE	30	stimuli_distractor_trianglediamonds.svg	stimuli_target_circletriangles.svg	9	yes	57	0	528
6.6.1	win	2022-12-15	20:58:34	21:02:49	253758	5da23c68cf775d001724d361	552277658	1	main_z	7	main_z	31	stimuli_target_diamondsquares.svg	stimuli_distractor_trianglediamonds.svg	20	yes	44	1	714
6.6.1	win	2022-12-15	20:58:34	21:02:49	253758	5da23c68cf775d001724d361	552277658	1	main_z	7	advance_on_keypress_ZEE	32	stimuli_target_diamondsquares.svg	stimuli_distractor_trianglediamonds.svg	20	yes	57	0	487
6.6.1	win	2022-12-15	20:58:34	21:02:51	255566	5da23c68cf775d001724d361	552277658	1	main_z	7	main_z	33	stimuli_distractor_diamondtriangles.svg	stimuli_target_diamondcircles.svg	31	yes	44	1	676
6.6.1	win	2022-12-15	20:58:34	21:02:51	255566	5da23c68cf775d001724d361	552277658	1	main_z	7	advance_on_keypress_ZEE	34	stimuli_distractor_diamondtriangles.svg	stimuli_target_diamondcircles.svg	31	yes	57	0	507
6.6.1	win	2022-12-15	20:58:34	21:02:53	257390	5da23c68cf775d001724d361	552277658	1	main_z	7	main_z	35	stimuli_target_trianglecircles.svg	stimuli_distractor_diamondtriangles.svg	21	yes	44	1	687
6.6.1	win	2022-12-15	20:58:34	21:02:53	257390	5da23c68cf775d001724d361	552277658	1	main_z	7	advance_on_keypress_ZEE	36	stimuli_target_trianglecircles.svg	stimuli_distractor_diamondtriangles.svg	21	yes	57	0	998
6.6.1	win	2022-12-15	20:58:34	21:02:56	261031	5da23c68cf775d001724d361	552277658	1	main_z	7	main_z	37	stimuli_distractor_trianglediamonds.svg	stimuli_distractor_trianglediamonds.svg	33	no	0	1	2000
6.6.1	win	2022-12-15	20:58:34	21:02:56	261031	5da23c68cf775d001724d361	552277658	1	main_z	7	advance_on_keypress_ZEE	38	stimuli_distractor_trianglediamonds.svg	stimuli_distractor_trianglediamonds.svg	33	no	57	0	316
6.6.1	win	2022-12-15	20:58:34	21:02:58	262950	5da23c68cf775d001724d361	552277658	1	main_z	7	main_z	39	stimuli_distractor_trianglediamonds.svg	stimuli_target_diamondcircles.svg	27	yes	44	1	958
6.6.1	win	2022-12-15	20:58:34	21:02:58	262950	5da23c68cf775d001724d361	552277658	1	main_z	7	advance_on_keypress_ZEE	40	stimuli_distractor_trianglediamonds.svg	stimuli_target_diamondcircles.svg	27	yes	57	0	571
6.6.1	win	2022-12-15	20:58:34	21:03:00	265062	5da23c68cf775d001724d361	552277658	1	main_z	7	main_z	41	stimuli_distractor_diamondtriangles.svg	stimuli_target_circlediamonds.svg	14	yes	44	1	908
6.6.1	win	2022-12-15	20:58:34	21:03:00	265062	5da23c68cf775d001724d361	552277658	1	main_z	7	advance_on_keypress_ZEE	42	stimuli_distractor_diamondtriangles.svg	stimuli_target_circlediamonds.svg	14	yes	57	0	979
6.6.1	win	2022-12-15	20:58:34	21:03:03	267862	5da23c68cf775d001724d361	552277658	1	main_z	7	main_z	43	stimuli_distractor_diamondtriangles.svg	stimuli_target_squaretriangles.svg	15	yes	44	1	1180
6.6.1	win	2022-12-15	20:58:34	21:03:03	267862	5da23c68cf775d001724d361	552277658	1	main_z	7	advance_on_keypress_ZEE	44	stimuli_distractor_diamondtriangles.svg	stimuli_target_squaretriangles.svg	15	yes	57	0	648
6.6.1	win	2022-12-15	20:58:34	21:03:05	270038	5da23c68cf775d001724d361	552277658	1	main_z	7	main_z	45	stimuli_target_trianglesquares.svg	stimuli_distractor_diamondtriangles.svg	22	yes	44	1	878
6.6.1	win	2022-12-15	20:58:34	21:03:05	270038	5da23c68cf775d001724d361	552277658	1	main_z	7	advance_on_keypress_ZEE	46	stimuli_target_trianglesquares.svg	stimuli_distractor_diamondtriangles.svg	22	yes	57	0	493
6.6.1	win	2022-12-15	20:58:34	21:03:07	272071	5da23c68cf775d001724d361	552277658	1	main_z	7	main_z	47	stimuli_distractor_diamondtriangles.svg	stimuli_target_circletriangles.svg	13	yes	44	1	898
6.6.1	win	2022-12-15	20:58:34	21:03:07	272071	5da23c68cf775d001724d361	552277658	1	main_z	7	advance_on_keypress_ZEE	48	stimuli_distractor_diamondtriangles.svg	stimuli_target_circletriangles.svg	13	yes	57	0	536
6.6.1	win	2022-12-15	20:58:34	21:03:09	274158	5da23c68cf775d001724d361	552277658	1	main_z	7	main_z	49	stimuli_target_circletriangles.svg	stimuli_distractor_diamondtriangles.svg	5	yes	44	1	907
6.6.1	win	2022-12-15	20:58:34	21:03:09	274158	5da23c68cf775d001724d361	552277658	1	main_z	7	advance_on_keypress_ZEE	50	stimuli_target_circletriangles.svg	stimuli_distractor_diamondtriangles.svg	5	yes	57	0	3401
6.6.1	win	2022-12-15	20:58:34	21:03:14	278854	5da23c68cf775d001724d361	552277658	1	main_z	7	main_z	51	stimuli_target_squaretriangles.svg	stimuli_distractor_trianglediamonds.svg	3	yes	44	1	663
6.6.1	win	2022-12-15	20:58:34	21:03:14	278854	5da23c68cf775d001724d361	552277658	1	main_z	7	advance_on_keypress_ZEE	52	stimuli_target_squaretriangles.svg	stimuli_distractor_trianglediamonds.svg	3	yes	57	0	799
6.6.1	win	2022-12-15	20:58:34	21:03:16	280910	5da23c68cf775d001724d361	552277658	1	main_z	7	main_z	53	stimuli_distractor_diamondtriangles.svg	stimuli_target_trianglecircles.svg	29	yes	44	1	607
6.6.1	win	2022-12-15	20:58:34	21:03:16	280910	5da23c68cf775d001724d361	552277658	1	main_z	7	advance_on_keypress_ZEE	54	stimuli_distractor_diamondtriangles.svg	stimuli_target_trianglecircles.svg	29	yes	57	0	745
6.6.1	win	2022-12-15	20:58:34	21:03:20	284298	5da23c68cf775d001724d361	552277658	1	main_z	7	main_z	55	stimuli_distractor_diamondtriangles.svg	stimuli_distractor_trianglediamonds.svg	38	no	0	1	2000
6.6.1	win	2022-12-15	20:58:34	21:03:20	284298	5da23c68cf775d001724d361	552277658	1	main_z	7	advance_on_keypress_ZEE	56	stimuli_distractor_diamondtriangles.svg	stimuli_distractor_trianglediamonds.svg	38	no	57	0	504
6.6.1	win	2022-12-15	20:58:34	21:03:22	286302	5da23c68cf775d001724d361	552277658	1	main_z	7	main_z	57	stimuli_distractor_trianglediamonds.svg	stimuli_target_squarediamonds.svg	12	yes	44	1	860
6.6.1	win	2022-12-15	20:58:34	21:03:22	286302	5da23c68cf775d001724d361	552277658	1	main_z	7	advance_on_keypress_ZEE	58	stimuli_distractor_trianglediamonds.svg	stimuli_target_squarediamonds.svg	12	yes	57	0	660
6.6.1	win	2022-12-15	20:58:34	21:03:24	288374	5da23c68cf775d001724d361	552277658	1	main_z	7	main_z	59	stimuli_target_circlediamonds.svg	stimuli_distractor_trianglediamonds.svg	2	yes	44	1	770
6.6.1	win	2022-12-15	20:58:34	21:03:24	288374	5da23c68cf775d001724d361	552277658	1	main_z	7	advance_on_keypress_ZEE	60	stimuli_target_circlediamonds.svg	stimuli_distractor_trianglediamonds.svg	2	yes	57	0	590
6.6.1	win	2022-12-15	20:58:34	21:03:26	290230	5da23c68cf775d001724d361	552277658	1	main_z	7	main_z	61	stimuli_distractor_diamondtriangles.svg	stimuli_target_trianglesquares.svg	30	yes	44	1	630
6.6.1	win	2022-12-15	20:58:34	21:03:26	290230	5da23c68cf775d001724d361	552277658	1	main_z	7	advance_on_keypress_ZEE	62	stimuli_distractor_diamondtriangles.svg	stimuli_target_trianglesquares.svg	30	yes	57	0	503
6.6.1	win	2022-12-15	20:58:34	21:03:27	292118	5da23c68cf775d001724d361	552277658	1	main_z	7	main_z	63	stimuli_distractor_trianglediamonds.svg	stimuli_target_trianglecircles.svg	25	yes	44	1	739
6.6.1	win	2022-12-15	20:58:34	21:03:27	292118	5da23c68cf775d001724d361	552277658	1	main_z	7	advance_on_keypress_ZEE	64	stimuli_distractor_trianglediamonds.svg	stimuli_target_trianglecircles.svg	25	yes	57	0	520
6.6.1	win	2022-12-15	20:58:34	21:03:31	295275	5da23c68cf775d001724d361	552277658	1	main_z	7	main_z	65	stimuli_distractor_trianglediamonds.svg	stimuli_distractor_trianglediamonds.svg	34	no	0	1	2000
6.6.1	win	2022-12-15	20:58:34	21:03:31	295275	5da23c68cf775d001724d361	552277658	1	main_z	7	advance_on_keypress_ZEE	66	stimuli_distractor_trianglediamonds.svg	stimuli_distractor_trianglediamonds.svg	34	no	57	0	416
6.6.1	win	2022-12-15	20:58:34	21:03:32	296974	5da23c68cf775d001724d361	552277658	1	main_z	7	main_z	67	stimuli_target_squaretriangles.svg	stimuli_distractor_diamondtriangles.svg	7	yes	44	1	640
6.6.1	win	2022-12-15	20:58:34	21:03:32	296974	5da23c68cf775d001724d361	552277658	1	main_z	7	advance_on_keypress_ZEE	68	stimuli_target_squaretriangles.svg	stimuli_distractor_diamondtriangles.svg	7	yes	57	0	559
6.6.1	win	2022-12-15	20:58:34	21:03:35	300165	5da23c68cf775d001724d361	552277658	1	main_z	7	main_z	69	stimuli_distractor_diamondtriangles.svg	stimuli_distractor_diamondtriangles.svg	40	no	0	1	2000
6.6.1	win	2022-12-15	20:58:34	21:03:35	300165	5da23c68cf775d001724d361	552277658	1	main_z	7	advance_on_keypress_ZEE	70	stimuli_distractor_diamondtriangles.svg	stimuli_distractor_diamondtriangles.svg	40	no	57	0	4400
6.6.1	win	2022-12-15	20:58:34	21:03:41	305878	5da23c68cf775d001724d361	552277658	1	main_z	7	main_z	71	stimuli_target_squarediamonds.svg	stimuli_distractor_trianglediamonds.svg	4	yes	44	1	678
6.6.1	win	2022-12-15	20:58:34	21:03:41	305878	5da23c68cf775d001724d361	552277658	1	main_z	7	advance_on_keypress_ZEE	72	stimuli_target_squarediamonds.svg	stimuli_distractor_trianglediamonds.svg	4	yes	57	0	558
6.6.1	win	2022-12-15	20:58:34	21:03:43	307855	5da23c68cf775d001724d361	552277658	1	main_z	7	main_z	73	stimuli_target_diamondsquares.svg	stimuli_distractor_diamondtriangles.svg	24	yes	44	1	776
6.6.1	win	2022-12-15	20:58:34	21:03:43	307855	5da23c68cf775d001724d361	552277658	1	main_z	7	advance_on_keypress_ZEE	74	stimuli_target_diamondsquares.svg	stimuli_distractor_diamondtriangles.svg	24	yes	57	0	515
6.6.1	win	2022-12-15	20:58:34	21:03:45	310015	5da23c68cf775d001724d361	552277658	1	main_z	7	main_z	75	stimuli_distractor_trianglediamonds.svg	stimuli_target_diamondsquares.svg	28	yes	44	1	990
6.6.1	win	2022-12-15	20:58:34	21:03:45	310015	5da23c68cf775d001724d361	552277658	1	main_z	7	advance_on_keypress_ZEE	76	stimuli_distractor_trianglediamonds.svg	stimuli_target_diamondsquares.svg	28	yes	57	0	1945
6.6.1	win	2022-12-15	20:58:34	21:03:50	314600	5da23c68cf775d001724d361	552277658	1	main_z	7	main_z	77	stimuli_distractor_trianglediamonds.svg	stimuli_distractor_diamondtriangles.svg	35	no	0	1	2000
6.6.1	win	2022-12-15	20:58:34	21:03:50	314600	5da23c68cf775d001724d361	552277658	1	main_z	7	advance_on_keypress_ZEE	78	stimuli_distractor_trianglediamonds.svg	stimuli_distractor_diamondtriangles.svg	35	no	57	0	587
6.6.1	win	2022-12-15	20:58:34	21:03:52	317030	5da23c68cf775d001724d361	552277658	1	main_z	7	main_z	79	stimuli_distractor_diamondtriangles.svg	stimuli_target_squarediamonds.svg	16	yes	44	1	1203
6.6.1	win	2022-12-15	20:58:34	21:03:52	317030	5da23c68cf775d001724d361	552277658	1	main_z	7	advance_on_keypress_ZEE	80	stimuli_distractor_diamondtriangles.svg	stimuli_target_squarediamonds.svg	16	yes	57	0	518
6.6.1	win	2022-12-15	20:58:34	21:03:55	320188	5da23c68cf775d001724d361	552277658	1	main_z	7	main_z	81	stimuli_target_circletriangles.svg	stimuli_distractor_diamondtriangles.svg	5	yes	0	0	2000
6.6.1	win	2022-12-15	20:58:34	21:03:55	320188	5da23c68cf775d001724d361	552277658	1	main_z	7	advance_on_keypress_ZEE	82	stimuli_target_circletriangles.svg	stimuli_distractor_diamondtriangles.svg	5	yes	57	0	495
6.6.1	win	2022-12-15	20:58:34	21:03:58	322231	5da23c68cf775d001724d361	552277658	1	main_z	7	main_z	83	stimuli_target_trianglecircles.svg	stimuli_distractor_trianglediamonds.svg	17	yes	44	1	899
6.6.1	win	2022-12-15	20:58:34	21:03:58	322231	5da23c68cf775d001724d361	552277658	1	main_z	7	advance_on_keypress_ZEE	84	stimuli_target_trianglecircles.svg	stimuli_distractor_trianglediamonds.svg	17	yes	57	0	396
6.6.1	win	2022-12-15	20:58:34	21:04:00	324215	5da23c68cf775d001724d361	552277658	1	main_z	7	main_z	85	stimuli_distractor_diamondtriangles.svg	stimuli_target_diamondcircles.svg	31	yes	44	1	936
6.6.1	win	2022-12-15	20:58:34	21:04:00	324215	5da23c68cf775d001724d361	552277658	1	main_z	7	advance_on_keypress_ZEE	86	stimuli_distractor_diamondtriangles.svg	stimuli_target_diamondcircles.svg	31	yes	57	0	597
6.6.1	win	2022-12-15	20:58:34	21:04:02	326495	5da23c68cf775d001724d361	552277658	1	main_z	7	main_z	87	stimuli_distractor_trianglediamonds.svg	stimuli_target_trianglesquares.svg	26	yes	44	1	1038
6.6.1	win	2022-12-15	20:58:34	21:04:02	326495	5da23c68cf775d001724d361	552277658	1	main_z	7	advance_on_keypress_ZEE	88	stimuli_distractor_trianglediamonds.svg	stimuli_target_trianglesquares.svg	26	yes	57	0	559
6.6.1	win	2022-12-15	20:58:34	21:04:04	328574	5da23c68cf775d001724d361	552277658	1	main_z	7	main_z	89	stimuli_target_trianglesquares.svg	stimuli_distractor_diamondtriangles.svg	22	yes	44	1	889
6.6.1	win	2022-12-15	20:58:34	21:04:04	328574	5da23c68cf775d001724d361	552277658	1	main_z	7	advance_on_keypress_ZEE	90	stimuli_target_trianglesquares.svg	stimuli_distractor_diamondtriangles.svg	22	yes	57	0	563
6.6.1	win	2022-12-15	20:58:34	21:04:06	330655	5da23c68cf775d001724d361	552277658	1	main_z	7	main_z	91	stimuli_target_squaretriangles.svg	stimuli_distractor_trianglediamonds.svg	3	yes	44	1	874
6.6.1	win	2022-12-15	20:58:34	21:04:06	330655	5da23c68cf775d001724d361	552277658	1	main_z	7	advance_on_keypress_ZEE	92	stimuli_target_squaretriangles.svg	stimuli_distractor_trianglediamonds.svg	3	yes	57	0	498
6.6.1	win	2022-12-15	20:58:34	21:04:09	333792	5da23c68cf775d001724d361	552277658	1	main_z	7	main_z	93	stimuli_distractor_diamondtriangles.svg	stimuli_distractor_diamondtriangles.svg	39	no	0	1	2000
6.6.1	win	2022-12-15	20:58:34	21:04:09	333792	5da23c68cf775d001724d361	552277658	1	main_z	7	advance_on_keypress_ZEE	94	stimuli_distractor_diamondtriangles.svg	stimuli_distractor_diamondtriangles.svg	39	no	57	0	691
6.6.1	win	2022-12-15	20:58:34	21:04:11	336087	5da23c68cf775d001724d361	552277658	1	main_z	7	main_z	95	stimuli_target_diamondsquares.svg	stimuli_distractor_diamondtriangles.svg	24	yes	44	1	968
6.6.1	win	2022-12-15	20:58:34	21:04:11	336087	5da23c68cf775d001724d361	552277658	1	main_z	7	advance_on_keypress_ZEE	96	stimuli_target_diamondsquares.svg	stimuli_distractor_diamondtriangles.svg	24	yes	57	0	708
6.6.1	win	2022-12-15	20:58:34	21:04:14	338439	5da23c68cf775d001724d361	552277658	1	main_z	7	main_z	97	stimuli_distractor_diamondtriangles.svg	stimuli_target_trianglecircles.svg	29	yes	44	1	1008
6.6.1	win	2022-12-15	20:58:34	21:04:14	338439	5da23c68cf775d001724d361	552277658	1	main_z	7	advance_on_keypress_ZEE	98	stimuli_distractor_diamondtriangles.svg	stimuli_target_trianglecircles.svg	29	yes	57	0	739
6.6.1	win	2022-12-15	20:58:34	21:04:16	340767	5da23c68cf775d001724d361	552277658	1	main_z	7	main_z	99	stimuli_distractor_diamondtriangles.svg	stimuli_target_circletriangles.svg	13	yes	44	1	957
6.6.1	win	2022-12-15	20:58:34	21:04:16	340767	5da23c68cf775d001724d361	552277658	1	main_z	7	advance_on_keypress_ZEE	100	stimuli_distractor_diamondtriangles.svg	stimuli_target_circletriangles.svg	13	yes	57	0	722
6.6.1	win	2022-12-15	20:58:34	21:04:18	343055	5da23c68cf775d001724d361	552277658	1	main_z	7	main_z	101	stimuli_distractor_trianglediamonds.svg	stimuli_target_circletriangles.svg	9	yes	44	1	934
6.6.1	win	2022-12-15	20:58:34	21:04:18	343055	5da23c68cf775d001724d361	552277658	1	main_z	7	advance_on_keypress_ZEE	102	stimuli_distractor_trianglediamonds.svg	stimuli_target_circletriangles.svg	9	yes	57	0	538
6.6.1	win	2022-12-15	20:58:34	21:04:20	345110	5da23c68cf775d001724d361	552277658	1	main_z	7	main_z	103	stimuli_distractor_diamondtriangles.svg	stimuli_target_trianglesquares.svg	30	yes	44	1	878
6.6.1	win	2022-12-15	20:58:34	21:04:20	345110	5da23c68cf775d001724d361	552277658	1	main_z	7	advance_on_keypress_ZEE	104	stimuli_distractor_diamondtriangles.svg	stimuli_target_trianglesquares.svg	30	yes	57	0	493
6.6.1	win	2022-12-15	20:58:34	21:04:23	347231	5da23c68cf775d001724d361	552277658	1	main_z	7	main_z	105	stimuli_target_circletriangles.svg	stimuli_distractor_trianglediamonds.svg	1	yes	44	1	969
6.6.1	win	2022-12-15	20:58:34	21:04:23	347231	5da23c68cf775d001724d361	552277658	1	main_z	7	advance_on_keypress_ZEE	106	stimuli_target_circletriangles.svg	stimuli_distractor_trianglediamonds.svg	1	yes	57	0	501
6.6.1	win	2022-12-15	20:58:34	21:04:26	350374	5da23c68cf775d001724d361	552277658	1	main_z	7	main_z	107	stimuli_distractor_diamondtriangles.svg	stimuli_distractor_trianglediamonds.svg	38	no	0	1	2000
6.6.1	win	2022-12-15	20:58:34	21:04:26	350374	5da23c68cf775d001724d361	552277658	1	main_z	7	advance_on_keypress_ZEE	108	stimuli_distractor_diamondtriangles.svg	stimuli_distractor_trianglediamonds.svg	38	no	57	0	405
6.6.1	win	2022-12-15	20:58:34	21:04:28	352350	5da23c68cf775d001724d361	552277658	1	main_z	7	main_z	109	stimuli_distractor_diamondtriangles.svg	stimuli_target_circlediamonds.svg	14	yes	44	1	932
6.6.1	win	2022-12-15	20:58:34	21:04:28	352350	5da23c68cf775d001724d361	552277658	1	main_z	7	advance_on_keypress_ZEE	110	stimuli_distractor_diamondtriangles.svg	stimuli_target_circlediamonds.svg	14	yes	57	0	7601
6.6.1	win	2022-12-15	20:58:34	21:04:37	361206	5da23c68cf775d001724d361	552277658	1	main_z	7	main_z	111	stimuli_target_squarediamonds.svg	stimuli_distractor_trianglediamonds.svg	4	yes	44	1	609
6.6.1	win	2022-12-15	20:58:34	21:04:37	361206	5da23c68cf775d001724d361	552277658	1	main_z	7	advance_on_keypress_ZEE	112	stimuli_target_squarediamonds.svg	stimuli_distractor_trianglediamonds.svg	4	yes	57	0	723
6.6.1	win	2022-12-15	20:58:34	21:04:39	363431	5da23c68cf775d001724d361	552277658	1	main_z	7	main_z	113	stimuli_target_circlediamonds.svg	stimuli_distractor_diamondtriangles.svg	6	yes	44	1	870
6.6.1	win	2022-12-15	20:58:34	21:04:39	363431	5da23c68cf775d001724d361	552277658	1	main_z	7	advance_on_keypress_ZEE	114	stimuli_target_circlediamonds.svg	stimuli_distractor_diamondtriangles.svg	6	yes	57	0	413
6.6.1	win	2022-12-15	20:58:34	21:04:41	365502	5da23c68cf775d001724d361	552277658	1	main_z	7	main_z	115	stimuli_distractor_trianglediamonds.svg	stimuli_target_squarediamonds.svg	12	yes	44	1	1013
6.6.1	win	2022-12-15	20:58:34	21:04:41	365502	5da23c68cf775d001724d361	552277658	1	main_z	7	advance_on_keypress_ZEE	116	stimuli_distractor_trianglediamonds.svg	stimuli_target_squarediamonds.svg	12	yes	57	0	447
6.6.1	win	2022-12-15	20:58:34	21:04:43	367342	5da23c68cf775d001724d361	552277658	1	main_z	7	main_z	117	stimuli_target_squarediamonds.svg	stimuli_distractor_diamondtriangles.svg	8	yes	44	1	741
6.6.1	win	2022-12-15	20:58:34	21:04:43	367342	5da23c68cf775d001724d361	552277658	1	main_z	7	advance_on_keypress_ZEE	118	stimuli_target_squarediamonds.svg	stimuli_distractor_diamondtriangles.svg	8	yes	57	0	410
6.6.1	win	2022-12-15	20:58:34	21:04:46	370381	5da23c68cf775d001724d361	552277658	1	main_z	7	main_z	119	stimuli_distractor_trianglediamonds.svg	stimuli_distractor_trianglediamonds.svg	33	no	0	1	2000
6.6.1	win	2022-12-15	20:58:34	21:04:46	370381	5da23c68cf775d001724d361	552277658	1	main_z	7	advance_on_keypress_ZEE	120	stimuli_distractor_trianglediamonds.svg	stimuli_distractor_trianglediamonds.svg	33	no	57	0	2454
6.6.1	win	2022-12-15	20:58:34	21:04:50	374224	5da23c68cf775d001724d361	552277658	1	main_z	7	main_z	121	stimuli_target_diamondcircles.svg	stimuli_distractor_diamondtriangles.svg	23	yes	44	1	753
6.6.1	win	2022-12-15	20:58:34	21:04:50	374224	5da23c68cf775d001724d361	552277658	1	main_z	7	advance_on_keypress_ZEE	122	stimuli_target_diamondcircles.svg	stimuli_distractor_diamondtriangles.svg	23	yes	57	0	475
6.6.1	win	2022-12-15	20:58:34	21:04:52	376335	5da23c68cf775d001724d361	552277658	1	main_z	7	main_z	123	stimuli_target_trianglecircles.svg	stimuli_distractor_diamondtriangles.svg	21	yes	44	1	1001
6.6.1	win	2022-12-15	20:58:34	21:04:52	376335	5da23c68cf775d001724d361	552277658	1	main_z	7	advance_on_keypress_ZEE	124	stimuli_target_trianglecircles.svg	stimuli_distractor_diamondtriangles.svg	21	yes	57	0	732
6.6.1	win	2022-12-15	20:58:34	21:04:54	378671	5da23c68cf775d001724d361	552277658	1	main_z	7	main_z	125	stimuli_distractor_trianglediamonds.svg	stimuli_target_trianglecircles.svg	25	yes	44	1	959
6.6.1	win	2022-12-15	20:58:34	21:04:54	378671	5da23c68cf775d001724d361	552277658	1	main_z	7	advance_on_keypress_ZEE	126	stimuli_distractor_trianglediamonds.svg	stimuli_target_trianglecircles.svg	25	yes	57	0	403
6.6.1	win	2022-12-15	20:58:34	21:04:56	380607	5da23c68cf775d001724d361	552277658	1	main_z	7	main_z	127	stimuli_distractor_diamondtriangles.svg	stimuli_target_diamondsquares.svg	32	yes	44	1	883
6.6.1	win	2022-12-15	20:58:34	21:04:56	380607	5da23c68cf775d001724d361	552277658	1	main_z	7	advance_on_keypress_ZEE	128	stimuli_distractor_diamondtriangles.svg	stimuli_target_diamondsquares.svg	32	yes	57	0	908
6.6.1	win	2022-12-15	20:58:34	21:04:58	382870	5da23c68cf775d001724d361	552277658	1	main_z	7	main_z	129	stimuli_target_diamondcircles.svg	stimuli_distractor_trianglediamonds.svg	19	yes	44	1	718
6.6.1	win	2022-12-15	20:58:34	21:04:58	382870	5da23c68cf775d001724d361	552277658	1	main_z	7	advance_on_keypress_ZEE	130	stimuli_target_diamondcircles.svg	stimuli_distractor_trianglediamonds.svg	19	yes	57	0	421
6.6.1	win	2022-12-15	20:58:34	21:05:00	384839	5da23c68cf775d001724d361	552277658	1	main_z	7	main_z	131	stimuli_distractor_trianglediamonds.svg	stimuli_target_squaretriangles.svg	11	yes	44	1	907
6.6.1	win	2022-12-15	20:58:34	21:05:00	384839	5da23c68cf775d001724d361	552277658	1	main_z	7	advance_on_keypress_ZEE	132	stimuli_distractor_trianglediamonds.svg	stimuli_target_squaretriangles.svg	11	yes	57	0	386
6.6.1	win	2022-12-15	20:58:34	21:05:03	387861	5da23c68cf775d001724d361	552277658	1	main_z	7	main_z	133	stimuli_distractor_trianglediamonds.svg	stimuli_distractor_diamondtriangles.svg	36	no	0	1	2000
6.6.1	win	2022-12-15	20:58:34	21:05:03	387861	5da23c68cf775d001724d361	552277658	1	main_z	7	advance_on_keypress_ZEE	134	stimuli_distractor_trianglediamonds.svg	stimuli_distractor_diamondtriangles.svg	36	no	57	0	327
6.6.1	win	2022-12-15	20:58:34	21:05:05	389751	5da23c68cf775d001724d361	552277658	1	main_z	7	main_z	135	stimuli_distractor_diamondtriangles.svg	stimuli_target_squarediamonds.svg	16	yes	44	1	929
6.6.1	win	2022-12-15	20:58:34	21:05:05	389751	5da23c68cf775d001724d361	552277658	1	main_z	7	advance_on_keypress_ZEE	136	stimuli_distractor_diamondtriangles.svg	stimuli_target_squarediamonds.svg	16	yes	57	0	449
6.6.1	win	2022-12-15	20:58:34	21:05:07	391727	5da23c68cf775d001724d361	552277658	1	main_z	7	main_z	137	stimuli_target_diamondsquares.svg	stimuli_distractor_trianglediamonds.svg	20	yes	44	1	876
6.6.1	win	2022-12-15	20:58:34	21:05:07	391727	5da23c68cf775d001724d361	552277658	1	main_z	7	advance_on_keypress_ZEE	138	stimuli_target_diamondsquares.svg	stimuli_distractor_trianglediamonds.svg	20	yes	57	0	468
6.6.1	win	2022-12-15	20:58:34	21:05:09	393862	5da23c68cf775d001724d361	552277658	1	main_z	7	main_z	139	stimuli_distractor_trianglediamonds.svg	stimuli_target_diamondcircles.svg	27	yes	44	1	1017
6.6.1	win	2022-12-15	20:58:34	21:05:09	393862	5da23c68cf775d001724d361	552277658	1	main_z	7	advance_on_keypress_ZEE	140	stimuli_distractor_trianglediamonds.svg	stimuli_target_diamondcircles.svg	27	yes	57	0	474
6.6.1	win	2022-12-15	20:58:34	21:05:12	396975	5da23c68cf775d001724d361	552277658	1	main_z	7	main_z	141	stimuli_distractor_diamondtriangles.svg	stimuli_distractor_diamondtriangles.svg	40	no	0	1	2000
6.6.1	win	2022-12-15	20:58:34	21:05:12	396975	5da23c68cf775d001724d361	552277658	1	main_z	7	advance_on_keypress_ZEE	142	stimuli_distractor_diamondtriangles.svg	stimuli_distractor_diamondtriangles.svg	40	no	57	0	428
6.6.1	win	2022-12-15	20:58:34	21:05:14	398990	5da23c68cf775d001724d361	552277658	1	main_z	7	main_z	143	stimuli_distractor_trianglediamonds.svg	stimuli_target_diamondsquares.svg	28	yes	44	1	939
6.6.1	win	2022-12-15	20:58:34	21:05:14	398990	5da23c68cf775d001724d361	552277658	1	main_z	7	advance_on_keypress_ZEE	144	stimuli_distractor_trianglediamonds.svg	stimuli_target_diamondsquares.svg	28	yes	57	0	711
6.6.1	win	2022-12-15	20:58:34	21:05:17	401343	5da23c68cf775d001724d361	552277658	1	main_z	7	main_z	145	stimuli_target_circlediamonds.svg	stimuli_distractor_trianglediamonds.svg	2	yes	44	1	996
6.6.1	win	2022-12-15	20:58:34	21:05:17	401343	5da23c68cf775d001724d361	552277658	1	main_z	7	advance_on_keypress_ZEE	146	stimuli_target_circlediamonds.svg	stimuli_distractor_trianglediamonds.svg	2	yes	57	0	783
6.6.1	win	2022-12-15	20:58:34	21:05:20	404775	5da23c68cf775d001724d361	552277658	1	main_z	7	main_z	147	stimuli_distractor_trianglediamonds.svg	stimuli_distractor_trianglediamonds.svg	34	no	0	1	2000
6.6.1	win	2022-12-15	20:58:34	21:05:20	404775	5da23c68cf775d001724d361	552277658	1	main_z	7	advance_on_keypress_ZEE	148	stimuli_distractor_trianglediamonds.svg	stimuli_distractor_trianglediamonds.svg	34	no	57	0	333
6.6.1	win	2022-12-15	20:58:34	21:05:23	407752	5da23c68cf775d001724d361	552277658	1	main_z	7	main_z	149	stimuli_distractor_diamondtriangles.svg	stimuli_distractor_trianglediamonds.svg	37	no	0	1	2000
6.6.1	win	2022-12-15	20:58:34	21:05:23	407752	5da23c68cf775d001724d361	552277658	1	main_z	7	advance_on_keypress_ZEE	150	stimuli_distractor_diamondtriangles.svg	stimuli_distractor_trianglediamonds.svg	37	no	57	0	540
6.6.1	win	2022-12-15	20:58:34	21:05:25	409799	5da23c68cf775d001724d361	552277658	1	main_z	7	main_z	151	stimuli_target_trianglesquares.svg	stimuli_distractor_trianglediamonds.svg	18	yes	44	1	870
6.6.1	win	2022-12-15	20:58:34	21:05:25	409799	5da23c68cf775d001724d361	552277658	1	main_z	7	advance_on_keypress_ZEE	152	stimuli_target_trianglesquares.svg	stimuli_distractor_trianglediamonds.svg	18	yes	57	0	749
6.6.1	win	2022-12-15	20:58:34	21:05:28	413191	5da23c68cf775d001724d361	552277658	1	main_z	7	main_z	153	stimuli_distractor_trianglediamonds.svg	stimuli_distractor_diamondtriangles.svg	35	no	0	1	2000
6.6.1	win	2022-12-15	20:58:34	21:05:28	413191	5da23c68cf775d001724d361	552277658	1	main_z	7	advance_on_keypress_ZEE	154	stimuli_distractor_trianglediamonds.svg	stimuli_distractor_diamondtriangles.svg	35	no	57	0	492
6.6.1	win	2022-12-15	20:58:34	21:05:31	415255	5da23c68cf775d001724d361	552277658	1	main_z	7	main_z	155	stimuli_distractor_diamondtriangles.svg	stimuli_target_squaretriangles.svg	15	yes	44	1	938
6.6.1	win	2022-12-15	20:58:34	21:05:31	415255	5da23c68cf775d001724d361	552277658	1	main_z	7	advance_on_keypress_ZEE	156	stimuli_distractor_diamondtriangles.svg	stimuli_target_squaretriangles.svg	15	yes	57	0	2391
6.6.1	win	2022-12-15	20:58:34	21:05:35	419215	5da23c68cf775d001724d361	552277658	1	main_z	7	main_z	157	stimuli_distractor_trianglediamonds.svg	stimuli_target_circlediamonds.svg	10	yes	44	1	923
6.6.1	win	2022-12-15	20:58:34	21:05:35	419215	5da23c68cf775d001724d361	552277658	1	main_z	7	advance_on_keypress_ZEE	158	stimuli_distractor_trianglediamonds.svg	stimuli_target_circlediamonds.svg	10	yes	57	0	648
6.6.1	win	2022-12-15	20:58:34	21:05:37	421430	5da23c68cf775d001724d361	552277658	1	main_z	7	main_z	159	stimuli_target_squaretriangles.svg	stimuli_distractor_diamondtriangles.svg	7	yes	44	1	926
6.6.1	win	2022-12-15	20:58:34	21:05:37	421430	5da23c68cf775d001724d361	552277658	1	main_z	7	advance_on_keypress_ZEE	160	stimuli_target_squaretriangles.svg	stimuli_distractor_diamondtriangles.svg	7	yes	57	0	628
6.6.1	win	2022-12-15	20:58:34	21:05:55	439605	5da23c68cf775d001724d361	552277658	1	practice_slash	9	practice_slash	1	stimuli_target_diamondsquares.svg	stimuli_distractor_trianglediamonds.svg	6	yes	0	0	2000
6.6.1	win	2022-12-15	20:58:34	21:05:55	439605	5da23c68cf775d001724d361	552277658	1	practice_slash	9	advance_on_keypress_SLASH	2	stimuli_target_diamondsquares.svg	stimuli_distractor_trianglediamonds.svg	6	yes	57	0	978
6.6.1	win	2022-12-15	20:58:34	21:05:58	443081	5da23c68cf775d001724d361	552277658	1	practice_slash	9	practice_slash	3	stimuli_target_diamondsquares.svg	stimuli_distractor_diamondtriangles.svg	3	yes	53	1	836
6.6.1	win	2022-12-15	20:58:34	21:05:58	443081	5da23c68cf775d001724d361	552277658	1	practice_slash	9	advance_on_keypress_SLASH	4	stimuli_target_diamondsquares.svg	stimuli_distractor_diamondtriangles.svg	3	yes	57	0	710
6.6.1	win	2022-12-15	20:58:34	21:06:02	446409	5da23c68cf775d001724d361	552277658	1	practice_slash	9	practice_slash	5	stimuli_target_squarediamonds.svg	stimuli_distractor_diamondtriangles.svg	2	yes	53	1	971
6.6.1	win	2022-12-15	20:58:34	21:06:02	446409	5da23c68cf775d001724d361	552277658	1	practice_slash	9	advance_on_keypress_SLASH	6	stimuli_target_squarediamonds.svg	stimuli_distractor_diamondtriangles.svg	2	yes	57	0	617
6.6.1	win	2022-12-15	20:58:34	21:06:05	449377	5da23c68cf775d001724d361	552277658	1	practice_slash	9	practice_slash	7	stimuli_target_circlediamonds.svg	stimuli_distractor_trianglediamonds.svg	4	yes	53	1	712
6.6.1	win	2022-12-15	20:58:34	21:06:05	449377	5da23c68cf775d001724d361	552277658	1	practice_slash	9	advance_on_keypress_SLASH	8	stimuli_target_circlediamonds.svg	stimuli_distractor_trianglediamonds.svg	4	yes	57	0	592
6.6.1	win	2022-12-15	20:58:34	21:06:08	452281	5da23c68cf775d001724d361	552277658	1	practice_slash	9	practice_slash	9	stimuli_distractor_diamondtriangles.svg	stimuli_target_circletriangles.svg	7	yes	53	1	656
6.6.1	win	2022-12-15	20:58:34	21:06:08	452281	5da23c68cf775d001724d361	552277658	1	practice_slash	9	advance_on_keypress_SLASH	10	stimuli_distractor_diamondtriangles.svg	stimuli_target_circletriangles.svg	7	yes	57	0	545
6.6.1	win	2022-12-15	20:58:34	21:06:12	456485	5da23c68cf775d001724d361	552277658	1	practice_slash	9	practice_slash	11	stimuli_distractor_diamondtriangles.svg	stimuli_distractor_trianglediamonds.svg	14	no	0	1	2000
6.6.1	win	2022-12-15	20:58:34	21:06:12	456485	5da23c68cf775d001724d361	552277658	1	practice_slash	9	advance_on_keypress_SLASH	12	stimuli_distractor_diamondtriangles.svg	stimuli_distractor_trianglediamonds.svg	14	no	57	0	1378
6.6.1	win	2022-12-15	20:58:34	21:06:15	460020	5da23c68cf775d001724d361	552277658	1	practice_slash	9	practice_slash	13	stimuli_target_circlediamonds.svg	stimuli_distractor_diamondtriangles.svg	1	yes	53	1	501
6.6.1	win	2022-12-15	20:58:34	21:06:15	460020	5da23c68cf775d001724d361	552277658	1	practice_slash	9	advance_on_keypress_SLASH	14	stimuli_target_circlediamonds.svg	stimuli_distractor_diamondtriangles.svg	1	yes	57	0	508
6.6.1	win	2022-12-15	20:58:34	21:06:19	464169	5da23c68cf775d001724d361	552277658	1	practice_slash	9	practice_slash	15	stimuli_distractor_trianglediamonds.svg	stimuli_distractor_trianglediamonds.svg	15	no	0	1	2000
6.6.1	win	2022-12-15	20:58:34	21:06:19	464169	5da23c68cf775d001724d361	552277658	1	practice_slash	9	advance_on_keypress_SLASH	16	stimuli_distractor_trianglediamonds.svg	stimuli_distractor_trianglediamonds.svg	15	no	57	0	751
6.6.1	win	2022-12-15	20:58:34	21:06:23	467353	5da23c68cf775d001724d361	552277658	1	practice_slash	9	practice_slash	17	stimuli_distractor_trianglediamonds.svg	stimuli_target_diamondcircles.svg	12	yes	53	1	792
6.6.1	win	2022-12-15	20:58:34	21:06:23	467353	5da23c68cf775d001724d361	552277658	1	practice_slash	9	advance_on_keypress_SLASH	18	stimuli_distractor_trianglediamonds.svg	stimuli_target_diamondcircles.svg	12	yes	57	0	533
6.6.1	win	2022-12-15	20:58:34	21:06:26	470539	5da23c68cf775d001724d361	552277658	1	practice_slash	9	practice_slash	19	stimuli_distractor_diamondtriangles.svg	stimuli_target_trianglecircles.svg	9	yes	53	1	1001
6.6.1	win	2022-12-15	20:58:34	21:06:26	470539	5da23c68cf775d001724d361	552277658	1	practice_slash	9	advance_on_keypress_SLASH	20	stimuli_distractor_diamondtriangles.svg	stimuli_target_trianglecircles.svg	9	yes	57	0	565
6.6.1	win	2022-12-15	20:58:34	21:06:30	474746	5da23c68cf775d001724d361	552277658	1	practice_slash	9	practice_slash	21	stimuli_distractor_diamondtriangles.svg	stimuli_distractor_diamondtriangles.svg	13	no	0	1	2000
6.6.1	win	2022-12-15	20:58:34	21:06:30	474746	5da23c68cf775d001724d361	552277658	1	practice_slash	9	advance_on_keypress_SLASH	22	stimuli_distractor_diamondtriangles.svg	stimuli_distractor_diamondtriangles.svg	13	no	57	0	436
6.6.1	win	2022-12-15	20:58:34	21:06:33	477810	5da23c68cf775d001724d361	552277658	1	practice_slash	9	practice_slash	23	stimuli_distractor_trianglediamonds.svg	stimuli_target_squarediamonds.svg	11	yes	53	1	988
6.6.1	win	2022-12-15	20:58:34	21:06:33	477810	5da23c68cf775d001724d361	552277658	1	practice_slash	9	advance_on_keypress_SLASH	24	stimuli_distractor_trianglediamonds.svg	stimuli_target_squarediamonds.svg	11	yes	57	0	464
6.6.1	win	2022-12-15	20:58:34	21:06:37	481931	5da23c68cf775d001724d361	552277658	1	practice_slash	9	practice_slash	25	stimuli_distractor_trianglediamonds.svg	stimuli_distractor_diamondtriangles.svg	16	no	0	1	2000
6.6.1	win	2022-12-15	20:58:34	21:06:37	481931	5da23c68cf775d001724d361	552277658	1	practice_slash	9	advance_on_keypress_SLASH	26	stimuli_distractor_trianglediamonds.svg	stimuli_distractor_diamondtriangles.svg	16	no	57	0	467
6.6.1	win	2022-12-15	20:58:34	21:06:40	485080	5da23c68cf775d001724d361	552277658	1	practice_slash	9	practice_slash	27	stimuli_distractor_diamondtriangles.svg	stimuli_target_diamondcircles.svg	8	yes	53	1	1040
6.6.1	win	2022-12-15	20:58:34	21:06:40	485080	5da23c68cf775d001724d361	552277658	1	practice_slash	9	advance_on_keypress_SLASH	28	stimuli_distractor_diamondtriangles.svg	stimuli_target_diamondcircles.svg	8	yes	57	0	603
6.6.1	win	2022-12-15	20:58:34	21:06:44	488320	5da23c68cf775d001724d361	552277658	1	practice_slash	9	practice_slash	29	stimuli_distractor_trianglediamonds.svg	stimuli_target_circlediamonds.svg	10	yes	53	1	989
6.6.1	win	2022-12-15	20:58:34	21:06:44	488320	5da23c68cf775d001724d361	552277658	1	practice_slash	9	advance_on_keypress_SLASH	30	stimuli_distractor_trianglediamonds.svg	stimuli_target_circlediamonds.svg	10	yes	57	0	497
6.6.1	win	2022-12-15	20:58:34	21:06:47	491401	5da23c68cf775d001724d361	552277658	1	practice_slash	9	practice_slash	31	stimuli_target_squarediamonds.svg	stimuli_distractor_trianglediamonds.svg	5	yes	53	1	942
6.6.1	win	2022-12-15	20:58:34	21:06:47	491401	5da23c68cf775d001724d361	552277658	1	practice_slash	9	advance_on_keypress_SLASH	32	stimuli_target_squarediamonds.svg	stimuli_distractor_trianglediamonds.svg	5	yes	57	0	1325
6.6.1	win	2022-12-15	20:58:34	21:07:02	506607	5da23c68cf775d001724d361	552277658	1	main_slash	11	main_slash	1	stimuli_target_trianglecircles.svg	stimuli_distractor_diamondtriangles.svg	21	yes	53	1	535
6.6.1	win	2022-12-15	20:58:34	21:07:02	506607	5da23c68cf775d001724d361	552277658	1	main_slash	11	advance_on_keypress_SLASH	2	stimuli_target_trianglecircles.svg	stimuli_distractor_diamondtriangles.svg	21	yes	57	0	1044
6.6.1	win	2022-12-15	20:58:34	21:07:04	508927	5da23c68cf775d001724d361	552277658	1	main_slash	11	main_slash	3	stimuli_target_circletriangles.svg	stimuli_distractor_trianglediamonds.svg	1	yes	53	1	627
6.6.1	win	2022-12-15	20:58:34	21:07:04	508927	5da23c68cf775d001724d361	552277658	1	main_slash	11	advance_on_keypress_SLASH	4	stimuli_target_circletriangles.svg	stimuli_distractor_trianglediamonds.svg	1	yes	57	0	850
6.6.1	win	2022-12-15	20:58:34	21:07:06	510927	5da23c68cf775d001724d361	552277658	1	main_slash	11	main_slash	5	stimuli_distractor_trianglediamonds.svg	stimuli_target_circlediamonds.svg	10	yes	53	1	498
6.6.1	win	2022-12-15	20:58:34	21:07:06	510927	5da23c68cf775d001724d361	552277658	1	main_slash	11	advance_on_keypress_SLASH	6	stimuli_distractor_trianglediamonds.svg	stimuli_target_circlediamonds.svg	10	yes	57	0	743
6.6.1	win	2022-12-15	20:58:34	21:07:08	512870	5da23c68cf775d001724d361	552277658	1	main_slash	11	main_slash	7	stimuli_target_diamondsquares.svg	stimuli_distractor_diamondtriangles.svg	24	yes	53	1	545
6.6.1	win	2022-12-15	20:58:34	21:07:08	512870	5da23c68cf775d001724d361	552277658	1	main_slash	11	advance_on_keypress_SLASH	8	stimuli_target_diamondsquares.svg	stimuli_distractor_diamondtriangles.svg	24	yes	57	0	549
6.6.1	win	2022-12-15	20:58:34	21:07:10	514502	5da23c68cf775d001724d361	552277658	1	main_slash	11	main_slash	9	stimuli_distractor_trianglediamonds.svg	stimuli_target_diamondsquares.svg	28	yes	53	1	431
6.6.1	win	2022-12-15	20:58:34	21:07:10	514502	5da23c68cf775d001724d361	552277658	1	main_slash	11	advance_on_keypress_SLASH	10	stimuli_distractor_trianglediamonds.svg	stimuli_target_diamondsquares.svg	28	yes	57	0	656
6.6.1	win	2022-12-15	20:58:34	21:07:13	517800	5da23c68cf775d001724d361	552277658	1	main_slash	11	main_slash	11	stimuli_distractor_trianglediamonds.svg	stimuli_distractor_trianglediamonds.svg	34	no	0	1	2000
6.6.1	win	2022-12-15	20:58:34	21:07:13	517800	5da23c68cf775d001724d361	552277658	1	main_slash	11	advance_on_keypress_SLASH	12	stimuli_distractor_trianglediamonds.svg	stimuli_distractor_trianglediamonds.svg	34	no	57	0	355
6.6.1	win	2022-12-15	20:58:34	21:07:16	520794	5da23c68cf775d001724d361	552277658	1	main_slash	11	main_slash	13	stimuli_distractor_trianglediamonds.svg	stimuli_distractor_diamondtriangles.svg	35	no	0	1	2000
6.6.1	win	2022-12-15	20:58:34	21:07:16	520794	5da23c68cf775d001724d361	552277658	1	main_slash	11	advance_on_keypress_SLASH	14	stimuli_distractor_trianglediamonds.svg	stimuli_distractor_diamondtriangles.svg	35	no	57	0	344
6.6.1	win	2022-12-15	20:58:34	21:07:18	522528	5da23c68cf775d001724d361	552277658	1	main_slash	11	main_slash	15	stimuli_distractor_diamondtriangles.svg	stimuli_target_circlediamonds.svg	14	yes	53	1	739
6.6.1	win	2022-12-15	20:58:34	21:07:18	522528	5da23c68cf775d001724d361	552277658	1	main_slash	11	advance_on_keypress_SLASH	16	stimuli_distractor_diamondtriangles.svg	stimuli_target_circlediamonds.svg	14	yes	57	0	697
6.6.1	win	2022-12-15	20:58:34	21:07:21	525867	5da23c68cf775d001724d361	552277658	1	main_slash	11	main_slash	17	stimuli_distractor_diamondtriangles.svg	stimuli_distractor_trianglediamonds.svg	37	no	0	1	2000
6.6.1	win	2022-12-15	20:58:34	21:07:21	525867	5da23c68cf775d001724d361	552277658	1	main_slash	11	advance_on_keypress_SLASH	18	stimuli_distractor_diamondtriangles.svg	stimuli_distractor_trianglediamonds.svg	37	no	57	0	608
6.6.1	win	2022-12-15	20:58:34	21:07:23	527742	5da23c68cf775d001724d361	552277658	1	main_slash	11	main_slash	19	stimuli_distractor_diamondtriangles.svg	stimuli_target_squarediamonds.svg	16	yes	53	1	633
6.6.1	win	2022-12-15	20:58:34	21:07:23	527742	5da23c68cf775d001724d361	552277658	1	main_slash	11	advance_on_keypress_SLASH	20	stimuli_distractor_diamondtriangles.svg	stimuli_target_squarediamonds.svg	16	yes	57	0	672
6.6.1	win	2022-12-15	20:58:34	21:07:25	529974	5da23c68cf775d001724d361	552277658	1	main_slash	11	main_slash	21	stimuli_target_trianglesquares.svg	stimuli_distractor_diamondtriangles.svg	22	yes	53	1	918
6.6.1	win	2022-12-15	20:58:34	21:07:25	529974	5da23c68cf775d001724d361	552277658	1	main_slash	11	advance_on_keypress_SLASH	22	stimuli_target_trianglesquares.svg	stimuli_distractor_diamondtriangles.svg	22	yes	57	0	941
6.6.1	win	2022-12-15	20:58:34	21:07:27	532096	5da23c68cf775d001724d361	552277658	1	main_slash	11	main_slash	23	stimuli_distractor_trianglediamonds.svg	stimuli_target_trianglecircles.svg	25	yes	53	1	544
6.6.1	win	2022-12-15	20:58:34	21:07:27	532096	5da23c68cf775d001724d361	552277658	1	main_slash	11	advance_on_keypress_SLASH	24	stimuli_distractor_trianglediamonds.svg	stimuli_target_trianglecircles.svg	25	yes	57	0	4693
6.6.1	win	2022-12-15	20:58:34	21:07:35	539438	5da23c68cf775d001724d361	552277658	1	main_slash	11	main_slash	25	stimuli_distractor_trianglediamonds.svg	stimuli_distractor_diamondtriangles.svg	36	no	0	1	2000
6.6.1	win	2022-12-15	20:58:34	21:07:35	539438	5da23c68cf775d001724d361	552277658	1	main_slash	11	advance_on_keypress_SLASH	26	stimuli_distractor_trianglediamonds.svg	stimuli_distractor_diamondtriangles.svg	36	no	57	0	622
6.6.1	win	2022-12-15	20:58:34	21:07:37	541430	5da23c68cf775d001724d361	552277658	1	main_slash	11	main_slash	27	stimuli_target_circlediamonds.svg	stimuli_distractor_trianglediamonds.svg	2	yes	53	1	733
6.6.1	win	2022-12-15	20:58:34	21:07:37	541430	5da23c68cf775d001724d361	552277658	1	main_slash	11	advance_on_keypress_SLASH	28	stimuli_target_circlediamonds.svg	stimuli_distractor_trianglediamonds.svg	2	yes	57	0	506
6.6.1	win	2022-12-15	20:58:34	21:07:40	544577	5da23c68cf775d001724d361	552277658	1	main_slash	11	main_slash	29	stimuli_distractor_diamondtriangles.svg	stimuli_distractor_diamondtriangles.svg	40	no	0	1	2000
6.6.1	win	2022-12-15	20:58:34	21:07:40	544577	5da23c68cf775d001724d361	552277658	1	main_slash	11	advance_on_keypress_SLASH	30	stimuli_distractor_diamondtriangles.svg	stimuli_distractor_diamondtriangles.svg	40	no	57	0	443
6.6.1	win	2022-12-15	20:58:34	21:07:42	546671	5da23c68cf775d001724d361	552277658	1	main_slash	11	main_slash	31	stimuli_target_diamondsquares.svg	stimuli_distractor_trianglediamonds.svg	20	yes	53	1	1000
6.6.1	win	2022-12-15	20:58:34	21:07:42	546671	5da23c68cf775d001724d361	552277658	1	main_slash	11	advance_on_keypress_SLASH	32	stimuli_target_diamondsquares.svg	stimuli_distractor_trianglediamonds.svg	20	yes	57	0	555
6.6.1	win	2022-12-15	20:58:34	21:07:45	549866	5da23c68cf775d001724d361	552277658	1	main_slash	11	main_slash	33	stimuli_distractor_diamondtriangles.svg	stimuli_distractor_diamondtriangles.svg	39	no	0	1	2000
6.6.1	win	2022-12-15	20:58:34	21:07:45	549866	5da23c68cf775d001724d361	552277658	1	main_slash	11	advance_on_keypress_SLASH	34	stimuli_distractor_diamondtriangles.svg	stimuli_distractor_diamondtriangles.svg	39	no	57	0	500
6.6.1	win	2022-12-15	20:58:34	21:07:47	551975	5da23c68cf775d001724d361	552277658	1	main_slash	11	main_slash	35	stimuli_distractor_trianglediamonds.svg	stimuli_target_diamondcircles.svg	27	yes	53	1	966
6.6.1	win	2022-12-15	20:58:34	21:07:47	551975	5da23c68cf775d001724d361	552277658	1	main_slash	11	advance_on_keypress_SLASH	36	stimuli_distractor_trianglediamonds.svg	stimuli_target_diamondcircles.svg	27	yes	57	0	786
6.6.1	win	2022-12-15	20:58:34	21:07:49	554110	5da23c68cf775d001724d361	552277658	1	main_slash	11	main_slash	37	stimuli_distractor_diamondtriangles.svg	stimuli_target_squaretriangles.svg	15	yes	53	1	706
6.6.1	win	2022-12-15	20:58:34	21:07:49	554110	5da23c68cf775d001724d361	552277658	1	main_slash	11	advance_on_keypress_SLASH	38	stimuli_distractor_diamondtriangles.svg	stimuli_target_squaretriangles.svg	15	yes	57	0	568
6.6.1	win	2022-12-15	20:58:34	21:07:51	556055	5da23c68cf775d001724d361	552277658	1	main_slash	11	main_slash	39	stimuli_target_squaretriangles.svg	stimuli_distractor_diamondtriangles.svg	7	yes	53	1	738
6.6.1	win	2022-12-15	20:58:34	21:07:51	556055	5da23c68cf775d001724d361	552277658	1	main_slash	11	advance_on_keypress_SLASH	40	stimuli_target_squaretriangles.svg	stimuli_distractor_diamondtriangles.svg	7	yes	57	0	519
6.6.1	win	2022-12-15	20:58:34	21:07:53	558128	5da23c68cf775d001724d361	552277658	1	main_slash	11	main_slash	41	stimuli_distractor_diamondtriangles.svg	stimuli_target_diamondcircles.svg	31	yes	53	1	915
6.6.1	win	2022-12-15	20:58:34	21:07:53	558128	5da23c68cf775d001724d361	552277658	1	main_slash	11	advance_on_keypress_SLASH	42	stimuli_distractor_diamondtriangles.svg	stimuli_target_diamondcircles.svg	31	yes	57	0	464
6.6.1	win	2022-12-15	20:58:34	21:07:55	560071	5da23c68cf775d001724d361	552277658	1	main_slash	11	main_slash	43	stimuli_distractor_diamondtriangles.svg	stimuli_target_diamondsquares.svg	32	yes	53	1	829
6.6.1	win	2022-12-15	20:58:34	21:07:55	560071	5da23c68cf775d001724d361	552277658	1	main_slash	11	advance_on_keypress_SLASH	44	stimuli_distractor_diamondtriangles.svg	stimuli_target_diamondsquares.svg	32	yes	57	0	493
6.6.1	win	2022-12-15	20:58:34	21:07:57	562079	5da23c68cf775d001724d361	552277658	1	main_slash	11	main_slash	45	stimuli_distractor_trianglediamonds.svg	stimuli_target_squarediamonds.svg	12	yes	53	1	858
6.6.1	win	2022-12-15	20:58:34	21:07:57	562079	5da23c68cf775d001724d361	552277658	1	main_slash	11	advance_on_keypress_SLASH	46	stimuli_distractor_trianglediamonds.svg	stimuli_target_squarediamonds.svg	12	yes	57	0	497
6.6.1	win	2022-12-15	20:58:34	21:08:00	564207	5da23c68cf775d001724d361	552277658	1	main_slash	11	main_slash	47	stimuli_target_circletriangles.svg	stimuli_distractor_diamondtriangles.svg	5	yes	53	1	990
6.6.1	win	2022-12-15	20:58:34	21:08:00	564207	5da23c68cf775d001724d361	552277658	1	main_slash	11	advance_on_keypress_SLASH	48	stimuli_target_circletriangles.svg	stimuli_distractor_diamondtriangles.svg	5	yes	57	0	553
6.6.1	win	2022-12-15	20:58:34	21:08:02	566319	5da23c68cf775d001724d361	552277658	1	main_slash	11	main_slash	49	stimuli_target_trianglesquares.svg	stimuli_distractor_trianglediamonds.svg	18	yes	53	1	924
6.6.1	win	2022-12-15	20:58:34	21:08:02	566319	5da23c68cf775d001724d361	552277658	1	main_slash	11	advance_on_keypress_SLASH	50	stimuli_target_trianglesquares.svg	stimuli_distractor_trianglediamonds.svg	18	yes	57	0	2306
6.6.1	win	2022-12-15	20:58:34	21:08:07	571253	5da23c68cf775d001724d361	552277658	1	main_slash	11	main_slash	51	stimuli_distractor_trianglediamonds.svg	stimuli_distractor_trianglediamonds.svg	33	no	0	1	2000
6.6.1	win	2022-12-15	20:58:34	21:08:07	571253	5da23c68cf775d001724d361	552277658	1	main_slash	11	advance_on_keypress_SLASH	52	stimuli_distractor_trianglediamonds.svg	stimuli_distractor_trianglediamonds.svg	33	no	57	0	469
6.6.1	win	2022-12-15	20:58:34	21:08:10	574363	5da23c68cf775d001724d361	552277658	1	main_slash	11	main_slash	53	stimuli_distractor_diamondtriangles.svg	stimuli_distractor_trianglediamonds.svg	38	no	0	1	2000
6.6.1	win	2022-12-15	20:58:34	21:08:10	574363	5da23c68cf775d001724d361	552277658	1	main_slash	11	advance_on_keypress_SLASH	54	stimuli_distractor_diamondtriangles.svg	stimuli_distractor_trianglediamonds.svg	38	no	57	0	400
6.6.1	win	2022-12-15	20:58:34	21:08:12	576271	5da23c68cf775d001724d361	552277658	1	main_slash	11	main_slash	55	stimuli_target_diamondcircles.svg	stimuli_distractor_diamondtriangles.svg	23	yes	53	1	864
6.6.1	win	2022-12-15	20:58:34	21:08:12	576271	5da23c68cf775d001724d361	552277658	1	main_slash	11	advance_on_keypress_SLASH	56	stimuli_target_diamondcircles.svg	stimuli_distractor_diamondtriangles.svg	23	yes	57	0	575
6.6.1	win	2022-12-15	20:58:34	21:08:14	579127	5da23c68cf775d001724d361	552277658	1	main_slash	11	main_slash	57	stimuli_target_squaretriangles.svg	stimuli_distractor_trianglediamonds.svg	3	yes	53	1	1641
6.6.1	win	2022-12-15	20:58:34	21:08:14	579127	5da23c68cf775d001724d361	552277658	1	main_slash	11	advance_on_keypress_SLASH	58	stimuli_target_squaretriangles.svg	stimuli_distractor_trianglediamonds.svg	3	yes	57	0	707
6.6.1	win	2022-12-15	20:58:34	21:08:16	581200	5da23c68cf775d001724d361	552277658	1	main_slash	11	main_slash	59	stimuli_target_squarediamonds.svg	stimuli_distractor_trianglediamonds.svg	4	yes	53	1	720
6.6.1	win	2022-12-15	20:58:34	21:08:16	581200	5da23c68cf775d001724d361	552277658	1	main_slash	11	advance_on_keypress_SLASH	60	stimuli_target_squarediamonds.svg	stimuli_distractor_trianglediamonds.svg	4	yes	57	0	516
6.6.1	win	2022-12-15	20:58:34	21:08:18	583095	5da23c68cf775d001724d361	552277658	1	main_slash	11	main_slash	61	stimuli_distractor_trianglediamonds.svg	stimuli_target_circletriangles.svg	9	yes	53	1	736
6.6.1	win	2022-12-15	20:58:34	21:08:18	583095	5da23c68cf775d001724d361	552277658	1	main_slash	11	advance_on_keypress_SLASH	62	stimuli_distractor_trianglediamonds.svg	stimuli_target_circletriangles.svg	9	yes	57	0	517
6.6.1	win	2022-12-15	20:58:34	21:08:21	585223	5da23c68cf775d001724d361	552277658	1	main_slash	11	main_slash	63	stimuli_distractor_trianglediamonds.svg	stimuli_target_trianglesquares.svg	26	yes	53	1	968
6.6.1	win	2022-12-15	20:58:34	21:08:21	585223	5da23c68cf775d001724d361	552277658	1	main_slash	11	advance_on_keypress_SLASH	64	stimuli_distractor_trianglediamonds.svg	stimuli_target_trianglesquares.svg	26	yes	57	0	540
6.6.1	win	2022-12-15	20:58:34	21:08:22	587000	5da23c68cf775d001724d361	552277658	1	main_slash	11	main_slash	65	stimuli_distractor_diamondtriangles.svg	stimuli_target_trianglesquares.svg	30	yes	53	1	599
6.6.1	win	2022-12-15	20:58:34	21:08:22	587000	5da23c68cf775d001724d361	552277658	1	main_slash	11	advance_on_keypress_SLASH	66	stimuli_distractor_diamondtriangles.svg	stimuli_target_trianglesquares.svg	30	yes	57	0	960
6.6.1	win	2022-12-15	20:58:34	21:08:25	589526	5da23c68cf775d001724d361	552277658	1	main_slash	11	main_slash	67	stimuli_target_circlediamonds.svg	stimuli_distractor_diamondtriangles.svg	6	yes	53	1	913
6.6.1	win	2022-12-15	20:58:34	21:08:25	589526	5da23c68cf775d001724d361	552277658	1	main_slash	11	advance_on_keypress_SLASH	68	stimuli_target_circlediamonds.svg	stimuli_distractor_diamondtriangles.svg	6	yes	57	0	735
6.6.1	win	2022-12-15	20:58:34	21:08:27	591534	5da23c68cf775d001724d361	552277658	1	main_slash	11	main_slash	69	stimuli_distractor_trianglediamonds.svg	stimuli_target_squaretriangles.svg	11	yes	53	1	626
6.6.1	win	2022-12-15	20:58:34	21:08:27	591534	5da23c68cf775d001724d361	552277658	1	main_slash	11	advance_on_keypress_SLASH	70	stimuli_distractor_trianglediamonds.svg	stimuli_target_squaretriangles.svg	11	yes	57	0	524
6.6.1	win	2022-12-15	20:58:34	21:08:29	593390	5da23c68cf775d001724d361	552277658	1	main_slash	11	main_slash	71	stimuli_distractor_diamondtriangles.svg	stimuli_target_circletriangles.svg	13	yes	53	1	686
6.6.1	win	2022-12-15	20:58:34	21:08:29	593390	5da23c68cf775d001724d361	552277658	1	main_slash	11	advance_on_keypress_SLASH	72	stimuli_distractor_diamondtriangles.svg	stimuli_target_circletriangles.svg	13	yes	57	0	598
6.6.1	win	2022-12-15	20:58:34	21:08:31	595302	5da23c68cf775d001724d361	552277658	1	main_slash	11	main_slash	73	stimuli_distractor_diamondtriangles.svg	stimuli_target_trianglecircles.svg	29	yes	53	1	669
6.6.1	win	2022-12-15	20:58:34	21:08:31	595302	5da23c68cf775d001724d361	552277658	1	main_slash	11	advance_on_keypress_SLASH	74	stimuli_distractor_diamondtriangles.svg	stimuli_target_trianglecircles.svg	29	yes	57	0	565
6.6.1	win	2022-12-15	20:58:34	21:08:33	597249	5da23c68cf775d001724d361	552277658	1	main_slash	11	main_slash	75	stimuli_target_diamondcircles.svg	stimuli_distractor_trianglediamonds.svg	19	yes	53	1	737
6.6.1	win	2022-12-15	20:58:34	21:08:33	597249	5da23c68cf775d001724d361	552277658	1	main_slash	11	advance_on_keypress_SLASH	76	stimuli_target_diamondcircles.svg	stimuli_distractor_trianglediamonds.svg	19	yes	57	0	430
6.6.1	win	2022-12-15	20:58:34	21:08:34	599126	5da23c68cf775d001724d361	552277658	1	main_slash	11	main_slash	77	stimuli_target_trianglecircles.svg	stimuli_distractor_trianglediamonds.svg	17	yes	53	1	801
6.6.1	win	2022-12-15	20:58:34	21:08:34	599126	5da23c68cf775d001724d361	552277658	1	main_slash	11	advance_on_keypress_SLASH	78	stimuli_target_trianglecircles.svg	stimuli_distractor_trianglediamonds.svg	17	yes	57	0	486
6.6.1	win	2022-12-15	20:58:34	21:08:36	600935	5da23c68cf775d001724d361	552277658	1	main_slash	11	main_slash	79	stimuli_target_squarediamonds.svg	stimuli_distractor_diamondtriangles.svg	8	yes	53	1	680
6.6.1	win	2022-12-15	20:58:34	21:08:36	600935	5da23c68cf775d001724d361	552277658	1	main_slash	11	advance_on_keypress_SLASH	80	stimuli_target_squarediamonds.svg	stimuli_distractor_diamondtriangles.svg	8	yes	57	0	455
6.6.1	win	2022-12-15	20:58:34	21:08:38	602672	5da23c68cf775d001724d361	552277658	1	main_slash	11	main_slash	81	stimuli_target_diamondsquares.svg	stimuli_distractor_diamondtriangles.svg	24	yes	53	1	638
6.6.1	win	2022-12-15	20:58:34	21:08:38	602672	5da23c68cf775d001724d361	552277658	1	main_slash	11	advance_on_keypress_SLASH	82	stimuli_target_diamondsquares.svg	stimuli_distractor_diamondtriangles.svg	24	yes	57	0	534
6.6.1	win	2022-12-15	20:58:34	21:08:40	604382	5da23c68cf775d001724d361	552277658	1	main_slash	11	main_slash	83	stimuli_distractor_diamondtriangles.svg	stimuli_target_circlediamonds.svg	14	yes	53	1	536
6.6.1	win	2022-12-15	20:58:34	21:08:40	604382	5da23c68cf775d001724d361	552277658	1	main_slash	11	advance_on_keypress_SLASH	84	stimuli_distractor_diamondtriangles.svg	stimuli_target_circlediamonds.svg	14	yes	57	0	581
6.6.1	win	2022-12-15	20:58:34	21:08:42	606247	5da23c68cf775d001724d361	552277658	1	main_slash	11	main_slash	85	stimuli_target_circlediamonds.svg	stimuli_distractor_trianglediamonds.svg	2	yes	53	1	637
6.6.1	win	2022-12-15	20:58:34	21:08:42	606247	5da23c68cf775d001724d361	552277658	1	main_slash	11	advance_on_keypress_SLASH	86	stimuli_target_circlediamonds.svg	stimuli_distractor_trianglediamonds.svg	2	yes	57	0	814
6.6.1	win	2022-12-15	20:58:34	21:08:44	608999	5da23c68cf775d001724d361	552277658	1	main_slash	11	main_slash	87	stimuli_distractor_diamondtriangles.svg	stimuli_distractor_trianglediamonds.svg	37	no	53	0	1294
6.6.1	win	2022-12-15	20:58:34	21:08:44	608999	5da23c68cf775d001724d361	552277658	1	main_slash	11	advance_on_keypress_SLASH	88	stimuli_distractor_diamondtriangles.svg	stimuli_distractor_trianglediamonds.svg	37	no	57	0	580
6.6.1	win	2022-12-15	20:58:34	21:08:46	610991	5da23c68cf775d001724d361	552277658	1	main_slash	11	main_slash	89	stimuli_distractor_trianglediamonds.svg	stimuli_target_squarediamonds.svg	12	yes	53	1	758
6.6.1	win	2022-12-15	20:58:34	21:08:46	610991	5da23c68cf775d001724d361	552277658	1	main_slash	11	advance_on_keypress_SLASH	90	stimuli_distractor_trianglediamonds.svg	stimuli_target_squarediamonds.svg	12	yes	57	0	489
6.6.1	win	2022-12-15	20:58:34	21:08:48	612863	5da23c68cf775d001724d361	552277658	1	main_slash	11	main_slash	91	stimuli_distractor_trianglediamonds.svg	stimuli_target_circletriangles.svg	9	yes	53	1	751
6.6.1	win	2022-12-15	20:58:34	21:08:48	612863	5da23c68cf775d001724d361	552277658	1	main_slash	11	advance_on_keypress_SLASH	92	stimuli_distractor_trianglediamonds.svg	stimuli_target_circletriangles.svg	9	yes	57	0	467
6.6.1	win	2022-12-15	20:58:34	21:08:50	614990	5da23c68cf775d001724d361	552277658	1	main_slash	11	main_slash	93	stimuli_distractor_trianglediamonds.svg	stimuli_distractor_diamondtriangles.svg	36	no	53	0	1016
6.6.1	win	2022-12-15	20:58:34	21:08:50	614990	5da23c68cf775d001724d361	552277658	1	main_slash	11	advance_on_keypress_SLASH	94	stimuli_distractor_trianglediamonds.svg	stimuli_distractor_diamondtriangles.svg	36	no	57	0	754
6.6.1	win	2022-12-15	20:58:34	21:08:52	617144	5da23c68cf775d001724d361	552277658	1	main_slash	11	main_slash	95	stimuli_target_diamondcircles.svg	stimuli_distractor_diamondtriangles.svg	23	yes	53	1	756
6.6.1	win	2022-12-15	20:58:34	21:08:52	617144	5da23c68cf775d001724d361	552277658	1	main_slash	11	advance_on_keypress_SLASH	96	stimuli_target_diamondcircles.svg	stimuli_distractor_diamondtriangles.svg	23	yes	57	0	384
6.6.1	win	2022-12-15	20:58:34	21:08:54	619174	5da23c68cf775d001724d361	552277658	1	main_slash	11	main_slash	97	stimuli_target_circlediamonds.svg	stimuli_distractor_diamondtriangles.svg	6	yes	53	1	1008
6.6.1	win	2022-12-15	20:58:34	21:08:54	619174	5da23c68cf775d001724d361	552277658	1	main_slash	11	advance_on_keypress_SLASH	98	stimuli_target_circlediamonds.svg	stimuli_distractor_diamondtriangles.svg	6	yes	57	0	428
6.6.1	win	2022-12-15	20:58:34	21:08:58	622228	5da23c68cf775d001724d361	552277658	1	main_slash	11	main_slash	99	stimuli_distractor_trianglediamonds.svg	stimuli_distractor_trianglediamonds.svg	33	no	0	1	2000
6.6.1	win	2022-12-15	20:58:34	21:08:58	622228	5da23c68cf775d001724d361	552277658	1	main_slash	11	advance_on_keypress_SLASH	100	stimuli_distractor_trianglediamonds.svg	stimuli_distractor_trianglediamonds.svg	33	no	57	0	311
6.6.1	win	2022-12-15	20:58:34	21:08:59	623910	5da23c68cf775d001724d361	552277658	1	main_slash	11	main_slash	101	stimuli_target_trianglecircles.svg	stimuli_distractor_trianglediamonds.svg	17	yes	53	1	721
6.6.1	win	2022-12-15	20:58:34	21:08:59	623910	5da23c68cf775d001724d361	552277658	1	main_slash	11	advance_on_keypress_SLASH	102	stimuli_target_trianglecircles.svg	stimuli_distractor_trianglediamonds.svg	17	yes	57	0	383
6.6.1	win	2022-12-15	20:58:34	21:09:01	625695	5da23c68cf775d001724d361	552277658	1	main_slash	11	main_slash	103	stimuli_distractor_diamondtriangles.svg	stimuli_target_trianglecircles.svg	29	yes	53	1	760
6.6.1	win	2022-12-15	20:58:34	21:09:01	625695	5da23c68cf775d001724d361	552277658	1	main_slash	11	advance_on_keypress_SLASH	104	stimuli_distractor_diamondtriangles.svg	stimuli_target_trianglecircles.svg	29	yes	57	0	435
6.6.1	win	2022-12-15	20:58:34	21:09:04	628781	5da23c68cf775d001724d361	552277658	1	main_slash	11	main_slash	105	stimuli_distractor_trianglediamonds.svg	stimuli_distractor_trianglediamonds.svg	34	no	0	1	2000
6.6.1	win	2022-12-15	20:58:34	21:09:04	628781	5da23c68cf775d001724d361	552277658	1	main_slash	11	advance_on_keypress_SLASH	106	stimuli_distractor_trianglediamonds.svg	stimuli_distractor_trianglediamonds.svg	34	no	57	0	375
6.6.1	win	2022-12-15	20:58:34	21:09:07	631791	5da23c68cf775d001724d361	552277658	1	main_slash	11	main_slash	107	stimuli_distractor_diamondtriangles.svg	stimuli_distractor_trianglediamonds.svg	38	no	0	1	2000
6.6.1	win	2022-12-15	20:58:34	21:09:07	631791	5da23c68cf775d001724d361	552277658	1	main_slash	11	advance_on_keypress_SLASH	108	stimuli_distractor_diamondtriangles.svg	stimuli_distractor_trianglediamonds.svg	38	no	57	0	371
6.6.1	win	2022-12-15	20:58:34	21:09:09	633639	5da23c68cf775d001724d361	552277658	1	main_slash	11	main_slash	109	stimuli_target_circletriangles.svg	stimuli_distractor_diamondtriangles.svg	5	yes	53	1	837
6.6.1	win	2022-12-15	20:58:34	21:09:09	633639	5da23c68cf775d001724d361	552277658	1	main_slash	11	advance_on_keypress_SLASH	110	stimuli_target_circletriangles.svg	stimuli_distractor_diamondtriangles.svg	5	yes	57	0	557
6.6.1	win	2022-12-15	20:58:34	21:09:11	635656	5da23c68cf775d001724d361	552277658	1	main_slash	11	main_slash	111	stimuli_target_trianglesquares.svg	stimuli_distractor_diamondtriangles.svg	22	yes	53	1	824
6.6.1	win	2022-12-15	20:58:34	21:09:11	635656	5da23c68cf775d001724d361	552277658	1	main_slash	11	advance_on_keypress_SLASH	112	stimuli_target_trianglesquares.svg	stimuli_distractor_diamondtriangles.svg	22	yes	57	0	482
6.6.1	win	2022-12-15	20:58:34	21:09:13	637719	5da23c68cf775d001724d361	552277658	1	main_slash	11	main_slash	113	stimuli_distractor_trianglediamonds.svg	stimuli_target_squaretriangles.svg	11	yes	53	1	942
6.6.1	win	2022-12-15	20:58:34	21:09:13	637719	5da23c68cf775d001724d361	552277658	1	main_slash	11	advance_on_keypress_SLASH	114	stimuli_distractor_trianglediamonds.svg	stimuli_target_squaretriangles.svg	11	yes	57	0	483
6.6.1	win	2022-12-15	20:58:34	21:09:15	639703	5da23c68cf775d001724d361	552277658	1	main_slash	11	main_slash	115	stimuli_target_squarediamonds.svg	stimuli_distractor_diamondtriangles.svg	8	yes	53	1	847
6.6.1	win	2022-12-15	20:58:34	21:09:15	639703	5da23c68cf775d001724d361	552277658	1	main_slash	11	advance_on_keypress_SLASH	116	stimuli_target_squarediamonds.svg	stimuli_distractor_diamondtriangles.svg	8	yes	57	0	552
6.6.1	win	2022-12-15	20:58:34	21:09:18	642901	5da23c68cf775d001724d361	552277658	1	main_slash	11	main_slash	117	stimuli_distractor_diamondtriangles.svg	stimuli_distractor_diamondtriangles.svg	40	no	0	1	2000
6.6.1	win	2022-12-15	20:58:34	21:09:18	642901	5da23c68cf775d001724d361	552277658	1	main_slash	11	advance_on_keypress_SLASH	118	stimuli_distractor_diamondtriangles.svg	stimuli_distractor_diamondtriangles.svg	40	no	57	0	287
6.6.1	win	2022-12-15	20:58:34	21:09:20	644823	5da23c68cf775d001724d361	552277658	1	main_slash	11	main_slash	119	stimuli_distractor_trianglediamonds.svg	stimuli_target_trianglesquares.svg	26	yes	53	1	995
6.6.1	win	2022-12-15	20:58:34	21:09:20	644823	5da23c68cf775d001724d361	552277658	1	main_slash	11	advance_on_keypress_SLASH	120	stimuli_distractor_trianglediamonds.svg	stimuli_target_trianglesquares.svg	26	yes	57	0	517
6.6.1	win	2022-12-15	20:58:34	21:09:22	646680	5da23c68cf775d001724d361	552277658	1	main_slash	11	main_slash	121	stimuli_distractor_trianglediamonds.svg	stimuli_target_diamondcircles.svg	27	yes	53	1	691
6.6.1	win	2022-12-15	20:58:34	21:09:22	646680	5da23c68cf775d001724d361	552277658	1	main_slash	11	advance_on_keypress_SLASH	122	stimuli_distractor_trianglediamonds.svg	stimuli_target_diamondcircles.svg	27	yes	57	0	423
6.6.1	win	2022-12-15	20:58:34	21:09:24	648446	5da23c68cf775d001724d361	552277658	1	main_slash	11	main_slash	123	stimuli_target_circletriangles.svg	stimuli_distractor_trianglediamonds.svg	1	yes	53	1	709
6.6.1	win	2022-12-15	20:58:34	21:09:24	648446	5da23c68cf775d001724d361	552277658	1	main_slash	11	advance_on_keypress_SLASH	124	stimuli_target_circletriangles.svg	stimuli_distractor_trianglediamonds.svg	1	yes	57	0	412
6.6.1	win	2022-12-15	20:58:34	21:09:25	650182	5da23c68cf775d001724d361	552277658	1	main_slash	11	main_slash	125	stimuli_distractor_trianglediamonds.svg	stimuli_target_trianglecircles.svg	25	yes	53	1	666
6.6.1	win	2022-12-15	20:58:34	21:09:25	650182	5da23c68cf775d001724d361	552277658	1	main_slash	11	advance_on_keypress_SLASH	126	stimuli_distractor_trianglediamonds.svg	stimuli_target_trianglecircles.svg	25	yes	57	0	434
6.6.1	win	2022-12-15	20:58:34	21:09:27	651918	5da23c68cf775d001724d361	552277658	1	main_slash	11	main_slash	127	stimuli_target_squaretriangles.svg	stimuli_distractor_trianglediamonds.svg	3	yes	53	1	657
6.6.1	win	2022-12-15	20:58:34	21:09:27	651918	5da23c68cf775d001724d361	552277658	1	main_slash	11	advance_on_keypress_SLASH	128	stimuli_target_squaretriangles.svg	stimuli_distractor_trianglediamonds.svg	3	yes	57	0	561
6.6.1	win	2022-12-15	20:58:34	21:09:29	653839	5da23c68cf775d001724d361	552277658	1	main_slash	11	main_slash	129	stimuli_target_squarediamonds.svg	stimuli_distractor_trianglediamonds.svg	4	yes	53	1	730
6.6.1	win	2022-12-15	20:58:34	21:09:29	653839	5da23c68cf775d001724d361	552277658	1	main_slash	11	advance_on_keypress_SLASH	130	stimuli_target_squarediamonds.svg	stimuli_distractor_trianglediamonds.svg	4	yes	57	0	4022
6.6.1	win	2022-12-15	20:58:34	21:09:34	659095	5da23c68cf775d001724d361	552277658	1	main_slash	11	main_slash	131	stimuli_distractor_diamondtriangles.svg	stimuli_target_diamondcircles.svg	31	yes	53	1	581
6.6.1	win	2022-12-15	20:58:34	21:09:34	659095	5da23c68cf775d001724d361	552277658	1	main_slash	11	advance_on_keypress_SLASH	132	stimuli_distractor_diamondtriangles.svg	stimuli_target_diamondcircles.svg	31	yes	57	0	496
6.6.1	win	2022-12-15	20:58:34	21:09:38	662243	5da23c68cf775d001724d361	552277658	1	main_slash	11	main_slash	133	stimuli_distractor_trianglediamonds.svg	stimuli_distractor_diamondtriangles.svg	35	no	0	1	2000
6.6.1	win	2022-12-15	20:58:34	21:09:38	662243	5da23c68cf775d001724d361	552277658	1	main_slash	11	advance_on_keypress_SLASH	134	stimuli_distractor_trianglediamonds.svg	stimuli_distractor_diamondtriangles.svg	35	no	57	0	321
6.6.1	win	2022-12-15	20:58:34	21:09:39	663878	5da23c68cf775d001724d361	552277658	1	main_slash	11	main_slash	135	stimuli_target_trianglecircles.svg	stimuli_distractor_diamondtriangles.svg	21	yes	53	1	674
6.6.1	win	2022-12-15	20:58:34	21:09:39	663878	5da23c68cf775d001724d361	552277658	1	main_slash	11	advance_on_keypress_SLASH	136	stimuli_target_trianglecircles.svg	stimuli_distractor_diamondtriangles.svg	21	yes	57	0	508
6.6.1	win	2022-12-15	20:58:34	21:09:41	665831	5da23c68cf775d001724d361	552277658	1	main_slash	11	main_slash	137	stimuli_distractor_trianglediamonds.svg	stimuli_target_diamondsquares.svg	28	yes	53	1	814
6.6.1	win	2022-12-15	20:58:34	21:09:41	665831	5da23c68cf775d001724d361	552277658	1	main_slash	11	advance_on_keypress_SLASH	138	stimuli_distractor_trianglediamonds.svg	stimuli_target_diamondsquares.svg	28	yes	57	0	495
6.6.1	win	2022-12-15	20:58:34	21:09:43	667678	5da23c68cf775d001724d361	552277658	1	main_slash	11	main_slash	139	stimuli_distractor_diamondtriangles.svg	stimuli_target_diamondsquares.svg	32	yes	53	1	700
6.6.1	win	2022-12-15	20:58:34	21:09:43	667678	5da23c68cf775d001724d361	552277658	1	main_slash	11	advance_on_keypress_SLASH	140	stimuli_distractor_diamondtriangles.svg	stimuli_target_diamondsquares.svg	32	yes	57	0	506
6.6.1	win	2022-12-15	20:58:34	21:09:45	669607	5da23c68cf775d001724d361	552277658	1	main_slash	11	main_slash	141	stimuli_distractor_diamondtriangles.svg	stimuli_target_squarediamonds.svg	16	yes	53	1	782
6.6.1	win	2022-12-15	20:58:34	21:09:45	669607	5da23c68cf775d001724d361	552277658	1	main_slash	11	advance_on_keypress_SLASH	142	stimuli_distractor_diamondtriangles.svg	stimuli_target_squarediamonds.svg	16	yes	57	0	426
6.6.1	win	2022-12-15	20:58:34	21:09:47	671406	5da23c68cf775d001724d361	552277658	1	main_slash	11	main_slash	143	stimuli_distractor_trianglediamonds.svg	stimuli_target_circlediamonds.svg	10	yes	53	1	735
6.6.1	win	2022-12-15	20:58:34	21:09:47	671406	5da23c68cf775d001724d361	552277658	1	main_slash	11	advance_on_keypress_SLASH	144	stimuli_distractor_trianglediamonds.svg	stimuli_target_circlediamonds.svg	10	yes	57	0	461
6.6.1	win	2022-12-15	20:58:34	21:09:48	673135	5da23c68cf775d001724d361	552277658	1	main_slash	11	main_slash	145	stimuli_target_trianglesquares.svg	stimuli_distractor_trianglediamonds.svg	18	yes	53	1	634
6.6.1	win	2022-12-15	20:58:34	21:09:48	673135	5da23c68cf775d001724d361	552277658	1	main_slash	11	advance_on_keypress_SLASH	146	stimuli_target_trianglesquares.svg	stimuli_distractor_trianglediamonds.svg	18	yes	57	0	442
6.6.1	win	2022-12-15	20:58:34	21:09:50	674910	5da23c68cf775d001724d361	552277658	1	main_slash	11	main_slash	147	stimuli_distractor_diamondtriangles.svg	stimuli_target_trianglesquares.svg	30	yes	53	1	697
6.6.1	win	2022-12-15	20:58:34	21:09:50	674910	5da23c68cf775d001724d361	552277658	1	main_slash	11	advance_on_keypress_SLASH	148	stimuli_distractor_diamondtriangles.svg	stimuli_target_trianglesquares.svg	30	yes	57	0	432
6.6.1	win	2022-12-15	20:58:34	21:09:52	676543	5da23c68cf775d001724d361	552277658	1	main_slash	11	main_slash	149	stimuli_distractor_diamondtriangles.svg	stimuli_target_circletriangles.svg	13	yes	53	1	550
6.6.1	win	2022-12-15	20:58:34	21:09:52	676543	5da23c68cf775d001724d361	552277658	1	main_slash	11	advance_on_keypress_SLASH	150	stimuli_distractor_diamondtriangles.svg	stimuli_target_circletriangles.svg	13	yes	57	0	385
6.6.1	win	2022-12-15	20:58:34	21:09:54	678430	5da23c68cf775d001724d361	552277658	1	main_slash	11	main_slash	151	stimuli_target_diamondsquares.svg	stimuli_distractor_trianglediamonds.svg	20	yes	53	1	858
6.6.1	win	2022-12-15	20:58:34	21:09:54	678430	5da23c68cf775d001724d361	552277658	1	main_slash	11	advance_on_keypress_SLASH	152	stimuli_target_diamondsquares.svg	stimuli_distractor_trianglediamonds.svg	20	yes	57	0	468
6.6.1	win	2022-12-15	20:58:34	21:09:57	681535	5da23c68cf775d001724d361	552277658	1	main_slash	11	main_slash	153	stimuli_distractor_diamondtriangles.svg	stimuli_distractor_diamondtriangles.svg	39	no	0	1	2000
6.6.1	win	2022-12-15	20:58:34	21:09:57	681535	5da23c68cf775d001724d361	552277658	1	main_slash	11	advance_on_keypress_SLASH	154	stimuli_distractor_diamondtriangles.svg	stimuli_distractor_diamondtriangles.svg	39	no	57	0	428
6.6.1	win	2022-12-15	20:58:34	21:09:59	683398	5da23c68cf775d001724d361	552277658	1	main_slash	11	main_slash	155	stimuli_distractor_diamondtriangles.svg	stimuli_target_squaretriangles.svg	15	yes	53	1	786
6.6.1	win	2022-12-15	20:58:34	21:09:59	683398	5da23c68cf775d001724d361	552277658	1	main_slash	11	advance_on_keypress_SLASH	156	stimuli_distractor_diamondtriangles.svg	stimuli_target_squaretriangles.svg	15	yes	57	0	574
6.6.1	win	2022-12-15	20:58:34	21:10:01	685294	5da23c68cf775d001724d361	552277658	1	main_slash	11	main_slash	157	stimuli_target_squaretriangles.svg	stimuli_distractor_diamondtriangles.svg	7	yes	53	1	687
6.6.1	win	2022-12-15	20:58:34	21:10:01	685294	5da23c68cf775d001724d361	552277658	1	main_slash	11	advance_on_keypress_SLASH	158	stimuli_target_squaretriangles.svg	stimuli_distractor_diamondtriangles.svg	7	yes	57	0	518
6.6.1	win	2022-12-15	20:58:34	21:10:02	687126	5da23c68cf775d001724d361	552277658	1	main_slash	11	main_slash	159	stimuli_target_diamondcircles.svg	stimuli_distractor_trianglediamonds.svg	19	yes	53	1	673
6.6.1	win	2022-12-15	20:58:34	21:10:02	687126	5da23c68cf775d001724d361	552277658	1	main_slash	11	advance_on_keypress_SLASH	160	stimuli_target_diamondcircles.svg	stimuli_distractor_trianglediamonds.svg	19	yes	57	0	407