build	computer.platform	date	time	timestamp	time_elapsed_ms	subject	group	session	blockcode	blocknum	trialcode	trialnum	stimulus_left	stimulus_right	stim_index	target_present	response	correct	latency
6.6.1	win	2022-12-29	11:12:56	11:15:20	142775	5b4a54b4ee41890001ae51b6	618219377	1	practice_slash	5	practice_slash	1	stimuli_distractor_trianglediamonds.svg	stimuli_distractor_diamondtriangles.svg	16	no	0	1	2000
6.6.1	win	2022-12-29	11:12:56	11:15:20	142775	5b4a54b4ee41890001ae51b6	618219377	1	practice_slash	5	advance_on_keypress_SLASH	2	stimuli_distractor_trianglediamonds.svg	stimuli_distractor_diamondtriangles.svg	16	no	57	0	1259
6.6.1	win	2022-12-29	11:12:56	11:15:24	146790	5b4a54b4ee41890001ae51b6	618219377	1	practice_slash	5	practice_slash	3	stimuli_distractor_diamondtriangles.svg	stimuli_distractor_diamondtriangles.svg	13	no	53	0	1121
6.6.1	win	2022-12-29	11:12:56	11:15:24	146790	5b4a54b4ee41890001ae51b6	618219377	1	practice_slash	5	advance_on_keypress_SLASH	4	stimuli_distractor_diamondtriangles.svg	stimuli_distractor_diamondtriangles.svg	13	no	57	0	2700
6.6.1	win	2022-12-29	11:12:56	11:15:29	151662	5b4a54b4ee41890001ae51b6	618219377	1	practice_slash	5	practice_slash	5	stimuli_distractor_diamondtriangles.svg	stimuli_distractor_trianglediamonds.svg	14	no	53	0	540
6.6.1	win	2022-12-29	11:12:56	11:15:29	151662	5b4a54b4ee41890001ae51b6	618219377	1	practice_slash	5	advance_on_keypress_SLASH	6	stimuli_distractor_diamondtriangles.svg	stimuli_distractor_trianglediamonds.svg	14	no	57	0	1302
6.6.1	win	2022-12-29	11:12:56	11:15:32	154775	5b4a54b4ee41890001ae51b6	618219377	1	practice_slash	5	practice_slash	7	stimuli_distractor_trianglediamonds.svg	stimuli_target_diamondcircles.svg	12	yes	53	1	184
6.6.1	win	2022-12-29	11:12:56	11:15:32	154775	5b4a54b4ee41890001ae51b6	618219377	1	practice_slash	5	advance_on_keypress_SLASH	8	stimuli_distractor_trianglediamonds.svg	stimuli_target_diamondcircles.svg	12	yes	57	0	198
6.6.1	win	2022-12-29	11:12:56	11:15:34	156819	5b4a54b4ee41890001ae51b6	618219377	1	practice_slash	5	practice_slash	9	stimuli_distractor_diamondtriangles.svg	stimuli_target_trianglecircles.svg	9	yes	53	1	215
6.6.1	win	2022-12-29	11:12:56	11:15:34	156819	5b4a54b4ee41890001ae51b6	618219377	1	practice_slash	5	advance_on_keypress_SLASH	10	stimuli_distractor_diamondtriangles.svg	stimuli_target_trianglecircles.svg	9	yes	57	0	43
6.6.1	win	2022-12-29	11:12:56	11:15:36	158797	5b4a54b4ee41890001ae51b6	618219377	1	practice_slash	5	practice_slash	11	stimuli_target_squarediamonds.svg	stimuli_distractor_trianglediamonds.svg	5	yes	53	1	299
6.6.1	win	2022-12-29	11:12:56	11:15:36	158797	5b4a54b4ee41890001ae51b6	618219377	1	practice_slash	5	advance_on_keypress_SLASH	12	stimuli_target_squarediamonds.svg	stimuli_distractor_trianglediamonds.svg	5	yes	57	0	317
6.6.1	win	2022-12-29	11:12:56	11:15:38	161046	5b4a54b4ee41890001ae51b6	618219377	1	practice_slash	5	practice_slash	13	stimuli_distractor_trianglediamonds.svg	stimuli_target_circlediamonds.svg	10	yes	53	1	295
6.6.1	win	2022-12-29	11:12:56	11:15:38	161046	5b4a54b4ee41890001ae51b6	618219377	1	practice_slash	5	advance_on_keypress_SLASH	14	stimuli_distractor_trianglediamonds.svg	stimuli_target_circlediamonds.svg	10	yes	57	0	526
6.6.1	win	2022-12-29	11:12:56	11:15:40	163410	5b4a54b4ee41890001ae51b6	618219377	1	practice_slash	5	practice_slash	15	stimuli_distractor_trianglediamonds.svg	stimuli_target_squarediamonds.svg	11	yes	53	1	205
6.6.1	win	2022-12-29	11:12:56	11:15:40	163410	5b4a54b4ee41890001ae51b6	618219377	1	practice_slash	5	advance_on_keypress_SLASH	16	stimuli_distractor_trianglediamonds.svg	stimuli_target_squarediamonds.svg	11	yes	57	0	460
6.6.1	win	2022-12-29	11:12:56	11:15:44	167149	5b4a54b4ee41890001ae51b6	618219377	1	practice_slash	5	practice_slash	17	stimuli_target_circlediamonds.svg	stimuli_distractor_diamondtriangles.svg	1	yes	53	1	1650
6.6.1	win	2022-12-29	11:12:56	11:15:44	167149	5b4a54b4ee41890001ae51b6	618219377	1	practice_slash	5	advance_on_keypress_SLASH	18	stimuli_target_circlediamonds.svg	stimuli_distractor_diamondtriangles.svg	1	yes	57	0	598
6.6.1	win	2022-12-29	11:12:56	11:15:47	170074	5b4a54b4ee41890001ae51b6	618219377	1	practice_slash	5	practice_slash	19	stimuli_distractor_diamondtriangles.svg	stimuli_target_circletriangles.svg	7	yes	53	1	695
6.6.1	win	2022-12-29	11:12:56	11:15:47	170074	5b4a54b4ee41890001ae51b6	618219377	1	practice_slash	5	advance_on_keypress_SLASH	20	stimuli_distractor_diamondtriangles.svg	stimuli_target_circletriangles.svg	7	yes	57	0	873
6.6.1	win	2022-12-29	11:12:56	11:15:50	173238	5b4a54b4ee41890001ae51b6	618219377	1	practice_slash	5	practice_slash	21	stimuli_target_diamondsquares.svg	stimuli_distractor_diamondtriangles.svg	3	yes	53	1	657
6.6.1	win	2022-12-29	11:12:56	11:15:50	173238	5b4a54b4ee41890001ae51b6	618219377	1	practice_slash	5	advance_on_keypress_SLASH	22	stimuli_target_diamondsquares.svg	stimuli_distractor_diamondtriangles.svg	3	yes	57	0	886
6.6.1	win	2022-12-29	11:12:56	11:15:53	176286	5b4a54b4ee41890001ae51b6	618219377	1	practice_slash	5	practice_slash	23	stimuli_distractor_diamondtriangles.svg	stimuli_target_diamondcircles.svg	8	yes	53	1	534
6.6.1	win	2022-12-29	11:12:56	11:15:53	176286	5b4a54b4ee41890001ae51b6	618219377	1	practice_slash	5	advance_on_keypress_SLASH	24	stimuli_distractor_diamondtriangles.svg	stimuli_target_diamondcircles.svg	8	yes	57	0	476
6.6.1	win	2022-12-29	11:12:56	11:15:56	179105	5b4a54b4ee41890001ae51b6	618219377	1	practice_slash	5	practice_slash	25	stimuli_target_squarediamonds.svg	stimuli_distractor_diamondtriangles.svg	2	yes	53	1	710
6.6.1	win	2022-12-29	11:12:56	11:15:56	179105	5b4a54b4ee41890001ae51b6	618219377	1	practice_slash	5	advance_on_keypress_SLASH	26	stimuli_target_squarediamonds.svg	stimuli_distractor_diamondtriangles.svg	2	yes	57	0	500
6.6.1	win	2022-12-29	11:12:56	11:15:59	181799	5b4a54b4ee41890001ae51b6	618219377	1	practice_slash	5	practice_slash	27	stimuli_target_diamondsquares.svg	stimuli_distractor_trianglediamonds.svg	6	yes	53	1	565
6.6.1	win	2022-12-29	11:12:56	11:15:59	181799	5b4a54b4ee41890001ae51b6	618219377	1	practice_slash	5	advance_on_keypress_SLASH	28	stimuli_target_diamondsquares.svg	stimuli_distractor_trianglediamonds.svg	6	yes	57	0	381
6.6.1	win	2022-12-29	11:12:56	11:16:01	184444	5b4a54b4ee41890001ae51b6	618219377	1	practice_slash	5	practice_slash	29	stimuli_target_circlediamonds.svg	stimuli_distractor_trianglediamonds.svg	4	yes	53	1	623
6.6.1	win	2022-12-29	11:12:56	11:16:01	184444	5b4a54b4ee41890001ae51b6	618219377	1	practice_slash	5	advance_on_keypress_SLASH	30	stimuli_target_circlediamonds.svg	stimuli_distractor_trianglediamonds.svg	4	yes	57	0	781
6.6.1	win	2022-12-29	11:12:56	11:16:05	187628	5b4a54b4ee41890001ae51b6	618219377	1	practice_slash	5	practice_slash	31	stimuli_distractor_trianglediamonds.svg	stimuli_distractor_trianglediamonds.svg	15	no	53	0	780
6.6.1	win	2022-12-29	11:12:56	11:16:05	187628	5b4a54b4ee41890001ae51b6	618219377	1	practice_slash	5	advance_on_keypress_SLASH	32	stimuli_distractor_trianglediamonds.svg	stimuli_distractor_trianglediamonds.svg	15	no	57	0	384
6.6.1	win	2022-12-29	11:12:56	11:16:12	195409	5b4a54b4ee41890001ae51b6	618219377	1	main_slash	7	main_slash	1	stimuli_target_diamondsquares.svg	stimuli_distractor_diamondtriangles.svg	24	yes	53	1	1014
6.6.1	win	2022-12-29	11:12:56	11:16:12	195409	5b4a54b4ee41890001ae51b6	618219377	1	main_slash	7	advance_on_keypress_SLASH	2	stimuli_target_diamondsquares.svg	stimuli_distractor_diamondtriangles.svg	24	yes	57	0	948
6.6.1	win	2022-12-29	11:12:56	11:16:15	197604	5b4a54b4ee41890001ae51b6	618219377	1	main_slash	7	main_slash	3	stimuli_target_trianglecircles.svg	stimuli_distractor_trianglediamonds.svg	17	yes	53	1	608
6.6.1	win	2022-12-29	11:12:56	11:16:15	197604	5b4a54b4ee41890001ae51b6	618219377	1	main_slash	7	advance_on_keypress_SLASH	4	stimuli_target_trianglecircles.svg	stimuli_distractor_trianglediamonds.svg	17	yes	57	0	871
6.6.1	win	2022-12-29	11:12:56	11:16:17	199829	5b4a54b4ee41890001ae51b6	618219377	1	main_slash	7	main_slash	5	stimuli_target_trianglesquares.svg	stimuli_distractor_trianglediamonds.svg	18	yes	53	1	726
6.6.1	win	2022-12-29	11:12:56	11:16:17	199829	5b4a54b4ee41890001ae51b6	618219377	1	main_slash	7	advance_on_keypress_SLASH	6	stimuli_target_trianglesquares.svg	stimuli_distractor_trianglediamonds.svg	18	yes	57	0	603
6.6.1	win	2022-12-29	11:12:56	11:16:19	202087	5b4a54b4ee41890001ae51b6	618219377	1	main_slash	7	main_slash	7	stimuli_distractor_diamondtriangles.svg	stimuli_target_squarediamonds.svg	16	yes	53	1	1024
6.6.1	win	2022-12-29	11:12:56	11:16:19	202087	5b4a54b4ee41890001ae51b6	618219377	1	main_slash	7	advance_on_keypress_SLASH	8	stimuli_distractor_diamondtriangles.svg	stimuli_target_squarediamonds.svg	16	yes	57	0	529
6.6.1	win	2022-12-29	11:12:56	11:16:21	204093	5b4a54b4ee41890001ae51b6	618219377	1	main_slash	7	main_slash	9	stimuli_target_squaretriangles.svg	stimuli_distractor_trianglediamonds.svg	3	yes	53	1	857
6.6.1	win	2022-12-29	11:12:56	11:16:21	204093	5b4a54b4ee41890001ae51b6	618219377	1	main_slash	7	advance_on_keypress_SLASH	10	stimuli_target_squaretriangles.svg	stimuli_distractor_trianglediamonds.svg	3	yes	57	0	679
6.6.1	win	2022-12-29	11:12:56	11:16:23	206463	5b4a54b4ee41890001ae51b6	618219377	1	main_slash	7	main_slash	11	stimuli_target_circlediamonds.svg	stimuli_distractor_diamondtriangles.svg	6	yes	53	1	1052
6.6.1	win	2022-12-29	11:12:56	11:16:23	206463	5b4a54b4ee41890001ae51b6	618219377	1	main_slash	7	advance_on_keypress_SLASH	12	stimuli_target_circlediamonds.svg	stimuli_distractor_diamondtriangles.svg	6	yes	57	0	387
6.6.1	win	2022-12-29	11:12:56	11:16:25	208547	5b4a54b4ee41890001ae51b6	618219377	1	main_slash	7	main_slash	13	stimuli_target_squarediamonds.svg	stimuli_distractor_trianglediamonds.svg	4	yes	53	1	1056
6.6.1	win	2022-12-29	11:12:56	11:16:25	208547	5b4a54b4ee41890001ae51b6	618219377	1	main_slash	7	advance_on_keypress_SLASH	14	stimuli_target_squarediamonds.svg	stimuli_distractor_trianglediamonds.svg	4	yes	57	0	505
6.6.1	win	2022-12-29	11:12:56	11:16:29	211691	5b4a54b4ee41890001ae51b6	618219377	1	main_slash	7	main_slash	15	stimuli_distractor_diamondtriangles.svg	stimuli_distractor_diamondtriangles.svg	39	no	0	1	2000
6.6.1	win	2022-12-29	11:12:56	11:16:29	211691	5b4a54b4ee41890001ae51b6	618219377	1	main_slash	7	advance_on_keypress_SLASH	16	stimuli_distractor_diamondtriangles.svg	stimuli_distractor_diamondtriangles.svg	39	no	57	0	608
6.6.1	win	2022-12-29	11:12:56	11:16:30	213507	5b4a54b4ee41890001ae51b6	618219377	1	main_slash	7	main_slash	17	stimuli_distractor_diamondtriangles.svg	stimuli_target_trianglecircles.svg	29	yes	53	1	576
6.6.1	win	2022-12-29	11:12:56	11:16:30	213507	5b4a54b4ee41890001ae51b6	618219377	1	main_slash	7	advance_on_keypress_SLASH	18	stimuli_distractor_diamondtriangles.svg	stimuli_target_trianglecircles.svg	29	yes	57	0	739
6.6.1	win	2022-12-29	11:12:56	11:16:33	216009	5b4a54b4ee41890001ae51b6	618219377	1	main_slash	7	main_slash	19	stimuli_distractor_diamondtriangles.svg	stimuli_distractor_trianglediamonds.svg	38	no	53	0	1131
6.6.1	win	2022-12-29	11:12:56	11:16:33	216009	5b4a54b4ee41890001ae51b6	618219377	1	main_slash	7	advance_on_keypress_SLASH	20	stimuli_distractor_diamondtriangles.svg	stimuli_distractor_trianglediamonds.svg	38	no	57	0	312
6.6.1	win	2022-12-29	11:12:56	11:16:35	217646	5b4a54b4ee41890001ae51b6	618219377	1	main_slash	7	main_slash	21	stimuli_distractor_trianglediamonds.svg	stimuli_target_squarediamonds.svg	12	yes	53	1	701
6.6.1	win	2022-12-29	11:12:56	11:16:35	217646	5b4a54b4ee41890001ae51b6	618219377	1	main_slash	7	advance_on_keypress_SLASH	22	stimuli_distractor_trianglediamonds.svg	stimuli_target_squarediamonds.svg	12	yes	57	0	592
6.6.1	win	2022-12-29	11:12:56	11:16:37	219680	5b4a54b4ee41890001ae51b6	618219377	1	main_slash	7	main_slash	23	stimuli_distractor_diamondtriangles.svg	stimuli_target_circlediamonds.svg	14	yes	53	1	814
6.6.1	win	2022-12-29	11:12:56	11:16:37	219680	5b4a54b4ee41890001ae51b6	618219377	1	main_slash	7	advance_on_keypress_SLASH	24	stimuli_distractor_diamondtriangles.svg	stimuli_target_circlediamonds.svg	14	yes	57	0	645
6.6.1	win	2022-12-29	11:12:56	11:16:39	221852	5b4a54b4ee41890001ae51b6	618219377	1	main_slash	7	main_slash	25	stimuli_distractor_trianglediamonds.svg	stimuli_target_circletriangles.svg	9	yes	53	1	894
6.6.1	win	2022-12-29	11:12:56	11:16:39	221852	5b4a54b4ee41890001ae51b6	618219377	1	main_slash	7	advance_on_keypress_SLASH	26	stimuli_distractor_trianglediamonds.svg	stimuli_target_circletriangles.svg	9	yes	57	0	545
6.6.1	win	2022-12-29	11:12:56	11:16:41	223835	5b4a54b4ee41890001ae51b6	618219377	1	main_slash	7	main_slash	27	stimuli_distractor_diamondtriangles.svg	stimuli_target_squaretriangles.svg	15	yes	53	1	795
6.6.1	win	2022-12-29	11:12:56	11:16:41	223835	5b4a54b4ee41890001ae51b6	618219377	1	main_slash	7	advance_on_keypress_SLASH	28	stimuli_distractor_diamondtriangles.svg	stimuli_target_squaretriangles.svg	15	yes	57	0	482
6.6.1	win	2022-12-29	11:12:56	11:16:43	225706	5b4a54b4ee41890001ae51b6	618219377	1	main_slash	7	main_slash	29	stimuli_target_squaretriangles.svg	stimuli_distractor_diamondtriangles.svg	7	yes	53	1	760
6.6.1	win	2022-12-29	11:12:56	11:16:43	225706	5b4a54b4ee41890001ae51b6	618219377	1	main_slash	7	advance_on_keypress_SLASH	30	stimuli_target_squaretriangles.svg	stimuli_distractor_diamondtriangles.svg	7	yes	57	0	433
6.6.1	win	2022-12-29	11:12:56	11:16:46	228773	5b4a54b4ee41890001ae51b6	618219377	1	main_slash	7	main_slash	31	stimuli_distractor_trianglediamonds.svg	stimuli_distractor_diamondtriangles.svg	35	no	0	1	2000
6.6.1	win	2022-12-29	11:12:56	11:16:46	228773	5b4a54b4ee41890001ae51b6	618219377	1	main_slash	7	advance_on_keypress_SLASH	32	stimuli_distractor_trianglediamonds.svg	stimuli_distractor_diamondtriangles.svg	35	no	57	0	560
6.6.1	win	2022-12-29	11:12:56	11:16:48	230849	5b4a54b4ee41890001ae51b6	618219377	1	main_slash	7	main_slash	33	stimuli_target_diamondcircles.svg	stimuli_distractor_trianglediamonds.svg	19	yes	53	1	876
6.6.1	win	2022-12-29	11:12:56	11:16:48	230849	5b4a54b4ee41890001ae51b6	618219377	1	main_slash	7	advance_on_keypress_SLASH	34	stimuli_target_diamondcircles.svg	stimuli_distractor_trianglediamonds.svg	19	yes	57	0	2013
6.6.1	win	2022-12-29	11:12:56	11:16:51	234138	5b4a54b4ee41890001ae51b6	618219377	1	main_slash	7	main_slash	35	stimuli_distractor_diamondtriangles.svg	stimuli_target_diamondcircles.svg	31	yes	53	1	644
6.6.1	win	2022-12-29	11:12:56	11:16:51	234138	5b4a54b4ee41890001ae51b6	618219377	1	main_slash	7	advance_on_keypress_SLASH	36	stimuli_distractor_diamondtriangles.svg	stimuli_target_diamondcircles.svg	31	yes	57	0	634
6.6.1	win	2022-12-29	11:12:56	11:16:53	236114	5b4a54b4ee41890001ae51b6	618219377	1	main_slash	7	main_slash	37	stimuli_target_squarediamonds.svg	stimuli_distractor_diamondtriangles.svg	8	yes	53	1	713
6.6.1	win	2022-12-29	11:12:56	11:16:53	236114	5b4a54b4ee41890001ae51b6	618219377	1	main_slash	7	advance_on_keypress_SLASH	38	stimuli_target_squarediamonds.svg	stimuli_distractor_diamondtriangles.svg	8	yes	57	0	407
6.6.1	win	2022-12-29	11:12:56	11:16:55	237848	5b4a54b4ee41890001ae51b6	618219377	1	main_slash	7	main_slash	39	stimuli_target_circletriangles.svg	stimuli_distractor_trianglediamonds.svg	1	yes	53	1	700
6.6.1	win	2022-12-29	11:12:56	11:16:55	237848	5b4a54b4ee41890001ae51b6	618219377	1	main_slash	7	advance_on_keypress_SLASH	40	stimuli_target_circletriangles.svg	stimuli_distractor_trianglediamonds.svg	1	yes	57	0	442
6.6.1	win	2022-12-29	11:12:56	11:16:57	239677	5b4a54b4ee41890001ae51b6	618219377	1	main_slash	7	main_slash	41	stimuli_distractor_diamondtriangles.svg	stimuli_target_trianglesquares.svg	30	yes	53	1	756
6.6.1	win	2022-12-29	11:12:56	11:16:57	239677	5b4a54b4ee41890001ae51b6	618219377	1	main_slash	7	advance_on_keypress_SLASH	42	stimuli_distractor_diamondtriangles.svg	stimuli_target_trianglesquares.svg	30	yes	57	0	449
6.6.1	win	2022-12-29	11:12:56	11:16:58	241495	5b4a54b4ee41890001ae51b6	618219377	1	main_slash	7	main_slash	43	stimuli_target_diamondcircles.svg	stimuli_distractor_diamondtriangles.svg	23	yes	53	1	747
6.6.1	win	2022-12-29	11:12:56	11:16:58	241495	5b4a54b4ee41890001ae51b6	618219377	1	main_slash	7	advance_on_keypress_SLASH	44	stimuli_target_diamondcircles.svg	stimuli_distractor_diamondtriangles.svg	23	yes	57	0	486
6.6.1	win	2022-12-29	11:12:56	11:17:00	243475	5b4a54b4ee41890001ae51b6	618219377	1	main_slash	7	main_slash	45	stimuli_distractor_trianglediamonds.svg	stimuli_target_circlediamonds.svg	10	yes	53	1	860
6.6.1	win	2022-12-29	11:12:56	11:17:00	243475	5b4a54b4ee41890001ae51b6	618219377	1	main_slash	7	advance_on_keypress_SLASH	46	stimuli_distractor_trianglediamonds.svg	stimuli_target_circlediamonds.svg	10	yes	57	0	568
6.6.1	win	2022-12-29	11:12:56	11:17:02	245340	5b4a54b4ee41890001ae51b6	618219377	1	main_slash	7	main_slash	47	stimuli_distractor_diamondtriangles.svg	stimuli_target_diamondsquares.svg	32	yes	53	1	671
6.6.1	win	2022-12-29	11:12:56	11:17:02	245340	5b4a54b4ee41890001ae51b6	618219377	1	main_slash	7	advance_on_keypress_SLASH	48	stimuli_distractor_diamondtriangles.svg	stimuli_target_diamondsquares.svg	32	yes	57	0	442
6.6.1	win	2022-12-29	11:12:56	11:17:04	247094	5b4a54b4ee41890001ae51b6	618219377	1	main_slash	7	main_slash	49	stimuli_target_trianglecircles.svg	stimuli_distractor_diamondtriangles.svg	21	yes	53	1	678
6.6.1	win	2022-12-29	11:12:56	11:17:04	247094	5b4a54b4ee41890001ae51b6	618219377	1	main_slash	7	advance_on_keypress_SLASH	50	stimuli_target_trianglecircles.svg	stimuli_distractor_diamondtriangles.svg	21	yes	57	0	401
6.6.1	win	2022-12-29	11:12:56	11:17:06	248876	5b4a54b4ee41890001ae51b6	618219377	1	main_slash	7	main_slash	51	stimuli_target_circlediamonds.svg	stimuli_distractor_trianglediamonds.svg	2	yes	53	1	741
6.6.1	win	2022-12-29	11:12:56	11:17:06	248876	5b4a54b4ee41890001ae51b6	618219377	1	main_slash	7	advance_on_keypress_SLASH	52	stimuli_target_circlediamonds.svg	stimuli_distractor_trianglediamonds.svg	2	yes	57	0	374
6.6.1	win	2022-12-29	11:12:56	11:17:08	250752	5b4a54b4ee41890001ae51b6	618219377	1	main_slash	7	main_slash	53	stimuli_distractor_trianglediamonds.svg	stimuli_target_squaretriangles.svg	11	yes	53	1	870
6.6.1	win	2022-12-29	11:12:56	11:17:08	250752	5b4a54b4ee41890001ae51b6	618219377	1	main_slash	7	advance_on_keypress_SLASH	54	stimuli_distractor_trianglediamonds.svg	stimuli_target_squaretriangles.svg	11	yes	57	0	352
6.6.1	win	2022-12-29	11:12:56	11:17:09	252528	5b4a54b4ee41890001ae51b6	618219377	1	main_slash	7	main_slash	55	stimuli_distractor_diamondtriangles.svg	stimuli_target_circletriangles.svg	13	yes	53	1	791
6.6.1	win	2022-12-29	11:12:56	11:17:09	252528	5b4a54b4ee41890001ae51b6	618219377	1	main_slash	7	advance_on_keypress_SLASH	56	stimuli_distractor_diamondtriangles.svg	stimuli_target_circletriangles.svg	13	yes	57	0	416
6.6.1	win	2022-12-29	11:12:56	11:17:13	255576	5b4a54b4ee41890001ae51b6	618219377	1	main_slash	7	main_slash	57	stimuli_distractor_diamondtriangles.svg	stimuli_distractor_diamondtriangles.svg	40	no	0	1	2000
6.6.1	win	2022-12-29	11:12:56	11:17:13	255576	5b4a54b4ee41890001ae51b6	618219377	1	main_slash	7	advance_on_keypress_SLASH	58	stimuli_distractor_diamondtriangles.svg	stimuli_distractor_diamondtriangles.svg	40	no	57	0	1110
6.6.1	win	2022-12-29	11:12:56	11:17:15	258038	5b4a54b4ee41890001ae51b6	618219377	1	main_slash	7	main_slash	59	stimuli_distractor_trianglediamonds.svg	stimuli_target_diamondsquares.svg	28	yes	53	1	715
6.6.1	win	2022-12-29	11:12:56	11:17:15	258038	5b4a54b4ee41890001ae51b6	618219377	1	main_slash	7	advance_on_keypress_SLASH	60	stimuli_distractor_trianglediamonds.svg	stimuli_target_diamondsquares.svg	28	yes	57	0	404
6.6.1	win	2022-12-29	11:12:56	11:17:17	260147	5b4a54b4ee41890001ae51b6	618219377	1	main_slash	7	main_slash	61	stimuli_distractor_trianglediamonds.svg	stimuli_distractor_trianglediamonds.svg	33	no	53	0	1077
6.6.1	win	2022-12-29	11:12:56	11:17:17	260147	5b4a54b4ee41890001ae51b6	618219377	1	main_slash	7	advance_on_keypress_SLASH	62	stimuli_distractor_trianglediamonds.svg	stimuli_distractor_trianglediamonds.svg	33	no	57	0	304
6.6.1	win	2022-12-29	11:12:56	11:17:19	261732	5b4a54b4ee41890001ae51b6	618219377	1	main_slash	7	main_slash	63	stimuli_distractor_trianglediamonds.svg	stimuli_target_diamondcircles.svg	27	yes	53	1	661
6.6.1	win	2022-12-29	11:12:56	11:17:19	261732	5b4a54b4ee41890001ae51b6	618219377	1	main_slash	7	advance_on_keypress_SLASH	64	stimuli_distractor_trianglediamonds.svg	stimuli_target_diamondcircles.svg	27	yes	57	0	374
6.6.1	win	2022-12-29	11:12:56	11:17:21	264550	5b4a54b4ee41890001ae51b6	618219377	1	main_slash	7	main_slash	65	stimuli_target_diamondsquares.svg	stimuli_distractor_trianglediamonds.svg	20	yes	53	1	1813
6.6.1	win	2022-12-29	11:12:56	11:17:21	264550	5b4a54b4ee41890001ae51b6	618219377	1	main_slash	7	advance_on_keypress_SLASH	66	stimuli_target_diamondsquares.svg	stimuli_distractor_trianglediamonds.svg	20	yes	57	0	470
6.6.1	win	2022-12-29	11:12:56	11:17:24	266564	5b4a54b4ee41890001ae51b6	618219377	1	main_slash	7	main_slash	67	stimuli_target_trianglesquares.svg	stimuli_distractor_diamondtriangles.svg	22	yes	53	1	907
6.6.1	win	2022-12-29	11:12:56	11:17:24	266564	5b4a54b4ee41890001ae51b6	618219377	1	main_slash	7	advance_on_keypress_SLASH	68	stimuli_target_trianglesquares.svg	stimuli_distractor_diamondtriangles.svg	22	yes	57	0	343
6.6.1	win	2022-12-29	11:12:56	11:17:25	268310	5b4a54b4ee41890001ae51b6	618219377	1	main_slash	7	main_slash	69	stimuli_distractor_trianglediamonds.svg	stimuli_target_trianglecircles.svg	25	yes	53	1	772
6.6.1	win	2022-12-29	11:12:56	11:17:25	268310	5b4a54b4ee41890001ae51b6	618219377	1	main_slash	7	advance_on_keypress_SLASH	70	stimuli_distractor_trianglediamonds.svg	stimuli_target_trianglecircles.svg	25	yes	57	0	401
6.6.1	win	2022-12-29	11:12:56	11:17:27	270194	5b4a54b4ee41890001ae51b6	618219377	1	main_slash	7	main_slash	71	stimuli_distractor_diamondtriangles.svg	stimuli_distractor_trianglediamonds.svg	37	no	53	0	843
6.6.1	win	2022-12-29	11:12:56	11:17:27	270194	5b4a54b4ee41890001ae51b6	618219377	1	main_slash	7	advance_on_keypress_SLASH	72	stimuli_distractor_diamondtriangles.svg	stimuli_distractor_trianglediamonds.svg	37	no	57	0	411
6.6.1	win	2022-12-29	11:12:56	11:17:30	273232	5b4a54b4ee41890001ae51b6	618219377	1	main_slash	7	main_slash	73	stimuli_distractor_trianglediamonds.svg	stimuli_distractor_trianglediamonds.svg	34	no	0	1	2000
6.6.1	win	2022-12-29	11:12:56	11:17:30	273232	5b4a54b4ee41890001ae51b6	618219377	1	main_slash	7	advance_on_keypress_SLASH	74	stimuli_distractor_trianglediamonds.svg	stimuli_distractor_trianglediamonds.svg	34	no	57	0	812
6.6.1	win	2022-12-29	11:12:56	11:17:32	275392	5b4a54b4ee41890001ae51b6	618219377	1	main_slash	7	main_slash	75	stimuli_target_circletriangles.svg	stimuli_distractor_diamondtriangles.svg	5	yes	53	1	706
6.6.1	win	2022-12-29	11:12:56	11:17:32	275392	5b4a54b4ee41890001ae51b6	618219377	1	main_slash	7	advance_on_keypress_SLASH	76	stimuli_target_circletriangles.svg	stimuli_distractor_diamondtriangles.svg	5	yes	57	0	395
6.6.1	win	2022-12-29	11:12:56	11:17:35	278419	5b4a54b4ee41890001ae51b6	618219377	1	main_slash	7	main_slash	77	stimuli_distractor_trianglediamonds.svg	stimuli_distractor_diamondtriangles.svg	36	no	0	1	2000
6.6.1	win	2022-12-29	11:12:56	11:17:35	278419	5b4a54b4ee41890001ae51b6	618219377	1	main_slash	7	advance_on_keypress_SLASH	78	stimuli_distractor_trianglediamonds.svg	stimuli_distractor_diamondtriangles.svg	36	no	57	0	499
6.6.1	win	2022-12-29	11:12:56	11:17:37	280304	5b4a54b4ee41890001ae51b6	618219377	1	main_slash	7	main_slash	79	stimuli_distractor_trianglediamonds.svg	stimuli_target_trianglesquares.svg	26	yes	53	1	750
6.6.1	win	2022-12-29	11:12:56	11:17:37	280304	5b4a54b4ee41890001ae51b6	618219377	1	main_slash	7	advance_on_keypress_SLASH	80	stimuli_distractor_trianglediamonds.svg	stimuli_target_trianglesquares.svg	26	yes	57	0	418
6.6.1	win	2022-12-29	11:12:56	11:17:39	282265	5b4a54b4ee41890001ae51b6	618219377	1	main_slash	7	main_slash	81	stimuli_target_squaretriangles.svg	stimuli_distractor_trianglediamonds.svg	3	yes	53	1	911
6.6.1	win	2022-12-29	11:12:56	11:17:39	282265	5b4a54b4ee41890001ae51b6	618219377	1	main_slash	7	advance_on_keypress_SLASH	82	stimuli_target_squaretriangles.svg	stimuli_distractor_trianglediamonds.svg	3	yes	57	0	318
6.6.1	win	2022-12-29	11:12:56	11:17:42	285220	5b4a54b4ee41890001ae51b6	618219377	1	main_slash	7	main_slash	83	stimuli_distractor_trianglediamonds.svg	stimuli_distractor_trianglediamonds.svg	33	no	0	1	2000
6.6.1	win	2022-12-29	11:12:56	11:17:42	285220	5b4a54b4ee41890001ae51b6	618219377	1	main_slash	7	advance_on_keypress_SLASH	84	stimuli_distractor_trianglediamonds.svg	stimuli_distractor_trianglediamonds.svg	33	no	57	0	541
6.6.1	win	2022-12-29	11:12:56	11:17:44	287098	5b4a54b4ee41890001ae51b6	618219377	1	main_slash	7	main_slash	85	stimuli_distractor_trianglediamonds.svg	stimuli_target_trianglecircles.svg	25	yes	53	1	705
6.6.1	win	2022-12-29	11:12:56	11:17:44	287098	5b4a54b4ee41890001ae51b6	618219377	1	main_slash	7	advance_on_keypress_SLASH	86	stimuli_distractor_trianglediamonds.svg	stimuli_target_trianglecircles.svg	25	yes	57	0	378
6.6.1	win	2022-12-29	11:12:56	11:17:46	288848	5b4a54b4ee41890001ae51b6	618219377	1	main_slash	7	main_slash	87	stimuli_distractor_diamondtriangles.svg	stimuli_target_diamondcircles.svg	31	yes	53	1	747
6.6.1	win	2022-12-29	11:12:56	11:17:46	288848	5b4a54b4ee41890001ae51b6	618219377	1	main_slash	7	advance_on_keypress_SLASH	88	stimuli_distractor_diamondtriangles.svg	stimuli_target_diamondcircles.svg	31	yes	57	0	544
6.6.1	win	2022-12-29	11:12:56	11:17:49	292021	5b4a54b4ee41890001ae51b6	618219377	1	main_slash	7	main_slash	89	stimuli_distractor_trianglediamonds.svg	stimuli_distractor_diamondtriangles.svg	36	no	0	1	2000
6.6.1	win	2022-12-29	11:12:56	11:17:49	292021	5b4a54b4ee41890001ae51b6	618219377	1	main_slash	7	advance_on_keypress_SLASH	90	stimuli_distractor_trianglediamonds.svg	stimuli_distractor_diamondtriangles.svg	36	no	57	0	398
6.6.1	win	2022-12-29	11:12:56	11:17:51	293753	5b4a54b4ee41890001ae51b6	618219377	1	main_slash	7	main_slash	91	stimuli_target_squarediamonds.svg	stimuli_distractor_diamondtriangles.svg	8	yes	53	1	704
6.6.1	win	2022-12-29	11:12:56	11:17:51	293753	5b4a54b4ee41890001ae51b6	618219377	1	main_slash	7	advance_on_keypress_SLASH	92	stimuli_target_squarediamonds.svg	stimuli_distractor_diamondtriangles.svg	8	yes	57	0	377
6.6.1	win	2022-12-29	11:12:56	11:17:52	295490	5b4a54b4ee41890001ae51b6	618219377	1	main_slash	7	main_slash	93	stimuli_target_diamondcircles.svg	stimuli_distractor_trianglediamonds.svg	19	yes	53	1	735
6.6.1	win	2022-12-29	11:12:56	11:17:52	295490	5b4a54b4ee41890001ae51b6	618219377	1	main_slash	7	advance_on_keypress_SLASH	94	stimuli_target_diamondcircles.svg	stimuli_distractor_trianglediamonds.svg	19	yes	57	0	359
6.6.1	win	2022-12-29	11:12:56	11:17:54	297265	5b4a54b4ee41890001ae51b6	618219377	1	main_slash	7	main_slash	95	stimuli_distractor_diamondtriangles.svg	stimuli_target_squarediamonds.svg	16	yes	53	1	776
6.6.1	win	2022-12-29	11:12:56	11:17:54	297265	5b4a54b4ee41890001ae51b6	618219377	1	main_slash	7	advance_on_keypress_SLASH	96	stimuli_distractor_diamondtriangles.svg	stimuli_target_squarediamonds.svg	16	yes	57	0	320
6.6.1	win	2022-12-29	11:12:56	11:17:56	298840	5b4a54b4ee41890001ae51b6	618219377	1	main_slash	7	main_slash	97	stimuli_distractor_trianglediamonds.svg	stimuli_target_squarediamonds.svg	12	yes	53	1	617
6.6.1	win	2022-12-29	11:12:56	11:17:56	298840	5b4a54b4ee41890001ae51b6	618219377	1	main_slash	7	advance_on_keypress_SLASH	98	stimuli_distractor_trianglediamonds.svg	stimuli_target_squarediamonds.svg	12	yes	57	0	366
6.6.1	win	2022-12-29	11:12:56	11:17:58	300614	5b4a54b4ee41890001ae51b6	618219377	1	main_slash	7	main_slash	99	stimuli_target_circletriangles.svg	stimuli_distractor_diamondtriangles.svg	5	yes	53	1	778
6.6.1	win	2022-12-29	11:12:56	11:17:58	300614	5b4a54b4ee41890001ae51b6	618219377	1	main_slash	7	advance_on_keypress_SLASH	100	stimuli_target_circletriangles.svg	stimuli_distractor_diamondtriangles.svg	5	yes	57	0	9383
6.6.1	win	2022-12-29	11:12:56	11:18:08	311231	5b4a54b4ee41890001ae51b6	618219377	1	main_slash	7	main_slash	101	stimuli_distractor_diamondtriangles.svg	stimuli_target_trianglecircles.svg	29	yes	53	1	607
6.6.1	win	2022-12-29	11:12:56	11:18:08	311231	5b4a54b4ee41890001ae51b6	618219377	1	main_slash	7	advance_on_keypress_SLASH	102	stimuli_distractor_diamondtriangles.svg	stimuli_target_trianglecircles.svg	29	yes	57	0	417
6.6.1	win	2022-12-29	11:12:56	11:18:10	313051	5b4a54b4ee41890001ae51b6	618219377	1	main_slash	7	main_slash	103	stimuli_target_diamondsquares.svg	stimuli_distractor_trianglediamonds.svg	20	yes	53	1	774
6.6.1	win	2022-12-29	11:12:56	11:18:10	313051	5b4a54b4ee41890001ae51b6	618219377	1	main_slash	7	advance_on_keypress_SLASH	104	stimuli_target_diamondsquares.svg	stimuli_distractor_trianglediamonds.svg	20	yes	57	0	333
6.6.1	win	2022-12-29	11:12:56	11:18:12	314806	5b4a54b4ee41890001ae51b6	618219377	1	main_slash	7	main_slash	105	stimuli_distractor_trianglediamonds.svg	stimuli_target_diamondcircles.svg	27	yes	53	1	782
6.6.1	win	2022-12-29	11:12:56	11:18:12	314806	5b4a54b4ee41890001ae51b6	618219377	1	main_slash	7	advance_on_keypress_SLASH	106	stimuli_distractor_trianglediamonds.svg	stimuli_target_diamondcircles.svg	27	yes	57	0	358
6.6.1	win	2022-12-29	11:12:56	11:18:14	316632	5b4a54b4ee41890001ae51b6	618219377	1	main_slash	7	main_slash	107	stimuli_distractor_diamondtriangles.svg	stimuli_target_circlediamonds.svg	14	yes	53	1	834
6.6.1	win	2022-12-29	11:12:56	11:18:14	316632	5b4a54b4ee41890001ae51b6	618219377	1	main_slash	7	advance_on_keypress_SLASH	108	stimuli_distractor_diamondtriangles.svg	stimuli_target_circlediamonds.svg	14	yes	57	0	358
6.6.1	win	2022-12-29	11:12:56	11:18:15	318298	5b4a54b4ee41890001ae51b6	618219377	1	main_slash	7	main_slash	109	stimuli_target_trianglecircles.svg	stimuli_distractor_diamondtriangles.svg	21	yes	53	1	686
6.6.1	win	2022-12-29	11:12:56	11:18:15	318298	5b4a54b4ee41890001ae51b6	618219377	1	main_slash	7	advance_on_keypress_SLASH	110	stimuli_target_trianglecircles.svg	stimuli_distractor_diamondtriangles.svg	21	yes	57	0	342
6.6.1	win	2022-12-29	11:12:56	11:18:17	320003	5b4a54b4ee41890001ae51b6	618219377	1	main_slash	7	main_slash	111	stimuli_distractor_diamondtriangles.svg	stimuli_target_trianglesquares.svg	30	yes	53	1	738
6.6.1	win	2022-12-29	11:12:56	11:18:17	320003	5b4a54b4ee41890001ae51b6	618219377	1	main_slash	7	advance_on_keypress_SLASH	112	stimuli_distractor_diamondtriangles.svg	stimuli_target_trianglesquares.svg	30	yes	57	0	391
6.6.1	win	2022-12-29	11:12:56	11:18:19	321760	5b4a54b4ee41890001ae51b6	618219377	1	main_slash	7	main_slash	113	stimuli_target_circletriangles.svg	stimuli_distractor_trianglediamonds.svg	1	yes	53	1	735
6.6.1	win	2022-12-29	11:12:56	11:18:19	321760	5b4a54b4ee41890001ae51b6	618219377	1	main_slash	7	advance_on_keypress_SLASH	114	stimuli_target_circletriangles.svg	stimuli_distractor_trianglediamonds.svg	1	yes	57	0	294
6.6.1	win	2022-12-29	11:12:56	11:18:20	323456	5b4a54b4ee41890001ae51b6	618219377	1	main_slash	7	main_slash	115	stimuli_target_diamondsquares.svg	stimuli_distractor_diamondtriangles.svg	24	yes	53	1	765
6.6.1	win	2022-12-29	11:12:56	11:18:20	323456	5b4a54b4ee41890001ae51b6	618219377	1	main_slash	7	advance_on_keypress_SLASH	116	stimuli_target_diamondsquares.svg	stimuli_distractor_diamondtriangles.svg	24	yes	57	0	354
6.6.1	win	2022-12-29	11:12:56	11:18:23	326439	5b4a54b4ee41890001ae51b6	618219377	1	main_slash	7	main_slash	117	stimuli_distractor_diamondtriangles.svg	stimuli_distractor_diamondtriangles.svg	39	no	0	1	2000
6.6.1	win	2022-12-29	11:12:56	11:18:23	326439	5b4a54b4ee41890001ae51b6	618219377	1	main_slash	7	advance_on_keypress_SLASH	118	stimuli_distractor_diamondtriangles.svg	stimuli_distractor_diamondtriangles.svg	39	no	57	0	570
6.6.1	win	2022-12-29	11:12:56	11:18:27	329639	5b4a54b4ee41890001ae51b6	618219377	1	main_slash	7	main_slash	119	stimuli_distractor_diamondtriangles.svg	stimuli_distractor_trianglediamonds.svg	37	no	0	1	2000
6.6.1	win	2022-12-29	11:12:56	11:18:27	329639	5b4a54b4ee41890001ae51b6	618219377	1	main_slash	7	advance_on_keypress_SLASH	120	stimuli_distractor_diamondtriangles.svg	stimuli_distractor_trianglediamonds.svg	37	no	57	0	386
6.6.1	win	2022-12-29	11:12:56	11:18:28	331349	5b4a54b4ee41890001ae51b6	618219377	1	main_slash	7	main_slash	121	stimuli_target_diamondcircles.svg	stimuli_distractor_diamondtriangles.svg	23	yes	53	1	683
6.6.1	win	2022-12-29	11:12:56	11:18:28	331349	5b4a54b4ee41890001ae51b6	618219377	1	main_slash	7	advance_on_keypress_SLASH	122	stimuli_target_diamondcircles.svg	stimuli_distractor_diamondtriangles.svg	23	yes	57	0	414
6.6.1	win	2022-12-29	11:12:56	11:18:30	333166	5b4a54b4ee41890001ae51b6	618219377	1	main_slash	7	main_slash	123	stimuli_distractor_diamondtriangles.svg	stimuli_target_squaretriangles.svg	15	yes	53	1	767
6.6.1	win	2022-12-29	11:12:56	11:18:30	333166	5b4a54b4ee41890001ae51b6	618219377	1	main_slash	7	advance_on_keypress_SLASH	124	stimuli_distractor_diamondtriangles.svg	stimuli_target_squaretriangles.svg	15	yes	57	0	612
6.6.1	win	2022-12-29	11:12:56	11:18:32	335103	5b4a54b4ee41890001ae51b6	618219377	1	main_slash	7	main_slash	125	stimuli_distractor_trianglediamonds.svg	stimuli_target_circletriangles.svg	9	yes	53	1	689
6.6.1	win	2022-12-29	11:12:56	11:18:32	335103	5b4a54b4ee41890001ae51b6	618219377	1	main_slash	7	advance_on_keypress_SLASH	126	stimuli_distractor_trianglediamonds.svg	stimuli_target_circletriangles.svg	9	yes	57	0	381
6.6.1	win	2022-12-29	11:12:56	11:18:34	336843	5b4a54b4ee41890001ae51b6	618219377	1	main_slash	7	main_slash	127	stimuli_target_trianglecircles.svg	stimuli_distractor_trianglediamonds.svg	17	yes	53	1	735
6.6.1	win	2022-12-29	11:12:56	11:18:34	336843	5b4a54b4ee41890001ae51b6	618219377	1	main_slash	7	advance_on_keypress_SLASH	128	stimuli_target_trianglecircles.svg	stimuli_distractor_trianglediamonds.svg	17	yes	57	0	312
6.6.1	win	2022-12-29	11:12:56	11:18:37	339787	5b4a54b4ee41890001ae51b6	618219377	1	main_slash	7	main_slash	129	stimuli_distractor_diamondtriangles.svg	stimuli_distractor_trianglediamonds.svg	38	no	0	1	2000
6.6.1	win	2022-12-29	11:12:56	11:18:37	339787	5b4a54b4ee41890001ae51b6	618219377	1	main_slash	7	advance_on_keypress_SLASH	130	stimuli_distractor_diamondtriangles.svg	stimuli_distractor_trianglediamonds.svg	38	no	57	0	2231
6.6.1	win	2022-12-29	11:12:56	11:18:40	343348	5b4a54b4ee41890001ae51b6	618219377	1	main_slash	7	main_slash	131	stimuli_target_squarediamonds.svg	stimuli_distractor_trianglediamonds.svg	4	yes	53	1	693
6.6.1	win	2022-12-29	11:12:56	11:18:40	343348	5b4a54b4ee41890001ae51b6	618219377	1	main_slash	7	advance_on_keypress_SLASH	132	stimuli_target_squarediamonds.svg	stimuli_distractor_trianglediamonds.svg	4	yes	57	0	548
6.6.1	win	2022-12-29	11:12:56	11:18:42	345335	5b4a54b4ee41890001ae51b6	618219377	1	main_slash	7	main_slash	133	stimuli_target_trianglesquares.svg	stimuli_distractor_trianglediamonds.svg	18	yes	53	1	800
6.6.1	win	2022-12-29	11:12:56	11:18:42	345335	5b4a54b4ee41890001ae51b6	618219377	1	main_slash	7	advance_on_keypress_SLASH	134	stimuli_target_trianglesquares.svg	stimuli_distractor_trianglediamonds.svg	18	yes	57	0	791
6.6.1	win	2022-12-29	11:12:56	11:18:46	348762	5b4a54b4ee41890001ae51b6	618219377	1	main_slash	7	main_slash	135	stimuli_distractor_trianglediamonds.svg	stimuli_distractor_trianglediamonds.svg	34	no	0	1	2000
6.6.1	win	2022-12-29	11:12:56	11:18:46	348762	5b4a54b4ee41890001ae51b6	618219377	1	main_slash	7	advance_on_keypress_SLASH	136	stimuli_distractor_trianglediamonds.svg	stimuli_distractor_trianglediamonds.svg	34	no	57	0	666
6.6.1	win	2022-12-29	11:12:56	11:18:48	350784	5b4a54b4ee41890001ae51b6	618219377	1	main_slash	7	main_slash	137	stimuli_distractor_trianglediamonds.svg	stimuli_target_squaretriangles.svg	11	yes	53	1	715
6.6.1	win	2022-12-29	11:12:56	11:18:48	350784	5b4a54b4ee41890001ae51b6	618219377	1	main_slash	7	advance_on_keypress_SLASH	138	stimuli_distractor_trianglediamonds.svg	stimuli_target_squaretriangles.svg	11	yes	57	0	5207
6.6.1	win	2022-12-29	11:12:56	11:18:56	358616	5b4a54b4ee41890001ae51b6	618219377	1	main_slash	7	main_slash	139	stimuli_distractor_diamondtriangles.svg	stimuli_distractor_diamondtriangles.svg	40	no	0	1	2000
6.6.1	win	2022-12-29	11:12:56	11:18:56	358616	5b4a54b4ee41890001ae51b6	618219377	1	main_slash	7	advance_on_keypress_SLASH	140	stimuli_distractor_diamondtriangles.svg	stimuli_distractor_diamondtriangles.svg	40	no	57	0	478
6.6.1	win	2022-12-29	11:12:56	11:18:57	360445	5b4a54b4ee41890001ae51b6	618219377	1	main_slash	7	main_slash	141	stimuli_target_trianglesquares.svg	stimuli_distractor_diamondtriangles.svg	22	yes	53	1	722
6.6.1	win	2022-12-29	11:12:56	11:18:57	360445	5b4a54b4ee41890001ae51b6	618219377	1	main_slash	7	advance_on_keypress_SLASH	142	stimuli_target_trianglesquares.svg	stimuli_distractor_diamondtriangles.svg	22	yes	57	0	446
6.6.1	win	2022-12-29	11:12:56	11:18:59	362176	5b4a54b4ee41890001ae51b6	618219377	1	main_slash	7	main_slash	143	stimuli_target_circlediamonds.svg	stimuli_distractor_diamondtriangles.svg	6	yes	53	1	652
6.6.1	win	2022-12-29	11:12:56	11:18:59	362176	5b4a54b4ee41890001ae51b6	618219377	1	main_slash	7	advance_on_keypress_SLASH	144	stimuli_target_circlediamonds.svg	stimuli_distractor_diamondtriangles.svg	6	yes	57	0	319
6.6.1	win	2022-12-29	11:12:56	11:19:01	363902	5b4a54b4ee41890001ae51b6	618219377	1	main_slash	7	main_slash	145	stimuli_distractor_diamondtriangles.svg	stimuli_target_circletriangles.svg	13	yes	53	1	764
6.6.1	win	2022-12-29	11:12:56	11:19:01	363902	5b4a54b4ee41890001ae51b6	618219377	1	main_slash	7	advance_on_keypress_SLASH	146	stimuli_distractor_diamondtriangles.svg	stimuli_target_circletriangles.svg	13	yes	57	0	359
6.6.1	win	2022-12-29	11:12:56	11:19:03	365909	5b4a54b4ee41890001ae51b6	618219377	1	main_slash	7	main_slash	147	stimuli_target_squaretriangles.svg	stimuli_distractor_diamondtriangles.svg	7	yes	53	1	1011
6.6.1	win	2022-12-29	11:12:56	11:19:03	365909	5b4a54b4ee41890001ae51b6	618219377	1	main_slash	7	advance_on_keypress_SLASH	148	stimuli_target_squaretriangles.svg	stimuli_distractor_diamondtriangles.svg	7	yes	57	0	409
6.6.1	win	2022-12-29	11:12:56	11:19:05	367685	5b4a54b4ee41890001ae51b6	618219377	1	main_slash	7	main_slash	149	stimuli_distractor_diamondtriangles.svg	stimuli_target_diamondsquares.svg	32	yes	53	1	748
6.6.1	win	2022-12-29	11:12:56	11:19:05	367685	5b4a54b4ee41890001ae51b6	618219377	1	main_slash	7	advance_on_keypress_SLASH	150	stimuli_distractor_diamondtriangles.svg	stimuli_target_diamondsquares.svg	32	yes	57	0	432
6.6.1	win	2022-12-29	11:12:56	11:19:06	369436	5b4a54b4ee41890001ae51b6	618219377	1	main_slash	7	main_slash	151	stimuli_target_circlediamonds.svg	stimuli_distractor_trianglediamonds.svg	2	yes	53	1	685
6.6.1	win	2022-12-29	11:12:56	11:19:06	369436	5b4a54b4ee41890001ae51b6	618219377	1	main_slash	7	advance_on_keypress_SLASH	152	stimuli_target_circlediamonds.svg	stimuli_distractor_trianglediamonds.svg	2	yes	57	0	428
6.6.1	win	2022-12-29	11:12:56	11:19:08	371151	5b4a54b4ee41890001ae51b6	618219377	1	main_slash	7	main_slash	153	stimuli_distractor_trianglediamonds.svg	stimuli_target_trianglesquares.svg	26	yes	53	1	653
6.6.1	win	2022-12-29	11:12:56	11:19:08	371151	5b4a54b4ee41890001ae51b6	618219377	1	main_slash	7	advance_on_keypress_SLASH	154	stimuli_distractor_trianglediamonds.svg	stimuli_target_trianglesquares.svg	26	yes	57	0	412
6.6.1	win	2022-12-29	11:12:56	11:19:10	372923	5b4a54b4ee41890001ae51b6	618219377	1	main_slash	7	main_slash	155	stimuli_distractor_trianglediamonds.svg	stimuli_distractor_diamondtriangles.svg	35	no	53	0	717
6.6.1	win	2022-12-29	11:12:56	11:19:10	372923	5b4a54b4ee41890001ae51b6	618219377	1	main_slash	7	advance_on_keypress_SLASH	156	stimuli_distractor_trianglediamonds.svg	stimuli_distractor_diamondtriangles.svg	35	no	57	0	456
6.6.1	win	2022-12-29	11:12:56	11:19:12	374885	5b4a54b4ee41890001ae51b6	618219377	1	main_slash	7	main_slash	157	stimuli_distractor_trianglediamonds.svg	stimuli_target_circlediamonds.svg	10	yes	53	1	879
6.6.1	win	2022-12-29	11:12:56	11:19:12	374885	5b4a54b4ee41890001ae51b6	618219377	1	main_slash	7	advance_on_keypress_SLASH	158	stimuli_distractor_trianglediamonds.svg	stimuli_target_circlediamonds.svg	10	yes	57	0	362
6.6.1	win	2022-12-29	11:12:56	11:19:13	376498	5b4a54b4ee41890001ae51b6	618219377	1	main_slash	7	main_slash	159	stimuli_distractor_trianglediamonds.svg	stimuli_target_diamondsquares.svg	28	yes	53	1	613
6.6.1	win	2022-12-29	11:12:56	11:19:13	376498	5b4a54b4ee41890001ae51b6	618219377	1	main_slash	7	advance_on_keypress_SLASH	160	stimuli_distractor_trianglediamonds.svg	stimuli_target_diamondsquares.svg	28	yes	57	0	518
6.6.1	win	2022-12-29	11:12:56	11:20:13	435886	5b4a54b4ee41890001ae51b6	618219377	1	practice_z	9	practice_z	1	stimuli_distractor_trianglediamonds.svg	stimuli_target_circlediamonds.svg	10	yes	44	1	979
6.6.1	win	2022-12-29	11:12:56	11:20:13	435886	5b4a54b4ee41890001ae51b6	618219377	1	practice_z	9	advance_on_keypress_ZEE	2	stimuli_distractor_trianglediamonds.svg	stimuli_target_circlediamonds.svg	10	yes	57	0	555
6.6.1	win	2022-12-29	11:12:56	11:20:16	439062	5b4a54b4ee41890001ae51b6	618219377	1	practice_z	9	practice_z	3	stimuli_distractor_trianglediamonds.svg	stimuli_target_squarediamonds.svg	11	yes	44	1	995
6.6.1	win	2022-12-29	11:12:56	11:20:16	439062	5b4a54b4ee41890001ae51b6	618219377	1	practice_z	9	advance_on_keypress_ZEE	4	stimuli_distractor_trianglediamonds.svg	stimuli_target_squarediamonds.svg	11	yes	57	0	729
6.6.1	win	2022-12-29	11:12:56	11:20:19	442013	5b4a54b4ee41890001ae51b6	618219377	1	practice_z	9	practice_z	5	stimuli_distractor_diamondtriangles.svg	stimuli_target_trianglecircles.svg	9	yes	44	1	600
6.6.1	win	2022-12-29	11:12:56	11:20:19	442013	5b4a54b4ee41890001ae51b6	618219377	1	practice_z	9	advance_on_keypress_ZEE	6	stimuli_distractor_diamondtriangles.svg	stimuli_target_trianglecircles.svg	9	yes	57	0	292
6.6.1	win	2022-12-29	11:12:56	11:20:21	444537	5b4a54b4ee41890001ae51b6	618219377	1	practice_z	9	practice_z	7	stimuli_target_squarediamonds.svg	stimuli_distractor_diamondtriangles.svg	2	yes	44	1	589
6.6.1	win	2022-12-29	11:12:56	11:20:21	444537	5b4a54b4ee41890001ae51b6	618219377	1	practice_z	9	advance_on_keypress_ZEE	8	stimuli_target_squarediamonds.svg	stimuli_distractor_diamondtriangles.svg	2	yes	57	0	214
6.6.1	win	2022-12-29	11:12:56	11:20:24	447087	5b4a54b4ee41890001ae51b6	618219377	1	practice_z	9	practice_z	9	stimuli_target_diamondsquares.svg	stimuli_distractor_diamondtriangles.svg	3	yes	44	1	699
6.6.1	win	2022-12-29	11:12:56	11:20:24	447087	5b4a54b4ee41890001ae51b6	618219377	1	practice_z	9	advance_on_keypress_ZEE	10	stimuli_target_diamondsquares.svg	stimuli_distractor_diamondtriangles.svg	3	yes	57	0	295
6.6.1	win	2022-12-29	11:12:56	11:20:27	449695	5b4a54b4ee41890001ae51b6	618219377	1	practice_z	9	practice_z	11	stimuli_distractor_trianglediamonds.svg	stimuli_target_diamondcircles.svg	12	yes	44	1	679
6.6.1	win	2022-12-29	11:12:56	11:20:27	449695	5b4a54b4ee41890001ae51b6	618219377	1	practice_z	9	advance_on_keypress_ZEE	12	stimuli_distractor_trianglediamonds.svg	stimuli_target_diamondcircles.svg	12	yes	57	0	52
6.6.1	win	2022-12-29	11:12:56	11:20:29	452117	5b4a54b4ee41890001ae51b6	618219377	1	practice_z	9	practice_z	13	stimuli_target_circlediamonds.svg	stimuli_distractor_diamondtriangles.svg	1	yes	44	1	728
6.6.1	win	2022-12-29	11:12:56	11:20:29	452117	5b4a54b4ee41890001ae51b6	618219377	1	practice_z	9	advance_on_keypress_ZEE	14	stimuli_target_circlediamonds.svg	stimuli_distractor_diamondtriangles.svg	1	yes	57	0	480
6.6.1	win	2022-12-29	11:12:56	11:20:33	456229	5b4a54b4ee41890001ae51b6	618219377	1	practice_z	9	practice_z	15	stimuli_distractor_trianglediamonds.svg	stimuli_distractor_trianglediamonds.svg	15	no	0	1	2000
6.6.1	win	2022-12-29	11:12:56	11:20:33	456229	5b4a54b4ee41890001ae51b6	618219377	1	practice_z	9	advance_on_keypress_ZEE	16	stimuli_distractor_trianglediamonds.svg	stimuli_distractor_trianglediamonds.svg	15	no	57	0	448
6.6.1	win	2022-12-29	11:12:56	11:20:36	458949	5b4a54b4ee41890001ae51b6	618219377	1	practice_z	9	practice_z	17	stimuli_target_circlediamonds.svg	stimuli_distractor_trianglediamonds.svg	4	yes	44	1	639
6.6.1	win	2022-12-29	11:12:56	11:20:36	458949	5b4a54b4ee41890001ae51b6	618219377	1	practice_z	9	advance_on_keypress_ZEE	18	stimuli_target_circlediamonds.svg	stimuli_distractor_trianglediamonds.svg	4	yes	57	0	315
6.6.1	win	2022-12-29	11:12:56	11:20:39	461880	5b4a54b4ee41890001ae51b6	618219377	1	practice_z	9	practice_z	19	stimuli_distractor_diamondtriangles.svg	stimuli_distractor_trianglediamonds.svg	14	no	44	0	983
6.6.1	win	2022-12-29	11:12:56	11:20:39	461880	5b4a54b4ee41890001ae51b6	618219377	1	practice_z	9	advance_on_keypress_ZEE	20	stimuli_distractor_diamondtriangles.svg	stimuli_distractor_trianglediamonds.svg	14	no	57	0	434
6.6.1	win	2022-12-29	11:12:56	11:20:42	464625	5b4a54b4ee41890001ae51b6	618219377	1	practice_z	9	practice_z	21	stimuli_target_diamondsquares.svg	stimuli_distractor_trianglediamonds.svg	6	yes	44	1	688
6.6.1	win	2022-12-29	11:12:56	11:20:42	464625	5b4a54b4ee41890001ae51b6	618219377	1	practice_z	9	advance_on_keypress_ZEE	22	stimuli_target_diamondsquares.svg	stimuli_distractor_trianglediamonds.svg	6	yes	57	0	259
6.6.1	win	2022-12-29	11:12:56	11:20:45	467724	5b4a54b4ee41890001ae51b6	618219377	1	practice_z	9	practice_z	23	stimuli_distractor_diamondtriangles.svg	stimuli_target_diamondcircles.svg	8	yes	44	1	1212
6.6.1	win	2022-12-29	11:12:56	11:20:45	467724	5b4a54b4ee41890001ae51b6	618219377	1	practice_z	9	advance_on_keypress_ZEE	24	stimuli_distractor_diamondtriangles.svg	stimuli_target_diamondcircles.svg	8	yes	57	0	494
6.6.1	win	2022-12-29	11:12:56	11:20:49	471858	5b4a54b4ee41890001ae51b6	618219377	1	practice_z	9	practice_z	25	stimuli_distractor_diamondtriangles.svg	stimuli_distractor_diamondtriangles.svg	13	no	0	1	2000
6.6.1	win	2022-12-29	11:12:56	11:20:49	471858	5b4a54b4ee41890001ae51b6	618219377	1	practice_z	9	advance_on_keypress_ZEE	26	stimuli_distractor_diamondtriangles.svg	stimuli_distractor_diamondtriangles.svg	13	no	57	0	267
6.6.1	win	2022-12-29	11:12:56	11:20:51	474398	5b4a54b4ee41890001ae51b6	618219377	1	practice_z	9	practice_z	27	stimuli_target_squarediamonds.svg	stimuli_distractor_trianglediamonds.svg	5	yes	44	1	633
6.6.1	win	2022-12-29	11:12:56	11:20:51	474398	5b4a54b4ee41890001ae51b6	618219377	1	practice_z	9	advance_on_keypress_ZEE	28	stimuli_target_squarediamonds.svg	stimuli_distractor_trianglediamonds.svg	5	yes	57	0	392
6.6.1	win	2022-12-29	11:12:56	11:20:54	477114	5b4a54b4ee41890001ae51b6	618219377	1	practice_z	9	practice_z	29	stimuli_distractor_diamondtriangles.svg	stimuli_target_circletriangles.svg	7	yes	44	1	694
6.6.1	win	2022-12-29	11:12:56	11:20:54	477114	5b4a54b4ee41890001ae51b6	618219377	1	practice_z	9	advance_on_keypress_ZEE	30	stimuli_distractor_diamondtriangles.svg	stimuli_target_circletriangles.svg	7	yes	57	0	511
6.6.1	win	2022-12-29	11:12:56	11:20:58	481259	5b4a54b4ee41890001ae51b6	618219377	1	practice_z	9	practice_z	31	stimuli_distractor_trianglediamonds.svg	stimuli_distractor_diamondtriangles.svg	16	no	0	1	2000
6.6.1	win	2022-12-29	11:12:56	11:20:58	481259	5b4a54b4ee41890001ae51b6	618219377	1	practice_z	9	advance_on_keypress_ZEE	32	stimuli_distractor_trianglediamonds.svg	stimuli_distractor_diamondtriangles.svg	16	no	57	0	243
6.6.1	win	2022-12-29	11:12:56	11:21:02	485508	5b4a54b4ee41890001ae51b6	618219377	1	main_z	11	main_z	1	stimuli_target_squarediamonds.svg	stimuli_distractor_diamondtriangles.svg	8	yes	44	1	661
6.6.1	win	2022-12-29	11:12:56	11:21:02	485508	5b4a54b4ee41890001ae51b6	618219377	1	main_z	11	advance_on_keypress_ZEE	2	stimuli_target_squarediamonds.svg	stimuli_distractor_diamondtriangles.svg	8	yes	57	0	621
6.6.1	win	2022-12-29	11:12:56	11:21:04	487341	5b4a54b4ee41890001ae51b6	618219377	1	main_z	11	main_z	3	stimuli_target_circletriangles.svg	stimuli_distractor_trianglediamonds.svg	1	yes	44	1	588
6.6.1	win	2022-12-29	11:12:56	11:21:04	487341	5b4a54b4ee41890001ae51b6	618219377	1	main_z	11	advance_on_keypress_ZEE	4	stimuli_target_circletriangles.svg	stimuli_distractor_trianglediamonds.svg	1	yes	57	0	774
6.6.1	win	2022-12-29	11:12:56	11:21:08	490753	5b4a54b4ee41890001ae51b6	618219377	1	main_z	11	main_z	5	stimuli_distractor_trianglediamonds.svg	stimuli_distractor_trianglediamonds.svg	33	no	0	1	2000
6.6.1	win	2022-12-29	11:12:56	11:21:08	490753	5b4a54b4ee41890001ae51b6	618219377	1	main_z	11	advance_on_keypress_ZEE	6	stimuli_distractor_trianglediamonds.svg	stimuli_distractor_trianglediamonds.svg	33	no	57	0	339
6.6.1	win	2022-12-29	11:12:56	11:21:11	493727	5b4a54b4ee41890001ae51b6	618219377	1	main_z	11	main_z	7	stimuli_distractor_trianglediamonds.svg	stimuli_distractor_diamondtriangles.svg	35	no	0	1	2000
6.6.1	win	2022-12-29	11:12:56	11:21:11	493727	5b4a54b4ee41890001ae51b6	618219377	1	main_z	11	advance_on_keypress_ZEE	8	stimuli_distractor_trianglediamonds.svg	stimuli_distractor_diamondtriangles.svg	35	no	57	0	286
6.6.1	win	2022-12-29	11:12:56	11:21:12	495186	5b4a54b4ee41890001ae51b6	618219377	1	main_z	11	main_z	9	stimuli_distractor_diamondtriangles.svg	stimuli_target_diamondcircles.svg	31	yes	44	1	538
6.6.1	win	2022-12-29	11:12:56	11:21:12	495186	5b4a54b4ee41890001ae51b6	618219377	1	main_z	11	advance_on_keypress_ZEE	10	stimuli_distractor_diamondtriangles.svg	stimuli_target_diamondcircles.svg	31	yes	57	0	501
6.6.1	win	2022-12-29	11:12:56	11:21:14	496954	5b4a54b4ee41890001ae51b6	618219377	1	main_z	11	main_z	11	stimuli_distractor_trianglediamonds.svg	stimuli_target_squarediamonds.svg	12	yes	44	1	640
6.6.1	win	2022-12-29	11:12:56	11:21:14	496954	5b4a54b4ee41890001ae51b6	618219377	1	main_z	11	advance_on_keypress_ZEE	12	stimuli_distractor_trianglediamonds.svg	stimuli_target_squarediamonds.svg	12	yes	57	0	512
6.6.1	win	2022-12-29	11:12:56	11:21:16	498799	5b4a54b4ee41890001ae51b6	618219377	1	main_z	11	main_z	13	stimuli_distractor_trianglediamonds.svg	stimuli_target_squaretriangles.svg	11	yes	44	1	698
6.6.1	win	2022-12-29	11:12:56	11:21:16	498799	5b4a54b4ee41890001ae51b6	618219377	1	main_z	11	advance_on_keypress_ZEE	14	stimuli_distractor_trianglediamonds.svg	stimuli_target_squaretriangles.svg	11	yes	57	0	577
6.6.1	win	2022-12-29	11:12:56	11:21:18	500601	5b4a54b4ee41890001ae51b6	618219377	1	main_z	11	main_z	15	stimuli_target_diamondcircles.svg	stimuli_distractor_trianglediamonds.svg	19	yes	44	1	593
6.6.1	win	2022-12-29	11:12:56	11:21:18	500601	5b4a54b4ee41890001ae51b6	618219377	1	main_z	11	advance_on_keypress_ZEE	16	stimuli_target_diamondcircles.svg	stimuli_distractor_trianglediamonds.svg	19	yes	57	0	482
6.6.1	win	2022-12-29	11:12:56	11:21:19	502318	5b4a54b4ee41890001ae51b6	618219377	1	main_z	11	main_z	17	stimuli_target_trianglesquares.svg	stimuli_distractor_trianglediamonds.svg	18	yes	44	1	602
6.6.1	win	2022-12-29	11:12:56	11:21:19	502318	5b4a54b4ee41890001ae51b6	618219377	1	main_z	11	advance_on_keypress_ZEE	18	stimuli_target_trianglesquares.svg	stimuli_distractor_trianglediamonds.svg	18	yes	57	0	543
6.6.1	win	2022-12-29	11:12:56	11:21:22	505489	5b4a54b4ee41890001ae51b6	618219377	1	main_z	11	main_z	19	stimuli_distractor_trianglediamonds.svg	stimuli_distractor_diamondtriangles.svg	36	no	0	1	2000
6.6.1	win	2022-12-29	11:12:56	11:21:22	505489	5b4a54b4ee41890001ae51b6	618219377	1	main_z	11	advance_on_keypress_ZEE	20	stimuli_distractor_trianglediamonds.svg	stimuli_distractor_diamondtriangles.svg	36	no	57	0	336
6.6.1	win	2022-12-29	11:12:56	11:21:24	507515	5b4a54b4ee41890001ae51b6	618219377	1	main_z	11	main_z	21	stimuli_distractor_trianglediamonds.svg	stimuli_distractor_trianglediamonds.svg	34	no	44	0	1053
6.6.1	win	2022-12-29	11:12:56	11:21:24	507515	5b4a54b4ee41890001ae51b6	618219377	1	main_z	11	advance_on_keypress_ZEE	22	stimuli_distractor_trianglediamonds.svg	stimuli_distractor_trianglediamonds.svg	34	no	57	0	852
6.6.1	win	2022-12-29	11:12:56	11:21:26	509557	5b4a54b4ee41890001ae51b6	618219377	1	main_z	11	main_z	23	stimuli_target_squaretriangles.svg	stimuli_distractor_trianglediamonds.svg	3	yes	44	1	548
6.6.1	win	2022-12-29	11:12:56	11:21:26	509557	5b4a54b4ee41890001ae51b6	618219377	1	main_z	11	advance_on_keypress_ZEE	24	stimuli_target_squaretriangles.svg	stimuli_distractor_trianglediamonds.svg	3	yes	57	0	600
6.6.1	win	2022-12-29	11:12:56	11:21:28	511449	5b4a54b4ee41890001ae51b6	618219377	1	main_z	11	main_z	25	stimuli_target_trianglecircles.svg	stimuli_distractor_trianglediamonds.svg	17	yes	44	1	652
6.6.1	win	2022-12-29	11:12:56	11:21:28	511449	5b4a54b4ee41890001ae51b6	618219377	1	main_z	11	advance_on_keypress_ZEE	26	stimuli_target_trianglecircles.svg	stimuli_distractor_trianglediamonds.svg	17	yes	57	0	645
6.6.1	win	2022-12-29	11:12:56	11:21:32	514730	5b4a54b4ee41890001ae51b6	618219377	1	main_z	11	main_z	27	stimuli_distractor_diamondtriangles.svg	stimuli_distractor_trianglediamonds.svg	37	no	0	1	2000
6.6.1	win	2022-12-29	11:12:56	11:21:32	514730	5b4a54b4ee41890001ae51b6	618219377	1	main_z	11	advance_on_keypress_ZEE	28	stimuli_distractor_diamondtriangles.svg	stimuli_distractor_trianglediamonds.svg	37	no	57	0	394
6.6.1	win	2022-12-29	11:12:56	11:21:33	516424	5b4a54b4ee41890001ae51b6	618219377	1	main_z	11	main_z	29	stimuli_distractor_diamondtriangles.svg	stimuli_distractor_trianglediamonds.svg	38	no	44	0	668
6.6.1	win	2022-12-29	11:12:56	11:21:33	516424	5b4a54b4ee41890001ae51b6	618219377	1	main_z	11	advance_on_keypress_ZEE	30	stimuli_distractor_diamondtriangles.svg	stimuli_distractor_trianglediamonds.svg	38	no	57	0	719
6.6.1	win	2022-12-29	11:12:56	11:21:35	518370	5b4a54b4ee41890001ae51b6	618219377	1	main_z	11	main_z	31	stimuli_distractor_trianglediamonds.svg	stimuli_target_diamondcircles.svg	27	yes	44	1	587
6.6.1	win	2022-12-29	11:12:56	11:21:35	518370	5b4a54b4ee41890001ae51b6	618219377	1	main_z	11	advance_on_keypress_ZEE	32	stimuli_distractor_trianglediamonds.svg	stimuli_target_diamondcircles.svg	27	yes	57	0	853
6.6.1	win	2022-12-29	11:12:56	11:21:37	520440	5b4a54b4ee41890001ae51b6	618219377	1	main_z	11	main_z	33	stimuli_target_trianglecircles.svg	stimuli_distractor_diamondtriangles.svg	21	yes	44	1	575
6.6.1	win	2022-12-29	11:12:56	11:21:37	520440	5b4a54b4ee41890001ae51b6	618219377	1	main_z	11	advance_on_keypress_ZEE	34	stimuli_target_trianglecircles.svg	stimuli_distractor_diamondtriangles.svg	21	yes	57	0	750
6.6.1	win	2022-12-29	11:12:56	11:21:39	522518	5b4a54b4ee41890001ae51b6	618219377	1	main_z	11	main_z	35	stimuli_distractor_trianglediamonds.svg	stimuli_target_circletriangles.svg	9	yes	44	1	693
6.6.1	win	2022-12-29	11:12:56	11:21:39	522518	5b4a54b4ee41890001ae51b6	618219377	1	main_z	11	advance_on_keypress_ZEE	36	stimuli_distractor_trianglediamonds.svg	stimuli_target_circletriangles.svg	9	yes	57	0	407
6.6.1	win	2022-12-29	11:12:56	11:21:41	524131	5b4a54b4ee41890001ae51b6	618219377	1	main_z	11	main_z	37	stimuli_target_trianglesquares.svg	stimuli_distractor_diamondtriangles.svg	22	yes	44	1	574
6.6.1	win	2022-12-29	11:12:56	11:21:41	524131	5b4a54b4ee41890001ae51b6	618219377	1	main_z	11	advance_on_keypress_ZEE	38	stimuli_target_trianglesquares.svg	stimuli_distractor_diamondtriangles.svg	22	yes	57	0	622
6.6.1	win	2022-12-29	11:12:56	11:21:43	526082	5b4a54b4ee41890001ae51b6	618219377	1	main_z	11	main_z	39	stimuli_target_squaretriangles.svg	stimuli_distractor_diamondtriangles.svg	7	yes	44	1	698
6.6.1	win	2022-12-29	11:12:56	11:21:43	526082	5b4a54b4ee41890001ae51b6	618219377	1	main_z	11	advance_on_keypress_ZEE	40	stimuli_target_squaretriangles.svg	stimuli_distractor_diamondtriangles.svg	7	yes	57	0	447
6.6.1	win	2022-12-29	11:12:56	11:21:45	527612	5b4a54b4ee41890001ae51b6	618219377	1	main_z	11	main_z	41	stimuli_distractor_trianglediamonds.svg	stimuli_target_circlediamonds.svg	10	yes	44	1	454
6.6.1	win	2022-12-29	11:12:56	11:21:45	527612	5b4a54b4ee41890001ae51b6	618219377	1	main_z	11	advance_on_keypress_ZEE	42	stimuli_distractor_trianglediamonds.svg	stimuli_target_circlediamonds.svg	10	yes	57	0	617
6.6.1	win	2022-12-29	11:12:56	11:21:46	529303	5b4a54b4ee41890001ae51b6	618219377	1	main_z	11	main_z	43	stimuli_distractor_trianglediamonds.svg	stimuli_target_diamondsquares.svg	28	yes	44	1	437
6.6.1	win	2022-12-29	11:12:56	11:21:46	529303	5b4a54b4ee41890001ae51b6	618219377	1	main_z	11	advance_on_keypress_ZEE	44	stimuli_distractor_trianglediamonds.svg	stimuli_target_diamondsquares.svg	28	yes	57	0	587
6.6.1	win	2022-12-29	11:12:56	11:21:48	530859	5b4a54b4ee41890001ae51b6	618219377	1	main_z	11	main_z	45	stimuli_target_squarediamonds.svg	stimuli_distractor_trianglediamonds.svg	4	yes	44	1	340
6.6.1	win	2022-12-29	11:12:56	11:21:48	530859	5b4a54b4ee41890001ae51b6	618219377	1	main_z	11	advance_on_keypress_ZEE	46	stimuli_target_squarediamonds.svg	stimuli_distractor_trianglediamonds.svg	4	yes	57	0	441
6.6.1	win	2022-12-29	11:12:56	11:21:49	532347	5b4a54b4ee41890001ae51b6	618219377	1	main_z	11	main_z	47	stimuli_distractor_diamondtriangles.svg	stimuli_target_circlediamonds.svg	14	yes	44	1	414
6.6.1	win	2022-12-29	11:12:56	11:21:49	532347	5b4a54b4ee41890001ae51b6	618219377	1	main_z	11	advance_on_keypress_ZEE	48	stimuli_distractor_diamondtriangles.svg	stimuli_target_circlediamonds.svg	14	yes	57	0	444
6.6.1	win	2022-12-29	11:12:56	11:21:51	533774	5b4a54b4ee41890001ae51b6	618219377	1	main_z	11	main_z	49	stimuli_distractor_trianglediamonds.svg	stimuli_target_trianglesquares.svg	26	yes	44	1	349
6.6.1	win	2022-12-29	11:12:56	11:21:51	533774	5b4a54b4ee41890001ae51b6	618219377	1	main_z	11	advance_on_keypress_ZEE	50	stimuli_distractor_trianglediamonds.svg	stimuli_target_trianglesquares.svg	26	yes	57	0	433
6.6.1	win	2022-12-29	11:12:56	11:21:52	535102	5b4a54b4ee41890001ae51b6	618219377	1	main_z	11	main_z	51	stimuli_distractor_trianglediamonds.svg	stimuli_target_trianglecircles.svg	25	yes	44	1	263
6.6.1	win	2022-12-29	11:12:56	11:21:52	535102	5b4a54b4ee41890001ae51b6	618219377	1	main_z	11	advance_on_keypress_ZEE	52	stimuli_distractor_trianglediamonds.svg	stimuli_target_trianglecircles.svg	25	yes	57	0	465
6.6.1	win	2022-12-29	11:12:56	11:21:53	536432	5b4a54b4ee41890001ae51b6	618219377	1	main_z	11	main_z	53	stimuli_distractor_diamondtriangles.svg	stimuli_target_trianglecircles.svg	29	yes	44	1	233
6.6.1	win	2022-12-29	11:12:56	11:21:53	536432	5b4a54b4ee41890001ae51b6	618219377	1	main_z	11	advance_on_keypress_ZEE	54	stimuli_distractor_diamondtriangles.svg	stimuli_target_trianglecircles.svg	29	yes	57	0	554
6.6.1	win	2022-12-29	11:12:56	11:21:55	537842	5b4a54b4ee41890001ae51b6	618219377	1	main_z	11	main_z	55	stimuli_target_circletriangles.svg	stimuli_distractor_diamondtriangles.svg	5	yes	44	1	228
6.6.1	win	2022-12-29	11:12:56	11:21:55	537842	5b4a54b4ee41890001ae51b6	618219377	1	main_z	11	advance_on_keypress_ZEE	56	stimuli_target_circletriangles.svg	stimuli_distractor_diamondtriangles.svg	5	yes	57	0	451
6.6.1	win	2022-12-29	11:12:56	11:21:56	539150	5b4a54b4ee41890001ae51b6	618219377	1	main_z	11	main_z	57	stimuli_distractor_diamondtriangles.svg	stimuli_target_diamondsquares.svg	32	yes	44	1	216
6.6.1	win	2022-12-29	11:12:56	11:21:56	539150	5b4a54b4ee41890001ae51b6	618219377	1	main_z	11	advance_on_keypress_ZEE	58	stimuli_distractor_diamondtriangles.svg	stimuli_target_diamondsquares.svg	32	yes	57	0	973
6.6.1	win	2022-12-29	11:12:56	11:21:58	541068	5b4a54b4ee41890001ae51b6	618219377	1	main_z	11	main_z	59	stimuli_distractor_diamondtriangles.svg	stimuli_target_circletriangles.svg	13	yes	44	1	307
6.6.1	win	2022-12-29	11:12:56	11:21:58	541068	5b4a54b4ee41890001ae51b6	618219377	1	main_z	11	advance_on_keypress_ZEE	60	stimuli_distractor_diamondtriangles.svg	stimuli_target_circletriangles.svg	13	yes	57	0	1094
6.6.1	win	2022-12-29	11:12:56	11:22:00	543096	5b4a54b4ee41890001ae51b6	618219377	1	main_z	11	main_z	61	stimuli_target_diamondcircles.svg	stimuli_distractor_diamondtriangles.svg	23	yes	44	1	296
6.6.1	win	2022-12-29	11:12:56	11:22:00	543096	5b4a54b4ee41890001ae51b6	618219377	1	main_z	11	advance_on_keypress_ZEE	62	stimuli_target_diamondcircles.svg	stimuli_distractor_diamondtriangles.svg	23	yes	57	0	720
6.6.1	win	2022-12-29	11:12:56	11:22:02	544765	5b4a54b4ee41890001ae51b6	618219377	1	main_z	11	main_z	63	stimuli_target_diamondsquares.svg	stimuli_distractor_trianglediamonds.svg	20	yes	44	1	311
6.6.1	win	2022-12-29	11:12:56	11:22:02	544765	5b4a54b4ee41890001ae51b6	618219377	1	main_z	11	advance_on_keypress_ZEE	64	stimuli_target_diamondsquares.svg	stimuli_distractor_trianglediamonds.svg	20	yes	57	0	395
6.6.1	win	2022-12-29	11:12:56	11:22:03	546535	5b4a54b4ee41890001ae51b6	618219377	1	main_z	11	main_z	65	stimuli_distractor_diamondtriangles.svg	stimuli_target_squaretriangles.svg	15	yes	44	1	747
6.6.1	win	2022-12-29	11:12:56	11:22:03	546535	5b4a54b4ee41890001ae51b6	618219377	1	main_z	11	advance_on_keypress_ZEE	66	stimuli_distractor_diamondtriangles.svg	stimuli_target_squaretriangles.svg	15	yes	57	0	565
6.6.1	win	2022-12-29	11:12:56	11:22:05	548205	5b4a54b4ee41890001ae51b6	618219377	1	main_z	11	main_z	67	stimuli_distractor_diamondtriangles.svg	stimuli_target_trianglesquares.svg	30	yes	44	1	470
6.6.1	win	2022-12-29	11:12:56	11:22:05	548205	5b4a54b4ee41890001ae51b6	618219377	1	main_z	11	advance_on_keypress_ZEE	68	stimuli_distractor_diamondtriangles.svg	stimuli_target_trianglesquares.svg	30	yes	57	0	444
6.6.1	win	2022-12-29	11:12:56	11:22:07	549739	5b4a54b4ee41890001ae51b6	618219377	1	main_z	11	main_z	69	stimuli_distractor_diamondtriangles.svg	stimuli_target_squarediamonds.svg	16	yes	44	1	457
6.6.1	win	2022-12-29	11:12:56	11:22:07	549739	5b4a54b4ee41890001ae51b6	618219377	1	main_z	11	advance_on_keypress_ZEE	70	stimuli_distractor_diamondtriangles.svg	stimuli_target_squarediamonds.svg	16	yes	57	0	377
6.6.1	win	2022-12-29	11:12:56	11:22:10	552748	5b4a54b4ee41890001ae51b6	618219377	1	main_z	11	main_z	71	stimuli_distractor_diamondtriangles.svg	stimuli_distractor_diamondtriangles.svg	39	no	0	1	2000
6.6.1	win	2022-12-29	11:12:56	11:22:10	552748	5b4a54b4ee41890001ae51b6	618219377	1	main_z	11	advance_on_keypress_ZEE	72	stimuli_distractor_diamondtriangles.svg	stimuli_distractor_diamondtriangles.svg	39	no	57	0	340
6.6.1	win	2022-12-29	11:12:56	11:22:11	554207	5b4a54b4ee41890001ae51b6	618219377	1	main_z	11	main_z	73	stimuli_target_circlediamonds.svg	stimuli_distractor_diamondtriangles.svg	6	yes	44	1	486
6.6.1	win	2022-12-29	11:12:56	11:22:11	554207	5b4a54b4ee41890001ae51b6	618219377	1	main_z	11	advance_on_keypress_ZEE	74	stimuli_target_circlediamonds.svg	stimuli_distractor_diamondtriangles.svg	6	yes	57	0	508
6.6.1	win	2022-12-29	11:12:56	11:22:13	556180	5b4a54b4ee41890001ae51b6	618219377	1	main_z	11	main_z	75	stimuli_distractor_diamondtriangles.svg	stimuli_distractor_diamondtriangles.svg	40	no	44	0	831
6.6.1	win	2022-12-29	11:12:56	11:22:13	556180	5b4a54b4ee41890001ae51b6	618219377	1	main_z	11	advance_on_keypress_ZEE	76	stimuli_distractor_diamondtriangles.svg	stimuli_distractor_diamondtriangles.svg	40	no	57	0	551
6.6.1	win	2022-12-29	11:12:56	11:22:15	558107	5b4a54b4ee41890001ae51b6	618219377	1	main_z	11	main_z	77	stimuli_target_diamondsquares.svg	stimuli_distractor_diamondtriangles.svg	24	yes	44	1	744
6.6.1	win	2022-12-29	11:12:56	11:22:15	558107	5b4a54b4ee41890001ae51b6	618219377	1	main_z	11	advance_on_keypress_ZEE	78	stimuli_target_diamondsquares.svg	stimuli_distractor_diamondtriangles.svg	24	yes	57	0	350
6.6.1	win	2022-12-29	11:12:56	11:22:16	559560	5b4a54b4ee41890001ae51b6	618219377	1	main_z	11	main_z	79	stimuli_target_circlediamonds.svg	stimuli_distractor_trianglediamonds.svg	2	yes	44	1	477
6.6.1	win	2022-12-29	11:12:56	11:22:16	559560	5b4a54b4ee41890001ae51b6	618219377	1	main_z	11	advance_on_keypress_ZEE	80	stimuli_target_circlediamonds.svg	stimuli_distractor_trianglediamonds.svg	2	yes	57	0	424
6.6.1	win	2022-12-29	11:12:56	11:22:18	561169	5b4a54b4ee41890001ae51b6	618219377	1	main_z	11	main_z	81	stimuli_target_diamondcircles.svg	stimuli_distractor_diamondtriangles.svg	23	yes	44	1	567
6.6.1	win	2022-12-29	11:12:56	11:22:18	561169	5b4a54b4ee41890001ae51b6	618219377	1	main_z	11	advance_on_keypress_ZEE	82	stimuli_target_diamondcircles.svg	stimuli_distractor_diamondtriangles.svg	23	yes	57	0	394
6.6.1	win	2022-12-29	11:12:56	11:22:20	562722	5b4a54b4ee41890001ae51b6	618219377	1	main_z	11	main_z	83	stimuli_distractor_trianglediamonds.svg	stimuli_target_trianglecircles.svg	25	yes	44	1	533
6.6.1	win	2022-12-29	11:12:56	11:22:20	562722	5b4a54b4ee41890001ae51b6	618219377	1	main_z	11	advance_on_keypress_ZEE	84	stimuli_distractor_trianglediamonds.svg	stimuli_target_trianglecircles.svg	25	yes	57	0	343
6.6.1	win	2022-12-29	11:12:56	11:22:21	564216	5b4a54b4ee41890001ae51b6	618219377	1	main_z	11	main_z	85	stimuli_target_squarediamonds.svg	stimuli_distractor_diamondtriangles.svg	8	yes	44	1	517
6.6.1	win	2022-12-29	11:12:56	11:22:21	564216	5b4a54b4ee41890001ae51b6	618219377	1	main_z	11	advance_on_keypress_ZEE	86	stimuli_target_squarediamonds.svg	stimuli_distractor_diamondtriangles.svg	8	yes	57	0	401
6.6.1	win	2022-12-29	11:12:56	11:22:23	565655	5b4a54b4ee41890001ae51b6	618219377	1	main_z	11	main_z	87	stimuli_distractor_trianglediamonds.svg	stimuli_target_circlediamonds.svg	10	yes	44	1	399
6.6.1	win	2022-12-29	11:12:56	11:22:23	565655	5b4a54b4ee41890001ae51b6	618219377	1	main_z	11	advance_on_keypress_ZEE	88	stimuli_distractor_trianglediamonds.svg	stimuli_target_circlediamonds.svg	10	yes	57	0	437
6.6.1	win	2022-12-29	11:12:56	11:22:24	567249	5b4a54b4ee41890001ae51b6	618219377	1	main_z	11	main_z	89	stimuli_target_circlediamonds.svg	stimuli_distractor_diamondtriangles.svg	6	yes	44	1	525
6.6.1	win	2022-12-29	11:12:56	11:22:24	567249	5b4a54b4ee41890001ae51b6	618219377	1	main_z	11	advance_on_keypress_ZEE	90	stimuli_target_circlediamonds.svg	stimuli_distractor_diamondtriangles.svg	6	yes	57	0	453
6.6.1	win	2022-12-29	11:12:56	11:22:26	568807	5b4a54b4ee41890001ae51b6	618219377	1	main_z	11	main_z	91	stimuli_distractor_trianglediamonds.svg	stimuli_target_squaretriangles.svg	11	yes	44	1	469
6.6.1	win	2022-12-29	11:12:56	11:22:26	568807	5b4a54b4ee41890001ae51b6	618219377	1	main_z	11	advance_on_keypress_ZEE	92	stimuli_distractor_trianglediamonds.svg	stimuli_target_squaretriangles.svg	11	yes	57	0	399
6.6.1	win	2022-12-29	11:12:56	11:22:27	570215	5b4a54b4ee41890001ae51b6	618219377	1	main_z	11	main_z	93	stimuli_distractor_trianglediamonds.svg	stimuli_distractor_diamondtriangles.svg	35	no	44	0	372
6.6.1	win	2022-12-29	11:12:56	11:22:27	570215	5b4a54b4ee41890001ae51b6	618219377	1	main_z	11	advance_on_keypress_ZEE	94	stimuli_distractor_trianglediamonds.svg	stimuli_distractor_diamondtriangles.svg	35	no	57	0	1279
6.6.1	win	2022-12-29	11:12:56	11:22:30	572644	5b4a54b4ee41890001ae51b6	618219377	1	main_z	11	main_z	95	stimuli_distractor_trianglediamonds.svg	stimuli_target_squarediamonds.svg	12	yes	44	1	509
6.6.1	win	2022-12-29	11:12:56	11:22:30	572644	5b4a54b4ee41890001ae51b6	618219377	1	main_z	11	advance_on_keypress_ZEE	96	stimuli_distractor_trianglediamonds.svg	stimuli_target_squarediamonds.svg	12	yes	57	0	412
6.6.1	win	2022-12-29	11:12:56	11:22:31	574167	5b4a54b4ee41890001ae51b6	618219377	1	main_z	11	main_z	97	stimuli_target_diamondcircles.svg	stimuli_distractor_trianglediamonds.svg	19	yes	44	1	470
6.6.1	win	2022-12-29	11:12:56	11:22:31	574167	5b4a54b4ee41890001ae51b6	618219377	1	main_z	11	advance_on_keypress_ZEE	98	stimuli_target_diamondcircles.svg	stimuli_distractor_trianglediamonds.svg	19	yes	57	0	398
6.6.1	win	2022-12-29	11:12:56	11:22:33	575687	5b4a54b4ee41890001ae51b6	618219377	1	main_z	11	main_z	99	stimuli_target_trianglecircles.svg	stimuli_distractor_diamondtriangles.svg	21	yes	44	1	495
6.6.1	win	2022-12-29	11:12:56	11:22:33	575687	5b4a54b4ee41890001ae51b6	618219377	1	main_z	11	advance_on_keypress_ZEE	100	stimuli_target_trianglecircles.svg	stimuli_distractor_diamondtriangles.svg	21	yes	57	0	368
6.6.1	win	2022-12-29	11:12:56	11:22:34	577014	5b4a54b4ee41890001ae51b6	618219377	1	main_z	11	main_z	101	stimuli_distractor_diamondtriangles.svg	stimuli_target_circlediamonds.svg	14	yes	44	1	329
6.6.1	win	2022-12-29	11:12:56	11:22:34	577014	5b4a54b4ee41890001ae51b6	618219377	1	main_z	11	advance_on_keypress_ZEE	102	stimuli_distractor_diamondtriangles.svg	stimuli_target_circlediamonds.svg	14	yes	57	0	408
6.6.1	win	2022-12-29	11:12:56	11:22:35	578484	5b4a54b4ee41890001ae51b6	618219377	1	main_z	11	main_z	103	stimuli_target_squarediamonds.svg	stimuli_distractor_trianglediamonds.svg	4	yes	44	1	438
6.6.1	win	2022-12-29	11:12:56	11:22:35	578484	5b4a54b4ee41890001ae51b6	618219377	1	main_z	11	advance_on_keypress_ZEE	104	stimuli_target_squarediamonds.svg	stimuli_distractor_trianglediamonds.svg	4	yes	57	0	348
6.6.1	win	2022-12-29	11:12:56	11:22:37	580068	5b4a54b4ee41890001ae51b6	618219377	1	main_z	11	main_z	105	stimuli_target_trianglesquares.svg	stimuli_distractor_diamondtriangles.svg	22	yes	44	1	597
6.6.1	win	2022-12-29	11:12:56	11:22:37	580068	5b4a54b4ee41890001ae51b6	618219377	1	main_z	11	advance_on_keypress_ZEE	106	stimuli_target_trianglesquares.svg	stimuli_distractor_diamondtriangles.svg	22	yes	57	0	425
6.6.1	win	2022-12-29	11:12:56	11:22:39	581680	5b4a54b4ee41890001ae51b6	618219377	1	main_z	11	main_z	107	stimuli_distractor_diamondtriangles.svg	stimuli_target_diamondsquares.svg	32	yes	44	1	555
6.6.1	win	2022-12-29	11:12:56	11:22:39	581680	5b4a54b4ee41890001ae51b6	618219377	1	main_z	11	advance_on_keypress_ZEE	108	stimuli_distractor_diamondtriangles.svg	stimuli_target_diamondsquares.svg	32	yes	57	0	322
6.6.1	win	2022-12-29	11:12:56	11:22:40	583110	5b4a54b4ee41890001ae51b6	618219377	1	main_z	11	main_z	109	stimuli_target_squaretriangles.svg	stimuli_distractor_trianglediamonds.svg	3	yes	44	1	477
6.6.1	win	2022-12-29	11:12:56	11:22:40	583110	5b4a54b4ee41890001ae51b6	618219377	1	main_z	11	advance_on_keypress_ZEE	110	stimuli_target_squaretriangles.svg	stimuli_distractor_trianglediamonds.svg	3	yes	57	0	352
6.6.1	win	2022-12-29	11:12:56	11:22:41	584513	5b4a54b4ee41890001ae51b6	618219377	1	main_z	11	main_z	111	stimuli_distractor_diamondtriangles.svg	stimuli_distractor_trianglediamonds.svg	38	no	44	0	427
6.6.1	win	2022-12-29	11:12:56	11:22:41	584513	5b4a54b4ee41890001ae51b6	618219377	1	main_z	11	advance_on_keypress_ZEE	112	stimuli_distractor_diamondtriangles.svg	stimuli_distractor_trianglediamonds.svg	38	no	57	0	680
6.6.1	win	2022-12-29	11:12:56	11:22:43	586410	5b4a54b4ee41890001ae51b6	618219377	1	main_z	11	main_z	113	stimuli_target_trianglesquares.svg	stimuli_distractor_trianglediamonds.svg	18	yes	44	1	577
6.6.1	win	2022-12-29	11:12:56	11:22:43	586410	5b4a54b4ee41890001ae51b6	618219377	1	main_z	11	advance_on_keypress_ZEE	114	stimuli_target_trianglesquares.svg	stimuli_distractor_trianglediamonds.svg	18	yes	57	0	373
6.6.1	win	2022-12-29	11:12:56	11:22:45	587807	5b4a54b4ee41890001ae51b6	618219377	1	main_z	11	main_z	115	stimuli_target_trianglecircles.svg	stimuli_distractor_trianglediamonds.svg	17	yes	44	1	388
6.6.1	win	2022-12-29	11:12:56	11:22:45	587807	5b4a54b4ee41890001ae51b6	618219377	1	main_z	11	advance_on_keypress_ZEE	116	stimuli_target_trianglecircles.svg	stimuli_distractor_trianglediamonds.svg	17	yes	57	0	284
6.6.1	win	2022-12-29	11:12:56	11:22:46	589159	5b4a54b4ee41890001ae51b6	618219377	1	main_z	11	main_z	117	stimuli_target_circletriangles.svg	stimuli_distractor_diamondtriangles.svg	5	yes	44	1	433
6.6.1	win	2022-12-29	11:12:56	11:22:46	589159	5b4a54b4ee41890001ae51b6	618219377	1	main_z	11	advance_on_keypress_ZEE	118	stimuli_target_circletriangles.svg	stimuli_distractor_diamondtriangles.svg	5	yes	57	0	296
6.6.1	win	2022-12-29	11:12:56	11:22:49	592087	5b4a54b4ee41890001ae51b6	618219377	1	main_z	11	main_z	119	stimuli_distractor_diamondtriangles.svg	stimuli_distractor_diamondtriangles.svg	40	no	0	1	2000
6.6.1	win	2022-12-29	11:12:56	11:22:49	592087	5b4a54b4ee41890001ae51b6	618219377	1	main_z	11	advance_on_keypress_ZEE	120	stimuli_distractor_diamondtriangles.svg	stimuli_distractor_diamondtriangles.svg	40	no	57	0	629
6.6.1	win	2022-12-29	11:12:56	11:22:51	593848	5b4a54b4ee41890001ae51b6	618219377	1	main_z	11	main_z	121	stimuli_distractor_trianglediamonds.svg	stimuli_target_trianglesquares.svg	26	yes	44	1	494
6.6.1	win	2022-12-29	11:12:56	11:22:51	593848	5b4a54b4ee41890001ae51b6	618219377	1	main_z	11	advance_on_keypress_ZEE	122	stimuli_distractor_trianglediamonds.svg	stimuli_target_trianglesquares.svg	26	yes	57	0	335
6.6.1	win	2022-12-29	11:12:56	11:22:52	595248	5b4a54b4ee41890001ae51b6	618219377	1	main_z	11	main_z	123	stimuli_distractor_trianglediamonds.svg	stimuli_target_diamondcircles.svg	27	yes	44	1	427
6.6.1	win	2022-12-29	11:12:56	11:22:52	595248	5b4a54b4ee41890001ae51b6	618219377	1	main_z	11	advance_on_keypress_ZEE	124	stimuli_distractor_trianglediamonds.svg	stimuli_target_diamondcircles.svg	27	yes	57	0	330
6.6.1	win	2022-12-29	11:12:56	11:22:54	596610	5b4a54b4ee41890001ae51b6	618219377	1	main_z	11	main_z	125	stimuli_distractor_trianglediamonds.svg	stimuli_target_diamondsquares.svg	28	yes	44	1	402
6.6.1	win	2022-12-29	11:12:56	11:22:54	596610	5b4a54b4ee41890001ae51b6	618219377	1	main_z	11	advance_on_keypress_ZEE	126	stimuli_distractor_trianglediamonds.svg	stimuli_target_diamondsquares.svg	28	yes	57	0	309
6.6.1	win	2022-12-29	11:12:56	11:22:55	598018	5b4a54b4ee41890001ae51b6	618219377	1	main_z	11	main_z	127	stimuli_distractor_diamondtriangles.svg	stimuli_target_trianglecircles.svg	29	yes	44	1	464
6.6.1	win	2022-12-29	11:12:56	11:22:55	598018	5b4a54b4ee41890001ae51b6	618219377	1	main_z	11	advance_on_keypress_ZEE	128	stimuli_distractor_diamondtriangles.svg	stimuli_target_trianglecircles.svg	29	yes	57	0	362
6.6.1	win	2022-12-29	11:12:56	11:22:57	600171	5b4a54b4ee41890001ae51b6	618219377	1	main_z	11	main_z	129	stimuli_distractor_diamondtriangles.svg	stimuli_distractor_trianglediamonds.svg	37	no	44	0	1164
6.6.1	win	2022-12-29	11:12:56	11:22:57	600171	5b4a54b4ee41890001ae51b6	618219377	1	main_z	11	advance_on_keypress_ZEE	130	stimuli_distractor_diamondtriangles.svg	stimuli_distractor_trianglediamonds.svg	37	no	57	0	207
6.6.1	win	2022-12-29	11:12:56	11:23:00	603008	5b4a54b4ee41890001ae51b6	618219377	1	main_z	11	main_z	131	stimuli_distractor_trianglediamonds.svg	stimuli_distractor_trianglediamonds.svg	33	no	0	1	2000
6.6.1	win	2022-12-29	11:12:56	11:23:00	603008	5b4a54b4ee41890001ae51b6	618219377	1	main_z	11	advance_on_keypress_ZEE	132	stimuli_distractor_trianglediamonds.svg	stimuli_distractor_trianglediamonds.svg	33	no	57	0	369
6.6.1	win	2022-12-29	11:12:56	11:23:02	604584	5b4a54b4ee41890001ae51b6	618219377	1	main_z	11	main_z	133	stimuli_distractor_diamondtriangles.svg	stimuli_target_trianglesquares.svg	30	yes	44	1	575
6.6.1	win	2022-12-29	11:12:56	11:23:02	604584	5b4a54b4ee41890001ae51b6	618219377	1	main_z	11	advance_on_keypress_ZEE	134	stimuli_distractor_diamondtriangles.svg	stimuli_target_trianglesquares.svg	30	yes	57	0	535
6.6.1	win	2022-12-29	11:12:56	11:23:05	607623	5b4a54b4ee41890001ae51b6	618219377	1	main_z	11	main_z	135	stimuli_target_circletriangles.svg	stimuli_distractor_trianglediamonds.svg	1	yes	44	1	1868
6.6.1	win	2022-12-29	11:12:56	11:23:05	607623	5b4a54b4ee41890001ae51b6	618219377	1	main_z	11	advance_on_keypress_ZEE	136	stimuli_target_circletriangles.svg	stimuli_distractor_trianglediamonds.svg	1	yes	57	0	784
6.6.1	win	2022-12-29	11:12:56	11:23:06	609422	5b4a54b4ee41890001ae51b6	618219377	1	main_z	11	main_z	137	stimuli_distractor_diamondtriangles.svg	stimuli_target_circletriangles.svg	13	yes	44	1	384
6.6.1	win	2022-12-29	11:12:56	11:23:06	609422	5b4a54b4ee41890001ae51b6	618219377	1	main_z	11	advance_on_keypress_ZEE	138	stimuli_distractor_diamondtriangles.svg	stimuli_target_circletriangles.svg	13	yes	57	0	626
6.6.1	win	2022-12-29	11:12:56	11:23:10	612689	5b4a54b4ee41890001ae51b6	618219377	1	main_z	11	main_z	139	stimuli_distractor_diamondtriangles.svg	stimuli_distractor_diamondtriangles.svg	39	no	0	1	2000
6.6.1	win	2022-12-29	11:12:56	11:23:10	612689	5b4a54b4ee41890001ae51b6	618219377	1	main_z	11	advance_on_keypress_ZEE	140	stimuli_distractor_diamondtriangles.svg	stimuli_distractor_diamondtriangles.svg	39	no	57	0	689
6.6.1	win	2022-12-29	11:12:56	11:23:11	614529	5b4a54b4ee41890001ae51b6	618219377	1	main_z	11	main_z	141	stimuli_distractor_trianglediamonds.svg	stimuli_target_circletriangles.svg	9	yes	44	1	517
6.6.1	win	2022-12-29	11:12:56	11:23:11	614529	5b4a54b4ee41890001ae51b6	618219377	1	main_z	11	advance_on_keypress_ZEE	142	stimuli_distractor_trianglediamonds.svg	stimuli_target_circletriangles.svg	9	yes	57	0	370
6.6.1	win	2022-12-29	11:12:56	11:23:13	616420	5b4a54b4ee41890001ae51b6	618219377	1	main_z	11	main_z	143	stimuli_distractor_diamondtriangles.svg	stimuli_target_squaretriangles.svg	15	yes	44	1	891
6.6.1	win	2022-12-29	11:12:56	11:23:13	616420	5b4a54b4ee41890001ae51b6	618219377	1	main_z	11	advance_on_keypress_ZEE	144	stimuli_distractor_diamondtriangles.svg	stimuli_target_squaretriangles.svg	15	yes	57	0	296
6.6.1	win	2022-12-29	11:12:56	11:23:15	617841	5b4a54b4ee41890001ae51b6	618219377	1	main_z	11	main_z	145	stimuli_target_circlediamonds.svg	stimuli_distractor_trianglediamonds.svg	2	yes	44	1	498
6.6.1	win	2022-12-29	11:12:56	11:23:15	617841	5b4a54b4ee41890001ae51b6	618219377	1	main_z	11	advance_on_keypress_ZEE	146	stimuli_target_circlediamonds.svg	stimuli_distractor_trianglediamonds.svg	2	yes	57	0	380
6.6.1	win	2022-12-29	11:12:56	11:23:16	619308	5b4a54b4ee41890001ae51b6	618219377	1	main_z	11	main_z	147	stimuli_distractor_diamondtriangles.svg	stimuli_target_diamondcircles.svg	31	yes	44	1	458
6.6.1	win	2022-12-29	11:12:56	11:23:16	619308	5b4a54b4ee41890001ae51b6	618219377	1	main_z	11	advance_on_keypress_ZEE	148	stimuli_distractor_diamondtriangles.svg	stimuli_target_diamondcircles.svg	31	yes	57	0	448
6.6.1	win	2022-12-29	11:12:56	11:23:19	622384	5b4a54b4ee41890001ae51b6	618219377	1	main_z	11	main_z	149	stimuli_distractor_trianglediamonds.svg	stimuli_distractor_trianglediamonds.svg	34	no	0	1	2000
6.6.1	win	2022-12-29	11:12:56	11:23:19	622384	5b4a54b4ee41890001ae51b6	618219377	1	main_z	11	advance_on_keypress_ZEE	150	stimuli_distractor_trianglediamonds.svg	stimuli_distractor_trianglediamonds.svg	34	no	57	0	576
6.6.1	win	2022-12-29	11:12:56	11:23:21	624125	5b4a54b4ee41890001ae51b6	618219377	1	main_z	11	main_z	151	stimuli_distractor_trianglediamonds.svg	stimuli_distractor_diamondtriangles.svg	36	no	44	0	527
6.6.1	win	2022-12-29	11:12:56	11:23:21	624125	5b4a54b4ee41890001ae51b6	618219377	1	main_z	11	advance_on_keypress_ZEE	152	stimuli_distractor_trianglediamonds.svg	stimuli_distractor_diamondtriangles.svg	36	no	57	0	416
6.6.1	win	2022-12-29	11:12:56	11:23:23	625714	5b4a54b4ee41890001ae51b6	618219377	1	main_z	11	main_z	153	stimuli_target_squaretriangles.svg	stimuli_distractor_diamondtriangles.svg	7	yes	44	1	543
6.6.1	win	2022-12-29	11:12:56	11:23:23	625714	5b4a54b4ee41890001ae51b6	618219377	1	main_z	11	advance_on_keypress_ZEE	154	stimuli_target_squaretriangles.svg	stimuli_distractor_diamondtriangles.svg	7	yes	57	0	332
6.6.1	win	2022-12-29	11:12:56	11:23:24	627201	5b4a54b4ee41890001ae51b6	618219377	1	main_z	11	main_z	155	stimuli_target_diamondsquares.svg	stimuli_distractor_diamondtriangles.svg	24	yes	44	1	537
6.6.1	win	2022-12-29	11:12:56	11:23:24	627201	5b4a54b4ee41890001ae51b6	618219377	1	main_z	11	advance_on_keypress_ZEE	156	stimuli_target_diamondsquares.svg	stimuli_distractor_diamondtriangles.svg	24	yes	57	0	303
6.6.1	win	2022-12-29	11:12:56	11:23:25	628547	5b4a54b4ee41890001ae51b6	618219377	1	main_z	11	main_z	157	stimuli_target_diamondsquares.svg	stimuli_distractor_trianglediamonds.svg	20	yes	44	1	416
6.6.1	win	2022-12-29	11:12:56	11:23:25	628547	5b4a54b4ee41890001ae51b6	618219377	1	main_z	11	advance_on_keypress_ZEE	158	stimuli_target_diamondsquares.svg	stimuli_distractor_trianglediamonds.svg	20	yes	57	0	315
6.6.1	win	2022-12-29	11:12:56	11:23:27	630193	5b4a54b4ee41890001ae51b6	618219377	1	main_z	11	main_z	159	stimuli_distractor_diamondtriangles.svg	stimuli_target_squarediamonds.svg	16	yes	44	1	701
6.6.1	win	2022-12-29	11:12:56	11:23:27	630193	5b4a54b4ee41890001ae51b6	618219377	1	main_z	11	advance_on_keypress_ZEE	160	stimuli_distractor_diamondtriangles.svg	stimuli_target_squarediamonds.svg	16	yes	57	0	285