build	computer.platform	date	time	timestamp	time_elapsed_ms	subject	group	session	blockcode	blocknum	trialcode	trialnum	stimulus_left	stimulus_right	stim_index	target_present	response	correct	latency
6.6.1	mac	2022-12-26	16:12:03	16:13:54	109571	6112fd23b0250798e11a9dba	865784281	1	practice_slash	5	practice_slash	1	stimuli_target_circlediamonds.svg	stimuli_distractor_diamondtriangles.svg	1	yes	53	1	576
6.6.1	mac	2022-12-26	16:12:03	16:13:54	109571	6112fd23b0250798e11a9dba	865784281	1	practice_slash	5	advance_on_keypress_SLASH	2	stimuli_target_circlediamonds.svg	stimuli_distractor_diamondtriangles.svg	1	yes	57	0	1901
6.6.1	mac	2022-12-26	16:12:03	16:13:58	113676	6112fd23b0250798e11a9dba	865784281	1	practice_slash	5	practice_slash	3	stimuli_target_circlediamonds.svg	stimuli_distractor_trianglediamonds.svg	4	yes	53	1	568
6.6.1	mac	2022-12-26	16:12:03	16:13:58	113676	6112fd23b0250798e11a9dba	865784281	1	practice_slash	5	advance_on_keypress_SLASH	4	stimuli_target_circlediamonds.svg	stimuli_distractor_trianglediamonds.svg	4	yes	57	0	526
6.6.1	mac	2022-12-26	16:12:03	16:14:01	116590	6112fd23b0250798e11a9dba	865784281	1	practice_slash	5	practice_slash	5	stimuli_distractor_diamondtriangles.svg	stimuli_target_circletriangles.svg	7	yes	53	1	739
6.6.1	mac	2022-12-26	16:12:03	16:14:01	116590	6112fd23b0250798e11a9dba	865784281	1	practice_slash	5	advance_on_keypress_SLASH	6	stimuli_distractor_diamondtriangles.svg	stimuli_target_circletriangles.svg	7	yes	57	0	803
6.6.1	mac	2022-12-26	16:12:03	16:14:04	119825	6112fd23b0250798e11a9dba	865784281	1	practice_slash	5	practice_slash	7	stimuli_distractor_diamondtriangles.svg	stimuli_target_diamondcircles.svg	8	yes	53	1	799
6.6.1	mac	2022-12-26	16:12:03	16:14:04	119825	6112fd23b0250798e11a9dba	865784281	1	practice_slash	5	advance_on_keypress_SLASH	8	stimuli_distractor_diamondtriangles.svg	stimuli_target_diamondcircles.svg	8	yes	57	0	1156
6.6.1	mac	2022-12-26	16:12:03	16:14:07	123353	6112fd23b0250798e11a9dba	865784281	1	practice_slash	5	practice_slash	9	stimuli_target_squarediamonds.svg	stimuli_distractor_trianglediamonds.svg	5	yes	53	1	733
6.6.1	mac	2022-12-26	16:12:03	16:14:07	123353	6112fd23b0250798e11a9dba	865784281	1	practice_slash	5	advance_on_keypress_SLASH	10	stimuli_target_squarediamonds.svg	stimuli_distractor_trianglediamonds.svg	5	yes	57	0	479
6.6.1	mac	2022-12-26	16:12:03	16:14:10	125934	6112fd23b0250798e11a9dba	865784281	1	practice_slash	5	practice_slash	11	stimuli_distractor_trianglediamonds.svg	stimuli_target_squarediamonds.svg	11	yes	53	1	466
6.6.1	mac	2022-12-26	16:12:03	16:14:10	125934	6112fd23b0250798e11a9dba	865784281	1	practice_slash	5	advance_on_keypress_SLASH	12	stimuli_distractor_trianglediamonds.svg	stimuli_target_squarediamonds.svg	11	yes	57	0	642
6.6.1	mac	2022-12-26	16:12:03	16:14:14	130202	6112fd23b0250798e11a9dba	865784281	1	practice_slash	5	practice_slash	13	stimuli_distractor_trianglediamonds.svg	stimuli_distractor_diamondtriangles.svg	16	no	0	1	2000
6.6.1	mac	2022-12-26	16:12:03	16:14:14	130202	6112fd23b0250798e11a9dba	865784281	1	practice_slash	5	advance_on_keypress_SLASH	14	stimuli_distractor_trianglediamonds.svg	stimuli_distractor_diamondtriangles.svg	16	no	57	0	1100
6.6.1	mac	2022-12-26	16:12:03	16:14:19	134938	6112fd23b0250798e11a9dba	865784281	1	practice_slash	5	practice_slash	15	stimuli_distractor_diamondtriangles.svg	stimuli_distractor_trianglediamonds.svg	14	no	0	1	2000
6.6.1	mac	2022-12-26	16:12:03	16:14:19	134938	6112fd23b0250798e11a9dba	865784281	1	practice_slash	5	advance_on_keypress_SLASH	16	stimuli_distractor_diamondtriangles.svg	stimuli_distractor_trianglediamonds.svg	14	no	57	0	909
6.6.1	mac	2022-12-26	16:12:03	16:14:22	138294	6112fd23b0250798e11a9dba	865784281	1	practice_slash	5	practice_slash	17	stimuli_distractor_trianglediamonds.svg	stimuli_target_diamondcircles.svg	12	yes	53	1	817
6.6.1	mac	2022-12-26	16:12:03	16:14:22	138294	6112fd23b0250798e11a9dba	865784281	1	practice_slash	5	advance_on_keypress_SLASH	18	stimuli_distractor_trianglediamonds.svg	stimuli_target_diamondcircles.svg	12	yes	57	0	625
6.6.1	mac	2022-12-26	16:12:03	16:14:25	141274	6112fd23b0250798e11a9dba	865784281	1	practice_slash	5	practice_slash	19	stimuli_distractor_trianglediamonds.svg	stimuli_target_circlediamonds.svg	10	yes	53	1	706
6.6.1	mac	2022-12-26	16:12:03	16:14:25	141274	6112fd23b0250798e11a9dba	865784281	1	practice_slash	5	advance_on_keypress_SLASH	20	stimuli_distractor_trianglediamonds.svg	stimuli_target_circlediamonds.svg	10	yes	57	0	495
6.6.1	mac	2022-12-26	16:12:03	16:14:29	144429	6112fd23b0250798e11a9dba	865784281	1	practice_slash	5	practice_slash	21	stimuli_distractor_diamondtriangles.svg	stimuli_target_trianglecircles.svg	9	yes	53	1	1021
6.6.1	mac	2022-12-26	16:12:03	16:14:29	144429	6112fd23b0250798e11a9dba	865784281	1	practice_slash	5	advance_on_keypress_SLASH	22	stimuli_distractor_diamondtriangles.svg	stimuli_target_trianglecircles.svg	9	yes	57	0	484
6.6.1	mac	2022-12-26	16:12:03	16:14:33	148545	6112fd23b0250798e11a9dba	865784281	1	practice_slash	5	practice_slash	23	stimuli_distractor_diamondtriangles.svg	stimuli_distractor_diamondtriangles.svg	13	no	0	1	2000
6.6.1	mac	2022-12-26	16:12:03	16:14:33	148545	6112fd23b0250798e11a9dba	865784281	1	practice_slash	5	advance_on_keypress_SLASH	24	stimuli_distractor_diamondtriangles.svg	stimuli_distractor_diamondtriangles.svg	13	no	57	0	822
6.6.1	mac	2022-12-26	16:12:03	16:14:36	151649	6112fd23b0250798e11a9dba	865784281	1	practice_slash	5	practice_slash	25	stimuli_target_diamondsquares.svg	stimuli_distractor_trianglediamonds.svg	6	yes	53	1	640
6.6.1	mac	2022-12-26	16:12:03	16:14:36	151649	6112fd23b0250798e11a9dba	865784281	1	practice_slash	5	advance_on_keypress_SLASH	26	stimuli_target_diamondsquares.svg	stimuli_distractor_trianglediamonds.svg	6	yes	57	0	546
6.6.1	mac	2022-12-26	16:12:03	16:14:38	154384	6112fd23b0250798e11a9dba	865784281	1	practice_slash	5	practice_slash	27	stimuli_target_diamondsquares.svg	stimuli_distractor_diamondtriangles.svg	3	yes	53	1	547
6.6.1	mac	2022-12-26	16:12:03	16:14:38	154384	6112fd23b0250798e11a9dba	865784281	1	practice_slash	5	advance_on_keypress_SLASH	28	stimuli_target_diamondsquares.svg	stimuli_distractor_diamondtriangles.svg	3	yes	57	0	483
6.6.1	mac	2022-12-26	16:12:03	16:14:43	158504	6112fd23b0250798e11a9dba	865784281	1	practice_slash	5	practice_slash	29	stimuli_distractor_trianglediamonds.svg	stimuli_distractor_trianglediamonds.svg	15	no	0	1	2000
6.6.1	mac	2022-12-26	16:12:03	16:14:43	158504	6112fd23b0250798e11a9dba	865784281	1	practice_slash	5	advance_on_keypress_SLASH	30	stimuli_distractor_trianglediamonds.svg	stimuli_distractor_trianglediamonds.svg	15	no	57	0	714
6.6.1	mac	2022-12-26	16:12:03	16:14:46	161495	6112fd23b0250798e11a9dba	865784281	1	practice_slash	5	practice_slash	31	stimuli_target_squarediamonds.svg	stimuli_distractor_diamondtriangles.svg	2	yes	53	1	638
6.6.1	mac	2022-12-26	16:12:03	16:14:46	161495	6112fd23b0250798e11a9dba	865784281	1	practice_slash	5	advance_on_keypress_SLASH	32	stimuli_target_squarediamonds.svg	stimuli_distractor_diamondtriangles.svg	2	yes	57	0	568
6.6.1	mac	2022-12-26	16:12:03	16:14:55	171184	6112fd23b0250798e11a9dba	865784281	1	main_slash	7	main_slash	1	stimuli_distractor_diamondtriangles.svg	stimuli_distractor_diamondtriangles.svg	40	no	0	1	2000
6.6.1	mac	2022-12-26	16:12:03	16:14:55	171184	6112fd23b0250798e11a9dba	865784281	1	main_slash	7	advance_on_keypress_SLASH	2	stimuli_distractor_diamondtriangles.svg	stimuli_distractor_diamondtriangles.svg	40	no	57	0	882
6.6.1	mac	2022-12-26	16:12:03	16:14:59	174714	6112fd23b0250798e11a9dba	865784281	1	main_slash	7	main_slash	3	stimuli_distractor_trianglediamonds.svg	stimuli_distractor_trianglediamonds.svg	33	no	0	1	2000
6.6.1	mac	2022-12-26	16:12:03	16:14:59	174714	6112fd23b0250798e11a9dba	865784281	1	main_slash	7	advance_on_keypress_SLASH	4	stimuli_distractor_trianglediamonds.svg	stimuli_distractor_trianglediamonds.svg	33	no	57	0	670
6.6.1	mac	2022-12-26	16:12:03	16:15:01	176439	6112fd23b0250798e11a9dba	865784281	1	main_slash	7	main_slash	5	stimuli_distractor_trianglediamonds.svg	stimuli_target_circlediamonds.svg	10	yes	53	1	424
6.6.1	mac	2022-12-26	16:12:03	16:15:01	176439	6112fd23b0250798e11a9dba	865784281	1	main_slash	7	advance_on_keypress_SLASH	6	stimuli_distractor_trianglediamonds.svg	stimuli_target_circlediamonds.svg	10	yes	57	0	1865
6.6.1	mac	2022-12-26	16:12:03	16:15:04	179402	6112fd23b0250798e11a9dba	865784281	1	main_slash	7	main_slash	7	stimuli_target_diamondcircles.svg	stimuli_distractor_diamondtriangles.svg	23	yes	53	1	471
6.6.1	mac	2022-12-26	16:12:03	16:15:04	179402	6112fd23b0250798e11a9dba	865784281	1	main_slash	7	advance_on_keypress_SLASH	8	stimuli_target_diamondcircles.svg	stimuli_distractor_diamondtriangles.svg	23	yes	57	0	1013
6.6.1	mac	2022-12-26	16:12:03	16:15:06	181614	6112fd23b0250798e11a9dba	865784281	1	main_slash	7	main_slash	9	stimuli_target_circletriangles.svg	stimuli_distractor_diamondtriangles.svg	5	yes	53	1	578
6.6.1	mac	2022-12-26	16:12:03	16:15:06	181614	6112fd23b0250798e11a9dba	865784281	1	main_slash	7	advance_on_keypress_SLASH	10	stimuli_target_circletriangles.svg	stimuli_distractor_diamondtriangles.svg	5	yes	57	0	940
6.6.1	mac	2022-12-26	16:12:03	16:15:08	183628	6112fd23b0250798e11a9dba	865784281	1	main_slash	7	main_slash	11	stimuli_distractor_diamondtriangles.svg	stimuli_target_trianglesquares.svg	30	yes	53	1	443
6.6.1	mac	2022-12-26	16:12:03	16:15:08	183628	6112fd23b0250798e11a9dba	865784281	1	main_slash	7	advance_on_keypress_SLASH	12	stimuli_distractor_diamondtriangles.svg	stimuli_target_trianglesquares.svg	30	yes	57	0	374
6.6.1	mac	2022-12-26	16:12:03	16:15:09	185053	6112fd23b0250798e11a9dba	865784281	1	main_slash	7	main_slash	13	stimuli_target_squaretriangles.svg	stimuli_distractor_diamondtriangles.svg	7	yes	53	1	424
6.6.1	mac	2022-12-26	16:12:03	16:15:09	185053	6112fd23b0250798e11a9dba	865784281	1	main_slash	7	advance_on_keypress_SLASH	14	stimuli_target_squaretriangles.svg	stimuli_distractor_diamondtriangles.svg	7	yes	57	0	708
6.6.1	mac	2022-12-26	16:12:03	16:15:11	186883	6112fd23b0250798e11a9dba	865784281	1	main_slash	7	main_slash	15	stimuli_target_circlediamonds.svg	stimuli_distractor_diamondtriangles.svg	6	yes	53	1	487
6.6.1	mac	2022-12-26	16:12:03	16:15:11	186883	6112fd23b0250798e11a9dba	865784281	1	main_slash	7	advance_on_keypress_SLASH	16	stimuli_target_circlediamonds.svg	stimuli_distractor_diamondtriangles.svg	6	yes	57	0	589
6.6.1	mac	2022-12-26	16:12:03	16:15:13	188546	6112fd23b0250798e11a9dba	865784281	1	main_slash	7	main_slash	17	stimuli_target_squarediamonds.svg	stimuli_distractor_diamondtriangles.svg	8	yes	53	1	438
6.6.1	mac	2022-12-26	16:12:03	16:15:13	188546	6112fd23b0250798e11a9dba	865784281	1	main_slash	7	advance_on_keypress_SLASH	18	stimuli_target_squarediamonds.svg	stimuli_distractor_diamondtriangles.svg	8	yes	57	0	457
6.6.1	mac	2022-12-26	16:12:03	16:15:15	190608	6112fd23b0250798e11a9dba	865784281	1	main_slash	7	main_slash	19	stimuli_target_trianglecircles.svg	stimuli_distractor_trianglediamonds.svg	17	yes	53	1	970
6.6.1	mac	2022-12-26	16:12:03	16:15:15	190608	6112fd23b0250798e11a9dba	865784281	1	main_slash	7	advance_on_keypress_SLASH	20	stimuli_target_trianglecircles.svg	stimuli_distractor_trianglediamonds.svg	17	yes	57	0	758
6.6.1	mac	2022-12-26	16:12:03	16:15:17	192458	6112fd23b0250798e11a9dba	865784281	1	main_slash	7	main_slash	21	stimuli_target_circletriangles.svg	stimuli_distractor_trianglediamonds.svg	1	yes	53	1	463
6.6.1	mac	2022-12-26	16:12:03	16:15:17	192458	6112fd23b0250798e11a9dba	865784281	1	main_slash	7	advance_on_keypress_SLASH	22	stimuli_target_circletriangles.svg	stimuli_distractor_trianglediamonds.svg	1	yes	57	0	900
6.6.1	mac	2022-12-26	16:12:03	16:15:19	194761	6112fd23b0250798e11a9dba	865784281	1	main_slash	7	main_slash	23	stimuli_distractor_diamondtriangles.svg	stimuli_target_diamondsquares.svg	32	yes	53	1	768
6.6.1	mac	2022-12-26	16:12:03	16:15:19	194761	6112fd23b0250798e11a9dba	865784281	1	main_slash	7	advance_on_keypress_SLASH	24	stimuli_distractor_diamondtriangles.svg	stimuli_target_diamondsquares.svg	32	yes	57	0	820
6.6.1	mac	2022-12-26	16:12:03	16:15:21	196979	6112fd23b0250798e11a9dba	865784281	1	main_slash	7	main_slash	25	stimuli_target_diamondsquares.svg	stimuli_distractor_diamondtriangles.svg	24	yes	53	1	751
6.6.1	mac	2022-12-26	16:12:03	16:15:21	196979	6112fd23b0250798e11a9dba	865784281	1	main_slash	7	advance_on_keypress_SLASH	26	stimuli_target_diamondsquares.svg	stimuli_distractor_diamondtriangles.svg	24	yes	57	0	791
6.6.1	mac	2022-12-26	16:12:03	16:15:23	198961	6112fd23b0250798e11a9dba	865784281	1	main_slash	7	main_slash	27	stimuli_distractor_trianglediamonds.svg	stimuli_target_circletriangles.svg	9	yes	53	1	550
6.6.1	mac	2022-12-26	16:12:03	16:15:23	198961	6112fd23b0250798e11a9dba	865784281	1	main_slash	7	advance_on_keypress_SLASH	28	stimuli_distractor_trianglediamonds.svg	stimuli_target_circletriangles.svg	9	yes	57	0	793
6.6.1	mac	2022-12-26	16:12:03	16:15:25	201114	6112fd23b0250798e11a9dba	865784281	1	main_slash	7	main_slash	29	stimuli_distractor_trianglediamonds.svg	stimuli_target_diamondsquares.svg	28	yes	53	1	734
6.6.1	mac	2022-12-26	16:12:03	16:15:25	201114	6112fd23b0250798e11a9dba	865784281	1	main_slash	7	advance_on_keypress_SLASH	30	stimuli_distractor_trianglediamonds.svg	stimuli_target_diamondsquares.svg	28	yes	57	0	899
6.6.1	mac	2022-12-26	16:12:03	16:15:29	204644	6112fd23b0250798e11a9dba	865784281	1	main_slash	7	main_slash	31	stimuli_distractor_diamondtriangles.svg	stimuli_distractor_diamondtriangles.svg	39	no	0	1	2000
6.6.1	mac	2022-12-26	16:12:03	16:15:29	204644	6112fd23b0250798e11a9dba	865784281	1	main_slash	7	advance_on_keypress_SLASH	32	stimuli_distractor_diamondtriangles.svg	stimuli_distractor_diamondtriangles.svg	39	no	57	0	1073
6.6.1	mac	2022-12-26	16:12:03	16:15:31	207059	6112fd23b0250798e11a9dba	865784281	1	main_slash	7	main_slash	33	stimuli_target_trianglesquares.svg	stimuli_distractor_diamondtriangles.svg	22	yes	53	1	711
6.6.1	mac	2022-12-26	16:12:03	16:15:31	207059	6112fd23b0250798e11a9dba	865784281	1	main_slash	7	advance_on_keypress_SLASH	34	stimuli_target_trianglesquares.svg	stimuli_distractor_diamondtriangles.svg	22	yes	57	0	1007
6.6.1	mac	2022-12-26	16:12:03	16:15:33	209347	6112fd23b0250798e11a9dba	865784281	1	main_slash	7	main_slash	35	stimuli_distractor_diamondtriangles.svg	stimuli_target_circletriangles.svg	13	yes	53	1	644
6.6.1	mac	2022-12-26	16:12:03	16:15:33	209347	6112fd23b0250798e11a9dba	865784281	1	main_slash	7	advance_on_keypress_SLASH	36	stimuli_distractor_diamondtriangles.svg	stimuli_target_circletriangles.svg	13	yes	57	0	814
6.6.1	mac	2022-12-26	16:12:03	16:15:35	211369	6112fd23b0250798e11a9dba	865784281	1	main_slash	7	main_slash	37	stimuli_distractor_diamondtriangles.svg	stimuli_target_trianglecircles.svg	29	yes	53	1	582
6.6.1	mac	2022-12-26	16:12:03	16:15:35	211369	6112fd23b0250798e11a9dba	865784281	1	main_slash	7	advance_on_keypress_SLASH	38	stimuli_distractor_diamondtriangles.svg	stimuli_target_trianglecircles.svg	29	yes	57	0	694
6.6.1	mac	2022-12-26	16:12:03	16:15:37	213161	6112fd23b0250798e11a9dba	865784281	1	main_slash	7	main_slash	39	stimuli_distractor_trianglediamonds.svg	stimuli_target_trianglesquares.svg	26	yes	53	1	472
6.6.1	mac	2022-12-26	16:12:03	16:15:37	213161	6112fd23b0250798e11a9dba	865784281	1	main_slash	7	advance_on_keypress_SLASH	40	stimuli_distractor_trianglediamonds.svg	stimuli_target_trianglesquares.svg	26	yes	57	0	780
6.6.1	mac	2022-12-26	16:12:03	16:15:39	215134	6112fd23b0250798e11a9dba	865784281	1	main_slash	7	main_slash	41	stimuli_target_trianglecircles.svg	stimuli_distractor_diamondtriangles.svg	21	yes	53	1	560
6.6.1	mac	2022-12-26	16:12:03	16:15:39	215134	6112fd23b0250798e11a9dba	865784281	1	main_slash	7	advance_on_keypress_SLASH	42	stimuli_target_trianglecircles.svg	stimuli_distractor_diamondtriangles.svg	21	yes	57	0	563
6.6.1	mac	2022-12-26	16:12:03	16:15:41	217383	6112fd23b0250798e11a9dba	865784281	1	main_slash	7	main_slash	43	stimuli_target_circlediamonds.svg	stimuli_distractor_trianglediamonds.svg	2	yes	53	1	1061
6.6.1	mac	2022-12-26	16:12:03	16:15:41	217383	6112fd23b0250798e11a9dba	865784281	1	main_slash	7	advance_on_keypress_SLASH	44	stimuli_target_circlediamonds.svg	stimuli_distractor_trianglediamonds.svg	2	yes	57	0	495
6.6.1	mac	2022-12-26	16:12:03	16:15:45	220520	6112fd23b0250798e11a9dba	865784281	1	main_slash	7	main_slash	45	stimuli_distractor_trianglediamonds.svg	stimuli_distractor_diamondtriangles.svg	36	no	0	1	2000
6.6.1	mac	2022-12-26	16:12:03	16:15:45	220520	6112fd23b0250798e11a9dba	865784281	1	main_slash	7	advance_on_keypress_SLASH	46	stimuli_distractor_trianglediamonds.svg	stimuli_distractor_diamondtriangles.svg	36	no	57	0	880
6.6.1	mac	2022-12-26	16:12:03	16:15:47	222481	6112fd23b0250798e11a9dba	865784281	1	main_slash	7	main_slash	47	stimuli_distractor_diamondtriangles.svg	stimuli_target_squarediamonds.svg	16	yes	53	1	461
6.6.1	mac	2022-12-26	16:12:03	16:15:47	222481	6112fd23b0250798e11a9dba	865784281	1	main_slash	7	advance_on_keypress_SLASH	48	stimuli_distractor_diamondtriangles.svg	stimuli_target_squarediamonds.svg	16	yes	57	0	4778
6.6.1	mac	2022-12-26	16:12:03	16:15:53	228578	6112fd23b0250798e11a9dba	865784281	1	main_slash	7	main_slash	49	stimuli_distractor_trianglediamonds.svg	stimuli_target_diamondcircles.svg	27	yes	53	1	684
6.6.1	mac	2022-12-26	16:12:03	16:15:53	228578	6112fd23b0250798e11a9dba	865784281	1	main_slash	7	advance_on_keypress_SLASH	50	stimuli_distractor_trianglediamonds.svg	stimuli_target_diamondcircles.svg	27	yes	57	0	683
6.6.1	mac	2022-12-26	16:12:03	16:15:55	230474	6112fd23b0250798e11a9dba	865784281	1	main_slash	7	main_slash	51	stimuli_target_diamondcircles.svg	stimuli_distractor_trianglediamonds.svg	19	yes	53	1	564
6.6.1	mac	2022-12-26	16:12:03	16:15:55	230474	6112fd23b0250798e11a9dba	865784281	1	main_slash	7	advance_on_keypress_SLASH	52	stimuli_target_diamondcircles.svg	stimuli_distractor_trianglediamonds.svg	19	yes	57	0	530
6.6.1	mac	2022-12-26	16:12:03	16:15:58	233638	6112fd23b0250798e11a9dba	865784281	1	main_slash	7	main_slash	53	stimuli_distractor_diamondtriangles.svg	stimuli_distractor_trianglediamonds.svg	38	no	0	1	2000
6.6.1	mac	2022-12-26	16:12:03	16:15:58	233638	6112fd23b0250798e11a9dba	865784281	1	main_slash	7	advance_on_keypress_SLASH	54	stimuli_distractor_diamondtriangles.svg	stimuli_distractor_trianglediamonds.svg	38	no	57	0	1116
6.6.1	mac	2022-12-26	16:12:03	16:16:01	237373	6112fd23b0250798e11a9dba	865784281	1	main_slash	7	main_slash	55	stimuli_distractor_trianglediamonds.svg	stimuli_distractor_diamondtriangles.svg	35	no	0	1	2000
6.6.1	mac	2022-12-26	16:12:03	16:16:01	237373	6112fd23b0250798e11a9dba	865784281	1	main_slash	7	advance_on_keypress_SLASH	56	stimuli_distractor_trianglediamonds.svg	stimuli_distractor_diamondtriangles.svg	35	no	57	0	598
6.6.1	mac	2022-12-26	16:12:03	16:16:03	239111	6112fd23b0250798e11a9dba	865784281	1	main_slash	7	main_slash	57	stimuli_distractor_trianglediamonds.svg	stimuli_target_trianglecircles.svg	25	yes	53	1	518
6.6.1	mac	2022-12-26	16:12:03	16:16:03	239111	6112fd23b0250798e11a9dba	865784281	1	main_slash	7	advance_on_keypress_SLASH	58	stimuli_distractor_trianglediamonds.svg	stimuli_target_trianglecircles.svg	25	yes	57	0	367
6.6.1	mac	2022-12-26	16:12:03	16:16:05	240602	6112fd23b0250798e11a9dba	865784281	1	main_slash	7	main_slash	59	stimuli_distractor_trianglediamonds.svg	stimuli_target_squarediamonds.svg	12	yes	53	1	479
6.6.1	mac	2022-12-26	16:12:03	16:16:05	240602	6112fd23b0250798e11a9dba	865784281	1	main_slash	7	advance_on_keypress_SLASH	60	stimuli_distractor_trianglediamonds.svg	stimuli_target_squarediamonds.svg	12	yes	57	0	459
6.6.1	mac	2022-12-26	16:12:03	16:16:08	243702	6112fd23b0250798e11a9dba	865784281	1	main_slash	7	main_slash	61	stimuli_distractor_trianglediamonds.svg	stimuli_distractor_trianglediamonds.svg	34	no	0	1	2000
6.6.1	mac	2022-12-26	16:12:03	16:16:08	243702	6112fd23b0250798e11a9dba	865784281	1	main_slash	7	advance_on_keypress_SLASH	62	stimuli_distractor_trianglediamonds.svg	stimuli_distractor_trianglediamonds.svg	34	no	57	0	661
6.6.1	mac	2022-12-26	16:12:03	16:16:10	245479	6112fd23b0250798e11a9dba	865784281	1	main_slash	7	main_slash	63	stimuli_distractor_diamondtriangles.svg	stimuli_target_diamondcircles.svg	31	yes	53	1	474
6.6.1	mac	2022-12-26	16:12:03	16:16:10	245479	6112fd23b0250798e11a9dba	865784281	1	main_slash	7	advance_on_keypress_SLASH	64	stimuli_distractor_diamondtriangles.svg	stimuli_target_diamondcircles.svg	31	yes	57	0	472
6.6.1	mac	2022-12-26	16:12:03	16:16:11	247189	6112fd23b0250798e11a9dba	865784281	1	main_slash	7	main_slash	65	stimuli_target_squaretriangles.svg	stimuli_distractor_trianglediamonds.svg	3	yes	53	1	599
6.6.1	mac	2022-12-26	16:12:03	16:16:11	247189	6112fd23b0250798e11a9dba	865784281	1	main_slash	7	advance_on_keypress_SLASH	66	stimuli_target_squaretriangles.svg	stimuli_distractor_trianglediamonds.svg	3	yes	57	0	524
6.6.1	mac	2022-12-26	16:12:03	16:16:13	248839	6112fd23b0250798e11a9dba	865784281	1	main_slash	7	main_slash	67	stimuli_target_squarediamonds.svg	stimuli_distractor_trianglediamonds.svg	4	yes	53	1	499
6.6.1	mac	2022-12-26	16:12:03	16:16:13	248839	6112fd23b0250798e11a9dba	865784281	1	main_slash	7	advance_on_keypress_SLASH	68	stimuli_target_squarediamonds.svg	stimuli_distractor_trianglediamonds.svg	4	yes	57	0	446
6.6.1	mac	2022-12-26	16:12:03	16:16:15	250900	6112fd23b0250798e11a9dba	865784281	1	main_slash	7	main_slash	69	stimuli_target_diamondsquares.svg	stimuli_distractor_trianglediamonds.svg	20	yes	53	1	978
6.6.1	mac	2022-12-26	16:12:03	16:16:15	250900	6112fd23b0250798e11a9dba	865784281	1	main_slash	7	advance_on_keypress_SLASH	70	stimuli_target_diamondsquares.svg	stimuli_distractor_trianglediamonds.svg	20	yes	57	0	658
6.6.1	mac	2022-12-26	16:12:03	16:16:18	254192	6112fd23b0250798e11a9dba	865784281	1	main_slash	7	main_slash	71	stimuli_distractor_diamondtriangles.svg	stimuli_distractor_trianglediamonds.svg	37	no	0	1	2000
6.6.1	mac	2022-12-26	16:12:03	16:16:18	254192	6112fd23b0250798e11a9dba	865784281	1	main_slash	7	advance_on_keypress_SLASH	72	stimuli_distractor_diamondtriangles.svg	stimuli_distractor_trianglediamonds.svg	37	no	57	0	914
6.6.1	mac	2022-12-26	16:12:03	16:16:20	256131	6112fd23b0250798e11a9dba	865784281	1	main_slash	7	main_slash	73	stimuli_distractor_trianglediamonds.svg	stimuli_target_squaretriangles.svg	11	yes	53	1	403
6.6.1	mac	2022-12-26	16:12:03	16:16:20	256131	6112fd23b0250798e11a9dba	865784281	1	main_slash	7	advance_on_keypress_SLASH	74	stimuli_distractor_trianglediamonds.svg	stimuli_target_squaretriangles.svg	11	yes	57	0	713
6.6.1	mac	2022-12-26	16:12:03	16:16:22	257924	6112fd23b0250798e11a9dba	865784281	1	main_slash	7	main_slash	75	stimuli_distractor_diamondtriangles.svg	stimuli_target_squaretriangles.svg	15	yes	53	1	446
6.6.1	mac	2022-12-26	16:12:03	16:16:22	257924	6112fd23b0250798e11a9dba	865784281	1	main_slash	7	advance_on_keypress_SLASH	76	stimuli_distractor_diamondtriangles.svg	stimuli_target_squaretriangles.svg	15	yes	57	0	581
6.6.1	mac	2022-12-26	16:12:03	16:16:24	259753	6112fd23b0250798e11a9dba	865784281	1	main_slash	7	main_slash	77	stimuli_target_trianglesquares.svg	stimuli_distractor_trianglediamonds.svg	18	yes	53	1	613
6.6.1	mac	2022-12-26	16:12:03	16:16:24	259753	6112fd23b0250798e11a9dba	865784281	1	main_slash	7	advance_on_keypress_SLASH	78	stimuli_target_trianglesquares.svg	stimuli_distractor_trianglediamonds.svg	18	yes	57	0	577
6.6.1	mac	2022-12-26	16:12:03	16:16:26	261517	6112fd23b0250798e11a9dba	865784281	1	main_slash	7	main_slash	79	stimuli_distractor_diamondtriangles.svg	stimuli_target_circlediamonds.svg	14	yes	53	1	560
6.6.1	mac	2022-12-26	16:12:03	16:16:26	261517	6112fd23b0250798e11a9dba	865784281	1	main_slash	7	advance_on_keypress_SLASH	80	stimuli_distractor_diamondtriangles.svg	stimuli_target_circlediamonds.svg	14	yes	57	0	534
6.6.1	mac	2022-12-26	16:12:03	16:16:28	263623	6112fd23b0250798e11a9dba	865784281	1	main_slash	7	main_slash	81	stimuli_distractor_diamondtriangles.svg	stimuli_target_trianglecircles.svg	29	yes	53	1	930
6.6.1	mac	2022-12-26	16:12:03	16:16:28	263623	6112fd23b0250798e11a9dba	865784281	1	main_slash	7	advance_on_keypress_SLASH	82	stimuli_distractor_diamondtriangles.svg	stimuli_target_trianglecircles.svg	29	yes	57	0	325
6.6.1	mac	2022-12-26	16:12:03	16:16:29	265161	6112fd23b0250798e11a9dba	865784281	1	main_slash	7	main_slash	83	stimuli_target_squarediamonds.svg	stimuli_distractor_diamondtriangles.svg	8	yes	53	1	585
6.6.1	mac	2022-12-26	16:12:03	16:16:29	265161	6112fd23b0250798e11a9dba	865784281	1	main_slash	7	advance_on_keypress_SLASH	84	stimuli_target_squarediamonds.svg	stimuli_distractor_diamondtriangles.svg	8	yes	57	0	374
6.6.1	mac	2022-12-26	16:12:03	16:16:31	266805	6112fd23b0250798e11a9dba	865784281	1	main_slash	7	main_slash	85	stimuli_target_squaretriangles.svg	stimuli_distractor_diamondtriangles.svg	7	yes	53	1	648
6.6.1	mac	2022-12-26	16:12:03	16:16:31	266805	6112fd23b0250798e11a9dba	865784281	1	main_slash	7	advance_on_keypress_SLASH	86	stimuli_target_squaretriangles.svg	stimuli_distractor_diamondtriangles.svg	7	yes	57	0	339
6.6.1	mac	2022-12-26	16:12:03	16:16:34	269771	6112fd23b0250798e11a9dba	865784281	1	main_slash	7	main_slash	87	stimuli_distractor_diamondtriangles.svg	stimuli_distractor_diamondtriangles.svg	40	no	0	1	2000
6.6.1	mac	2022-12-26	16:12:03	16:16:34	269771	6112fd23b0250798e11a9dba	865784281	1	main_slash	7	advance_on_keypress_SLASH	88	stimuli_distractor_diamondtriangles.svg	stimuli_distractor_diamondtriangles.svg	40	no	57	0	558
6.6.1	mac	2022-12-26	16:12:03	16:16:36	271485	6112fd23b0250798e11a9dba	865784281	1	main_slash	7	main_slash	89	stimuli_target_trianglecircles.svg	stimuli_distractor_diamondtriangles.svg	21	yes	53	1	521
6.6.1	mac	2022-12-26	16:12:03	16:16:36	271485	6112fd23b0250798e11a9dba	865784281	1	main_slash	7	advance_on_keypress_SLASH	90	stimuli_target_trianglecircles.svg	stimuli_distractor_diamondtriangles.svg	21	yes	57	0	431
6.6.1	mac	2022-12-26	16:12:03	16:16:37	273071	6112fd23b0250798e11a9dba	865784281	1	main_slash	7	main_slash	91	stimuli_target_circlediamonds.svg	stimuli_distractor_diamondtriangles.svg	6	yes	53	1	508
6.6.1	mac	2022-12-26	16:12:03	16:16:37	273071	6112fd23b0250798e11a9dba	865784281	1	main_slash	7	advance_on_keypress_SLASH	92	stimuli_target_circlediamonds.svg	stimuli_distractor_diamondtriangles.svg	6	yes	57	0	413
6.6.1	mac	2022-12-26	16:12:03	16:16:39	274638	6112fd23b0250798e11a9dba	865784281	1	main_slash	7	main_slash	93	stimuli_distractor_diamondtriangles.svg	stimuli_target_diamondsquares.svg	32	yes	53	1	510
6.6.1	mac	2022-12-26	16:12:03	16:16:39	274638	6112fd23b0250798e11a9dba	865784281	1	main_slash	7	advance_on_keypress_SLASH	94	stimuli_distractor_diamondtriangles.svg	stimuli_target_diamondsquares.svg	32	yes	57	0	358
6.6.1	mac	2022-12-26	16:12:03	16:16:40	276310	6112fd23b0250798e11a9dba	865784281	1	main_slash	7	main_slash	95	stimuli_distractor_trianglediamonds.svg	stimuli_target_squaretriangles.svg	11	yes	53	1	685
6.6.1	mac	2022-12-26	16:12:03	16:16:40	276310	6112fd23b0250798e11a9dba	865784281	1	main_slash	7	advance_on_keypress_SLASH	96	stimuli_distractor_trianglediamonds.svg	stimuli_target_squaretriangles.svg	11	yes	57	0	367
6.6.1	mac	2022-12-26	16:12:03	16:16:43	279305	6112fd23b0250798e11a9dba	865784281	1	main_slash	7	main_slash	97	stimuli_distractor_diamondtriangles.svg	stimuli_distractor_trianglediamonds.svg	37	no	0	1	2000
6.6.1	mac	2022-12-26	16:12:03	16:16:43	279305	6112fd23b0250798e11a9dba	865784281	1	main_slash	7	advance_on_keypress_SLASH	98	stimuli_distractor_diamondtriangles.svg	stimuli_distractor_trianglediamonds.svg	37	no	57	0	2614
6.6.1	mac	2022-12-26	16:12:03	16:16:47	283083	6112fd23b0250798e11a9dba	865784281	1	main_slash	7	main_slash	99	stimuli_target_diamondsquares.svg	stimuli_distractor_diamondtriangles.svg	24	yes	53	1	532
6.6.1	mac	2022-12-26	16:12:03	16:16:47	283083	6112fd23b0250798e11a9dba	865784281	1	main_slash	7	advance_on_keypress_SLASH	100	stimuli_target_diamondsquares.svg	stimuli_distractor_diamondtriangles.svg	24	yes	57	0	492
6.6.1	mac	2022-12-26	16:12:03	16:16:50	286211	6112fd23b0250798e11a9dba	865784281	1	main_slash	7	main_slash	101	stimuli_distractor_trianglediamonds.svg	stimuli_distractor_diamondtriangles.svg	35	no	0	1	2000
6.6.1	mac	2022-12-26	16:12:03	16:16:50	286211	6112fd23b0250798e11a9dba	865784281	1	main_slash	7	advance_on_keypress_SLASH	102	stimuli_distractor_trianglediamonds.svg	stimuli_distractor_diamondtriangles.svg	35	no	57	0	346
6.6.1	mac	2022-12-26	16:12:03	16:16:52	287734	6112fd23b0250798e11a9dba	865784281	1	main_slash	7	main_slash	103	stimuli_target_diamondcircles.svg	stimuli_distractor_trianglediamonds.svg	19	yes	53	1	559
6.6.1	mac	2022-12-26	16:12:03	16:16:52	287734	6112fd23b0250798e11a9dba	865784281	1	main_slash	7	advance_on_keypress_SLASH	104	stimuli_target_diamondcircles.svg	stimuli_distractor_trianglediamonds.svg	19	yes	57	0	344
6.6.1	mac	2022-12-26	16:12:03	16:16:55	290707	6112fd23b0250798e11a9dba	865784281	1	main_slash	7	main_slash	105	stimuli_distractor_trianglediamonds.svg	stimuli_distractor_trianglediamonds.svg	33	no	0	1	2000
6.6.1	mac	2022-12-26	16:12:03	16:16:55	290707	6112fd23b0250798e11a9dba	865784281	1	main_slash	7	advance_on_keypress_SLASH	106	stimuli_distractor_trianglediamonds.svg	stimuli_distractor_trianglediamonds.svg	33	no	57	0	532
6.6.1	mac	2022-12-26	16:12:03	16:16:56	292349	6112fd23b0250798e11a9dba	865784281	1	main_slash	7	main_slash	107	stimuli_target_trianglecircles.svg	stimuli_distractor_trianglediamonds.svg	17	yes	53	1	471
6.6.1	mac	2022-12-26	16:12:03	16:16:56	292349	6112fd23b0250798e11a9dba	865784281	1	main_slash	7	advance_on_keypress_SLASH	108	stimuli_target_trianglecircles.svg	stimuli_distractor_trianglediamonds.svg	17	yes	57	0	366
6.6.1	mac	2022-12-26	16:12:03	16:16:58	293865	6112fd23b0250798e11a9dba	865784281	1	main_slash	7	main_slash	109	stimuli_distractor_trianglediamonds.svg	stimuli_target_circlediamonds.svg	10	yes	53	1	522
6.6.1	mac	2022-12-26	16:12:03	16:16:58	293865	6112fd23b0250798e11a9dba	865784281	1	main_slash	7	advance_on_keypress_SLASH	110	stimuli_distractor_trianglediamonds.svg	stimuli_target_circlediamonds.svg	10	yes	57	0	308
6.6.1	mac	2022-12-26	16:12:03	16:17:00	295524	6112fd23b0250798e11a9dba	865784281	1	main_slash	7	main_slash	111	stimuli_distractor_trianglediamonds.svg	stimuli_target_trianglesquares.svg	26	yes	53	1	714
6.6.1	mac	2022-12-26	16:12:03	16:17:00	295524	6112fd23b0250798e11a9dba	865784281	1	main_slash	7	advance_on_keypress_SLASH	112	stimuli_distractor_trianglediamonds.svg	stimuli_target_trianglesquares.svg	26	yes	57	0	814
6.6.1	mac	2022-12-26	16:12:03	16:17:03	298963	6112fd23b0250798e11a9dba	865784281	1	main_slash	7	main_slash	113	stimuli_distractor_diamondtriangles.svg	stimuli_distractor_trianglediamonds.svg	38	no	0	1	2000
6.6.1	mac	2022-12-26	16:12:03	16:17:03	298963	6112fd23b0250798e11a9dba	865784281	1	main_slash	7	advance_on_keypress_SLASH	114	stimuli_distractor_diamondtriangles.svg	stimuli_distractor_trianglediamonds.svg	38	no	57	0	856
6.6.1	mac	2022-12-26	16:12:03	16:17:05	301043	6112fd23b0250798e11a9dba	865784281	1	main_slash	7	main_slash	115	stimuli_distractor_trianglediamonds.svg	stimuli_target_trianglecircles.svg	25	yes	53	1	593
6.6.1	mac	2022-12-26	16:12:03	16:17:05	301043	6112fd23b0250798e11a9dba	865784281	1	main_slash	7	advance_on_keypress_SLASH	116	stimuli_distractor_trianglediamonds.svg	stimuli_target_trianglecircles.svg	25	yes	57	0	332
6.6.1	mac	2022-12-26	16:12:03	16:17:07	302577	6112fd23b0250798e11a9dba	865784281	1	main_slash	7	main_slash	117	stimuli_distractor_diamondtriangles.svg	stimuli_target_circletriangles.svg	13	yes	53	1	563
6.6.1	mac	2022-12-26	16:12:03	16:17:07	302577	6112fd23b0250798e11a9dba	865784281	1	main_slash	7	advance_on_keypress_SLASH	118	stimuli_distractor_diamondtriangles.svg	stimuli_target_circletriangles.svg	13	yes	57	0	336
6.6.1	mac	2022-12-26	16:12:03	16:17:08	304100	6112fd23b0250798e11a9dba	865784281	1	main_slash	7	main_slash	119	stimuli_distractor_diamondtriangles.svg	stimuli_target_squaretriangles.svg	15	yes	53	1	551
6.6.1	mac	2022-12-26	16:12:03	16:17:08	304100	6112fd23b0250798e11a9dba	865784281	1	main_slash	7	advance_on_keypress_SLASH	120	stimuli_distractor_diamondtriangles.svg	stimuli_target_squaretriangles.svg	15	yes	57	0	497
6.6.1	mac	2022-12-26	16:12:03	16:17:10	305935	6112fd23b0250798e11a9dba	865784281	1	main_slash	7	main_slash	121	stimuli_distractor_trianglediamonds.svg	stimuli_target_diamondsquares.svg	28	yes	53	1	701
6.6.1	mac	2022-12-26	16:12:03	16:17:10	305935	6112fd23b0250798e11a9dba	865784281	1	main_slash	7	advance_on_keypress_SLASH	122	stimuli_distractor_trianglediamonds.svg	stimuli_target_diamondsquares.svg	28	yes	57	0	502
6.6.1	mac	2022-12-26	16:12:03	16:17:12	307632	6112fd23b0250798e11a9dba	865784281	1	main_slash	7	main_slash	123	stimuli_target_circlediamonds.svg	stimuli_distractor_trianglediamonds.svg	2	yes	53	1	563
6.6.1	mac	2022-12-26	16:12:03	16:17:12	307632	6112fd23b0250798e11a9dba	865784281	1	main_slash	7	advance_on_keypress_SLASH	124	stimuli_target_circlediamonds.svg	stimuli_distractor_trianglediamonds.svg	2	yes	57	0	640
6.6.1	mac	2022-12-26	16:12:03	16:17:15	310900	6112fd23b0250798e11a9dba	865784281	1	main_slash	7	main_slash	125	stimuli_distractor_trianglediamonds.svg	stimuli_distractor_diamondtriangles.svg	36	no	0	1	2000
6.6.1	mac	2022-12-26	16:12:03	16:17:15	310900	6112fd23b0250798e11a9dba	865784281	1	main_slash	7	advance_on_keypress_SLASH	126	stimuli_distractor_trianglediamonds.svg	stimuli_distractor_diamondtriangles.svg	36	no	57	0	548
6.6.1	mac	2022-12-26	16:12:03	16:17:17	312588	6112fd23b0250798e11a9dba	865784281	1	main_slash	7	main_slash	127	stimuli_target_squaretriangles.svg	stimuli_distractor_trianglediamonds.svg	3	yes	53	1	501
6.6.1	mac	2022-12-26	16:12:03	16:17:17	312588	6112fd23b0250798e11a9dba	865784281	1	main_slash	7	advance_on_keypress_SLASH	128	stimuli_target_squaretriangles.svg	stimuli_distractor_trianglediamonds.svg	3	yes	57	0	343
6.6.1	mac	2022-12-26	16:12:03	16:17:18	314070	6112fd23b0250798e11a9dba	865784281	1	main_slash	7	main_slash	129	stimuli_target_trianglesquares.svg	stimuli_distractor_diamondtriangles.svg	22	yes	53	1	487
6.6.1	mac	2022-12-26	16:12:03	16:17:18	314070	6112fd23b0250798e11a9dba	865784281	1	main_slash	7	advance_on_keypress_SLASH	130	stimuli_target_trianglesquares.svg	stimuli_distractor_diamondtriangles.svg	22	yes	57	0	410
6.6.1	mac	2022-12-26	16:12:03	16:17:20	315577	6112fd23b0250798e11a9dba	865784281	1	main_slash	7	main_slash	131	stimuli_distractor_diamondtriangles.svg	stimuli_target_trianglesquares.svg	30	yes	53	1	461
6.6.1	mac	2022-12-26	16:12:03	16:17:20	315577	6112fd23b0250798e11a9dba	865784281	1	main_slash	7	advance_on_keypress_SLASH	132	stimuli_distractor_diamondtriangles.svg	stimuli_target_trianglesquares.svg	30	yes	57	0	542
6.6.1	mac	2022-12-26	16:12:03	16:17:21	317178	6112fd23b0250798e11a9dba	865784281	1	main_slash	7	main_slash	133	stimuli_distractor_diamondtriangles.svg	stimuli_target_squarediamonds.svg	16	yes	53	1	430
6.6.1	mac	2022-12-26	16:12:03	16:17:21	317178	6112fd23b0250798e11a9dba	865784281	1	main_slash	7	advance_on_keypress_SLASH	134	stimuli_distractor_diamondtriangles.svg	stimuli_target_squarediamonds.svg	16	yes	57	0	513
6.6.1	mac	2022-12-26	16:12:03	16:17:23	318823	6112fd23b0250798e11a9dba	865784281	1	main_slash	7	main_slash	135	stimuli_target_circletriangles.svg	stimuli_distractor_trianglediamonds.svg	1	yes	53	1	494
6.6.1	mac	2022-12-26	16:12:03	16:17:23	318823	6112fd23b0250798e11a9dba	865784281	1	main_slash	7	advance_on_keypress_SLASH	136	stimuli_target_circletriangles.svg	stimuli_distractor_trianglediamonds.svg	1	yes	57	0	488
6.6.1	mac	2022-12-26	16:12:03	16:17:25	320400	6112fd23b0250798e11a9dba	865784281	1	main_slash	7	main_slash	137	stimuli_target_squarediamonds.svg	stimuli_distractor_trianglediamonds.svg	4	yes	53	1	458
6.6.1	mac	2022-12-26	16:12:03	16:17:25	320400	6112fd23b0250798e11a9dba	865784281	1	main_slash	7	advance_on_keypress_SLASH	138	stimuli_target_squarediamonds.svg	stimuli_distractor_trianglediamonds.svg	4	yes	57	0	1262
6.6.1	mac	2022-12-26	16:12:03	16:17:27	322716	6112fd23b0250798e11a9dba	865784281	1	main_slash	7	main_slash	139	stimuli_distractor_trianglediamonds.svg	stimuli_target_squarediamonds.svg	12	yes	53	1	416
6.6.1	mac	2022-12-26	16:12:03	16:17:27	322716	6112fd23b0250798e11a9dba	865784281	1	main_slash	7	advance_on_keypress_SLASH	140	stimuli_distractor_trianglediamonds.svg	stimuli_target_squarediamonds.svg	12	yes	57	0	492
6.6.1	mac	2022-12-26	16:12:03	16:17:30	325838	6112fd23b0250798e11a9dba	865784281	1	main_slash	7	main_slash	141	stimuli_distractor_diamondtriangles.svg	stimuli_distractor_diamondtriangles.svg	39	no	0	1	2000
6.6.1	mac	2022-12-26	16:12:03	16:17:30	325838	6112fd23b0250798e11a9dba	865784281	1	main_slash	7	advance_on_keypress_SLASH	142	stimuli_distractor_diamondtriangles.svg	stimuli_distractor_diamondtriangles.svg	39	no	57	0	621
6.6.1	mac	2022-12-26	16:12:03	16:17:32	327492	6112fd23b0250798e11a9dba	865784281	1	main_slash	7	main_slash	143	stimuli_distractor_trianglediamonds.svg	stimuli_target_circletriangles.svg	9	yes	53	1	402
6.6.1	mac	2022-12-26	16:12:03	16:17:32	327492	6112fd23b0250798e11a9dba	865784281	1	main_slash	7	advance_on_keypress_SLASH	144	stimuli_distractor_trianglediamonds.svg	stimuli_target_circletriangles.svg	9	yes	57	0	410
6.6.1	mac	2022-12-26	16:12:03	16:17:33	329077	6112fd23b0250798e11a9dba	865784281	1	main_slash	7	main_slash	145	stimuli_target_trianglesquares.svg	stimuli_distractor_trianglediamonds.svg	18	yes	53	1	537
6.6.1	mac	2022-12-26	16:12:03	16:17:33	329077	6112fd23b0250798e11a9dba	865784281	1	main_slash	7	advance_on_keypress_SLASH	146	stimuli_target_trianglesquares.svg	stimuli_distractor_trianglediamonds.svg	18	yes	57	0	420
6.6.1	mac	2022-12-26	16:12:03	16:17:35	330593	6112fd23b0250798e11a9dba	865784281	1	main_slash	7	main_slash	147	stimuli_distractor_diamondtriangles.svg	stimuli_target_circlediamonds.svg	14	yes	53	1	457
6.6.1	mac	2022-12-26	16:12:03	16:17:35	330593	6112fd23b0250798e11a9dba	865784281	1	main_slash	7	advance_on_keypress_SLASH	148	stimuli_distractor_diamondtriangles.svg	stimuli_target_circlediamonds.svg	14	yes	57	0	421
6.6.1	mac	2022-12-26	16:12:03	16:17:36	332128	6112fd23b0250798e11a9dba	865784281	1	main_slash	7	main_slash	149	stimuli_target_circletriangles.svg	stimuli_distractor_diamondtriangles.svg	5	yes	53	1	477
6.6.1	mac	2022-12-26	16:12:03	16:17:36	332128	6112fd23b0250798e11a9dba	865784281	1	main_slash	7	advance_on_keypress_SLASH	150	stimuli_target_circletriangles.svg	stimuli_distractor_diamondtriangles.svg	5	yes	57	0	431
6.6.1	mac	2022-12-26	16:12:03	16:17:38	333836	6112fd23b0250798e11a9dba	865784281	1	main_slash	7	main_slash	151	stimuli_target_diamondcircles.svg	stimuli_distractor_diamondtriangles.svg	23	yes	53	1	633
6.6.1	mac	2022-12-26	16:12:03	16:17:38	333836	6112fd23b0250798e11a9dba	865784281	1	main_slash	7	advance_on_keypress_SLASH	152	stimuli_target_diamondcircles.svg	stimuli_distractor_diamondtriangles.svg	23	yes	57	0	365
6.6.1	mac	2022-12-26	16:12:03	16:17:39	335277	6112fd23b0250798e11a9dba	865784281	1	main_slash	7	main_slash	153	stimuli_distractor_diamondtriangles.svg	stimuli_target_diamondcircles.svg	31	yes	53	1	442
6.6.1	mac	2022-12-26	16:12:03	16:17:39	335277	6112fd23b0250798e11a9dba	865784281	1	main_slash	7	advance_on_keypress_SLASH	154	stimuli_distractor_diamondtriangles.svg	stimuli_target_diamondcircles.svg	31	yes	57	0	400
6.6.1	mac	2022-12-26	16:12:03	16:17:41	336850	6112fd23b0250798e11a9dba	865784281	1	main_slash	7	main_slash	155	stimuli_target_diamondsquares.svg	stimuli_distractor_trianglediamonds.svg	20	yes	53	1	530
6.6.1	mac	2022-12-26	16:12:03	16:17:41	336850	6112fd23b0250798e11a9dba	865784281	1	main_slash	7	advance_on_keypress_SLASH	156	stimuli_target_diamondsquares.svg	stimuli_distractor_trianglediamonds.svg	20	yes	57	0	1557
6.6.1	mac	2022-12-26	16:12:03	16:17:45	341044	6112fd23b0250798e11a9dba	865784281	1	main_slash	7	main_slash	157	stimuli_distractor_trianglediamonds.svg	stimuli_distractor_trianglediamonds.svg	34	no	0	1	2000
6.6.1	mac	2022-12-26	16:12:03	16:17:45	341044	6112fd23b0250798e11a9dba	865784281	1	main_slash	7	advance_on_keypress_SLASH	158	stimuli_distractor_trianglediamonds.svg	stimuli_distractor_trianglediamonds.svg	34	no	57	0	1348
6.6.1	mac	2022-12-26	16:12:03	16:17:48	343467	6112fd23b0250798e11a9dba	865784281	1	main_slash	7	main_slash	159	stimuli_distractor_trianglediamonds.svg	stimuli_target_diamondcircles.svg	27	yes	53	1	439
6.6.1	mac	2022-12-26	16:12:03	16:17:48	343467	6112fd23b0250798e11a9dba	865784281	1	main_slash	7	advance_on_keypress_SLASH	160	stimuli_distractor_trianglediamonds.svg	stimuli_target_diamondcircles.svg	27	yes	57	0	699
6.6.1	mac	2022-12-26	16:12:03	16:18:06	362295	6112fd23b0250798e11a9dba	865784281	1	practice_z	9	practice_z	1	stimuli_distractor_diamondtriangles.svg	stimuli_target_trianglecircles.svg	9	yes	44	1	638
6.6.1	mac	2022-12-26	16:12:03	16:18:06	362295	6112fd23b0250798e11a9dba	865784281	1	practice_z	9	advance_on_keypress_ZEE	2	stimuli_distractor_diamondtriangles.svg	stimuli_target_trianglecircles.svg	9	yes	57	0	541
6.6.1	mac	2022-12-26	16:12:03	16:18:11	366475	6112fd23b0250798e11a9dba	865784281	1	practice_z	9	practice_z	3	stimuli_distractor_diamondtriangles.svg	stimuli_distractor_trianglediamonds.svg	14	no	0	1	2000
6.6.1	mac	2022-12-26	16:12:03	16:18:11	366475	6112fd23b0250798e11a9dba	865784281	1	practice_z	9	advance_on_keypress_ZEE	4	stimuli_distractor_diamondtriangles.svg	stimuli_distractor_trianglediamonds.svg	14	no	57	0	422
6.6.1	mac	2022-12-26	16:12:03	16:18:13	368949	6112fd23b0250798e11a9dba	865784281	1	practice_z	9	practice_z	5	stimuli_distractor_diamondtriangles.svg	stimuli_target_circletriangles.svg	7	yes	44	1	418
6.6.1	mac	2022-12-26	16:12:03	16:18:13	368949	6112fd23b0250798e11a9dba	865784281	1	practice_z	9	advance_on_keypress_ZEE	6	stimuli_distractor_diamondtriangles.svg	stimuli_target_circletriangles.svg	7	yes	57	0	394
6.6.1	mac	2022-12-26	16:12:03	16:18:16	371453	6112fd23b0250798e11a9dba	865784281	1	practice_z	9	practice_z	7	stimuli_distractor_trianglediamonds.svg	stimuli_target_squarediamonds.svg	11	yes	44	1	473
6.6.1	mac	2022-12-26	16:12:03	16:18:16	371453	6112fd23b0250798e11a9dba	865784281	1	practice_z	9	advance_on_keypress_ZEE	8	stimuli_distractor_trianglediamonds.svg	stimuli_target_squarediamonds.svg	11	yes	57	0	455
6.6.1	mac	2022-12-26	16:12:03	16:18:18	374064	6112fd23b0250798e11a9dba	865784281	1	practice_z	9	practice_z	9	stimuli_target_squarediamonds.svg	stimuli_distractor_trianglediamonds.svg	5	yes	44	1	515
6.6.1	mac	2022-12-26	16:12:03	16:18:18	374064	6112fd23b0250798e11a9dba	865784281	1	practice_z	9	advance_on_keypress_ZEE	10	stimuli_target_squarediamonds.svg	stimuli_distractor_trianglediamonds.svg	5	yes	57	0	356
6.6.1	mac	2022-12-26	16:12:03	16:18:21	376461	6112fd23b0250798e11a9dba	865784281	1	practice_z	9	practice_z	11	stimuli_target_circlediamonds.svg	stimuli_distractor_diamondtriangles.svg	1	yes	44	1	411
6.6.1	mac	2022-12-26	16:12:03	16:18:21	376461	6112fd23b0250798e11a9dba	865784281	1	practice_z	9	advance_on_keypress_ZEE	12	stimuli_target_circlediamonds.svg	stimuli_distractor_diamondtriangles.svg	1	yes	57	0	321
6.6.1	mac	2022-12-26	16:12:03	16:18:23	379291	6112fd23b0250798e11a9dba	865784281	1	practice_z	9	practice_z	13	stimuli_target_squarediamonds.svg	stimuli_distractor_diamondtriangles.svg	2	yes	44	1	873
6.6.1	mac	2022-12-26	16:12:03	16:18:23	379291	6112fd23b0250798e11a9dba	865784281	1	practice_z	9	advance_on_keypress_ZEE	14	stimuli_target_squarediamonds.svg	stimuli_distractor_diamondtriangles.svg	2	yes	57	0	336
6.6.1	mac	2022-12-26	16:12:03	16:18:26	381719	6112fd23b0250798e11a9dba	865784281	1	practice_z	9	practice_z	15	stimuli_target_circlediamonds.svg	stimuli_distractor_trianglediamonds.svg	4	yes	44	1	461
6.6.1	mac	2022-12-26	16:12:03	16:18:26	381719	6112fd23b0250798e11a9dba	865784281	1	practice_z	9	advance_on_keypress_ZEE	16	stimuli_target_circlediamonds.svg	stimuli_distractor_trianglediamonds.svg	4	yes	57	0	321
6.6.1	mac	2022-12-26	16:12:03	16:18:28	384371	6112fd23b0250798e11a9dba	865784281	1	practice_z	9	practice_z	17	stimuli_target_diamondsquares.svg	stimuli_distractor_diamondtriangles.svg	3	yes	44	1	699
6.6.1	mac	2022-12-26	16:12:03	16:18:28	384371	6112fd23b0250798e11a9dba	865784281	1	practice_z	9	advance_on_keypress_ZEE	18	stimuli_target_diamondsquares.svg	stimuli_distractor_diamondtriangles.svg	3	yes	57	0	47
6.6.1	mac	2022-12-26	16:12:03	16:18:31	386502	6112fd23b0250798e11a9dba	865784281	1	practice_z	9	practice_z	19	stimuli_distractor_trianglediamonds.svg	stimuli_target_diamondcircles.svg	12	yes	44	1	446
6.6.1	mac	2022-12-26	16:12:03	16:18:31	386502	6112fd23b0250798e11a9dba	865784281	1	practice_z	9	advance_on_keypress_ZEE	20	stimuli_distractor_trianglediamonds.svg	stimuli_target_diamondcircles.svg	12	yes	57	0	73
6.6.1	mac	2022-12-26	16:12:03	16:18:34	390220	6112fd23b0250798e11a9dba	865784281	1	practice_z	9	practice_z	21	stimuli_distractor_diamondtriangles.svg	stimuli_distractor_diamondtriangles.svg	13	no	0	1	2000
6.6.1	mac	2022-12-26	16:12:03	16:18:34	390220	6112fd23b0250798e11a9dba	865784281	1	practice_z	9	advance_on_keypress_ZEE	22	stimuli_distractor_diamondtriangles.svg	stimuli_distractor_diamondtriangles.svg	13	no	57	0	547
6.6.1	mac	2022-12-26	16:12:03	16:18:37	392954	6112fd23b0250798e11a9dba	865784281	1	practice_z	9	practice_z	23	stimuli_distractor_trianglediamonds.svg	stimuli_target_circlediamonds.svg	10	yes	44	1	551
6.6.1	mac	2022-12-26	16:12:03	16:18:37	392954	6112fd23b0250798e11a9dba	865784281	1	practice_z	9	advance_on_keypress_ZEE	24	stimuli_distractor_trianglediamonds.svg	stimuli_target_circlediamonds.svg	10	yes	57	0	371
6.6.1	mac	2022-12-26	16:12:03	16:18:41	396951	6112fd23b0250798e11a9dba	865784281	1	practice_z	9	practice_z	25	stimuli_distractor_trianglediamonds.svg	stimuli_distractor_trianglediamonds.svg	15	no	0	1	2000
6.6.1	mac	2022-12-26	16:12:03	16:18:41	396951	6112fd23b0250798e11a9dba	865784281	1	practice_z	9	advance_on_keypress_ZEE	26	stimuli_distractor_trianglediamonds.svg	stimuli_distractor_trianglediamonds.svg	15	no	57	0	814
6.6.1	mac	2022-12-26	16:12:03	16:18:44	399896	6112fd23b0250798e11a9dba	865784281	1	practice_z	9	practice_z	27	stimuli_distractor_diamondtriangles.svg	stimuli_target_diamondcircles.svg	8	yes	44	1	501
6.6.1	mac	2022-12-26	16:12:03	16:18:44	399896	6112fd23b0250798e11a9dba	865784281	1	practice_z	9	advance_on_keypress_ZEE	28	stimuli_distractor_diamondtriangles.svg	stimuli_target_diamondcircles.svg	8	yes	57	0	503
6.6.1	mac	2022-12-26	16:12:03	16:18:47	402846	6112fd23b0250798e11a9dba	865784281	1	practice_z	9	practice_z	29	stimuli_target_diamondsquares.svg	stimuli_distractor_trianglediamonds.svg	6	yes	44	1	803
6.6.1	mac	2022-12-26	16:12:03	16:18:47	402846	6112fd23b0250798e11a9dba	865784281	1	practice_z	9	advance_on_keypress_ZEE	30	stimuli_target_diamondsquares.svg	stimuli_distractor_trianglediamonds.svg	6	yes	57	0	282
6.6.1	mac	2022-12-26	16:12:03	16:18:51	406760	6112fd23b0250798e11a9dba	865784281	1	practice_z	9	practice_z	31	stimuli_distractor_trianglediamonds.svg	stimuli_distractor_diamondtriangles.svg	16	no	0	1	2000
6.6.1	mac	2022-12-26	16:12:03	16:18:51	406760	6112fd23b0250798e11a9dba	865784281	1	practice_z	9	advance_on_keypress_ZEE	32	stimuli_distractor_trianglediamonds.svg	stimuli_distractor_diamondtriangles.svg	16	no	57	0	440
6.6.1	mac	2022-12-26	16:12:03	16:18:59	414941	6112fd23b0250798e11a9dba	865784281	1	main_z	11	main_z	1	stimuli_distractor_trianglediamonds.svg	stimuli_target_circletriangles.svg	9	yes	44	1	534
6.6.1	mac	2022-12-26	16:12:03	16:18:59	414941	6112fd23b0250798e11a9dba	865784281	1	main_z	11	advance_on_keypress_ZEE	2	stimuli_distractor_trianglediamonds.svg	stimuli_target_circletriangles.svg	9	yes	57	0	707
6.6.1	mac	2022-12-26	16:12:03	16:19:01	416749	6112fd23b0250798e11a9dba	865784281	1	main_z	11	main_z	3	stimuli_distractor_diamondtriangles.svg	stimuli_target_circletriangles.svg	13	yes	44	1	466
6.6.1	mac	2022-12-26	16:12:03	16:19:01	416749	6112fd23b0250798e11a9dba	865784281	1	main_z	11	advance_on_keypress_ZEE	4	stimuli_distractor_diamondtriangles.svg	stimuli_target_circletriangles.svg	13	yes	57	0	528
6.6.1	mac	2022-12-26	16:12:03	16:19:03	418395	6112fd23b0250798e11a9dba	865784281	1	main_z	11	main_z	5	stimuli_target_squarediamonds.svg	stimuli_distractor_diamondtriangles.svg	8	yes	44	1	481
6.6.1	mac	2022-12-26	16:12:03	16:19:03	418395	6112fd23b0250798e11a9dba	865784281	1	main_z	11	advance_on_keypress_ZEE	6	stimuli_target_squarediamonds.svg	stimuli_distractor_diamondtriangles.svg	8	yes	57	0	472
6.6.1	mac	2022-12-26	16:12:03	16:19:06	421491	6112fd23b0250798e11a9dba	865784281	1	main_z	11	main_z	7	stimuli_distractor_trianglediamonds.svg	stimuli_distractor_diamondtriangles.svg	36	no	0	1	2000
6.6.1	mac	2022-12-26	16:12:03	16:19:06	421491	6112fd23b0250798e11a9dba	865784281	1	main_z	11	advance_on_keypress_ZEE	8	stimuli_distractor_trianglediamonds.svg	stimuli_distractor_diamondtriangles.svg	36	no	57	0	615
6.6.1	mac	2022-12-26	16:12:03	16:19:07	423197	6112fd23b0250798e11a9dba	865784281	1	main_z	11	main_z	9	stimuli_target_squaretriangles.svg	stimuli_distractor_diamondtriangles.svg	7	yes	44	1	447
6.6.1	mac	2022-12-26	16:12:03	16:19:07	423197	6112fd23b0250798e11a9dba	865784281	1	main_z	11	advance_on_keypress_ZEE	10	stimuli_target_squaretriangles.svg	stimuli_distractor_diamondtriangles.svg	7	yes	57	0	473
6.6.1	mac	2022-12-26	16:12:03	16:19:09	424724	6112fd23b0250798e11a9dba	865784281	1	main_z	11	main_z	11	stimuli_distractor_trianglediamonds.svg	stimuli_target_squarediamonds.svg	12	yes	44	1	426
6.6.1	mac	2022-12-26	16:12:03	16:19:09	424724	6112fd23b0250798e11a9dba	865784281	1	main_z	11	advance_on_keypress_ZEE	12	stimuli_distractor_trianglediamonds.svg	stimuli_target_squarediamonds.svg	12	yes	57	0	358
6.6.1	mac	2022-12-26	16:12:03	16:19:10	426099	6112fd23b0250798e11a9dba	865784281	1	main_z	11	main_z	13	stimuli_distractor_trianglediamonds.svg	stimuli_target_circlediamonds.svg	10	yes	44	1	384
6.6.1	mac	2022-12-26	16:12:03	16:19:10	426099	6112fd23b0250798e11a9dba	865784281	1	main_z	11	advance_on_keypress_ZEE	14	stimuli_distractor_trianglediamonds.svg	stimuli_target_circlediamonds.svg	10	yes	57	0	290
6.6.1	mac	2022-12-26	16:12:03	16:19:12	427706	6112fd23b0250798e11a9dba	865784281	1	main_z	11	main_z	15	stimuli_distractor_diamondtriangles.svg	stimuli_target_trianglecircles.svg	29	yes	44	1	697
6.6.1	mac	2022-12-26	16:12:03	16:19:12	427706	6112fd23b0250798e11a9dba	865784281	1	main_z	11	advance_on_keypress_ZEE	16	stimuli_distractor_diamondtriangles.svg	stimuli_target_trianglecircles.svg	29	yes	57	0	226
6.6.1	mac	2022-12-26	16:12:03	16:19:13	429028	6112fd23b0250798e11a9dba	865784281	1	main_z	11	main_z	17	stimuli_distractor_diamondtriangles.svg	stimuli_target_diamondsquares.svg	32	yes	44	1	472
6.6.1	mac	2022-12-26	16:12:03	16:19:13	429028	6112fd23b0250798e11a9dba	865784281	1	main_z	11	advance_on_keypress_ZEE	18	stimuli_distractor_diamondtriangles.svg	stimuli_target_diamondsquares.svg	32	yes	57	0	190
6.6.1	mac	2022-12-26	16:12:03	16:19:15	430429	6112fd23b0250798e11a9dba	865784281	1	main_z	11	main_z	19	stimuli_target_circletriangles.svg	stimuli_distractor_trianglediamonds.svg	1	yes	44	1	574
6.6.1	mac	2022-12-26	16:12:03	16:19:15	430429	6112fd23b0250798e11a9dba	865784281	1	main_z	11	advance_on_keypress_ZEE	20	stimuli_target_circletriangles.svg	stimuli_distractor_trianglediamonds.svg	1	yes	57	0	154
6.6.1	mac	2022-12-26	16:12:03	16:19:16	431786	6112fd23b0250798e11a9dba	865784281	1	main_z	11	main_z	21	stimuli_distractor_trianglediamonds.svg	stimuli_distractor_trianglediamonds.svg	33	no	44	0	568
6.6.1	mac	2022-12-26	16:12:03	16:19:16	431786	6112fd23b0250798e11a9dba	865784281	1	main_z	11	advance_on_keypress_ZEE	22	stimuli_distractor_trianglediamonds.svg	stimuli_distractor_trianglediamonds.svg	33	no	57	0	2650
6.6.1	mac	2022-12-26	16:12:03	16:19:20	435479	6112fd23b0250798e11a9dba	865784281	1	main_z	11	main_z	23	stimuli_target_squarediamonds.svg	stimuli_distractor_trianglediamonds.svg	4	yes	44	1	404
6.6.1	mac	2022-12-26	16:12:03	16:19:20	435479	6112fd23b0250798e11a9dba	865784281	1	main_z	11	advance_on_keypress_ZEE	24	stimuli_target_squarediamonds.svg	stimuli_distractor_trianglediamonds.svg	4	yes	57	0	553
6.6.1	mac	2022-12-26	16:12:03	16:19:21	437244	6112fd23b0250798e11a9dba	865784281	1	main_z	11	main_z	25	stimuli_distractor_trianglediamonds.svg	stimuli_target_trianglecircles.svg	25	yes	44	1	580
6.6.1	mac	2022-12-26	16:12:03	16:19:21	437244	6112fd23b0250798e11a9dba	865784281	1	main_z	11	advance_on_keypress_ZEE	26	stimuli_distractor_trianglediamonds.svg	stimuli_target_trianglecircles.svg	25	yes	57	0	424
6.6.1	mac	2022-12-26	16:12:03	16:19:23	439315	6112fd23b0250798e11a9dba	865784281	1	main_z	11	main_z	27	stimuli_distractor_diamondtriangles.svg	stimuli_target_squaretriangles.svg	15	yes	44	1	1009
6.6.1	mac	2022-12-26	16:12:03	16:19:23	439315	6112fd23b0250798e11a9dba	865784281	1	main_z	11	advance_on_keypress_ZEE	28	stimuli_distractor_diamondtriangles.svg	stimuli_target_squaretriangles.svg	15	yes	57	0	443
6.6.1	mac	2022-12-26	16:12:03	16:19:25	440941	6112fd23b0250798e11a9dba	865784281	1	main_z	11	main_z	29	stimuli_target_diamondcircles.svg	stimuli_distractor_diamondtriangles.svg	23	yes	44	1	561
6.6.1	mac	2022-12-26	16:12:03	16:19:25	440941	6112fd23b0250798e11a9dba	865784281	1	main_z	11	advance_on_keypress_ZEE	30	stimuli_target_diamondcircles.svg	stimuli_distractor_diamondtriangles.svg	23	yes	57	0	1171
6.6.1	mac	2022-12-26	16:12:03	16:19:29	444751	6112fd23b0250798e11a9dba	865784281	1	main_z	11	main_z	31	stimuli_distractor_diamondtriangles.svg	stimuli_distractor_trianglediamonds.svg	38	no	0	1	2000
6.6.1	mac	2022-12-26	16:12:03	16:19:29	444751	6112fd23b0250798e11a9dba	865784281	1	main_z	11	advance_on_keypress_ZEE	32	stimuli_distractor_diamondtriangles.svg	stimuli_distractor_trianglediamonds.svg	38	no	57	0	877
6.6.1	mac	2022-12-26	16:12:03	16:19:32	448264	6112fd23b0250798e11a9dba	865784281	1	main_z	11	main_z	33	stimuli_distractor_trianglediamonds.svg	stimuli_distractor_trianglediamonds.svg	34	no	0	1	2000
6.6.1	mac	2022-12-26	16:12:03	16:19:32	448264	6112fd23b0250798e11a9dba	865784281	1	main_z	11	advance_on_keypress_ZEE	34	stimuli_distractor_trianglediamonds.svg	stimuli_distractor_trianglediamonds.svg	34	no	57	0	619
6.6.1	mac	2022-12-26	16:12:03	16:19:34	450019	6112fd23b0250798e11a9dba	865784281	1	main_z	11	main_z	35	stimuli_distractor_diamondtriangles.svg	stimuli_target_trianglesquares.svg	30	yes	44	1	501
6.6.1	mac	2022-12-26	16:12:03	16:19:34	450019	6112fd23b0250798e11a9dba	865784281	1	main_z	11	advance_on_keypress_ZEE	36	stimuli_distractor_diamondtriangles.svg	stimuli_target_trianglesquares.svg	30	yes	57	0	426
6.6.1	mac	2022-12-26	16:12:03	16:19:37	453076	6112fd23b0250798e11a9dba	865784281	1	main_z	11	main_z	37	stimuli_distractor_diamondtriangles.svg	stimuli_distractor_trianglediamonds.svg	37	no	0	1	2000
6.6.1	mac	2022-12-26	16:12:03	16:19:37	453076	6112fd23b0250798e11a9dba	865784281	1	main_z	11	advance_on_keypress_ZEE	38	stimuli_distractor_diamondtriangles.svg	stimuli_distractor_trianglediamonds.svg	37	no	57	0	536
6.6.1	mac	2022-12-26	16:12:03	16:19:39	454815	6112fd23b0250798e11a9dba	865784281	1	main_z	11	main_z	39	stimuli_target_trianglecircles.svg	stimuli_distractor_diamondtriangles.svg	21	yes	44	1	565
6.6.1	mac	2022-12-26	16:12:03	16:19:39	454815	6112fd23b0250798e11a9dba	865784281	1	main_z	11	advance_on_keypress_ZEE	40	stimuli_target_trianglecircles.svg	stimuli_distractor_diamondtriangles.svg	21	yes	57	0	471
6.6.1	mac	2022-12-26	16:12:03	16:19:41	456931	6112fd23b0250798e11a9dba	865784281	1	main_z	11	main_z	41	stimuli_distractor_trianglediamonds.svg	stimuli_target_diamondcircles.svg	27	yes	44	1	1015
6.6.1	mac	2022-12-26	16:12:03	16:19:41	456931	6112fd23b0250798e11a9dba	865784281	1	main_z	11	advance_on_keypress_ZEE	42	stimuli_distractor_trianglediamonds.svg	stimuli_target_diamondcircles.svg	27	yes	57	0	1557
6.6.1	mac	2022-12-26	16:12:03	16:19:44	459594	6112fd23b0250798e11a9dba	865784281	1	main_z	11	main_z	43	stimuli_target_trianglesquares.svg	stimuli_distractor_diamondtriangles.svg	22	yes	44	1	476
6.6.1	mac	2022-12-26	16:12:03	16:19:44	459594	6112fd23b0250798e11a9dba	865784281	1	main_z	11	advance_on_keypress_ZEE	44	stimuli_target_trianglesquares.svg	stimuli_distractor_diamondtriangles.svg	22	yes	57	0	1304
6.6.1	mac	2022-12-26	16:12:03	16:19:46	462071	6112fd23b0250798e11a9dba	865784281	1	main_z	11	main_z	45	stimuli_target_diamondsquares.svg	stimuli_distractor_diamondtriangles.svg	24	yes	44	1	525
6.6.1	mac	2022-12-26	16:12:03	16:19:46	462071	6112fd23b0250798e11a9dba	865784281	1	main_z	11	advance_on_keypress_ZEE	46	stimuli_target_diamondsquares.svg	stimuli_distractor_diamondtriangles.svg	24	yes	57	0	1059
6.6.1	mac	2022-12-26	16:12:03	16:19:49	464720	6112fd23b0250798e11a9dba	865784281	1	main_z	11	main_z	47	stimuli_distractor_diamondtriangles.svg	stimuli_target_circlediamonds.svg	14	yes	44	1	961
6.6.1	mac	2022-12-26	16:12:03	16:19:49	464720	6112fd23b0250798e11a9dba	865784281	1	main_z	11	advance_on_keypress_ZEE	48	stimuli_distractor_diamondtriangles.svg	stimuli_target_circlediamonds.svg	14	yes	57	0	842
6.6.1	mac	2022-12-26	16:12:03	16:19:51	466656	6112fd23b0250798e11a9dba	865784281	1	main_z	11	main_z	49	stimuli_target_circlediamonds.svg	stimuli_distractor_diamondtriangles.svg	6	yes	44	1	448
6.6.1	mac	2022-12-26	16:12:03	16:19:51	466656	6112fd23b0250798e11a9dba	865784281	1	main_z	11	advance_on_keypress_ZEE	50	stimuli_target_circlediamonds.svg	stimuli_distractor_diamondtriangles.svg	6	yes	57	0	671
6.6.1	mac	2022-12-26	16:12:03	16:19:53	468764	6112fd23b0250798e11a9dba	865784281	1	main_z	11	main_z	51	stimuli_target_trianglecircles.svg	stimuli_distractor_trianglediamonds.svg	17	yes	44	1	796
6.6.1	mac	2022-12-26	16:12:03	16:19:53	468764	6112fd23b0250798e11a9dba	865784281	1	main_z	11	advance_on_keypress_ZEE	52	stimuli_target_trianglecircles.svg	stimuli_distractor_trianglediamonds.svg	17	yes	57	0	565
6.6.1	mac	2022-12-26	16:12:03	16:19:55	470466	6112fd23b0250798e11a9dba	865784281	1	main_z	11	main_z	53	stimuli_distractor_diamondtriangles.svg	stimuli_target_diamondcircles.svg	31	yes	44	1	495
6.6.1	mac	2022-12-26	16:12:03	16:19:55	470466	6112fd23b0250798e11a9dba	865784281	1	main_z	11	advance_on_keypress_ZEE	54	stimuli_distractor_diamondtriangles.svg	stimuli_target_diamondcircles.svg	31	yes	57	0	605
6.6.1	mac	2022-12-26	16:12:03	16:19:56	472223	6112fd23b0250798e11a9dba	865784281	1	main_z	11	main_z	55	stimuli_distractor_diamondtriangles.svg	stimuli_target_squarediamonds.svg	16	yes	44	1	518
6.6.1	mac	2022-12-26	16:12:03	16:19:56	472223	6112fd23b0250798e11a9dba	865784281	1	main_z	11	advance_on_keypress_ZEE	56	stimuli_distractor_diamondtriangles.svg	stimuli_target_squarediamonds.svg	16	yes	57	0	565
6.6.1	mac	2022-12-26	16:12:03	16:20:00	475434	6112fd23b0250798e11a9dba	865784281	1	main_z	11	main_z	57	stimuli_distractor_diamondtriangles.svg	stimuli_distractor_diamondtriangles.svg	39	no	0	1	2000
6.6.1	mac	2022-12-26	16:12:03	16:20:00	475434	6112fd23b0250798e11a9dba	865784281	1	main_z	11	advance_on_keypress_ZEE	58	stimuli_distractor_diamondtriangles.svg	stimuli_distractor_diamondtriangles.svg	39	no	57	0	871
6.6.1	mac	2022-12-26	16:12:03	16:20:02	477473	6112fd23b0250798e11a9dba	865784281	1	main_z	11	main_z	59	stimuli_distractor_trianglediamonds.svg	stimuli_target_squaretriangles.svg	11	yes	44	1	530
6.6.1	mac	2022-12-26	16:12:03	16:20:02	477473	6112fd23b0250798e11a9dba	865784281	1	main_z	11	advance_on_keypress_ZEE	60	stimuli_distractor_trianglediamonds.svg	stimuli_target_squaretriangles.svg	11	yes	57	0	402
6.6.1	mac	2022-12-26	16:12:03	16:20:05	480499	6112fd23b0250798e11a9dba	865784281	1	main_z	11	main_z	61	stimuli_distractor_diamondtriangles.svg	stimuli_distractor_diamondtriangles.svg	40	no	0	1	2000
6.6.1	mac	2022-12-26	16:12:03	16:20:05	480499	6112fd23b0250798e11a9dba	865784281	1	main_z	11	advance_on_keypress_ZEE	62	stimuli_distractor_diamondtriangles.svg	stimuli_distractor_diamondtriangles.svg	40	no	57	0	829
6.6.1	mac	2022-12-26	16:12:03	16:20:06	482392	6112fd23b0250798e11a9dba	865784281	1	main_z	11	main_z	63	stimuli_target_squaretriangles.svg	stimuli_distractor_trianglediamonds.svg	3	yes	44	1	434
6.6.1	mac	2022-12-26	16:12:03	16:20:06	482392	6112fd23b0250798e11a9dba	865784281	1	main_z	11	advance_on_keypress_ZEE	64	stimuli_target_squaretriangles.svg	stimuli_distractor_trianglediamonds.svg	3	yes	57	0	454
6.6.1	mac	2022-12-26	16:12:03	16:20:08	484020	6112fd23b0250798e11a9dba	865784281	1	main_z	11	main_z	65	stimuli_target_diamondcircles.svg	stimuli_distractor_trianglediamonds.svg	19	yes	44	1	531
6.6.1	mac	2022-12-26	16:12:03	16:20:08	484020	6112fd23b0250798e11a9dba	865784281	1	main_z	11	advance_on_keypress_ZEE	66	stimuli_target_diamondcircles.svg	stimuli_distractor_trianglediamonds.svg	19	yes	57	0	494
6.6.1	mac	2022-12-26	16:12:03	16:20:10	485661	6112fd23b0250798e11a9dba	865784281	1	main_z	11	main_z	67	stimuli_target_trianglesquares.svg	stimuli_distractor_trianglediamonds.svg	18	yes	44	1	509
6.6.1	mac	2022-12-26	16:12:03	16:20:10	485661	6112fd23b0250798e11a9dba	865784281	1	main_z	11	advance_on_keypress_ZEE	68	stimuli_target_trianglesquares.svg	stimuli_distractor_trianglediamonds.svg	18	yes	57	0	1908
6.6.1	mac	2022-12-26	16:12:03	16:20:13	488671	6112fd23b0250798e11a9dba	865784281	1	main_z	11	main_z	69	stimuli_target_diamondsquares.svg	stimuli_distractor_trianglediamonds.svg	20	yes	44	1	469
6.6.1	mac	2022-12-26	16:12:03	16:20:13	488671	6112fd23b0250798e11a9dba	865784281	1	main_z	11	advance_on_keypress_ZEE	70	stimuli_target_diamondsquares.svg	stimuli_distractor_trianglediamonds.svg	20	yes	57	0	485
6.6.1	mac	2022-12-26	16:12:03	16:20:15	490487	6112fd23b0250798e11a9dba	865784281	1	main_z	11	main_z	71	stimuli_distractor_trianglediamonds.svg	stimuli_target_diamondsquares.svg	28	yes	44	1	701
6.6.1	mac	2022-12-26	16:12:03	16:20:15	490487	6112fd23b0250798e11a9dba	865784281	1	main_z	11	advance_on_keypress_ZEE	72	stimuli_distractor_trianglediamonds.svg	stimuli_target_diamondsquares.svg	28	yes	57	0	545
6.6.1	mac	2022-12-26	16:12:03	16:20:16	492178	6112fd23b0250798e11a9dba	865784281	1	main_z	11	main_z	73	stimuli_distractor_trianglediamonds.svg	stimuli_target_trianglesquares.svg	26	yes	44	1	526
6.6.1	mac	2022-12-26	16:12:03	16:20:16	492178	6112fd23b0250798e11a9dba	865784281	1	main_z	11	advance_on_keypress_ZEE	74	stimuli_distractor_trianglediamonds.svg	stimuli_target_trianglesquares.svg	26	yes	57	0	3625
6.6.1	mac	2022-12-26	16:12:03	16:20:21	496864	6112fd23b0250798e11a9dba	865784281	1	main_z	11	main_z	75	stimuli_target_circlediamonds.svg	stimuli_distractor_trianglediamonds.svg	2	yes	44	1	421
6.6.1	mac	2022-12-26	16:12:03	16:20:21	496864	6112fd23b0250798e11a9dba	865784281	1	main_z	11	advance_on_keypress_ZEE	76	stimuli_target_circlediamonds.svg	stimuli_distractor_trianglediamonds.svg	2	yes	57	0	324
6.6.1	mac	2022-12-26	16:12:03	16:20:23	498534	6112fd23b0250798e11a9dba	865784281	1	main_z	11	main_z	77	stimuli_target_circletriangles.svg	stimuli_distractor_diamondtriangles.svg	5	yes	44	1	701
6.6.1	mac	2022-12-26	16:12:03	16:20:23	498534	6112fd23b0250798e11a9dba	865784281	1	main_z	11	advance_on_keypress_ZEE	78	stimuli_target_circletriangles.svg	stimuli_distractor_diamondtriangles.svg	5	yes	57	0	321
6.6.1	mac	2022-12-26	16:12:03	16:20:26	501478	6112fd23b0250798e11a9dba	865784281	1	main_z	11	main_z	79	stimuli_distractor_trianglediamonds.svg	stimuli_distractor_diamondtriangles.svg	35	no	0	1	2000
6.6.1	mac	2022-12-26	16:12:03	16:20:26	501478	6112fd23b0250798e11a9dba	865784281	1	main_z	11	advance_on_keypress_ZEE	80	stimuli_distractor_trianglediamonds.svg	stimuli_distractor_diamondtriangles.svg	35	no	57	0	655
6.6.1	mac	2022-12-26	16:12:03	16:20:27	503236	6112fd23b0250798e11a9dba	865784281	1	main_z	11	main_z	81	stimuli_distractor_diamondtriangles.svg	stimuli_target_diamondsquares.svg	32	yes	44	1	467
6.6.1	mac	2022-12-26	16:12:03	16:20:27	503236	6112fd23b0250798e11a9dba	865784281	1	main_z	11	advance_on_keypress_ZEE	82	stimuli_distractor_diamondtriangles.svg	stimuli_target_diamondsquares.svg	32	yes	57	0	741
6.6.1	mac	2022-12-26	16:12:03	16:20:29	505157	6112fd23b0250798e11a9dba	865784281	1	main_z	11	main_z	83	stimuli_target_diamondsquares.svg	stimuli_distractor_trianglediamonds.svg	20	yes	44	1	550
6.6.1	mac	2022-12-26	16:12:03	16:20:29	505157	6112fd23b0250798e11a9dba	865784281	1	main_z	11	advance_on_keypress_ZEE	84	stimuli_target_diamondsquares.svg	stimuli_distractor_trianglediamonds.svg	20	yes	57	0	307
6.6.1	mac	2022-12-26	16:12:03	16:20:31	506475	6112fd23b0250798e11a9dba	865784281	1	main_z	11	main_z	85	stimuli_distractor_trianglediamonds.svg	stimuli_target_squarediamonds.svg	12	yes	44	1	373
6.6.1	mac	2022-12-26	16:12:03	16:20:31	506475	6112fd23b0250798e11a9dba	865784281	1	main_z	11	advance_on_keypress_ZEE	86	stimuli_distractor_trianglediamonds.svg	stimuli_target_squarediamonds.svg	12	yes	57	0	11268
6.6.1	mac	2022-12-26	16:12:03	16:20:43	518847	6112fd23b0250798e11a9dba	865784281	1	main_z	11	main_z	87	stimuli_target_trianglecircles.svg	stimuli_distractor_diamondtriangles.svg	21	yes	44	1	454
6.6.1	mac	2022-12-26	16:12:03	16:20:43	518847	6112fd23b0250798e11a9dba	865784281	1	main_z	11	advance_on_keypress_ZEE	88	stimuli_target_trianglecircles.svg	stimuli_distractor_diamondtriangles.svg	21	yes	57	0	502
6.6.1	mac	2022-12-26	16:12:03	16:20:45	520478	6112fd23b0250798e11a9dba	865784281	1	main_z	11	main_z	89	stimuli_distractor_diamondtriangles.svg	stimuli_target_squaretriangles.svg	15	yes	44	1	507
6.6.1	mac	2022-12-26	16:12:03	16:20:45	520478	6112fd23b0250798e11a9dba	865784281	1	main_z	11	advance_on_keypress_ZEE	90	stimuli_distractor_diamondtriangles.svg	stimuli_target_squaretriangles.svg	15	yes	57	0	431
6.6.1	mac	2022-12-26	16:12:03	16:20:46	522062	6112fd23b0250798e11a9dba	865784281	1	main_z	11	main_z	91	stimuli_distractor_diamondtriangles.svg	stimuli_target_squarediamonds.svg	16	yes	44	1	517
6.6.1	mac	2022-12-26	16:12:03	16:20:46	522062	6112fd23b0250798e11a9dba	865784281	1	main_z	11	advance_on_keypress_ZEE	92	stimuli_distractor_diamondtriangles.svg	stimuli_target_squarediamonds.svg	16	yes	57	0	436
6.6.1	mac	2022-12-26	16:12:03	16:20:48	523777	6112fd23b0250798e11a9dba	865784281	1	main_z	11	main_z	93	stimuli_distractor_trianglediamonds.svg	stimuli_target_diamondcircles.svg	27	yes	44	1	650
6.6.1	mac	2022-12-26	16:12:03	16:20:48	523777	6112fd23b0250798e11a9dba	865784281	1	main_z	11	advance_on_keypress_ZEE	94	stimuli_distractor_trianglediamonds.svg	stimuli_target_diamondcircles.svg	27	yes	57	0	323
6.6.1	mac	2022-12-26	16:12:03	16:20:50	525493	6112fd23b0250798e11a9dba	865784281	1	main_z	11	main_z	95	stimuli_target_squaretriangles.svg	stimuli_distractor_trianglediamonds.svg	3	yes	44	1	767
6.6.1	mac	2022-12-26	16:12:03	16:20:50	525493	6112fd23b0250798e11a9dba	865784281	1	main_z	11	advance_on_keypress_ZEE	96	stimuli_target_squaretriangles.svg	stimuli_distractor_trianglediamonds.svg	3	yes	57	0	354
6.6.1	mac	2022-12-26	16:12:03	16:20:51	526993	6112fd23b0250798e11a9dba	865784281	1	main_z	11	main_z	97	stimuli_target_squarediamonds.svg	stimuli_distractor_diamondtriangles.svg	8	yes	44	1	514
6.6.1	mac	2022-12-26	16:12:03	16:20:51	526993	6112fd23b0250798e11a9dba	865784281	1	main_z	11	advance_on_keypress_ZEE	98	stimuli_target_squarediamonds.svg	stimuli_distractor_diamondtriangles.svg	8	yes	57	0	320
6.6.1	mac	2022-12-26	16:12:03	16:20:52	528381	6112fd23b0250798e11a9dba	865784281	1	main_z	11	main_z	99	stimuli_distractor_trianglediamonds.svg	stimuli_target_circletriangles.svg	9	yes	44	1	435
6.6.1	mac	2022-12-26	16:12:03	16:20:52	528381	6112fd23b0250798e11a9dba	865784281	1	main_z	11	advance_on_keypress_ZEE	100	stimuli_distractor_trianglediamonds.svg	stimuli_target_circletriangles.svg	9	yes	57	0	341
6.6.1	mac	2022-12-26	16:12:03	16:20:55	531341	6112fd23b0250798e11a9dba	865784281	1	main_z	11	main_z	101	stimuli_distractor_trianglediamonds.svg	stimuli_distractor_trianglediamonds.svg	33	no	0	1	2000
6.6.1	mac	2022-12-26	16:12:03	16:20:55	531341	6112fd23b0250798e11a9dba	865784281	1	main_z	11	advance_on_keypress_ZEE	102	stimuli_distractor_trianglediamonds.svg	stimuli_distractor_trianglediamonds.svg	33	no	57	0	432
6.6.1	mac	2022-12-26	16:12:03	16:20:57	532856	6112fd23b0250798e11a9dba	865784281	1	main_z	11	main_z	103	stimuli_target_circlediamonds.svg	stimuli_distractor_trianglediamonds.svg	2	yes	44	1	446
6.6.1	mac	2022-12-26	16:12:03	16:20:57	532856	6112fd23b0250798e11a9dba	865784281	1	main_z	11	advance_on_keypress_ZEE	104	stimuli_target_circlediamonds.svg	stimuli_distractor_trianglediamonds.svg	2	yes	57	0	7001
6.6.1	mac	2022-12-26	16:12:03	16:21:07	542493	6112fd23b0250798e11a9dba	865784281	1	main_z	11	main_z	105	stimuli_distractor_diamondtriangles.svg	stimuli_distractor_trianglediamonds.svg	38	no	0	1	2000
6.6.1	mac	2022-12-26	16:12:03	16:21:07	542493	6112fd23b0250798e11a9dba	865784281	1	main_z	11	advance_on_keypress_ZEE	106	stimuli_distractor_diamondtriangles.svg	stimuli_distractor_trianglediamonds.svg	38	no	57	0	365
6.6.1	mac	2022-12-26	16:12:03	16:21:08	544005	6112fd23b0250798e11a9dba	865784281	1	main_z	11	main_z	107	stimuli_target_squaretriangles.svg	stimuli_distractor_diamondtriangles.svg	7	yes	44	1	511
6.6.1	mac	2022-12-26	16:12:03	16:21:08	544005	6112fd23b0250798e11a9dba	865784281	1	main_z	11	advance_on_keypress_ZEE	108	stimuli_target_squaretriangles.svg	stimuli_distractor_diamondtriangles.svg	7	yes	57	0	390
6.6.1	mac	2022-12-26	16:12:03	16:21:10	545458	6112fd23b0250798e11a9dba	865784281	1	main_z	11	main_z	109	stimuli_distractor_diamondtriangles.svg	stimuli_target_trianglesquares.svg	30	yes	44	1	433
6.6.1	mac	2022-12-26	16:12:03	16:21:10	545458	6112fd23b0250798e11a9dba	865784281	1	main_z	11	advance_on_keypress_ZEE	110	stimuli_distractor_diamondtriangles.svg	stimuli_target_trianglesquares.svg	30	yes	57	0	475
6.6.1	mac	2022-12-26	16:12:03	16:21:11	546985	6112fd23b0250798e11a9dba	865784281	1	main_z	11	main_z	111	stimuli_distractor_diamondtriangles.svg	stimuli_target_circletriangles.svg	13	yes	44	1	425
6.6.1	mac	2022-12-26	16:12:03	16:21:11	546985	6112fd23b0250798e11a9dba	865784281	1	main_z	11	advance_on_keypress_ZEE	112	stimuli_distractor_diamondtriangles.svg	stimuli_target_circletriangles.svg	13	yes	57	0	442
6.6.1	mac	2022-12-26	16:12:03	16:21:13	548468	6112fd23b0250798e11a9dba	865784281	1	main_z	11	main_z	113	stimuli_distractor_trianglediamonds.svg	stimuli_target_squaretriangles.svg	11	yes	44	1	414
6.6.1	mac	2022-12-26	16:12:03	16:21:13	548468	6112fd23b0250798e11a9dba	865784281	1	main_z	11	advance_on_keypress_ZEE	114	stimuli_distractor_trianglediamonds.svg	stimuli_target_squaretriangles.svg	11	yes	57	0	315
6.6.1	mac	2022-12-26	16:12:03	16:21:14	549835	6112fd23b0250798e11a9dba	865784281	1	main_z	11	main_z	115	stimuli_distractor_trianglediamonds.svg	stimuli_target_trianglecircles.svg	25	yes	44	1	421
6.6.1	mac	2022-12-26	16:12:03	16:21:14	549835	6112fd23b0250798e11a9dba	865784281	1	main_z	11	advance_on_keypress_ZEE	116	stimuli_distractor_trianglediamonds.svg	stimuli_target_trianglecircles.svg	25	yes	57	0	361
6.6.1	mac	2022-12-26	16:12:03	16:21:15	551295	6112fd23b0250798e11a9dba	865784281	1	main_z	11	main_z	117	stimuli_target_trianglecircles.svg	stimuli_distractor_trianglediamonds.svg	17	yes	44	1	468
6.6.1	mac	2022-12-26	16:12:03	16:21:15	551295	6112fd23b0250798e11a9dba	865784281	1	main_z	11	advance_on_keypress_ZEE	118	stimuli_target_trianglecircles.svg	stimuli_distractor_trianglediamonds.svg	17	yes	57	0	331
6.6.1	mac	2022-12-26	16:12:03	16:21:17	552761	6112fd23b0250798e11a9dba	865784281	1	main_z	11	main_z	119	stimuli_target_trianglesquares.svg	stimuli_distractor_diamondtriangles.svg	22	yes	44	1	504
6.6.1	mac	2022-12-26	16:12:03	16:21:17	552761	6112fd23b0250798e11a9dba	865784281	1	main_z	11	advance_on_keypress_ZEE	120	stimuli_target_trianglesquares.svg	stimuli_distractor_diamondtriangles.svg	22	yes	57	0	287
6.6.1	mac	2022-12-26	16:12:03	16:21:18	554161	6112fd23b0250798e11a9dba	865784281	1	main_z	11	main_z	121	stimuli_target_diamondsquares.svg	stimuli_distractor_diamondtriangles.svg	24	yes	44	1	472
6.6.1	mac	2022-12-26	16:12:03	16:21:18	554161	6112fd23b0250798e11a9dba	865784281	1	main_z	11	advance_on_keypress_ZEE	122	stimuli_target_diamondsquares.svg	stimuli_distractor_diamondtriangles.svg	24	yes	57	0	2560
6.6.1	mac	2022-12-26	16:12:03	16:21:22	557850	6112fd23b0250798e11a9dba	865784281	1	main_z	11	main_z	123	stimuli_distractor_trianglediamonds.svg	stimuli_distractor_diamondtriangles.svg	35	no	44	0	482
6.6.1	mac	2022-12-26	16:12:03	16:21:22	557850	6112fd23b0250798e11a9dba	865784281	1	main_z	11	advance_on_keypress_ZEE	124	stimuli_distractor_trianglediamonds.svg	stimuli_distractor_diamondtriangles.svg	35	no	57	0	932
6.6.1	mac	2022-12-26	16:12:03	16:21:24	559859	6112fd23b0250798e11a9dba	865784281	1	main_z	11	main_z	125	stimuli_target_circletriangles.svg	stimuli_distractor_trianglediamonds.svg	1	yes	44	1	445
6.6.1	mac	2022-12-26	16:12:03	16:21:24	559859	6112fd23b0250798e11a9dba	865784281	1	main_z	11	advance_on_keypress_ZEE	126	stimuli_target_circletriangles.svg	stimuli_distractor_trianglediamonds.svg	1	yes	57	0	533
6.6.1	mac	2022-12-26	16:12:03	16:21:26	561422	6112fd23b0250798e11a9dba	865784281	1	main_z	11	main_z	127	stimuli_target_squarediamonds.svg	stimuli_distractor_trianglediamonds.svg	4	yes	44	1	384
6.6.1	mac	2022-12-26	16:12:03	16:21:26	561422	6112fd23b0250798e11a9dba	865784281	1	main_z	11	advance_on_keypress_ZEE	128	stimuli_target_squarediamonds.svg	stimuli_distractor_trianglediamonds.svg	4	yes	57	0	370
6.6.1	mac	2022-12-26	16:12:03	16:21:29	564414	6112fd23b0250798e11a9dba	865784281	1	main_z	11	main_z	129	stimuli_distractor_trianglediamonds.svg	stimuli_distractor_trianglediamonds.svg	34	no	0	1	2000
6.6.1	mac	2022-12-26	16:12:03	16:21:29	564414	6112fd23b0250798e11a9dba	865784281	1	main_z	11	advance_on_keypress_ZEE	130	stimuli_distractor_trianglediamonds.svg	stimuli_distractor_trianglediamonds.svg	34	no	57	0	391
6.6.1	mac	2022-12-26	16:12:03	16:21:30	565903	6112fd23b0250798e11a9dba	865784281	1	main_z	11	main_z	131	stimuli_distractor_trianglediamonds.svg	stimuli_target_circlediamonds.svg	10	yes	44	1	470
6.6.1	mac	2022-12-26	16:12:03	16:21:30	565903	6112fd23b0250798e11a9dba	865784281	1	main_z	11	advance_on_keypress_ZEE	132	stimuli_distractor_trianglediamonds.svg	stimuli_target_circlediamonds.svg	10	yes	57	0	1096
6.6.1	mac	2022-12-26	16:12:03	16:21:32	568148	6112fd23b0250798e11a9dba	865784281	1	main_z	11	main_z	133	stimuli_target_diamondcircles.svg	stimuli_distractor_trianglediamonds.svg	19	yes	44	1	519
6.6.1	mac	2022-12-26	16:12:03	16:21:32	568148	6112fd23b0250798e11a9dba	865784281	1	main_z	11	advance_on_keypress_ZEE	134	stimuli_target_diamondcircles.svg	stimuli_distractor_trianglediamonds.svg	19	yes	57	0	770
6.6.1	mac	2022-12-26	16:12:03	16:21:34	569989	6112fd23b0250798e11a9dba	865784281	1	main_z	11	main_z	135	stimuli_target_trianglesquares.svg	stimuli_distractor_trianglediamonds.svg	18	yes	44	1	433
6.6.1	mac	2022-12-26	16:12:03	16:21:34	569989	6112fd23b0250798e11a9dba	865784281	1	main_z	11	advance_on_keypress_ZEE	136	stimuli_target_trianglesquares.svg	stimuli_distractor_trianglediamonds.svg	18	yes	57	0	667
6.6.1	mac	2022-12-26	16:12:03	16:21:36	571761	6112fd23b0250798e11a9dba	865784281	1	main_z	11	main_z	137	stimuli_distractor_diamondtriangles.svg	stimuli_target_diamondcircles.svg	31	yes	44	1	460
6.6.1	mac	2022-12-26	16:12:03	16:21:36	571761	6112fd23b0250798e11a9dba	865784281	1	main_z	11	advance_on_keypress_ZEE	138	stimuli_distractor_diamondtriangles.svg	stimuli_target_diamondcircles.svg	31	yes	57	0	669
6.6.1	mac	2022-12-26	16:12:03	16:21:38	573424	6112fd23b0250798e11a9dba	865784281	1	main_z	11	main_z	139	stimuli_target_diamondcircles.svg	stimuli_distractor_diamondtriangles.svg	23	yes	44	1	357
6.6.1	mac	2022-12-26	16:12:03	16:21:38	573424	6112fd23b0250798e11a9dba	865784281	1	main_z	11	advance_on_keypress_ZEE	140	stimuli_target_diamondcircles.svg	stimuli_distractor_diamondtriangles.svg	23	yes	57	0	612
6.6.1	mac	2022-12-26	16:12:03	16:21:41	576679	6112fd23b0250798e11a9dba	865784281	1	main_z	11	main_z	141	stimuli_distractor_diamondtriangles.svg	stimuli_distractor_diamondtriangles.svg	39	no	0	1	2000
6.6.1	mac	2022-12-26	16:12:03	16:21:41	576679	6112fd23b0250798e11a9dba	865784281	1	main_z	11	advance_on_keypress_ZEE	142	stimuli_distractor_diamondtriangles.svg	stimuli_distractor_diamondtriangles.svg	39	no	57	0	370
6.6.1	mac	2022-12-26	16:12:03	16:21:42	578178	6112fd23b0250798e11a9dba	865784281	1	main_z	11	main_z	143	stimuli_target_circletriangles.svg	stimuli_distractor_diamondtriangles.svg	5	yes	44	1	499
6.6.1	mac	2022-12-26	16:12:03	16:21:42	578178	6112fd23b0250798e11a9dba	865784281	1	main_z	11	advance_on_keypress_ZEE	144	stimuli_target_circletriangles.svg	stimuli_distractor_diamondtriangles.svg	5	yes	57	0	716
6.6.1	mac	2022-12-26	16:12:03	16:21:44	579968	6112fd23b0250798e11a9dba	865784281	1	main_z	11	main_z	145	stimuli_target_circlediamonds.svg	stimuli_distractor_diamondtriangles.svg	6	yes	44	1	433
6.6.1	mac	2022-12-26	16:12:03	16:21:44	579968	6112fd23b0250798e11a9dba	865784281	1	main_z	11	advance_on_keypress_ZEE	146	stimuli_target_circlediamonds.svg	stimuli_distractor_diamondtriangles.svg	6	yes	57	0	697
6.6.1	mac	2022-12-26	16:12:03	16:21:46	581867	6112fd23b0250798e11a9dba	865784281	1	main_z	11	main_z	147	stimuli_distractor_trianglediamonds.svg	stimuli_target_diamondsquares.svg	28	yes	44	1	551
6.6.1	mac	2022-12-26	16:12:03	16:21:46	581867	6112fd23b0250798e11a9dba	865784281	1	main_z	11	advance_on_keypress_ZEE	148	stimuli_distractor_trianglediamonds.svg	stimuli_target_diamondsquares.svg	28	yes	57	0	4963
6.6.1	mac	2022-12-26	16:12:03	16:21:52	588032	6112fd23b0250798e11a9dba	865784281	1	main_z	11	main_z	149	stimuli_distractor_diamondtriangles.svg	stimuli_distractor_trianglediamonds.svg	37	no	44	0	557
6.6.1	mac	2022-12-26	16:12:03	16:21:52	588032	6112fd23b0250798e11a9dba	865784281	1	main_z	11	advance_on_keypress_ZEE	150	stimuli_distractor_diamondtriangles.svg	stimuli_distractor_trianglediamonds.svg	37	no	57	0	1825
6.6.1	mac	2022-12-26	16:12:03	16:21:55	590941	6112fd23b0250798e11a9dba	865784281	1	main_z	11	main_z	151	stimuli_distractor_diamondtriangles.svg	stimuli_target_trianglecircles.svg	29	yes	44	1	440
6.6.1	mac	2022-12-26	16:12:03	16:21:55	590941	6112fd23b0250798e11a9dba	865784281	1	main_z	11	advance_on_keypress_ZEE	152	stimuli_distractor_diamondtriangles.svg	stimuli_target_trianglecircles.svg	29	yes	57	0	476
6.6.1	mac	2022-12-26	16:12:03	16:21:58	594045	6112fd23b0250798e11a9dba	865784281	1	main_z	11	main_z	153	stimuli_distractor_trianglediamonds.svg	stimuli_distractor_diamondtriangles.svg	36	no	0	1	2000
6.6.1	mac	2022-12-26	16:12:03	16:21:58	594045	6112fd23b0250798e11a9dba	865784281	1	main_z	11	advance_on_keypress_ZEE	154	stimuli_distractor_trianglediamonds.svg	stimuli_distractor_diamondtriangles.svg	36	no	57	0	3651
6.6.1	mac	2022-12-26	16:12:03	16:22:03	598923	6112fd23b0250798e11a9dba	865784281	1	main_z	11	main_z	155	stimuli_distractor_trianglediamonds.svg	stimuli_target_trianglesquares.svg	26	yes	44	1	596
6.6.1	mac	2022-12-26	16:12:03	16:22:03	598923	6112fd23b0250798e11a9dba	865784281	1	main_z	11	advance_on_keypress_ZEE	156	stimuli_distractor_trianglediamonds.svg	stimuli_target_trianglesquares.svg	26	yes	57	0	634
6.6.1	mac	2022-12-26	16:12:03	16:22:06	602189	6112fd23b0250798e11a9dba	865784281	1	main_z	11	main_z	157	stimuli_distractor_diamondtriangles.svg	stimuli_distractor_diamondtriangles.svg	40	no	0	1	2000
6.6.1	mac	2022-12-26	16:12:03	16:22:06	602189	6112fd23b0250798e11a9dba	865784281	1	main_z	11	advance_on_keypress_ZEE	158	stimuli_distractor_diamondtriangles.svg	stimuli_distractor_diamondtriangles.svg	40	no	57	0	2118
6.6.1	mac	2022-12-26	16:12:03	16:22:10	605829	6112fd23b0250798e11a9dba	865784281	1	main_z	11	main_z	159	stimuli_distractor_diamondtriangles.svg	stimuli_target_circlediamonds.svg	14	yes	44	1	898
6.6.1	mac	2022-12-26	16:12:03	16:22:10	605829	6112fd23b0250798e11a9dba	865784281	1	main_z	11	advance_on_keypress_ZEE	160	stimuli_distractor_diamondtriangles.svg	stimuli_target_circlediamonds.svg	14	yes	57	0	650