build	computer.platform	date	time	timestamp	time_elapsed_ms	subject	group	session	blockcode	blocknum	trialcode	trialnum	stimulus_left	stimulus_right	stim_index	target_present	response	correct	latency
6.6.1	mac	2022-12-30	19:52:26	19:54:19	111562	5ffef0a1255d0c5fd3bdfd6a	451231504	1	practice_z	5	practice_z	1	stimuli_distractor_diamondtriangles.svg	stimuli_target_diamondcircles.svg	8	yes	0	0	2000
6.6.1	mac	2022-12-30	19:52:26	19:54:19	111562	5ffef0a1255d0c5fd3bdfd6a	451231504	1	practice_z	5	advance_on_keypress_ZEE	2	stimuli_distractor_diamondtriangles.svg	stimuli_target_diamondcircles.svg	8	yes	57	0	1908
6.6.1	mac	2022-12-30	19:52:26	19:54:23	115974	5ffef0a1255d0c5fd3bdfd6a	451231504	1	practice_z	5	practice_z	3	stimuli_target_circlediamonds.svg	stimuli_distractor_trianglediamonds.svg	4	yes	44	1	874
6.6.1	mac	2022-12-30	19:52:26	19:54:23	115974	5ffef0a1255d0c5fd3bdfd6a	451231504	1	practice_z	5	advance_on_keypress_ZEE	4	stimuli_target_circlediamonds.svg	stimuli_distractor_trianglediamonds.svg	4	yes	57	0	2470
6.6.1	mac	2022-12-30	19:52:26	19:54:29	122072	5ffef0a1255d0c5fd3bdfd6a	451231504	1	practice_z	5	practice_z	5	stimuli_distractor_diamondtriangles.svg	stimuli_distractor_trianglediamonds.svg	14	no	0	1	2000
6.6.1	mac	2022-12-30	19:52:26	19:54:29	122072	5ffef0a1255d0c5fd3bdfd6a	451231504	1	practice_z	5	advance_on_keypress_ZEE	6	stimuli_distractor_diamondtriangles.svg	stimuli_distractor_trianglediamonds.svg	14	no	57	0	838
6.6.1	mac	2022-12-30	19:52:26	19:54:33	125454	5ffef0a1255d0c5fd3bdfd6a	451231504	1	practice_z	5	practice_z	7	stimuli_target_squarediamonds.svg	stimuli_distractor_trianglediamonds.svg	5	yes	44	1	911
6.6.1	mac	2022-12-30	19:52:26	19:54:33	125454	5ffef0a1255d0c5fd3bdfd6a	451231504	1	practice_z	5	advance_on_keypress_ZEE	8	stimuli_target_squarediamonds.svg	stimuli_distractor_trianglediamonds.svg	5	yes	57	0	1076
6.6.1	mac	2022-12-30	19:52:26	19:54:37	130164	5ffef0a1255d0c5fd3bdfd6a	451231504	1	practice_z	5	practice_z	9	stimuli_distractor_diamondtriangles.svg	stimuli_distractor_diamondtriangles.svg	13	no	0	1	2000
6.6.1	mac	2022-12-30	19:52:26	19:54:37	130164	5ffef0a1255d0c5fd3bdfd6a	451231504	1	practice_z	5	advance_on_keypress_ZEE	10	stimuli_distractor_diamondtriangles.svg	stimuli_distractor_diamondtriangles.svg	13	no	57	0	696
6.6.1	mac	2022-12-30	19:52:26	19:54:41	134134	5ffef0a1255d0c5fd3bdfd6a	451231504	1	practice_z	5	practice_z	11	stimuli_distractor_trianglediamonds.svg	stimuli_target_diamondcircles.svg	12	yes	44	1	1651
6.6.1	mac	2022-12-30	19:52:26	19:54:41	134134	5ffef0a1255d0c5fd3bdfd6a	451231504	1	practice_z	5	advance_on_keypress_ZEE	12	stimuli_distractor_trianglediamonds.svg	stimuli_target_diamondcircles.svg	12	yes	57	0	991
6.6.1	mac	2022-12-30	19:52:26	19:54:46	138756	5ffef0a1255d0c5fd3bdfd6a	451231504	1	practice_z	5	practice_z	13	stimuli_target_diamondsquares.svg	stimuli_distractor_diamondtriangles.svg	3	yes	0	0	2000
6.6.1	mac	2022-12-30	19:52:26	19:54:46	138756	5ffef0a1255d0c5fd3bdfd6a	451231504	1	practice_z	5	advance_on_keypress_ZEE	14	stimuli_target_diamondsquares.svg	stimuli_distractor_diamondtriangles.svg	3	yes	57	0	588
6.6.1	mac	2022-12-30	19:52:26	19:54:50	142976	5ffef0a1255d0c5fd3bdfd6a	451231504	1	practice_z	5	practice_z	15	stimuli_distractor_trianglediamonds.svg	stimuli_distractor_trianglediamonds.svg	15	no	0	1	2000
6.6.1	mac	2022-12-30	19:52:26	19:54:50	142976	5ffef0a1255d0c5fd3bdfd6a	451231504	1	practice_z	5	advance_on_keypress_ZEE	16	stimuli_distractor_trianglediamonds.svg	stimuli_distractor_trianglediamonds.svg	15	no	57	0	836
6.6.1	mac	2022-12-30	19:52:26	19:54:55	147448	5ffef0a1255d0c5fd3bdfd6a	451231504	1	practice_z	5	practice_z	17	stimuli_target_diamondsquares.svg	stimuli_distractor_trianglediamonds.svg	6	yes	0	0	2000
6.6.1	mac	2022-12-30	19:52:26	19:54:55	147448	5ffef0a1255d0c5fd3bdfd6a	451231504	1	practice_z	5	advance_on_keypress_ZEE	18	stimuli_target_diamondsquares.svg	stimuli_distractor_trianglediamonds.svg	6	yes	57	0	502
6.6.1	mac	2022-12-30	19:52:26	19:54:58	150429	5ffef0a1255d0c5fd3bdfd6a	451231504	1	practice_z	5	practice_z	19	stimuli_target_squarediamonds.svg	stimuli_distractor_diamondtriangles.svg	2	yes	44	1	846
6.6.1	mac	2022-12-30	19:52:26	19:54:58	150429	5ffef0a1255d0c5fd3bdfd6a	451231504	1	practice_z	5	advance_on_keypress_ZEE	20	stimuli_target_squarediamonds.svg	stimuli_distractor_diamondtriangles.svg	2	yes	57	0	501
6.6.1	mac	2022-12-30	19:52:26	19:55:01	153670	5ffef0a1255d0c5fd3bdfd6a	451231504	1	practice_z	5	practice_z	21	stimuli_distractor_diamondtriangles.svg	stimuli_target_trianglecircles.svg	9	yes	44	1	1116
6.6.1	mac	2022-12-30	19:52:26	19:55:01	153670	5ffef0a1255d0c5fd3bdfd6a	451231504	1	practice_z	5	advance_on_keypress_ZEE	22	stimuli_distractor_diamondtriangles.svg	stimuli_target_trianglecircles.svg	9	yes	57	0	835
6.6.1	mac	2022-12-30	19:52:26	19:55:04	157216	5ffef0a1255d0c5fd3bdfd6a	451231504	1	practice_z	5	practice_z	23	stimuli_target_circlediamonds.svg	stimuli_distractor_diamondtriangles.svg	1	yes	44	1	1075
6.6.1	mac	2022-12-30	19:52:26	19:55:04	157216	5ffef0a1255d0c5fd3bdfd6a	451231504	1	practice_z	5	advance_on_keypress_ZEE	24	stimuli_target_circlediamonds.svg	stimuli_distractor_diamondtriangles.svg	1	yes	57	0	607
6.6.1	mac	2022-12-30	19:52:26	19:55:07	160223	5ffef0a1255d0c5fd3bdfd6a	451231504	1	practice_z	5	practice_z	25	stimuli_distractor_trianglediamonds.svg	stimuli_target_circlediamonds.svg	10	yes	44	1	780
6.6.1	mac	2022-12-30	19:52:26	19:55:07	160223	5ffef0a1255d0c5fd3bdfd6a	451231504	1	practice_z	5	advance_on_keypress_ZEE	26	stimuli_distractor_trianglediamonds.svg	stimuli_target_circlediamonds.svg	10	yes	57	0	1550
6.6.1	mac	2022-12-30	19:52:26	19:55:11	164074	5ffef0a1255d0c5fd3bdfd6a	451231504	1	practice_z	5	practice_z	27	stimuli_distractor_diamondtriangles.svg	stimuli_target_circletriangles.svg	7	yes	44	1	677
6.6.1	mac	2022-12-30	19:52:26	19:55:11	164074	5ffef0a1255d0c5fd3bdfd6a	451231504	1	practice_z	5	advance_on_keypress_ZEE	28	stimuli_distractor_diamondtriangles.svg	stimuli_target_circletriangles.svg	7	yes	57	0	405
6.6.1	mac	2022-12-30	19:52:26	19:55:14	166963	5ffef0a1255d0c5fd3bdfd6a	451231504	1	practice_z	5	practice_z	29	stimuli_distractor_trianglediamonds.svg	stimuli_target_squarediamonds.svg	11	yes	44	1	862
6.6.1	mac	2022-12-30	19:52:26	19:55:14	166963	5ffef0a1255d0c5fd3bdfd6a	451231504	1	practice_z	5	advance_on_keypress_ZEE	30	stimuli_distractor_trianglediamonds.svg	stimuli_target_squarediamonds.svg	11	yes	57	0	557
6.6.1	mac	2022-12-30	19:52:26	19:55:18	171154	5ffef0a1255d0c5fd3bdfd6a	451231504	1	practice_z	5	practice_z	31	stimuli_distractor_trianglediamonds.svg	stimuli_distractor_diamondtriangles.svg	16	no	0	1	2000
6.6.1	mac	2022-12-30	19:52:26	19:55:18	171154	5ffef0a1255d0c5fd3bdfd6a	451231504	1	practice_z	5	advance_on_keypress_ZEE	32	stimuli_distractor_trianglediamonds.svg	stimuli_distractor_diamondtriangles.svg	16	no	57	0	1025
6.6.1	mac	2022-12-30	19:52:26	19:55:29	182385	5ffef0a1255d0c5fd3bdfd6a	451231504	1	main_z	7	main_z	1	stimuli_distractor_trianglediamonds.svg	stimuli_target_squaretriangles.svg	11	yes	44	1	536
6.6.1	mac	2022-12-30	19:52:26	19:55:29	182385	5ffef0a1255d0c5fd3bdfd6a	451231504	1	main_z	7	advance_on_keypress_ZEE	2	stimuli_distractor_trianglediamonds.svg	stimuli_target_squaretriangles.svg	11	yes	57	0	2250
6.6.1	mac	2022-12-30	19:52:26	19:55:34	187271	5ffef0a1255d0c5fd3bdfd6a	451231504	1	main_z	7	main_z	3	stimuli_target_trianglesquares.svg	stimuli_distractor_diamondtriangles.svg	22	yes	0	0	2000
6.6.1	mac	2022-12-30	19:52:26	19:55:34	187271	5ffef0a1255d0c5fd3bdfd6a	451231504	1	main_z	7	advance_on_keypress_ZEE	4	stimuli_target_trianglesquares.svg	stimuli_distractor_diamondtriangles.svg	22	yes	57	0	1429
6.6.1	mac	2022-12-30	19:52:26	19:55:37	190059	5ffef0a1255d0c5fd3bdfd6a	451231504	1	main_z	7	main_z	5	stimuli_distractor_diamondtriangles.svg	stimuli_target_trianglecircles.svg	29	yes	44	1	735
6.6.1	mac	2022-12-30	19:52:26	19:55:37	190059	5ffef0a1255d0c5fd3bdfd6a	451231504	1	main_z	7	advance_on_keypress_ZEE	6	stimuli_distractor_diamondtriangles.svg	stimuli_target_trianglecircles.svg	29	yes	57	0	2191
6.6.1	mac	2022-12-30	19:52:26	19:55:42	194879	5ffef0a1255d0c5fd3bdfd6a	451231504	1	main_z	7	main_z	7	stimuli_distractor_diamondtriangles.svg	stimuli_distractor_diamondtriangles.svg	39	no	0	1	2000
6.6.1	mac	2022-12-30	19:52:26	19:55:42	194879	5ffef0a1255d0c5fd3bdfd6a	451231504	1	main_z	7	advance_on_keypress_ZEE	8	stimuli_distractor_diamondtriangles.svg	stimuli_distractor_diamondtriangles.svg	39	no	57	0	1029
6.6.1	mac	2022-12-30	19:52:26	19:55:45	197670	5ffef0a1255d0c5fd3bdfd6a	451231504	1	main_z	7	main_z	9	stimuli_distractor_trianglediamonds.svg	stimuli_target_trianglecircles.svg	25	yes	44	1	1139
6.6.1	mac	2022-12-30	19:52:26	19:55:45	197670	5ffef0a1255d0c5fd3bdfd6a	451231504	1	main_z	7	advance_on_keypress_ZEE	10	stimuli_distractor_trianglediamonds.svg	stimuli_target_trianglecircles.svg	25	yes	57	0	1259
6.6.1	mac	2022-12-30	19:52:26	19:55:47	200312	5ffef0a1255d0c5fd3bdfd6a	451231504	1	main_z	7	main_z	11	stimuli_target_circlediamonds.svg	stimuli_distractor_diamondtriangles.svg	6	yes	44	1	761
6.6.1	mac	2022-12-30	19:52:26	19:55:47	200312	5ffef0a1255d0c5fd3bdfd6a	451231504	1	main_z	7	advance_on_keypress_ZEE	12	stimuli_target_circlediamonds.svg	stimuli_distractor_diamondtriangles.svg	6	yes	57	0	691
6.6.1	mac	2022-12-30	19:52:26	19:55:50	202439	5ffef0a1255d0c5fd3bdfd6a	451231504	1	main_z	7	main_z	13	stimuli_target_circlediamonds.svg	stimuli_distractor_trianglediamonds.svg	2	yes	44	1	819
6.6.1	mac	2022-12-30	19:52:26	19:55:50	202439	5ffef0a1255d0c5fd3bdfd6a	451231504	1	main_z	7	advance_on_keypress_ZEE	14	stimuli_target_circlediamonds.svg	stimuli_distractor_trianglediamonds.svg	2	yes	57	0	441
6.6.1	mac	2022-12-30	19:52:26	19:55:52	205201	5ffef0a1255d0c5fd3bdfd6a	451231504	1	main_z	7	main_z	15	stimuli_distractor_trianglediamonds.svg	stimuli_target_squarediamonds.svg	12	yes	44	1	1695
6.6.1	mac	2022-12-30	19:52:26	19:55:52	205201	5ffef0a1255d0c5fd3bdfd6a	451231504	1	main_z	7	advance_on_keypress_ZEE	16	stimuli_distractor_trianglediamonds.svg	stimuli_target_squarediamonds.svg	12	yes	57	0	640
6.6.1	mac	2022-12-30	19:52:26	19:55:55	207688	5ffef0a1255d0c5fd3bdfd6a	451231504	1	main_z	7	main_z	17	stimuli_distractor_trianglediamonds.svg	stimuli_distractor_trianglediamonds.svg	33	no	44	0	1230
6.6.1	mac	2022-12-30	19:52:26	19:55:55	207688	5ffef0a1255d0c5fd3bdfd6a	451231504	1	main_z	7	advance_on_keypress_ZEE	18	stimuli_distractor_trianglediamonds.svg	stimuli_distractor_trianglediamonds.svg	33	no	57	0	599
6.6.1	mac	2022-12-30	19:52:26	19:55:57	209966	5ffef0a1255d0c5fd3bdfd6a	451231504	1	main_z	7	main_z	19	stimuli_distractor_diamondtriangles.svg	stimuli_target_squarediamonds.svg	16	yes	44	1	1056
6.6.1	mac	2022-12-30	19:52:26	19:55:57	209966	5ffef0a1255d0c5fd3bdfd6a	451231504	1	main_z	7	advance_on_keypress_ZEE	20	stimuli_distractor_diamondtriangles.svg	stimuli_target_squarediamonds.svg	16	yes	57	0	611
6.6.1	mac	2022-12-30	19:52:26	19:56:00	212572	5ffef0a1255d0c5fd3bdfd6a	451231504	1	main_z	7	main_z	21	stimuli_distractor_diamondtriangles.svg	stimuli_target_diamondsquares.svg	32	yes	44	1	1376
6.6.1	mac	2022-12-30	19:52:26	19:56:00	212572	5ffef0a1255d0c5fd3bdfd6a	451231504	1	main_z	7	advance_on_keypress_ZEE	22	stimuli_distractor_diamondtriangles.svg	stimuli_target_diamondsquares.svg	32	yes	57	0	547
6.6.1	mac	2022-12-30	19:52:26	19:56:03	215732	5ffef0a1255d0c5fd3bdfd6a	451231504	1	main_z	7	main_z	23	stimuli_distractor_diamondtriangles.svg	stimuli_distractor_trianglediamonds.svg	37	no	0	1	2000
6.6.1	mac	2022-12-30	19:52:26	19:56:03	215732	5ffef0a1255d0c5fd3bdfd6a	451231504	1	main_z	7	advance_on_keypress_ZEE	24	stimuli_distractor_diamondtriangles.svg	stimuli_distractor_trianglediamonds.svg	37	no	57	0	610
6.6.1	mac	2022-12-30	19:52:26	19:56:05	218359	5ffef0a1255d0c5fd3bdfd6a	451231504	1	main_z	7	main_z	25	stimuli_distractor_diamondtriangles.svg	stimuli_target_trianglesquares.svg	30	yes	44	1	1390
6.6.1	mac	2022-12-30	19:52:26	19:56:05	218359	5ffef0a1255d0c5fd3bdfd6a	451231504	1	main_z	7	advance_on_keypress_ZEE	26	stimuli_distractor_diamondtriangles.svg	stimuli_target_trianglesquares.svg	30	yes	57	0	945
6.6.1	mac	2022-12-30	19:52:26	19:56:09	221922	5ffef0a1255d0c5fd3bdfd6a	451231504	1	main_z	7	main_z	27	stimuli_distractor_trianglediamonds.svg	stimuli_distractor_diamondtriangles.svg	35	no	0	1	2000
6.6.1	mac	2022-12-30	19:52:26	19:56:09	221922	5ffef0a1255d0c5fd3bdfd6a	451231504	1	main_z	7	advance_on_keypress_ZEE	28	stimuli_distractor_trianglediamonds.svg	stimuli_distractor_diamondtriangles.svg	35	no	57	0	668
6.6.1	mac	2022-12-30	19:52:26	19:56:11	223961	5ffef0a1255d0c5fd3bdfd6a	451231504	1	main_z	7	main_z	29	stimuli_target_squaretriangles.svg	stimuli_distractor_trianglediamonds.svg	3	yes	44	1	736
6.6.1	mac	2022-12-30	19:52:26	19:56:11	223961	5ffef0a1255d0c5fd3bdfd6a	451231504	1	main_z	7	advance_on_keypress_ZEE	30	stimuli_target_squaretriangles.svg	stimuli_distractor_trianglediamonds.svg	3	yes	57	0	970
6.6.1	mac	2022-12-30	19:52:26	19:56:15	227560	5ffef0a1255d0c5fd3bdfd6a	451231504	1	main_z	7	main_z	31	stimuli_target_diamondsquares.svg	stimuli_distractor_diamondtriangles.svg	24	yes	0	0	2000
6.6.1	mac	2022-12-30	19:52:26	19:56:15	227560	5ffef0a1255d0c5fd3bdfd6a	451231504	1	main_z	7	advance_on_keypress_ZEE	32	stimuli_target_diamondsquares.svg	stimuli_distractor_diamondtriangles.svg	24	yes	57	0	694
6.6.1	mac	2022-12-30	19:52:26	19:56:17	229883	5ffef0a1255d0c5fd3bdfd6a	451231504	1	main_z	7	main_z	33	stimuli_distractor_trianglediamonds.svg	stimuli_target_diamondcircles.svg	27	yes	44	1	1003
6.6.1	mac	2022-12-30	19:52:26	19:56:17	229883	5ffef0a1255d0c5fd3bdfd6a	451231504	1	main_z	7	advance_on_keypress_ZEE	34	stimuli_distractor_trianglediamonds.svg	stimuli_target_diamondcircles.svg	27	yes	57	0	864
6.6.1	mac	2022-12-30	19:52:26	19:56:20	233366	5ffef0a1255d0c5fd3bdfd6a	451231504	1	main_z	7	main_z	35	stimuli_distractor_diamondtriangles.svg	stimuli_distractor_trianglediamonds.svg	38	no	0	1	2000
6.6.1	mac	2022-12-30	19:52:26	19:56:20	233366	5ffef0a1255d0c5fd3bdfd6a	451231504	1	main_z	7	advance_on_keypress_ZEE	36	stimuli_distractor_diamondtriangles.svg	stimuli_distractor_trianglediamonds.svg	38	no	57	0	510
6.6.1	mac	2022-12-30	19:52:26	19:56:23	235571	5ffef0a1255d0c5fd3bdfd6a	451231504	1	main_z	7	main_z	37	stimuli_target_diamondcircles.svg	stimuli_distractor_diamondtriangles.svg	23	yes	44	1	1069
6.6.1	mac	2022-12-30	19:52:26	19:56:23	235571	5ffef0a1255d0c5fd3bdfd6a	451231504	1	main_z	7	advance_on_keypress_ZEE	38	stimuli_target_diamondcircles.svg	stimuli_distractor_diamondtriangles.svg	23	yes	57	0	803
6.6.1	mac	2022-12-30	19:52:26	19:56:26	238637	5ffef0a1255d0c5fd3bdfd6a	451231504	1	main_z	7	main_z	39	stimuli_target_diamondcircles.svg	stimuli_distractor_trianglediamonds.svg	19	yes	44	1	1632
6.6.1	mac	2022-12-30	19:52:26	19:56:26	238637	5ffef0a1255d0c5fd3bdfd6a	451231504	1	main_z	7	advance_on_keypress_ZEE	40	stimuli_target_diamondcircles.svg	stimuli_distractor_trianglediamonds.svg	19	yes	57	0	724
6.6.1	mac	2022-12-30	19:52:26	19:56:28	240955	5ffef0a1255d0c5fd3bdfd6a	451231504	1	main_z	7	main_z	41	stimuli_distractor_diamondtriangles.svg	stimuli_target_squaretriangles.svg	15	yes	44	1	964
6.6.1	mac	2022-12-30	19:52:26	19:56:28	240955	5ffef0a1255d0c5fd3bdfd6a	451231504	1	main_z	7	advance_on_keypress_ZEE	42	stimuli_distractor_diamondtriangles.svg	stimuli_target_squaretriangles.svg	15	yes	57	0	588
6.6.1	mac	2022-12-30	19:52:26	19:56:30	243107	5ffef0a1255d0c5fd3bdfd6a	451231504	1	main_z	7	main_z	43	stimuli_distractor_diamondtriangles.svg	stimuli_target_circlediamonds.svg	14	yes	44	1	947
6.6.1	mac	2022-12-30	19:52:26	19:56:30	243107	5ffef0a1255d0c5fd3bdfd6a	451231504	1	main_z	7	advance_on_keypress_ZEE	44	stimuli_distractor_diamondtriangles.svg	stimuli_target_circlediamonds.svg	14	yes	57	0	1042
6.6.1	mac	2022-12-30	19:52:26	19:56:33	245671	5ffef0a1255d0c5fd3bdfd6a	451231504	1	main_z	7	main_z	45	stimuli_distractor_trianglediamonds.svg	stimuli_target_circletriangles.svg	9	yes	44	1	908
6.6.1	mac	2022-12-30	19:52:26	19:56:33	245671	5ffef0a1255d0c5fd3bdfd6a	451231504	1	main_z	7	advance_on_keypress_ZEE	46	stimuli_distractor_trianglediamonds.svg	stimuli_target_circletriangles.svg	9	yes	57	0	605
6.6.1	mac	2022-12-30	19:52:26	19:56:36	248899	5ffef0a1255d0c5fd3bdfd6a	451231504	1	main_z	7	main_z	47	stimuli_target_trianglesquares.svg	stimuli_distractor_trianglediamonds.svg	18	yes	0	0	2000
6.6.1	mac	2022-12-30	19:52:26	19:56:36	248899	5ffef0a1255d0c5fd3bdfd6a	451231504	1	main_z	7	advance_on_keypress_ZEE	48	stimuli_target_trianglesquares.svg	stimuli_distractor_trianglediamonds.svg	18	yes	57	0	639
6.6.1	mac	2022-12-30	19:52:26	19:56:39	252169	5ffef0a1255d0c5fd3bdfd6a	451231504	1	main_z	7	main_z	49	stimuli_distractor_trianglediamonds.svg	stimuli_distractor_diamondtriangles.svg	36	no	0	1	2000
6.6.1	mac	2022-12-30	19:52:26	19:56:39	252169	5ffef0a1255d0c5fd3bdfd6a	451231504	1	main_z	7	advance_on_keypress_ZEE	50	stimuli_distractor_trianglediamonds.svg	stimuli_distractor_diamondtriangles.svg	36	no	57	0	306
6.6.1	mac	2022-12-30	19:52:26	19:56:41	253892	5ffef0a1255d0c5fd3bdfd6a	451231504	1	main_z	7	main_z	51	stimuli_distractor_trianglediamonds.svg	stimuli_target_circlediamonds.svg	10	yes	44	1	788
6.6.1	mac	2022-12-30	19:52:26	19:56:41	253892	5ffef0a1255d0c5fd3bdfd6a	451231504	1	main_z	7	advance_on_keypress_ZEE	52	stimuli_distractor_trianglediamonds.svg	stimuli_target_circlediamonds.svg	10	yes	57	0	666
6.6.1	mac	2022-12-30	19:52:26	19:56:43	256353	5ffef0a1255d0c5fd3bdfd6a	451231504	1	main_z	7	main_z	53	stimuli_target_trianglecircles.svg	stimuli_distractor_diamondtriangles.svg	21	yes	44	1	1163
6.6.1	mac	2022-12-30	19:52:26	19:56:43	256353	5ffef0a1255d0c5fd3bdfd6a	451231504	1	main_z	7	advance_on_keypress_ZEE	54	stimuli_target_trianglecircles.svg	stimuli_distractor_diamondtriangles.svg	21	yes	57	0	705
6.6.1	mac	2022-12-30	19:52:26	19:56:45	258413	5ffef0a1255d0c5fd3bdfd6a	451231504	1	main_z	7	main_z	55	stimuli_target_squarediamonds.svg	stimuli_distractor_trianglediamonds.svg	4	yes	44	1	737
6.6.1	mac	2022-12-30	19:52:26	19:56:45	258413	5ffef0a1255d0c5fd3bdfd6a	451231504	1	main_z	7	advance_on_keypress_ZEE	56	stimuli_target_squarediamonds.svg	stimuli_distractor_trianglediamonds.svg	4	yes	57	0	383
6.6.1	mac	2022-12-30	19:52:26	19:56:49	261445	5ffef0a1255d0c5fd3bdfd6a	451231504	1	main_z	7	main_z	57	stimuli_distractor_trianglediamonds.svg	stimuli_distractor_trianglediamonds.svg	34	no	0	1	2000
6.6.1	mac	2022-12-30	19:52:26	19:56:49	261445	5ffef0a1255d0c5fd3bdfd6a	451231504	1	main_z	7	advance_on_keypress_ZEE	58	stimuli_distractor_trianglediamonds.svg	stimuli_distractor_trianglediamonds.svg	34	no	57	0	656
6.6.1	mac	2022-12-30	19:52:26	19:56:51	263577	5ffef0a1255d0c5fd3bdfd6a	451231504	1	main_z	7	main_z	59	stimuli_distractor_trianglediamonds.svg	stimuli_target_trianglesquares.svg	26	yes	44	1	846
6.6.1	mac	2022-12-30	19:52:26	19:56:51	263577	5ffef0a1255d0c5fd3bdfd6a	451231504	1	main_z	7	advance_on_keypress_ZEE	60	stimuli_distractor_trianglediamonds.svg	stimuli_target_trianglesquares.svg	26	yes	57	0	511
6.6.1	mac	2022-12-30	19:52:26	19:56:53	265726	5ffef0a1255d0c5fd3bdfd6a	451231504	1	main_z	7	main_z	61	stimuli_distractor_trianglediamonds.svg	stimuli_target_diamondsquares.svg	28	yes	44	1	1025
6.6.1	mac	2022-12-30	19:52:26	19:56:53	265726	5ffef0a1255d0c5fd3bdfd6a	451231504	1	main_z	7	advance_on_keypress_ZEE	62	stimuli_distractor_trianglediamonds.svg	stimuli_target_diamondsquares.svg	28	yes	57	0	473
6.6.1	mac	2022-12-30	19:52:26	19:56:55	267909	5ffef0a1255d0c5fd3bdfd6a	451231504	1	main_z	7	main_z	63	stimuli_target_trianglecircles.svg	stimuli_distractor_trianglediamonds.svg	17	yes	44	1	1091
6.6.1	mac	2022-12-30	19:52:26	19:56:55	267909	5ffef0a1255d0c5fd3bdfd6a	451231504	1	main_z	7	advance_on_keypress_ZEE	64	stimuli_target_trianglecircles.svg	stimuli_distractor_trianglediamonds.svg	17	yes	57	0	465
6.6.1	mac	2022-12-30	19:52:26	19:56:57	270106	5ffef0a1255d0c5fd3bdfd6a	451231504	1	main_z	7	main_z	65	stimuli_target_circletriangles.svg	stimuli_distractor_diamondtriangles.svg	5	yes	44	1	1102
6.6.1	mac	2022-12-30	19:52:26	19:56:57	270106	5ffef0a1255d0c5fd3bdfd6a	451231504	1	main_z	7	advance_on_keypress_ZEE	66	stimuli_target_circletriangles.svg	stimuli_distractor_diamondtriangles.svg	5	yes	57	0	479
6.6.1	mac	2022-12-30	19:52:26	19:56:59	272121	5ffef0a1255d0c5fd3bdfd6a	451231504	1	main_z	7	main_z	67	stimuli_distractor_diamondtriangles.svg	stimuli_target_circletriangles.svg	13	yes	44	1	915
6.6.1	mac	2022-12-30	19:52:26	19:56:59	272121	5ffef0a1255d0c5fd3bdfd6a	451231504	1	main_z	7	advance_on_keypress_ZEE	68	stimuli_distractor_diamondtriangles.svg	stimuli_target_circletriangles.svg	13	yes	57	0	412
6.6.1	mac	2022-12-30	19:52:26	19:57:01	273880	5ffef0a1255d0c5fd3bdfd6a	451231504	1	main_z	7	main_z	69	stimuli_target_squarediamonds.svg	stimuli_distractor_diamondtriangles.svg	8	yes	44	1	722
6.6.1	mac	2022-12-30	19:52:26	19:57:01	273880	5ffef0a1255d0c5fd3bdfd6a	451231504	1	main_z	7	advance_on_keypress_ZEE	70	stimuli_target_squarediamonds.svg	stimuli_distractor_diamondtriangles.svg	8	yes	57	0	370
6.6.1	mac	2022-12-30	19:52:26	19:57:03	275748	5ffef0a1255d0c5fd3bdfd6a	451231504	1	main_z	7	main_z	71	stimuli_target_circletriangles.svg	stimuli_distractor_trianglediamonds.svg	1	yes	44	1	872
6.6.1	mac	2022-12-30	19:52:26	19:57:03	275748	5ffef0a1255d0c5fd3bdfd6a	451231504	1	main_z	7	advance_on_keypress_ZEE	72	stimuli_target_circletriangles.svg	stimuli_distractor_trianglediamonds.svg	1	yes	57	0	358
6.6.1	mac	2022-12-30	19:52:26	19:57:06	278729	5ffef0a1255d0c5fd3bdfd6a	451231504	1	main_z	7	main_z	73	stimuli_distractor_diamondtriangles.svg	stimuli_distractor_diamondtriangles.svg	40	no	0	1	2000
6.6.1	mac	2022-12-30	19:52:26	19:57:06	278729	5ffef0a1255d0c5fd3bdfd6a	451231504	1	main_z	7	advance_on_keypress_ZEE	74	stimuli_distractor_diamondtriangles.svg	stimuli_distractor_diamondtriangles.svg	40	no	57	0	6490
6.6.1	mac	2022-12-30	19:52:26	19:57:15	287855	5ffef0a1255d0c5fd3bdfd6a	451231504	1	main_z	7	main_z	75	stimuli_target_diamondsquares.svg	stimuli_distractor_trianglediamonds.svg	20	yes	0	0	2000
6.6.1	mac	2022-12-30	19:52:26	19:57:15	287855	5ffef0a1255d0c5fd3bdfd6a	451231504	1	main_z	7	advance_on_keypress_ZEE	76	stimuli_target_diamondsquares.svg	stimuli_distractor_trianglediamonds.svg	20	yes	57	0	689
6.6.1	mac	2022-12-30	19:52:26	19:57:17	290194	5ffef0a1255d0c5fd3bdfd6a	451231504	1	main_z	7	main_z	77	stimuli_distractor_diamondtriangles.svg	stimuli_target_diamondcircles.svg	31	yes	44	1	1020
6.6.1	mac	2022-12-30	19:52:26	19:57:17	290194	5ffef0a1255d0c5fd3bdfd6a	451231504	1	main_z	7	advance_on_keypress_ZEE	78	stimuli_distractor_diamondtriangles.svg	stimuli_target_diamondcircles.svg	31	yes	57	0	1467
6.6.1	mac	2022-12-30	19:52:26	19:57:21	293680	5ffef0a1255d0c5fd3bdfd6a	451231504	1	main_z	7	main_z	79	stimuli_target_squaretriangles.svg	stimuli_distractor_diamondtriangles.svg	7	yes	44	1	1387
6.6.1	mac	2022-12-30	19:52:26	19:57:21	293680	5ffef0a1255d0c5fd3bdfd6a	451231504	1	main_z	7	advance_on_keypress_ZEE	80	stimuli_target_squaretriangles.svg	stimuli_distractor_diamondtriangles.svg	7	yes	57	0	838
6.6.1	mac	2022-12-30	19:52:26	19:57:23	295891	5ffef0a1255d0c5fd3bdfd6a	451231504	1	main_z	7	main_z	81	stimuli_distractor_diamondtriangles.svg	stimuli_target_circletriangles.svg	13	yes	44	1	745
6.6.1	mac	2022-12-30	19:52:26	19:57:23	295891	5ffef0a1255d0c5fd3bdfd6a	451231504	1	main_z	7	advance_on_keypress_ZEE	82	stimuli_distractor_diamondtriangles.svg	stimuli_target_circletriangles.svg	13	yes	57	0	383
6.6.1	mac	2022-12-30	19:52:26	19:57:25	297918	5ffef0a1255d0c5fd3bdfd6a	451231504	1	main_z	7	main_z	83	stimuli_distractor_diamondtriangles.svg	stimuli_target_circlediamonds.svg	14	yes	44	1	1020
6.6.1	mac	2022-12-30	19:52:26	19:57:25	297918	5ffef0a1255d0c5fd3bdfd6a	451231504	1	main_z	7	advance_on_keypress_ZEE	84	stimuli_distractor_diamondtriangles.svg	stimuli_target_circlediamonds.svg	14	yes	57	0	384
6.6.1	mac	2022-12-30	19:52:26	19:57:27	299790	5ffef0a1255d0c5fd3bdfd6a	451231504	1	main_z	7	main_z	85	stimuli_target_circlediamonds.svg	stimuli_distractor_diamondtriangles.svg	6	yes	44	1	857
6.6.1	mac	2022-12-30	19:52:26	19:57:27	299790	5ffef0a1255d0c5fd3bdfd6a	451231504	1	main_z	7	advance_on_keypress_ZEE	86	stimuli_target_circlediamonds.svg	stimuli_distractor_diamondtriangles.svg	6	yes	57	0	438
6.6.1	mac	2022-12-30	19:52:26	19:57:29	301824	5ffef0a1255d0c5fd3bdfd6a	451231504	1	main_z	7	main_z	87	stimuli_target_trianglecircles.svg	stimuli_distractor_diamondtriangles.svg	21	yes	44	1	972
6.6.1	mac	2022-12-30	19:52:26	19:57:29	301824	5ffef0a1255d0c5fd3bdfd6a	451231504	1	main_z	7	advance_on_keypress_ZEE	88	stimuli_target_trianglecircles.svg	stimuli_distractor_diamondtriangles.svg	21	yes	57	0	289
6.6.1	mac	2022-12-30	19:52:26	19:57:31	303957	5ffef0a1255d0c5fd3bdfd6a	451231504	1	main_z	7	main_z	89	stimuli_distractor_diamondtriangles.svg	stimuli_target_trianglecircles.svg	29	yes	44	1	1220
6.6.1	mac	2022-12-30	19:52:26	19:57:31	303957	5ffef0a1255d0c5fd3bdfd6a	451231504	1	main_z	7	advance_on_keypress_ZEE	90	stimuli_distractor_diamondtriangles.svg	stimuli_target_trianglecircles.svg	29	yes	57	0	281
6.6.1	mac	2022-12-30	19:52:26	19:57:33	305849	5ffef0a1255d0c5fd3bdfd6a	451231504	1	main_z	7	main_z	91	stimuli_distractor_diamondtriangles.svg	stimuli_target_diamondsquares.svg	32	yes	44	1	993
6.6.1	mac	2022-12-30	19:52:26	19:57:33	305849	5ffef0a1255d0c5fd3bdfd6a	451231504	1	main_z	7	advance_on_keypress_ZEE	92	stimuli_distractor_diamondtriangles.svg	stimuli_target_diamondsquares.svg	32	yes	57	0	255
6.6.1	mac	2022-12-30	19:52:26	19:57:36	308725	5ffef0a1255d0c5fd3bdfd6a	451231504	1	main_z	7	main_z	93	stimuli_distractor_diamondtriangles.svg	stimuli_distractor_trianglediamonds.svg	37	no	0	1	2000
6.6.1	mac	2022-12-30	19:52:26	19:57:36	308725	5ffef0a1255d0c5fd3bdfd6a	451231504	1	main_z	7	advance_on_keypress_ZEE	94	stimuli_distractor_diamondtriangles.svg	stimuli_distractor_trianglediamonds.svg	37	no	57	0	466
6.6.1	mac	2022-12-30	19:52:26	19:57:39	311828	5ffef0a1255d0c5fd3bdfd6a	451231504	1	main_z	7	main_z	95	stimuli_target_trianglesquares.svg	stimuli_distractor_trianglediamonds.svg	18	yes	0	0	2000
6.6.1	mac	2022-12-30	19:52:26	19:57:39	311828	5ffef0a1255d0c5fd3bdfd6a	451231504	1	main_z	7	advance_on_keypress_ZEE	96	stimuli_target_trianglesquares.svg	stimuli_distractor_trianglediamonds.svg	18	yes	57	0	849
6.6.1	mac	2022-12-30	19:52:26	19:57:41	314206	5ffef0a1255d0c5fd3bdfd6a	451231504	1	main_z	7	main_z	97	stimuli_distractor_diamondtriangles.svg	stimuli_target_diamondcircles.svg	31	yes	44	1	891
6.6.1	mac	2022-12-30	19:52:26	19:57:41	314206	5ffef0a1255d0c5fd3bdfd6a	451231504	1	main_z	7	advance_on_keypress_ZEE	98	stimuli_distractor_diamondtriangles.svg	stimuli_target_diamondcircles.svg	31	yes	57	0	446
6.6.1	mac	2022-12-30	19:52:26	19:57:44	317267	5ffef0a1255d0c5fd3bdfd6a	451231504	1	main_z	7	main_z	99	stimuli_distractor_trianglediamonds.svg	stimuli_distractor_trianglediamonds.svg	33	no	0	1	2000
6.6.1	mac	2022-12-30	19:52:26	19:57:44	317267	5ffef0a1255d0c5fd3bdfd6a	451231504	1	main_z	7	advance_on_keypress_ZEE	100	stimuli_distractor_trianglediamonds.svg	stimuli_distractor_trianglediamonds.svg	33	no	57	0	1198
6.6.1	mac	2022-12-30	19:52:26	19:57:47	319807	5ffef0a1255d0c5fd3bdfd6a	451231504	1	main_z	7	main_z	101	stimuli_distractor_trianglediamonds.svg	stimuli_target_circlediamonds.svg	10	yes	44	1	703
6.6.1	mac	2022-12-30	19:52:26	19:57:47	319807	5ffef0a1255d0c5fd3bdfd6a	451231504	1	main_z	7	advance_on_keypress_ZEE	102	stimuli_distractor_trianglediamonds.svg	stimuli_target_circlediamonds.svg	10	yes	57	0	742
6.6.1	mac	2022-12-30	19:52:26	19:57:50	322487	5ffef0a1255d0c5fd3bdfd6a	451231504	1	main_z	7	main_z	103	stimuli_target_diamondcircles.svg	stimuli_distractor_diamondtriangles.svg	23	yes	44	1	1315
6.6.1	mac	2022-12-30	19:52:26	19:57:50	322487	5ffef0a1255d0c5fd3bdfd6a	451231504	1	main_z	7	advance_on_keypress_ZEE	104	stimuli_target_diamondcircles.svg	stimuli_distractor_diamondtriangles.svg	23	yes	57	0	520
6.6.1	mac	2022-12-30	19:52:26	19:57:52	324918	5ffef0a1255d0c5fd3bdfd6a	451231504	1	main_z	7	main_z	105	stimuli_distractor_diamondtriangles.svg	stimuli_target_squaretriangles.svg	15	yes	44	1	1293
6.6.1	mac	2022-12-30	19:52:26	19:57:52	324918	5ffef0a1255d0c5fd3bdfd6a	451231504	1	main_z	7	advance_on_keypress_ZEE	106	stimuli_distractor_diamondtriangles.svg	stimuli_target_squaretriangles.svg	15	yes	57	0	518
6.6.1	mac	2022-12-30	19:52:26	19:57:55	328061	5ffef0a1255d0c5fd3bdfd6a	451231504	1	main_z	7	main_z	107	stimuli_distractor_trianglediamonds.svg	stimuli_distractor_trianglediamonds.svg	34	no	0	1	2000
6.6.1	mac	2022-12-30	19:52:26	19:57:55	328061	5ffef0a1255d0c5fd3bdfd6a	451231504	1	main_z	7	advance_on_keypress_ZEE	108	stimuli_distractor_trianglediamonds.svg	stimuli_distractor_trianglediamonds.svg	34	no	57	0	535
6.6.1	mac	2022-12-30	19:52:26	19:57:58	331232	5ffef0a1255d0c5fd3bdfd6a	451231504	1	main_z	7	main_z	109	stimuli_distractor_diamondtriangles.svg	stimuli_distractor_diamondtriangles.svg	39	no	0	1	2000
6.6.1	mac	2022-12-30	19:52:26	19:57:58	331232	5ffef0a1255d0c5fd3bdfd6a	451231504	1	main_z	7	advance_on_keypress_ZEE	110	stimuli_distractor_diamondtriangles.svg	stimuli_distractor_diamondtriangles.svg	39	no	57	0	343
6.6.1	mac	2022-12-30	19:52:26	19:58:00	332864	5ffef0a1255d0c5fd3bdfd6a	451231504	1	main_z	7	main_z	111	stimuli_distractor_diamondtriangles.svg	stimuli_target_trianglesquares.svg	30	yes	44	1	664
6.6.1	mac	2022-12-30	19:52:26	19:58:00	332864	5ffef0a1255d0c5fd3bdfd6a	451231504	1	main_z	7	advance_on_keypress_ZEE	112	stimuli_distractor_diamondtriangles.svg	stimuli_target_trianglesquares.svg	30	yes	57	0	662
6.6.1	mac	2022-12-30	19:52:26	19:58:02	335100	5ffef0a1255d0c5fd3bdfd6a	451231504	1	main_z	7	main_z	113	stimuli_target_diamondcircles.svg	stimuli_distractor_trianglediamonds.svg	19	yes	44	1	948
6.6.1	mac	2022-12-30	19:52:26	19:58:02	335100	5ffef0a1255d0c5fd3bdfd6a	451231504	1	main_z	7	advance_on_keypress_ZEE	114	stimuli_target_diamondcircles.svg	stimuli_distractor_trianglediamonds.svg	19	yes	57	0	504
6.6.1	mac	2022-12-30	19:52:26	19:58:05	337932	5ffef0a1255d0c5fd3bdfd6a	451231504	1	main_z	7	main_z	115	stimuli_target_circletriangles.svg	stimuli_distractor_diamondtriangles.svg	5	yes	44	1	1693
6.6.1	mac	2022-12-30	19:52:26	19:58:05	337932	5ffef0a1255d0c5fd3bdfd6a	451231504	1	main_z	7	advance_on_keypress_ZEE	116	stimuli_target_circletriangles.svg	stimuli_distractor_diamondtriangles.svg	5	yes	57	0	765
6.6.1	mac	2022-12-30	19:52:26	19:58:07	340268	5ffef0a1255d0c5fd3bdfd6a	451231504	1	main_z	7	main_z	117	stimuli_distractor_trianglediamonds.svg	stimuli_target_trianglecircles.svg	25	yes	44	1	944
6.6.1	mac	2022-12-30	19:52:26	19:58:07	340268	5ffef0a1255d0c5fd3bdfd6a	451231504	1	main_z	7	advance_on_keypress_ZEE	118	stimuli_distractor_trianglediamonds.svg	stimuli_target_trianglecircles.svg	25	yes	57	0	288
6.6.1	mac	2022-12-30	19:52:26	19:58:09	342359	5ffef0a1255d0c5fd3bdfd6a	451231504	1	main_z	7	main_z	119	stimuli_target_trianglesquares.svg	stimuli_distractor_diamondtriangles.svg	22	yes	44	1	1183
6.6.1	mac	2022-12-30	19:52:26	19:58:09	342359	5ffef0a1255d0c5fd3bdfd6a	451231504	1	main_z	7	advance_on_keypress_ZEE	120	stimuli_target_trianglesquares.svg	stimuli_distractor_diamondtriangles.svg	22	yes	57	0	187
6.6.1	mac	2022-12-30	19:52:26	19:58:11	344347	5ffef0a1255d0c5fd3bdfd6a	451231504	1	main_z	7	main_z	121	stimuli_target_squarediamonds.svg	stimuli_distractor_diamondtriangles.svg	8	yes	44	1	1169
6.6.1	mac	2022-12-30	19:52:26	19:58:11	344347	5ffef0a1255d0c5fd3bdfd6a	451231504	1	main_z	7	advance_on_keypress_ZEE	122	stimuli_target_squarediamonds.svg	stimuli_distractor_diamondtriangles.svg	8	yes	57	0	219
6.6.1	mac	2022-12-30	19:52:26	19:58:13	346002	5ffef0a1255d0c5fd3bdfd6a	451231504	1	main_z	7	main_z	123	stimuli_distractor_trianglediamonds.svg	stimuli_target_squarediamonds.svg	12	yes	44	1	805
6.6.1	mac	2022-12-30	19:52:26	19:58:13	346002	5ffef0a1255d0c5fd3bdfd6a	451231504	1	main_z	7	advance_on_keypress_ZEE	124	stimuli_distractor_trianglediamonds.svg	stimuli_target_squarediamonds.svg	12	yes	57	0	299
6.6.1	mac	2022-12-30	19:52:26	19:58:16	348933	5ffef0a1255d0c5fd3bdfd6a	451231504	1	main_z	7	main_z	125	stimuli_distractor_trianglediamonds.svg	stimuli_target_diamondsquares.svg	28	yes	0	0	2000
6.6.1	mac	2022-12-30	19:52:26	19:58:16	348933	5ffef0a1255d0c5fd3bdfd6a	451231504	1	main_z	7	advance_on_keypress_ZEE	126	stimuli_distractor_trianglediamonds.svg	stimuli_target_diamondsquares.svg	28	yes	57	0	904
6.6.1	mac	2022-12-30	19:52:26	19:58:19	351757	5ffef0a1255d0c5fd3bdfd6a	451231504	1	main_z	7	main_z	127	stimuli_target_squaretriangles.svg	stimuli_distractor_trianglediamonds.svg	3	yes	44	1	1289
6.6.1	mac	2022-12-30	19:52:26	19:58:19	351757	5ffef0a1255d0c5fd3bdfd6a	451231504	1	main_z	7	advance_on_keypress_ZEE	128	stimuli_target_squaretriangles.svg	stimuli_distractor_trianglediamonds.svg	3	yes	57	0	280
6.6.1	mac	2022-12-30	19:52:26	19:58:21	354050	5ffef0a1255d0c5fd3bdfd6a	451231504	1	main_z	7	main_z	129	stimuli_target_trianglecircles.svg	stimuli_distractor_trianglediamonds.svg	17	yes	44	1	1396
6.6.1	mac	2022-12-30	19:52:26	19:58:21	354050	5ffef0a1255d0c5fd3bdfd6a	451231504	1	main_z	7	advance_on_keypress_ZEE	130	stimuli_target_trianglecircles.svg	stimuli_distractor_trianglediamonds.svg	17	yes	57	0	252
6.6.1	mac	2022-12-30	19:52:26	19:58:24	356924	5ffef0a1255d0c5fd3bdfd6a	451231504	1	main_z	7	main_z	131	stimuli_distractor_diamondtriangles.svg	stimuli_distractor_diamondtriangles.svg	40	no	0	1	2000
6.6.1	mac	2022-12-30	19:52:26	19:58:24	356924	5ffef0a1255d0c5fd3bdfd6a	451231504	1	main_z	7	advance_on_keypress_ZEE	132	stimuli_distractor_diamondtriangles.svg	stimuli_distractor_diamondtriangles.svg	40	no	57	0	348
6.6.1	mac	2022-12-30	19:52:26	19:58:26	358796	5ffef0a1255d0c5fd3bdfd6a	451231504	1	main_z	7	main_z	133	stimuli_distractor_diamondtriangles.svg	stimuli_target_squarediamonds.svg	16	yes	44	1	887
6.6.1	mac	2022-12-30	19:52:26	19:58:26	358796	5ffef0a1255d0c5fd3bdfd6a	451231504	1	main_z	7	advance_on_keypress_ZEE	134	stimuli_distractor_diamondtriangles.svg	stimuli_target_squarediamonds.svg	16	yes	57	0	469
6.6.1	mac	2022-12-30	19:52:26	19:58:28	360585	5ffef0a1255d0c5fd3bdfd6a	451231504	1	main_z	7	main_z	135	stimuli_distractor_trianglediamonds.svg	stimuli_target_squaretriangles.svg	11	yes	44	1	691
6.6.1	mac	2022-12-30	19:52:26	19:58:28	360585	5ffef0a1255d0c5fd3bdfd6a	451231504	1	main_z	7	advance_on_keypress_ZEE	136	stimuli_distractor_trianglediamonds.svg	stimuli_target_squaretriangles.svg	11	yes	57	0	5359
6.6.1	mac	2022-12-30	19:52:26	19:58:34	367151	5ffef0a1255d0c5fd3bdfd6a	451231504	1	main_z	7	main_z	137	stimuli_target_circlediamonds.svg	stimuli_distractor_trianglediamonds.svg	2	yes	44	1	584
6.6.1	mac	2022-12-30	19:52:26	19:58:34	367151	5ffef0a1255d0c5fd3bdfd6a	451231504	1	main_z	7	advance_on_keypress_ZEE	138	stimuli_target_circlediamonds.svg	stimuli_distractor_trianglediamonds.svg	2	yes	57	0	611
6.6.1	mac	2022-12-30	19:52:26	19:58:37	370387	5ffef0a1255d0c5fd3bdfd6a	451231504	1	main_z	7	main_z	139	stimuli_distractor_trianglediamonds.svg	stimuli_distractor_diamondtriangles.svg	35	no	0	1	2000
6.6.1	mac	2022-12-30	19:52:26	19:58:37	370387	5ffef0a1255d0c5fd3bdfd6a	451231504	1	main_z	7	advance_on_keypress_ZEE	140	stimuli_distractor_trianglediamonds.svg	stimuli_distractor_diamondtriangles.svg	35	no	57	0	506
6.6.1	mac	2022-12-30	19:52:26	19:58:41	373523	5ffef0a1255d0c5fd3bdfd6a	451231504	1	main_z	7	main_z	141	stimuli_distractor_trianglediamonds.svg	stimuli_distractor_diamondtriangles.svg	36	no	0	1	2000
6.6.1	mac	2022-12-30	19:52:26	19:58:41	373523	5ffef0a1255d0c5fd3bdfd6a	451231504	1	main_z	7	advance_on_keypress_ZEE	142	stimuli_distractor_trianglediamonds.svg	stimuli_distractor_diamondtriangles.svg	36	no	57	0	928
6.6.1	mac	2022-12-30	19:52:26	19:58:43	375842	5ffef0a1255d0c5fd3bdfd6a	451231504	1	main_z	7	main_z	143	stimuli_distractor_trianglediamonds.svg	stimuli_target_diamondcircles.svg	27	yes	44	1	765
6.6.1	mac	2022-12-30	19:52:26	19:58:43	375842	5ffef0a1255d0c5fd3bdfd6a	451231504	1	main_z	7	advance_on_keypress_ZEE	144	stimuli_distractor_trianglediamonds.svg	stimuli_target_diamondcircles.svg	27	yes	57	0	750
6.6.1	mac	2022-12-30	19:52:26	19:58:45	377860	5ffef0a1255d0c5fd3bdfd6a	451231504	1	main_z	7	main_z	145	stimuli_distractor_trianglediamonds.svg	stimuli_target_circletriangles.svg	9	yes	44	1	632
6.6.1	mac	2022-12-30	19:52:26	19:58:45	377860	5ffef0a1255d0c5fd3bdfd6a	451231504	1	main_z	7	advance_on_keypress_ZEE	146	stimuli_distractor_trianglediamonds.svg	stimuli_target_circletriangles.svg	9	yes	57	0	350
6.6.1	mac	2022-12-30	19:52:26	19:58:47	379647	5ffef0a1255d0c5fd3bdfd6a	451231504	1	main_z	7	main_z	147	stimuli_target_squarediamonds.svg	stimuli_distractor_trianglediamonds.svg	4	yes	44	1	801
6.6.1	mac	2022-12-30	19:52:26	19:58:47	379647	5ffef0a1255d0c5fd3bdfd6a	451231504	1	main_z	7	advance_on_keypress_ZEE	148	stimuli_target_squarediamonds.svg	stimuli_distractor_trianglediamonds.svg	4	yes	57	0	267
6.6.1	mac	2022-12-30	19:52:26	19:58:50	382550	5ffef0a1255d0c5fd3bdfd6a	451231504	1	main_z	7	main_z	149	stimuli_distractor_diamondtriangles.svg	stimuli_distractor_trianglediamonds.svg	38	no	0	1	2000
6.6.1	mac	2022-12-30	19:52:26	19:58:50	382550	5ffef0a1255d0c5fd3bdfd6a	451231504	1	main_z	7	advance_on_keypress_ZEE	150	stimuli_distractor_diamondtriangles.svg	stimuli_distractor_trianglediamonds.svg	38	no	57	0	435
6.6.1	mac	2022-12-30	19:52:26	19:58:51	384251	5ffef0a1255d0c5fd3bdfd6a	451231504	1	main_z	7	main_z	151	stimuli_target_squaretriangles.svg	stimuli_distractor_diamondtriangles.svg	7	yes	44	1	633
6.6.1	mac	2022-12-30	19:52:26	19:58:51	384251	5ffef0a1255d0c5fd3bdfd6a	451231504	1	main_z	7	advance_on_keypress_ZEE	152	stimuli_target_squaretriangles.svg	stimuli_distractor_diamondtriangles.svg	7	yes	57	0	336
6.6.1	mac	2022-12-30	19:52:26	19:58:53	385787	5ffef0a1255d0c5fd3bdfd6a	451231504	1	main_z	7	main_z	153	stimuli_target_circletriangles.svg	stimuli_distractor_trianglediamonds.svg	1	yes	44	1	567
6.6.1	mac	2022-12-30	19:52:26	19:58:53	385787	5ffef0a1255d0c5fd3bdfd6a	451231504	1	main_z	7	advance_on_keypress_ZEE	154	stimuli_target_circletriangles.svg	stimuli_distractor_trianglediamonds.svg	1	yes	57	0	214
6.6.1	mac	2022-12-30	19:52:26	19:58:55	387473	5ffef0a1255d0c5fd3bdfd6a	451231504	1	main_z	7	main_z	155	stimuli_distractor_trianglediamonds.svg	stimuli_target_trianglesquares.svg	26	yes	44	1	852
6.6.1	mac	2022-12-30	19:52:26	19:58:55	387473	5ffef0a1255d0c5fd3bdfd6a	451231504	1	main_z	7	advance_on_keypress_ZEE	156	stimuli_distractor_trianglediamonds.svg	stimuli_target_trianglesquares.svg	26	yes	57	0	233
6.6.1	mac	2022-12-30	19:52:26	19:58:56	389068	5ffef0a1255d0c5fd3bdfd6a	451231504	1	main_z	7	main_z	157	stimuli_target_diamondsquares.svg	stimuli_distractor_diamondtriangles.svg	24	yes	44	1	729
6.6.1	mac	2022-12-30	19:52:26	19:58:56	389068	5ffef0a1255d0c5fd3bdfd6a	451231504	1	main_z	7	advance_on_keypress_ZEE	158	stimuli_target_diamondsquares.svg	stimuli_distractor_diamondtriangles.svg	24	yes	57	0	269
6.6.1	mac	2022-12-30	19:52:26	19:58:58	390572	5ffef0a1255d0c5fd3bdfd6a	451231504	1	main_z	7	main_z	159	stimuli_target_diamondsquares.svg	stimuli_distractor_trianglediamonds.svg	20	yes	44	1	614
6.6.1	mac	2022-12-30	19:52:26	19:58:58	390572	5ffef0a1255d0c5fd3bdfd6a	451231504	1	main_z	7	advance_on_keypress_ZEE	160	stimuli_target_diamondsquares.svg	stimuli_distractor_trianglediamonds.svg	20	yes	57	0	277
6.6.1	mac	2022-12-30	19:52:26	19:59:17	409682	5ffef0a1255d0c5fd3bdfd6a	451231504	1	practice_slash	9	practice_slash	1	stimuli_distractor_trianglediamonds.svg	stimuli_target_diamondcircles.svg	12	yes	53	1	1456
6.6.1	mac	2022-12-30	19:52:26	19:59:17	409682	5ffef0a1255d0c5fd3bdfd6a	451231504	1	practice_slash	9	advance_on_keypress_SLASH	2	stimuli_distractor_trianglediamonds.svg	stimuli_target_diamondcircles.svg	12	yes	57	0	903
6.6.1	mac	2022-12-30	19:52:26	19:59:20	413054	5ffef0a1255d0c5fd3bdfd6a	451231504	1	practice_slash	9	practice_slash	3	stimuli_distractor_trianglediamonds.svg	stimuli_target_squarediamonds.svg	11	yes	53	1	842
6.6.1	mac	2022-12-30	19:52:26	19:59:20	413054	5ffef0a1255d0c5fd3bdfd6a	451231504	1	practice_slash	9	advance_on_keypress_SLASH	4	stimuli_distractor_trianglediamonds.svg	stimuli_target_squarediamonds.svg	11	yes	57	0	445
6.6.1	mac	2022-12-30	19:52:26	19:59:24	417118	5ffef0a1255d0c5fd3bdfd6a	451231504	1	practice_slash	9	practice_slash	5	stimuli_distractor_trianglediamonds.svg	stimuli_distractor_trianglediamonds.svg	15	no	0	1	2000
6.6.1	mac	2022-12-30	19:52:26	19:59:24	417118	5ffef0a1255d0c5fd3bdfd6a	451231504	1	practice_slash	9	advance_on_keypress_SLASH	6	stimuli_distractor_trianglediamonds.svg	stimuli_distractor_trianglediamonds.svg	15	no	57	0	677
6.6.1	mac	2022-12-30	19:52:26	19:59:27	420260	5ffef0a1255d0c5fd3bdfd6a	451231504	1	practice_slash	9	practice_slash	7	stimuli_distractor_diamondtriangles.svg	stimuli_target_circletriangles.svg	7	yes	53	1	840
6.6.1	mac	2022-12-30	19:52:26	19:59:27	420260	5ffef0a1255d0c5fd3bdfd6a	451231504	1	practice_slash	9	advance_on_keypress_SLASH	8	stimuli_distractor_diamondtriangles.svg	stimuli_target_circletriangles.svg	7	yes	57	0	571
6.6.1	mac	2022-12-30	19:52:26	19:59:30	423044	5ffef0a1255d0c5fd3bdfd6a	451231504	1	practice_slash	9	practice_slash	9	stimuli_distractor_diamondtriangles.svg	stimuli_target_trianglecircles.svg	9	yes	53	1	588
6.6.1	mac	2022-12-30	19:52:26	19:59:30	423044	5ffef0a1255d0c5fd3bdfd6a	451231504	1	practice_slash	9	advance_on_keypress_SLASH	10	stimuli_distractor_diamondtriangles.svg	stimuli_target_trianglecircles.svg	9	yes	57	0	454
6.6.1	mac	2022-12-30	19:52:26	19:59:34	426530	5ffef0a1255d0c5fd3bdfd6a	451231504	1	practice_slash	9	practice_slash	11	stimuli_target_diamondsquares.svg	stimuli_distractor_diamondtriangles.svg	3	yes	53	1	1404
6.6.1	mac	2022-12-30	19:52:26	19:59:34	426530	5ffef0a1255d0c5fd3bdfd6a	451231504	1	practice_slash	9	advance_on_keypress_SLASH	12	stimuli_target_diamondsquares.svg	stimuli_distractor_diamondtriangles.svg	3	yes	57	0	103
6.6.1	mac	2022-12-30	19:52:26	19:59:37	430263	5ffef0a1255d0c5fd3bdfd6a	451231504	1	practice_slash	9	practice_slash	13	stimuli_distractor_trianglediamonds.svg	stimuli_distractor_diamondtriangles.svg	16	no	0	1	2000
6.6.1	mac	2022-12-30	19:52:26	19:59:37	430263	5ffef0a1255d0c5fd3bdfd6a	451231504	1	practice_slash	9	advance_on_keypress_SLASH	14	stimuli_distractor_trianglediamonds.svg	stimuli_distractor_diamondtriangles.svg	16	no	57	0	810
6.6.1	mac	2022-12-30	19:52:26	19:59:42	434701	5ffef0a1255d0c5fd3bdfd6a	451231504	1	practice_slash	9	practice_slash	15	stimuli_distractor_diamondtriangles.svg	stimuli_distractor_trianglediamonds.svg	14	no	0	1	2000
6.6.1	mac	2022-12-30	19:52:26	19:59:42	434701	5ffef0a1255d0c5fd3bdfd6a	451231504	1	practice_slash	9	advance_on_keypress_SLASH	16	stimuli_distractor_diamondtriangles.svg	stimuli_distractor_trianglediamonds.svg	14	no	57	0	638
6.6.1	mac	2022-12-30	19:52:26	19:59:45	437814	5ffef0a1255d0c5fd3bdfd6a	451231504	1	practice_slash	9	practice_slash	17	stimuli_distractor_trianglediamonds.svg	stimuli_target_circlediamonds.svg	10	yes	53	1	844
6.6.1	mac	2022-12-30	19:52:26	19:59:45	437814	5ffef0a1255d0c5fd3bdfd6a	451231504	1	practice_slash	9	advance_on_keypress_SLASH	18	stimuli_distractor_trianglediamonds.svg	stimuli_target_circlediamonds.svg	10	yes	57	0	698
6.6.1	mac	2022-12-30	19:52:26	19:59:48	441096	5ffef0a1255d0c5fd3bdfd6a	451231504	1	practice_slash	9	practice_slash	19	stimuli_target_diamondsquares.svg	stimuli_distractor_trianglediamonds.svg	6	yes	53	1	955
6.6.1	mac	2022-12-30	19:52:26	19:59:48	441096	5ffef0a1255d0c5fd3bdfd6a	451231504	1	practice_slash	9	advance_on_keypress_SLASH	20	stimuli_target_diamondsquares.svg	stimuli_distractor_trianglediamonds.svg	6	yes	57	0	482
6.6.1	mac	2022-12-30	19:52:26	19:59:51	444176	5ffef0a1255d0c5fd3bdfd6a	451231504	1	practice_slash	9	practice_slash	21	stimuli_target_circlediamonds.svg	stimuli_distractor_diamondtriangles.svg	1	yes	53	1	966
6.6.1	mac	2022-12-30	19:52:26	19:59:51	444176	5ffef0a1255d0c5fd3bdfd6a	451231504	1	practice_slash	9	advance_on_keypress_SLASH	22	stimuli_target_circlediamonds.svg	stimuli_distractor_diamondtriangles.svg	1	yes	57	0	702
6.6.1	mac	2022-12-30	19:52:26	19:59:55	447576	5ffef0a1255d0c5fd3bdfd6a	451231504	1	practice_slash	9	practice_slash	23	stimuli_target_circlediamonds.svg	stimuli_distractor_trianglediamonds.svg	4	yes	53	1	1063
6.6.1	mac	2022-12-30	19:52:26	19:59:55	447576	5ffef0a1255d0c5fd3bdfd6a	451231504	1	practice_slash	9	advance_on_keypress_SLASH	24	stimuli_target_circlediamonds.svg	stimuli_distractor_trianglediamonds.svg	4	yes	57	0	467
6.6.1	mac	2022-12-30	19:52:26	19:59:57	450301	5ffef0a1255d0c5fd3bdfd6a	451231504	1	practice_slash	9	practice_slash	25	stimuli_target_squarediamonds.svg	stimuli_distractor_diamondtriangles.svg	2	yes	53	1	635
6.6.1	mac	2022-12-30	19:52:26	19:59:57	450301	5ffef0a1255d0c5fd3bdfd6a	451231504	1	practice_slash	9	advance_on_keypress_SLASH	26	stimuli_target_squarediamonds.svg	stimuli_distractor_diamondtriangles.svg	2	yes	57	0	991
6.6.1	mac	2022-12-30	19:52:26	20:00:02	454922	5ffef0a1255d0c5fd3bdfd6a	451231504	1	practice_slash	9	practice_slash	27	stimuli_distractor_diamondtriangles.svg	stimuli_distractor_diamondtriangles.svg	13	no	0	1	2000
6.6.1	mac	2022-12-30	19:52:26	20:00:02	454922	5ffef0a1255d0c5fd3bdfd6a	451231504	1	practice_slash	9	advance_on_keypress_SLASH	28	stimuli_distractor_diamondtriangles.svg	stimuli_distractor_diamondtriangles.svg	13	no	57	0	681
6.6.1	mac	2022-12-30	19:52:26	20:00:05	457840	5ffef0a1255d0c5fd3bdfd6a	451231504	1	practice_slash	9	practice_slash	29	stimuli_distractor_diamondtriangles.svg	stimuli_target_diamondcircles.svg	8	yes	53	1	598
6.6.1	mac	2022-12-30	19:52:26	20:00:05	457840	5ffef0a1255d0c5fd3bdfd6a	451231504	1	practice_slash	9	advance_on_keypress_SLASH	30	stimuli_distractor_diamondtriangles.svg	stimuli_target_diamondcircles.svg	8	yes	57	0	595
6.6.1	mac	2022-12-30	19:52:26	20:00:08	460587	5ffef0a1255d0c5fd3bdfd6a	451231504	1	practice_slash	9	practice_slash	31	stimuli_target_squarediamonds.svg	stimuli_distractor_trianglediamonds.svg	5	yes	53	1	527
6.6.1	mac	2022-12-30	19:52:26	20:00:08	460587	5ffef0a1255d0c5fd3bdfd6a	451231504	1	practice_slash	9	advance_on_keypress_SLASH	32	stimuli_target_squarediamonds.svg	stimuli_distractor_trianglediamonds.svg	5	yes	57	0	489
6.6.1	mac	2022-12-30	19:52:26	20:00:13	466083	5ffef0a1255d0c5fd3bdfd6a	451231504	1	main_slash	11	main_slash	1	stimuli_target_trianglesquares.svg	stimuli_distractor_trianglediamonds.svg	18	yes	53	1	849
6.6.1	mac	2022-12-30	19:52:26	20:00:13	466083	5ffef0a1255d0c5fd3bdfd6a	451231504	1	main_slash	11	advance_on_keypress_SLASH	2	stimuli_target_trianglesquares.svg	stimuli_distractor_trianglediamonds.svg	18	yes	57	0	984
6.6.1	mac	2022-12-30	19:52:26	20:00:15	468295	5ffef0a1255d0c5fd3bdfd6a	451231504	1	main_slash	11	main_slash	3	stimuli_target_trianglecircles.svg	stimuli_distractor_diamondtriangles.svg	21	yes	53	1	576
6.6.1	mac	2022-12-30	19:52:26	20:00:15	468295	5ffef0a1255d0c5fd3bdfd6a	451231504	1	main_slash	11	advance_on_keypress_SLASH	4	stimuli_target_trianglecircles.svg	stimuli_distractor_diamondtriangles.svg	21	yes	57	0	751
6.6.1	mac	2022-12-30	19:52:26	20:00:17	470298	5ffef0a1255d0c5fd3bdfd6a	451231504	1	main_slash	11	main_slash	5	stimuli_target_diamondcircles.svg	stimuli_distractor_diamondtriangles.svg	23	yes	53	1	627
6.6.1	mac	2022-12-30	19:52:26	20:00:17	470298	5ffef0a1255d0c5fd3bdfd6a	451231504	1	main_slash	11	advance_on_keypress_SLASH	6	stimuli_target_diamondcircles.svg	stimuli_distractor_diamondtriangles.svg	23	yes	57	0	409
6.6.1	mac	2022-12-30	19:52:26	20:00:19	472093	5ffef0a1255d0c5fd3bdfd6a	451231504	1	main_slash	11	main_slash	7	stimuli_distractor_diamondtriangles.svg	stimuli_target_trianglesquares.svg	30	yes	53	1	771
6.6.1	mac	2022-12-30	19:52:26	20:00:19	472093	5ffef0a1255d0c5fd3bdfd6a	451231504	1	main_slash	11	advance_on_keypress_SLASH	8	stimuli_distractor_diamondtriangles.svg	stimuli_target_trianglesquares.svg	30	yes	57	0	340
6.6.1	mac	2022-12-30	19:52:26	20:00:22	475058	5ffef0a1255d0c5fd3bdfd6a	451231504	1	main_slash	11	main_slash	9	stimuli_distractor_trianglediamonds.svg	stimuli_distractor_trianglediamonds.svg	33	no	0	1	2000
6.6.1	mac	2022-12-30	19:52:26	20:00:22	475058	5ffef0a1255d0c5fd3bdfd6a	451231504	1	main_slash	11	advance_on_keypress_SLASH	10	stimuli_distractor_trianglediamonds.svg	stimuli_distractor_trianglediamonds.svg	33	no	57	0	559
6.6.1	mac	2022-12-30	19:52:26	20:00:25	478245	5ffef0a1255d0c5fd3bdfd6a	451231504	1	main_slash	11	main_slash	11	stimuli_distractor_diamondtriangles.svg	stimuli_distractor_diamondtriangles.svg	39	no	0	1	2000
6.6.1	mac	2022-12-30	19:52:26	20:00:25	478245	5ffef0a1255d0c5fd3bdfd6a	451231504	1	main_slash	11	advance_on_keypress_SLASH	12	stimuli_distractor_diamondtriangles.svg	stimuli_distractor_diamondtriangles.svg	39	no	57	0	278
6.6.1	mac	2022-12-30	19:52:26	20:00:28	481148	5ffef0a1255d0c5fd3bdfd6a	451231504	1	main_slash	11	main_slash	13	stimuli_distractor_trianglediamonds.svg	stimuli_distractor_diamondtriangles.svg	35	no	0	1	2000
6.6.1	mac	2022-12-30	19:52:26	20:00:28	481148	5ffef0a1255d0c5fd3bdfd6a	451231504	1	main_slash	11	advance_on_keypress_SLASH	14	stimuli_distractor_trianglediamonds.svg	stimuli_distractor_diamondtriangles.svg	35	no	57	0	427
6.6.1	mac	2022-12-30	19:52:26	20:00:30	483036	5ffef0a1255d0c5fd3bdfd6a	451231504	1	main_slash	11	main_slash	15	stimuli_target_squarediamonds.svg	stimuli_distractor_trianglediamonds.svg	4	yes	53	1	836
6.6.1	mac	2022-12-30	19:52:26	20:00:30	483036	5ffef0a1255d0c5fd3bdfd6a	451231504	1	main_slash	11	advance_on_keypress_SLASH	16	stimuli_target_squarediamonds.svg	stimuli_distractor_trianglediamonds.svg	4	yes	57	0	1054
6.6.1	mac	2022-12-30	19:52:26	20:00:33	485895	5ffef0a1255d0c5fd3bdfd6a	451231504	1	main_slash	11	main_slash	17	stimuli_distractor_trianglediamonds.svg	stimuli_target_diamondsquares.svg	28	yes	53	1	1176
6.6.1	mac	2022-12-30	19:52:26	20:00:33	485895	5ffef0a1255d0c5fd3bdfd6a	451231504	1	main_slash	11	advance_on_keypress_SLASH	18	stimuli_distractor_trianglediamonds.svg	stimuli_target_diamondsquares.svg	28	yes	57	0	874
6.6.1	mac	2022-12-30	19:52:26	20:00:35	488297	5ffef0a1255d0c5fd3bdfd6a	451231504	1	main_slash	11	main_slash	19	stimuli_distractor_diamondtriangles.svg	stimuli_target_circlediamonds.svg	14	yes	53	1	908
6.6.1	mac	2022-12-30	19:52:26	20:00:35	488297	5ffef0a1255d0c5fd3bdfd6a	451231504	1	main_slash	11	advance_on_keypress_SLASH	20	stimuli_distractor_diamondtriangles.svg	stimuli_target_circlediamonds.svg	14	yes	57	0	513
6.6.1	mac	2022-12-30	19:52:26	20:00:37	490366	5ffef0a1255d0c5fd3bdfd6a	451231504	1	main_slash	11	main_slash	21	stimuli_target_diamondcircles.svg	stimuli_distractor_trianglediamonds.svg	19	yes	53	1	942
6.6.1	mac	2022-12-30	19:52:26	20:00:37	490366	5ffef0a1255d0c5fd3bdfd6a	451231504	1	main_slash	11	advance_on_keypress_SLASH	22	stimuli_target_diamondcircles.svg	stimuli_distractor_trianglediamonds.svg	19	yes	57	0	525
6.6.1	mac	2022-12-30	19:52:26	20:00:39	492313	5ffef0a1255d0c5fd3bdfd6a	451231504	1	main_slash	11	main_slash	23	stimuli_target_squarediamonds.svg	stimuli_distractor_diamondtriangles.svg	8	yes	53	1	804
6.6.1	mac	2022-12-30	19:52:26	20:00:39	492313	5ffef0a1255d0c5fd3bdfd6a	451231504	1	main_slash	11	advance_on_keypress_SLASH	24	stimuli_target_squarediamonds.svg	stimuli_distractor_diamondtriangles.svg	8	yes	57	0	415
6.6.1	mac	2022-12-30	19:52:26	20:00:41	494339	5ffef0a1255d0c5fd3bdfd6a	451231504	1	main_slash	11	main_slash	25	stimuli_target_diamondsquares.svg	stimuli_distractor_trianglediamonds.svg	20	yes	53	1	978
6.6.1	mac	2022-12-30	19:52:26	20:00:41	494339	5ffef0a1255d0c5fd3bdfd6a	451231504	1	main_slash	11	advance_on_keypress_SLASH	26	stimuli_target_diamondsquares.svg	stimuli_distractor_trianglediamonds.svg	20	yes	57	0	423
6.6.1	mac	2022-12-30	19:52:26	20:00:44	497381	5ffef0a1255d0c5fd3bdfd6a	451231504	1	main_slash	11	main_slash	27	stimuli_distractor_diamondtriangles.svg	stimuli_distractor_trianglediamonds.svg	38	no	0	1	2000
6.6.1	mac	2022-12-30	19:52:26	20:00:44	497381	5ffef0a1255d0c5fd3bdfd6a	451231504	1	main_slash	11	advance_on_keypress_SLASH	28	stimuli_distractor_diamondtriangles.svg	stimuli_distractor_trianglediamonds.svg	38	no	57	0	912
6.6.1	mac	2022-12-30	19:52:26	20:00:47	499928	5ffef0a1255d0c5fd3bdfd6a	451231504	1	main_slash	11	main_slash	29	stimuli_distractor_diamondtriangles.svg	stimuli_target_circletriangles.svg	13	yes	53	1	1011
6.6.1	mac	2022-12-30	19:52:26	20:00:47	499928	5ffef0a1255d0c5fd3bdfd6a	451231504	1	main_slash	11	advance_on_keypress_SLASH	30	stimuli_distractor_diamondtriangles.svg	stimuli_target_circletriangles.svg	13	yes	57	0	679
6.6.1	mac	2022-12-30	19:52:26	20:00:49	501911	5ffef0a1255d0c5fd3bdfd6a	451231504	1	main_slash	11	main_slash	31	stimuli_distractor_trianglediamonds.svg	stimuli_target_trianglecircles.svg	25	yes	53	1	675
6.6.1	mac	2022-12-30	19:52:26	20:00:49	501911	5ffef0a1255d0c5fd3bdfd6a	451231504	1	main_slash	11	advance_on_keypress_SLASH	32	stimuli_distractor_trianglediamonds.svg	stimuli_target_trianglecircles.svg	25	yes	57	0	506
6.6.1	mac	2022-12-30	19:52:26	20:00:52	505038	5ffef0a1255d0c5fd3bdfd6a	451231504	1	main_slash	11	main_slash	33	stimuli_distractor_trianglediamonds.svg	stimuli_distractor_trianglediamonds.svg	34	no	0	1	2000
6.6.1	mac	2022-12-30	19:52:26	20:00:52	505038	5ffef0a1255d0c5fd3bdfd6a	451231504	1	main_slash	11	advance_on_keypress_SLASH	34	stimuli_distractor_trianglediamonds.svg	stimuli_distractor_trianglediamonds.svg	34	no	57	0	548
6.6.1	mac	2022-12-30	19:52:26	20:00:54	507323	5ffef0a1255d0c5fd3bdfd6a	451231504	1	main_slash	11	main_slash	35	stimuli_distractor_diamondtriangles.svg	stimuli_target_squarediamonds.svg	16	yes	53	1	1099
6.6.1	mac	2022-12-30	19:52:26	20:00:54	507323	5ffef0a1255d0c5fd3bdfd6a	451231504	1	main_slash	11	advance_on_keypress_SLASH	36	stimuli_distractor_diamondtriangles.svg	stimuli_target_squarediamonds.svg	16	yes	57	0	591
6.6.1	mac	2022-12-30	19:52:26	20:00:57	509497	5ffef0a1255d0c5fd3bdfd6a	451231504	1	main_slash	11	main_slash	37	stimuli_distractor_diamondtriangles.svg	stimuli_target_squaretriangles.svg	15	yes	53	1	954
6.6.1	mac	2022-12-30	19:52:26	20:00:57	509497	5ffef0a1255d0c5fd3bdfd6a	451231504	1	main_slash	11	advance_on_keypress_SLASH	38	stimuli_distractor_diamondtriangles.svg	stimuli_target_squaretriangles.svg	15	yes	57	0	376
6.6.1	mac	2022-12-30	19:52:26	20:01:00	512496	5ffef0a1255d0c5fd3bdfd6a	451231504	1	main_slash	11	main_slash	39	stimuli_target_trianglesquares.svg	stimuli_distractor_diamondtriangles.svg	22	yes	0	0	2000
6.6.1	mac	2022-12-30	19:52:26	20:01:00	512496	5ffef0a1255d0c5fd3bdfd6a	451231504	1	main_slash	11	advance_on_keypress_SLASH	40	stimuli_target_trianglesquares.svg	stimuli_distractor_diamondtriangles.svg	22	yes	57	0	1151
6.6.1	mac	2022-12-30	19:52:26	20:01:02	514970	5ffef0a1255d0c5fd3bdfd6a	451231504	1	main_slash	11	main_slash	41	stimuli_target_circlediamonds.svg	stimuli_distractor_trianglediamonds.svg	2	yes	53	1	688
6.6.1	mac	2022-12-30	19:52:26	20:01:02	514970	5ffef0a1255d0c5fd3bdfd6a	451231504	1	main_slash	11	advance_on_keypress_SLASH	42	stimuli_target_circlediamonds.svg	stimuli_distractor_trianglediamonds.svg	2	yes	57	0	1333
6.6.1	mac	2022-12-30	19:52:26	20:01:05	517919	5ffef0a1255d0c5fd3bdfd6a	451231504	1	main_slash	11	main_slash	43	stimuli_target_circletriangles.svg	stimuli_distractor_trianglediamonds.svg	1	yes	53	1	984
6.6.1	mac	2022-12-30	19:52:26	20:01:05	517919	5ffef0a1255d0c5fd3bdfd6a	451231504	1	main_slash	11	advance_on_keypress_SLASH	44	stimuli_target_circletriangles.svg	stimuli_distractor_trianglediamonds.svg	1	yes	57	0	525
6.6.1	mac	2022-12-30	19:52:26	20:01:07	519930	5ffef0a1255d0c5fd3bdfd6a	451231504	1	main_slash	11	main_slash	45	stimuli_distractor_trianglediamonds.svg	stimuli_target_squarediamonds.svg	12	yes	53	1	860
6.6.1	mac	2022-12-30	19:52:26	20:01:07	519930	5ffef0a1255d0c5fd3bdfd6a	451231504	1	main_slash	11	advance_on_keypress_SLASH	46	stimuli_distractor_trianglediamonds.svg	stimuli_target_squarediamonds.svg	12	yes	57	0	344
6.6.1	mac	2022-12-30	19:52:26	20:01:09	521471	5ffef0a1255d0c5fd3bdfd6a	451231504	1	main_slash	11	main_slash	47	stimuli_distractor_diamondtriangles.svg	stimuli_target_diamondcircles.svg	31	yes	53	1	582
6.6.1	mac	2022-12-30	19:52:26	20:01:09	521471	5ffef0a1255d0c5fd3bdfd6a	451231504	1	main_slash	11	advance_on_keypress_SLASH	48	stimuli_distractor_diamondtriangles.svg	stimuli_target_diamondcircles.svg	31	yes	57	0	368
6.6.1	mac	2022-12-30	19:52:26	20:01:12	524474	5ffef0a1255d0c5fd3bdfd6a	451231504	1	main_slash	11	main_slash	49	stimuli_distractor_diamondtriangles.svg	stimuli_distractor_trianglediamonds.svg	37	no	0	1	2000
6.6.1	mac	2022-12-30	19:52:26	20:01:12	524474	5ffef0a1255d0c5fd3bdfd6a	451231504	1	main_slash	11	advance_on_keypress_SLASH	50	stimuli_distractor_diamondtriangles.svg	stimuli_distractor_trianglediamonds.svg	37	no	57	0	551
6.6.1	mac	2022-12-30	19:52:26	20:01:13	526249	5ffef0a1255d0c5fd3bdfd6a	451231504	1	main_slash	11	main_slash	51	stimuli_distractor_diamondtriangles.svg	stimuli_target_diamondsquares.svg	32	yes	53	1	589
6.6.1	mac	2022-12-30	19:52:26	20:01:13	526249	5ffef0a1255d0c5fd3bdfd6a	451231504	1	main_slash	11	advance_on_keypress_SLASH	52	stimuli_distractor_diamondtriangles.svg	stimuli_target_diamondsquares.svg	32	yes	57	0	399
6.6.1	mac	2022-12-30	19:52:26	20:01:15	528147	5ffef0a1255d0c5fd3bdfd6a	451231504	1	main_slash	11	main_slash	53	stimuli_distractor_trianglediamonds.svg	stimuli_target_circlediamonds.svg	10	yes	53	1	869
6.6.1	mac	2022-12-30	19:52:26	20:01:15	528147	5ffef0a1255d0c5fd3bdfd6a	451231504	1	main_slash	11	advance_on_keypress_SLASH	54	stimuli_distractor_trianglediamonds.svg	stimuli_target_circlediamonds.svg	10	yes	57	0	247
6.6.1	mac	2022-12-30	19:52:26	20:01:17	530036	5ffef0a1255d0c5fd3bdfd6a	451231504	1	main_slash	11	main_slash	55	stimuli_target_squaretriangles.svg	stimuli_distractor_diamondtriangles.svg	7	yes	53	1	1023
6.6.1	mac	2022-12-30	19:52:26	20:01:17	530036	5ffef0a1255d0c5fd3bdfd6a	451231504	1	main_slash	11	advance_on_keypress_SLASH	56	stimuli_target_squaretriangles.svg	stimuli_distractor_diamondtriangles.svg	7	yes	57	0	183
6.6.1	mac	2022-12-30	19:52:26	20:01:19	532203	5ffef0a1255d0c5fd3bdfd6a	451231504	1	main_slash	11	main_slash	57	stimuli_target_circlediamonds.svg	stimuli_distractor_diamondtriangles.svg	6	yes	53	1	1354
6.6.1	mac	2022-12-30	19:52:26	20:01:19	532203	5ffef0a1255d0c5fd3bdfd6a	451231504	1	main_slash	11	advance_on_keypress_SLASH	58	stimuli_target_circlediamonds.svg	stimuli_distractor_diamondtriangles.svg	6	yes	57	0	1205
6.6.1	mac	2022-12-30	19:52:26	20:01:23	536036	5ffef0a1255d0c5fd3bdfd6a	451231504	1	main_slash	11	main_slash	59	stimuli_target_diamondsquares.svg	stimuli_distractor_diamondtriangles.svg	24	yes	0	0	2000
6.6.1	mac	2022-12-30	19:52:26	20:01:23	536036	5ffef0a1255d0c5fd3bdfd6a	451231504	1	main_slash	11	advance_on_keypress_SLASH	60	stimuli_target_diamondsquares.svg	stimuli_distractor_diamondtriangles.svg	24	yes	57	0	824
6.6.1	mac	2022-12-30	19:52:26	20:01:27	539489	5ffef0a1255d0c5fd3bdfd6a	451231504	1	main_slash	11	main_slash	61	stimuli_distractor_diamondtriangles.svg	stimuli_distractor_diamondtriangles.svg	40	no	0	1	2000
6.6.1	mac	2022-12-30	19:52:26	20:01:27	539489	5ffef0a1255d0c5fd3bdfd6a	451231504	1	main_slash	11	advance_on_keypress_SLASH	62	stimuli_distractor_diamondtriangles.svg	stimuli_distractor_diamondtriangles.svg	40	no	57	0	303
6.6.1	mac	2022-12-30	19:52:26	20:01:28	541183	5ffef0a1255d0c5fd3bdfd6a	451231504	1	main_slash	11	main_slash	63	stimuli_distractor_diamondtriangles.svg	stimuli_target_trianglecircles.svg	29	yes	53	1	758
6.6.1	mac	2022-12-30	19:52:26	20:01:28	541183	5ffef0a1255d0c5fd3bdfd6a	451231504	1	main_slash	11	advance_on_keypress_SLASH	64	stimuli_distractor_diamondtriangles.svg	stimuli_target_trianglecircles.svg	29	yes	57	0	734
6.6.1	mac	2022-12-30	19:52:26	20:01:31	543634	5ffef0a1255d0c5fd3bdfd6a	451231504	1	main_slash	11	main_slash	65	stimuli_distractor_trianglediamonds.svg	stimuli_target_trianglesquares.svg	26	yes	53	1	1091
6.6.1	mac	2022-12-30	19:52:26	20:01:31	543634	5ffef0a1255d0c5fd3bdfd6a	451231504	1	main_slash	11	advance_on_keypress_SLASH	66	stimuli_distractor_trianglediamonds.svg	stimuli_target_trianglesquares.svg	26	yes	57	0	342
6.6.1	mac	2022-12-30	19:52:26	20:01:33	545554	5ffef0a1255d0c5fd3bdfd6a	451231504	1	main_slash	11	main_slash	67	stimuli_target_trianglecircles.svg	stimuli_distractor_trianglediamonds.svg	17	yes	53	1	958
6.6.1	mac	2022-12-30	19:52:26	20:01:33	545554	5ffef0a1255d0c5fd3bdfd6a	451231504	1	main_slash	11	advance_on_keypress_SLASH	68	stimuli_target_trianglecircles.svg	stimuli_distractor_trianglediamonds.svg	17	yes	57	0	305
6.6.1	mac	2022-12-30	19:52:26	20:01:36	548482	5ffef0a1255d0c5fd3bdfd6a	451231504	1	main_slash	11	main_slash	69	stimuli_distractor_trianglediamonds.svg	stimuli_distractor_diamondtriangles.svg	36	no	0	1	2000
6.6.1	mac	2022-12-30	19:52:26	20:01:36	548482	5ffef0a1255d0c5fd3bdfd6a	451231504	1	main_slash	11	advance_on_keypress_SLASH	70	stimuli_distractor_trianglediamonds.svg	stimuli_distractor_diamondtriangles.svg	36	no	57	0	728
6.6.1	mac	2022-12-30	19:52:26	20:01:38	551197	5ffef0a1255d0c5fd3bdfd6a	451231504	1	main_slash	11	main_slash	71	stimuli_target_circletriangles.svg	stimuli_distractor_diamondtriangles.svg	5	yes	53	1	1363
6.6.1	mac	2022-12-30	19:52:26	20:01:38	551197	5ffef0a1255d0c5fd3bdfd6a	451231504	1	main_slash	11	advance_on_keypress_SLASH	72	stimuli_target_circletriangles.svg	stimuli_distractor_diamondtriangles.svg	5	yes	57	0	306
6.6.1	mac	2022-12-30	19:52:26	20:01:41	553458	5ffef0a1255d0c5fd3bdfd6a	451231504	1	main_slash	11	main_slash	73	stimuli_distractor_trianglediamonds.svg	stimuli_target_diamondcircles.svg	27	yes	53	1	1338
6.6.1	mac	2022-12-30	19:52:26	20:01:41	553458	5ffef0a1255d0c5fd3bdfd6a	451231504	1	main_slash	11	advance_on_keypress_SLASH	74	stimuli_distractor_trianglediamonds.svg	stimuli_target_diamondcircles.svg	27	yes	57	0	235
6.6.1	mac	2022-12-30	19:52:26	20:01:42	555373	5ffef0a1255d0c5fd3bdfd6a	451231504	1	main_slash	11	main_slash	75	stimuli_distractor_trianglediamonds.svg	stimuli_target_squaretriangles.svg	11	yes	53	1	1051
6.6.1	mac	2022-12-30	19:52:26	20:01:42	555373	5ffef0a1255d0c5fd3bdfd6a	451231504	1	main_slash	11	advance_on_keypress_SLASH	76	stimuli_distractor_trianglediamonds.svg	stimuli_target_squaretriangles.svg	11	yes	57	0	191
6.6.1	mac	2022-12-30	19:52:26	20:01:44	556974	5ffef0a1255d0c5fd3bdfd6a	451231504	1	main_slash	11	main_slash	77	stimuli_distractor_trianglediamonds.svg	stimuli_target_circletriangles.svg	9	yes	53	1	783
6.6.1	mac	2022-12-30	19:52:26	20:01:44	556974	5ffef0a1255d0c5fd3bdfd6a	451231504	1	main_slash	11	advance_on_keypress_SLASH	78	stimuli_distractor_trianglediamonds.svg	stimuli_target_circletriangles.svg	9	yes	57	0	267
6.6.1	mac	2022-12-30	19:52:26	20:01:46	558619	5ffef0a1255d0c5fd3bdfd6a	451231504	1	main_slash	11	main_slash	79	stimuli_target_squaretriangles.svg	stimuli_distractor_trianglediamonds.svg	3	yes	53	1	744
6.6.1	mac	2022-12-30	19:52:26	20:01:46	558619	5ffef0a1255d0c5fd3bdfd6a	451231504	1	main_slash	11	advance_on_keypress_SLASH	80	stimuli_target_squaretriangles.svg	stimuli_distractor_trianglediamonds.svg	3	yes	57	0	278
6.6.1	mac	2022-12-30	19:52:26	20:01:48	561252	5ffef0a1255d0c5fd3bdfd6a	451231504	1	main_slash	11	main_slash	81	stimuli_distractor_diamondtriangles.svg	stimuli_target_diamondsquares.svg	32	yes	53	1	1740
6.6.1	mac	2022-12-30	19:52:26	20:01:48	561252	5ffef0a1255d0c5fd3bdfd6a	451231504	1	main_slash	11	advance_on_keypress_SLASH	82	stimuli_distractor_diamondtriangles.svg	stimuli_target_diamondsquares.svg	32	yes	57	0	564
6.6.1	mac	2022-12-30	19:52:26	20:01:50	563167	5ffef0a1255d0c5fd3bdfd6a	451231504	1	main_slash	11	main_slash	83	stimuli_target_circlediamonds.svg	stimuli_distractor_trianglediamonds.svg	2	yes	53	1	720
6.6.1	mac	2022-12-30	19:52:26	20:01:50	563167	5ffef0a1255d0c5fd3bdfd6a	451231504	1	main_slash	11	advance_on_keypress_SLASH	84	stimuli_target_circlediamonds.svg	stimuli_distractor_trianglediamonds.svg	2	yes	57	0	313
6.6.1	mac	2022-12-30	19:52:26	20:01:53	566099	5ffef0a1255d0c5fd3bdfd6a	451231504	1	main_slash	11	main_slash	85	stimuli_distractor_trianglediamonds.svg	stimuli_distractor_trianglediamonds.svg	33	no	0	1	2000
6.6.1	mac	2022-12-30	19:52:26	20:01:53	566099	5ffef0a1255d0c5fd3bdfd6a	451231504	1	main_slash	11	advance_on_keypress_SLASH	86	stimuli_distractor_trianglediamonds.svg	stimuli_distractor_trianglediamonds.svg	33	no	57	0	555
6.6.1	mac	2022-12-30	19:52:26	20:01:56	569286	5ffef0a1255d0c5fd3bdfd6a	451231504	1	main_slash	11	main_slash	87	stimuli_distractor_diamondtriangles.svg	stimuli_target_squaretriangles.svg	15	yes	0	0	2000
6.6.1	mac	2022-12-30	19:52:26	20:01:56	569286	5ffef0a1255d0c5fd3bdfd6a	451231504	1	main_slash	11	advance_on_keypress_SLASH	88	stimuli_distractor_diamondtriangles.svg	stimuli_target_squaretriangles.svg	15	yes	57	0	533
6.6.1	mac	2022-12-30	19:52:26	20:01:58	571106	5ffef0a1255d0c5fd3bdfd6a	451231504	1	main_slash	11	main_slash	89	stimuli_target_circletriangles.svg	stimuli_distractor_trianglediamonds.svg	1	yes	53	1	651
6.6.1	mac	2022-12-30	19:52:26	20:01:58	571106	5ffef0a1255d0c5fd3bdfd6a	451231504	1	main_slash	11	advance_on_keypress_SLASH	90	stimuli_target_circletriangles.svg	stimuli_distractor_trianglediamonds.svg	1	yes	57	0	307
6.6.1	mac	2022-12-30	19:52:26	20:02:00	572996	5ffef0a1255d0c5fd3bdfd6a	451231504	1	main_slash	11	main_slash	91	stimuli_distractor_diamondtriangles.svg	stimuli_target_trianglesquares.svg	30	yes	53	1	956
6.6.1	mac	2022-12-30	19:52:26	20:02:00	572996	5ffef0a1255d0c5fd3bdfd6a	451231504	1	main_slash	11	advance_on_keypress_SLASH	92	stimuli_distractor_diamondtriangles.svg	stimuli_target_trianglesquares.svg	30	yes	57	0	254
6.6.1	mac	2022-12-30	19:52:26	20:02:03	575875	5ffef0a1255d0c5fd3bdfd6a	451231504	1	main_slash	11	main_slash	93	stimuli_distractor_diamondtriangles.svg	stimuli_distractor_trianglediamonds.svg	38	no	0	1	2000
6.6.1	mac	2022-12-30	19:52:26	20:02:03	575875	5ffef0a1255d0c5fd3bdfd6a	451231504	1	main_slash	11	advance_on_keypress_SLASH	94	stimuli_distractor_diamondtriangles.svg	stimuli_distractor_trianglediamonds.svg	38	no	57	0	494
6.6.1	mac	2022-12-30	19:52:26	20:02:06	578995	5ffef0a1255d0c5fd3bdfd6a	451231504	1	main_slash	11	main_slash	95	stimuli_distractor_trianglediamonds.svg	stimuli_distractor_trianglediamonds.svg	34	no	0	1	2000
6.6.1	mac	2022-12-30	19:52:26	20:02:06	578995	5ffef0a1255d0c5fd3bdfd6a	451231504	1	main_slash	11	advance_on_keypress_SLASH	96	stimuli_distractor_trianglediamonds.svg	stimuli_distractor_trianglediamonds.svg	34	no	57	0	437
6.6.1	mac	2022-12-30	19:52:26	20:02:08	580780	5ffef0a1255d0c5fd3bdfd6a	451231504	1	main_slash	11	main_slash	97	stimuli_distractor_diamondtriangles.svg	stimuli_target_trianglecircles.svg	29	yes	53	1	716
6.6.1	mac	2022-12-30	19:52:26	20:02:08	580780	5ffef0a1255d0c5fd3bdfd6a	451231504	1	main_slash	11	advance_on_keypress_SLASH	98	stimuli_distractor_diamondtriangles.svg	stimuli_target_trianglecircles.svg	29	yes	57	0	995
6.6.1	mac	2022-12-30	19:52:26	20:02:10	583194	5ffef0a1255d0c5fd3bdfd6a	451231504	1	main_slash	11	main_slash	99	stimuli_target_diamondcircles.svg	stimuli_distractor_trianglediamonds.svg	19	yes	53	1	794
6.6.1	mac	2022-12-30	19:52:26	20:02:10	583194	5ffef0a1255d0c5fd3bdfd6a	451231504	1	main_slash	11	advance_on_keypress_SLASH	100	stimuli_target_diamondcircles.svg	stimuli_distractor_trianglediamonds.svg	19	yes	57	0	469
6.6.1	mac	2022-12-30	19:52:26	20:02:12	585194	5ffef0a1255d0c5fd3bdfd6a	451231504	1	main_slash	11	main_slash	101	stimuli_distractor_trianglediamonds.svg	stimuli_target_squaretriangles.svg	11	yes	53	1	909
6.6.1	mac	2022-12-30	19:52:26	20:02:12	585194	5ffef0a1255d0c5fd3bdfd6a	451231504	1	main_slash	11	advance_on_keypress_SLASH	102	stimuli_distractor_trianglediamonds.svg	stimuli_target_squaretriangles.svg	11	yes	57	0	569
6.6.1	mac	2022-12-30	19:52:26	20:02:15	588388	5ffef0a1255d0c5fd3bdfd6a	451231504	1	main_slash	11	main_slash	103	stimuli_distractor_diamondtriangles.svg	stimuli_distractor_trianglediamonds.svg	37	no	0	1	2000
6.6.1	mac	2022-12-30	19:52:26	20:02:15	588388	5ffef0a1255d0c5fd3bdfd6a	451231504	1	main_slash	11	advance_on_keypress_SLASH	104	stimuli_distractor_diamondtriangles.svg	stimuli_distractor_trianglediamonds.svg	37	no	57	0	445
6.6.1	mac	2022-12-30	19:52:26	20:02:17	590406	5ffef0a1255d0c5fd3bdfd6a	451231504	1	main_slash	11	main_slash	105	stimuli_target_diamondsquares.svg	stimuli_distractor_trianglediamonds.svg	20	yes	53	1	932
6.6.1	mac	2022-12-30	19:52:26	20:02:17	590406	5ffef0a1255d0c5fd3bdfd6a	451231504	1	main_slash	11	advance_on_keypress_SLASH	106	stimuli_target_diamondsquares.svg	stimuli_distractor_trianglediamonds.svg	20	yes	57	0	746
6.6.1	mac	2022-12-30	19:52:26	20:02:21	593777	5ffef0a1255d0c5fd3bdfd6a	451231504	1	main_slash	11	main_slash	107	stimuli_distractor_trianglediamonds.svg	stimuli_distractor_diamondtriangles.svg	36	no	0	1	2000
6.6.1	mac	2022-12-30	19:52:26	20:02:21	593777	5ffef0a1255d0c5fd3bdfd6a	451231504	1	main_slash	11	advance_on_keypress_SLASH	108	stimuli_distractor_trianglediamonds.svg	stimuli_distractor_diamondtriangles.svg	36	no	57	0	296
6.6.1	mac	2022-12-30	19:52:26	20:02:23	595842	5ffef0a1255d0c5fd3bdfd6a	451231504	1	main_slash	11	main_slash	109	stimuli_target_trianglesquares.svg	stimuli_distractor_trianglediamonds.svg	18	yes	53	1	1146
6.6.1	mac	2022-12-30	19:52:26	20:02:23	595842	5ffef0a1255d0c5fd3bdfd6a	451231504	1	main_slash	11	advance_on_keypress_SLASH	110	stimuli_target_trianglesquares.svg	stimuli_distractor_trianglediamonds.svg	18	yes	57	0	782
6.6.1	mac	2022-12-30	19:52:26	20:02:26	598470	5ffef0a1255d0c5fd3bdfd6a	451231504	1	main_slash	11	main_slash	111	stimuli_distractor_trianglediamonds.svg	stimuli_target_trianglesquares.svg	26	yes	53	1	1222
6.6.1	mac	2022-12-30	19:52:26	20:02:26	598470	5ffef0a1255d0c5fd3bdfd6a	451231504	1	main_slash	11	advance_on_keypress_SLASH	112	stimuli_distractor_trianglediamonds.svg	stimuli_target_trianglesquares.svg	26	yes	57	0	624
6.6.1	mac	2022-12-30	19:52:26	20:02:28	600778	5ffef0a1255d0c5fd3bdfd6a	451231504	1	main_slash	11	main_slash	113	stimuli_distractor_diamondtriangles.svg	stimuli_target_circletriangles.svg	13	yes	53	1	1044
6.6.1	mac	2022-12-30	19:52:26	20:02:28	600778	5ffef0a1255d0c5fd3bdfd6a	451231504	1	main_slash	11	advance_on_keypress_SLASH	114	stimuli_distractor_diamondtriangles.svg	stimuli_target_circletriangles.svg	13	yes	57	0	284
6.6.1	mac	2022-12-30	19:52:26	20:02:31	603686	5ffef0a1255d0c5fd3bdfd6a	451231504	1	main_slash	11	main_slash	115	stimuli_distractor_trianglediamonds.svg	stimuli_target_diamondsquares.svg	28	yes	0	0	2000
6.6.1	mac	2022-12-30	19:52:26	20:02:31	603686	5ffef0a1255d0c5fd3bdfd6a	451231504	1	main_slash	11	advance_on_keypress_SLASH	116	stimuli_distractor_trianglediamonds.svg	stimuli_target_diamondsquares.svg	28	yes	57	0	709
6.6.1	mac	2022-12-30	19:52:26	20:02:33	605696	5ffef0a1255d0c5fd3bdfd6a	451231504	1	main_slash	11	main_slash	117	stimuli_target_squaretriangles.svg	stimuli_distractor_trianglediamonds.svg	3	yes	53	1	673
6.6.1	mac	2022-12-30	19:52:26	20:02:33	605696	5ffef0a1255d0c5fd3bdfd6a	451231504	1	main_slash	11	advance_on_keypress_SLASH	118	stimuli_target_squaretriangles.svg	stimuli_distractor_trianglediamonds.svg	3	yes	57	0	334
6.6.1	mac	2022-12-30	19:52:26	20:02:34	607195	5ffef0a1255d0c5fd3bdfd6a	451231504	1	main_slash	11	main_slash	119	stimuli_distractor_diamondtriangles.svg	stimuli_target_circlediamonds.svg	14	yes	53	1	537
6.6.1	mac	2022-12-30	19:52:26	20:02:34	607195	5ffef0a1255d0c5fd3bdfd6a	451231504	1	main_slash	11	advance_on_keypress_SLASH	120	stimuli_distractor_diamondtriangles.svg	stimuli_target_circlediamonds.svg	14	yes	57	0	329
6.6.1	mac	2022-12-30	19:52:26	20:02:37	610160	5ffef0a1255d0c5fd3bdfd6a	451231504	1	main_slash	11	main_slash	121	stimuli_distractor_diamondtriangles.svg	stimuli_distractor_diamondtriangles.svg	40	no	0	1	2000
6.6.1	mac	2022-12-30	19:52:26	20:02:37	610160	5ffef0a1255d0c5fd3bdfd6a	451231504	1	main_slash	11	advance_on_keypress_SLASH	122	stimuli_distractor_diamondtriangles.svg	stimuli_distractor_diamondtriangles.svg	40	no	57	0	313
6.6.1	mac	2022-12-30	19:52:26	20:02:39	611775	5ffef0a1255d0c5fd3bdfd6a	451231504	1	main_slash	11	main_slash	123	stimuli_target_circlediamonds.svg	stimuli_distractor_diamondtriangles.svg	6	yes	53	1	680
6.6.1	mac	2022-12-30	19:52:26	20:02:39	611775	5ffef0a1255d0c5fd3bdfd6a	451231504	1	main_slash	11	advance_on_keypress_SLASH	124	stimuli_target_circlediamonds.svg	stimuli_distractor_diamondtriangles.svg	6	yes	57	0	445
6.6.1	mac	2022-12-30	19:52:26	20:02:41	613643	5ffef0a1255d0c5fd3bdfd6a	451231504	1	main_slash	11	main_slash	125	stimuli_distractor_trianglediamonds.svg	stimuli_target_circlediamonds.svg	10	yes	53	1	813
6.6.1	mac	2022-12-30	19:52:26	20:02:41	613643	5ffef0a1255d0c5fd3bdfd6a	451231504	1	main_slash	11	advance_on_keypress_SLASH	126	stimuli_distractor_trianglediamonds.svg	stimuli_target_circlediamonds.svg	10	yes	57	0	267
6.6.1	mac	2022-12-30	19:52:26	20:02:43	615517	5ffef0a1255d0c5fd3bdfd6a	451231504	1	main_slash	11	main_slash	127	stimuli_distractor_trianglediamonds.svg	stimuli_target_circletriangles.svg	9	yes	53	1	985
6.6.1	mac	2022-12-30	19:52:26	20:02:43	615517	5ffef0a1255d0c5fd3bdfd6a	451231504	1	main_slash	11	advance_on_keypress_SLASH	128	stimuli_distractor_trianglediamonds.svg	stimuli_target_circletriangles.svg	9	yes	57	0	209
6.6.1	mac	2022-12-30	19:52:26	20:02:44	617162	5ffef0a1255d0c5fd3bdfd6a	451231504	1	main_slash	11	main_slash	129	stimuli_target_squarediamonds.svg	stimuli_distractor_diamondtriangles.svg	8	yes	53	1	811
6.6.1	mac	2022-12-30	19:52:26	20:02:44	617162	5ffef0a1255d0c5fd3bdfd6a	451231504	1	main_slash	11	advance_on_keypress_SLASH	130	stimuli_target_squarediamonds.svg	stimuli_distractor_diamondtriangles.svg	8	yes	57	0	458
6.6.1	mac	2022-12-30	19:52:26	20:02:46	618963	5ffef0a1255d0c5fd3bdfd6a	451231504	1	main_slash	11	main_slash	131	stimuli_target_squaretriangles.svg	stimuli_distractor_diamondtriangles.svg	7	yes	53	1	727
6.6.1	mac	2022-12-30	19:52:26	20:02:46	618963	5ffef0a1255d0c5fd3bdfd6a	451231504	1	main_slash	11	advance_on_keypress_SLASH	132	stimuli_target_squaretriangles.svg	stimuli_distractor_diamondtriangles.svg	7	yes	57	0	825
6.6.1	mac	2022-12-30	19:52:26	20:02:49	622406	5ffef0a1255d0c5fd3bdfd6a	451231504	1	main_slash	11	main_slash	133	stimuli_target_trianglesquares.svg	stimuli_distractor_diamondtriangles.svg	22	yes	0	0	2000
6.6.1	mac	2022-12-30	19:52:26	20:02:49	622406	5ffef0a1255d0c5fd3bdfd6a	451231504	1	main_slash	11	advance_on_keypress_SLASH	134	stimuli_target_trianglesquares.svg	stimuli_distractor_diamondtriangles.svg	22	yes	57	0	597
6.6.1	mac	2022-12-30	19:52:26	20:02:53	625643	5ffef0a1255d0c5fd3bdfd6a	451231504	1	main_slash	11	main_slash	135	stimuli_distractor_trianglediamonds.svg	stimuli_distractor_diamondtriangles.svg	35	no	0	1	2000
6.6.1	mac	2022-12-30	19:52:26	20:02:53	625643	5ffef0a1255d0c5fd3bdfd6a	451231504	1	main_slash	11	advance_on_keypress_SLASH	136	stimuli_distractor_trianglediamonds.svg	stimuli_distractor_diamondtriangles.svg	35	no	57	0	642
6.6.1	mac	2022-12-30	19:52:26	20:02:55	627844	5ffef0a1255d0c5fd3bdfd6a	451231504	1	main_slash	11	main_slash	137	stimuli_target_diamondsquares.svg	stimuli_distractor_diamondtriangles.svg	24	yes	53	1	933
6.6.1	mac	2022-12-30	19:52:26	20:02:55	627844	5ffef0a1255d0c5fd3bdfd6a	451231504	1	main_slash	11	advance_on_keypress_SLASH	138	stimuli_target_diamondsquares.svg	stimuli_distractor_diamondtriangles.svg	24	yes	57	0	444
6.6.1	mac	2022-12-30	19:52:26	20:02:57	629842	5ffef0a1255d0c5fd3bdfd6a	451231504	1	main_slash	11	main_slash	139	stimuli_distractor_trianglediamonds.svg	stimuli_target_squarediamonds.svg	12	yes	53	1	929
6.6.1	mac	2022-12-30	19:52:26	20:02:57	629842	5ffef0a1255d0c5fd3bdfd6a	451231504	1	main_slash	11	advance_on_keypress_SLASH	140	stimuli_distractor_trianglediamonds.svg	stimuli_target_squarediamonds.svg	12	yes	57	0	549
6.6.1	mac	2022-12-30	19:52:26	20:02:59	631642	5ffef0a1255d0c5fd3bdfd6a	451231504	1	main_slash	11	main_slash	141	stimuli_target_circletriangles.svg	stimuli_distractor_diamondtriangles.svg	5	yes	53	1	627
6.6.1	mac	2022-12-30	19:52:26	20:02:59	631642	5ffef0a1255d0c5fd3bdfd6a	451231504	1	main_slash	11	advance_on_keypress_SLASH	142	stimuli_target_circletriangles.svg	stimuli_distractor_diamondtriangles.svg	5	yes	57	0	386
6.6.1	mac	2022-12-30	19:52:26	20:03:02	634651	5ffef0a1255d0c5fd3bdfd6a	451231504	1	main_slash	11	main_slash	143	stimuli_distractor_trianglediamonds.svg	stimuli_target_diamondcircles.svg	27	yes	0	0	2000
6.6.1	mac	2022-12-30	19:52:26	20:03:02	634651	5ffef0a1255d0c5fd3bdfd6a	451231504	1	main_slash	11	advance_on_keypress_SLASH	144	stimuli_distractor_trianglediamonds.svg	stimuli_target_diamondcircles.svg	27	yes	57	0	703
6.6.1	mac	2022-12-30	19:52:26	20:03:04	636616	5ffef0a1255d0c5fd3bdfd6a	451231504	1	main_slash	11	main_slash	145	stimuli_target_trianglecircles.svg	stimuli_distractor_trianglediamonds.svg	17	yes	53	1	629
6.6.1	mac	2022-12-30	19:52:26	20:03:04	636616	5ffef0a1255d0c5fd3bdfd6a	451231504	1	main_slash	11	advance_on_keypress_SLASH	146	stimuli_target_trianglecircles.svg	stimuli_distractor_trianglediamonds.svg	17	yes	57	0	557
6.6.1	mac	2022-12-30	19:52:26	20:03:06	638818	5ffef0a1255d0c5fd3bdfd6a	451231504	1	main_slash	11	main_slash	147	stimuli_distractor_trianglediamonds.svg	stimuli_target_trianglecircles.svg	25	yes	53	1	1029
6.6.1	mac	2022-12-30	19:52:26	20:03:06	638818	5ffef0a1255d0c5fd3bdfd6a	451231504	1	main_slash	11	advance_on_keypress_SLASH	148	stimuli_distractor_trianglediamonds.svg	stimuli_target_trianglecircles.svg	25	yes	57	0	527
6.6.1	mac	2022-12-30	19:52:26	20:03:08	640519	5ffef0a1255d0c5fd3bdfd6a	451231504	1	main_slash	11	main_slash	149	stimuli_distractor_diamondtriangles.svg	stimuli_target_squarediamonds.svg	16	yes	53	1	562
6.6.1	mac	2022-12-30	19:52:26	20:03:08	640519	5ffef0a1255d0c5fd3bdfd6a	451231504	1	main_slash	11	advance_on_keypress_SLASH	150	stimuli_distractor_diamondtriangles.svg	stimuli_target_squarediamonds.svg	16	yes	57	0	438
6.6.1	mac	2022-12-30	19:52:26	20:03:09	642136	5ffef0a1255d0c5fd3bdfd6a	451231504	1	main_slash	11	main_slash	151	stimuli_target_squarediamonds.svg	stimuli_distractor_trianglediamonds.svg	4	yes	53	1	560
6.6.1	mac	2022-12-30	19:52:26	20:03:09	642136	5ffef0a1255d0c5fd3bdfd6a	451231504	1	main_slash	11	advance_on_keypress_SLASH	152	stimuli_target_squarediamonds.svg	stimuli_distractor_trianglediamonds.svg	4	yes	57	0	405
6.6.1	mac	2022-12-30	19:52:26	20:03:11	643751	5ffef0a1255d0c5fd3bdfd6a	451231504	1	main_slash	11	main_slash	153	stimuli_target_trianglecircles.svg	stimuli_distractor_diamondtriangles.svg	21	yes	53	1	590
6.6.1	mac	2022-12-30	19:52:26	20:03:11	643751	5ffef0a1255d0c5fd3bdfd6a	451231504	1	main_slash	11	advance_on_keypress_SLASH	154	stimuli_target_trianglecircles.svg	stimuli_distractor_diamondtriangles.svg	21	yes	57	0	401
6.6.1	mac	2022-12-30	19:52:26	20:03:12	645416	5ffef0a1255d0c5fd3bdfd6a	451231504	1	main_slash	11	main_slash	155	stimuli_target_diamondcircles.svg	stimuli_distractor_diamondtriangles.svg	23	yes	53	1	637
6.6.1	mac	2022-12-30	19:52:26	20:03:12	645416	5ffef0a1255d0c5fd3bdfd6a	451231504	1	main_slash	11	advance_on_keypress_SLASH	156	stimuli_target_diamondcircles.svg	stimuli_distractor_diamondtriangles.svg	23	yes	57	0	304
6.6.1	mac	2022-12-30	19:52:26	20:03:15	648348	5ffef0a1255d0c5fd3bdfd6a	451231504	1	main_slash	11	main_slash	157	stimuli_distractor_diamondtriangles.svg	stimuli_distractor_diamondtriangles.svg	39	no	0	1	2000
6.6.1	mac	2022-12-30	19:52:26	20:03:15	648348	5ffef0a1255d0c5fd3bdfd6a	451231504	1	main_slash	11	advance_on_keypress_SLASH	158	stimuli_distractor_diamondtriangles.svg	stimuli_distractor_diamondtriangles.svg	39	no	57	0	458
6.6.1	mac	2022-12-30	19:52:26	20:03:17	649982	5ffef0a1255d0c5fd3bdfd6a	451231504	1	main_slash	11	main_slash	159	stimuli_distractor_diamondtriangles.svg	stimuli_target_diamondcircles.svg	31	yes	53	1	548
6.6.1	mac	2022-12-30	19:52:26	20:03:17	649982	5ffef0a1255d0c5fd3bdfd6a	451231504	1	main_slash	11	advance_on_keypress_SLASH	160	stimuli_distractor_diamondtriangles.svg	stimuli_target_diamondcircles.svg	31	yes	57	0	619