build	computer.platform	date	time	timestamp	time_elapsed_ms	subject	group	session	blockcode	blocknum	trialcode	trialnum	stimulus_left	stimulus_right	stim_index	target_present	response	correct	latency
6.6.1	win	2022-12-14	14:25:43	14:27:23	98186	558955ebfdf99b6bd06016c9	577092183	1	practice_slash	5	practice_slash	1	stimuli_distractor_diamondtriangles.svg	stimuli_target_circletriangles.svg	7	yes	53	1	567
6.6.1	win	2022-12-14	14:25:43	14:27:23	98186	558955ebfdf99b6bd06016c9	577092183	1	practice_slash	5	advance_on_keypress_SLASH	2	stimuli_distractor_diamondtriangles.svg	stimuli_target_circletriangles.svg	7	yes	57	0	1059
6.6.1	win	2022-12-14	14:25:43	14:27:27	101596	558955ebfdf99b6bd06016c9	577092183	1	practice_slash	5	practice_slash	3	stimuli_target_squarediamonds.svg	stimuli_distractor_trianglediamonds.svg	5	yes	53	1	680
6.6.1	win	2022-12-14	14:25:43	14:27:27	101596	558955ebfdf99b6bd06016c9	577092183	1	practice_slash	5	advance_on_keypress_SLASH	4	stimuli_target_squarediamonds.svg	stimuli_distractor_trianglediamonds.svg	5	yes	57	0	503
6.6.1	win	2022-12-14	14:25:43	14:27:31	105746	558955ebfdf99b6bd06016c9	577092183	1	practice_slash	5	practice_slash	5	stimuli_distractor_trianglediamonds.svg	stimuli_distractor_diamondtriangles.svg	16	no	0	1	2000
6.6.1	win	2022-12-14	14:25:43	14:27:31	105746	558955ebfdf99b6bd06016c9	577092183	1	practice_slash	5	advance_on_keypress_SLASH	6	stimuli_distractor_trianglediamonds.svg	stimuli_distractor_diamondtriangles.svg	16	no	57	0	1498
6.6.1	win	2022-12-14	14:25:43	14:27:35	109567	558955ebfdf99b6bd06016c9	577092183	1	practice_slash	5	practice_slash	7	stimuli_target_squarediamonds.svg	stimuli_distractor_diamondtriangles.svg	2	yes	53	1	677
6.6.1	win	2022-12-14	14:25:43	14:27:35	109567	558955ebfdf99b6bd06016c9	577092183	1	practice_slash	5	advance_on_keypress_SLASH	8	stimuli_target_squarediamonds.svg	stimuli_distractor_diamondtriangles.svg	2	yes	57	0	486
6.6.1	win	2022-12-14	14:25:43	14:27:37	112276	558955ebfdf99b6bd06016c9	577092183	1	practice_slash	5	practice_slash	9	stimuli_distractor_diamondtriangles.svg	stimuli_target_trianglecircles.svg	9	yes	53	1	573
6.6.1	win	2022-12-14	14:25:43	14:27:37	112276	558955ebfdf99b6bd06016c9	577092183	1	practice_slash	5	advance_on_keypress_SLASH	10	stimuli_distractor_diamondtriangles.svg	stimuli_target_trianglecircles.svg	9	yes	57	0	455
6.6.1	win	2022-12-14	14:25:43	14:27:41	116367	558955ebfdf99b6bd06016c9	577092183	1	practice_slash	5	practice_slash	11	stimuli_distractor_trianglediamonds.svg	stimuli_distractor_trianglediamonds.svg	15	no	0	1	2000
6.6.1	win	2022-12-14	14:25:43	14:27:41	116367	558955ebfdf99b6bd06016c9	577092183	1	practice_slash	5	advance_on_keypress_SLASH	12	stimuli_distractor_trianglediamonds.svg	stimuli_distractor_trianglediamonds.svg	15	no	57	0	543
6.6.1	win	2022-12-14	14:25:43	14:27:44	119122	558955ebfdf99b6bd06016c9	577092183	1	practice_slash	5	practice_slash	13	stimuli_distractor_trianglediamonds.svg	stimuli_target_circlediamonds.svg	10	yes	53	1	560
6.6.1	win	2022-12-14	14:25:43	14:27:44	119122	558955ebfdf99b6bd06016c9	577092183	1	practice_slash	5	advance_on_keypress_SLASH	14	stimuli_distractor_trianglediamonds.svg	stimuli_target_circlediamonds.svg	10	yes	57	0	674
6.6.1	win	2022-12-14	14:25:43	14:27:47	122022	558955ebfdf99b6bd06016c9	577092183	1	practice_slash	5	practice_slash	15	stimuli_target_circlediamonds.svg	stimuli_distractor_trianglediamonds.svg	4	yes	53	1	579
6.6.1	win	2022-12-14	14:25:43	14:27:47	122022	558955ebfdf99b6bd06016c9	577092183	1	practice_slash	5	advance_on_keypress_SLASH	16	stimuli_target_circlediamonds.svg	stimuli_distractor_trianglediamonds.svg	4	yes	57	0	436
6.6.1	win	2022-12-14	14:25:43	14:27:50	124700	558955ebfdf99b6bd06016c9	577092183	1	practice_slash	5	practice_slash	17	stimuli_distractor_trianglediamonds.svg	stimuli_target_squarediamonds.svg	11	yes	53	1	595
6.6.1	win	2022-12-14	14:25:43	14:27:50	124700	558955ebfdf99b6bd06016c9	577092183	1	practice_slash	5	advance_on_keypress_SLASH	18	stimuli_distractor_trianglediamonds.svg	stimuli_target_squarediamonds.svg	11	yes	57	0	420
6.6.1	win	2022-12-14	14:25:43	14:27:53	127475	558955ebfdf99b6bd06016c9	577092183	1	practice_slash	5	practice_slash	19	stimuli_distractor_trianglediamonds.svg	stimuli_target_diamondcircles.svg	12	yes	53	1	706
6.6.1	win	2022-12-14	14:25:43	14:27:53	127475	558955ebfdf99b6bd06016c9	577092183	1	practice_slash	5	advance_on_keypress_SLASH	20	stimuli_distractor_trianglediamonds.svg	stimuli_target_diamondcircles.svg	12	yes	57	0	443
6.6.1	win	2022-12-14	14:25:43	14:27:57	131566	558955ebfdf99b6bd06016c9	577092183	1	practice_slash	5	practice_slash	21	stimuli_target_diamondsquares.svg	stimuli_distractor_trianglediamonds.svg	6	yes	0	0	2000
6.6.1	win	2022-12-14	14:25:43	14:27:57	131566	558955ebfdf99b6bd06016c9	577092183	1	practice_slash	5	advance_on_keypress_SLASH	22	stimuli_target_diamondsquares.svg	stimuli_distractor_trianglediamonds.svg	6	yes	57	0	507
6.6.1	win	2022-12-14	14:25:43	14:27:59	134290	558955ebfdf99b6bd06016c9	577092183	1	practice_slash	5	practice_slash	23	stimuli_target_circlediamonds.svg	stimuli_distractor_diamondtriangles.svg	1	yes	53	1	578
6.6.1	win	2022-12-14	14:25:43	14:27:59	134290	558955ebfdf99b6bd06016c9	577092183	1	practice_slash	5	advance_on_keypress_SLASH	24	stimuli_target_circlediamonds.svg	stimuli_distractor_diamondtriangles.svg	1	yes	57	0	448
6.6.1	win	2022-12-14	14:25:43	14:28:02	137282	558955ebfdf99b6bd06016c9	577092183	1	practice_slash	5	practice_slash	25	stimuli_target_diamondsquares.svg	stimuli_distractor_diamondtriangles.svg	3	yes	53	1	890
6.6.1	win	2022-12-14	14:25:43	14:28:02	137282	558955ebfdf99b6bd06016c9	577092183	1	practice_slash	5	advance_on_keypress_SLASH	26	stimuli_target_diamondsquares.svg	stimuli_distractor_diamondtriangles.svg	3	yes	57	0	389
6.6.1	win	2022-12-14	14:25:43	14:28:06	141322	558955ebfdf99b6bd06016c9	577092183	1	practice_slash	5	practice_slash	27	stimuli_distractor_diamondtriangles.svg	stimuli_distractor_trianglediamonds.svg	14	no	0	1	2000
6.6.1	win	2022-12-14	14:25:43	14:28:06	141322	558955ebfdf99b6bd06016c9	577092183	1	practice_slash	5	advance_on_keypress_SLASH	28	stimuli_distractor_diamondtriangles.svg	stimuli_distractor_trianglediamonds.svg	14	no	57	0	384
6.6.1	win	2022-12-14	14:25:43	14:28:10	145351	558955ebfdf99b6bd06016c9	577092183	1	practice_slash	5	practice_slash	29	stimuli_distractor_diamondtriangles.svg	stimuli_distractor_diamondtriangles.svg	13	no	0	1	2000
6.6.1	win	2022-12-14	14:25:43	14:28:10	145351	558955ebfdf99b6bd06016c9	577092183	1	practice_slash	5	advance_on_keypress_SLASH	30	stimuli_distractor_diamondtriangles.svg	stimuli_distractor_diamondtriangles.svg	13	no	57	0	352
6.6.1	win	2022-12-14	14:25:43	14:28:13	147951	558955ebfdf99b6bd06016c9	577092183	1	practice_slash	5	practice_slash	31	stimuli_distractor_diamondtriangles.svg	stimuli_target_diamondcircles.svg	8	yes	53	1	604
6.6.1	win	2022-12-14	14:25:43	14:28:13	147951	558955ebfdf99b6bd06016c9	577092183	1	practice_slash	5	advance_on_keypress_SLASH	32	stimuli_distractor_diamondtriangles.svg	stimuli_target_diamondcircles.svg	8	yes	57	0	425
6.6.1	win	2022-12-14	14:25:43	14:28:25	160366	558955ebfdf99b6bd06016c9	577092183	1	main_slash	7	main_slash	1	stimuli_distractor_trianglediamonds.svg	stimuli_target_squaretriangles.svg	11	yes	53	1	554
6.6.1	win	2022-12-14	14:25:43	14:28:25	160366	558955ebfdf99b6bd06016c9	577092183	1	main_slash	7	advance_on_keypress_SLASH	2	stimuli_distractor_trianglediamonds.svg	stimuli_target_squaretriangles.svg	11	yes	57	0	859
6.6.1	win	2022-12-14	14:25:43	14:28:27	162331	558955ebfdf99b6bd06016c9	577092183	1	main_slash	7	main_slash	3	stimuli_distractor_diamondtriangles.svg	stimuli_target_trianglecircles.svg	29	yes	53	1	472
6.6.1	win	2022-12-14	14:25:43	14:28:27	162331	558955ebfdf99b6bd06016c9	577092183	1	main_slash	7	advance_on_keypress_SLASH	4	stimuli_distractor_diamondtriangles.svg	stimuli_target_trianglecircles.svg	29	yes	57	0	519
6.6.1	win	2022-12-14	14:25:43	14:28:29	164006	558955ebfdf99b6bd06016c9	577092183	1	main_slash	7	main_slash	5	stimuli_target_squaretriangles.svg	stimuli_distractor_diamondtriangles.svg	7	yes	53	1	515
6.6.1	win	2022-12-14	14:25:43	14:28:29	164006	558955ebfdf99b6bd06016c9	577092183	1	main_slash	7	advance_on_keypress_SLASH	6	stimuli_target_squaretriangles.svg	stimuli_distractor_diamondtriangles.svg	7	yes	57	0	421
6.6.1	win	2022-12-14	14:25:43	14:28:31	165699	558955ebfdf99b6bd06016c9	577092183	1	main_slash	7	main_slash	7	stimuli_target_diamondsquares.svg	stimuli_distractor_diamondtriangles.svg	24	yes	53	1	626
6.6.1	win	2022-12-14	14:25:43	14:28:31	165699	558955ebfdf99b6bd06016c9	577092183	1	main_slash	7	advance_on_keypress_SLASH	8	stimuli_target_diamondsquares.svg	stimuli_distractor_diamondtriangles.svg	24	yes	57	0	345
6.6.1	win	2022-12-14	14:25:43	14:28:32	167458	558955ebfdf99b6bd06016c9	577092183	1	main_slash	7	main_slash	9	stimuli_distractor_diamondtriangles.svg	stimuli_target_diamondsquares.svg	32	yes	53	1	754
6.6.1	win	2022-12-14	14:25:43	14:28:32	167458	558955ebfdf99b6bd06016c9	577092183	1	main_slash	7	advance_on_keypress_SLASH	10	stimuli_distractor_diamondtriangles.svg	stimuli_target_diamondsquares.svg	32	yes	57	0	383
6.6.1	win	2022-12-14	14:25:43	14:28:34	169248	558955ebfdf99b6bd06016c9	577092183	1	main_slash	7	main_slash	11	stimuli_distractor_trianglediamonds.svg	stimuli_target_trianglesquares.svg	26	yes	53	1	763
6.6.1	win	2022-12-14	14:25:43	14:28:34	169248	558955ebfdf99b6bd06016c9	577092183	1	main_slash	7	advance_on_keypress_SLASH	12	stimuli_distractor_trianglediamonds.svg	stimuli_target_trianglesquares.svg	26	yes	57	0	339
6.6.1	win	2022-12-14	14:25:43	14:28:37	172234	558955ebfdf99b6bd06016c9	577092183	1	main_slash	7	main_slash	13	stimuli_distractor_trianglediamonds.svg	stimuli_distractor_diamondtriangles.svg	36	no	0	1	2000
6.6.1	win	2022-12-14	14:25:43	14:28:37	172234	558955ebfdf99b6bd06016c9	577092183	1	main_slash	7	advance_on_keypress_SLASH	14	stimuli_distractor_trianglediamonds.svg	stimuli_distractor_diamondtriangles.svg	36	no	57	0	308
6.6.1	win	2022-12-14	14:25:43	14:28:40	175181	558955ebfdf99b6bd06016c9	577092183	1	main_slash	7	main_slash	15	stimuli_distractor_diamondtriangles.svg	stimuli_distractor_trianglediamonds.svg	38	no	0	1	2000
6.6.1	win	2022-12-14	14:25:43	14:28:40	175181	558955ebfdf99b6bd06016c9	577092183	1	main_slash	7	advance_on_keypress_SLASH	16	stimuli_distractor_diamondtriangles.svg	stimuli_distractor_trianglediamonds.svg	38	no	57	0	244
6.6.1	win	2022-12-14	14:25:43	14:28:42	176660	558955ebfdf99b6bd06016c9	577092183	1	main_slash	7	main_slash	17	stimuli_distractor_trianglediamonds.svg	stimuli_target_circletriangles.svg	9	yes	53	1	600
6.6.1	win	2022-12-14	14:25:43	14:28:42	176660	558955ebfdf99b6bd06016c9	577092183	1	main_slash	7	advance_on_keypress_SLASH	18	stimuli_distractor_trianglediamonds.svg	stimuli_target_circletriangles.svg	9	yes	57	0	337
6.6.1	win	2022-12-14	14:25:43	14:28:45	179642	558955ebfdf99b6bd06016c9	577092183	1	main_slash	7	main_slash	19	stimuli_distractor_trianglediamonds.svg	stimuli_distractor_diamondtriangles.svg	35	no	0	1	2000
6.6.1	win	2022-12-14	14:25:43	14:28:45	179642	558955ebfdf99b6bd06016c9	577092183	1	main_slash	7	advance_on_keypress_SLASH	20	stimuli_distractor_trianglediamonds.svg	stimuli_distractor_diamondtriangles.svg	35	no	57	0	478
6.6.1	win	2022-12-14	14:25:43	14:28:46	181463	558955ebfdf99b6bd06016c9	577092183	1	main_slash	7	main_slash	21	stimuli_target_squaretriangles.svg	stimuli_distractor_trianglediamonds.svg	3	yes	53	1	691
6.6.1	win	2022-12-14	14:25:43	14:28:46	181463	558955ebfdf99b6bd06016c9	577092183	1	main_slash	7	advance_on_keypress_SLASH	22	stimuli_target_squaretriangles.svg	stimuli_distractor_trianglediamonds.svg	3	yes	57	0	301
6.6.1	win	2022-12-14	14:25:43	14:28:48	183096	558955ebfdf99b6bd06016c9	577092183	1	main_slash	7	main_slash	23	stimuli_distractor_trianglediamonds.svg	stimuli_target_trianglecircles.svg	25	yes	53	1	694
6.6.1	win	2022-12-14	14:25:43	14:28:48	183096	558955ebfdf99b6bd06016c9	577092183	1	main_slash	7	advance_on_keypress_SLASH	24	stimuli_distractor_trianglediamonds.svg	stimuli_target_trianglecircles.svg	25	yes	57	0	342
6.6.1	win	2022-12-14	14:25:43	14:28:50	184853	558955ebfdf99b6bd06016c9	577092183	1	main_slash	7	main_slash	25	stimuli_target_circletriangles.svg	stimuli_distractor_trianglediamonds.svg	1	yes	53	1	769
6.6.1	win	2022-12-14	14:25:43	14:28:50	184853	558955ebfdf99b6bd06016c9	577092183	1	main_slash	7	advance_on_keypress_SLASH	26	stimuli_target_circletriangles.svg	stimuli_distractor_trianglediamonds.svg	1	yes	57	0	301
6.6.1	win	2022-12-14	14:25:43	14:28:52	187064	558955ebfdf99b6bd06016c9	577092183	1	main_slash	7	main_slash	27	stimuli_distractor_trianglediamonds.svg	stimuli_target_diamondsquares.svg	28	yes	53	1	1265
6.6.1	win	2022-12-14	14:25:43	14:28:52	187064	558955ebfdf99b6bd06016c9	577092183	1	main_slash	7	advance_on_keypress_SLASH	28	stimuli_distractor_trianglediamonds.svg	stimuli_target_diamondsquares.svg	28	yes	57	0	270
6.6.1	win	2022-12-14	14:25:43	14:28:54	188770	558955ebfdf99b6bd06016c9	577092183	1	main_slash	7	main_slash	29	stimuli_target_diamondsquares.svg	stimuli_distractor_trianglediamonds.svg	20	yes	53	1	790
6.6.1	win	2022-12-14	14:25:43	14:28:54	188770	558955ebfdf99b6bd06016c9	577092183	1	main_slash	7	advance_on_keypress_SLASH	30	stimuli_target_diamondsquares.svg	stimuli_distractor_trianglediamonds.svg	20	yes	57	0	252
6.6.1	win	2022-12-14	14:25:43	14:28:55	190410	558955ebfdf99b6bd06016c9	577092183	1	main_slash	7	main_slash	31	stimuli_target_circlediamonds.svg	stimuli_distractor_trianglediamonds.svg	2	yes	53	1	733
6.6.1	win	2022-12-14	14:25:43	14:28:55	190410	558955ebfdf99b6bd06016c9	577092183	1	main_slash	7	advance_on_keypress_SLASH	32	stimuli_target_circlediamonds.svg	stimuli_distractor_trianglediamonds.svg	2	yes	57	0	294
6.6.1	win	2022-12-14	14:25:43	14:28:58	193343	558955ebfdf99b6bd06016c9	577092183	1	main_slash	7	main_slash	33	stimuli_distractor_trianglediamonds.svg	stimuli_distractor_trianglediamonds.svg	34	no	0	1	2000
6.6.1	win	2022-12-14	14:25:43	14:28:58	193343	558955ebfdf99b6bd06016c9	577092183	1	main_slash	7	advance_on_keypress_SLASH	34	stimuli_distractor_trianglediamonds.svg	stimuli_distractor_trianglediamonds.svg	34	no	57	0	277
6.6.1	win	2022-12-14	14:25:43	14:29:00	194838	558955ebfdf99b6bd06016c9	577092183	1	main_slash	7	main_slash	35	stimuli_distractor_diamondtriangles.svg	stimuli_target_circlediamonds.svg	14	yes	53	1	566
6.6.1	win	2022-12-14	14:25:43	14:29:00	194838	558955ebfdf99b6bd06016c9	577092183	1	main_slash	7	advance_on_keypress_SLASH	36	stimuli_distractor_diamondtriangles.svg	stimuli_target_circlediamonds.svg	14	yes	57	0	397
6.6.1	win	2022-12-14	14:25:43	14:29:02	196642	558955ebfdf99b6bd06016c9	577092183	1	main_slash	7	main_slash	37	stimuli_target_circletriangles.svg	stimuli_distractor_diamondtriangles.svg	5	yes	53	1	754
6.6.1	win	2022-12-14	14:25:43	14:29:02	196642	558955ebfdf99b6bd06016c9	577092183	1	main_slash	7	advance_on_keypress_SLASH	38	stimuli_target_circletriangles.svg	stimuli_distractor_diamondtriangles.svg	5	yes	57	0	342
6.6.1	win	2022-12-14	14:25:43	14:29:05	199619	558955ebfdf99b6bd06016c9	577092183	1	main_slash	7	main_slash	39	stimuli_distractor_diamondtriangles.svg	stimuli_distractor_trianglediamonds.svg	37	no	0	1	2000
6.6.1	win	2022-12-14	14:25:43	14:29:05	199619	558955ebfdf99b6bd06016c9	577092183	1	main_slash	7	advance_on_keypress_SLASH	40	stimuli_distractor_diamondtriangles.svg	stimuli_distractor_trianglediamonds.svg	37	no	57	0	2995
6.6.1	win	2022-12-14	14:25:43	14:29:10	205262	558955ebfdf99b6bd06016c9	577092183	1	main_slash	7	main_slash	41	stimuli_distractor_diamondtriangles.svg	stimuli_distractor_diamondtriangles.svg	39	no	0	1	2000
6.6.1	win	2022-12-14	14:25:43	14:29:10	205262	558955ebfdf99b6bd06016c9	577092183	1	main_slash	7	advance_on_keypress_SLASH	42	stimuli_distractor_diamondtriangles.svg	stimuli_distractor_diamondtriangles.svg	39	no	57	0	284
6.6.1	win	2022-12-14	14:25:43	14:29:12	206744	558955ebfdf99b6bd06016c9	577092183	1	main_slash	7	main_slash	43	stimuli_distractor_diamondtriangles.svg	stimuli_target_squarediamonds.svg	16	yes	53	1	552
6.6.1	win	2022-12-14	14:25:43	14:29:12	206744	558955ebfdf99b6bd06016c9	577092183	1	main_slash	7	advance_on_keypress_SLASH	44	stimuli_distractor_diamondtriangles.svg	stimuli_target_squarediamonds.svg	16	yes	57	0	339
6.6.1	win	2022-12-14	14:25:43	14:29:13	208450	558955ebfdf99b6bd06016c9	577092183	1	main_slash	7	main_slash	45	stimuli_target_circlediamonds.svg	stimuli_distractor_diamondtriangles.svg	6	yes	53	1	726
6.6.1	win	2022-12-14	14:25:43	14:29:13	208450	558955ebfdf99b6bd06016c9	577092183	1	main_slash	7	advance_on_keypress_SLASH	46	stimuli_target_circlediamonds.svg	stimuli_distractor_diamondtriangles.svg	6	yes	57	0	289
6.6.1	win	2022-12-14	14:25:43	14:29:15	210044	558955ebfdf99b6bd06016c9	577092183	1	main_slash	7	main_slash	47	stimuli_distractor_diamondtriangles.svg	stimuli_target_trianglesquares.svg	30	yes	53	1	655
6.6.1	win	2022-12-14	14:25:43	14:29:15	210044	558955ebfdf99b6bd06016c9	577092183	1	main_slash	7	advance_on_keypress_SLASH	48	stimuli_distractor_diamondtriangles.svg	stimuli_target_trianglesquares.svg	30	yes	57	0	259
6.6.1	win	2022-12-14	14:25:43	14:29:17	211615	558955ebfdf99b6bd06016c9	577092183	1	main_slash	7	main_slash	49	stimuli_distractor_trianglediamonds.svg	stimuli_target_circlediamonds.svg	10	yes	53	1	678
6.6.1	win	2022-12-14	14:25:43	14:29:17	211615	558955ebfdf99b6bd06016c9	577092183	1	main_slash	7	advance_on_keypress_SLASH	50	stimuli_distractor_trianglediamonds.svg	stimuli_target_circlediamonds.svg	10	yes	57	0	232
6.6.1	win	2022-12-14	14:25:43	14:29:18	213103	558955ebfdf99b6bd06016c9	577092183	1	main_slash	7	main_slash	51	stimuli_distractor_diamondtriangles.svg	stimuli_target_diamondcircles.svg	31	yes	53	1	602
6.6.1	win	2022-12-14	14:25:43	14:29:18	213103	558955ebfdf99b6bd06016c9	577092183	1	main_slash	7	advance_on_keypress_SLASH	52	stimuli_distractor_diamondtriangles.svg	stimuli_target_diamondcircles.svg	31	yes	57	0	250
6.6.1	win	2022-12-14	14:25:43	14:29:20	214594	558955ebfdf99b6bd06016c9	577092183	1	main_slash	7	main_slash	53	stimuli_target_diamondcircles.svg	stimuli_distractor_trianglediamonds.svg	19	yes	53	1	593
6.6.1	win	2022-12-14	14:25:43	14:29:20	214594	558955ebfdf99b6bd06016c9	577092183	1	main_slash	7	advance_on_keypress_SLASH	54	stimuli_target_diamondcircles.svg	stimuli_distractor_trianglediamonds.svg	19	yes	57	0	244
6.6.1	win	2022-12-14	14:25:43	14:29:21	216135	558955ebfdf99b6bd06016c9	577092183	1	main_slash	7	main_slash	55	stimuli_distractor_diamondtriangles.svg	stimuli_target_squaretriangles.svg	15	yes	53	1	637
6.6.1	win	2022-12-14	14:25:43	14:29:21	216135	558955ebfdf99b6bd06016c9	577092183	1	main_slash	7	advance_on_keypress_SLASH	56	stimuli_distractor_diamondtriangles.svg	stimuli_target_squaretriangles.svg	15	yes	57	0	234
6.6.1	win	2022-12-14	14:25:43	14:29:24	219014	558955ebfdf99b6bd06016c9	577092183	1	main_slash	7	main_slash	57	stimuli_distractor_trianglediamonds.svg	stimuli_distractor_trianglediamonds.svg	33	no	0	1	2000
6.6.1	win	2022-12-14	14:25:43	14:29:24	219014	558955ebfdf99b6bd06016c9	577092183	1	main_slash	7	advance_on_keypress_SLASH	58	stimuli_distractor_trianglediamonds.svg	stimuli_distractor_trianglediamonds.svg	33	no	57	0	238
6.6.1	win	2022-12-14	14:25:43	14:29:25	220445	558955ebfdf99b6bd06016c9	577092183	1	main_slash	7	main_slash	59	stimuli_target_squarediamonds.svg	stimuli_distractor_diamondtriangles.svg	8	yes	53	1	552
6.6.1	win	2022-12-14	14:25:43	14:29:25	220445	558955ebfdf99b6bd06016c9	577092183	1	main_slash	7	advance_on_keypress_SLASH	60	stimuli_target_squarediamonds.svg	stimuli_distractor_diamondtriangles.svg	8	yes	57	0	241
6.6.1	win	2022-12-14	14:25:43	14:29:27	221942	558955ebfdf99b6bd06016c9	577092183	1	main_slash	7	main_slash	61	stimuli_distractor_trianglediamonds.svg	stimuli_target_diamondcircles.svg	27	yes	53	1	616
6.6.1	win	2022-12-14	14:25:43	14:29:27	221942	558955ebfdf99b6bd06016c9	577092183	1	main_slash	7	advance_on_keypress_SLASH	62	stimuli_distractor_trianglediamonds.svg	stimuli_target_diamondcircles.svg	27	yes	57	0	236
6.6.1	win	2022-12-14	14:25:43	14:29:28	223456	558955ebfdf99b6bd06016c9	577092183	1	main_slash	7	main_slash	63	stimuli_target_diamondcircles.svg	stimuli_distractor_diamondtriangles.svg	23	yes	53	1	633
6.6.1	win	2022-12-14	14:25:43	14:29:28	223456	558955ebfdf99b6bd06016c9	577092183	1	main_slash	7	advance_on_keypress_SLASH	64	stimuli_target_diamondcircles.svg	stimuli_distractor_diamondtriangles.svg	23	yes	57	0	259
6.6.1	win	2022-12-14	14:25:43	14:29:30	225025	558955ebfdf99b6bd06016c9	577092183	1	main_slash	7	main_slash	65	stimuli_distractor_trianglediamonds.svg	stimuli_target_squarediamonds.svg	12	yes	53	1	670
6.6.1	win	2022-12-14	14:25:43	14:29:30	225025	558955ebfdf99b6bd06016c9	577092183	1	main_slash	7	advance_on_keypress_SLASH	66	stimuli_distractor_trianglediamonds.svg	stimuli_target_squarediamonds.svg	12	yes	57	0	231
6.6.1	win	2022-12-14	14:25:43	14:29:31	226462	558955ebfdf99b6bd06016c9	577092183	1	main_slash	7	main_slash	67	stimuli_target_trianglecircles.svg	stimuli_distractor_diamondtriangles.svg	21	yes	53	1	558
6.6.1	win	2022-12-14	14:25:43	14:29:31	226462	558955ebfdf99b6bd06016c9	577092183	1	main_slash	7	advance_on_keypress_SLASH	68	stimuli_target_trianglecircles.svg	stimuli_distractor_diamondtriangles.svg	21	yes	57	0	224
6.6.1	win	2022-12-14	14:25:43	14:29:33	227916	558955ebfdf99b6bd06016c9	577092183	1	main_slash	7	main_slash	69	stimuli_target_trianglecircles.svg	stimuli_distractor_trianglediamonds.svg	17	yes	53	1	597
6.6.1	win	2022-12-14	14:25:43	14:29:33	227916	558955ebfdf99b6bd06016c9	577092183	1	main_slash	7	advance_on_keypress_SLASH	70	stimuli_target_trianglecircles.svg	stimuli_distractor_trianglediamonds.svg	17	yes	57	0	194
6.6.1	win	2022-12-14	14:25:43	14:29:36	230767	558955ebfdf99b6bd06016c9	577092183	1	main_slash	7	main_slash	71	stimuli_distractor_diamondtriangles.svg	stimuli_distractor_diamondtriangles.svg	40	no	0	1	2000
6.6.1	win	2022-12-14	14:25:43	14:29:36	230767	558955ebfdf99b6bd06016c9	577092183	1	main_slash	7	advance_on_keypress_SLASH	72	stimuli_distractor_diamondtriangles.svg	stimuli_distractor_diamondtriangles.svg	40	no	57	0	282
6.6.1	win	2022-12-14	14:25:43	14:29:37	232298	558955ebfdf99b6bd06016c9	577092183	1	main_slash	7	main_slash	73	stimuli_target_trianglesquares.svg	stimuli_distractor_diamondtriangles.svg	22	yes	53	1	601
6.6.1	win	2022-12-14	14:25:43	14:29:37	232298	558955ebfdf99b6bd06016c9	577092183	1	main_slash	7	advance_on_keypress_SLASH	74	stimuli_target_trianglesquares.svg	stimuli_distractor_diamondtriangles.svg	22	yes	57	0	298
6.6.1	win	2022-12-14	14:25:43	14:29:39	234189	558955ebfdf99b6bd06016c9	577092183	1	main_slash	7	main_slash	75	stimuli_target_squarediamonds.svg	stimuli_distractor_trianglediamonds.svg	4	yes	53	1	945
6.6.1	win	2022-12-14	14:25:43	14:29:39	234189	558955ebfdf99b6bd06016c9	577092183	1	main_slash	7	advance_on_keypress_SLASH	76	stimuli_target_squarediamonds.svg	stimuli_distractor_trianglediamonds.svg	4	yes	57	0	263
6.6.1	win	2022-12-14	14:25:43	14:29:41	235705	558955ebfdf99b6bd06016c9	577092183	1	main_slash	7	main_slash	77	stimuli_target_trianglesquares.svg	stimuli_distractor_trianglediamonds.svg	18	yes	53	1	595
6.6.1	win	2022-12-14	14:25:43	14:29:41	235705	558955ebfdf99b6bd06016c9	577092183	1	main_slash	7	advance_on_keypress_SLASH	78	stimuli_target_trianglesquares.svg	stimuli_distractor_trianglediamonds.svg	18	yes	57	0	209
6.6.1	win	2022-12-14	14:25:43	14:29:42	237189	558955ebfdf99b6bd06016c9	577092183	1	main_slash	7	main_slash	79	stimuli_distractor_diamondtriangles.svg	stimuli_target_circletriangles.svg	13	yes	53	1	631
6.6.1	win	2022-12-14	14:25:43	14:29:42	237189	558955ebfdf99b6bd06016c9	577092183	1	main_slash	7	advance_on_keypress_SLASH	80	stimuli_distractor_diamondtriangles.svg	stimuli_target_circletriangles.svg	13	yes	57	0	192
6.6.1	win	2022-12-14	14:25:43	14:29:44	239125	558955ebfdf99b6bd06016c9	577092183	1	main_slash	7	main_slash	81	stimuli_target_squaretriangles.svg	stimuli_distractor_trianglediamonds.svg	3	yes	53	1	1103
6.6.1	win	2022-12-14	14:25:43	14:29:44	239125	558955ebfdf99b6bd06016c9	577092183	1	main_slash	7	advance_on_keypress_SLASH	82	stimuli_target_squaretriangles.svg	stimuli_distractor_trianglediamonds.svg	3	yes	57	0	307
6.6.1	win	2022-12-14	14:25:43	14:29:46	240561	558955ebfdf99b6bd06016c9	577092183	1	main_slash	7	main_slash	83	stimuli_distractor_trianglediamonds.svg	stimuli_target_trianglecircles.svg	25	yes	53	1	490
6.6.1	win	2022-12-14	14:25:43	14:29:46	240561	558955ebfdf99b6bd06016c9	577092183	1	main_slash	7	advance_on_keypress_SLASH	84	stimuli_distractor_trianglediamonds.svg	stimuli_target_trianglecircles.svg	25	yes	57	0	230
6.6.1	win	2022-12-14	14:25:43	14:29:47	242021	558955ebfdf99b6bd06016c9	577092183	1	main_slash	7	main_slash	85	stimuli_target_circletriangles.svg	stimuli_distractor_diamondtriangles.svg	5	yes	53	1	586
6.6.1	win	2022-12-14	14:25:43	14:29:47	242021	558955ebfdf99b6bd06016c9	577092183	1	main_slash	7	advance_on_keypress_SLASH	86	stimuli_target_circletriangles.svg	stimuli_distractor_diamondtriangles.svg	5	yes	57	0	184
6.6.1	win	2022-12-14	14:25:43	14:29:49	243523	558955ebfdf99b6bd06016c9	577092183	1	main_slash	7	main_slash	87	stimuli_target_trianglesquares.svg	stimuli_distractor_diamondtriangles.svg	22	yes	53	1	673
6.6.1	win	2022-12-14	14:25:43	14:29:49	243523	558955ebfdf99b6bd06016c9	577092183	1	main_slash	7	advance_on_keypress_SLASH	88	stimuli_target_trianglesquares.svg	stimuli_distractor_diamondtriangles.svg	22	yes	57	0	201
6.6.1	win	2022-12-14	14:25:43	14:29:50	244933	558955ebfdf99b6bd06016c9	577092183	1	main_slash	7	main_slash	89	stimuli_distractor_trianglediamonds.svg	stimuli_target_circlediamonds.svg	10	yes	53	1	567
6.6.1	win	2022-12-14	14:25:43	14:29:50	244933	558955ebfdf99b6bd06016c9	577092183	1	main_slash	7	advance_on_keypress_SLASH	90	stimuli_distractor_trianglediamonds.svg	stimuli_target_circlediamonds.svg	10	yes	57	0	205
6.6.1	win	2022-12-14	14:25:43	14:29:52	246471	558955ebfdf99b6bd06016c9	577092183	1	main_slash	7	main_slash	91	stimuli_target_circletriangles.svg	stimuli_distractor_trianglediamonds.svg	1	yes	53	1	691
6.6.1	win	2022-12-14	14:25:43	14:29:52	246471	558955ebfdf99b6bd06016c9	577092183	1	main_slash	7	advance_on_keypress_SLASH	92	stimuli_target_circletriangles.svg	stimuli_distractor_trianglediamonds.svg	1	yes	57	0	161
6.6.1	win	2022-12-14	14:25:43	14:29:53	247916	558955ebfdf99b6bd06016c9	577092183	1	main_slash	7	main_slash	93	stimuli_distractor_trianglediamonds.svg	stimuli_target_squaretriangles.svg	11	yes	53	1	654
6.6.1	win	2022-12-14	14:25:43	14:29:53	247916	558955ebfdf99b6bd06016c9	577092183	1	main_slash	7	advance_on_keypress_SLASH	94	stimuli_distractor_trianglediamonds.svg	stimuli_target_squaretriangles.svg	11	yes	57	0	211
6.6.1	win	2022-12-14	14:25:43	14:29:55	249551	558955ebfdf99b6bd06016c9	577092183	1	main_slash	7	main_slash	95	stimuli_distractor_diamondtriangles.svg	stimuli_target_diamondsquares.svg	32	yes	53	1	791
6.6.1	win	2022-12-14	14:25:43	14:29:55	249551	558955ebfdf99b6bd06016c9	577092183	1	main_slash	7	advance_on_keypress_SLASH	96	stimuli_distractor_diamondtriangles.svg	stimuli_target_diamondsquares.svg	32	yes	57	0	197
6.6.1	win	2022-12-14	14:25:43	14:29:56	250979	558955ebfdf99b6bd06016c9	577092183	1	main_slash	7	main_slash	97	stimuli_distractor_diamondtriangles.svg	stimuli_target_squaretriangles.svg	15	yes	53	1	587
6.6.1	win	2022-12-14	14:25:43	14:29:56	250979	558955ebfdf99b6bd06016c9	577092183	1	main_slash	7	advance_on_keypress_SLASH	98	stimuli_distractor_diamondtriangles.svg	stimuli_target_squaretriangles.svg	15	yes	57	0	138
6.6.1	win	2022-12-14	14:25:43	14:29:57	252356	558955ebfdf99b6bd06016c9	577092183	1	main_slash	7	main_slash	99	stimuli_target_diamondcircles.svg	stimuli_distractor_trianglediamonds.svg	19	yes	53	1	598
6.6.1	win	2022-12-14	14:25:43	14:29:57	252356	558955ebfdf99b6bd06016c9	577092183	1	main_slash	7	advance_on_keypress_SLASH	100	stimuli_target_diamondcircles.svg	stimuli_distractor_trianglediamonds.svg	19	yes	57	0	157
6.6.1	win	2022-12-14	14:25:43	14:30:00	255155	558955ebfdf99b6bd06016c9	577092183	1	main_slash	7	main_slash	101	stimuli_distractor_diamondtriangles.svg	stimuli_distractor_diamondtriangles.svg	39	no	0	1	2000
6.6.1	win	2022-12-14	14:25:43	14:30:00	255155	558955ebfdf99b6bd06016c9	577092183	1	main_slash	7	advance_on_keypress_SLASH	102	stimuli_distractor_diamondtriangles.svg	stimuli_distractor_diamondtriangles.svg	39	no	57	0	249
6.6.1	win	2022-12-14	14:25:43	14:30:02	256483	558955ebfdf99b6bd06016c9	577092183	1	main_slash	7	main_slash	103	stimuli_distractor_diamondtriangles.svg	stimuli_target_diamondcircles.svg	31	yes	53	1	430
6.6.1	win	2022-12-14	14:25:43	14:30:02	256483	558955ebfdf99b6bd06016c9	577092183	1	main_slash	7	advance_on_keypress_SLASH	104	stimuli_distractor_diamondtriangles.svg	stimuli_target_diamondcircles.svg	31	yes	57	0	147
6.6.1	win	2022-12-14	14:25:43	14:30:03	257875	558955ebfdf99b6bd06016c9	577092183	1	main_slash	7	main_slash	105	stimuli_target_trianglesquares.svg	stimuli_distractor_trianglediamonds.svg	18	yes	53	1	592
6.6.1	win	2022-12-14	14:25:43	14:30:03	257875	558955ebfdf99b6bd06016c9	577092183	1	main_slash	7	advance_on_keypress_SLASH	106	stimuli_target_trianglesquares.svg	stimuli_distractor_trianglediamonds.svg	18	yes	57	0	166
6.6.1	win	2022-12-14	14:25:43	14:30:05	259629	558955ebfdf99b6bd06016c9	577092183	1	main_slash	7	main_slash	107	stimuli_target_squaretriangles.svg	stimuli_distractor_diamondtriangles.svg	7	yes	53	1	945
6.6.1	win	2022-12-14	14:25:43	14:30:05	259629	558955ebfdf99b6bd06016c9	577092183	1	main_slash	7	advance_on_keypress_SLASH	108	stimuli_target_squaretriangles.svg	stimuli_distractor_diamondtriangles.svg	7	yes	57	0	129
6.6.1	win	2022-12-14	14:25:43	14:30:06	260987	558955ebfdf99b6bd06016c9	577092183	1	main_slash	7	main_slash	109	stimuli_distractor_diamondtriangles.svg	stimuli_target_circletriangles.svg	13	yes	53	1	574
6.6.1	win	2022-12-14	14:25:43	14:30:06	260987	558955ebfdf99b6bd06016c9	577092183	1	main_slash	7	advance_on_keypress_SLASH	110	stimuli_distractor_diamondtriangles.svg	stimuli_target_circletriangles.svg	13	yes	57	0	143
6.6.1	win	2022-12-14	14:25:43	14:30:09	263762	558955ebfdf99b6bd06016c9	577092183	1	main_slash	7	main_slash	111	stimuli_distractor_diamondtriangles.svg	stimuli_distractor_diamondtriangles.svg	40	no	0	1	2000
6.6.1	win	2022-12-14	14:25:43	14:30:09	263762	558955ebfdf99b6bd06016c9	577092183	1	main_slash	7	advance_on_keypress_SLASH	112	stimuli_distractor_diamondtriangles.svg	stimuli_distractor_diamondtriangles.svg	40	no	57	0	279
6.6.1	win	2022-12-14	14:25:43	14:30:10	265245	558955ebfdf99b6bd06016c9	577092183	1	main_slash	7	main_slash	113	stimuli_distractor_trianglediamonds.svg	stimuli_target_diamondcircles.svg	27	yes	53	1	552
6.6.1	win	2022-12-14	14:25:43	14:30:10	265245	558955ebfdf99b6bd06016c9	577092183	1	main_slash	7	advance_on_keypress_SLASH	114	stimuli_distractor_trianglediamonds.svg	stimuli_target_diamondcircles.svg	27	yes	57	0	176
6.6.1	win	2022-12-14	14:25:43	14:30:12	266689	558955ebfdf99b6bd06016c9	577092183	1	main_slash	7	main_slash	115	stimuli_distractor_diamondtriangles.svg	stimuli_target_trianglecircles.svg	29	yes	53	1	615
6.6.1	win	2022-12-14	14:25:43	14:30:12	266689	558955ebfdf99b6bd06016c9	577092183	1	main_slash	7	advance_on_keypress_SLASH	116	stimuli_distractor_diamondtriangles.svg	stimuli_target_trianglecircles.svg	29	yes	57	0	137
6.6.1	win	2022-12-14	14:25:43	14:30:15	269473	558955ebfdf99b6bd06016c9	577092183	1	main_slash	7	main_slash	117	stimuli_distractor_trianglediamonds.svg	stimuli_distractor_trianglediamonds.svg	33	no	0	1	2000
6.6.1	win	2022-12-14	14:25:43	14:30:15	269473	558955ebfdf99b6bd06016c9	577092183	1	main_slash	7	advance_on_keypress_SLASH	118	stimuli_distractor_trianglediamonds.svg	stimuli_distractor_trianglediamonds.svg	33	no	57	0	396
6.6.1	win	2022-12-14	14:25:43	14:30:16	271097	558955ebfdf99b6bd06016c9	577092183	1	main_slash	7	main_slash	119	stimuli_distractor_trianglediamonds.svg	stimuli_target_circletriangles.svg	9	yes	53	1	579
6.6.1	win	2022-12-14	14:25:43	14:30:16	271097	558955ebfdf99b6bd06016c9	577092183	1	main_slash	7	advance_on_keypress_SLASH	120	stimuli_distractor_trianglediamonds.svg	stimuli_target_circletriangles.svg	9	yes	57	0	149
6.6.1	win	2022-12-14	14:25:43	14:30:18	272511	558955ebfdf99b6bd06016c9	577092183	1	main_slash	7	main_slash	121	stimuli_target_diamondcircles.svg	stimuli_distractor_diamondtriangles.svg	23	yes	53	1	610
6.6.1	win	2022-12-14	14:25:43	14:30:18	272511	558955ebfdf99b6bd06016c9	577092183	1	main_slash	7	advance_on_keypress_SLASH	122	stimuli_target_diamondcircles.svg	stimuli_distractor_diamondtriangles.svg	23	yes	57	0	168
6.6.1	win	2022-12-14	14:25:43	14:30:19	273934	558955ebfdf99b6bd06016c9	577092183	1	main_slash	7	main_slash	123	stimuli_target_circlediamonds.svg	stimuli_distractor_trianglediamonds.svg	2	yes	53	1	601
6.6.1	win	2022-12-14	14:25:43	14:30:19	273934	558955ebfdf99b6bd06016c9	577092183	1	main_slash	7	advance_on_keypress_SLASH	124	stimuli_target_circlediamonds.svg	stimuli_distractor_trianglediamonds.svg	2	yes	57	0	172
6.6.1	win	2022-12-14	14:25:43	14:30:20	275358	558955ebfdf99b6bd06016c9	577092183	1	main_slash	7	main_slash	125	stimuli_target_squarediamonds.svg	stimuli_distractor_diamondtriangles.svg	8	yes	53	1	610
6.6.1	win	2022-12-14	14:25:43	14:30:20	275358	558955ebfdf99b6bd06016c9	577092183	1	main_slash	7	advance_on_keypress_SLASH	126	stimuli_target_squarediamonds.svg	stimuli_distractor_diamondtriangles.svg	8	yes	57	0	171
6.6.1	win	2022-12-14	14:25:43	14:30:22	276818	558955ebfdf99b6bd06016c9	577092183	1	main_slash	7	main_slash	127	stimuli_distractor_diamondtriangles.svg	stimuli_target_circlediamonds.svg	14	yes	53	1	639
6.6.1	win	2022-12-14	14:25:43	14:30:22	276818	558955ebfdf99b6bd06016c9	577092183	1	main_slash	7	advance_on_keypress_SLASH	128	stimuli_distractor_diamondtriangles.svg	stimuli_target_circlediamonds.svg	14	yes	57	0	134
6.6.1	win	2022-12-14	14:25:43	14:30:25	279594	558955ebfdf99b6bd06016c9	577092183	1	main_slash	7	main_slash	129	stimuli_distractor_trianglediamonds.svg	stimuli_distractor_diamondtriangles.svg	35	no	0	1	2000
6.6.1	win	2022-12-14	14:25:43	14:30:25	279594	558955ebfdf99b6bd06016c9	577092183	1	main_slash	7	advance_on_keypress_SLASH	130	stimuli_distractor_trianglediamonds.svg	stimuli_distractor_diamondtriangles.svg	35	no	57	0	276
6.6.1	win	2022-12-14	14:25:43	14:30:28	282507	558955ebfdf99b6bd06016c9	577092183	1	main_slash	7	main_slash	131	stimuli_distractor_trianglediamonds.svg	stimuli_distractor_trianglediamonds.svg	34	no	0	1	2000
6.6.1	win	2022-12-14	14:25:43	14:30:28	282507	558955ebfdf99b6bd06016c9	577092183	1	main_slash	7	advance_on_keypress_SLASH	132	stimuli_distractor_trianglediamonds.svg	stimuli_distractor_trianglediamonds.svg	34	no	57	0	267
6.6.1	win	2022-12-14	14:25:43	14:30:30	285421	558955ebfdf99b6bd06016c9	577092183	1	main_slash	7	main_slash	133	stimuli_distractor_diamondtriangles.svg	stimuli_distractor_trianglediamonds.svg	37	no	0	1	2000
6.6.1	win	2022-12-14	14:25:43	14:30:30	285421	558955ebfdf99b6bd06016c9	577092183	1	main_slash	7	advance_on_keypress_SLASH	134	stimuli_distractor_diamondtriangles.svg	stimuli_distractor_trianglediamonds.svg	37	no	57	0	247
6.6.1	win	2022-12-14	14:25:43	14:30:32	286836	558955ebfdf99b6bd06016c9	577092183	1	main_slash	7	main_slash	135	stimuli_target_trianglecircles.svg	stimuli_distractor_trianglediamonds.svg	17	yes	53	1	519
6.6.1	win	2022-12-14	14:25:43	14:30:32	286836	558955ebfdf99b6bd06016c9	577092183	1	main_slash	7	advance_on_keypress_SLASH	136	stimuli_target_trianglecircles.svg	stimuli_distractor_trianglediamonds.svg	17	yes	57	0	153
6.6.1	win	2022-12-14	14:25:43	14:30:33	288276	558955ebfdf99b6bd06016c9	577092183	1	main_slash	7	main_slash	137	stimuli_target_diamondsquares.svg	stimuli_distractor_trianglediamonds.svg	20	yes	53	1	643
6.6.1	win	2022-12-14	14:25:43	14:30:33	288276	558955ebfdf99b6bd06016c9	577092183	1	main_slash	7	advance_on_keypress_SLASH	138	stimuli_target_diamondsquares.svg	stimuli_distractor_trianglediamonds.svg	20	yes	57	0	157
6.6.1	win	2022-12-14	14:25:43	14:30:35	289668	558955ebfdf99b6bd06016c9	577092183	1	main_slash	7	main_slash	139	stimuli_distractor_diamondtriangles.svg	stimuli_target_trianglesquares.svg	30	yes	53	1	604
6.6.1	win	2022-12-14	14:25:43	14:30:35	289668	558955ebfdf99b6bd06016c9	577092183	1	main_slash	7	advance_on_keypress_SLASH	140	stimuli_distractor_diamondtriangles.svg	stimuli_target_trianglesquares.svg	30	yes	57	0	116
6.6.1	win	2022-12-14	14:25:43	14:30:36	291028	558955ebfdf99b6bd06016c9	577092183	1	main_slash	7	main_slash	141	stimuli_target_diamondsquares.svg	stimuli_distractor_diamondtriangles.svg	24	yes	53	1	599
6.6.1	win	2022-12-14	14:25:43	14:30:36	291028	558955ebfdf99b6bd06016c9	577092183	1	main_slash	7	advance_on_keypress_SLASH	142	stimuli_target_diamondsquares.svg	stimuli_distractor_diamondtriangles.svg	24	yes	57	0	160
6.6.1	win	2022-12-14	14:25:43	14:30:37	292432	558955ebfdf99b6bd06016c9	577092183	1	main_slash	7	main_slash	143	stimuli_distractor_trianglediamonds.svg	stimuli_target_diamondsquares.svg	28	yes	53	1	588
6.6.1	win	2022-12-14	14:25:43	14:30:37	292432	558955ebfdf99b6bd06016c9	577092183	1	main_slash	7	advance_on_keypress_SLASH	144	stimuli_distractor_trianglediamonds.svg	stimuli_target_diamondsquares.svg	28	yes	57	0	153
6.6.1	win	2022-12-14	14:25:43	14:30:39	293861	558955ebfdf99b6bd06016c9	577092183	1	main_slash	7	main_slash	145	stimuli_distractor_trianglediamonds.svg	stimuli_target_trianglesquares.svg	26	yes	53	1	635
6.6.1	win	2022-12-14	14:25:43	14:30:39	293861	558955ebfdf99b6bd06016c9	577092183	1	main_slash	7	advance_on_keypress_SLASH	146	stimuli_distractor_trianglediamonds.svg	stimuli_target_trianglesquares.svg	26	yes	57	0	117
6.6.1	win	2022-12-14	14:25:43	14:30:40	295132	558955ebfdf99b6bd06016c9	577092183	1	main_slash	7	main_slash	147	stimuli_distractor_diamondtriangles.svg	stimuli_target_squarediamonds.svg	16	yes	53	1	507
6.6.1	win	2022-12-14	14:25:43	14:30:40	295132	558955ebfdf99b6bd06016c9	577092183	1	main_slash	7	advance_on_keypress_SLASH	148	stimuli_distractor_diamondtriangles.svg	stimuli_target_squarediamonds.svg	16	yes	57	0	155
6.6.1	win	2022-12-14	14:25:43	14:30:42	296488	558955ebfdf99b6bd06016c9	577092183	1	main_slash	7	main_slash	149	stimuli_target_circlediamonds.svg	stimuli_distractor_diamondtriangles.svg	6	yes	53	1	565
6.6.1	win	2022-12-14	14:25:43	14:30:42	296488	558955ebfdf99b6bd06016c9	577092183	1	main_slash	7	advance_on_keypress_SLASH	150	stimuli_target_circlediamonds.svg	stimuli_distractor_diamondtriangles.svg	6	yes	57	0	98
6.6.1	win	2022-12-14	14:25:43	14:30:43	297768	558955ebfdf99b6bd06016c9	577092183	1	main_slash	7	main_slash	151	stimuli_target_squarediamonds.svg	stimuli_distractor_trianglediamonds.svg	4	yes	53	1	530
6.6.1	win	2022-12-14	14:25:43	14:30:43	297768	558955ebfdf99b6bd06016c9	577092183	1	main_slash	7	advance_on_keypress_SLASH	152	stimuli_target_squarediamonds.svg	stimuli_distractor_trianglediamonds.svg	4	yes	57	0	111
6.6.1	win	2022-12-14	14:25:43	14:30:46	300520	558955ebfdf99b6bd06016c9	577092183	1	main_slash	7	main_slash	153	stimuli_distractor_diamondtriangles.svg	stimuli_distractor_trianglediamonds.svg	38	no	0	1	2000
6.6.1	win	2022-12-14	14:25:43	14:30:46	300520	558955ebfdf99b6bd06016c9	577092183	1	main_slash	7	advance_on_keypress_SLASH	154	stimuli_distractor_diamondtriangles.svg	stimuli_distractor_trianglediamonds.svg	38	no	57	0	382
6.6.1	win	2022-12-14	14:25:43	14:30:47	302070	558955ebfdf99b6bd06016c9	577092183	1	main_slash	7	main_slash	155	stimuli_target_trianglecircles.svg	stimuli_distractor_diamondtriangles.svg	21	yes	53	1	519
6.6.1	win	2022-12-14	14:25:43	14:30:47	302070	558955ebfdf99b6bd06016c9	577092183	1	main_slash	7	advance_on_keypress_SLASH	156	stimuli_target_trianglecircles.svg	stimuli_distractor_diamondtriangles.svg	21	yes	57	0	144
6.6.1	win	2022-12-14	14:25:43	14:30:49	303642	558955ebfdf99b6bd06016c9	577092183	1	main_slash	7	main_slash	157	stimuli_distractor_trianglediamonds.svg	stimuli_distractor_diamondtriangles.svg	36	no	53	0	793
6.6.1	win	2022-12-14	14:25:43	14:30:49	303642	558955ebfdf99b6bd06016c9	577092183	1	main_slash	7	advance_on_keypress_SLASH	158	stimuli_distractor_trianglediamonds.svg	stimuli_distractor_diamondtriangles.svg	36	no	57	0	161
6.6.1	win	2022-12-14	14:25:43	14:30:50	305070	558955ebfdf99b6bd06016c9	577092183	1	main_slash	7	main_slash	159	stimuli_distractor_trianglediamonds.svg	stimuli_target_squarediamonds.svg	12	yes	53	1	623
6.6.1	win	2022-12-14	14:25:43	14:30:50	305070	558955ebfdf99b6bd06016c9	577092183	1	main_slash	7	advance_on_keypress_SLASH	160	stimuli_distractor_trianglediamonds.svg	stimuli_target_squarediamonds.svg	12	yes	57	0	127
6.6.1	win	2022-12-14	14:25:43	14:31:19	333902	558955ebfdf99b6bd06016c9	577092183	1	practice_z	9	practice_z	1	stimuli_distractor_diamondtriangles.svg	stimuli_distractor_trianglediamonds.svg	14	no	0	1	2000
6.6.1	win	2022-12-14	14:25:43	14:31:19	333902	558955ebfdf99b6bd06016c9	577092183	1	practice_z	9	advance_on_keypress_ZEE	2	stimuli_distractor_diamondtriangles.svg	stimuli_distractor_trianglediamonds.svg	14	no	57	0	346
6.6.1	win	2022-12-14	14:25:43	14:31:21	336413	558955ebfdf99b6bd06016c9	577092183	1	practice_z	9	practice_z	3	stimuli_distractor_diamondtriangles.svg	stimuli_target_trianglecircles.svg	9	yes	44	1	515
6.6.1	win	2022-12-14	14:25:43	14:31:21	336413	558955ebfdf99b6bd06016c9	577092183	1	practice_z	9	advance_on_keypress_ZEE	4	stimuli_distractor_diamondtriangles.svg	stimuli_target_trianglecircles.svg	9	yes	57	0	307
6.6.1	win	2022-12-14	14:25:43	14:31:24	338871	558955ebfdf99b6bd06016c9	577092183	1	practice_z	9	practice_z	5	stimuli_distractor_diamondtriangles.svg	stimuli_target_circletriangles.svg	7	yes	44	1	509
6.6.1	win	2022-12-14	14:25:43	14:31:24	338871	558955ebfdf99b6bd06016c9	577092183	1	practice_z	9	advance_on_keypress_ZEE	6	stimuli_distractor_diamondtriangles.svg	stimuli_target_circletriangles.svg	7	yes	57	0	272
6.6.1	win	2022-12-14	14:25:43	14:31:26	341301	558955ebfdf99b6bd06016c9	577092183	1	practice_z	9	practice_z	7	stimuli_target_circlediamonds.svg	stimuli_distractor_diamondtriangles.svg	1	yes	44	1	510
6.6.1	win	2022-12-14	14:25:43	14:31:26	341301	558955ebfdf99b6bd06016c9	577092183	1	practice_z	9	advance_on_keypress_ZEE	8	stimuli_target_circlediamonds.svg	stimuli_distractor_diamondtriangles.svg	1	yes	57	0	406
6.6.1	win	2022-12-14	14:25:43	14:31:29	343841	558955ebfdf99b6bd06016c9	577092183	1	practice_z	9	practice_z	9	stimuli_distractor_trianglediamonds.svg	stimuli_target_squarediamonds.svg	11	yes	44	1	486
6.6.1	win	2022-12-14	14:25:43	14:31:29	343841	558955ebfdf99b6bd06016c9	577092183	1	practice_z	9	advance_on_keypress_ZEE	10	stimuli_distractor_trianglediamonds.svg	stimuli_target_squarediamonds.svg	11	yes	57	0	274
6.6.1	win	2022-12-14	14:25:43	14:31:31	346196	558955ebfdf99b6bd06016c9	577092183	1	practice_z	9	practice_z	11	stimuli_target_squarediamonds.svg	stimuli_distractor_diamondtriangles.svg	2	yes	44	1	443
6.6.1	win	2022-12-14	14:25:43	14:31:31	346196	558955ebfdf99b6bd06016c9	577092183	1	practice_z	9	advance_on_keypress_ZEE	12	stimuli_target_squarediamonds.svg	stimuli_distractor_diamondtriangles.svg	2	yes	57	0	417
6.6.1	win	2022-12-14	14:25:43	14:31:35	350266	558955ebfdf99b6bd06016c9	577092183	1	practice_z	9	practice_z	13	stimuli_distractor_diamondtriangles.svg	stimuli_distractor_diamondtriangles.svg	13	no	0	1	2000
6.6.1	win	2022-12-14	14:25:43	14:31:35	350266	558955ebfdf99b6bd06016c9	577092183	1	practice_z	9	advance_on_keypress_ZEE	14	stimuli_distractor_diamondtriangles.svg	stimuli_distractor_diamondtriangles.svg	13	no	57	0	326
6.6.1	win	2022-12-14	14:25:43	14:31:38	352883	558955ebfdf99b6bd06016c9	577092183	1	practice_z	9	practice_z	15	stimuli_target_diamondsquares.svg	stimuli_distractor_diamondtriangles.svg	3	yes	44	1	639
6.6.1	win	2022-12-14	14:25:43	14:31:38	352883	558955ebfdf99b6bd06016c9	577092183	1	practice_z	9	advance_on_keypress_ZEE	16	stimuli_target_diamondsquares.svg	stimuli_distractor_diamondtriangles.svg	3	yes	57	0	507
6.6.1	win	2022-12-14	14:25:43	14:31:41	355650	558955ebfdf99b6bd06016c9	577092183	1	practice_z	9	practice_z	17	stimuli_distractor_trianglediamonds.svg	stimuli_target_diamondcircles.svg	12	yes	44	1	624
6.6.1	win	2022-12-14	14:25:43	14:31:41	355650	558955ebfdf99b6bd06016c9	577092183	1	practice_z	9	advance_on_keypress_ZEE	18	stimuli_distractor_trianglediamonds.svg	stimuli_target_diamondcircles.svg	12	yes	57	0	387
6.6.1	win	2022-12-14	14:25:43	14:31:45	359689	558955ebfdf99b6bd06016c9	577092183	1	practice_z	9	practice_z	19	stimuli_distractor_trianglediamonds.svg	stimuli_distractor_trianglediamonds.svg	15	no	0	1	2000
6.6.1	win	2022-12-14	14:25:43	14:31:45	359689	558955ebfdf99b6bd06016c9	577092183	1	practice_z	9	advance_on_keypress_ZEE	20	stimuli_distractor_trianglediamonds.svg	stimuli_distractor_trianglediamonds.svg	15	no	57	0	326
6.6.1	win	2022-12-14	14:25:43	14:31:47	362227	558955ebfdf99b6bd06016c9	577092183	1	practice_z	9	practice_z	21	stimuli_target_squarediamonds.svg	stimuli_distractor_trianglediamonds.svg	5	yes	44	1	560
6.6.1	win	2022-12-14	14:25:43	14:31:47	362227	558955ebfdf99b6bd06016c9	577092183	1	practice_z	9	advance_on_keypress_ZEE	22	stimuli_target_squarediamonds.svg	stimuli_distractor_trianglediamonds.svg	5	yes	57	0	349
6.6.1	win	2022-12-14	14:25:43	14:31:50	364918	558955ebfdf99b6bd06016c9	577092183	1	practice_z	9	practice_z	23	stimuli_target_diamondsquares.svg	stimuli_distractor_trianglediamonds.svg	6	yes	44	1	687
6.6.1	win	2022-12-14	14:25:43	14:31:50	364918	558955ebfdf99b6bd06016c9	577092183	1	practice_z	9	advance_on_keypress_ZEE	24	stimuli_target_diamondsquares.svg	stimuli_distractor_trianglediamonds.svg	6	yes	57	0	304
6.6.1	win	2022-12-14	14:25:43	14:31:53	367480	558955ebfdf99b6bd06016c9	577092183	1	practice_z	9	practice_z	25	stimuli_distractor_diamondtriangles.svg	stimuli_target_diamondcircles.svg	8	yes	44	1	619
6.6.1	win	2022-12-14	14:25:43	14:31:53	367480	558955ebfdf99b6bd06016c9	577092183	1	practice_z	9	advance_on_keypress_ZEE	26	stimuli_distractor_diamondtriangles.svg	stimuli_target_diamondcircles.svg	8	yes	57	0	302
6.6.1	win	2022-12-14	14:25:43	14:31:55	369986	558955ebfdf99b6bd06016c9	577092183	1	practice_z	9	practice_z	27	stimuli_target_circlediamonds.svg	stimuli_distractor_trianglediamonds.svg	4	yes	44	1	559
6.6.1	win	2022-12-14	14:25:43	14:31:55	369986	558955ebfdf99b6bd06016c9	577092183	1	practice_z	9	advance_on_keypress_ZEE	28	stimuli_target_circlediamonds.svg	stimuli_distractor_trianglediamonds.svg	4	yes	57	0	324
6.6.1	win	2022-12-14	14:25:43	14:31:59	373956	558955ebfdf99b6bd06016c9	577092183	1	practice_z	9	practice_z	29	stimuli_distractor_trianglediamonds.svg	stimuli_distractor_diamondtriangles.svg	16	no	0	1	2000
6.6.1	win	2022-12-14	14:25:43	14:31:59	373956	558955ebfdf99b6bd06016c9	577092183	1	practice_z	9	advance_on_keypress_ZEE	30	stimuli_distractor_trianglediamonds.svg	stimuli_distractor_diamondtriangles.svg	16	no	57	0	286
6.6.1	win	2022-12-14	14:25:43	14:32:02	376484	558955ebfdf99b6bd06016c9	577092183	1	practice_z	9	practice_z	31	stimuli_distractor_trianglediamonds.svg	stimuli_target_circlediamonds.svg	10	yes	44	1	600
6.6.1	win	2022-12-14	14:25:43	14:32:02	376484	558955ebfdf99b6bd06016c9	577092183	1	practice_z	9	advance_on_keypress_ZEE	32	stimuli_distractor_trianglediamonds.svg	stimuli_target_circlediamonds.svg	10	yes	57	0	376
6.6.1	win	2022-12-14	14:25:43	14:32:10	385373	558955ebfdf99b6bd06016c9	577092183	1	main_z	11	main_z	1	stimuli_distractor_diamondtriangles.svg	stimuli_distractor_trianglediamonds.svg	38	no	0	1	2000
6.6.1	win	2022-12-14	14:25:43	14:32:10	385373	558955ebfdf99b6bd06016c9	577092183	1	main_z	11	advance_on_keypress_ZEE	2	stimuli_distractor_diamondtriangles.svg	stimuli_distractor_trianglediamonds.svg	38	no	57	0	286
6.6.1	win	2022-12-14	14:25:43	14:32:12	386871	558955ebfdf99b6bd06016c9	577092183	1	main_z	11	main_z	3	stimuli_distractor_diamondtriangles.svg	stimuli_target_trianglesquares.svg	30	yes	44	1	568
6.6.1	win	2022-12-14	14:25:43	14:32:12	386871	558955ebfdf99b6bd06016c9	577092183	1	main_z	11	advance_on_keypress_ZEE	4	stimuli_distractor_diamondtriangles.svg	stimuli_target_trianglesquares.svg	30	yes	57	0	466
6.6.1	win	2022-12-14	14:25:43	14:32:14	388574	558955ebfdf99b6bd06016c9	577092183	1	main_z	11	main_z	5	stimuli_target_diamondsquares.svg	stimuli_distractor_diamondtriangles.svg	24	yes	44	1	589
6.6.1	win	2022-12-14	14:25:43	14:32:14	388574	558955ebfdf99b6bd06016c9	577092183	1	main_z	11	advance_on_keypress_ZEE	6	stimuli_target_diamondsquares.svg	stimuli_distractor_diamondtriangles.svg	24	yes	57	0	256
6.6.1	win	2022-12-14	14:25:43	14:32:15	390033	558955ebfdf99b6bd06016c9	577092183	1	main_z	11	main_z	7	stimuli_distractor_trianglediamonds.svg	stimuli_target_trianglesquares.svg	26	yes	44	1	566
6.6.1	win	2022-12-14	14:25:43	14:32:15	390033	558955ebfdf99b6bd06016c9	577092183	1	main_z	11	advance_on_keypress_ZEE	8	stimuli_distractor_trianglediamonds.svg	stimuli_target_trianglesquares.svg	26	yes	57	0	193
6.6.1	win	2022-12-14	14:25:43	14:32:18	392865	558955ebfdf99b6bd06016c9	577092183	1	main_z	11	main_z	9	stimuli_distractor_trianglediamonds.svg	stimuli_distractor_trianglediamonds.svg	34	no	0	1	2000
6.6.1	win	2022-12-14	14:25:43	14:32:18	392865	558955ebfdf99b6bd06016c9	577092183	1	main_z	11	advance_on_keypress_ZEE	10	stimuli_distractor_trianglediamonds.svg	stimuli_distractor_trianglediamonds.svg	34	no	57	0	263
6.6.1	win	2022-12-14	14:25:43	14:32:19	394316	558955ebfdf99b6bd06016c9	577092183	1	main_z	11	main_z	11	stimuli_target_squaretriangles.svg	stimuli_distractor_trianglediamonds.svg	3	yes	44	1	539
6.6.1	win	2022-12-14	14:25:43	14:32:19	394316	558955ebfdf99b6bd06016c9	577092183	1	main_z	11	advance_on_keypress_ZEE	12	stimuli_target_squaretriangles.svg	stimuli_distractor_trianglediamonds.svg	3	yes	57	0	255
6.6.1	win	2022-12-14	14:25:43	14:32:21	395798	558955ebfdf99b6bd06016c9	577092183	1	main_z	11	main_z	13	stimuli_distractor_diamondtriangles.svg	stimuli_target_circletriangles.svg	13	yes	44	1	588
6.6.1	win	2022-12-14	14:25:43	14:32:21	395798	558955ebfdf99b6bd06016c9	577092183	1	main_z	11	advance_on_keypress_ZEE	14	stimuli_distractor_diamondtriangles.svg	stimuli_target_circletriangles.svg	13	yes	57	0	145
6.6.1	win	2022-12-14	14:25:43	14:32:22	397095	558955ebfdf99b6bd06016c9	577092183	1	main_z	11	main_z	15	stimuli_distractor_trianglediamonds.svg	stimuli_target_trianglecircles.svg	25	yes	44	1	502
6.6.1	win	2022-12-14	14:25:43	14:32:22	397095	558955ebfdf99b6bd06016c9	577092183	1	main_z	11	advance_on_keypress_ZEE	16	stimuli_distractor_trianglediamonds.svg	stimuli_target_trianglecircles.svg	25	yes	57	0	96
6.6.1	win	2022-12-14	14:25:43	14:32:23	398360	558955ebfdf99b6bd06016c9	577092183	1	main_z	11	main_z	17	stimuli_target_circletriangles.svg	stimuli_distractor_trianglediamonds.svg	1	yes	44	1	521
6.6.1	win	2022-12-14	14:25:43	14:32:23	398360	558955ebfdf99b6bd06016c9	577092183	1	main_z	11	advance_on_keypress_ZEE	18	stimuli_target_circletriangles.svg	stimuli_distractor_trianglediamonds.svg	1	yes	57	0	117
6.6.1	win	2022-12-14	14:25:43	14:32:25	399714	558955ebfdf99b6bd06016c9	577092183	1	main_z	11	main_z	19	stimuli_distractor_diamondtriangles.svg	stimuli_target_diamondsquares.svg	32	yes	44	1	593
6.6.1	win	2022-12-14	14:25:43	14:32:25	399714	558955ebfdf99b6bd06016c9	577092183	1	main_z	11	advance_on_keypress_ZEE	20	stimuli_distractor_diamondtriangles.svg	stimuli_target_diamondsquares.svg	32	yes	57	0	121
6.6.1	win	2022-12-14	14:25:43	14:32:26	401033	558955ebfdf99b6bd06016c9	577092183	1	main_z	11	main_z	21	stimuli_distractor_trianglediamonds.svg	stimuli_target_squarediamonds.svg	12	yes	44	1	563
6.6.1	win	2022-12-14	14:25:43	14:32:26	401033	558955ebfdf99b6bd06016c9	577092183	1	main_z	11	advance_on_keypress_ZEE	22	stimuli_distractor_trianglediamonds.svg	stimuli_target_squarediamonds.svg	12	yes	57	0	99
6.6.1	win	2022-12-14	14:25:43	14:32:27	402382	558955ebfdf99b6bd06016c9	577092183	1	main_z	11	main_z	23	stimuli_target_squarediamonds.svg	stimuli_distractor_diamondtriangles.svg	8	yes	44	1	596
6.6.1	win	2022-12-14	14:25:43	14:32:27	402382	558955ebfdf99b6bd06016c9	577092183	1	main_z	11	advance_on_keypress_ZEE	24	stimuli_target_squarediamonds.svg	stimuli_distractor_diamondtriangles.svg	8	yes	57	0	115
6.6.1	win	2022-12-14	14:25:43	14:32:29	403693	558955ebfdf99b6bd06016c9	577092183	1	main_z	11	main_z	25	stimuli_target_circletriangles.svg	stimuli_distractor_diamondtriangles.svg	5	yes	44	1	542
6.6.1	win	2022-12-14	14:25:43	14:32:29	403693	558955ebfdf99b6bd06016c9	577092183	1	main_z	11	advance_on_keypress_ZEE	26	stimuli_target_circletriangles.svg	stimuli_distractor_diamondtriangles.svg	5	yes	57	0	151
6.6.1	win	2022-12-14	14:25:43	14:32:30	404956	558955ebfdf99b6bd06016c9	577092183	1	main_z	11	main_z	27	stimuli_distractor_trianglediamonds.svg	stimuli_target_squaretriangles.svg	11	yes	44	1	473
6.6.1	win	2022-12-14	14:25:43	14:32:30	404956	558955ebfdf99b6bd06016c9	577092183	1	main_z	11	advance_on_keypress_ZEE	28	stimuli_distractor_trianglediamonds.svg	stimuli_target_squaretriangles.svg	11	yes	57	0	115
6.6.1	win	2022-12-14	14:25:43	14:32:31	406171	558955ebfdf99b6bd06016c9	577092183	1	main_z	11	main_z	29	stimuli_target_trianglesquares.svg	stimuli_distractor_diamondtriangles.svg	22	yes	44	1	456
6.6.1	win	2022-12-14	14:25:43	14:32:31	406171	558955ebfdf99b6bd06016c9	577092183	1	main_z	11	advance_on_keypress_ZEE	30	stimuli_target_trianglesquares.svg	stimuli_distractor_diamondtriangles.svg	22	yes	57	0	135
6.6.1	win	2022-12-14	14:25:43	14:32:34	408946	558955ebfdf99b6bd06016c9	577092183	1	main_z	11	main_z	31	stimuli_distractor_trianglediamonds.svg	stimuli_distractor_trianglediamonds.svg	33	no	0	1	2000
6.6.1	win	2022-12-14	14:25:43	14:32:34	408946	558955ebfdf99b6bd06016c9	577092183	1	main_z	11	advance_on_keypress_ZEE	32	stimuli_distractor_trianglediamonds.svg	stimuli_distractor_trianglediamonds.svg	33	no	57	0	349
6.6.1	win	2022-12-14	14:25:43	14:32:36	410698	558955ebfdf99b6bd06016c9	577092183	1	main_z	11	main_z	33	stimuli_distractor_diamondtriangles.svg	stimuli_distractor_diamondtriangles.svg	39	no	44	0	755
6.6.1	win	2022-12-14	14:25:43	14:32:36	410698	558955ebfdf99b6bd06016c9	577092183	1	main_z	11	advance_on_keypress_ZEE	34	stimuli_distractor_diamondtriangles.svg	stimuli_distractor_diamondtriangles.svg	39	no	57	0	198
6.6.1	win	2022-12-14	14:25:43	14:32:37	412024	558955ebfdf99b6bd06016c9	577092183	1	main_z	11	main_z	35	stimuli_target_trianglesquares.svg	stimuli_distractor_trianglediamonds.svg	18	yes	44	1	483
6.6.1	win	2022-12-14	14:25:43	14:32:37	412024	558955ebfdf99b6bd06016c9	577092183	1	main_z	11	advance_on_keypress_ZEE	36	stimuli_target_trianglesquares.svg	stimuli_distractor_trianglediamonds.svg	18	yes	57	0	116
6.6.1	win	2022-12-14	14:25:43	14:32:38	413252	558955ebfdf99b6bd06016c9	577092183	1	main_z	11	main_z	37	stimuli_target_diamondcircles.svg	stimuli_distractor_diamondtriangles.svg	23	yes	44	1	462
6.6.1	win	2022-12-14	14:25:43	14:32:38	413252	558955ebfdf99b6bd06016c9	577092183	1	main_z	11	advance_on_keypress_ZEE	38	stimuli_target_diamondcircles.svg	stimuli_distractor_diamondtriangles.svg	23	yes	57	0	118
6.6.1	win	2022-12-14	14:25:43	14:32:41	416021	558955ebfdf99b6bd06016c9	577092183	1	main_z	11	main_z	39	stimuli_distractor_diamondtriangles.svg	stimuli_distractor_trianglediamonds.svg	37	no	0	1	2000
6.6.1	win	2022-12-14	14:25:43	14:32:41	416021	558955ebfdf99b6bd06016c9	577092183	1	main_z	11	advance_on_keypress_ZEE	40	stimuli_distractor_diamondtriangles.svg	stimuli_distractor_trianglediamonds.svg	37	no	57	0	737
6.6.1	win	2022-12-14	14:25:43	14:32:43	417797	558955ebfdf99b6bd06016c9	577092183	1	main_z	11	main_z	41	stimuli_target_squarediamonds.svg	stimuli_distractor_trianglediamonds.svg	4	yes	44	1	396
6.6.1	win	2022-12-14	14:25:43	14:32:43	417797	558955ebfdf99b6bd06016c9	577092183	1	main_z	11	advance_on_keypress_ZEE	42	stimuli_target_squarediamonds.svg	stimuli_distractor_trianglediamonds.svg	4	yes	57	0	120
6.6.1	win	2022-12-14	14:25:43	14:32:44	419039	558955ebfdf99b6bd06016c9	577092183	1	main_z	11	main_z	43	stimuli_target_circlediamonds.svg	stimuli_distractor_diamondtriangles.svg	6	yes	44	1	473
6.6.1	win	2022-12-14	14:25:43	14:32:44	419039	558955ebfdf99b6bd06016c9	577092183	1	main_z	11	advance_on_keypress_ZEE	44	stimuli_target_circlediamonds.svg	stimuli_distractor_diamondtriangles.svg	6	yes	57	0	85
6.6.1	win	2022-12-14	14:25:43	14:32:45	420231	558955ebfdf99b6bd06016c9	577092183	1	main_z	11	main_z	45	stimuli_distractor_diamondtriangles.svg	stimuli_target_trianglecircles.svg	29	yes	44	1	466
6.6.1	win	2022-12-14	14:25:43	14:32:45	420231	558955ebfdf99b6bd06016c9	577092183	1	main_z	11	advance_on_keypress_ZEE	46	stimuli_distractor_diamondtriangles.svg	stimuli_target_trianglecircles.svg	29	yes	57	0	65
6.6.1	win	2022-12-14	14:25:43	14:32:47	421497	558955ebfdf99b6bd06016c9	577092183	1	main_z	11	main_z	47	stimuli_target_diamondsquares.svg	stimuli_distractor_trianglediamonds.svg	20	yes	44	1	550
6.6.1	win	2022-12-14	14:25:43	14:32:47	421497	558955ebfdf99b6bd06016c9	577092183	1	main_z	11	advance_on_keypress_ZEE	48	stimuli_target_diamondsquares.svg	stimuli_distractor_trianglediamonds.svg	20	yes	57	0	88
6.6.1	win	2022-12-14	14:25:43	14:32:48	422709	558955ebfdf99b6bd06016c9	577092183	1	main_z	11	main_z	49	stimuli_distractor_trianglediamonds.svg	stimuli_target_diamondcircles.svg	27	yes	44	1	481
6.6.1	win	2022-12-14	14:25:43	14:32:48	422709	558955ebfdf99b6bd06016c9	577092183	1	main_z	11	advance_on_keypress_ZEE	50	stimuli_distractor_trianglediamonds.svg	stimuli_target_diamondcircles.svg	27	yes	57	0	81
6.6.1	win	2022-12-14	14:25:43	14:32:49	423866	558955ebfdf99b6bd06016c9	577092183	1	main_z	11	main_z	51	stimuli_distractor_diamondtriangles.svg	stimuli_target_diamondcircles.svg	31	yes	44	1	423
6.6.1	win	2022-12-14	14:25:43	14:32:49	423866	558955ebfdf99b6bd06016c9	577092183	1	main_z	11	advance_on_keypress_ZEE	52	stimuli_distractor_diamondtriangles.svg	stimuli_target_diamondcircles.svg	31	yes	57	0	96
6.6.1	win	2022-12-14	14:25:43	14:32:50	425061	558955ebfdf99b6bd06016c9	577092183	1	main_z	11	main_z	53	stimuli_distractor_trianglediamonds.svg	stimuli_target_circlediamonds.svg	10	yes	44	1	452
6.6.1	win	2022-12-14	14:25:43	14:32:50	425061	558955ebfdf99b6bd06016c9	577092183	1	main_z	11	advance_on_keypress_ZEE	54	stimuli_distractor_trianglediamonds.svg	stimuli_target_circlediamonds.svg	10	yes	57	0	70
6.6.1	win	2022-12-14	14:25:43	14:32:51	426183	558955ebfdf99b6bd06016c9	577092183	1	main_z	11	main_z	55	stimuli_target_diamondcircles.svg	stimuli_distractor_trianglediamonds.svg	19	yes	44	1	408
6.6.1	win	2022-12-14	14:25:43	14:32:51	426183	558955ebfdf99b6bd06016c9	577092183	1	main_z	11	advance_on_keypress_ZEE	56	stimuli_target_diamondcircles.svg	stimuli_distractor_trianglediamonds.svg	19	yes	57	0	74
6.6.1	win	2022-12-14	14:25:43	14:32:52	427383	558955ebfdf99b6bd06016c9	577092183	1	main_z	11	main_z	57	stimuli_distractor_diamondtriangles.svg	stimuli_target_circlediamonds.svg	14	yes	44	1	493
6.6.1	win	2022-12-14	14:25:43	14:32:52	427383	558955ebfdf99b6bd06016c9	577092183	1	main_z	11	advance_on_keypress_ZEE	58	stimuli_distractor_diamondtriangles.svg	stimuli_target_circlediamonds.svg	14	yes	57	0	85
6.6.1	win	2022-12-14	14:25:43	14:32:53	428456	558955ebfdf99b6bd06016c9	577092183	1	main_z	11	main_z	59	stimuli_target_circlediamonds.svg	stimuli_distractor_trianglediamonds.svg	2	yes	44	1	334
6.6.1	win	2022-12-14	14:25:43	14:32:53	428456	558955ebfdf99b6bd06016c9	577092183	1	main_z	11	advance_on_keypress_ZEE	60	stimuli_target_circlediamonds.svg	stimuli_distractor_trianglediamonds.svg	2	yes	57	0	82
6.6.1	win	2022-12-14	14:25:43	14:32:55	429524	558955ebfdf99b6bd06016c9	577092183	1	main_z	11	main_z	61	stimuli_distractor_trianglediamonds.svg	stimuli_target_circletriangles.svg	9	yes	44	1	336
6.6.1	win	2022-12-14	14:25:43	14:32:55	429524	558955ebfdf99b6bd06016c9	577092183	1	main_z	11	advance_on_keypress_ZEE	62	stimuli_distractor_trianglediamonds.svg	stimuli_target_circletriangles.svg	9	yes	57	0	90
6.6.1	win	2022-12-14	14:25:43	14:32:56	430644	558955ebfdf99b6bd06016c9	577092183	1	main_z	11	main_z	63	stimuli_target_trianglecircles.svg	stimuli_distractor_diamondtriangles.svg	21	yes	44	1	391
6.6.1	win	2022-12-14	14:25:43	14:32:56	430644	558955ebfdf99b6bd06016c9	577092183	1	main_z	11	advance_on_keypress_ZEE	64	stimuli_target_trianglecircles.svg	stimuli_distractor_diamondtriangles.svg	21	yes	57	0	118
6.6.1	win	2022-12-14	14:25:43	14:32:57	431799	558955ebfdf99b6bd06016c9	577092183	1	main_z	11	main_z	65	stimuli_target_trianglecircles.svg	stimuli_distractor_trianglediamonds.svg	17	yes	44	1	397
6.6.1	win	2022-12-14	14:25:43	14:32:57	431799	558955ebfdf99b6bd06016c9	577092183	1	main_z	11	advance_on_keypress_ZEE	66	stimuli_target_trianglecircles.svg	stimuli_distractor_trianglediamonds.svg	17	yes	57	0	105
6.6.1	win	2022-12-14	14:25:43	14:32:58	433065	558955ebfdf99b6bd06016c9	577092183	1	main_z	11	main_z	67	stimuli_target_squaretriangles.svg	stimuli_distractor_diamondtriangles.svg	7	yes	44	1	514
6.6.1	win	2022-12-14	14:25:43	14:32:58	433065	558955ebfdf99b6bd06016c9	577092183	1	main_z	11	advance_on_keypress_ZEE	68	stimuli_target_squaretriangles.svg	stimuli_distractor_diamondtriangles.svg	7	yes	57	0	106
6.6.1	win	2022-12-14	14:25:43	14:33:01	435816	558955ebfdf99b6bd06016c9	577092183	1	main_z	11	main_z	69	stimuli_distractor_trianglediamonds.svg	stimuli_distractor_diamondtriangles.svg	35	no	0	1	2000
6.6.1	win	2022-12-14	14:25:43	14:33:01	435816	558955ebfdf99b6bd06016c9	577092183	1	main_z	11	advance_on_keypress_ZEE	70	stimuli_distractor_trianglediamonds.svg	stimuli_distractor_diamondtriangles.svg	35	no	57	0	266
6.6.1	win	2022-12-14	14:25:43	14:33:04	438729	558955ebfdf99b6bd06016c9	577092183	1	main_z	11	main_z	71	stimuli_distractor_trianglediamonds.svg	stimuli_distractor_diamondtriangles.svg	36	no	0	1	2000
6.6.1	win	2022-12-14	14:25:43	14:33:04	438729	558955ebfdf99b6bd06016c9	577092183	1	main_z	11	advance_on_keypress_ZEE	72	stimuli_distractor_trianglediamonds.svg	stimuli_distractor_diamondtriangles.svg	36	no	57	0	494
6.6.1	win	2022-12-14	14:25:43	14:33:07	441859	558955ebfdf99b6bd06016c9	577092183	1	main_z	11	main_z	73	stimuli_distractor_diamondtriangles.svg	stimuli_distractor_diamondtriangles.svg	40	no	0	1	2000
6.6.1	win	2022-12-14	14:25:43	14:33:07	441859	558955ebfdf99b6bd06016c9	577092183	1	main_z	11	advance_on_keypress_ZEE	74	stimuli_distractor_diamondtriangles.svg	stimuli_distractor_diamondtriangles.svg	40	no	57	0	265
6.6.1	win	2022-12-14	14:25:43	14:33:08	443199	558955ebfdf99b6bd06016c9	577092183	1	main_z	11	main_z	75	stimuli_distractor_trianglediamonds.svg	stimuli_target_diamondsquares.svg	28	yes	44	1	428
6.6.1	win	2022-12-14	14:25:43	14:33:08	443199	558955ebfdf99b6bd06016c9	577092183	1	main_z	11	advance_on_keypress_ZEE	76	stimuli_distractor_trianglediamonds.svg	stimuli_target_diamondsquares.svg	28	yes	57	0	106
6.6.1	win	2022-12-14	14:25:43	14:33:09	444425	558955ebfdf99b6bd06016c9	577092183	1	main_z	11	main_z	77	stimuli_distractor_diamondtriangles.svg	stimuli_target_squarediamonds.svg	16	yes	44	1	472
6.6.1	win	2022-12-14	14:25:43	14:33:09	444425	558955ebfdf99b6bd06016c9	577092183	1	main_z	11	advance_on_keypress_ZEE	78	stimuli_distractor_diamondtriangles.svg	stimuli_target_squarediamonds.svg	16	yes	57	0	88
6.6.1	win	2022-12-14	14:25:43	14:33:11	445493	558955ebfdf99b6bd06016c9	577092183	1	main_z	11	main_z	79	stimuli_distractor_diamondtriangles.svg	stimuli_target_squaretriangles.svg	15	yes	44	1	340
6.6.1	win	2022-12-14	14:25:43	14:33:11	445493	558955ebfdf99b6bd06016c9	577092183	1	main_z	11	advance_on_keypress_ZEE	80	stimuli_distractor_diamondtriangles.svg	stimuli_target_squaretriangles.svg	15	yes	57	0	101
6.6.1	win	2022-12-14	14:25:43	14:33:12	446607	558955ebfdf99b6bd06016c9	577092183	1	main_z	11	main_z	81	stimuli_target_circletriangles.svg	stimuli_distractor_trianglediamonds.svg	1	yes	44	1	371
6.6.1	win	2022-12-14	14:25:43	14:33:12	446607	558955ebfdf99b6bd06016c9	577092183	1	main_z	11	advance_on_keypress_ZEE	82	stimuli_target_circletriangles.svg	stimuli_distractor_trianglediamonds.svg	1	yes	57	0	97
6.6.1	win	2022-12-14	14:25:43	14:33:13	447747	558955ebfdf99b6bd06016c9	577092183	1	main_z	11	main_z	83	stimuli_distractor_diamondtriangles.svg	stimuli_target_squarediamonds.svg	16	yes	44	1	398
6.6.1	win	2022-12-14	14:25:43	14:33:13	447747	558955ebfdf99b6bd06016c9	577092183	1	main_z	11	advance_on_keypress_ZEE	84	stimuli_distractor_diamondtriangles.svg	stimuli_target_squarediamonds.svg	16	yes	57	0	79
6.6.1	win	2022-12-14	14:25:43	14:33:16	450482	558955ebfdf99b6bd06016c9	577092183	1	main_z	11	main_z	85	stimuli_distractor_diamondtriangles.svg	stimuli_distractor_trianglediamonds.svg	37	no	0	1	2000
6.6.1	win	2022-12-14	14:25:43	14:33:16	450482	558955ebfdf99b6bd06016c9	577092183	1	main_z	11	advance_on_keypress_ZEE	86	stimuli_distractor_diamondtriangles.svg	stimuli_distractor_trianglediamonds.svg	37	no	57	0	240
6.6.1	win	2022-12-14	14:25:43	14:33:17	451777	558955ebfdf99b6bd06016c9	577092183	1	main_z	11	main_z	87	stimuli_distractor_diamondtriangles.svg	stimuli_target_trianglesquares.svg	30	yes	44	1	415
6.6.1	win	2022-12-14	14:25:43	14:33:17	451777	558955ebfdf99b6bd06016c9	577092183	1	main_z	11	advance_on_keypress_ZEE	88	stimuli_distractor_diamondtriangles.svg	stimuli_target_trianglesquares.svg	30	yes	57	0	80
6.6.1	win	2022-12-14	14:25:43	14:33:18	452895	558955ebfdf99b6bd06016c9	577092183	1	main_z	11	main_z	89	stimuli_distractor_trianglediamonds.svg	stimuli_target_diamondsquares.svg	28	yes	44	1	384
6.6.1	win	2022-12-14	14:25:43	14:33:18	452895	558955ebfdf99b6bd06016c9	577092183	1	main_z	11	advance_on_keypress_ZEE	90	stimuli_distractor_trianglediamonds.svg	stimuli_target_diamondsquares.svg	28	yes	57	0	82
6.6.1	win	2022-12-14	14:25:43	14:33:21	455627	558955ebfdf99b6bd06016c9	577092183	1	main_z	11	main_z	91	stimuli_distractor_trianglediamonds.svg	stimuli_distractor_diamondtriangles.svg	35	no	0	1	2000
6.6.1	win	2022-12-14	14:25:43	14:33:21	455627	558955ebfdf99b6bd06016c9	577092183	1	main_z	11	advance_on_keypress_ZEE	92	stimuli_distractor_trianglediamonds.svg	stimuli_distractor_diamondtriangles.svg	35	no	57	0	236
6.6.1	win	2022-12-14	14:25:43	14:33:22	456884	558955ebfdf99b6bd06016c9	577092183	1	main_z	11	main_z	93	stimuli_distractor_diamondtriangles.svg	stimuli_target_diamondsquares.svg	32	yes	44	1	377
6.6.1	win	2022-12-14	14:25:43	14:33:22	456884	558955ebfdf99b6bd06016c9	577092183	1	main_z	11	advance_on_keypress_ZEE	94	stimuli_distractor_diamondtriangles.svg	stimuli_target_diamondsquares.svg	32	yes	57	0	68
6.6.1	win	2022-12-14	14:25:43	14:33:23	457965	558955ebfdf99b6bd06016c9	577092183	1	main_z	11	main_z	95	stimuli_distractor_trianglediamonds.svg	stimuli_target_trianglecircles.svg	25	yes	44	1	361
6.6.1	win	2022-12-14	14:25:43	14:33:23	457965	558955ebfdf99b6bd06016c9	577092183	1	main_z	11	advance_on_keypress_ZEE	96	stimuli_distractor_trianglediamonds.svg	stimuli_target_trianglecircles.svg	25	yes	57	0	59
6.6.1	win	2022-12-14	14:25:43	14:33:24	459019	558955ebfdf99b6bd06016c9	577092183	1	main_z	11	main_z	97	stimuli_target_diamondcircles.svg	stimuli_distractor_trianglediamonds.svg	19	yes	44	1	349
6.6.1	win	2022-12-14	14:25:43	14:33:24	459019	558955ebfdf99b6bd06016c9	577092183	1	main_z	11	advance_on_keypress_ZEE	98	stimuli_target_diamondcircles.svg	stimuli_distractor_trianglediamonds.svg	19	yes	57	0	82
6.6.1	win	2022-12-14	14:25:43	14:33:25	460115	558955ebfdf99b6bd06016c9	577092183	1	main_z	11	main_z	99	stimuli_target_squarediamonds.svg	stimuli_distractor_diamondtriangles.svg	8	yes	44	1	363
6.6.1	win	2022-12-14	14:25:43	14:33:25	460115	558955ebfdf99b6bd06016c9	577092183	1	main_z	11	advance_on_keypress_ZEE	100	stimuli_target_squarediamonds.svg	stimuli_distractor_diamondtriangles.svg	8	yes	57	0	83
6.6.1	win	2022-12-14	14:25:43	14:33:26	461161	558955ebfdf99b6bd06016c9	577092183	1	main_z	11	main_z	101	stimuli_distractor_diamondtriangles.svg	stimuli_target_squaretriangles.svg	15	yes	44	1	309
6.6.1	win	2022-12-14	14:25:43	14:33:26	461161	558955ebfdf99b6bd06016c9	577092183	1	main_z	11	advance_on_keypress_ZEE	102	stimuli_distractor_diamondtriangles.svg	stimuli_target_squaretriangles.svg	15	yes	57	0	102
6.6.1	win	2022-12-14	14:25:43	14:33:27	462319	558955ebfdf99b6bd06016c9	577092183	1	main_z	11	main_z	103	stimuli_target_squaretriangles.svg	stimuli_distractor_trianglediamonds.svg	3	yes	44	1	420
6.6.1	win	2022-12-14	14:25:43	14:33:27	462319	558955ebfdf99b6bd06016c9	577092183	1	main_z	11	advance_on_keypress_ZEE	104	stimuli_target_squaretriangles.svg	stimuli_distractor_trianglediamonds.svg	3	yes	57	0	133
6.6.1	win	2022-12-14	14:25:43	14:33:28	463397	558955ebfdf99b6bd06016c9	577092183	1	main_z	11	main_z	105	stimuli_distractor_trianglediamonds.svg	stimuli_target_squaretriangles.svg	11	yes	44	1	299
6.6.1	win	2022-12-14	14:25:43	14:33:28	463397	558955ebfdf99b6bd06016c9	577092183	1	main_z	11	advance_on_keypress_ZEE	106	stimuli_distractor_trianglediamonds.svg	stimuli_target_squaretriangles.svg	11	yes	57	0	68
6.6.1	win	2022-12-14	14:25:43	14:33:31	466114	558955ebfdf99b6bd06016c9	577092183	1	main_z	11	main_z	107	stimuli_distractor_diamondtriangles.svg	stimuli_distractor_diamondtriangles.svg	40	no	0	1	2000
6.6.1	win	2022-12-14	14:25:43	14:33:31	466114	558955ebfdf99b6bd06016c9	577092183	1	main_z	11	advance_on_keypress_ZEE	108	stimuli_distractor_diamondtriangles.svg	stimuli_distractor_diamondtriangles.svg	40	no	57	0	249
6.6.1	win	2022-12-14	14:25:43	14:33:32	467349	558955ebfdf99b6bd06016c9	577092183	1	main_z	11	main_z	109	stimuli_distractor_diamondtriangles.svg	stimuli_target_circlediamonds.svg	14	yes	44	1	338
6.6.1	win	2022-12-14	14:25:43	14:33:32	467349	558955ebfdf99b6bd06016c9	577092183	1	main_z	11	advance_on_keypress_ZEE	110	stimuli_distractor_diamondtriangles.svg	stimuli_target_circlediamonds.svg	14	yes	57	0	76
6.6.1	win	2022-12-14	14:25:43	14:33:35	470060	558955ebfdf99b6bd06016c9	577092183	1	main_z	11	main_z	111	stimuli_distractor_trianglediamonds.svg	stimuli_distractor_trianglediamonds.svg	34	no	0	1	2000
6.6.1	win	2022-12-14	14:25:43	14:33:35	470060	558955ebfdf99b6bd06016c9	577092183	1	main_z	11	advance_on_keypress_ZEE	112	stimuli_distractor_trianglediamonds.svg	stimuli_distractor_trianglediamonds.svg	34	no	57	0	260
6.6.1	win	2022-12-14	14:25:43	14:33:36	471314	558955ebfdf99b6bd06016c9	577092183	1	main_z	11	main_z	113	stimuli_distractor_diamondtriangles.svg	stimuli_target_circletriangles.svg	13	yes	44	1	342
6.6.1	win	2022-12-14	14:25:43	14:33:36	471314	558955ebfdf99b6bd06016c9	577092183	1	main_z	11	advance_on_keypress_ZEE	114	stimuli_distractor_diamondtriangles.svg	stimuli_target_circletriangles.svg	13	yes	57	0	105
6.6.1	win	2022-12-14	14:25:43	14:33:38	472485	558955ebfdf99b6bd06016c9	577092183	1	main_z	11	main_z	115	stimuli_target_trianglecircles.svg	stimuli_distractor_trianglediamonds.svg	17	yes	44	1	430
6.6.1	win	2022-12-14	14:25:43	14:33:38	472485	558955ebfdf99b6bd06016c9	577092183	1	main_z	11	advance_on_keypress_ZEE	116	stimuli_target_trianglecircles.svg	stimuli_distractor_trianglediamonds.svg	17	yes	57	0	80
6.6.1	win	2022-12-14	14:25:43	14:33:39	473634	558955ebfdf99b6bd06016c9	577092183	1	main_z	11	main_z	117	stimuli_target_diamondsquares.svg	stimuli_distractor_diamondtriangles.svg	24	yes	44	1	414
6.6.1	win	2022-12-14	14:25:43	14:33:39	473634	558955ebfdf99b6bd06016c9	577092183	1	main_z	11	advance_on_keypress_ZEE	118	stimuli_target_diamondsquares.svg	stimuli_distractor_diamondtriangles.svg	24	yes	57	0	61
6.6.1	win	2022-12-14	14:25:43	14:33:40	474720	558955ebfdf99b6bd06016c9	577092183	1	main_z	11	main_z	119	stimuli_target_diamondsquares.svg	stimuli_distractor_trianglediamonds.svg	20	yes	44	1	384
6.6.1	win	2022-12-14	14:25:43	14:33:40	474720	558955ebfdf99b6bd06016c9	577092183	1	main_z	11	advance_on_keypress_ZEE	120	stimuli_target_diamondsquares.svg	stimuli_distractor_trianglediamonds.svg	20	yes	57	0	75
6.6.1	win	2022-12-14	14:25:43	14:33:41	475778	558955ebfdf99b6bd06016c9	577092183	1	main_z	11	main_z	121	stimuli_distractor_trianglediamonds.svg	stimuli_target_diamondcircles.svg	27	yes	44	1	344
6.6.1	win	2022-12-14	14:25:43	14:33:41	475778	558955ebfdf99b6bd06016c9	577092183	1	main_z	11	advance_on_keypress_ZEE	122	stimuli_distractor_trianglediamonds.svg	stimuli_target_diamondcircles.svg	27	yes	57	0	94
6.6.1	win	2022-12-14	14:25:43	14:33:42	476848	558955ebfdf99b6bd06016c9	577092183	1	main_z	11	main_z	123	stimuli_target_trianglecircles.svg	stimuli_distractor_diamondtriangles.svg	21	yes	44	1	331
6.6.1	win	2022-12-14	14:25:43	14:33:42	476848	558955ebfdf99b6bd06016c9	577092183	1	main_z	11	advance_on_keypress_ZEE	124	stimuli_target_trianglecircles.svg	stimuli_distractor_diamondtriangles.svg	21	yes	57	0	70
6.6.1	win	2022-12-14	14:25:43	14:33:43	477980	558955ebfdf99b6bd06016c9	577092183	1	main_z	11	main_z	125	stimuli_target_trianglesquares.svg	stimuli_distractor_diamondtriangles.svg	22	yes	44	1	415
6.6.1	win	2022-12-14	14:25:43	14:33:43	477980	558955ebfdf99b6bd06016c9	577092183	1	main_z	11	advance_on_keypress_ZEE	126	stimuli_target_trianglesquares.svg	stimuli_distractor_diamondtriangles.svg	22	yes	57	0	81
6.6.1	win	2022-12-14	14:25:43	14:33:44	479067	558955ebfdf99b6bd06016c9	577092183	1	main_z	11	main_z	127	stimuli_target_circlediamonds.svg	stimuli_distractor_diamondtriangles.svg	6	yes	44	1	353
6.6.1	win	2022-12-14	14:25:43	14:33:44	479067	558955ebfdf99b6bd06016c9	577092183	1	main_z	11	advance_on_keypress_ZEE	128	stimuli_target_circlediamonds.svg	stimuli_distractor_diamondtriangles.svg	6	yes	57	0	100
6.6.1	win	2022-12-14	14:25:43	14:33:45	480164	558955ebfdf99b6bd06016c9	577092183	1	main_z	11	main_z	129	stimuli_distractor_trianglediamonds.svg	stimuli_target_squarediamonds.svg	12	yes	44	1	351
6.6.1	win	2022-12-14	14:25:43	14:33:45	480164	558955ebfdf99b6bd06016c9	577092183	1	main_z	11	advance_on_keypress_ZEE	130	stimuli_distractor_trianglediamonds.svg	stimuli_target_squarediamonds.svg	12	yes	57	0	97
6.6.1	win	2022-12-14	14:25:43	14:33:46	481261	558955ebfdf99b6bd06016c9	577092183	1	main_z	11	main_z	131	stimuli_distractor_diamondtriangles.svg	stimuli_target_trianglecircles.svg	29	yes	44	1	350
6.6.1	win	2022-12-14	14:25:43	14:33:46	481261	558955ebfdf99b6bd06016c9	577092183	1	main_z	11	advance_on_keypress_ZEE	132	stimuli_distractor_diamondtriangles.svg	stimuli_target_trianglecircles.svg	29	yes	57	0	144
6.6.1	win	2022-12-14	14:25:43	14:33:49	484045	558955ebfdf99b6bd06016c9	577092183	1	main_z	11	main_z	133	stimuli_distractor_diamondtriangles.svg	stimuli_distractor_trianglediamonds.svg	38	no	0	1	2000
6.6.1	win	2022-12-14	14:25:43	14:33:49	484045	558955ebfdf99b6bd06016c9	577092183	1	main_z	11	advance_on_keypress_ZEE	134	stimuli_distractor_diamondtriangles.svg	stimuli_distractor_trianglediamonds.svg	38	no	57	0	245
6.6.1	win	2022-12-14	14:25:43	14:33:50	485326	558955ebfdf99b6bd06016c9	577092183	1	main_z	11	main_z	135	stimuli_target_squarediamonds.svg	stimuli_distractor_trianglediamonds.svg	4	yes	44	1	386
6.6.1	win	2022-12-14	14:25:43	14:33:50	485326	558955ebfdf99b6bd06016c9	577092183	1	main_z	11	advance_on_keypress_ZEE	136	stimuli_target_squarediamonds.svg	stimuli_distractor_trianglediamonds.svg	4	yes	57	0	86
6.6.1	win	2022-12-14	14:25:43	14:33:51	486375	558955ebfdf99b6bd06016c9	577092183	1	main_z	11	main_z	137	stimuli_distractor_trianglediamonds.svg	stimuli_distractor_diamondtriangles.svg	36	no	44	0	320
6.6.1	win	2022-12-14	14:25:43	14:33:51	486375	558955ebfdf99b6bd06016c9	577092183	1	main_z	11	advance_on_keypress_ZEE	138	stimuli_distractor_trianglediamonds.svg	stimuli_distractor_diamondtriangles.svg	36	no	57	0	573
6.6.1	win	2022-12-14	14:25:43	14:33:53	488066	558955ebfdf99b6bd06016c9	577092183	1	main_z	11	main_z	139	stimuli_target_diamondcircles.svg	stimuli_distractor_diamondtriangles.svg	23	yes	44	1	479
6.6.1	win	2022-12-14	14:25:43	14:33:53	488066	558955ebfdf99b6bd06016c9	577092183	1	main_z	11	advance_on_keypress_ZEE	140	stimuli_target_diamondcircles.svg	stimuli_distractor_diamondtriangles.svg	23	yes	57	0	92
6.6.1	win	2022-12-14	14:25:43	14:33:54	489190	558955ebfdf99b6bd06016c9	577092183	1	main_z	11	main_z	141	stimuli_target_circlediamonds.svg	stimuli_distractor_trianglediamonds.svg	2	yes	44	1	388
6.6.1	win	2022-12-14	14:25:43	14:33:54	489190	558955ebfdf99b6bd06016c9	577092183	1	main_z	11	advance_on_keypress_ZEE	142	stimuli_target_circlediamonds.svg	stimuli_distractor_trianglediamonds.svg	2	yes	57	0	125
6.6.1	win	2022-12-14	14:25:43	14:33:55	490307	558955ebfdf99b6bd06016c9	577092183	1	main_z	11	main_z	143	stimuli_distractor_trianglediamonds.svg	stimuli_target_circletriangles.svg	9	yes	44	1	355
6.6.1	win	2022-12-14	14:25:43	14:33:55	490307	558955ebfdf99b6bd06016c9	577092183	1	main_z	11	advance_on_keypress_ZEE	144	stimuli_distractor_trianglediamonds.svg	stimuli_target_circletriangles.svg	9	yes	57	0	78
6.6.1	win	2022-12-14	14:25:43	14:33:56	491438	558955ebfdf99b6bd06016c9	577092183	1	main_z	11	main_z	145	stimuli_target_trianglesquares.svg	stimuli_distractor_trianglediamonds.svg	18	yes	44	1	421
6.6.1	win	2022-12-14	14:25:43	14:33:56	491438	558955ebfdf99b6bd06016c9	577092183	1	main_z	11	advance_on_keypress_ZEE	146	stimuli_target_trianglesquares.svg	stimuli_distractor_trianglediamonds.svg	18	yes	57	0	76
6.6.1	win	2022-12-14	14:25:43	14:33:58	492559	558955ebfdf99b6bd06016c9	577092183	1	main_z	11	main_z	147	stimuli_distractor_trianglediamonds.svg	stimuli_target_trianglesquares.svg	26	yes	44	1	410
6.6.1	win	2022-12-14	14:25:43	14:33:58	492559	558955ebfdf99b6bd06016c9	577092183	1	main_z	11	advance_on_keypress_ZEE	148	stimuli_distractor_trianglediamonds.svg	stimuli_target_trianglesquares.svg	26	yes	57	0	79
6.6.1	win	2022-12-14	14:25:43	14:34:00	495281	558955ebfdf99b6bd06016c9	577092183	1	main_z	11	main_z	149	stimuli_distractor_trianglediamonds.svg	stimuli_distractor_trianglediamonds.svg	33	no	0	1	2000
6.6.1	win	2022-12-14	14:25:43	14:34:00	495281	558955ebfdf99b6bd06016c9	577092183	1	main_z	11	advance_on_keypress_ZEE	150	stimuli_distractor_trianglediamonds.svg	stimuli_distractor_trianglediamonds.svg	33	no	57	0	250
6.6.1	win	2022-12-14	14:25:43	14:34:02	496533	558955ebfdf99b6bd06016c9	577092183	1	main_z	11	main_z	151	stimuli_distractor_trianglediamonds.svg	stimuli_target_circlediamonds.svg	10	yes	44	1	356
6.6.1	win	2022-12-14	14:25:43	14:34:02	496533	558955ebfdf99b6bd06016c9	577092183	1	main_z	11	advance_on_keypress_ZEE	152	stimuli_distractor_trianglediamonds.svg	stimuli_target_circlediamonds.svg	10	yes	57	0	90
6.6.1	win	2022-12-14	14:25:43	14:34:04	499260	558955ebfdf99b6bd06016c9	577092183	1	main_z	11	main_z	153	stimuli_distractor_diamondtriangles.svg	stimuli_distractor_diamondtriangles.svg	39	no	0	1	2000
6.6.1	win	2022-12-14	14:25:43	14:34:04	499260	558955ebfdf99b6bd06016c9	577092183	1	main_z	11	advance_on_keypress_ZEE	154	stimuli_distractor_diamondtriangles.svg	stimuli_distractor_diamondtriangles.svg	39	no	57	0	392
6.6.1	win	2022-12-14	14:25:43	14:34:06	500715	558955ebfdf99b6bd06016c9	577092183	1	main_z	11	main_z	155	stimuli_distractor_diamondtriangles.svg	stimuli_target_diamondcircles.svg	31	yes	44	1	425
6.6.1	win	2022-12-14	14:25:43	14:34:06	500715	558955ebfdf99b6bd06016c9	577092183	1	main_z	11	advance_on_keypress_ZEE	156	stimuli_distractor_diamondtriangles.svg	stimuli_target_diamondcircles.svg	31	yes	57	0	94
6.6.1	win	2022-12-14	14:25:43	14:34:07	501799	558955ebfdf99b6bd06016c9	577092183	1	main_z	11	main_z	157	stimuli_target_circletriangles.svg	stimuli_distractor_diamondtriangles.svg	5	yes	44	1	345
6.6.1	win	2022-12-14	14:25:43	14:34:07	501799	558955ebfdf99b6bd06016c9	577092183	1	main_z	11	advance_on_keypress_ZEE	158	stimuli_target_circletriangles.svg	stimuli_distractor_diamondtriangles.svg	5	yes	57	0	51
6.6.1	win	2022-12-14	14:25:43	14:34:08	502891	558955ebfdf99b6bd06016c9	577092183	1	main_z	11	main_z	159	stimuli_target_squaretriangles.svg	stimuli_distractor_diamondtriangles.svg	7	yes	44	1	387
6.6.1	win	2022-12-14	14:25:43	14:34:08	502891	558955ebfdf99b6bd06016c9	577092183	1	main_z	11	advance_on_keypress_ZEE	160	stimuli_target_squaretriangles.svg	stimuli_distractor_diamondtriangles.svg	7	yes	57	0	76