build	computer.platform	date	time	timestamp	time_elapsed_ms	subject	group	session	blockcode	blocknum	trialcode	trialnum	stimulus_left	stimulus_right	stim_index	target_present	response	correct	latency
6.6.1	mac	2022-12-25	12:04:44	12:07:25	159131	5fe354a2e44df4fb4634bbc3	639260520	1	practice_z	5	practice_z	1	stimuli_distractor_trianglediamonds.svg	stimuli_target_circlediamonds.svg	10	yes	44	1	580
6.6.1	mac	2022-12-25	12:04:44	12:07:25	159131	5fe354a2e44df4fb4634bbc3	639260520	1	practice_z	5	advance_on_keypress_ZEE	2	stimuli_distractor_trianglediamonds.svg	stimuli_target_circlediamonds.svg	10	yes	57	0	1163
6.6.1	mac	2022-12-25	12:04:44	12:07:30	163936	5fe354a2e44df4fb4634bbc3	639260520	1	practice_z	5	practice_z	3	stimuli_target_squarediamonds.svg	stimuli_distractor_trianglediamonds.svg	5	yes	0	0	2000
6.6.1	mac	2022-12-25	12:04:44	12:07:30	163936	5fe354a2e44df4fb4634bbc3	639260520	1	practice_z	5	advance_on_keypress_ZEE	4	stimuli_target_squarediamonds.svg	stimuli_distractor_trianglediamonds.svg	5	yes	57	0	1708
6.6.1	mac	2022-12-25	12:04:44	12:07:35	169269	5fe354a2e44df4fb4634bbc3	639260520	1	practice_z	5	practice_z	5	stimuli_distractor_trianglediamonds.svg	stimuli_distractor_trianglediamonds.svg	15	no	0	1	2000
6.6.1	mac	2022-12-25	12:04:44	12:07:35	169269	5fe354a2e44df4fb4634bbc3	639260520	1	practice_z	5	advance_on_keypress_ZEE	6	stimuli_distractor_trianglediamonds.svg	stimuli_distractor_trianglediamonds.svg	15	no	57	0	702
6.6.1	mac	2022-12-25	12:04:44	12:07:38	172057	5fe354a2e44df4fb4634bbc3	639260520	1	practice_z	5	practice_z	7	stimuli_distractor_diamondtriangles.svg	stimuli_target_trianglecircles.svg	9	yes	44	1	457
6.6.1	mac	2022-12-25	12:04:44	12:07:38	172057	5fe354a2e44df4fb4634bbc3	639260520	1	practice_z	5	advance_on_keypress_ZEE	8	stimuli_distractor_diamondtriangles.svg	stimuli_target_trianglecircles.svg	9	yes	57	0	769
6.6.1	mac	2022-12-25	12:04:44	12:07:41	174805	5fe354a2e44df4fb4634bbc3	639260520	1	practice_z	5	practice_z	9	stimuli_target_circlediamonds.svg	stimuli_distractor_diamondtriangles.svg	1	yes	44	1	355
6.6.1	mac	2022-12-25	12:04:44	12:07:41	174805	5fe354a2e44df4fb4634bbc3	639260520	1	practice_z	5	advance_on_keypress_ZEE	10	stimuli_target_circlediamonds.svg	stimuli_distractor_diamondtriangles.svg	1	yes	57	0	651
6.6.1	mac	2022-12-25	12:04:44	12:07:45	179086	5fe354a2e44df4fb4634bbc3	639260520	1	practice_z	5	practice_z	11	stimuli_distractor_diamondtriangles.svg	stimuli_distractor_diamondtriangles.svg	13	no	0	1	2000
6.6.1	mac	2022-12-25	12:04:44	12:07:45	179086	5fe354a2e44df4fb4634bbc3	639260520	1	practice_z	5	advance_on_keypress_ZEE	12	stimuli_distractor_diamondtriangles.svg	stimuli_distractor_diamondtriangles.svg	13	no	57	0	654
6.6.1	mac	2022-12-25	12:04:44	12:07:48	181833	5fe354a2e44df4fb4634bbc3	639260520	1	practice_z	5	practice_z	13	stimuli_target_diamondsquares.svg	stimuli_distractor_trianglediamonds.svg	6	yes	44	1	468
6.6.1	mac	2022-12-25	12:04:44	12:07:48	181833	5fe354a2e44df4fb4634bbc3	639260520	1	practice_z	5	advance_on_keypress_ZEE	14	stimuli_target_diamondsquares.svg	stimuli_distractor_trianglediamonds.svg	6	yes	57	0	537
6.6.1	mac	2022-12-25	12:04:44	12:07:50	184366	5fe354a2e44df4fb4634bbc3	639260520	1	practice_z	5	practice_z	15	stimuli_distractor_diamondtriangles.svg	stimuli_target_circletriangles.svg	7	yes	44	1	365
6.6.1	mac	2022-12-25	12:04:44	12:07:50	184366	5fe354a2e44df4fb4634bbc3	639260520	1	practice_z	5	advance_on_keypress_ZEE	16	stimuli_distractor_diamondtriangles.svg	stimuli_target_circletriangles.svg	7	yes	57	0	547
6.6.1	mac	2022-12-25	12:04:44	12:07:53	187087	5fe354a2e44df4fb4634bbc3	639260520	1	practice_z	5	practice_z	17	stimuli_target_squarediamonds.svg	stimuli_distractor_diamondtriangles.svg	2	yes	44	1	537
6.6.1	mac	2022-12-25	12:04:44	12:07:53	187087	5fe354a2e44df4fb4634bbc3	639260520	1	practice_z	5	advance_on_keypress_ZEE	18	stimuli_target_squarediamonds.svg	stimuli_distractor_diamondtriangles.svg	2	yes	57	0	642
6.6.1	mac	2022-12-25	12:04:44	12:07:57	191353	5fe354a2e44df4fb4634bbc3	639260520	1	practice_z	5	practice_z	19	stimuli_distractor_trianglediamonds.svg	stimuli_target_squarediamonds.svg	11	yes	0	0	2000
6.6.1	mac	2022-12-25	12:04:44	12:07:57	191353	5fe354a2e44df4fb4634bbc3	639260520	1	practice_z	5	advance_on_keypress_ZEE	20	stimuli_distractor_trianglediamonds.svg	stimuli_target_squarediamonds.svg	11	yes	57	0	494
6.6.1	mac	2022-12-25	12:04:44	12:08:00	194233	5fe354a2e44df4fb4634bbc3	639260520	1	practice_z	5	practice_z	21	stimuli_target_diamondsquares.svg	stimuli_distractor_diamondtriangles.svg	3	yes	44	1	767
6.6.1	mac	2022-12-25	12:04:44	12:08:00	194233	5fe354a2e44df4fb4634bbc3	639260520	1	practice_z	5	advance_on_keypress_ZEE	22	stimuli_target_diamondsquares.svg	stimuli_distractor_diamondtriangles.svg	3	yes	57	0	602
6.6.1	mac	2022-12-25	12:04:44	12:08:03	196887	5fe354a2e44df4fb4634bbc3	639260520	1	practice_z	5	practice_z	23	stimuli_distractor_diamondtriangles.svg	stimuli_target_diamondcircles.svg	8	yes	44	1	420
6.6.1	mac	2022-12-25	12:04:44	12:08:03	196887	5fe354a2e44df4fb4634bbc3	639260520	1	practice_z	5	advance_on_keypress_ZEE	24	stimuli_distractor_diamondtriangles.svg	stimuli_target_diamondcircles.svg	8	yes	57	0	462
6.6.1	mac	2022-12-25	12:04:44	12:08:07	200969	5fe354a2e44df4fb4634bbc3	639260520	1	practice_z	5	practice_z	25	stimuli_distractor_trianglediamonds.svg	stimuli_distractor_diamondtriangles.svg	16	no	0	1	2000
6.6.1	mac	2022-12-25	12:04:44	12:08:07	200969	5fe354a2e44df4fb4634bbc3	639260520	1	practice_z	5	advance_on_keypress_ZEE	26	stimuli_distractor_trianglediamonds.svg	stimuli_distractor_diamondtriangles.svg	16	no	57	0	473
6.6.1	mac	2022-12-25	12:04:44	12:08:09	203402	5fe354a2e44df4fb4634bbc3	639260520	1	practice_z	5	practice_z	27	stimuli_target_circlediamonds.svg	stimuli_distractor_trianglediamonds.svg	4	yes	44	1	335
6.6.1	mac	2022-12-25	12:04:44	12:08:09	203402	5fe354a2e44df4fb4634bbc3	639260520	1	practice_z	5	advance_on_keypress_ZEE	28	stimuli_target_circlediamonds.svg	stimuli_distractor_trianglediamonds.svg	4	yes	57	0	526
6.6.1	mac	2022-12-25	12:04:44	12:08:12	205978	5fe354a2e44df4fb4634bbc3	639260520	1	practice_z	5	practice_z	29	stimuli_distractor_trianglediamonds.svg	stimuli_target_diamondcircles.svg	12	yes	44	1	428
6.6.1	mac	2022-12-25	12:04:44	12:08:12	205978	5fe354a2e44df4fb4634bbc3	639260520	1	practice_z	5	advance_on_keypress_ZEE	30	stimuli_distractor_trianglediamonds.svg	stimuli_target_diamondcircles.svg	12	yes	57	0	503
6.6.1	mac	2022-12-25	12:04:44	12:08:16	210102	5fe354a2e44df4fb4634bbc3	639260520	1	practice_z	5	practice_z	31	stimuli_distractor_diamondtriangles.svg	stimuli_distractor_trianglediamonds.svg	14	no	0	1	2000
6.6.1	mac	2022-12-25	12:04:44	12:08:16	210102	5fe354a2e44df4fb4634bbc3	639260520	1	practice_z	5	advance_on_keypress_ZEE	32	stimuli_distractor_diamondtriangles.svg	stimuli_distractor_trianglediamonds.svg	14	no	57	0	745
6.6.1	mac	2022-12-25	12:04:44	12:08:23	216948	5fe354a2e44df4fb4634bbc3	639260520	1	main_z	7	main_z	1	stimuli_distractor_diamondtriangles.svg	stimuli_target_circletriangles.svg	13	yes	44	1	332
6.6.1	mac	2022-12-25	12:04:44	12:08:23	216948	5fe354a2e44df4fb4634bbc3	639260520	1	main_z	7	advance_on_keypress_ZEE	2	stimuli_distractor_diamondtriangles.svg	stimuli_target_circletriangles.svg	13	yes	57	0	1513
6.6.1	mac	2022-12-25	12:04:44	12:08:25	219401	5fe354a2e44df4fb4634bbc3	639260520	1	main_z	7	main_z	3	stimuli_distractor_diamondtriangles.svg	stimuli_target_squarediamonds.svg	16	yes	44	1	301
6.6.1	mac	2022-12-25	12:04:44	12:08:25	219401	5fe354a2e44df4fb4634bbc3	639260520	1	main_z	7	advance_on_keypress_ZEE	4	stimuli_distractor_diamondtriangles.svg	stimuli_target_squarediamonds.svg	16	yes	57	0	1155
6.6.1	mac	2022-12-25	12:04:44	12:08:27	221515	5fe354a2e44df4fb4634bbc3	639260520	1	main_z	7	main_z	5	stimuli_distractor_trianglediamonds.svg	stimuli_target_squarediamonds.svg	12	yes	44	1	333
6.6.1	mac	2022-12-25	12:04:44	12:08:27	221515	5fe354a2e44df4fb4634bbc3	639260520	1	main_z	7	advance_on_keypress_ZEE	6	stimuli_distractor_trianglediamonds.svg	stimuli_target_squarediamonds.svg	12	yes	57	0	1108
6.6.1	mac	2022-12-25	12:04:44	12:08:29	223732	5fe354a2e44df4fb4634bbc3	639260520	1	main_z	7	main_z	7	stimuli_target_circlediamonds.svg	stimuli_distractor_diamondtriangles.svg	6	yes	44	1	482
6.6.1	mac	2022-12-25	12:04:44	12:08:29	223732	5fe354a2e44df4fb4634bbc3	639260520	1	main_z	7	advance_on_keypress_ZEE	8	stimuli_target_circlediamonds.svg	stimuli_distractor_diamondtriangles.svg	6	yes	57	0	793
6.6.1	mac	2022-12-25	12:04:44	12:08:33	227153	5fe354a2e44df4fb4634bbc3	639260520	1	main_z	7	main_z	9	stimuli_distractor_diamondtriangles.svg	stimuli_distractor_diamondtriangles.svg	39	no	0	1	2000
6.6.1	mac	2022-12-25	12:04:44	12:08:33	227153	5fe354a2e44df4fb4634bbc3	639260520	1	main_z	7	advance_on_keypress_ZEE	10	stimuli_distractor_diamondtriangles.svg	stimuli_distractor_diamondtriangles.svg	39	no	57	0	436
6.6.1	mac	2022-12-25	12:04:44	12:08:34	228581	5fe354a2e44df4fb4634bbc3	639260520	1	main_z	7	main_z	11	stimuli_target_squaretriangles.svg	stimuli_distractor_trianglediamonds.svg	3	yes	44	1	365
6.6.1	mac	2022-12-25	12:04:44	12:08:34	228581	5fe354a2e44df4fb4634bbc3	639260520	1	main_z	7	advance_on_keypress_ZEE	12	stimuli_target_squaretriangles.svg	stimuli_distractor_trianglediamonds.svg	3	yes	57	0	870
6.6.1	mac	2022-12-25	12:04:44	12:08:36	230492	5fe354a2e44df4fb4634bbc3	639260520	1	main_z	7	main_z	13	stimuli_target_circletriangles.svg	stimuli_distractor_trianglediamonds.svg	1	yes	44	1	410
6.6.1	mac	2022-12-25	12:04:44	12:08:36	230492	5fe354a2e44df4fb4634bbc3	639260520	1	main_z	7	advance_on_keypress_ZEE	14	stimuli_target_circletriangles.svg	stimuli_distractor_trianglediamonds.svg	1	yes	57	0	916
6.6.1	mac	2022-12-25	12:04:44	12:08:40	234035	5fe354a2e44df4fb4634bbc3	639260520	1	main_z	7	main_z	15	stimuli_distractor_trianglediamonds.svg	stimuli_distractor_trianglediamonds.svg	34	no	0	1	2000
6.6.1	mac	2022-12-25	12:04:44	12:08:40	234035	5fe354a2e44df4fb4634bbc3	639260520	1	main_z	7	advance_on_keypress_ZEE	16	stimuli_distractor_trianglediamonds.svg	stimuli_distractor_trianglediamonds.svg	34	no	57	0	427
6.6.1	mac	2022-12-25	12:04:44	12:08:41	235477	5fe354a2e44df4fb4634bbc3	639260520	1	main_z	7	main_z	17	stimuli_target_trianglecircles.svg	stimuli_distractor_diamondtriangles.svg	21	yes	44	1	396
6.6.1	mac	2022-12-25	12:04:44	12:08:41	235477	5fe354a2e44df4fb4634bbc3	639260520	1	main_z	7	advance_on_keypress_ZEE	18	stimuli_target_trianglecircles.svg	stimuli_distractor_diamondtriangles.svg	21	yes	57	0	904
6.6.1	mac	2022-12-25	12:04:44	12:08:43	237627	5fe354a2e44df4fb4634bbc3	639260520	1	main_z	7	main_z	19	stimuli_target_trianglesquares.svg	stimuli_distractor_trianglediamonds.svg	18	yes	44	1	628
6.6.1	mac	2022-12-25	12:04:44	12:08:43	237627	5fe354a2e44df4fb4634bbc3	639260520	1	main_z	7	advance_on_keypress_ZEE	20	stimuli_target_trianglesquares.svg	stimuli_distractor_trianglediamonds.svg	18	yes	57	0	938
6.6.1	mac	2022-12-25	12:04:44	12:08:45	239516	5fe354a2e44df4fb4634bbc3	639260520	1	main_z	7	main_z	21	stimuli_target_diamondsquares.svg	stimuli_distractor_diamondtriangles.svg	24	yes	44	1	334
6.6.1	mac	2022-12-25	12:04:44	12:08:45	239516	5fe354a2e44df4fb4634bbc3	639260520	1	main_z	7	advance_on_keypress_ZEE	22	stimuli_target_diamondsquares.svg	stimuli_distractor_diamondtriangles.svg	24	yes	57	0	1109
6.6.1	mac	2022-12-25	12:04:44	12:08:47	241563	5fe354a2e44df4fb4634bbc3	639260520	1	main_z	7	main_z	23	stimuli_target_diamondcircles.svg	stimuli_distractor_trianglediamonds.svg	19	yes	44	1	314
6.6.1	mac	2022-12-25	12:04:44	12:08:47	241563	5fe354a2e44df4fb4634bbc3	639260520	1	main_z	7	advance_on_keypress_ZEE	24	stimuli_target_diamondcircles.svg	stimuli_distractor_trianglediamonds.svg	19	yes	57	0	983
6.6.1	mac	2022-12-25	12:04:44	12:08:49	243487	5fe354a2e44df4fb4634bbc3	639260520	1	main_z	7	main_z	25	stimuli_distractor_trianglediamonds.svg	stimuli_target_diamondsquares.svg	28	yes	44	1	305
6.6.1	mac	2022-12-25	12:04:44	12:08:49	243487	5fe354a2e44df4fb4634bbc3	639260520	1	main_z	7	advance_on_keypress_ZEE	26	stimuli_distractor_trianglediamonds.svg	stimuli_target_diamondsquares.svg	28	yes	57	0	1238
6.6.1	mac	2022-12-25	12:04:44	12:08:52	245793	5fe354a2e44df4fb4634bbc3	639260520	1	main_z	7	main_z	27	stimuli_distractor_trianglediamonds.svg	stimuli_target_trianglesquares.svg	26	yes	44	1	444
6.6.1	mac	2022-12-25	12:04:44	12:08:52	245793	5fe354a2e44df4fb4634bbc3	639260520	1	main_z	7	advance_on_keypress_ZEE	28	stimuli_distractor_trianglediamonds.svg	stimuli_target_trianglesquares.svg	26	yes	57	0	892
6.6.1	mac	2022-12-25	12:04:44	12:08:53	247638	5fe354a2e44df4fb4634bbc3	639260520	1	main_z	7	main_z	29	stimuli_target_circletriangles.svg	stimuli_distractor_diamondtriangles.svg	5	yes	44	1	339
6.6.1	mac	2022-12-25	12:04:44	12:08:53	247638	5fe354a2e44df4fb4634bbc3	639260520	1	main_z	7	advance_on_keypress_ZEE	30	stimuli_target_circletriangles.svg	stimuli_distractor_diamondtriangles.svg	5	yes	57	0	1082
6.6.1	mac	2022-12-25	12:04:44	12:08:55	249731	5fe354a2e44df4fb4634bbc3	639260520	1	main_z	7	main_z	31	stimuli_distractor_diamondtriangles.svg	stimuli_target_circlediamonds.svg	14	yes	44	1	383
6.6.1	mac	2022-12-25	12:04:44	12:08:55	249731	5fe354a2e44df4fb4634bbc3	639260520	1	main_z	7	advance_on_keypress_ZEE	32	stimuli_distractor_diamondtriangles.svg	stimuli_target_circlediamonds.svg	14	yes	57	0	747
6.6.1	mac	2022-12-25	12:04:44	12:08:57	251430	5fe354a2e44df4fb4634bbc3	639260520	1	main_z	7	main_z	33	stimuli_target_diamondsquares.svg	stimuli_distractor_trianglediamonds.svg	20	yes	44	1	315
6.6.1	mac	2022-12-25	12:04:44	12:08:57	251430	5fe354a2e44df4fb4634bbc3	639260520	1	main_z	7	advance_on_keypress_ZEE	34	stimuli_target_diamondsquares.svg	stimuli_distractor_trianglediamonds.svg	20	yes	57	0	938
6.6.1	mac	2022-12-25	12:04:44	12:08:59	253276	5fe354a2e44df4fb4634bbc3	639260520	1	main_z	7	main_z	35	stimuli_distractor_trianglediamonds.svg	stimuli_distractor_trianglediamonds.svg	33	no	44	0	276
6.6.1	mac	2022-12-25	12:04:44	12:08:59	253276	5fe354a2e44df4fb4634bbc3	639260520	1	main_z	7	advance_on_keypress_ZEE	36	stimuli_distractor_trianglediamonds.svg	stimuli_distractor_trianglediamonds.svg	33	no	57	0	1276
6.6.1	mac	2022-12-25	12:04:44	12:09:01	255661	5fe354a2e44df4fb4634bbc3	639260520	1	main_z	7	main_z	37	stimuli_target_trianglecircles.svg	stimuli_distractor_trianglediamonds.svg	17	yes	44	1	495
6.6.1	mac	2022-12-25	12:04:44	12:09:01	255661	5fe354a2e44df4fb4634bbc3	639260520	1	main_z	7	advance_on_keypress_ZEE	38	stimuli_target_trianglecircles.svg	stimuli_distractor_trianglediamonds.svg	17	yes	57	0	1119
6.6.1	mac	2022-12-25	12:04:44	12:09:03	257618	5fe354a2e44df4fb4634bbc3	639260520	1	main_z	7	main_z	39	stimuli_distractor_trianglediamonds.svg	stimuli_target_squaretriangles.svg	11	yes	44	1	219
6.6.1	mac	2022-12-25	12:04:44	12:09:03	257618	5fe354a2e44df4fb4634bbc3	639260520	1	main_z	7	advance_on_keypress_ZEE	40	stimuli_distractor_trianglediamonds.svg	stimuli_target_squaretriangles.svg	11	yes	57	0	1011
6.6.1	mac	2022-12-25	12:04:44	12:09:05	259497	5fe354a2e44df4fb4634bbc3	639260520	1	main_z	7	main_z	41	stimuli_target_squarediamonds.svg	stimuli_distractor_trianglediamonds.svg	4	yes	44	1	248
6.6.1	mac	2022-12-25	12:04:44	12:09:05	259497	5fe354a2e44df4fb4634bbc3	639260520	1	main_z	7	advance_on_keypress_ZEE	42	stimuli_target_squarediamonds.svg	stimuli_distractor_trianglediamonds.svg	4	yes	57	0	1456
6.6.1	mac	2022-12-25	12:04:44	12:09:08	261917	5fe354a2e44df4fb4634bbc3	639260520	1	main_z	7	main_z	43	stimuli_distractor_diamondtriangles.svg	stimuli_target_trianglecircles.svg	29	yes	44	1	334
6.6.1	mac	2022-12-25	12:04:44	12:09:08	261917	5fe354a2e44df4fb4634bbc3	639260520	1	main_z	7	advance_on_keypress_ZEE	44	stimuli_distractor_diamondtriangles.svg	stimuli_target_trianglecircles.svg	29	yes	57	0	704
6.6.1	mac	2022-12-25	12:04:44	12:09:09	263513	5fe354a2e44df4fb4634bbc3	639260520	1	main_z	7	main_z	45	stimuli_distractor_diamondtriangles.svg	stimuli_target_diamondcircles.svg	31	yes	44	1	264
6.6.1	mac	2022-12-25	12:04:44	12:09:09	263513	5fe354a2e44df4fb4634bbc3	639260520	1	main_z	7	advance_on_keypress_ZEE	46	stimuli_distractor_diamondtriangles.svg	stimuli_target_diamondcircles.svg	31	yes	57	0	1208
6.6.1	mac	2022-12-25	12:04:44	12:09:12	265763	5fe354a2e44df4fb4634bbc3	639260520	1	main_z	7	main_z	47	stimuli_distractor_trianglediamonds.svg	stimuli_target_diamondcircles.svg	27	yes	44	1	414
6.6.1	mac	2022-12-25	12:04:44	12:09:12	265763	5fe354a2e44df4fb4634bbc3	639260520	1	main_z	7	advance_on_keypress_ZEE	48	stimuli_distractor_trianglediamonds.svg	stimuli_target_diamondcircles.svg	27	yes	57	0	1433
6.6.1	mac	2022-12-25	12:04:44	12:09:14	268070	5fe354a2e44df4fb4634bbc3	639260520	1	main_z	7	main_z	49	stimuli_distractor_diamondtriangles.svg	stimuli_target_diamondsquares.svg	32	yes	44	1	238
6.6.1	mac	2022-12-25	12:04:44	12:09:14	268070	5fe354a2e44df4fb4634bbc3	639260520	1	main_z	7	advance_on_keypress_ZEE	50	stimuli_distractor_diamondtriangles.svg	stimuli_target_diamondsquares.svg	32	yes	57	0	1091
6.6.1	mac	2022-12-25	12:04:44	12:09:16	270096	5fe354a2e44df4fb4634bbc3	639260520	1	main_z	7	main_z	51	stimuli_distractor_trianglediamonds.svg	stimuli_target_circlediamonds.svg	10	yes	44	1	314
6.6.1	mac	2022-12-25	12:04:44	12:09:16	270096	5fe354a2e44df4fb4634bbc3	639260520	1	main_z	7	advance_on_keypress_ZEE	52	stimuli_distractor_trianglediamonds.svg	stimuli_target_circlediamonds.svg	10	yes	57	0	1331
6.6.1	mac	2022-12-25	12:04:44	12:09:18	272301	5fe354a2e44df4fb4634bbc3	639260520	1	main_z	7	main_z	53	stimuli_distractor_diamondtriangles.svg	stimuli_target_trianglesquares.svg	30	yes	44	1	236
6.6.1	mac	2022-12-25	12:04:44	12:09:18	272301	5fe354a2e44df4fb4634bbc3	639260520	1	main_z	7	advance_on_keypress_ZEE	54	stimuli_distractor_diamondtriangles.svg	stimuli_target_trianglesquares.svg	30	yes	57	0	2605
6.6.1	mac	2022-12-25	12:04:44	12:09:22	275766	5fe354a2e44df4fb4634bbc3	639260520	1	main_z	7	main_z	55	stimuli_distractor_trianglediamonds.svg	stimuli_distractor_diamondtriangles.svg	36	no	44	0	234
6.6.1	mac	2022-12-25	12:04:44	12:09:22	275766	5fe354a2e44df4fb4634bbc3	639260520	1	main_z	7	advance_on_keypress_ZEE	56	stimuli_distractor_trianglediamonds.svg	stimuli_distractor_diamondtriangles.svg	36	no	57	0	1006
6.6.1	mac	2022-12-25	12:04:44	12:09:23	277645	5fe354a2e44df4fb4634bbc3	639260520	1	main_z	7	main_z	57	stimuli_distractor_trianglediamonds.svg	stimuli_target_trianglecircles.svg	25	yes	44	1	246
6.6.1	mac	2022-12-25	12:04:44	12:09:23	277645	5fe354a2e44df4fb4634bbc3	639260520	1	main_z	7	advance_on_keypress_ZEE	58	stimuli_distractor_trianglediamonds.svg	stimuli_target_trianglecircles.svg	25	yes	57	0	1717
6.6.1	mac	2022-12-25	12:04:44	12:09:26	280277	5fe354a2e44df4fb4634bbc3	639260520	1	main_z	7	main_z	59	stimuli_target_squarediamonds.svg	stimuli_distractor_diamondtriangles.svg	8	yes	44	1	295
6.6.1	mac	2022-12-25	12:04:44	12:09:26	280277	5fe354a2e44df4fb4634bbc3	639260520	1	main_z	7	advance_on_keypress_ZEE	60	stimuli_target_squarediamonds.svg	stimuli_distractor_diamondtriangles.svg	8	yes	57	0	906
6.6.1	mac	2022-12-25	12:04:44	12:09:28	282482	5fe354a2e44df4fb4634bbc3	639260520	1	main_z	7	main_z	61	stimuli_distractor_trianglediamonds.svg	stimuli_distractor_diamondtriangles.svg	35	no	44	0	683
6.6.1	mac	2022-12-25	12:04:44	12:09:28	282482	5fe354a2e44df4fb4634bbc3	639260520	1	main_z	7	advance_on_keypress_ZEE	62	stimuli_distractor_trianglediamonds.svg	stimuli_distractor_diamondtriangles.svg	35	no	57	0	1018
6.6.1	mac	2022-12-25	12:04:44	12:09:30	284474	5fe354a2e44df4fb4634bbc3	639260520	1	main_z	7	main_z	63	stimuli_distractor_diamondtriangles.svg	stimuli_distractor_trianglediamonds.svg	37	no	44	0	341
6.6.1	mac	2022-12-25	12:04:44	12:09:30	284474	5fe354a2e44df4fb4634bbc3	639260520	1	main_z	7	advance_on_keypress_ZEE	64	stimuli_distractor_diamondtriangles.svg	stimuli_distractor_trianglediamonds.svg	37	no	57	0	903
6.6.1	mac	2022-12-25	12:04:44	12:09:32	286476	5fe354a2e44df4fb4634bbc3	639260520	1	main_z	7	main_z	65	stimuli_distractor_trianglediamonds.svg	stimuli_target_circletriangles.svg	9	yes	44	1	477
6.6.1	mac	2022-12-25	12:04:44	12:09:32	286476	5fe354a2e44df4fb4634bbc3	639260520	1	main_z	7	advance_on_keypress_ZEE	66	stimuli_distractor_trianglediamonds.svg	stimuli_target_circletriangles.svg	9	yes	57	0	859
6.6.1	mac	2022-12-25	12:04:44	12:09:34	288355	5fe354a2e44df4fb4634bbc3	639260520	1	main_z	7	main_z	67	stimuli_target_squaretriangles.svg	stimuli_distractor_diamondtriangles.svg	7	yes	44	1	406
6.6.1	mac	2022-12-25	12:04:44	12:09:34	288355	5fe354a2e44df4fb4634bbc3	639260520	1	main_z	7	advance_on_keypress_ZEE	68	stimuli_target_squaretriangles.svg	stimuli_distractor_diamondtriangles.svg	7	yes	57	0	1020
6.6.1	mac	2022-12-25	12:04:44	12:09:38	292001	5fe354a2e44df4fb4634bbc3	639260520	1	main_z	7	main_z	69	stimuli_target_diamondcircles.svg	stimuli_distractor_diamondtriangles.svg	23	yes	0	0	2000
6.6.1	mac	2022-12-25	12:04:44	12:09:38	292001	5fe354a2e44df4fb4634bbc3	639260520	1	main_z	7	advance_on_keypress_ZEE	70	stimuli_target_diamondcircles.svg	stimuli_distractor_diamondtriangles.svg	23	yes	57	0	344
6.6.1	mac	2022-12-25	12:04:44	12:09:41	294968	5fe354a2e44df4fb4634bbc3	639260520	1	main_z	7	main_z	71	stimuli_distractor_diamondtriangles.svg	stimuli_distractor_diamondtriangles.svg	40	no	0	1	2000
6.6.1	mac	2022-12-25	12:04:44	12:09:41	294968	5fe354a2e44df4fb4634bbc3	639260520	1	main_z	7	advance_on_keypress_ZEE	72	stimuli_distractor_diamondtriangles.svg	stimuli_distractor_diamondtriangles.svg	40	no	57	0	1022
6.6.1	mac	2022-12-25	12:04:44	12:09:43	296872	5fe354a2e44df4fb4634bbc3	639260520	1	main_z	7	main_z	73	stimuli_distractor_diamondtriangles.svg	stimuli_target_squaretriangles.svg	15	yes	44	1	257
6.6.1	mac	2022-12-25	12:04:44	12:09:43	296872	5fe354a2e44df4fb4634bbc3	639260520	1	main_z	7	advance_on_keypress_ZEE	74	stimuli_distractor_diamondtriangles.svg	stimuli_target_squaretriangles.svg	15	yes	57	0	934
6.6.1	mac	2022-12-25	12:04:44	12:09:44	298751	5fe354a2e44df4fb4634bbc3	639260520	1	main_z	7	main_z	75	stimuli_target_circlediamonds.svg	stimuli_distractor_trianglediamonds.svg	2	yes	44	1	319
6.6.1	mac	2022-12-25	12:04:44	12:09:44	298751	5fe354a2e44df4fb4634bbc3	639260520	1	main_z	7	advance_on_keypress_ZEE	76	stimuli_target_circlediamonds.svg	stimuli_distractor_trianglediamonds.svg	2	yes	57	0	897
6.6.1	mac	2022-12-25	12:04:44	12:09:48	302284	5fe354a2e44df4fb4634bbc3	639260520	1	main_z	7	main_z	77	stimuli_distractor_diamondtriangles.svg	stimuli_distractor_trianglediamonds.svg	38	no	0	1	2000
6.6.1	mac	2022-12-25	12:04:44	12:09:48	302284	5fe354a2e44df4fb4634bbc3	639260520	1	main_z	7	advance_on_keypress_ZEE	78	stimuli_distractor_diamondtriangles.svg	stimuli_distractor_trianglediamonds.svg	38	no	57	0	321
6.6.1	mac	2022-12-25	12:04:44	12:09:49	303498	5fe354a2e44df4fb4634bbc3	639260520	1	main_z	7	main_z	79	stimuli_target_trianglesquares.svg	stimuli_distractor_diamondtriangles.svg	22	yes	44	1	266
6.6.1	mac	2022-12-25	12:04:44	12:09:49	303498	5fe354a2e44df4fb4634bbc3	639260520	1	main_z	7	advance_on_keypress_ZEE	80	stimuli_target_trianglesquares.svg	stimuli_distractor_diamondtriangles.svg	22	yes	57	0	1378
6.6.1	mac	2022-12-25	12:04:44	12:09:52	305839	5fe354a2e44df4fb4634bbc3	639260520	1	main_z	7	main_z	81	stimuli_distractor_diamondtriangles.svg	stimuli_target_diamondcircles.svg	31	yes	44	1	340
6.6.1	mac	2022-12-25	12:04:44	12:09:52	305839	5fe354a2e44df4fb4634bbc3	639260520	1	main_z	7	advance_on_keypress_ZEE	82	stimuli_distractor_diamondtriangles.svg	stimuli_target_diamondcircles.svg	31	yes	57	0	1272
6.6.1	mac	2022-12-25	12:04:44	12:09:54	308099	5fe354a2e44df4fb4634bbc3	639260520	1	main_z	7	main_z	83	stimuli_distractor_trianglediamonds.svg	stimuli_target_squaretriangles.svg	11	yes	44	1	366
6.6.1	mac	2022-12-25	12:04:44	12:09:54	308099	5fe354a2e44df4fb4634bbc3	639260520	1	main_z	7	advance_on_keypress_ZEE	84	stimuli_distractor_trianglediamonds.svg	stimuli_target_squaretriangles.svg	11	yes	57	0	700
6.6.1	mac	2022-12-25	12:04:44	12:09:55	309720	5fe354a2e44df4fb4634bbc3	639260520	1	main_z	7	main_z	85	stimuli_distractor_trianglediamonds.svg	stimuli_target_circlediamonds.svg	10	yes	44	1	288
6.6.1	mac	2022-12-25	12:04:44	12:09:55	309720	5fe354a2e44df4fb4634bbc3	639260520	1	main_z	7	advance_on_keypress_ZEE	86	stimuli_distractor_trianglediamonds.svg	stimuli_target_circlediamonds.svg	10	yes	57	0	1258
6.6.1	mac	2022-12-25	12:04:44	12:09:58	311846	5fe354a2e44df4fb4634bbc3	639260520	1	main_z	7	main_z	87	stimuli_target_circletriangles.svg	stimuli_distractor_diamondtriangles.svg	5	yes	44	1	247
6.6.1	mac	2022-12-25	12:04:44	12:09:58	311846	5fe354a2e44df4fb4634bbc3	639260520	1	main_z	7	advance_on_keypress_ZEE	88	stimuli_target_circletriangles.svg	stimuli_distractor_diamondtriangles.svg	5	yes	57	0	1072
6.6.1	mac	2022-12-25	12:04:44	12:10:00	313894	5fe354a2e44df4fb4634bbc3	639260520	1	main_z	7	main_z	89	stimuli_distractor_diamondtriangles.svg	stimuli_target_squaretriangles.svg	15	yes	44	1	345
6.6.1	mac	2022-12-25	12:04:44	12:10:00	313894	5fe354a2e44df4fb4634bbc3	639260520	1	main_z	7	advance_on_keypress_ZEE	90	stimuli_distractor_diamondtriangles.svg	stimuli_target_squaretriangles.svg	15	yes	57	0	805
6.6.1	mac	2022-12-25	12:04:44	12:10:03	317318	5fe354a2e44df4fb4634bbc3	639260520	1	main_z	7	main_z	91	stimuli_distractor_trianglediamonds.svg	stimuli_distractor_diamondtriangles.svg	36	no	0	1	2000
6.6.1	mac	2022-12-25	12:04:44	12:10:03	317318	5fe354a2e44df4fb4634bbc3	639260520	1	main_z	7	advance_on_keypress_ZEE	92	stimuli_distractor_trianglediamonds.svg	stimuli_distractor_diamondtriangles.svg	36	no	57	0	341
6.6.1	mac	2022-12-25	12:04:44	12:10:04	318506	5fe354a2e44df4fb4634bbc3	639260520	1	main_z	7	main_z	93	stimuli_distractor_trianglediamonds.svg	stimuli_distractor_trianglediamonds.svg	34	no	44	0	224
6.6.1	mac	2022-12-25	12:04:44	12:10:04	318506	5fe354a2e44df4fb4634bbc3	639260520	1	main_z	7	advance_on_keypress_ZEE	94	stimuli_distractor_trianglediamonds.svg	stimuli_distractor_trianglediamonds.svg	34	no	57	0	1004
6.6.1	mac	2022-12-25	12:04:44	12:10:06	320554	5fe354a2e44df4fb4634bbc3	639260520	1	main_z	7	main_z	95	stimuli_target_circletriangles.svg	stimuli_distractor_trianglediamonds.svg	1	yes	44	1	421
6.6.1	mac	2022-12-25	12:04:44	12:10:06	320554	5fe354a2e44df4fb4634bbc3	639260520	1	main_z	7	advance_on_keypress_ZEE	96	stimuli_target_circletriangles.svg	stimuli_distractor_trianglediamonds.svg	1	yes	57	0	870
6.6.1	mac	2022-12-25	12:04:44	12:10:08	322275	5fe354a2e44df4fb4634bbc3	639260520	1	main_z	7	main_z	97	stimuli_distractor_diamondtriangles.svg	stimuli_distractor_diamondtriangles.svg	40	no	44	0	226
6.6.1	mac	2022-12-25	12:04:44	12:10:08	322275	5fe354a2e44df4fb4634bbc3	639260520	1	main_z	7	advance_on_keypress_ZEE	98	stimuli_distractor_diamondtriangles.svg	stimuli_distractor_diamondtriangles.svg	40	no	57	0	1029
6.6.1	mac	2022-12-25	12:04:44	12:10:10	324143	5fe354a2e44df4fb4634bbc3	639260520	1	main_z	7	main_z	99	stimuli_distractor_diamondtriangles.svg	stimuli_target_trianglesquares.svg	30	yes	44	1	227
6.6.1	mac	2022-12-25	12:04:44	12:10:10	324143	5fe354a2e44df4fb4634bbc3	639260520	1	main_z	7	advance_on_keypress_ZEE	100	stimuli_distractor_diamondtriangles.svg	stimuli_target_trianglesquares.svg	30	yes	57	0	1423
6.6.1	mac	2022-12-25	12:04:44	12:10:12	326584	5fe354a2e44df4fb4634bbc3	639260520	1	main_z	7	main_z	101	stimuli_distractor_diamondtriangles.svg	stimuli_target_squarediamonds.svg	16	yes	44	1	402
6.6.1	mac	2022-12-25	12:04:44	12:10:12	326584	5fe354a2e44df4fb4634bbc3	639260520	1	main_z	7	advance_on_keypress_ZEE	102	stimuli_distractor_diamondtriangles.svg	stimuli_target_squarediamonds.svg	16	yes	57	0	699
6.6.1	mac	2022-12-25	12:04:44	12:10:14	328147	5fe354a2e44df4fb4634bbc3	639260520	1	main_z	7	main_z	103	stimuli_distractor_trianglediamonds.svg	stimuli_target_trianglesquares.svg	26	yes	44	1	232
6.6.1	mac	2022-12-25	12:04:44	12:10:14	328147	5fe354a2e44df4fb4634bbc3	639260520	1	main_z	7	advance_on_keypress_ZEE	104	stimuli_distractor_trianglediamonds.svg	stimuli_target_trianglesquares.svg	26	yes	57	0	1209
6.6.1	mac	2022-12-25	12:04:44	12:10:16	330241	5fe354a2e44df4fb4634bbc3	639260520	1	main_z	7	main_z	105	stimuli_distractor_trianglediamonds.svg	stimuli_target_circletriangles.svg	9	yes	44	1	259
6.6.1	mac	2022-12-25	12:04:44	12:10:16	330241	5fe354a2e44df4fb4634bbc3	639260520	1	main_z	7	advance_on_keypress_ZEE	106	stimuli_distractor_trianglediamonds.svg	stimuli_target_circletriangles.svg	9	yes	57	0	881
6.6.1	mac	2022-12-25	12:04:44	12:10:18	332109	5fe354a2e44df4fb4634bbc3	639260520	1	main_z	7	main_z	107	stimuli_distractor_trianglediamonds.svg	stimuli_distractor_diamondtriangles.svg	35	no	44	0	359
6.6.1	mac	2022-12-25	12:04:44	12:10:18	332109	5fe354a2e44df4fb4634bbc3	639260520	1	main_z	7	advance_on_keypress_ZEE	108	stimuli_distractor_trianglediamonds.svg	stimuli_distractor_diamondtriangles.svg	35	no	57	0	802
6.6.1	mac	2022-12-25	12:04:44	12:10:20	333795	5fe354a2e44df4fb4634bbc3	639260520	1	main_z	7	main_z	109	stimuli_target_squarediamonds.svg	stimuli_distractor_diamondtriangles.svg	8	yes	44	1	263
6.6.1	mac	2022-12-25	12:04:44	12:10:20	333795	5fe354a2e44df4fb4634bbc3	639260520	1	main_z	7	advance_on_keypress_ZEE	110	stimuli_target_squarediamonds.svg	stimuli_distractor_diamondtriangles.svg	8	yes	57	0	851
6.6.1	mac	2022-12-25	12:04:44	12:10:23	337268	5fe354a2e44df4fb4634bbc3	639260520	1	main_z	7	main_z	111	stimuli_target_trianglesquares.svg	stimuli_distractor_diamondtriangles.svg	22	yes	0	0	2000
6.6.1	mac	2022-12-25	12:04:44	12:10:23	337268	5fe354a2e44df4fb4634bbc3	639260520	1	main_z	7	advance_on_keypress_ZEE	112	stimuli_target_trianglesquares.svg	stimuli_distractor_diamondtriangles.svg	22	yes	57	0	359
6.6.1	mac	2022-12-25	12:04:44	12:10:24	338476	5fe354a2e44df4fb4634bbc3	639260520	1	main_z	7	main_z	113	stimuli_target_squaretriangles.svg	stimuli_distractor_diamondtriangles.svg	7	yes	44	1	226
6.6.1	mac	2022-12-25	12:04:44	12:10:24	338476	5fe354a2e44df4fb4634bbc3	639260520	1	main_z	7	advance_on_keypress_ZEE	114	stimuli_target_squaretriangles.svg	stimuli_distractor_diamondtriangles.svg	7	yes	57	0	1007
6.6.1	mac	2022-12-25	12:04:44	12:10:26	340489	5fe354a2e44df4fb4634bbc3	639260520	1	main_z	7	main_z	115	stimuli_target_trianglecircles.svg	stimuli_distractor_trianglediamonds.svg	17	yes	44	1	390
6.6.1	mac	2022-12-25	12:04:44	12:10:26	340489	5fe354a2e44df4fb4634bbc3	639260520	1	main_z	7	advance_on_keypress_ZEE	116	stimuli_target_trianglecircles.svg	stimuli_distractor_trianglediamonds.svg	17	yes	57	0	852
6.6.1	mac	2022-12-25	12:04:44	12:10:30	343969	5fe354a2e44df4fb4634bbc3	639260520	1	main_z	7	main_z	117	stimuli_target_trianglesquares.svg	stimuli_distractor_trianglediamonds.svg	18	yes	0	0	2000
6.6.1	mac	2022-12-25	12:04:44	12:10:30	343969	5fe354a2e44df4fb4634bbc3	639260520	1	main_z	7	advance_on_keypress_ZEE	118	stimuli_target_trianglesquares.svg	stimuli_distractor_trianglediamonds.svg	18	yes	57	0	344
6.6.1	mac	2022-12-25	12:04:44	12:10:31	345315	5fe354a2e44df4fb4634bbc3	639260520	1	main_z	7	main_z	119	stimuli_target_squarediamonds.svg	stimuli_distractor_trianglediamonds.svg	4	yes	44	1	384
6.6.1	mac	2022-12-25	12:04:44	12:10:31	345315	5fe354a2e44df4fb4634bbc3	639260520	1	main_z	7	advance_on_keypress_ZEE	120	stimuli_target_squarediamonds.svg	stimuli_distractor_trianglediamonds.svg	4	yes	57	0	738
6.6.1	mac	2022-12-25	12:04:44	12:10:33	346936	5fe354a2e44df4fb4634bbc3	639260520	1	main_z	7	main_z	121	stimuli_distractor_diamondtriangles.svg	stimuli_target_diamondsquares.svg	32	yes	44	1	253
6.6.1	mac	2022-12-25	12:04:44	12:10:33	346936	5fe354a2e44df4fb4634bbc3	639260520	1	main_z	7	advance_on_keypress_ZEE	122	stimuli_distractor_diamondtriangles.svg	stimuli_target_diamondsquares.svg	32	yes	57	0	921
6.6.1	mac	2022-12-25	12:04:44	12:10:36	350484	5fe354a2e44df4fb4634bbc3	639260520	1	main_z	7	main_z	123	stimuli_target_diamondcircles.svg	stimuli_distractor_trianglediamonds.svg	19	yes	0	0	2000
6.6.1	mac	2022-12-25	12:04:44	12:10:36	350484	5fe354a2e44df4fb4634bbc3	639260520	1	main_z	7	advance_on_keypress_ZEE	124	stimuli_target_diamondcircles.svg	stimuli_distractor_trianglediamonds.svg	19	yes	57	0	329
6.6.1	mac	2022-12-25	12:04:44	12:10:37	351674	5fe354a2e44df4fb4634bbc3	639260520	1	main_z	7	main_z	125	stimuli_target_circlediamonds.svg	stimuli_distractor_diamondtriangles.svg	6	yes	44	1	224
6.6.1	mac	2022-12-25	12:04:44	12:10:37	351674	5fe354a2e44df4fb4634bbc3	639260520	1	main_z	7	advance_on_keypress_ZEE	126	stimuli_target_circlediamonds.svg	stimuli_distractor_diamondtriangles.svg	6	yes	57	0	688
6.6.1	mac	2022-12-25	12:04:44	12:10:39	353281	5fe354a2e44df4fb4634bbc3	639260520	1	main_z	7	main_z	127	stimuli_distractor_diamondtriangles.svg	stimuli_distractor_diamondtriangles.svg	39	no	44	0	299
6.6.1	mac	2022-12-25	12:04:44	12:10:39	353281	5fe354a2e44df4fb4634bbc3	639260520	1	main_z	7	advance_on_keypress_ZEE	128	stimuli_distractor_diamondtriangles.svg	stimuli_distractor_diamondtriangles.svg	39	no	57	0	1163
6.6.1	mac	2022-12-25	12:04:44	12:10:41	355374	5fe354a2e44df4fb4634bbc3	639260520	1	main_z	7	main_z	129	stimuli_target_diamondsquares.svg	stimuli_distractor_trianglediamonds.svg	20	yes	44	1	292
6.6.1	mac	2022-12-25	12:04:44	12:10:41	355374	5fe354a2e44df4fb4634bbc3	639260520	1	main_z	7	advance_on_keypress_ZEE	130	stimuli_target_diamondsquares.svg	stimuli_distractor_trianglediamonds.svg	20	yes	57	0	1308
6.6.1	mac	2022-12-25	12:04:44	12:10:43	357534	5fe354a2e44df4fb4634bbc3	639260520	1	main_z	7	main_z	131	stimuli_distractor_trianglediamonds.svg	stimuli_target_trianglecircles.svg	25	yes	44	1	235
6.6.1	mac	2022-12-25	12:04:44	12:10:43	357534	5fe354a2e44df4fb4634bbc3	639260520	1	main_z	7	advance_on_keypress_ZEE	132	stimuli_distractor_trianglediamonds.svg	stimuli_target_trianglecircles.svg	25	yes	57	0	1718
6.6.1	mac	2022-12-25	12:04:44	12:10:46	360133	5fe354a2e44df4fb4634bbc3	639260520	1	main_z	7	main_z	133	stimuli_target_trianglecircles.svg	stimuli_distractor_diamondtriangles.svg	21	yes	44	1	251
6.6.1	mac	2022-12-25	12:04:44	12:10:46	360133	5fe354a2e44df4fb4634bbc3	639260520	1	main_z	7	advance_on_keypress_ZEE	134	stimuli_target_trianglecircles.svg	stimuli_distractor_diamondtriangles.svg	21	yes	57	0	851
6.6.1	mac	2022-12-25	12:04:44	12:10:49	363618	5fe354a2e44df4fb4634bbc3	639260520	1	main_z	7	main_z	135	stimuli_target_diamondcircles.svg	stimuli_distractor_diamondtriangles.svg	23	yes	0	0	2000
6.6.1	mac	2022-12-25	12:04:44	12:10:49	363618	5fe354a2e44df4fb4634bbc3	639260520	1	main_z	7	advance_on_keypress_ZEE	136	stimuli_target_diamondcircles.svg	stimuli_distractor_diamondtriangles.svg	23	yes	57	0	438
6.6.1	mac	2022-12-25	12:04:44	12:10:51	364926	5fe354a2e44df4fb4634bbc3	639260520	1	main_z	7	main_z	137	stimuli_distractor_diamondtriangles.svg	stimuli_distractor_trianglediamonds.svg	38	no	44	0	244
6.6.1	mac	2022-12-25	12:04:44	12:10:51	364926	5fe354a2e44df4fb4634bbc3	639260520	1	main_z	7	advance_on_keypress_ZEE	138	stimuli_distractor_diamondtriangles.svg	stimuli_distractor_trianglediamonds.svg	38	no	57	0	1468
6.6.1	mac	2022-12-25	12:04:44	12:10:53	367243	5fe354a2e44df4fb4634bbc3	639260520	1	main_z	7	main_z	139	stimuli_distractor_trianglediamonds.svg	stimuli_distractor_trianglediamonds.svg	33	no	44	0	228
6.6.1	mac	2022-12-25	12:04:44	12:10:53	367243	5fe354a2e44df4fb4634bbc3	639260520	1	main_z	7	advance_on_keypress_ZEE	140	stimuli_distractor_trianglediamonds.svg	stimuli_distractor_trianglediamonds.svg	33	no	57	0	1323
6.6.1	mac	2022-12-25	12:04:44	12:10:57	371185	5fe354a2e44df4fb4634bbc3	639260520	1	main_z	7	main_z	141	stimuli_distractor_trianglediamonds.svg	stimuli_target_diamondsquares.svg	28	yes	0	0	2000
6.6.1	mac	2022-12-25	12:04:44	12:10:57	371185	5fe354a2e44df4fb4634bbc3	639260520	1	main_z	7	advance_on_keypress_ZEE	142	stimuli_distractor_trianglediamonds.svg	stimuli_target_diamondsquares.svg	28	yes	57	0	432
6.6.1	mac	2022-12-25	12:04:44	12:10:58	372475	5fe354a2e44df4fb4634bbc3	639260520	1	main_z	7	main_z	143	stimuli_distractor_trianglediamonds.svg	stimuli_target_diamondcircles.svg	27	yes	44	1	225
6.6.1	mac	2022-12-25	12:04:44	12:10:58	372475	5fe354a2e44df4fb4634bbc3	639260520	1	main_z	7	advance_on_keypress_ZEE	144	stimuli_distractor_trianglediamonds.svg	stimuli_target_diamondcircles.svg	27	yes	57	0	747
6.6.1	mac	2022-12-25	12:04:44	12:11:00	374230	5fe354a2e44df4fb4634bbc3	639260520	1	main_z	7	main_z	145	stimuli_target_diamondsquares.svg	stimuli_distractor_diamondtriangles.svg	24	yes	44	1	398
6.6.1	mac	2022-12-25	12:04:44	12:11:00	374230	5fe354a2e44df4fb4634bbc3	639260520	1	main_z	7	advance_on_keypress_ZEE	146	stimuli_target_diamondsquares.svg	stimuli_distractor_diamondtriangles.svg	24	yes	57	0	826
6.6.1	mac	2022-12-25	12:04:44	12:11:01	375759	5fe354a2e44df4fb4634bbc3	639260520	1	main_z	7	main_z	147	stimuli_distractor_diamondtriangles.svg	stimuli_distractor_trianglediamonds.svg	37	no	44	0	76
6.6.1	mac	2022-12-25	12:04:44	12:11:01	375759	5fe354a2e44df4fb4634bbc3	639260520	1	main_z	7	advance_on_keypress_ZEE	148	stimuli_distractor_diamondtriangles.svg	stimuli_distractor_trianglediamonds.svg	37	no	57	0	715
6.6.1	mac	2022-12-25	12:04:44	12:11:03	377301	5fe354a2e44df4fb4634bbc3	639260520	1	main_z	7	main_z	149	stimuli_distractor_diamondtriangles.svg	stimuli_target_circlediamonds.svg	14	yes	44	1	202
6.6.1	mac	2022-12-25	12:04:44	12:11:03	377301	5fe354a2e44df4fb4634bbc3	639260520	1	main_z	7	advance_on_keypress_ZEE	150	stimuli_distractor_diamondtriangles.svg	stimuli_target_circlediamonds.svg	14	yes	57	0	615
6.6.1	mac	2022-12-25	12:04:44	12:11:06	380551	5fe354a2e44df4fb4634bbc3	639260520	1	main_z	7	main_z	151	stimuli_distractor_diamondtriangles.svg	stimuli_target_circletriangles.svg	13	yes	0	0	2000
6.6.1	mac	2022-12-25	12:04:44	12:11:06	380551	5fe354a2e44df4fb4634bbc3	639260520	1	main_z	7	advance_on_keypress_ZEE	152	stimuli_distractor_diamondtriangles.svg	stimuli_target_circletriangles.svg	13	yes	57	0	425
6.6.1	mac	2022-12-25	12:04:44	12:11:07	381723	5fe354a2e44df4fb4634bbc3	639260520	1	main_z	7	main_z	153	stimuli_target_squaretriangles.svg	stimuli_distractor_trianglediamonds.svg	3	yes	44	1	124
6.6.1	mac	2022-12-25	12:04:44	12:11:07	381723	5fe354a2e44df4fb4634bbc3	639260520	1	main_z	7	advance_on_keypress_ZEE	154	stimuli_target_squaretriangles.svg	stimuli_distractor_trianglediamonds.svg	3	yes	57	0	767
6.6.1	mac	2022-12-25	12:04:44	12:11:09	383354	5fe354a2e44df4fb4634bbc3	639260520	1	main_z	7	main_z	155	stimuli_distractor_diamondtriangles.svg	stimuli_target_trianglecircles.svg	29	yes	44	1	239
6.6.1	mac	2022-12-25	12:04:44	12:11:09	383354	5fe354a2e44df4fb4634bbc3	639260520	1	main_z	7	advance_on_keypress_ZEE	156	stimuli_distractor_diamondtriangles.svg	stimuli_target_trianglecircles.svg	29	yes	57	0	641
6.6.1	mac	2022-12-25	12:04:44	12:11:11	384839	5fe354a2e44df4fb4634bbc3	639260520	1	main_z	7	main_z	157	stimuli_distractor_trianglediamonds.svg	stimuli_target_squarediamonds.svg	12	yes	44	1	224
6.6.1	mac	2022-12-25	12:04:44	12:11:11	384839	5fe354a2e44df4fb4634bbc3	639260520	1	main_z	7	advance_on_keypress_ZEE	158	stimuli_distractor_trianglediamonds.svg	stimuli_target_squarediamonds.svg	12	yes	57	0	1260
6.6.1	mac	2022-12-25	12:04:44	12:11:13	386932	5fe354a2e44df4fb4634bbc3	639260520	1	main_z	7	main_z	159	stimuli_target_circlediamonds.svg	stimuli_distractor_trianglediamonds.svg	2	yes	44	1	217
6.6.1	mac	2022-12-25	12:04:44	12:11:13	386932	5fe354a2e44df4fb4634bbc3	639260520	1	main_z	7	advance_on_keypress_ZEE	160	stimuli_target_circlediamonds.svg	stimuli_distractor_trianglediamonds.svg	2	yes	57	0	1175
6.6.1	mac	2022-12-25	12:04:44	12:11:33	406879	5fe354a2e44df4fb4634bbc3	639260520	1	practice_slash	9	practice_slash	1	stimuli_target_diamondsquares.svg	stimuli_distractor_diamondtriangles.svg	3	yes	53	1	279
6.6.1	mac	2022-12-25	12:04:44	12:11:33	406879	5fe354a2e44df4fb4634bbc3	639260520	1	practice_slash	9	advance_on_keypress_SLASH	2	stimuli_target_diamondsquares.svg	stimuli_distractor_diamondtriangles.svg	3	yes	57	0	734
6.6.1	mac	2022-12-25	12:04:44	12:11:37	411252	5fe354a2e44df4fb4634bbc3	639260520	1	practice_slash	9	practice_slash	3	stimuli_distractor_trianglediamonds.svg	stimuli_target_diamondcircles.svg	12	yes	0	0	2000
6.6.1	mac	2022-12-25	12:04:44	12:11:37	411252	5fe354a2e44df4fb4634bbc3	639260520	1	practice_slash	9	advance_on_keypress_SLASH	4	stimuli_distractor_trianglediamonds.svg	stimuli_target_diamondcircles.svg	12	yes	57	0	294
6.6.1	mac	2022-12-25	12:04:44	12:11:39	413449	5fe354a2e44df4fb4634bbc3	639260520	1	practice_slash	9	practice_slash	5	stimuli_target_squarediamonds.svg	stimuli_distractor_diamondtriangles.svg	2	yes	53	1	282
6.6.1	mac	2022-12-25	12:04:44	12:11:39	413449	5fe354a2e44df4fb4634bbc3	639260520	1	practice_slash	9	advance_on_keypress_SLASH	6	stimuli_target_squarediamonds.svg	stimuli_distractor_diamondtriangles.svg	2	yes	57	0	367
6.6.1	mac	2022-12-25	12:04:44	12:11:43	417452	5fe354a2e44df4fb4634bbc3	639260520	1	practice_slash	9	practice_slash	7	stimuli_target_diamondsquares.svg	stimuli_distractor_trianglediamonds.svg	6	yes	0	0	2000
6.6.1	mac	2022-12-25	12:04:44	12:11:43	417452	5fe354a2e44df4fb4634bbc3	639260520	1	practice_slash	9	advance_on_keypress_SLASH	8	stimuli_target_diamondsquares.svg	stimuli_distractor_trianglediamonds.svg	6	yes	57	0	315
6.6.1	mac	2022-12-25	12:04:44	12:11:45	419761	5fe354a2e44df4fb4634bbc3	639260520	1	practice_slash	9	practice_slash	9	stimuli_distractor_trianglediamonds.svg	stimuli_target_squarediamonds.svg	11	yes	53	1	360
6.6.1	mac	2022-12-25	12:04:44	12:11:45	419761	5fe354a2e44df4fb4634bbc3	639260520	1	practice_slash	9	advance_on_keypress_SLASH	10	stimuli_distractor_trianglediamonds.svg	stimuli_target_squarediamonds.svg	11	yes	57	0	558
6.6.1	mac	2022-12-25	12:04:44	12:11:48	422224	5fe354a2e44df4fb4634bbc3	639260520	1	practice_slash	9	practice_slash	11	stimuli_target_circlediamonds.svg	stimuli_distractor_trianglediamonds.svg	4	yes	53	1	291
6.6.1	mac	2022-12-25	12:04:44	12:11:48	422224	5fe354a2e44df4fb4634bbc3	639260520	1	practice_slash	9	advance_on_keypress_SLASH	12	stimuli_target_circlediamonds.svg	stimuli_distractor_trianglediamonds.svg	4	yes	57	0	679
6.6.1	mac	2022-12-25	12:04:44	12:11:51	424789	5fe354a2e44df4fb4634bbc3	639260520	1	practice_slash	9	practice_slash	13	stimuli_distractor_diamondtriangles.svg	stimuli_target_diamondcircles.svg	8	yes	53	1	273
6.6.1	mac	2022-12-25	12:04:44	12:11:51	424789	5fe354a2e44df4fb4634bbc3	639260520	1	practice_slash	9	advance_on_keypress_SLASH	14	stimuli_distractor_diamondtriangles.svg	stimuli_target_diamondcircles.svg	8	yes	57	0	689
6.6.1	mac	2022-12-25	12:04:44	12:11:53	427389	5fe354a2e44df4fb4634bbc3	639260520	1	practice_slash	9	practice_slash	15	stimuli_distractor_trianglediamonds.svg	stimuli_distractor_diamondtriangles.svg	16	no	53	0	289
6.6.1	mac	2022-12-25	12:04:44	12:11:53	427389	5fe354a2e44df4fb4634bbc3	639260520	1	practice_slash	9	advance_on_keypress_SLASH	16	stimuli_distractor_trianglediamonds.svg	stimuli_distractor_diamondtriangles.svg	16	no	57	0	878
6.6.1	mac	2022-12-25	12:04:44	12:11:56	430167	5fe354a2e44df4fb4634bbc3	639260520	1	practice_slash	9	practice_slash	17	stimuli_distractor_trianglediamonds.svg	stimuli_target_circlediamonds.svg	10	yes	53	1	285
6.6.1	mac	2022-12-25	12:04:44	12:11:56	430167	5fe354a2e44df4fb4634bbc3	639260520	1	practice_slash	9	advance_on_keypress_SLASH	18	stimuli_distractor_trianglediamonds.svg	stimuli_target_circlediamonds.svg	10	yes	57	0	571
6.6.1	mac	2022-12-25	12:04:44	12:11:58	432609	5fe354a2e44df4fb4634bbc3	639260520	1	practice_slash	9	practice_slash	19	stimuli_distractor_diamondtriangles.svg	stimuli_distractor_diamondtriangles.svg	13	no	53	0	242
6.6.1	mac	2022-12-25	12:04:44	12:11:58	432609	5fe354a2e44df4fb4634bbc3	639260520	1	practice_slash	9	advance_on_keypress_SLASH	20	stimuli_distractor_diamondtriangles.svg	stimuli_distractor_diamondtriangles.svg	13	no	57	0	938
6.6.1	mac	2022-12-25	12:04:44	12:12:03	437168	5fe354a2e44df4fb4634bbc3	639260520	1	practice_slash	9	practice_slash	21	stimuli_distractor_diamondtriangles.svg	stimuli_target_circletriangles.svg	7	yes	0	0	2000
6.6.1	mac	2022-12-25	12:04:44	12:12:03	437168	5fe354a2e44df4fb4634bbc3	639260520	1	practice_slash	9	advance_on_keypress_SLASH	22	stimuli_distractor_diamondtriangles.svg	stimuli_target_circletriangles.svg	7	yes	57	0	579
6.6.1	mac	2022-12-25	12:04:44	12:12:05	439628	5fe354a2e44df4fb4634bbc3	639260520	1	practice_slash	9	practice_slash	23	stimuli_target_squarediamonds.svg	stimuli_distractor_trianglediamonds.svg	5	yes	53	1	246
6.6.1	mac	2022-12-25	12:04:44	12:12:05	439628	5fe354a2e44df4fb4634bbc3	639260520	1	practice_slash	9	advance_on_keypress_SLASH	24	stimuli_target_squarediamonds.svg	stimuli_distractor_trianglediamonds.svg	5	yes	57	0	920
6.6.1	mac	2022-12-25	12:04:44	12:12:08	442598	5fe354a2e44df4fb4634bbc3	639260520	1	practice_slash	9	practice_slash	25	stimuli_distractor_trianglediamonds.svg	stimuli_distractor_trianglediamonds.svg	15	no	53	0	433
6.6.1	mac	2022-12-25	12:04:44	12:12:08	442598	5fe354a2e44df4fb4634bbc3	639260520	1	practice_slash	9	advance_on_keypress_SLASH	26	stimuli_distractor_trianglediamonds.svg	stimuli_distractor_trianglediamonds.svg	15	no	57	0	592
6.6.1	mac	2022-12-25	12:04:44	12:12:11	445254	5fe354a2e44df4fb4634bbc3	639260520	1	practice_slash	9	practice_slash	27	stimuli_distractor_diamondtriangles.svg	stimuli_target_trianglecircles.svg	9	yes	53	1	438
6.6.1	mac	2022-12-25	12:04:44	12:12:11	445254	5fe354a2e44df4fb4634bbc3	639260520	1	practice_slash	9	advance_on_keypress_SLASH	28	stimuli_distractor_diamondtriangles.svg	stimuli_target_trianglecircles.svg	9	yes	57	0	528
6.6.1	mac	2022-12-25	12:04:44	12:12:13	447616	5fe354a2e44df4fb4634bbc3	639260520	1	practice_slash	9	practice_slash	29	stimuli_target_circlediamonds.svg	stimuli_distractor_diamondtriangles.svg	1	yes	53	1	217
6.6.1	mac	2022-12-25	12:04:44	12:12:13	447616	5fe354a2e44df4fb4634bbc3	639260520	1	practice_slash	9	advance_on_keypress_SLASH	30	stimuli_target_circlediamonds.svg	stimuli_distractor_diamondtriangles.svg	1	yes	57	0	627
6.6.1	mac	2022-12-25	12:04:44	12:12:16	450091	5fe354a2e44df4fb4634bbc3	639260520	1	practice_slash	9	practice_slash	31	stimuli_distractor_diamondtriangles.svg	stimuli_distractor_trianglediamonds.svg	14	no	53	0	225
6.6.1	mac	2022-12-25	12:04:44	12:12:16	450091	5fe354a2e44df4fb4634bbc3	639260520	1	practice_slash	9	advance_on_keypress_SLASH	32	stimuli_distractor_diamondtriangles.svg	stimuli_distractor_trianglediamonds.svg	14	no	57	0	646
6.6.1	mac	2022-12-25	12:04:44	12:12:22	455902	5fe354a2e44df4fb4634bbc3	639260520	1	main_slash	11	main_slash	1	stimuli_target_circletriangles.svg	stimuli_distractor_trianglediamonds.svg	1	yes	0	0	2000
6.6.1	mac	2022-12-25	12:04:44	12:12:22	455902	5fe354a2e44df4fb4634bbc3	639260520	1	main_slash	11	advance_on_keypress_SLASH	2	stimuli_target_circletriangles.svg	stimuli_distractor_trianglediamonds.svg	1	yes	57	0	409
6.6.1	mac	2022-12-25	12:04:44	12:12:23	457168	5fe354a2e44df4fb4634bbc3	639260520	1	main_slash	11	main_slash	3	stimuli_target_diamondsquares.svg	stimuli_distractor_trianglediamonds.svg	20	yes	53	1	236
6.6.1	mac	2022-12-25	12:04:44	12:12:23	457168	5fe354a2e44df4fb4634bbc3	639260520	1	main_slash	11	advance_on_keypress_SLASH	4	stimuli_target_diamondsquares.svg	stimuli_distractor_trianglediamonds.svg	20	yes	57	0	808
6.6.1	mac	2022-12-25	12:04:44	12:12:25	458935	5fe354a2e44df4fb4634bbc3	639260520	1	main_slash	11	main_slash	5	stimuli_target_trianglecircles.svg	stimuli_distractor_trianglediamonds.svg	17	yes	53	1	336
6.6.1	mac	2022-12-25	12:04:44	12:12:25	458935	5fe354a2e44df4fb4634bbc3	639260520	1	main_slash	11	advance_on_keypress_SLASH	6	stimuli_target_trianglecircles.svg	stimuli_distractor_trianglediamonds.svg	17	yes	57	0	920
6.6.1	mac	2022-12-25	12:04:44	12:12:27	460814	5fe354a2e44df4fb4634bbc3	639260520	1	main_slash	11	main_slash	7	stimuli_target_squarediamonds.svg	stimuli_distractor_diamondtriangles.svg	8	yes	53	1	331
6.6.1	mac	2022-12-25	12:04:44	12:12:27	460814	5fe354a2e44df4fb4634bbc3	639260520	1	main_slash	11	advance_on_keypress_SLASH	8	stimuli_target_squarediamonds.svg	stimuli_distractor_diamondtriangles.svg	8	yes	57	0	634
6.6.1	mac	2022-12-25	12:04:44	12:12:28	462209	5fe354a2e44df4fb4634bbc3	639260520	1	main_slash	11	main_slash	9	stimuli_target_diamondcircles.svg	stimuli_distractor_diamondtriangles.svg	23	yes	53	1	127
6.6.1	mac	2022-12-25	12:04:44	12:12:28	462209	5fe354a2e44df4fb4634bbc3	639260520	1	main_slash	11	advance_on_keypress_SLASH	10	stimuli_target_diamondcircles.svg	stimuli_distractor_diamondtriangles.svg	23	yes	57	0	500
6.6.1	mac	2022-12-25	12:04:44	12:12:29	463615	5fe354a2e44df4fb4634bbc3	639260520	1	main_slash	11	main_slash	11	stimuli_target_circlediamonds.svg	stimuli_distractor_diamondtriangles.svg	6	yes	53	1	283
6.6.1	mac	2022-12-25	12:04:44	12:12:29	463615	5fe354a2e44df4fb4634bbc3	639260520	1	main_slash	11	advance_on_keypress_SLASH	12	stimuli_target_circlediamonds.svg	stimuli_distractor_diamondtriangles.svg	6	yes	57	0	389
6.6.1	mac	2022-12-25	12:04:44	12:12:32	466635	5fe354a2e44df4fb4634bbc3	639260520	1	main_slash	11	main_slash	13	stimuli_distractor_diamondtriangles.svg	stimuli_target_circlediamonds.svg	14	yes	0	0	2000
6.6.1	mac	2022-12-25	12:04:44	12:12:32	466635	5fe354a2e44df4fb4634bbc3	639260520	1	main_slash	11	advance_on_keypress_SLASH	14	stimuli_distractor_diamondtriangles.svg	stimuli_target_circlediamonds.svg	14	yes	57	0	71
6.6.1	mac	2022-12-25	12:04:44	12:12:33	467509	5fe354a2e44df4fb4634bbc3	639260520	1	main_slash	11	main_slash	15	stimuli_distractor_diamondtriangles.svg	stimuli_distractor_diamondtriangles.svg	39	no	53	0	177
6.6.1	mac	2022-12-25	12:04:44	12:12:33	467509	5fe354a2e44df4fb4634bbc3	639260520	1	main_slash	11	advance_on_keypress_SLASH	16	stimuli_distractor_diamondtriangles.svg	stimuli_distractor_diamondtriangles.svg	39	no	57	0	727
6.6.1	mac	2022-12-25	12:04:44	12:12:35	469117	5fe354a2e44df4fb4634bbc3	639260520	1	main_slash	11	main_slash	17	stimuli_distractor_diamondtriangles.svg	stimuli_target_trianglecircles.svg	29	yes	53	1	252
6.6.1	mac	2022-12-25	12:04:44	12:12:35	469117	5fe354a2e44df4fb4634bbc3	639260520	1	main_slash	11	advance_on_keypress_SLASH	18	stimuli_distractor_diamondtriangles.svg	stimuli_target_trianglecircles.svg	29	yes	57	0	581
6.6.1	mac	2022-12-25	12:04:44	12:12:36	470433	5fe354a2e44df4fb4634bbc3	639260520	1	main_slash	11	main_slash	19	stimuli_distractor_diamondtriangles.svg	stimuli_target_squaretriangles.svg	15	yes	53	1	101
6.6.1	mac	2022-12-25	12:04:44	12:12:36	470433	5fe354a2e44df4fb4634bbc3	639260520	1	main_slash	11	advance_on_keypress_SLASH	20	stimuli_distractor_diamondtriangles.svg	stimuli_target_squaretriangles.svg	15	yes	57	0	716
6.6.1	mac	2022-12-25	12:04:44	12:12:38	472031	5fe354a2e44df4fb4634bbc3	639260520	1	main_slash	11	main_slash	21	stimuli_distractor_diamondtriangles.svg	stimuli_target_trianglesquares.svg	30	yes	53	1	249
6.6.1	mac	2022-12-25	12:04:44	12:12:38	472031	5fe354a2e44df4fb4634bbc3	639260520	1	main_slash	11	advance_on_keypress_SLASH	22	stimuli_distractor_diamondtriangles.svg	stimuli_target_trianglesquares.svg	30	yes	57	0	1264
6.6.1	mac	2022-12-25	12:04:44	12:12:40	474089	5fe354a2e44df4fb4634bbc3	639260520	1	main_slash	11	main_slash	23	stimuli_target_trianglesquares.svg	stimuli_distractor_diamondtriangles.svg	22	yes	53	1	157
6.6.1	mac	2022-12-25	12:04:44	12:12:40	474089	5fe354a2e44df4fb4634bbc3	639260520	1	main_slash	11	advance_on_keypress_SLASH	24	stimuli_target_trianglesquares.svg	stimuli_distractor_diamondtriangles.svg	22	yes	57	0	1319
6.6.1	mac	2022-12-25	12:04:44	12:12:42	476283	5fe354a2e44df4fb4634bbc3	639260520	1	main_slash	11	main_slash	25	stimuli_distractor_trianglediamonds.svg	stimuli_target_trianglesquares.svg	26	yes	53	1	234
6.6.1	mac	2022-12-25	12:04:44	12:12:42	476283	5fe354a2e44df4fb4634bbc3	639260520	1	main_slash	11	advance_on_keypress_SLASH	26	stimuli_distractor_trianglediamonds.svg	stimuli_target_trianglesquares.svg	26	yes	57	0	1223
6.6.1	mac	2022-12-25	12:04:44	12:12:44	478354	5fe354a2e44df4fb4634bbc3	639260520	1	main_slash	11	main_slash	27	stimuli_target_circlediamonds.svg	stimuli_distractor_trianglediamonds.svg	2	yes	53	1	222
6.6.1	mac	2022-12-25	12:04:44	12:12:44	478354	5fe354a2e44df4fb4634bbc3	639260520	1	main_slash	11	advance_on_keypress_SLASH	28	stimuli_target_circlediamonds.svg	stimuli_distractor_trianglediamonds.svg	2	yes	57	0	1102
6.6.1	mac	2022-12-25	12:04:44	12:12:46	480277	5fe354a2e44df4fb4634bbc3	639260520	1	main_slash	11	main_slash	29	stimuli_distractor_trianglediamonds.svg	stimuli_target_diamondcircles.svg	27	yes	53	1	195
6.6.1	mac	2022-12-25	12:04:44	12:12:46	480277	5fe354a2e44df4fb4634bbc3	639260520	1	main_slash	11	advance_on_keypress_SLASH	30	stimuli_distractor_trianglediamonds.svg	stimuli_target_diamondcircles.svg	27	yes	57	0	808
6.6.1	mac	2022-12-25	12:04:44	12:12:48	481999	5fe354a2e44df4fb4634bbc3	639260520	1	main_slash	11	main_slash	31	stimuli_distractor_trianglediamonds.svg	stimuli_target_squaretriangles.svg	11	yes	53	1	284
6.6.1	mac	2022-12-25	12:04:44	12:12:48	481999	5fe354a2e44df4fb4634bbc3	639260520	1	main_slash	11	advance_on_keypress_SLASH	32	stimuli_distractor_trianglediamonds.svg	stimuli_target_squaretriangles.svg	11	yes	57	0	1097
6.6.1	mac	2022-12-25	12:04:44	12:12:51	485734	5fe354a2e44df4fb4634bbc3	639260520	1	main_slash	11	main_slash	33	stimuli_distractor_trianglediamonds.svg	stimuli_target_trianglecircles.svg	25	yes	0	0	2000
6.6.1	mac	2022-12-25	12:04:44	12:12:51	485734	5fe354a2e44df4fb4634bbc3	639260520	1	main_slash	11	advance_on_keypress_SLASH	34	stimuli_distractor_trianglediamonds.svg	stimuli_target_trianglecircles.svg	25	yes	57	0	278
6.6.1	mac	2022-12-25	12:04:44	12:12:52	486747	5fe354a2e44df4fb4634bbc3	639260520	1	main_slash	11	main_slash	35	stimuli_distractor_trianglediamonds.svg	stimuli_target_squarediamonds.svg	12	yes	53	1	115
6.6.1	mac	2022-12-25	12:04:44	12:12:52	486747	5fe354a2e44df4fb4634bbc3	639260520	1	main_slash	11	advance_on_keypress_SLASH	36	stimuli_distractor_trianglediamonds.svg	stimuli_target_squarediamonds.svg	12	yes	57	0	928
6.6.1	mac	2022-12-25	12:04:44	12:12:54	488513	5fe354a2e44df4fb4634bbc3	639260520	1	main_slash	11	main_slash	37	stimuli_distractor_diamondtriangles.svg	stimuli_target_diamondcircles.svg	31	yes	53	1	214
6.6.1	mac	2022-12-25	12:04:44	12:12:54	488513	5fe354a2e44df4fb4634bbc3	639260520	1	main_slash	11	advance_on_keypress_SLASH	38	stimuli_distractor_diamondtriangles.svg	stimuli_target_diamondcircles.svg	31	yes	57	0	1027
6.6.1	mac	2022-12-25	12:04:44	12:12:56	490381	5fe354a2e44df4fb4634bbc3	639260520	1	main_slash	11	main_slash	39	stimuli_target_squaretriangles.svg	stimuli_distractor_diamondtriangles.svg	7	yes	53	1	216
6.6.1	mac	2022-12-25	12:04:44	12:12:56	490381	5fe354a2e44df4fb4634bbc3	639260520	1	main_slash	11	advance_on_keypress_SLASH	40	stimuli_target_squaretriangles.svg	stimuli_distractor_diamondtriangles.svg	7	yes	57	0	882
6.6.1	mac	2022-12-25	12:04:44	12:12:58	492124	5fe354a2e44df4fb4634bbc3	639260520	1	main_slash	11	main_slash	41	stimuli_distractor_diamondtriangles.svg	stimuli_distractor_trianglediamonds.svg	37	no	53	0	225
6.6.1	mac	2022-12-25	12:04:44	12:12:58	492124	5fe354a2e44df4fb4634bbc3	639260520	1	main_slash	11	advance_on_keypress_SLASH	42	stimuli_distractor_diamondtriangles.svg	stimuli_distractor_trianglediamonds.svg	37	no	57	0	1219
6.6.1	mac	2022-12-25	12:04:44	12:13:00	494228	5fe354a2e44df4fb4634bbc3	639260520	1	main_slash	11	main_slash	43	stimuli_distractor_trianglediamonds.svg	stimuli_distractor_diamondtriangles.svg	35	no	53	0	263
6.6.1	mac	2022-12-25	12:04:44	12:13:00	494228	5fe354a2e44df4fb4634bbc3	639260520	1	main_slash	11	advance_on_keypress_SLASH	44	stimuli_distractor_trianglediamonds.svg	stimuli_distractor_diamondtriangles.svg	35	no	57	0	941
6.6.1	mac	2022-12-25	12:04:44	12:13:02	495926	5fe354a2e44df4fb4634bbc3	639260520	1	main_slash	11	main_slash	45	stimuli_target_squaretriangles.svg	stimuli_distractor_trianglediamonds.svg	3	yes	53	1	144
6.6.1	mac	2022-12-25	12:04:44	12:13:02	495926	5fe354a2e44df4fb4634bbc3	639260520	1	main_slash	11	advance_on_keypress_SLASH	46	stimuli_target_squaretriangles.svg	stimuli_distractor_trianglediamonds.svg	3	yes	57	0	751
6.6.1	mac	2022-12-25	12:04:44	12:13:03	497661	5fe354a2e44df4fb4634bbc3	639260520	1	main_slash	11	main_slash	47	stimuli_target_trianglecircles.svg	stimuli_distractor_diamondtriangles.svg	21	yes	53	1	362
6.6.1	mac	2022-12-25	12:04:44	12:13:03	497661	5fe354a2e44df4fb4634bbc3	639260520	1	main_slash	11	advance_on_keypress_SLASH	48	stimuli_target_trianglecircles.svg	stimuli_distractor_diamondtriangles.svg	21	yes	57	0	579
6.6.1	mac	2022-12-25	12:04:44	12:13:07	500851	5fe354a2e44df4fb4634bbc3	639260520	1	main_slash	11	main_slash	49	stimuli_distractor_diamondtriangles.svg	stimuli_target_circletriangles.svg	13	yes	0	0	2000
6.6.1	mac	2022-12-25	12:04:44	12:13:07	500851	5fe354a2e44df4fb4634bbc3	639260520	1	main_slash	11	advance_on_keypress_SLASH	50	stimuli_distractor_diamondtriangles.svg	stimuli_target_circletriangles.svg	13	yes	57	0	494
6.6.1	mac	2022-12-25	12:04:44	12:13:08	502014	5fe354a2e44df4fb4634bbc3	639260520	1	main_slash	11	main_slash	51	stimuli_target_trianglesquares.svg	stimuli_distractor_trianglediamonds.svg	18	yes	53	1	48
6.6.1	mac	2022-12-25	12:04:44	12:13:08	502014	5fe354a2e44df4fb4634bbc3	639260520	1	main_slash	11	advance_on_keypress_SLASH	52	stimuli_target_trianglesquares.svg	stimuli_distractor_trianglediamonds.svg	18	yes	57	0	1310
6.6.1	mac	2022-12-25	12:04:44	12:13:10	504174	5fe354a2e44df4fb4634bbc3	639260520	1	main_slash	11	main_slash	53	stimuli_target_circletriangles.svg	stimuli_distractor_diamondtriangles.svg	5	yes	53	1	225
6.6.1	mac	2022-12-25	12:04:44	12:13:10	504174	5fe354a2e44df4fb4634bbc3	639260520	1	main_slash	11	advance_on_keypress_SLASH	54	stimuli_target_circletriangles.svg	stimuli_distractor_diamondtriangles.svg	5	yes	57	0	712
6.6.1	mac	2022-12-25	12:04:44	12:13:11	505692	5fe354a2e44df4fb4634bbc3	639260520	1	main_slash	11	main_slash	55	stimuli_distractor_trianglediamonds.svg	stimuli_distractor_diamondtriangles.svg	36	no	53	0	193
6.6.1	mac	2022-12-25	12:04:44	12:13:11	505692	5fe354a2e44df4fb4634bbc3	639260520	1	main_slash	11	advance_on_keypress_SLASH	56	stimuli_distractor_trianglediamonds.svg	stimuli_distractor_diamondtriangles.svg	36	no	57	0	2764
6.6.1	mac	2022-12-25	12:04:44	12:13:17	511084	5fe354a2e44df4fb4634bbc3	639260520	1	main_slash	11	main_slash	57	stimuli_target_squarediamonds.svg	stimuli_distractor_trianglediamonds.svg	4	yes	0	0	2000
6.6.1	mac	2022-12-25	12:04:44	12:13:17	511084	5fe354a2e44df4fb4634bbc3	639260520	1	main_slash	11	advance_on_keypress_SLASH	58	stimuli_target_squarediamonds.svg	stimuli_distractor_trianglediamonds.svg	4	yes	57	0	488
6.6.1	mac	2022-12-25	12:04:44	12:13:18	512296	5fe354a2e44df4fb4634bbc3	639260520	1	main_slash	11	main_slash	59	stimuli_distractor_trianglediamonds.svg	stimuli_target_circlediamonds.svg	10	yes	53	1	97
6.6.1	mac	2022-12-25	12:04:44	12:13:18	512296	5fe354a2e44df4fb4634bbc3	639260520	1	main_slash	11	advance_on_keypress_SLASH	60	stimuli_distractor_trianglediamonds.svg	stimuli_target_circlediamonds.svg	10	yes	57	0	1601
6.6.1	mac	2022-12-25	12:04:44	12:13:21	514772	5fe354a2e44df4fb4634bbc3	639260520	1	main_slash	11	main_slash	61	stimuli_distractor_trianglediamonds.svg	stimuli_distractor_trianglediamonds.svg	34	no	53	0	239
6.6.1	mac	2022-12-25	12:04:44	12:13:21	514772	5fe354a2e44df4fb4634bbc3	639260520	1	main_slash	11	advance_on_keypress_SLASH	62	stimuli_distractor_trianglediamonds.svg	stimuli_distractor_trianglediamonds.svg	34	no	57	0	755
6.6.1	mac	2022-12-25	12:04:44	12:13:22	516189	5fe354a2e44df4fb4634bbc3	639260520	1	main_slash	11	main_slash	63	stimuli_target_diamondcircles.svg	stimuli_distractor_trianglediamonds.svg	19	yes	53	1	40
6.6.1	mac	2022-12-25	12:04:44	12:13:22	516189	5fe354a2e44df4fb4634bbc3	639260520	1	main_slash	11	advance_on_keypress_SLASH	64	stimuli_target_diamondcircles.svg	stimuli_distractor_trianglediamonds.svg	19	yes	57	0	1174
6.6.1	mac	2022-12-25	12:04:44	12:13:24	518248	5fe354a2e44df4fb4634bbc3	639260520	1	main_slash	11	main_slash	65	stimuli_distractor_diamondtriangles.svg	stimuli_target_diamondsquares.svg	32	yes	53	1	249
6.6.1	mac	2022-12-25	12:04:44	12:13:24	518248	5fe354a2e44df4fb4634bbc3	639260520	1	main_slash	11	advance_on_keypress_SLASH	66	stimuli_distractor_diamondtriangles.svg	stimuli_target_diamondsquares.svg	32	yes	57	0	905
6.6.1	mac	2022-12-25	12:04:44	12:13:26	519992	5fe354a2e44df4fb4634bbc3	639260520	1	main_slash	11	main_slash	67	stimuli_distractor_trianglediamonds.svg	stimuli_distractor_trianglediamonds.svg	33	no	53	0	210
6.6.1	mac	2022-12-25	12:04:44	12:13:26	519992	5fe354a2e44df4fb4634bbc3	639260520	1	main_slash	11	advance_on_keypress_SLASH	68	stimuli_distractor_trianglediamonds.svg	stimuli_distractor_trianglediamonds.svg	33	no	57	0	1186
6.6.1	mac	2022-12-25	12:04:44	12:13:28	522051	5fe354a2e44df4fb4634bbc3	639260520	1	main_slash	11	main_slash	69	stimuli_target_diamondsquares.svg	stimuli_distractor_diamondtriangles.svg	24	yes	53	1	251
6.6.1	mac	2022-12-25	12:04:44	12:13:28	522051	5fe354a2e44df4fb4634bbc3	639260520	1	main_slash	11	advance_on_keypress_SLASH	70	stimuli_target_diamondsquares.svg	stimuli_distractor_diamondtriangles.svg	24	yes	57	0	976
6.6.1	mac	2022-12-25	12:04:44	12:13:31	525651	5fe354a2e44df4fb4634bbc3	639260520	1	main_slash	11	main_slash	71	stimuli_distractor_diamondtriangles.svg	stimuli_target_squarediamonds.svg	16	yes	0	0	2000
6.6.1	mac	2022-12-25	12:04:44	12:13:31	525651	5fe354a2e44df4fb4634bbc3	639260520	1	main_slash	11	advance_on_keypress_SLASH	72	stimuli_distractor_diamondtriangles.svg	stimuli_target_squarediamonds.svg	16	yes	57	0	287
6.6.1	mac	2022-12-25	12:04:44	12:13:32	526708	5fe354a2e44df4fb4634bbc3	639260520	1	main_slash	11	main_slash	73	stimuli_distractor_diamondtriangles.svg	stimuli_distractor_trianglediamonds.svg	38	no	53	0	143
6.6.1	mac	2022-12-25	12:04:44	12:13:32	526708	5fe354a2e44df4fb4634bbc3	639260520	1	main_slash	11	advance_on_keypress_SLASH	74	stimuli_distractor_diamondtriangles.svg	stimuli_distractor_trianglediamonds.svg	38	no	57	0	841
6.6.1	mac	2022-12-25	12:04:44	12:13:34	528216	5fe354a2e44df4fb4634bbc3	639260520	1	main_slash	11	main_slash	75	stimuli_distractor_diamondtriangles.svg	stimuli_distractor_diamondtriangles.svg	40	no	53	0	34
6.6.1	mac	2022-12-25	12:04:44	12:13:34	528216	5fe354a2e44df4fb4634bbc3	639260520	1	main_slash	11	advance_on_keypress_SLASH	76	stimuli_distractor_diamondtriangles.svg	stimuli_distractor_diamondtriangles.svg	40	no	57	0	726
6.6.1	mac	2022-12-25	12:04:44	12:13:36	529814	5fe354a2e44df4fb4634bbc3	639260520	1	main_slash	11	main_slash	77	stimuli_distractor_trianglediamonds.svg	stimuli_target_circletriangles.svg	9	yes	53	1	248
6.6.1	mac	2022-12-25	12:04:44	12:13:36	529814	5fe354a2e44df4fb4634bbc3	639260520	1	main_slash	11	advance_on_keypress_SLASH	78	stimuli_distractor_trianglediamonds.svg	stimuli_target_circletriangles.svg	9	yes	57	0	972
6.6.1	mac	2022-12-25	12:04:44	12:13:37	531670	5fe354a2e44df4fb4634bbc3	639260520	1	main_slash	11	main_slash	79	stimuli_distractor_trianglediamonds.svg	stimuli_target_diamondsquares.svg	28	yes	53	1	255
6.6.1	mac	2022-12-25	12:04:44	12:13:37	531670	5fe354a2e44df4fb4634bbc3	639260520	1	main_slash	11	advance_on_keypress_SLASH	80	stimuli_distractor_trianglediamonds.svg	stimuli_target_diamondsquares.svg	28	yes	57	0	698
6.6.1	mac	2022-12-25	12:04:44	12:13:39	533054	5fe354a2e44df4fb4634bbc3	639260520	1	main_slash	11	main_slash	81	stimuli_target_circlediamonds.svg	stimuli_distractor_diamondtriangles.svg	6	yes	53	1	55
6.6.1	mac	2022-12-25	12:04:44	12:13:39	533054	5fe354a2e44df4fb4634bbc3	639260520	1	main_slash	11	advance_on_keypress_SLASH	82	stimuli_target_circlediamonds.svg	stimuli_distractor_diamondtriangles.svg	6	yes	57	0	577
6.6.1	mac	2022-12-25	12:04:44	12:13:40	534471	5fe354a2e44df4fb4634bbc3	639260520	1	main_slash	11	main_slash	83	stimuli_target_trianglecircles.svg	stimuli_distractor_trianglediamonds.svg	17	yes	53	1	206
6.6.1	mac	2022-12-25	12:04:44	12:13:40	534471	5fe354a2e44df4fb4634bbc3	639260520	1	main_slash	11	advance_on_keypress_SLASH	84	stimuli_target_trianglecircles.svg	stimuli_distractor_trianglediamonds.svg	17	yes	57	0	1305
6.6.1	mac	2022-12-25	12:04:44	12:13:42	536508	5fe354a2e44df4fb4634bbc3	639260520	1	main_slash	11	main_slash	85	stimuli_target_squaretriangles.svg	stimuli_distractor_diamondtriangles.svg	7	yes	53	1	109
6.6.1	mac	2022-12-25	12:04:44	12:13:42	536508	5fe354a2e44df4fb4634bbc3	639260520	1	main_slash	11	advance_on_keypress_SLASH	86	stimuli_target_squaretriangles.svg	stimuli_distractor_diamondtriangles.svg	7	yes	57	0	667
6.6.1	mac	2022-12-25	12:04:44	12:13:46	539802	5fe354a2e44df4fb4634bbc3	639260520	1	main_slash	11	main_slash	87	stimuli_target_diamondsquares.svg	stimuli_distractor_diamondtriangles.svg	24	yes	0	0	2000
6.6.1	mac	2022-12-25	12:04:44	12:13:46	539802	5fe354a2e44df4fb4634bbc3	639260520	1	main_slash	11	advance_on_keypress_SLASH	88	stimuli_target_diamondsquares.svg	stimuli_distractor_diamondtriangles.svg	24	yes	57	0	351
6.6.1	mac	2022-12-25	12:04:44	12:13:47	540840	5fe354a2e44df4fb4634bbc3	639260520	1	main_slash	11	main_slash	89	stimuli_target_diamondcircles.svg	stimuli_distractor_trianglediamonds.svg	19	yes	53	1	58
6.6.1	mac	2022-12-25	12:04:44	12:13:47	540840	5fe354a2e44df4fb4634bbc3	639260520	1	main_slash	11	advance_on_keypress_SLASH	90	stimuli_target_diamondcircles.svg	stimuli_distractor_trianglediamonds.svg	19	yes	57	0	1322
6.6.1	mac	2022-12-25	12:04:44	12:13:49	542921	5fe354a2e44df4fb4634bbc3	639260520	1	main_slash	11	main_slash	91	stimuli_target_squarediamonds.svg	stimuli_distractor_trianglediamonds.svg	4	yes	53	1	122
6.6.1	mac	2022-12-25	12:04:44	12:13:49	542921	5fe354a2e44df4fb4634bbc3	639260520	1	main_slash	11	advance_on_keypress_SLASH	92	stimuli_target_squarediamonds.svg	stimuli_distractor_trianglediamonds.svg	4	yes	57	0	1373
6.6.1	mac	2022-12-25	12:04:44	12:13:51	545125	5fe354a2e44df4fb4634bbc3	639260520	1	main_slash	11	main_slash	93	stimuli_target_circlediamonds.svg	stimuli_distractor_trianglediamonds.svg	2	yes	53	1	210
6.6.1	mac	2022-12-25	12:04:44	12:13:51	545125	5fe354a2e44df4fb4634bbc3	639260520	1	main_slash	11	advance_on_keypress_SLASH	94	stimuli_target_circlediamonds.svg	stimuli_distractor_trianglediamonds.svg	2	yes	57	0	827
6.6.1	mac	2022-12-25	12:04:44	12:13:53	546904	5fe354a2e44df4fb4634bbc3	639260520	1	main_slash	11	main_slash	95	stimuli_distractor_diamondtriangles.svg	stimuli_distractor_diamondtriangles.svg	39	no	53	0	338
6.6.1	mac	2022-12-25	12:04:44	12:13:53	546904	5fe354a2e44df4fb4634bbc3	639260520	1	main_slash	11	advance_on_keypress_SLASH	96	stimuli_distractor_diamondtriangles.svg	stimuli_distractor_diamondtriangles.svg	39	no	57	0	763
6.6.1	mac	2022-12-25	12:04:44	12:13:54	548501	5fe354a2e44df4fb4634bbc3	639260520	1	main_slash	11	main_slash	97	stimuli_distractor_diamondtriangles.svg	stimuli_target_trianglecircles.svg	29	yes	53	1	202
6.6.1	mac	2022-12-25	12:04:44	12:13:54	548501	5fe354a2e44df4fb4634bbc3	639260520	1	main_slash	11	advance_on_keypress_SLASH	98	stimuli_distractor_diamondtriangles.svg	stimuli_target_trianglecircles.svg	29	yes	57	0	1055
6.6.1	mac	2022-12-25	12:04:44	12:13:58	552185	5fe354a2e44df4fb4634bbc3	639260520	1	main_slash	11	main_slash	99	stimuli_distractor_trianglediamonds.svg	stimuli_distractor_trianglediamonds.svg	33	no	0	1	2000
6.6.1	mac	2022-12-25	12:04:44	12:13:58	552185	5fe354a2e44df4fb4634bbc3	639260520	1	main_slash	11	advance_on_keypress_SLASH	100	stimuli_distractor_trianglediamonds.svg	stimuli_distractor_trianglediamonds.svg	33	no	57	0	339
6.6.1	mac	2022-12-25	12:04:44	12:13:59	553193	5fe354a2e44df4fb4634bbc3	639260520	1	main_slash	11	main_slash	101	stimuli_target_circletriangles.svg	stimuli_distractor_diamondtriangles.svg	5	yes	53	1	44
6.6.1	mac	2022-12-25	12:04:44	12:13:59	553193	5fe354a2e44df4fb4634bbc3	639260520	1	main_slash	11	advance_on_keypress_SLASH	102	stimuli_target_circletriangles.svg	stimuli_distractor_diamondtriangles.svg	5	yes	57	0	986
6.6.1	mac	2022-12-25	12:04:44	12:14:01	555286	5fe354a2e44df4fb4634bbc3	639260520	1	main_slash	11	main_slash	103	stimuli_distractor_trianglediamonds.svg	stimuli_target_diamondcircles.svg	27	yes	53	1	486
6.6.1	mac	2022-12-25	12:04:44	12:14:01	555286	5fe354a2e44df4fb4634bbc3	639260520	1	main_slash	11	advance_on_keypress_SLASH	104	stimuli_distractor_trianglediamonds.svg	stimuli_target_diamondcircles.svg	27	yes	57	0	841
6.6.1	mac	2022-12-25	12:04:44	12:14:04	558753	5fe354a2e44df4fb4634bbc3	639260520	1	main_slash	11	main_slash	105	stimuli_distractor_diamondtriangles.svg	stimuli_distractor_trianglediamonds.svg	38	no	0	1	2000
6.6.1	mac	2022-12-25	12:04:44	12:14:04	558753	5fe354a2e44df4fb4634bbc3	639260520	1	main_slash	11	advance_on_keypress_SLASH	106	stimuli_distractor_diamondtriangles.svg	stimuli_distractor_trianglediamonds.svg	38	no	57	0	321
6.6.1	mac	2022-12-25	12:04:44	12:14:05	559728	5fe354a2e44df4fb4634bbc3	639260520	1	main_slash	11	main_slash	107	stimuli_target_trianglesquares.svg	stimuli_distractor_diamondtriangles.svg	22	yes	53	1	29
6.6.1	mac	2022-12-25	12:04:44	12:14:05	559728	5fe354a2e44df4fb4634bbc3	639260520	1	main_slash	11	advance_on_keypress_SLASH	108	stimuli_target_trianglesquares.svg	stimuli_distractor_diamondtriangles.svg	22	yes	57	0	1957
6.6.1	mac	2022-12-25	12:04:44	12:14:08	562654	5fe354a2e44df4fb4634bbc3	639260520	1	main_slash	11	main_slash	109	stimuli_distractor_trianglediamonds.svg	stimuli_target_trianglesquares.svg	26	yes	53	1	322
6.6.1	mac	2022-12-25	12:04:44	12:14:08	562654	5fe354a2e44df4fb4634bbc3	639260520	1	main_slash	11	advance_on_keypress_SLASH	110	stimuli_distractor_trianglediamonds.svg	stimuli_target_trianglesquares.svg	26	yes	57	0	1091
6.6.1	mac	2022-12-25	12:04:44	12:14:10	564578	5fe354a2e44df4fb4634bbc3	639260520	1	main_slash	11	main_slash	111	stimuli_target_diamondsquares.svg	stimuli_distractor_trianglediamonds.svg	20	yes	53	1	213
6.6.1	mac	2022-12-25	12:04:44	12:14:10	564578	5fe354a2e44df4fb4634bbc3	639260520	1	main_slash	11	advance_on_keypress_SLASH	112	stimuli_target_diamondsquares.svg	stimuli_distractor_trianglediamonds.svg	20	yes	57	0	2269
6.6.1	mac	2022-12-25	12:04:44	12:14:13	567608	5fe354a2e44df4fb4634bbc3	639260520	1	main_slash	11	main_slash	113	stimuli_distractor_trianglediamonds.svg	stimuli_target_squaretriangles.svg	11	yes	53	1	140
6.6.1	mac	2022-12-25	12:04:44	12:14:13	567608	5fe354a2e44df4fb4634bbc3	639260520	1	main_slash	11	advance_on_keypress_SLASH	114	stimuli_distractor_trianglediamonds.svg	stimuli_target_squaretriangles.svg	11	yes	57	0	1681
6.6.1	mac	2022-12-25	12:04:44	12:14:16	570147	5fe354a2e44df4fb4634bbc3	639260520	1	main_slash	11	main_slash	115	stimuli_distractor_diamondtriangles.svg	stimuli_target_diamondsquares.svg	32	yes	53	1	231
6.6.1	mac	2022-12-25	12:04:44	12:14:16	570147	5fe354a2e44df4fb4634bbc3	639260520	1	main_slash	11	advance_on_keypress_SLASH	116	stimuli_distractor_diamondtriangles.svg	stimuli_target_diamondsquares.svg	32	yes	57	0	1940
6.6.1	mac	2022-12-25	12:04:44	12:14:20	574717	5fe354a2e44df4fb4634bbc3	639260520	1	main_slash	11	main_slash	117	stimuli_distractor_diamondtriangles.svg	stimuli_target_squarediamonds.svg	16	yes	0	0	2000
6.6.1	mac	2022-12-25	12:04:44	12:14:20	574717	5fe354a2e44df4fb4634bbc3	639260520	1	main_slash	11	advance_on_keypress_SLASH	118	stimuli_distractor_diamondtriangles.svg	stimuli_target_squarediamonds.svg	16	yes	57	0	512
6.6.1	mac	2022-12-25	12:04:44	12:14:22	576144	5fe354a2e44df4fb4634bbc3	639260520	1	main_slash	11	main_slash	119	stimuli_target_diamondcircles.svg	stimuli_distractor_diamondtriangles.svg	23	yes	53	1	279
6.6.1	mac	2022-12-25	12:04:44	12:14:22	576144	5fe354a2e44df4fb4634bbc3	639260520	1	main_slash	11	advance_on_keypress_SLASH	120	stimuli_target_diamondcircles.svg	stimuli_distractor_diamondtriangles.svg	23	yes	57	0	2088
6.6.1	mac	2022-12-25	12:04:44	12:14:25	578945	5fe354a2e44df4fb4634bbc3	639260520	1	main_slash	11	main_slash	121	stimuli_distractor_trianglediamonds.svg	stimuli_distractor_diamondtriangles.svg	35	no	53	0	96
6.6.1	mac	2022-12-25	12:04:44	12:14:25	578945	5fe354a2e44df4fb4634bbc3	639260520	1	main_slash	11	advance_on_keypress_SLASH	122	stimuli_distractor_trianglediamonds.svg	stimuli_distractor_diamondtriangles.svg	35	no	57	0	2168
6.6.1	mac	2022-12-25	12:04:44	12:14:28	581993	5fe354a2e44df4fb4634bbc3	639260520	1	main_slash	11	main_slash	123	stimuli_target_squaretriangles.svg	stimuli_distractor_trianglediamonds.svg	3	yes	53	1	261
6.6.1	mac	2022-12-25	12:04:44	12:14:28	581993	5fe354a2e44df4fb4634bbc3	639260520	1	main_slash	11	advance_on_keypress_SLASH	124	stimuli_target_squaretriangles.svg	stimuli_distractor_trianglediamonds.svg	3	yes	57	0	805
6.6.1	mac	2022-12-25	12:04:44	12:14:29	583703	5fe354a2e44df4fb4634bbc3	639260520	1	main_slash	11	main_slash	125	stimuli_distractor_diamondtriangles.svg	stimuli_target_circlediamonds.svg	14	yes	53	1	287
6.6.1	mac	2022-12-25	12:04:44	12:14:29	583703	5fe354a2e44df4fb4634bbc3	639260520	1	main_slash	11	advance_on_keypress_SLASH	126	stimuli_distractor_diamondtriangles.svg	stimuli_target_circlediamonds.svg	14	yes	57	0	698
6.6.1	mac	2022-12-25	12:04:44	12:14:33	587034	5fe354a2e44df4fb4634bbc3	639260520	1	main_slash	11	main_slash	127	stimuli_distractor_diamondtriangles.svg	stimuli_target_circletriangles.svg	13	yes	0	0	2000
6.6.1	mac	2022-12-25	12:04:44	12:14:33	587034	5fe354a2e44df4fb4634bbc3	639260520	1	main_slash	11	advance_on_keypress_SLASH	128	stimuli_distractor_diamondtriangles.svg	stimuli_target_circletriangles.svg	13	yes	57	0	333
6.6.1	mac	2022-12-25	12:04:44	12:14:34	588260	5fe354a2e44df4fb4634bbc3	639260520	1	main_slash	11	main_slash	129	stimuli_distractor_trianglediamonds.svg	stimuli_distractor_diamondtriangles.svg	36	no	53	0	261
6.6.1	mac	2022-12-25	12:04:44	12:14:34	588260	5fe354a2e44df4fb4634bbc3	639260520	1	main_slash	11	advance_on_keypress_SLASH	130	stimuli_distractor_trianglediamonds.svg	stimuli_distractor_diamondtriangles.svg	36	no	57	0	725
6.6.1	mac	2022-12-25	12:04:44	12:14:35	589644	5fe354a2e44df4fb4634bbc3	639260520	1	main_slash	11	main_slash	131	stimuli_distractor_diamondtriangles.svg	stimuli_target_trianglesquares.svg	30	yes	53	1	44
6.6.1	mac	2022-12-25	12:04:44	12:14:35	589644	5fe354a2e44df4fb4634bbc3	639260520	1	main_slash	11	advance_on_keypress_SLASH	132	stimuli_distractor_diamondtriangles.svg	stimuli_target_trianglesquares.svg	30	yes	57	0	908
6.6.1	mac	2022-12-25	12:04:44	12:14:37	591567	5fe354a2e44df4fb4634bbc3	639260520	1	main_slash	11	main_slash	133	stimuli_distractor_trianglediamonds.svg	stimuli_target_squarediamonds.svg	12	yes	53	1	385
6.6.1	mac	2022-12-25	12:04:44	12:14:37	591567	5fe354a2e44df4fb4634bbc3	639260520	1	main_slash	11	advance_on_keypress_SLASH	134	stimuli_distractor_trianglediamonds.svg	stimuli_target_squarediamonds.svg	12	yes	57	0	1077
6.6.1	mac	2022-12-25	12:04:44	12:14:39	593604	5fe354a2e44df4fb4634bbc3	639260520	1	main_slash	11	main_slash	135	stimuli_distractor_diamondtriangles.svg	stimuli_distractor_diamondtriangles.svg	40	no	53	0	339
6.6.1	mac	2022-12-25	12:04:44	12:14:39	593604	5fe354a2e44df4fb4634bbc3	639260520	1	main_slash	11	advance_on_keypress_SLASH	136	stimuli_distractor_diamondtriangles.svg	stimuli_distractor_diamondtriangles.svg	40	no	57	0	654
6.6.1	mac	2022-12-25	12:04:44	12:14:43	596885	5fe354a2e44df4fb4634bbc3	639260520	1	main_slash	11	main_slash	137	stimuli_target_squarediamonds.svg	stimuli_distractor_diamondtriangles.svg	8	yes	0	0	2000
6.6.1	mac	2022-12-25	12:04:44	12:14:43	596885	5fe354a2e44df4fb4634bbc3	639260520	1	main_slash	11	advance_on_keypress_SLASH	138	stimuli_target_squarediamonds.svg	stimuli_distractor_diamondtriangles.svg	8	yes	57	0	631
6.6.1	mac	2022-12-25	12:04:44	12:14:44	598386	5fe354a2e44df4fb4634bbc3	639260520	1	main_slash	11	main_slash	139	stimuli_target_trianglecircles.svg	stimuli_distractor_diamondtriangles.svg	21	yes	53	1	237
6.6.1	mac	2022-12-25	12:04:44	12:14:44	598386	5fe354a2e44df4fb4634bbc3	639260520	1	main_slash	11	advance_on_keypress_SLASH	140	stimuli_target_trianglecircles.svg	stimuli_distractor_diamondtriangles.svg	21	yes	57	0	706
6.6.1	mac	2022-12-25	12:04:44	12:14:46	600052	5fe354a2e44df4fb4634bbc3	639260520	1	main_slash	11	main_slash	141	stimuli_distractor_trianglediamonds.svg	stimuli_target_trianglecircles.svg	25	yes	53	1	335
6.6.1	mac	2022-12-25	12:04:44	12:14:46	600052	5fe354a2e44df4fb4634bbc3	639260520	1	main_slash	11	advance_on_keypress_SLASH	142	stimuli_distractor_trianglediamonds.svg	stimuli_target_trianglecircles.svg	25	yes	57	0	785
6.6.1	mac	2022-12-25	12:04:44	12:14:47	601547	5fe354a2e44df4fb4634bbc3	639260520	1	main_slash	11	main_slash	143	stimuli_target_circletriangles.svg	stimuli_distractor_trianglediamonds.svg	1	yes	53	1	82
6.6.1	mac	2022-12-25	12:04:44	12:14:47	601547	5fe354a2e44df4fb4634bbc3	639260520	1	main_slash	11	advance_on_keypress_SLASH	144	stimuli_target_circletriangles.svg	stimuli_distractor_trianglediamonds.svg	1	yes	57	0	1097
6.6.1	mac	2022-12-25	12:04:44	12:14:51	605285	5fe354a2e44df4fb4634bbc3	639260520	1	main_slash	11	main_slash	145	stimuli_target_trianglesquares.svg	stimuli_distractor_trianglediamonds.svg	18	yes	0	0	2000
6.6.1	mac	2022-12-25	12:04:44	12:14:51	605285	5fe354a2e44df4fb4634bbc3	639260520	1	main_slash	11	advance_on_keypress_SLASH	146	stimuli_target_trianglesquares.svg	stimuli_distractor_trianglediamonds.svg	18	yes	57	0	240
6.6.1	mac	2022-12-25	12:04:44	12:14:52	606282	5fe354a2e44df4fb4634bbc3	639260520	1	main_slash	11	main_slash	147	stimuli_distractor_trianglediamonds.svg	stimuli_target_circlediamonds.svg	10	yes	53	1	134
6.6.1	mac	2022-12-25	12:04:44	12:14:52	606282	5fe354a2e44df4fb4634bbc3	639260520	1	main_slash	11	advance_on_keypress_SLASH	148	stimuli_distractor_trianglediamonds.svg	stimuli_target_circlediamonds.svg	10	yes	57	0	962
6.6.1	mac	2022-12-25	12:04:44	12:14:54	608094	5fe354a2e44df4fb4634bbc3	639260520	1	main_slash	11	main_slash	149	stimuli_distractor_diamondtriangles.svg	stimuli_target_diamondcircles.svg	31	yes	53	1	228
6.6.1	mac	2022-12-25	12:04:44	12:14:54	608094	5fe354a2e44df4fb4634bbc3	639260520	1	main_slash	11	advance_on_keypress_SLASH	150	stimuli_distractor_diamondtriangles.svg	stimuli_target_diamondcircles.svg	31	yes	57	0	1133
6.6.1	mac	2022-12-25	12:04:44	12:14:58	611852	5fe354a2e44df4fb4634bbc3	639260520	1	main_slash	11	main_slash	151	stimuli_distractor_diamondtriangles.svg	stimuli_target_squaretriangles.svg	15	yes	0	0	2000
6.6.1	mac	2022-12-25	12:04:44	12:14:58	611852	5fe354a2e44df4fb4634bbc3	639260520	1	main_slash	11	advance_on_keypress_SLASH	152	stimuli_distractor_diamondtriangles.svg	stimuli_target_squaretriangles.svg	15	yes	57	0	390
6.6.1	mac	2022-12-25	12:04:44	12:14:59	612978	5fe354a2e44df4fb4634bbc3	639260520	1	main_slash	11	main_slash	153	stimuli_distractor_trianglediamonds.svg	stimuli_target_diamondsquares.svg	28	yes	53	1	113
6.6.1	mac	2022-12-25	12:04:44	12:14:59	612978	5fe354a2e44df4fb4634bbc3	639260520	1	main_slash	11	advance_on_keypress_SLASH	154	stimuli_distractor_trianglediamonds.svg	stimuli_target_diamondsquares.svg	28	yes	57	0	1300
6.6.1	mac	2022-12-25	12:04:44	12:15:03	616901	5fe354a2e44df4fb4634bbc3	639260520	1	main_slash	11	main_slash	155	stimuli_distractor_trianglediamonds.svg	stimuli_distractor_trianglediamonds.svg	34	no	0	1	2000
6.6.1	mac	2022-12-25	12:04:44	12:15:03	616901	5fe354a2e44df4fb4634bbc3	639260520	1	main_slash	11	advance_on_keypress_SLASH	156	stimuli_distractor_trianglediamonds.svg	stimuli_distractor_trianglediamonds.svg	34	no	57	0	367
6.6.1	mac	2022-12-25	12:04:44	12:15:04	618132	5fe354a2e44df4fb4634bbc3	639260520	1	main_slash	11	main_slash	157	stimuli_distractor_trianglediamonds.svg	stimuli_target_circletriangles.svg	9	yes	53	1	232
6.6.1	mac	2022-12-25	12:04:44	12:15:04	618132	5fe354a2e44df4fb4634bbc3	639260520	1	main_slash	11	advance_on_keypress_SLASH	158	stimuli_distractor_trianglediamonds.svg	stimuli_target_circletriangles.svg	9	yes	57	0	1231
6.6.1	mac	2022-12-25	12:04:44	12:15:06	620179	5fe354a2e44df4fb4634bbc3	639260520	1	main_slash	11	main_slash	159	stimuli_distractor_diamondtriangles.svg	stimuli_distractor_trianglediamonds.svg	37	no	53	0	179
6.6.1	mac	2022-12-25	12:04:44	12:15:06	620179	5fe354a2e44df4fb4634bbc3	639260520	1	main_slash	11	advance_on_keypress_SLASH	160	stimuli_distractor_diamondtriangles.svg	stimuli_distractor_trianglediamonds.svg	37	no	57	0	1751