build	computer.platform	date	time	timestamp	time_elapsed_ms	subject	group	session	blockcode	blocknum	trialcode	trialnum	stimulus_left	stimulus_right	stim_index	target_present	response	correct	latency
6.6.1	win	2022-12-14	17:51:57	17:56:09	250451	628510a698e9e63b21ef9139	550593980	1	practice_z	5	practice_z	1	stimuli_target_squarediamonds.svg	stimuli_distractor_diamondtriangles.svg	2	yes	44	1	1048
6.6.1	win	2022-12-14	17:51:57	17:56:09	250451	628510a698e9e63b21ef9139	550593980	1	practice_z	5	advance_on_keypress_ZEE	2	stimuli_target_squarediamonds.svg	stimuli_distractor_diamondtriangles.svg	2	yes	57	0	1395
6.6.1	win	2022-12-14	17:51:57	17:56:12	254155	628510a698e9e63b21ef9139	550593980	1	practice_z	5	practice_z	3	stimuli_distractor_diamondtriangles.svg	stimuli_target_diamondcircles.svg	8	yes	44	1	648
6.6.1	win	2022-12-14	17:51:57	17:56:12	254155	628510a698e9e63b21ef9139	550593980	1	practice_z	5	advance_on_keypress_ZEE	4	stimuli_distractor_diamondtriangles.svg	stimuli_target_diamondcircles.svg	8	yes	57	0	604
6.6.1	win	2022-12-14	17:51:57	17:56:16	258394	628510a698e9e63b21ef9139	550593980	1	practice_z	5	practice_z	5	stimuli_target_diamondsquares.svg	stimuli_distractor_trianglediamonds.svg	6	yes	0	0	2000
6.6.1	win	2022-12-14	17:51:57	17:56:16	258394	628510a698e9e63b21ef9139	550593980	1	practice_z	5	advance_on_keypress_ZEE	6	stimuli_target_diamondsquares.svg	stimuli_distractor_trianglediamonds.svg	6	yes	57	0	1037
6.6.1	win	2022-12-14	17:51:57	17:56:20	261723	628510a698e9e63b21ef9139	550593980	1	practice_z	5	practice_z	7	stimuli_distractor_trianglediamonds.svg	stimuli_target_diamondcircles.svg	12	yes	44	1	640
6.6.1	win	2022-12-14	17:51:57	17:56:20	261723	628510a698e9e63b21ef9139	550593980	1	practice_z	5	advance_on_keypress_ZEE	8	stimuli_distractor_trianglediamonds.svg	stimuli_target_diamondcircles.svg	12	yes	57	0	805
6.6.1	win	2022-12-14	17:51:57	17:56:24	266169	628510a698e9e63b21ef9139	550593980	1	practice_z	5	practice_z	9	stimuli_target_diamondsquares.svg	stimuli_distractor_diamondtriangles.svg	3	yes	0	0	2000
6.6.1	win	2022-12-14	17:51:57	17:56:24	266169	628510a698e9e63b21ef9139	550593980	1	practice_z	5	advance_on_keypress_ZEE	10	stimuli_target_diamondsquares.svg	stimuli_distractor_diamondtriangles.svg	3	yes	57	0	503
6.6.1	win	2022-12-14	17:51:57	17:56:27	268899	628510a698e9e63b21ef9139	550593980	1	practice_z	5	practice_z	11	stimuli_distractor_diamondtriangles.svg	stimuli_target_trianglecircles.svg	9	yes	44	1	577
6.6.1	win	2022-12-14	17:51:57	17:56:27	268899	628510a698e9e63b21ef9139	550593980	1	practice_z	5	advance_on_keypress_ZEE	12	stimuli_distractor_diamondtriangles.svg	stimuli_target_trianglecircles.svg	9	yes	57	0	991
6.6.1	win	2022-12-14	17:51:57	17:56:30	272179	628510a698e9e63b21ef9139	550593980	1	practice_z	5	practice_z	13	stimuli_target_circlediamonds.svg	stimuli_distractor_diamondtriangles.svg	1	yes	44	1	653
6.6.1	win	2022-12-14	17:51:57	17:56:30	272179	628510a698e9e63b21ef9139	550593980	1	practice_z	5	advance_on_keypress_ZEE	14	stimuli_target_circlediamonds.svg	stimuli_distractor_diamondtriangles.svg	1	yes	57	0	312
6.6.1	win	2022-12-14	17:51:57	17:56:34	276145	628510a698e9e63b21ef9139	550593980	1	practice_z	5	practice_z	15	stimuli_distractor_diamondtriangles.svg	stimuli_distractor_trianglediamonds.svg	14	no	0	1	2000
6.6.1	win	2022-12-14	17:51:57	17:56:34	276145	628510a698e9e63b21ef9139	550593980	1	practice_z	5	advance_on_keypress_ZEE	16	stimuli_distractor_diamondtriangles.svg	stimuli_distractor_trianglediamonds.svg	14	no	57	0	413
6.6.1	win	2022-12-14	17:51:57	17:56:37	278890	628510a698e9e63b21ef9139	550593980	1	practice_z	5	practice_z	17	stimuli_target_squarediamonds.svg	stimuli_distractor_trianglediamonds.svg	5	yes	44	1	675
6.6.1	win	2022-12-14	17:51:57	17:56:37	278890	628510a698e9e63b21ef9139	550593980	1	practice_z	5	advance_on_keypress_ZEE	18	stimuli_target_squarediamonds.svg	stimuli_distractor_trianglediamonds.svg	5	yes	57	0	342
6.6.1	win	2022-12-14	17:51:57	17:56:39	281356	628510a698e9e63b21ef9139	550593980	1	practice_z	5	practice_z	19	stimuli_target_circlediamonds.svg	stimuli_distractor_trianglediamonds.svg	4	yes	44	1	487
6.6.1	win	2022-12-14	17:51:57	17:56:39	281356	628510a698e9e63b21ef9139	550593980	1	practice_z	5	advance_on_keypress_ZEE	20	stimuli_target_circlediamonds.svg	stimuli_distractor_trianglediamonds.svg	4	yes	57	0	144
6.6.1	win	2022-12-14	17:51:57	17:56:43	285138	628510a698e9e63b21ef9139	550593980	1	practice_z	5	practice_z	21	stimuli_distractor_trianglediamonds.svg	stimuli_distractor_diamondtriangles.svg	16	no	0	1	2000
6.6.1	win	2022-12-14	17:51:57	17:56:43	285138	628510a698e9e63b21ef9139	550593980	1	practice_z	5	advance_on_keypress_ZEE	22	stimuli_distractor_trianglediamonds.svg	stimuli_distractor_diamondtriangles.svg	16	no	57	0	309
6.6.1	win	2022-12-14	17:51:57	17:56:46	287635	628510a698e9e63b21ef9139	550593980	1	practice_z	5	practice_z	23	stimuli_distractor_trianglediamonds.svg	stimuli_target_squarediamonds.svg	11	yes	44	1	543
6.6.1	win	2022-12-14	17:51:57	17:56:46	287635	628510a698e9e63b21ef9139	550593980	1	practice_z	5	advance_on_keypress_ZEE	24	stimuli_distractor_trianglediamonds.svg	stimuli_target_squarediamonds.svg	11	yes	57	0	558
6.6.1	win	2022-12-14	17:51:57	17:56:49	290467	628510a698e9e63b21ef9139	550593980	1	practice_z	5	practice_z	25	stimuli_distractor_diamondtriangles.svg	stimuli_target_circletriangles.svg	7	yes	44	1	639
6.6.1	win	2022-12-14	17:51:57	17:56:49	290467	628510a698e9e63b21ef9139	550593980	1	practice_z	5	advance_on_keypress_ZEE	26	stimuli_distractor_diamondtriangles.svg	stimuli_target_circletriangles.svg	7	yes	57	0	283
6.6.1	win	2022-12-14	17:51:57	17:56:51	292987	628510a698e9e63b21ef9139	550593980	1	practice_z	5	practice_z	27	stimuli_distractor_trianglediamonds.svg	stimuli_target_circlediamonds.svg	10	yes	44	1	590
6.6.1	win	2022-12-14	17:51:57	17:56:51	292987	628510a698e9e63b21ef9139	550593980	1	practice_z	5	advance_on_keypress_ZEE	28	stimuli_distractor_trianglediamonds.svg	stimuli_target_circlediamonds.svg	10	yes	57	0	268
6.6.1	win	2022-12-14	17:51:57	17:56:55	296899	628510a698e9e63b21ef9139	550593980	1	practice_z	5	practice_z	29	stimuli_distractor_diamondtriangles.svg	stimuli_distractor_diamondtriangles.svg	13	no	0	1	2000
6.6.1	win	2022-12-14	17:51:57	17:56:55	296899	628510a698e9e63b21ef9139	550593980	1	practice_z	5	advance_on_keypress_ZEE	30	stimuli_distractor_diamondtriangles.svg	stimuli_distractor_diamondtriangles.svg	13	no	57	0	324
6.6.1	win	2022-12-14	17:51:57	17:56:59	300855	628510a698e9e63b21ef9139	550593980	1	practice_z	5	practice_z	31	stimuli_distractor_trianglediamonds.svg	stimuli_distractor_trianglediamonds.svg	15	no	0	1	2000
6.6.1	win	2022-12-14	17:51:57	17:56:59	300855	628510a698e9e63b21ef9139	550593980	1	practice_z	5	advance_on_keypress_ZEE	32	stimuli_distractor_trianglediamonds.svg	stimuli_distractor_trianglediamonds.svg	15	no	57	0	361
6.6.1	win	2022-12-14	17:51:57	17:57:10	311832	628510a698e9e63b21ef9139	550593980	1	main_z	7	main_z	1	stimuli_distractor_diamondtriangles.svg	stimuli_distractor_trianglediamonds.svg	37	no	0	1	2000
6.6.1	win	2022-12-14	17:51:57	17:57:10	311832	628510a698e9e63b21ef9139	550593980	1	main_z	7	advance_on_keypress_ZEE	2	stimuli_distractor_diamondtriangles.svg	stimuli_distractor_trianglediamonds.svg	37	no	57	0	1071
6.6.1	win	2022-12-14	17:51:57	17:57:12	314098	628510a698e9e63b21ef9139	550593980	1	main_z	7	main_z	3	stimuli_target_squaretriangles.svg	stimuli_distractor_trianglediamonds.svg	3	yes	44	1	546
6.6.1	win	2022-12-14	17:51:57	17:57:12	314098	628510a698e9e63b21ef9139	550593980	1	main_z	7	advance_on_keypress_ZEE	4	stimuli_target_squaretriangles.svg	stimuli_distractor_trianglediamonds.svg	3	yes	57	0	2011
6.6.1	win	2022-12-14	17:51:57	17:57:15	317187	628510a698e9e63b21ef9139	550593980	1	main_z	7	main_z	5	stimuli_distractor_diamondtriangles.svg	stimuli_target_circletriangles.svg	13	yes	44	1	447
6.6.1	win	2022-12-14	17:51:57	17:57:15	317187	628510a698e9e63b21ef9139	550593980	1	main_z	7	advance_on_keypress_ZEE	6	stimuli_distractor_diamondtriangles.svg	stimuli_target_circletriangles.svg	13	yes	57	0	652
6.6.1	win	2022-12-14	17:51:57	17:57:17	319018	628510a698e9e63b21ef9139	550593980	1	main_z	7	main_z	7	stimuli_target_squarediamonds.svg	stimuli_distractor_diamondtriangles.svg	8	yes	44	1	543
6.6.1	win	2022-12-14	17:51:57	17:57:17	319018	628510a698e9e63b21ef9139	550593980	1	main_z	7	advance_on_keypress_ZEE	8	stimuli_target_squarediamonds.svg	stimuli_distractor_diamondtriangles.svg	8	yes	57	0	609
6.6.1	win	2022-12-14	17:51:57	17:57:19	320826	628510a698e9e63b21ef9139	550593980	1	main_z	7	main_z	9	stimuli_target_trianglesquares.svg	stimuli_distractor_diamondtriangles.svg	22	yes	44	1	567
6.6.1	win	2022-12-14	17:51:57	17:57:19	320826	628510a698e9e63b21ef9139	550593980	1	main_z	7	advance_on_keypress_ZEE	10	stimuli_target_trianglesquares.svg	stimuli_distractor_diamondtriangles.svg	22	yes	57	0	567
6.6.1	win	2022-12-14	17:51:57	17:57:21	322475	628510a698e9e63b21ef9139	550593980	1	main_z	7	main_z	11	stimuli_target_circletriangles.svg	stimuli_distractor_trianglediamonds.svg	1	yes	44	1	430
6.6.1	win	2022-12-14	17:51:57	17:57:21	322475	628510a698e9e63b21ef9139	550593980	1	main_z	7	advance_on_keypress_ZEE	12	stimuli_target_circletriangles.svg	stimuli_distractor_trianglediamonds.svg	1	yes	57	0	436
6.6.1	win	2022-12-14	17:51:57	17:57:23	324915	628510a698e9e63b21ef9139	550593980	1	main_z	7	main_z	13	stimuli_distractor_diamondtriangles.svg	stimuli_target_trianglesquares.svg	30	yes	44	1	1368
6.6.1	win	2022-12-14	17:51:57	17:57:23	324915	628510a698e9e63b21ef9139	550593980	1	main_z	7	advance_on_keypress_ZEE	14	stimuli_distractor_diamondtriangles.svg	stimuli_target_trianglesquares.svg	30	yes	57	0	495
6.6.1	win	2022-12-14	17:51:57	17:57:25	326538	628510a698e9e63b21ef9139	550593980	1	main_z	7	main_z	15	stimuli_distractor_diamondtriangles.svg	stimuli_target_trianglecircles.svg	29	yes	44	1	490
6.6.1	win	2022-12-14	17:51:57	17:57:25	326538	628510a698e9e63b21ef9139	550593980	1	main_z	7	advance_on_keypress_ZEE	16	stimuli_distractor_diamondtriangles.svg	stimuli_target_trianglecircles.svg	29	yes	57	0	341
6.6.1	win	2022-12-14	17:51:57	17:57:26	328122	628510a698e9e63b21ef9139	550593980	1	main_z	7	main_z	17	stimuli_distractor_trianglediamonds.svg	stimuli_target_circlediamonds.svg	10	yes	44	1	606
6.6.1	win	2022-12-14	17:51:57	17:57:26	328122	628510a698e9e63b21ef9139	550593980	1	main_z	7	advance_on_keypress_ZEE	18	stimuli_distractor_trianglediamonds.svg	stimuli_target_circlediamonds.svg	10	yes	57	0	396
6.6.1	win	2022-12-14	17:51:57	17:57:29	331152	628510a698e9e63b21ef9139	550593980	1	main_z	7	main_z	19	stimuli_distractor_trianglediamonds.svg	stimuli_distractor_trianglediamonds.svg	33	no	0	1	2000
6.6.1	win	2022-12-14	17:51:57	17:57:29	331152	628510a698e9e63b21ef9139	550593980	1	main_z	7	advance_on_keypress_ZEE	20	stimuli_distractor_trianglediamonds.svg	stimuli_distractor_trianglediamonds.svg	33	no	57	0	415
6.6.1	win	2022-12-14	17:51:57	17:57:31	332786	628510a698e9e63b21ef9139	550593980	1	main_z	7	main_z	21	stimuli_distractor_trianglediamonds.svg	stimuli_distractor_diamondtriangles.svg	35	no	44	0	565
6.6.1	win	2022-12-14	17:51:57	17:57:31	332786	628510a698e9e63b21ef9139	550593980	1	main_z	7	advance_on_keypress_ZEE	22	stimuli_distractor_trianglediamonds.svg	stimuli_distractor_diamondtriangles.svg	35	no	57	0	1045
6.6.1	win	2022-12-14	17:51:57	17:57:33	334994	628510a698e9e63b21ef9139	550593980	1	main_z	7	main_z	23	stimuli_target_squarediamonds.svg	stimuli_distractor_trianglediamonds.svg	4	yes	44	1	537
6.6.1	win	2022-12-14	17:51:57	17:57:33	334994	628510a698e9e63b21ef9139	550593980	1	main_z	7	advance_on_keypress_ZEE	24	stimuli_target_squarediamonds.svg	stimuli_distractor_trianglediamonds.svg	4	yes	57	0	506
6.6.1	win	2022-12-14	17:51:57	17:57:35	336882	628510a698e9e63b21ef9139	550593980	1	main_z	7	main_z	25	stimuli_target_diamondcircles.svg	stimuli_distractor_diamondtriangles.svg	23	yes	44	1	740
6.6.1	win	2022-12-14	17:51:57	17:57:35	336882	628510a698e9e63b21ef9139	550593980	1	main_z	7	advance_on_keypress_ZEE	26	stimuli_target_diamondcircles.svg	stimuli_distractor_diamondtriangles.svg	23	yes	57	0	437
6.6.1	win	2022-12-14	17:51:57	17:57:37	338602	628510a698e9e63b21ef9139	550593980	1	main_z	7	main_z	27	stimuli_target_circletriangles.svg	stimuli_distractor_diamondtriangles.svg	5	yes	44	1	642
6.6.1	win	2022-12-14	17:51:57	17:57:37	338602	628510a698e9e63b21ef9139	550593980	1	main_z	7	advance_on_keypress_ZEE	28	stimuli_target_circletriangles.svg	stimuli_distractor_diamondtriangles.svg	5	yes	57	0	358
6.6.1	win	2022-12-14	17:51:57	17:57:40	341596	628510a698e9e63b21ef9139	550593980	1	main_z	7	main_z	29	stimuli_target_trianglesquares.svg	stimuli_distractor_trianglediamonds.svg	18	yes	0	0	2000
6.6.1	win	2022-12-14	17:51:57	17:57:40	341596	628510a698e9e63b21ef9139	550593980	1	main_z	7	advance_on_keypress_ZEE	30	stimuli_target_trianglesquares.svg	stimuli_distractor_trianglediamonds.svg	18	yes	57	0	707
6.6.1	win	2022-12-14	17:51:57	17:57:42	343467	628510a698e9e63b21ef9139	550593980	1	main_z	7	main_z	31	stimuli_target_diamondcircles.svg	stimuli_distractor_trianglediamonds.svg	19	yes	44	1	517
6.6.1	win	2022-12-14	17:51:57	17:57:42	343467	628510a698e9e63b21ef9139	550593980	1	main_z	7	advance_on_keypress_ZEE	32	stimuli_target_diamondcircles.svg	stimuli_distractor_trianglediamonds.svg	19	yes	57	0	351
6.6.1	win	2022-12-14	17:51:57	17:57:43	344930	628510a698e9e63b21ef9139	550593980	1	main_z	7	main_z	33	stimuli_target_circlediamonds.svg	stimuli_distractor_trianglediamonds.svg	2	yes	44	1	463
6.6.1	win	2022-12-14	17:51:57	17:57:43	344930	628510a698e9e63b21ef9139	550593980	1	main_z	7	advance_on_keypress_ZEE	34	stimuli_target_circlediamonds.svg	stimuli_distractor_trianglediamonds.svg	2	yes	57	0	339
6.6.1	win	2022-12-14	17:51:57	17:57:44	346394	628510a698e9e63b21ef9139	550593980	1	main_z	7	main_z	35	stimuli_distractor_diamondtriangles.svg	stimuli_target_squaretriangles.svg	15	yes	44	1	492
6.6.1	win	2022-12-14	17:51:57	17:57:44	346394	628510a698e9e63b21ef9139	550593980	1	main_z	7	advance_on_keypress_ZEE	36	stimuli_distractor_diamondtriangles.svg	stimuli_target_squaretriangles.svg	15	yes	57	0	271
6.6.1	win	2022-12-14	17:51:57	17:57:47	349304	628510a698e9e63b21ef9139	550593980	1	main_z	7	main_z	37	stimuli_target_diamondsquares.svg	stimuli_distractor_diamondtriangles.svg	24	yes	0	0	2000
6.6.1	win	2022-12-14	17:51:57	17:57:47	349304	628510a698e9e63b21ef9139	550593980	1	main_z	7	advance_on_keypress_ZEE	38	stimuli_target_diamondsquares.svg	stimuli_distractor_diamondtriangles.svg	24	yes	57	0	439
6.6.1	win	2022-12-14	17:51:57	17:57:49	350866	628510a698e9e63b21ef9139	550593980	1	main_z	7	main_z	39	stimuli_distractor_diamondtriangles.svg	stimuli_target_diamondcircles.svg	31	yes	44	1	476
6.6.1	win	2022-12-14	17:51:57	17:57:49	350866	628510a698e9e63b21ef9139	550593980	1	main_z	7	advance_on_keypress_ZEE	40	stimuli_distractor_diamondtriangles.svg	stimuli_target_diamondcircles.svg	31	yes	57	0	408
6.6.1	win	2022-12-14	17:51:57	17:57:50	352387	628510a698e9e63b21ef9139	550593980	1	main_z	7	main_z	41	stimuli_distractor_trianglediamonds.svg	stimuli_target_trianglesquares.svg	26	yes	44	1	478
6.6.1	win	2022-12-14	17:51:57	17:57:50	352387	628510a698e9e63b21ef9139	550593980	1	main_z	7	advance_on_keypress_ZEE	42	stimuli_distractor_trianglediamonds.svg	stimuli_target_trianglesquares.svg	26	yes	57	0	386
6.6.1	win	2022-12-14	17:51:57	17:57:52	353954	628510a698e9e63b21ef9139	550593980	1	main_z	7	main_z	43	stimuli_target_circlediamonds.svg	stimuli_distractor_diamondtriangles.svg	6	yes	44	1	545
6.6.1	win	2022-12-14	17:51:57	17:57:52	353954	628510a698e9e63b21ef9139	550593980	1	main_z	7	advance_on_keypress_ZEE	44	stimuli_target_circlediamonds.svg	stimuli_distractor_diamondtriangles.svg	6	yes	57	0	305
6.6.1	win	2022-12-14	17:51:57	17:57:53	355362	628510a698e9e63b21ef9139	550593980	1	main_z	7	main_z	45	stimuli_distractor_trianglediamonds.svg	stimuli_target_squaretriangles.svg	11	yes	44	1	468
6.6.1	win	2022-12-14	17:51:57	17:57:53	355362	628510a698e9e63b21ef9139	550593980	1	main_z	7	advance_on_keypress_ZEE	46	stimuli_distractor_trianglediamonds.svg	stimuli_target_squaretriangles.svg	11	yes	57	0	303
6.6.1	win	2022-12-14	17:51:57	17:57:56	358313	628510a698e9e63b21ef9139	550593980	1	main_z	7	main_z	47	stimuli_distractor_trianglediamonds.svg	stimuli_distractor_diamondtriangles.svg	36	no	0	1	2000
6.6.1	win	2022-12-14	17:51:57	17:57:56	358313	628510a698e9e63b21ef9139	550593980	1	main_z	7	advance_on_keypress_ZEE	48	stimuli_distractor_trianglediamonds.svg	stimuli_distractor_diamondtriangles.svg	36	no	57	0	334
6.6.1	win	2022-12-14	17:51:57	17:57:58	360194	628510a698e9e63b21ef9139	550593980	1	main_z	7	main_z	49	stimuli_distractor_diamondtriangles.svg	stimuli_target_circlediamonds.svg	14	yes	44	1	895
6.6.1	win	2022-12-14	17:51:57	17:57:58	360194	628510a698e9e63b21ef9139	550593980	1	main_z	7	advance_on_keypress_ZEE	50	stimuli_distractor_diamondtriangles.svg	stimuli_target_circlediamonds.svg	14	yes	57	0	442
6.6.1	win	2022-12-14	17:51:57	17:58:00	361882	628510a698e9e63b21ef9139	550593980	1	main_z	7	main_z	51	stimuli_distractor_diamondtriangles.svg	stimuli_target_diamondsquares.svg	32	yes	44	1	615
6.6.1	win	2022-12-14	17:51:57	17:58:00	361882	628510a698e9e63b21ef9139	550593980	1	main_z	7	advance_on_keypress_ZEE	52	stimuli_distractor_diamondtriangles.svg	stimuli_target_diamondsquares.svg	32	yes	57	0	364
6.6.1	win	2022-12-14	17:51:57	17:58:03	364870	628510a698e9e63b21ef9139	550593980	1	main_z	7	main_z	53	stimuli_distractor_diamondtriangles.svg	stimuli_distractor_diamondtriangles.svg	40	no	0	1	2000
6.6.1	win	2022-12-14	17:51:57	17:58:03	364870	628510a698e9e63b21ef9139	550593980	1	main_z	7	advance_on_keypress_ZEE	54	stimuli_distractor_diamondtriangles.svg	stimuli_distractor_diamondtriangles.svg	40	no	57	0	426
6.6.1	win	2022-12-14	17:51:57	17:58:05	366419	628510a698e9e63b21ef9139	550593980	1	main_z	7	main_z	55	stimuli_distractor_trianglediamonds.svg	stimuli_target_trianglecircles.svg	25	yes	44	1	479
6.6.1	win	2022-12-14	17:51:57	17:58:05	366419	628510a698e9e63b21ef9139	550593980	1	main_z	7	advance_on_keypress_ZEE	56	stimuli_distractor_trianglediamonds.svg	stimuli_target_trianglecircles.svg	25	yes	57	0	299
6.6.1	win	2022-12-14	17:51:57	17:58:06	367778	628510a698e9e63b21ef9139	550593980	1	main_z	7	main_z	57	stimuli_distractor_trianglediamonds.svg	stimuli_target_diamondcircles.svg	27	yes	44	1	421
6.6.1	win	2022-12-14	17:51:57	17:58:06	367778	628510a698e9e63b21ef9139	550593980	1	main_z	7	advance_on_keypress_ZEE	58	stimuli_distractor_trianglediamonds.svg	stimuli_target_diamondcircles.svg	27	yes	57	0	219
6.6.1	win	2022-12-14	17:51:57	17:58:07	369114	628510a698e9e63b21ef9139	550593980	1	main_z	7	main_z	59	stimuli_distractor_trianglediamonds.svg	stimuli_target_squarediamonds.svg	12	yes	44	1	472
6.6.1	win	2022-12-14	17:51:57	17:58:07	369114	628510a698e9e63b21ef9139	550593980	1	main_z	7	advance_on_keypress_ZEE	60	stimuli_distractor_trianglediamonds.svg	stimuli_target_squarediamonds.svg	12	yes	57	0	188
6.6.1	win	2022-12-14	17:51:57	17:58:08	370402	628510a698e9e63b21ef9139	550593980	1	main_z	7	main_z	61	stimuli_distractor_trianglediamonds.svg	stimuli_target_diamondsquares.svg	28	yes	44	1	459
6.6.1	win	2022-12-14	17:51:57	17:58:08	370402	628510a698e9e63b21ef9139	550593980	1	main_z	7	advance_on_keypress_ZEE	62	stimuli_distractor_trianglediamonds.svg	stimuli_target_diamondsquares.svg	28	yes	57	0	151
6.6.1	win	2022-12-14	17:51:57	17:58:11	373195	628510a698e9e63b21ef9139	550593980	1	main_z	7	main_z	63	stimuli_distractor_diamondtriangles.svg	stimuli_target_squarediamonds.svg	16	yes	0	0	2000
6.6.1	win	2022-12-14	17:51:57	17:58:11	373195	628510a698e9e63b21ef9139	550593980	1	main_z	7	advance_on_keypress_ZEE	64	stimuli_distractor_diamondtriangles.svg	stimuli_target_squarediamonds.svg	16	yes	57	0	516
6.6.1	win	2022-12-14	17:51:57	17:58:14	376364	628510a698e9e63b21ef9139	550593980	1	main_z	7	main_z	65	stimuli_distractor_diamondtriangles.svg	stimuli_distractor_diamondtriangles.svg	39	no	0	1	2000
6.6.1	win	2022-12-14	17:51:57	17:58:14	376364	628510a698e9e63b21ef9139	550593980	1	main_z	7	advance_on_keypress_ZEE	66	stimuli_distractor_diamondtriangles.svg	stimuli_distractor_diamondtriangles.svg	39	no	57	0	363
6.6.1	win	2022-12-14	17:51:57	17:58:16	377794	628510a698e9e63b21ef9139	550593980	1	main_z	7	main_z	67	stimuli_distractor_trianglediamonds.svg	stimuli_target_circletriangles.svg	9	yes	44	1	427
6.6.1	win	2022-12-14	17:51:57	17:58:16	377794	628510a698e9e63b21ef9139	550593980	1	main_z	7	advance_on_keypress_ZEE	68	stimuli_distractor_trianglediamonds.svg	stimuli_target_circletriangles.svg	9	yes	57	0	400
6.6.1	win	2022-12-14	17:51:57	17:58:18	379418	628510a698e9e63b21ef9139	550593980	1	main_z	7	main_z	69	stimuli_target_diamondsquares.svg	stimuli_distractor_trianglediamonds.svg	20	yes	44	1	583
6.6.1	win	2022-12-14	17:51:57	17:58:18	379418	628510a698e9e63b21ef9139	550593980	1	main_z	7	advance_on_keypress_ZEE	70	stimuli_target_diamondsquares.svg	stimuli_distractor_trianglediamonds.svg	20	yes	57	0	429
6.6.1	win	2022-12-14	17:51:57	17:58:19	380938	628510a698e9e63b21ef9139	550593980	1	main_z	7	main_z	71	stimuli_distractor_diamondtriangles.svg	stimuli_distractor_trianglediamonds.svg	38	no	44	0	451
6.6.1	win	2022-12-14	17:51:57	17:58:19	380938	628510a698e9e63b21ef9139	550593980	1	main_z	7	advance_on_keypress_ZEE	72	stimuli_distractor_diamondtriangles.svg	stimuli_distractor_trianglediamonds.svg	38	no	57	0	727
6.6.1	win	2022-12-14	17:51:57	17:58:21	382824	628510a698e9e63b21ef9139	550593980	1	main_z	7	main_z	73	stimuli_target_trianglecircles.svg	stimuli_distractor_trianglediamonds.svg	17	yes	44	1	504
6.6.1	win	2022-12-14	17:51:57	17:58:21	382824	628510a698e9e63b21ef9139	550593980	1	main_z	7	advance_on_keypress_ZEE	74	stimuli_target_trianglecircles.svg	stimuli_distractor_trianglediamonds.svg	17	yes	57	0	218
6.6.1	win	2022-12-14	17:51:57	17:58:22	384379	628510a698e9e63b21ef9139	550593980	1	main_z	7	main_z	75	stimuli_target_squaretriangles.svg	stimuli_distractor_diamondtriangles.svg	7	yes	44	1	688
6.6.1	win	2022-12-14	17:51:57	17:58:22	384379	628510a698e9e63b21ef9139	550593980	1	main_z	7	advance_on_keypress_ZEE	76	stimuli_target_squaretriangles.svg	stimuli_distractor_diamondtriangles.svg	7	yes	57	0	282
6.6.1	win	2022-12-14	17:51:57	17:58:24	385802	628510a698e9e63b21ef9139	550593980	1	main_z	7	main_z	77	stimuli_target_trianglecircles.svg	stimuli_distractor_diamondtriangles.svg	21	yes	44	1	493
6.6.1	win	2022-12-14	17:51:57	17:58:24	385802	628510a698e9e63b21ef9139	550593980	1	main_z	7	advance_on_keypress_ZEE	78	stimuli_target_trianglecircles.svg	stimuli_distractor_diamondtriangles.svg	21	yes	57	0	216
6.6.1	win	2022-12-14	17:51:57	17:58:27	388661	628510a698e9e63b21ef9139	550593980	1	main_z	7	main_z	79	stimuli_distractor_trianglediamonds.svg	stimuli_distractor_trianglediamonds.svg	34	no	0	1	2000
6.6.1	win	2022-12-14	17:51:57	17:58:27	388661	628510a698e9e63b21ef9139	550593980	1	main_z	7	advance_on_keypress_ZEE	80	stimuli_distractor_trianglediamonds.svg	stimuli_distractor_trianglediamonds.svg	34	no	57	0	546
6.6.1	win	2022-12-14	17:51:57	17:58:28	390402	628510a698e9e63b21ef9139	550593980	1	main_z	7	main_z	81	stimuli_distractor_diamondtriangles.svg	stimuli_target_diamondcircles.svg	31	yes	44	1	555
6.6.1	win	2022-12-14	17:51:57	17:58:28	390402	628510a698e9e63b21ef9139	550593980	1	main_z	7	advance_on_keypress_ZEE	82	stimuli_distractor_diamondtriangles.svg	stimuli_target_diamondcircles.svg	31	yes	57	0	291
6.6.1	win	2022-12-14	17:51:57	17:58:30	391746	628510a698e9e63b21ef9139	550593980	1	main_z	7	main_z	83	stimuli_target_circlediamonds.svg	stimuli_distractor_trianglediamonds.svg	2	yes	44	1	414
6.6.1	win	2022-12-14	17:51:57	17:58:30	391746	628510a698e9e63b21ef9139	550593980	1	main_z	7	advance_on_keypress_ZEE	84	stimuli_target_circlediamonds.svg	stimuli_distractor_trianglediamonds.svg	2	yes	57	0	165
6.6.1	win	2022-12-14	17:51:57	17:58:32	393411	628510a698e9e63b21ef9139	550593980	1	main_z	7	main_z	85	stimuli_target_circlediamonds.svg	stimuli_distractor_diamondtriangles.svg	6	yes	44	1	860
6.6.1	win	2022-12-14	17:51:57	17:58:32	393411	628510a698e9e63b21ef9139	550593980	1	main_z	7	advance_on_keypress_ZEE	86	stimuli_target_circlediamonds.svg	stimuli_distractor_diamondtriangles.svg	6	yes	57	0	160
6.6.1	win	2022-12-14	17:51:57	17:58:33	394603	628510a698e9e63b21ef9139	550593980	1	main_z	7	main_z	87	stimuli_target_circletriangles.svg	stimuli_distractor_trianglediamonds.svg	1	yes	44	1	401
6.6.1	win	2022-12-14	17:51:57	17:58:33	394603	628510a698e9e63b21ef9139	550593980	1	main_z	7	advance_on_keypress_ZEE	88	stimuli_target_circletriangles.svg	stimuli_distractor_trianglediamonds.svg	1	yes	57	0	111
6.6.1	win	2022-12-14	17:51:57	17:58:34	396330	628510a698e9e63b21ef9139	550593980	1	main_z	7	main_z	89	stimuli_distractor_trianglediamonds.svg	stimuli_target_trianglecircles.svg	25	yes	44	1	978
6.6.1	win	2022-12-14	17:51:57	17:58:34	396330	628510a698e9e63b21ef9139	550593980	1	main_z	7	advance_on_keypress_ZEE	90	stimuli_distractor_trianglediamonds.svg	stimuli_target_trianglecircles.svg	25	yes	57	0	169
6.6.1	win	2022-12-14	17:51:57	17:58:37	399138	628510a698e9e63b21ef9139	550593980	1	main_z	7	main_z	91	stimuli_distractor_diamondtriangles.svg	stimuli_distractor_trianglediamonds.svg	38	no	0	1	2000
6.6.1	win	2022-12-14	17:51:57	17:58:37	399138	628510a698e9e63b21ef9139	550593980	1	main_z	7	advance_on_keypress_ZEE	92	stimuli_distractor_diamondtriangles.svg	stimuli_distractor_trianglediamonds.svg	38	no	57	0	341
6.6.1	win	2022-12-14	17:51:57	17:58:40	402143	628510a698e9e63b21ef9139	550593980	1	main_z	7	main_z	93	stimuli_distractor_diamondtriangles.svg	stimuli_distractor_diamondtriangles.svg	39	no	0	1	2000
6.6.1	win	2022-12-14	17:51:57	17:58:40	402143	628510a698e9e63b21ef9139	550593980	1	main_z	7	advance_on_keypress_ZEE	94	stimuli_distractor_diamondtriangles.svg	stimuli_distractor_diamondtriangles.svg	39	no	57	0	306
6.6.1	win	2022-12-14	17:51:57	17:58:42	403532	628510a698e9e63b21ef9139	550593980	1	main_z	7	main_z	95	stimuli_target_squaretriangles.svg	stimuli_distractor_diamondtriangles.svg	7	yes	44	1	436
6.6.1	win	2022-12-14	17:51:57	17:58:42	403532	628510a698e9e63b21ef9139	550593980	1	main_z	7	advance_on_keypress_ZEE	96	stimuli_target_squaretriangles.svg	stimuli_distractor_diamondtriangles.svg	7	yes	57	0	217
6.6.1	win	2022-12-14	17:51:57	17:58:43	405170	628510a698e9e63b21ef9139	550593980	1	main_z	7	main_z	97	stimuli_distractor_diamondtriangles.svg	stimuli_target_diamondsquares.svg	32	yes	44	1	775
6.6.1	win	2022-12-14	17:51:57	17:58:43	405170	628510a698e9e63b21ef9139	550593980	1	main_z	7	advance_on_keypress_ZEE	98	stimuli_distractor_diamondtriangles.svg	stimuli_target_diamondsquares.svg	32	yes	57	0	198
6.6.1	win	2022-12-14	17:51:57	17:58:45	406666	628510a698e9e63b21ef9139	550593980	1	main_z	7	main_z	99	stimuli_distractor_trianglediamonds.svg	stimuli_target_squaretriangles.svg	11	yes	44	1	653
6.6.1	win	2022-12-14	17:51:57	17:58:45	406666	628510a698e9e63b21ef9139	550593980	1	main_z	7	advance_on_keypress_ZEE	100	stimuli_distractor_trianglediamonds.svg	stimuli_target_squaretriangles.svg	11	yes	57	0	185
6.6.1	win	2022-12-14	17:51:57	17:58:46	408018	628510a698e9e63b21ef9139	550593980	1	main_z	7	main_z	101	stimuli_target_diamondcircles.svg	stimuli_distractor_trianglediamonds.svg	19	yes	44	1	520
6.6.1	win	2022-12-14	17:51:57	17:58:46	408018	628510a698e9e63b21ef9139	550593980	1	main_z	7	advance_on_keypress_ZEE	102	stimuli_target_diamondcircles.svg	stimuli_distractor_trianglediamonds.svg	19	yes	57	0	145
6.6.1	win	2022-12-14	17:51:57	17:58:49	410800	628510a698e9e63b21ef9139	550593980	1	main_z	7	main_z	103	stimuli_distractor_diamondtriangles.svg	stimuli_target_squarediamonds.svg	16	yes	0	0	2000
6.6.1	win	2022-12-14	17:51:57	17:58:49	410800	628510a698e9e63b21ef9139	550593980	1	main_z	7	advance_on_keypress_ZEE	104	stimuli_distractor_diamondtriangles.svg	stimuli_target_squarediamonds.svg	16	yes	57	0	431
6.6.1	win	2022-12-14	17:51:57	17:58:51	412450	628510a698e9e63b21ef9139	550593980	1	main_z	7	main_z	105	stimuli_target_diamondsquares.svg	stimuli_distractor_diamondtriangles.svg	24	yes	44	1	581
6.6.1	win	2022-12-14	17:51:57	17:58:51	412450	628510a698e9e63b21ef9139	550593980	1	main_z	7	advance_on_keypress_ZEE	106	stimuli_target_diamondsquares.svg	stimuli_distractor_diamondtriangles.svg	24	yes	57	0	204
6.6.1	win	2022-12-14	17:51:57	17:58:52	413899	628510a698e9e63b21ef9139	550593980	1	main_z	7	main_z	107	stimuli_target_circletriangles.svg	stimuli_distractor_diamondtriangles.svg	5	yes	44	1	611
6.6.1	win	2022-12-14	17:51:57	17:58:52	413899	628510a698e9e63b21ef9139	550593980	1	main_z	7	advance_on_keypress_ZEE	108	stimuli_target_circletriangles.svg	stimuli_distractor_diamondtriangles.svg	5	yes	57	0	169
6.6.1	win	2022-12-14	17:51:57	17:58:53	415291	628510a698e9e63b21ef9139	550593980	1	main_z	7	main_z	109	stimuli_distractor_diamondtriangles.svg	stimuli_target_circlediamonds.svg	14	yes	44	1	584
6.6.1	win	2022-12-14	17:51:57	17:58:53	415291	628510a698e9e63b21ef9139	550593980	1	main_z	7	advance_on_keypress_ZEE	110	stimuli_distractor_diamondtriangles.svg	stimuli_target_circlediamonds.svg	14	yes	57	0	167
6.6.1	win	2022-12-14	17:51:57	17:58:55	416586	628510a698e9e63b21ef9139	550593980	1	main_z	7	main_z	111	stimuli_target_diamondcircles.svg	stimuli_distractor_diamondtriangles.svg	23	yes	44	1	479
6.6.1	win	2022-12-14	17:51:57	17:58:55	416586	628510a698e9e63b21ef9139	550593980	1	main_z	7	advance_on_keypress_ZEE	112	stimuli_target_diamondcircles.svg	stimuli_distractor_diamondtriangles.svg	23	yes	57	0	179
6.6.1	win	2022-12-14	17:51:57	17:58:56	418170	628510a698e9e63b21ef9139	550593980	1	main_z	7	main_z	113	stimuli_distractor_diamondtriangles.svg	stimuli_target_trianglecircles.svg	29	yes	44	1	778
6.6.1	win	2022-12-14	17:51:57	17:58:56	418170	628510a698e9e63b21ef9139	550593980	1	main_z	7	advance_on_keypress_ZEE	114	stimuli_distractor_diamondtriangles.svg	stimuli_target_trianglecircles.svg	29	yes	57	0	154
6.6.1	win	2022-12-14	17:51:57	17:58:58	419573	628510a698e9e63b21ef9139	550593980	1	main_z	7	main_z	115	stimuli_distractor_trianglediamonds.svg	stimuli_target_trianglesquares.svg	26	yes	44	1	610
6.6.1	win	2022-12-14	17:51:57	17:58:58	419573	628510a698e9e63b21ef9139	550593980	1	main_z	7	advance_on_keypress_ZEE	116	stimuli_distractor_trianglediamonds.svg	stimuli_target_trianglesquares.svg	26	yes	57	0	152
6.6.1	win	2022-12-14	17:51:57	17:58:59	420931	628510a698e9e63b21ef9139	550593980	1	main_z	7	main_z	117	stimuli_target_trianglecircles.svg	stimuli_distractor_diamondtriangles.svg	21	yes	44	1	569
6.6.1	win	2022-12-14	17:51:57	17:58:59	420931	628510a698e9e63b21ef9139	550593980	1	main_z	7	advance_on_keypress_ZEE	118	stimuli_target_trianglecircles.svg	stimuli_distractor_diamondtriangles.svg	21	yes	57	0	144
6.6.1	win	2022-12-14	17:51:57	17:59:01	422554	628510a698e9e63b21ef9139	550593980	1	main_z	7	main_z	119	stimuli_distractor_trianglediamonds.svg	stimuli_target_circlediamonds.svg	10	yes	44	1	841
6.6.1	win	2022-12-14	17:51:57	17:59:01	422554	628510a698e9e63b21ef9139	550593980	1	main_z	7	advance_on_keypress_ZEE	120	stimuli_distractor_trianglediamonds.svg	stimuli_target_circlediamonds.svg	10	yes	57	0	142
6.6.1	win	2022-12-14	17:51:57	17:59:03	425332	628510a698e9e63b21ef9139	550593980	1	main_z	7	main_z	121	stimuli_distractor_diamondtriangles.svg	stimuli_distractor_trianglediamonds.svg	37	no	0	1	2000
6.6.1	win	2022-12-14	17:51:57	17:59:03	425332	628510a698e9e63b21ef9139	550593980	1	main_z	7	advance_on_keypress_ZEE	122	stimuli_distractor_diamondtriangles.svg	stimuli_distractor_trianglediamonds.svg	37	no	57	0	468
6.6.1	win	2022-12-14	17:51:57	17:59:05	426986	628510a698e9e63b21ef9139	550593980	1	main_z	7	main_z	123	stimuli_target_diamondsquares.svg	stimuli_distractor_trianglediamonds.svg	20	yes	44	1	552
6.6.1	win	2022-12-14	17:51:57	17:59:05	426986	628510a698e9e63b21ef9139	550593980	1	main_z	7	advance_on_keypress_ZEE	124	stimuli_target_diamondsquares.svg	stimuli_distractor_trianglediamonds.svg	20	yes	57	0	144
6.6.1	win	2022-12-14	17:51:57	17:59:07	428530	628510a698e9e63b21ef9139	550593980	1	main_z	7	main_z	125	stimuli_distractor_trianglediamonds.svg	stimuli_target_diamondcircles.svg	27	yes	44	1	761
6.6.1	win	2022-12-14	17:51:57	17:59:07	428530	628510a698e9e63b21ef9139	550593980	1	main_z	7	advance_on_keypress_ZEE	126	stimuli_distractor_trianglediamonds.svg	stimuli_target_diamondcircles.svg	27	yes	57	0	129
6.6.1	win	2022-12-14	17:51:57	17:59:08	429866	628510a698e9e63b21ef9139	550593980	1	main_z	7	main_z	127	stimuli_distractor_trianglediamonds.svg	stimuli_target_squarediamonds.svg	12	yes	44	1	579
6.6.1	win	2022-12-14	17:51:57	17:59:08	429866	628510a698e9e63b21ef9139	550593980	1	main_z	7	advance_on_keypress_ZEE	128	stimuli_distractor_trianglediamonds.svg	stimuli_target_squarediamonds.svg	12	yes	57	0	122
6.6.1	win	2022-12-14	17:51:57	17:59:09	431386	628510a698e9e63b21ef9139	550593980	1	main_z	7	main_z	129	stimuli_target_trianglesquares.svg	stimuli_distractor_diamondtriangles.svg	22	yes	44	1	764
6.6.1	win	2022-12-14	17:51:57	17:59:09	431386	628510a698e9e63b21ef9139	550593980	1	main_z	7	advance_on_keypress_ZEE	130	stimuli_target_trianglesquares.svg	stimuli_distractor_diamondtriangles.svg	22	yes	57	0	148
6.6.1	win	2022-12-14	17:51:57	17:59:12	434174	628510a698e9e63b21ef9139	550593980	1	main_z	7	main_z	131	stimuli_distractor_trianglediamonds.svg	stimuli_distractor_diamondtriangles.svg	36	no	0	1	2000
6.6.1	win	2022-12-14	17:51:57	17:59:12	434174	628510a698e9e63b21ef9139	550593980	1	main_z	7	advance_on_keypress_ZEE	132	stimuli_distractor_trianglediamonds.svg	stimuli_distractor_diamondtriangles.svg	36	no	57	0	1578
6.6.1	win	2022-12-14	17:51:57	17:59:15	436786	628510a698e9e63b21ef9139	550593980	1	main_z	7	main_z	133	stimuli_target_squaretriangles.svg	stimuli_distractor_trianglediamonds.svg	3	yes	44	1	408
6.6.1	win	2022-12-14	17:51:57	17:59:15	436786	628510a698e9e63b21ef9139	550593980	1	main_z	7	advance_on_keypress_ZEE	134	stimuli_target_squaretriangles.svg	stimuli_distractor_trianglediamonds.svg	3	yes	57	0	583
6.6.1	win	2022-12-14	17:51:57	17:59:18	440013	628510a698e9e63b21ef9139	550593980	1	main_z	7	main_z	135	stimuli_distractor_diamondtriangles.svg	stimuli_distractor_diamondtriangles.svg	40	no	0	1	2000
6.6.1	win	2022-12-14	17:51:57	17:59:18	440013	628510a698e9e63b21ef9139	550593980	1	main_z	7	advance_on_keypress_ZEE	136	stimuli_distractor_diamondtriangles.svg	stimuli_distractor_diamondtriangles.svg	40	no	57	0	299
6.6.1	win	2022-12-14	17:51:57	17:59:19	441370	628510a698e9e63b21ef9139	550593980	1	main_z	7	main_z	137	stimuli_target_squarediamonds.svg	stimuli_distractor_trianglediamonds.svg	4	yes	44	1	421
6.6.1	win	2022-12-14	17:51:57	17:59:19	441370	628510a698e9e63b21ef9139	550593980	1	main_z	7	advance_on_keypress_ZEE	138	stimuli_target_squarediamonds.svg	stimuli_distractor_trianglediamonds.svg	4	yes	57	0	523
6.6.1	win	2022-12-14	17:51:57	17:59:21	442986	628510a698e9e63b21ef9139	550593980	1	main_z	7	main_z	139	stimuli_distractor_trianglediamonds.svg	stimuli_target_diamondsquares.svg	28	yes	44	1	452
6.6.1	win	2022-12-14	17:51:57	17:59:21	442986	628510a698e9e63b21ef9139	550593980	1	main_z	7	advance_on_keypress_ZEE	140	stimuli_distractor_trianglediamonds.svg	stimuli_target_diamondsquares.svg	28	yes	57	0	448
6.6.1	win	2022-12-14	17:51:57	17:59:23	444515	628510a698e9e63b21ef9139	550593980	1	main_z	7	main_z	141	stimuli_distractor_diamondtriangles.svg	stimuli_target_circletriangles.svg	13	yes	44	1	428
6.6.1	win	2022-12-14	17:51:57	17:59:23	444515	628510a698e9e63b21ef9139	550593980	1	main_z	7	advance_on_keypress_ZEE	142	stimuli_distractor_diamondtriangles.svg	stimuli_target_circletriangles.svg	13	yes	57	0	482
6.6.1	win	2022-12-14	17:51:57	17:59:24	446067	628510a698e9e63b21ef9139	550593980	1	main_z	7	main_z	143	stimuli_distractor_trianglediamonds.svg	stimuli_target_circletriangles.svg	9	yes	44	1	429
6.6.1	win	2022-12-14	17:51:57	17:59:24	446067	628510a698e9e63b21ef9139	550593980	1	main_z	7	advance_on_keypress_ZEE	144	stimuli_distractor_trianglediamonds.svg	stimuli_target_circletriangles.svg	9	yes	57	0	354
6.6.1	win	2022-12-14	17:51:57	17:59:26	447522	628510a698e9e63b21ef9139	550593980	1	main_z	7	main_z	145	stimuli_distractor_diamondtriangles.svg	stimuli_target_trianglesquares.svg	30	yes	44	1	450
6.6.1	win	2022-12-14	17:51:57	17:59:26	447522	628510a698e9e63b21ef9139	550593980	1	main_z	7	advance_on_keypress_ZEE	146	stimuli_distractor_diamondtriangles.svg	stimuli_target_trianglesquares.svg	30	yes	57	0	470
6.6.1	win	2022-12-14	17:51:57	17:59:29	450641	628510a698e9e63b21ef9139	550593980	1	main_z	7	main_z	147	stimuli_distractor_trianglediamonds.svg	stimuli_distractor_trianglediamonds.svg	34	no	0	1	2000
6.6.1	win	2022-12-14	17:51:57	17:59:29	450641	628510a698e9e63b21ef9139	550593980	1	main_z	7	advance_on_keypress_ZEE	148	stimuli_distractor_trianglediamonds.svg	stimuli_distractor_trianglediamonds.svg	34	no	57	0	19
6.6.1	win	2022-12-14	17:51:57	17:59:31	453311	628510a698e9e63b21ef9139	550593980	1	main_z	7	main_z	149	stimuli_distractor_trianglediamonds.svg	stimuli_distractor_trianglediamonds.svg	33	no	0	1	2000
6.6.1	win	2022-12-14	17:51:57	17:59:31	453311	628510a698e9e63b21ef9139	550593980	1	main_z	7	advance_on_keypress_ZEE	150	stimuli_distractor_trianglediamonds.svg	stimuli_distractor_trianglediamonds.svg	33	no	57	0	129
6.6.1	win	2022-12-14	17:51:57	17:59:33	454626	628510a698e9e63b21ef9139	550593980	1	main_z	7	main_z	151	stimuli_target_trianglesquares.svg	stimuli_distractor_trianglediamonds.svg	18	yes	44	1	547
6.6.1	win	2022-12-14	17:51:57	17:59:33	454626	628510a698e9e63b21ef9139	550593980	1	main_z	7	advance_on_keypress_ZEE	152	stimuli_target_trianglesquares.svg	stimuli_distractor_trianglediamonds.svg	18	yes	57	0	404
6.6.1	win	2022-12-14	17:51:57	17:59:34	456098	628510a698e9e63b21ef9139	550593980	1	main_z	7	main_z	153	stimuli_target_trianglecircles.svg	stimuli_distractor_trianglediamonds.svg	17	yes	44	1	434
6.6.1	win	2022-12-14	17:51:57	17:59:34	456098	628510a698e9e63b21ef9139	550593980	1	main_z	7	advance_on_keypress_ZEE	154	stimuli_target_trianglecircles.svg	stimuli_distractor_trianglediamonds.svg	17	yes	57	0	319
6.6.1	win	2022-12-14	17:51:57	17:59:36	457483	628510a698e9e63b21ef9139	550593980	1	main_z	7	main_z	155	stimuli_distractor_diamondtriangles.svg	stimuli_target_squaretriangles.svg	15	yes	44	1	416
6.6.1	win	2022-12-14	17:51:57	17:59:36	457483	628510a698e9e63b21ef9139	550593980	1	main_z	7	advance_on_keypress_ZEE	156	stimuli_distractor_diamondtriangles.svg	stimuli_target_squaretriangles.svg	15	yes	57	0	270
6.6.1	win	2022-12-14	17:51:57	17:59:38	460401	628510a698e9e63b21ef9139	550593980	1	main_z	7	main_z	157	stimuli_distractor_trianglediamonds.svg	stimuli_distractor_diamondtriangles.svg	35	no	0	1	2000
6.6.1	win	2022-12-14	17:51:57	17:59:38	460401	628510a698e9e63b21ef9139	550593980	1	main_z	7	advance_on_keypress_ZEE	158	stimuli_distractor_trianglediamonds.svg	stimuli_distractor_diamondtriangles.svg	35	no	57	0	343
6.6.1	win	2022-12-14	17:51:57	17:59:40	461778	628510a698e9e63b21ef9139	550593980	1	main_z	7	main_z	159	stimuli_target_squarediamonds.svg	stimuli_distractor_diamondtriangles.svg	8	yes	44	1	408
6.6.1	win	2022-12-14	17:51:57	17:59:40	461778	628510a698e9e63b21ef9139	550593980	1	main_z	7	advance_on_keypress_ZEE	160	stimuli_target_squarediamonds.svg	stimuli_distractor_diamondtriangles.svg	8	yes	57	0	374
6.6.1	win	2022-12-14	17:51:57	18:00:20	502109	628510a698e9e63b21ef9139	550593980	1	practice_slash	9	practice_slash	1	stimuli_target_diamondsquares.svg	stimuli_distractor_trianglediamonds.svg	6	yes	0	0	2000
6.6.1	win	2022-12-14	17:51:57	18:00:20	502109	628510a698e9e63b21ef9139	550593980	1	practice_slash	9	advance_on_keypress_SLASH	2	stimuli_target_diamondsquares.svg	stimuli_distractor_trianglediamonds.svg	6	yes	57	0	545
6.6.1	win	2022-12-14	17:51:57	18:00:23	504852	628510a698e9e63b21ef9139	550593980	1	practice_slash	9	practice_slash	3	stimuli_distractor_trianglediamonds.svg	stimuli_distractor_diamondtriangles.svg	16	no	53	0	554
6.6.1	win	2022-12-14	17:51:57	18:00:23	504852	628510a698e9e63b21ef9139	550593980	1	practice_slash	9	advance_on_keypress_SLASH	4	stimuli_distractor_trianglediamonds.svg	stimuli_distractor_diamondtriangles.svg	16	no	57	0	505
6.6.1	win	2022-12-14	17:51:57	18:00:26	507411	628510a698e9e63b21ef9139	550593980	1	practice_slash	9	practice_slash	5	stimuli_target_circlediamonds.svg	stimuli_distractor_diamondtriangles.svg	1	yes	53	1	411
6.6.1	win	2022-12-14	17:51:57	18:00:26	507411	628510a698e9e63b21ef9139	550593980	1	practice_slash	9	advance_on_keypress_SLASH	6	stimuli_target_circlediamonds.svg	stimuli_distractor_diamondtriangles.svg	1	yes	57	0	448
6.6.1	win	2022-12-14	17:51:57	18:00:28	509931	628510a698e9e63b21ef9139	550593980	1	practice_slash	9	practice_slash	7	stimuli_target_squarediamonds.svg	stimuli_distractor_trianglediamonds.svg	5	yes	53	1	428
6.6.1	win	2022-12-14	17:51:57	18:00:28	509931	628510a698e9e63b21ef9139	550593980	1	practice_slash	9	advance_on_keypress_SLASH	8	stimuli_target_squarediamonds.svg	stimuli_distractor_trianglediamonds.svg	5	yes	57	0	361
6.6.1	win	2022-12-14	17:51:57	18:00:32	513921	628510a698e9e63b21ef9139	550593980	1	practice_slash	9	practice_slash	9	stimuli_distractor_trianglediamonds.svg	stimuli_distractor_trianglediamonds.svg	15	no	0	1	2000
6.6.1	win	2022-12-14	17:51:57	18:00:32	513921	628510a698e9e63b21ef9139	550593980	1	practice_slash	9	advance_on_keypress_SLASH	10	stimuli_distractor_trianglediamonds.svg	stimuli_distractor_trianglediamonds.svg	15	no	57	0	582
6.6.1	win	2022-12-14	17:51:57	18:00:35	516634	628510a698e9e63b21ef9139	550593980	1	practice_slash	9	practice_slash	11	stimuli_distractor_trianglediamonds.svg	stimuli_target_diamondcircles.svg	12	yes	53	1	492
6.6.1	win	2022-12-14	17:51:57	18:00:35	516634	628510a698e9e63b21ef9139	550593980	1	practice_slash	9	advance_on_keypress_SLASH	12	stimuli_distractor_trianglediamonds.svg	stimuli_target_diamondcircles.svg	12	yes	57	0	318
6.6.1	win	2022-12-14	17:51:57	18:00:39	520596	628510a698e9e63b21ef9139	550593980	1	practice_slash	9	practice_slash	13	stimuli_distractor_diamondtriangles.svg	stimuli_distractor_trianglediamonds.svg	14	no	0	1	2000
6.6.1	win	2022-12-14	17:51:57	18:00:39	520596	628510a698e9e63b21ef9139	550593980	1	practice_slash	9	advance_on_keypress_SLASH	14	stimuli_distractor_diamondtriangles.svg	stimuli_distractor_trianglediamonds.svg	14	no	57	0	508
6.6.1	win	2022-12-14	17:51:57	18:00:43	524732	628510a698e9e63b21ef9139	550593980	1	practice_slash	9	practice_slash	15	stimuli_distractor_diamondtriangles.svg	stimuli_distractor_diamondtriangles.svg	13	no	0	1	2000
6.6.1	win	2022-12-14	17:51:57	18:00:43	524732	628510a698e9e63b21ef9139	550593980	1	practice_slash	9	advance_on_keypress_SLASH	16	stimuli_distractor_diamondtriangles.svg	stimuli_distractor_diamondtriangles.svg	13	no	57	0	475
6.6.1	win	2022-12-14	17:51:57	18:00:45	527291	628510a698e9e63b21ef9139	550593980	1	practice_slash	9	practice_slash	17	stimuli_distractor_diamondtriangles.svg	stimuli_target_trianglecircles.svg	9	yes	53	1	454
6.6.1	win	2022-12-14	17:51:57	18:00:45	527291	628510a698e9e63b21ef9139	550593980	1	practice_slash	9	advance_on_keypress_SLASH	18	stimuli_distractor_diamondtriangles.svg	stimuli_target_trianglecircles.svg	9	yes	57	0	297
6.6.1	win	2022-12-14	17:51:57	18:00:48	529724	628510a698e9e63b21ef9139	550593980	1	practice_slash	9	practice_slash	19	stimuli_target_circlediamonds.svg	stimuli_distractor_trianglediamonds.svg	4	yes	53	1	484
6.6.1	win	2022-12-14	17:51:57	18:00:48	529724	628510a698e9e63b21ef9139	550593980	1	practice_slash	9	advance_on_keypress_SLASH	20	stimuli_target_circlediamonds.svg	stimuli_distractor_trianglediamonds.svg	4	yes	57	0	325
6.6.1	win	2022-12-14	17:51:57	18:00:50	532283	628510a698e9e63b21ef9139	550593980	1	practice_slash	9	practice_slash	21	stimuli_target_diamondsquares.svg	stimuli_distractor_diamondtriangles.svg	3	yes	53	1	591
6.6.1	win	2022-12-14	17:51:57	18:00:50	532283	628510a698e9e63b21ef9139	550593980	1	practice_slash	9	advance_on_keypress_SLASH	22	stimuli_target_diamondsquares.svg	stimuli_distractor_diamondtriangles.svg	3	yes	57	0	269
6.6.1	win	2022-12-14	17:51:57	18:00:53	534643	628510a698e9e63b21ef9139	550593980	1	practice_slash	9	practice_slash	23	stimuli_target_squarediamonds.svg	stimuli_distractor_diamondtriangles.svg	2	yes	53	1	448
6.6.1	win	2022-12-14	17:51:57	18:00:53	534643	628510a698e9e63b21ef9139	550593980	1	practice_slash	9	advance_on_keypress_SLASH	24	stimuli_target_squarediamonds.svg	stimuli_distractor_diamondtriangles.svg	2	yes	57	0	324
6.6.1	win	2022-12-14	17:51:57	18:00:55	537036	628510a698e9e63b21ef9139	550593980	1	practice_slash	9	practice_slash	25	stimuli_distractor_diamondtriangles.svg	stimuli_target_circletriangles.svg	7	yes	53	1	438
6.6.1	win	2022-12-14	17:51:57	18:00:55	537036	628510a698e9e63b21ef9139	550593980	1	practice_slash	9	advance_on_keypress_SLASH	26	stimuli_distractor_diamondtriangles.svg	stimuli_target_circletriangles.svg	7	yes	57	0	282
6.6.1	win	2022-12-14	17:51:57	18:00:58	539420	628510a698e9e63b21ef9139	550593980	1	practice_slash	9	practice_slash	27	stimuli_distractor_diamondtriangles.svg	stimuli_target_diamondcircles.svg	8	yes	53	1	453
6.6.1	win	2022-12-14	17:51:57	18:00:58	539420	628510a698e9e63b21ef9139	550593980	1	practice_slash	9	advance_on_keypress_SLASH	28	stimuli_distractor_diamondtriangles.svg	stimuli_target_diamondcircles.svg	8	yes	57	0	296
6.6.1	win	2022-12-14	17:51:57	18:01:00	541867	628510a698e9e63b21ef9139	550593980	1	practice_slash	9	practice_slash	29	stimuli_distractor_trianglediamonds.svg	stimuli_target_circlediamonds.svg	10	yes	53	1	498
6.6.1	win	2022-12-14	17:51:57	18:01:00	541867	628510a698e9e63b21ef9139	550593980	1	practice_slash	9	advance_on_keypress_SLASH	30	stimuli_distractor_trianglediamonds.svg	stimuli_target_circlediamonds.svg	10	yes	57	0	332
6.6.1	win	2022-12-14	17:51:57	18:01:02	544266	628510a698e9e63b21ef9139	550593980	1	practice_slash	9	practice_slash	31	stimuli_distractor_trianglediamonds.svg	stimuli_target_squarediamonds.svg	11	yes	53	1	429
6.6.1	win	2022-12-14	17:51:57	18:01:02	544266	628510a698e9e63b21ef9139	550593980	1	practice_slash	9	advance_on_keypress_SLASH	32	stimuli_distractor_trianglediamonds.svg	stimuli_target_squarediamonds.svg	11	yes	57	0	251
6.6.1	win	2022-12-14	17:51:57	18:01:06	548212	628510a698e9e63b21ef9139	550593980	1	main_slash	11	main_slash	1	stimuli_target_squaretriangles.svg	stimuli_distractor_diamondtriangles.svg	7	yes	53	1	518
6.6.1	win	2022-12-14	17:51:57	18:01:06	548212	628510a698e9e63b21ef9139	550593980	1	main_slash	11	advance_on_keypress_SLASH	2	stimuli_target_squaretriangles.svg	stimuli_distractor_diamondtriangles.svg	7	yes	57	0	712
6.6.1	win	2022-12-14	17:51:57	18:01:08	550162	628510a698e9e63b21ef9139	550593980	1	main_slash	11	main_slash	3	stimuli_distractor_diamondtriangles.svg	stimuli_target_diamondsquares.svg	32	yes	53	1	602
6.6.1	win	2022-12-14	17:51:57	18:01:08	550162	628510a698e9e63b21ef9139	550593980	1	main_slash	11	advance_on_keypress_SLASH	4	stimuli_distractor_diamondtriangles.svg	stimuli_target_diamondsquares.svg	32	yes	57	0	576
6.6.1	win	2022-12-14	17:51:57	18:01:10	551818	628510a698e9e63b21ef9139	550593980	1	main_slash	11	main_slash	5	stimuli_target_diamondcircles.svg	stimuli_distractor_trianglediamonds.svg	19	yes	53	1	439
6.6.1	win	2022-12-14	17:51:57	18:01:10	551818	628510a698e9e63b21ef9139	550593980	1	main_slash	11	advance_on_keypress_SLASH	6	stimuli_target_diamondcircles.svg	stimuli_distractor_trianglediamonds.svg	19	yes	57	0	484
6.6.1	win	2022-12-14	17:51:57	18:01:11	553347	628510a698e9e63b21ef9139	550593980	1	main_slash	11	main_slash	7	stimuli_distractor_trianglediamonds.svg	stimuli_target_trianglesquares.svg	26	yes	53	1	399
6.6.1	win	2022-12-14	17:51:57	18:01:11	553347	628510a698e9e63b21ef9139	550593980	1	main_slash	11	advance_on_keypress_SLASH	8	stimuli_distractor_trianglediamonds.svg	stimuli_target_trianglesquares.svg	26	yes	57	0	317
6.6.1	win	2022-12-14	17:51:57	18:01:13	554754	628510a698e9e63b21ef9139	550593980	1	main_slash	11	main_slash	9	stimuli_target_trianglesquares.svg	stimuli_distractor_diamondtriangles.svg	22	yes	53	1	439
6.6.1	win	2022-12-14	17:51:57	18:01:13	554754	628510a698e9e63b21ef9139	550593980	1	main_slash	11	advance_on_keypress_SLASH	10	stimuli_target_trianglesquares.svg	stimuli_distractor_diamondtriangles.svg	22	yes	57	0	276
6.6.1	win	2022-12-14	17:51:57	18:01:14	556250	628510a698e9e63b21ef9139	550593980	1	main_slash	11	main_slash	11	stimuli_distractor_trianglediamonds.svg	stimuli_target_diamondcircles.svg	27	yes	53	1	583
6.6.1	win	2022-12-14	17:51:57	18:01:14	556250	628510a698e9e63b21ef9139	550593980	1	main_slash	11	advance_on_keypress_SLASH	12	stimuli_distractor_trianglediamonds.svg	stimuli_target_diamondcircles.svg	27	yes	57	0	342
6.6.1	win	2022-12-14	17:51:57	18:01:16	557730	628510a698e9e63b21ef9139	550593980	1	main_slash	11	main_slash	13	stimuli_target_squarediamonds.svg	stimuli_distractor_trianglediamonds.svg	4	yes	53	1	495
6.6.1	win	2022-12-14	17:51:57	18:01:16	557730	628510a698e9e63b21ef9139	550593980	1	main_slash	11	advance_on_keypress_SLASH	14	stimuli_target_squarediamonds.svg	stimuli_distractor_trianglediamonds.svg	4	yes	57	0	322
6.6.1	win	2022-12-14	17:51:57	18:01:17	559258	628510a698e9e63b21ef9139	550593980	1	main_slash	11	main_slash	15	stimuli_distractor_trianglediamonds.svg	stimuli_target_trianglecircles.svg	25	yes	53	1	572
6.6.1	win	2022-12-14	17:51:57	18:01:17	559258	628510a698e9e63b21ef9139	550593980	1	main_slash	11	advance_on_keypress_SLASH	16	stimuli_distractor_trianglediamonds.svg	stimuli_target_trianglecircles.svg	25	yes	57	0	419
6.6.1	win	2022-12-14	17:51:57	18:01:20	562322	628510a698e9e63b21ef9139	550593980	1	main_slash	11	main_slash	17	stimuli_distractor_diamondtriangles.svg	stimuli_distractor_trianglediamonds.svg	38	no	0	1	2000
6.6.1	win	2022-12-14	17:51:57	18:01:20	562322	628510a698e9e63b21ef9139	550593980	1	main_slash	11	advance_on_keypress_SLASH	18	stimuli_distractor_diamondtriangles.svg	stimuli_distractor_trianglediamonds.svg	38	no	57	0	309
6.6.1	win	2022-12-14	17:51:57	18:01:22	563666	628510a698e9e63b21ef9139	550593980	1	main_slash	11	main_slash	19	stimuli_distractor_diamondtriangles.svg	stimuli_target_trianglecircles.svg	29	yes	53	1	392
6.6.1	win	2022-12-14	17:51:57	18:01:22	563666	628510a698e9e63b21ef9139	550593980	1	main_slash	11	advance_on_keypress_SLASH	20	stimuli_distractor_diamondtriangles.svg	stimuli_target_trianglecircles.svg	29	yes	57	0	462
6.6.1	win	2022-12-14	17:51:57	18:01:23	565363	628510a698e9e63b21ef9139	550593980	1	main_slash	11	main_slash	21	stimuli_distractor_diamondtriangles.svg	stimuli_target_squaretriangles.svg	15	yes	53	1	603
6.6.1	win	2022-12-14	17:51:57	18:01:23	565363	628510a698e9e63b21ef9139	550593980	1	main_slash	11	advance_on_keypress_SLASH	22	stimuli_distractor_diamondtriangles.svg	stimuli_target_squaretriangles.svg	15	yes	57	0	521
6.6.1	win	2022-12-14	17:51:57	18:01:25	567091	628510a698e9e63b21ef9139	550593980	1	main_slash	11	main_slash	23	stimuli_distractor_diamondtriangles.svg	stimuli_target_squarediamonds.svg	16	yes	53	1	563
6.6.1	win	2022-12-14	17:51:57	18:01:25	567091	628510a698e9e63b21ef9139	550593980	1	main_slash	11	advance_on_keypress_SLASH	24	stimuli_distractor_diamondtriangles.svg	stimuli_target_squarediamonds.svg	16	yes	57	0	418
6.6.1	win	2022-12-14	17:51:57	18:01:27	568619	628510a698e9e63b21ef9139	550593980	1	main_slash	11	main_slash	25	stimuli_target_diamondcircles.svg	stimuli_distractor_diamondtriangles.svg	23	yes	53	1	472
6.6.1	win	2022-12-14	17:51:57	18:01:27	568619	628510a698e9e63b21ef9139	550593980	1	main_slash	11	advance_on_keypress_SLASH	26	stimuli_target_diamondcircles.svg	stimuli_distractor_diamondtriangles.svg	23	yes	57	0	299
6.6.1	win	2022-12-14	17:51:57	18:01:30	571564	628510a698e9e63b21ef9139	550593980	1	main_slash	11	main_slash	27	stimuli_distractor_diamondtriangles.svg	stimuli_distractor_diamondtriangles.svg	39	no	0	1	2000
6.6.1	win	2022-12-14	17:51:57	18:01:30	571564	628510a698e9e63b21ef9139	550593980	1	main_slash	11	advance_on_keypress_SLASH	28	stimuli_distractor_diamondtriangles.svg	stimuli_distractor_diamondtriangles.svg	39	no	57	0	75
6.6.1	win	2022-12-14	17:51:57	18:01:32	574267	628510a698e9e63b21ef9139	550593980	1	main_slash	11	main_slash	29	stimuli_distractor_trianglediamonds.svg	stimuli_distractor_diamondtriangles.svg	35	no	0	1	2000
6.6.1	win	2022-12-14	17:51:57	18:01:32	574267	628510a698e9e63b21ef9139	550593980	1	main_slash	11	advance_on_keypress_SLASH	30	stimuli_distractor_trianglediamonds.svg	stimuli_distractor_diamondtriangles.svg	35	no	57	0	324
6.6.1	win	2022-12-14	17:51:57	18:01:35	577221	628510a698e9e63b21ef9139	550593980	1	main_slash	11	main_slash	31	stimuli_distractor_trianglediamonds.svg	stimuli_distractor_trianglediamonds.svg	33	no	0	1	2000
6.6.1	win	2022-12-14	17:51:57	18:01:35	577221	628510a698e9e63b21ef9139	550593980	1	main_slash	11	advance_on_keypress_SLASH	32	stimuli_distractor_trianglediamonds.svg	stimuli_distractor_trianglediamonds.svg	33	no	57	0	419
6.6.1	win	2022-12-14	17:51:57	18:01:38	580291	628510a698e9e63b21ef9139	550593980	1	main_slash	11	main_slash	33	stimuli_distractor_diamondtriangles.svg	stimuli_distractor_diamondtriangles.svg	40	no	0	1	2000
6.6.1	win	2022-12-14	17:51:57	18:01:38	580291	628510a698e9e63b21ef9139	550593980	1	main_slash	11	advance_on_keypress_SLASH	34	stimuli_distractor_diamondtriangles.svg	stimuli_distractor_diamondtriangles.svg	40	no	57	0	310
6.6.1	win	2022-12-14	17:51:57	18:01:40	581674	628510a698e9e63b21ef9139	550593980	1	main_slash	11	main_slash	35	stimuli_target_circletriangles.svg	stimuli_distractor_diamondtriangles.svg	5	yes	53	1	431
6.6.1	win	2022-12-14	17:51:57	18:01:40	581674	628510a698e9e63b21ef9139	550593980	1	main_slash	11	advance_on_keypress_SLASH	36	stimuli_target_circletriangles.svg	stimuli_distractor_diamondtriangles.svg	5	yes	57	0	485
6.6.1	win	2022-12-14	17:51:57	18:01:41	583202	628510a698e9e63b21ef9139	550593980	1	main_slash	11	main_slash	37	stimuli_distractor_trianglediamonds.svg	stimuli_target_squaretriangles.svg	11	yes	53	1	408
6.6.1	win	2022-12-14	17:51:57	18:01:41	583202	628510a698e9e63b21ef9139	550593980	1	main_slash	11	advance_on_keypress_SLASH	38	stimuli_distractor_trianglediamonds.svg	stimuli_target_squaretriangles.svg	11	yes	57	0	390
6.6.1	win	2022-12-14	17:51:57	18:01:43	584674	628510a698e9e63b21ef9139	550593980	1	main_slash	11	main_slash	39	stimuli_target_squaretriangles.svg	stimuli_distractor_trianglediamonds.svg	3	yes	53	1	445
6.6.1	win	2022-12-14	17:51:57	18:01:43	584674	628510a698e9e63b21ef9139	550593980	1	main_slash	11	advance_on_keypress_SLASH	40	stimuli_target_squaretriangles.svg	stimuli_distractor_trianglediamonds.svg	3	yes	57	0	346
6.6.1	win	2022-12-14	17:51:57	18:01:45	586450	628510a698e9e63b21ef9139	550593980	1	main_slash	11	main_slash	41	stimuli_target_diamondsquares.svg	stimuli_distractor_trianglediamonds.svg	20	yes	53	1	803
6.6.1	win	2022-12-14	17:51:57	18:01:45	586450	628510a698e9e63b21ef9139	550593980	1	main_slash	11	advance_on_keypress_SLASH	42	stimuli_target_diamondsquares.svg	stimuli_distractor_trianglediamonds.svg	20	yes	57	0	353
6.6.1	win	2022-12-14	17:51:57	18:01:46	587994	628510a698e9e63b21ef9139	550593980	1	main_slash	11	main_slash	43	stimuli_distractor_trianglediamonds.svg	stimuli_target_circletriangles.svg	9	yes	53	1	545
6.6.1	win	2022-12-14	17:51:57	18:01:46	587994	628510a698e9e63b21ef9139	550593980	1	main_slash	11	advance_on_keypress_SLASH	44	stimuli_distractor_trianglediamonds.svg	stimuli_target_circletriangles.svg	9	yes	57	0	314
6.6.1	win	2022-12-14	17:51:57	18:01:48	589434	628510a698e9e63b21ef9139	550593980	1	main_slash	11	main_slash	45	stimuli_target_trianglecircles.svg	stimuli_distractor_trianglediamonds.svg	17	yes	53	1	500
6.6.1	win	2022-12-14	17:51:57	18:01:48	589434	628510a698e9e63b21ef9139	550593980	1	main_slash	11	advance_on_keypress_SLASH	46	stimuli_target_trianglecircles.svg	stimuli_distractor_trianglediamonds.svg	17	yes	57	0	222
6.6.1	win	2022-12-14	17:51:57	18:01:49	590834	628510a698e9e63b21ef9139	550593980	1	main_slash	11	main_slash	47	stimuli_target_trianglesquares.svg	stimuli_distractor_trianglediamonds.svg	18	yes	53	1	532
6.6.1	win	2022-12-14	17:51:57	18:01:49	590834	628510a698e9e63b21ef9139	550593980	1	main_slash	11	advance_on_keypress_SLASH	48	stimuli_target_trianglesquares.svg	stimuli_distractor_trianglediamonds.svg	18	yes	57	0	261
6.6.1	win	2022-12-14	17:51:57	18:01:52	593720	628510a698e9e63b21ef9139	550593980	1	main_slash	11	main_slash	49	stimuli_distractor_diamondtriangles.svg	stimuli_distractor_trianglediamonds.svg	37	no	0	1	2000
6.6.1	win	2022-12-14	17:51:57	18:01:52	593720	628510a698e9e63b21ef9139	550593980	1	main_slash	11	advance_on_keypress_SLASH	50	stimuli_distractor_diamondtriangles.svg	stimuli_distractor_trianglediamonds.svg	37	no	57	0	582
6.6.1	win	2022-12-14	17:51:57	18:01:53	595394	628510a698e9e63b21ef9139	550593980	1	main_slash	11	main_slash	51	stimuli_distractor_trianglediamonds.svg	stimuli_target_squarediamonds.svg	12	yes	53	1	437
6.6.1	win	2022-12-14	17:51:57	18:01:53	595394	628510a698e9e63b21ef9139	550593980	1	main_slash	11	advance_on_keypress_SLASH	52	stimuli_distractor_trianglediamonds.svg	stimuli_target_squarediamonds.svg	12	yes	57	0	242
6.6.1	win	2022-12-14	17:51:57	18:01:55	596674	628510a698e9e63b21ef9139	550593980	1	main_slash	11	main_slash	53	stimuli_target_circlediamonds.svg	stimuli_distractor_trianglediamonds.svg	2	yes	53	1	399
6.6.1	win	2022-12-14	17:51:57	18:01:55	596674	628510a698e9e63b21ef9139	550593980	1	main_slash	11	advance_on_keypress_SLASH	54	stimuli_target_circlediamonds.svg	stimuli_distractor_trianglediamonds.svg	2	yes	57	0	245
6.6.1	win	2022-12-14	17:51:57	18:01:56	597986	628510a698e9e63b21ef9139	550593980	1	main_slash	11	main_slash	55	stimuli_distractor_trianglediamonds.svg	stimuli_target_diamondsquares.svg	28	yes	53	1	427
6.6.1	win	2022-12-14	17:51:57	18:01:56	597986	628510a698e9e63b21ef9139	550593980	1	main_slash	11	advance_on_keypress_SLASH	56	stimuli_distractor_trianglediamonds.svg	stimuli_target_diamondsquares.svg	28	yes	57	0	160
6.6.1	win	2022-12-14	17:51:57	18:01:57	599250	628510a698e9e63b21ef9139	550593980	1	main_slash	11	main_slash	57	stimuli_target_squarediamonds.svg	stimuli_distractor_diamondtriangles.svg	8	yes	53	1	473
6.6.1	win	2022-12-14	17:51:57	18:01:57	599250	628510a698e9e63b21ef9139	550593980	1	main_slash	11	advance_on_keypress_SLASH	58	stimuli_target_squarediamonds.svg	stimuli_distractor_diamondtriangles.svg	8	yes	57	0	228
6.6.1	win	2022-12-14	17:51:57	18:02:00	602113	628510a698e9e63b21ef9139	550593980	1	main_slash	11	main_slash	59	stimuli_distractor_trianglediamonds.svg	stimuli_distractor_diamondtriangles.svg	36	no	0	1	2000
6.6.1	win	2022-12-14	17:51:57	18:02:00	602113	628510a698e9e63b21ef9139	550593980	1	main_slash	11	advance_on_keypress_SLASH	60	stimuli_distractor_trianglediamonds.svg	stimuli_distractor_diamondtriangles.svg	36	no	57	0	455
6.6.1	win	2022-12-14	17:51:57	18:02:02	604066	628510a698e9e63b21ef9139	550593980	1	main_slash	11	main_slash	61	stimuli_distractor_diamondtriangles.svg	stimuli_target_trianglesquares.svg	30	yes	53	1	851
6.6.1	win	2022-12-14	17:51:57	18:02:02	604066	628510a698e9e63b21ef9139	550593980	1	main_slash	11	advance_on_keypress_SLASH	62	stimuli_distractor_diamondtriangles.svg	stimuli_target_trianglesquares.svg	30	yes	57	0	335
6.6.1	win	2022-12-14	17:51:57	18:02:04	605546	628510a698e9e63b21ef9139	550593980	1	main_slash	11	main_slash	63	stimuli_target_circletriangles.svg	stimuli_distractor_trianglediamonds.svg	1	yes	53	1	495
6.6.1	win	2022-12-14	17:51:57	18:02:04	605546	628510a698e9e63b21ef9139	550593980	1	main_slash	11	advance_on_keypress_SLASH	64	stimuli_target_circletriangles.svg	stimuli_distractor_trianglediamonds.svg	1	yes	57	0	234
6.6.1	win	2022-12-14	17:51:57	18:02:05	606891	628510a698e9e63b21ef9139	550593980	1	main_slash	11	main_slash	65	stimuli_target_diamondsquares.svg	stimuli_distractor_diamondtriangles.svg	24	yes	53	1	471
6.6.1	win	2022-12-14	17:51:57	18:02:05	606891	628510a698e9e63b21ef9139	550593980	1	main_slash	11	advance_on_keypress_SLASH	66	stimuli_target_diamondsquares.svg	stimuli_distractor_diamondtriangles.svg	24	yes	57	0	139
6.6.1	win	2022-12-14	17:51:57	18:02:06	608091	628510a698e9e63b21ef9139	550593980	1	main_slash	11	main_slash	67	stimuli_target_circlediamonds.svg	stimuli_distractor_diamondtriangles.svg	6	yes	53	1	420
6.6.1	win	2022-12-14	17:51:57	18:02:06	608091	628510a698e9e63b21ef9139	550593980	1	main_slash	11	advance_on_keypress_SLASH	68	stimuli_target_circlediamonds.svg	stimuli_distractor_diamondtriangles.svg	6	yes	57	0	114
6.6.1	win	2022-12-14	17:51:57	18:02:08	609426	628510a698e9e63b21ef9139	550593980	1	main_slash	11	main_slash	69	stimuli_distractor_trianglediamonds.svg	stimuli_target_circlediamonds.svg	10	yes	53	1	588
6.6.1	win	2022-12-14	17:51:57	18:02:08	609426	628510a698e9e63b21ef9139	550593980	1	main_slash	11	advance_on_keypress_SLASH	70	stimuli_distractor_trianglediamonds.svg	stimuli_target_circlediamonds.svg	10	yes	57	0	147
6.6.1	win	2022-12-14	17:51:57	18:02:09	610724	628510a698e9e63b21ef9139	550593980	1	main_slash	11	main_slash	71	stimuli_distractor_diamondtriangles.svg	stimuli_target_circletriangles.svg	13	yes	53	1	508
6.6.1	win	2022-12-14	17:51:57	18:02:09	610724	628510a698e9e63b21ef9139	550593980	1	main_slash	11	advance_on_keypress_SLASH	72	stimuli_distractor_diamondtriangles.svg	stimuli_target_circletriangles.svg	13	yes	57	0	126
6.6.1	win	2022-12-14	17:51:57	18:02:10	612051	628510a698e9e63b21ef9139	550593980	1	main_slash	11	main_slash	73	stimuli_distractor_diamondtriangles.svg	stimuli_target_circlediamonds.svg	14	yes	53	1	560
6.6.1	win	2022-12-14	17:51:57	18:02:10	612051	628510a698e9e63b21ef9139	550593980	1	main_slash	11	advance_on_keypress_SLASH	74	stimuli_distractor_diamondtriangles.svg	stimuli_target_circlediamonds.svg	14	yes	57	0	112
6.6.1	win	2022-12-14	17:51:57	18:02:12	613458	628510a698e9e63b21ef9139	550593980	1	main_slash	11	main_slash	75	stimuli_distractor_diamondtriangles.svg	stimuli_target_diamondcircles.svg	31	yes	53	1	666
6.6.1	win	2022-12-14	17:51:57	18:02:12	613458	628510a698e9e63b21ef9139	550593980	1	main_slash	11	advance_on_keypress_SLASH	76	stimuli_distractor_diamondtriangles.svg	stimuli_target_diamondcircles.svg	31	yes	57	0	118
6.6.1	win	2022-12-14	17:51:57	18:02:13	614706	628510a698e9e63b21ef9139	550593980	1	main_slash	11	main_slash	77	stimuli_distractor_trianglediamonds.svg	stimuli_distractor_trianglediamonds.svg	34	no	53	0	479
6.6.1	win	2022-12-14	17:51:57	18:02:13	614706	628510a698e9e63b21ef9139	550593980	1	main_slash	11	advance_on_keypress_SLASH	78	stimuli_distractor_trianglediamonds.svg	stimuli_distractor_trianglediamonds.svg	34	no	57	0	587
6.6.1	win	2022-12-14	17:51:57	18:02:15	616418	628510a698e9e63b21ef9139	550593980	1	main_slash	11	main_slash	79	stimuli_target_trianglecircles.svg	stimuli_distractor_diamondtriangles.svg	21	yes	53	1	490
6.6.1	win	2022-12-14	17:51:57	18:02:15	616418	628510a698e9e63b21ef9139	550593980	1	main_slash	11	advance_on_keypress_SLASH	80	stimuli_target_trianglecircles.svg	stimuli_distractor_diamondtriangles.svg	21	yes	57	0	141
6.6.1	win	2022-12-14	17:51:57	18:02:16	617858	628510a698e9e63b21ef9139	550593980	1	main_slash	11	main_slash	81	stimuli_distractor_diamondtriangles.svg	stimuli_target_circletriangles.svg	13	yes	53	1	662
6.6.1	win	2022-12-14	17:51:57	18:02:16	617858	628510a698e9e63b21ef9139	550593980	1	main_slash	11	advance_on_keypress_SLASH	82	stimuli_distractor_diamondtriangles.svg	stimuli_target_circletriangles.svg	13	yes	57	0	226
6.6.1	win	2022-12-14	17:51:57	18:02:19	620715	628510a698e9e63b21ef9139	550593980	1	main_slash	11	main_slash	83	stimuli_distractor_diamondtriangles.svg	stimuli_distractor_diamondtriangles.svg	40	no	0	1	2000
6.6.1	win	2022-12-14	17:51:57	18:02:19	620715	628510a698e9e63b21ef9139	550593980	1	main_slash	11	advance_on_keypress_SLASH	84	stimuli_distractor_diamondtriangles.svg	stimuli_distractor_diamondtriangles.svg	40	no	57	0	389
6.6.1	win	2022-12-14	17:51:57	18:02:20	622292	628510a698e9e63b21ef9139	550593980	1	main_slash	11	main_slash	85	stimuli_distractor_diamondtriangles.svg	stimuli_distractor_trianglediamonds.svg	38	no	53	0	557
6.6.1	win	2022-12-14	17:51:57	18:02:20	622292	628510a698e9e63b21ef9139	550593980	1	main_slash	11	advance_on_keypress_SLASH	86	stimuli_distractor_diamondtriangles.svg	stimuli_distractor_trianglediamonds.svg	38	no	57	0	484
6.6.1	win	2022-12-14	17:51:57	18:02:22	624034	628510a698e9e63b21ef9139	550593980	1	main_slash	11	main_slash	87	stimuli_distractor_diamondtriangles.svg	stimuli_target_squarediamonds.svg	16	yes	53	1	615
6.6.1	win	2022-12-14	17:51:57	18:02:22	624034	628510a698e9e63b21ef9139	550593980	1	main_slash	11	advance_on_keypress_SLASH	88	stimuli_distractor_diamondtriangles.svg	stimuli_target_squarediamonds.svg	16	yes	57	0	149
6.6.1	win	2022-12-14	17:51:57	18:02:23	625250	628510a698e9e63b21ef9139	550593980	1	main_slash	11	main_slash	89	stimuli_target_circletriangles.svg	stimuli_distractor_trianglediamonds.svg	1	yes	53	1	429
6.6.1	win	2022-12-14	17:51:57	18:02:23	625250	628510a698e9e63b21ef9139	550593980	1	main_slash	11	advance_on_keypress_SLASH	90	stimuli_target_circletriangles.svg	stimuli_distractor_trianglediamonds.svg	1	yes	57	0	179
6.6.1	win	2022-12-14	17:51:57	18:02:25	626554	628510a698e9e63b21ef9139	550593980	1	main_slash	11	main_slash	91	stimuli_distractor_trianglediamonds.svg	stimuli_target_diamondsquares.svg	28	yes	53	1	499
6.6.1	win	2022-12-14	17:51:57	18:02:25	626554	628510a698e9e63b21ef9139	550593980	1	main_slash	11	advance_on_keypress_SLASH	92	stimuli_distractor_trianglediamonds.svg	stimuli_target_diamondsquares.svg	28	yes	57	0	126
6.6.1	win	2022-12-14	17:51:57	18:02:26	627850	628510a698e9e63b21ef9139	550593980	1	main_slash	11	main_slash	93	stimuli_distractor_trianglediamonds.svg	stimuli_target_diamondcircles.svg	27	yes	53	1	543
6.6.1	win	2022-12-14	17:51:57	18:02:26	627850	628510a698e9e63b21ef9139	550593980	1	main_slash	11	advance_on_keypress_SLASH	94	stimuli_distractor_trianglediamonds.svg	stimuli_target_diamondcircles.svg	27	yes	57	0	144
6.6.1	win	2022-12-14	17:51:57	18:02:27	629115	628510a698e9e63b21ef9139	550593980	1	main_slash	11	main_slash	95	stimuli_target_squaretriangles.svg	stimuli_distractor_trianglediamonds.svg	3	yes	53	1	490
6.6.1	win	2022-12-14	17:51:57	18:02:27	629115	628510a698e9e63b21ef9139	550593980	1	main_slash	11	advance_on_keypress_SLASH	96	stimuli_target_squaretriangles.svg	stimuli_distractor_trianglediamonds.svg	3	yes	57	0	196
6.6.1	win	2022-12-14	17:51:57	18:02:30	631610	628510a698e9e63b21ef9139	550593980	1	main_slash	11	main_slash	97	stimuli_distractor_diamondtriangles.svg	stimuli_distractor_trianglediamonds.svg	37	no	53	0	1667
6.6.1	win	2022-12-14	17:51:57	18:02:30	631610	628510a698e9e63b21ef9139	550593980	1	main_slash	11	advance_on_keypress_SLASH	98	stimuli_distractor_diamondtriangles.svg	stimuli_distractor_trianglediamonds.svg	37	no	57	0	470
6.6.1	win	2022-12-14	17:51:57	18:02:31	633170	628510a698e9e63b21ef9139	550593980	1	main_slash	11	main_slash	99	stimuli_distractor_diamondtriangles.svg	stimuli_target_trianglecircles.svg	29	yes	53	1	441
6.6.1	win	2022-12-14	17:51:57	18:02:31	633170	628510a698e9e63b21ef9139	550593980	1	main_slash	11	advance_on_keypress_SLASH	100	stimuli_distractor_diamondtriangles.svg	stimuli_target_trianglecircles.svg	29	yes	57	0	190
6.6.1	win	2022-12-14	17:51:57	18:02:33	634466	628510a698e9e63b21ef9139	550593980	1	main_slash	11	main_slash	101	stimuli_distractor_diamondtriangles.svg	stimuli_target_trianglesquares.svg	30	yes	53	1	469
6.6.1	win	2022-12-14	17:51:57	18:02:33	634466	628510a698e9e63b21ef9139	550593980	1	main_slash	11	advance_on_keypress_SLASH	102	stimuli_distractor_diamondtriangles.svg	stimuli_target_trianglesquares.svg	30	yes	57	0	185
6.6.1	win	2022-12-14	17:51:57	18:02:35	637298	628510a698e9e63b21ef9139	550593980	1	main_slash	11	main_slash	103	stimuli_distractor_trianglediamonds.svg	stimuli_distractor_diamondtriangles.svg	36	no	0	1	2000
6.6.1	win	2022-12-14	17:51:57	18:02:35	637298	628510a698e9e63b21ef9139	550593980	1	main_slash	11	advance_on_keypress_SLASH	104	stimuli_distractor_trianglediamonds.svg	stimuli_distractor_diamondtriangles.svg	36	no	57	0	284
6.6.1	win	2022-12-14	17:51:57	18:02:37	638674	628510a698e9e63b21ef9139	550593980	1	main_slash	11	main_slash	105	stimuli_distractor_trianglediamonds.svg	stimuli_target_trianglecircles.svg	25	yes	53	1	440
6.6.1	win	2022-12-14	17:51:57	18:02:37	638674	628510a698e9e63b21ef9139	550593980	1	main_slash	11	advance_on_keypress_SLASH	106	stimuli_distractor_trianglediamonds.svg	stimuli_target_trianglecircles.svg	25	yes	57	0	164
6.6.1	win	2022-12-14	17:51:57	18:02:38	640004	628510a698e9e63b21ef9139	550593980	1	main_slash	11	main_slash	107	stimuli_target_circletriangles.svg	stimuli_distractor_diamondtriangles.svg	5	yes	53	1	501
6.6.1	win	2022-12-14	17:51:57	18:02:38	640004	628510a698e9e63b21ef9139	550593980	1	main_slash	11	advance_on_keypress_SLASH	108	stimuli_target_circletriangles.svg	stimuli_distractor_diamondtriangles.svg	5	yes	57	0	102
6.6.1	win	2022-12-14	17:51:57	18:02:39	641218	628510a698e9e63b21ef9139	550593980	1	main_slash	11	main_slash	109	stimuli_target_squarediamonds.svg	stimuli_distractor_trianglediamonds.svg	4	yes	53	1	464
6.6.1	win	2022-12-14	17:51:57	18:02:39	641218	628510a698e9e63b21ef9139	550593980	1	main_slash	11	advance_on_keypress_SLASH	110	stimuli_target_squarediamonds.svg	stimuli_distractor_trianglediamonds.svg	4	yes	57	0	141
6.6.1	win	2022-12-14	17:51:57	18:02:41	642443	628510a698e9e63b21ef9139	550593980	1	main_slash	11	main_slash	111	stimuli_target_circlediamonds.svg	stimuli_distractor_trianglediamonds.svg	2	yes	53	1	454
6.6.1	win	2022-12-14	17:51:57	18:02:41	642443	628510a698e9e63b21ef9139	550593980	1	main_slash	11	advance_on_keypress_SLASH	112	stimuli_target_circlediamonds.svg	stimuli_distractor_trianglediamonds.svg	2	yes	57	0	106
6.6.1	win	2022-12-14	17:51:57	18:02:42	643618	628510a698e9e63b21ef9139	550593980	1	main_slash	11	main_slash	113	stimuli_distractor_trianglediamonds.svg	stimuli_target_squarediamonds.svg	12	yes	53	1	429
6.6.1	win	2022-12-14	17:51:57	18:02:42	643618	628510a698e9e63b21ef9139	550593980	1	main_slash	11	advance_on_keypress_SLASH	114	stimuli_distractor_trianglediamonds.svg	stimuli_target_squarediamonds.svg	12	yes	57	0	122
6.6.1	win	2022-12-14	17:51:57	18:02:43	645042	628510a698e9e63b21ef9139	550593980	1	main_slash	11	main_slash	115	stimuli_distractor_diamondtriangles.svg	stimuli_target_diamondcircles.svg	31	yes	53	1	668
6.6.1	win	2022-12-14	17:51:57	18:02:43	645042	628510a698e9e63b21ef9139	550593980	1	main_slash	11	advance_on_keypress_SLASH	116	stimuli_distractor_diamondtriangles.svg	stimuli_target_diamondcircles.svg	31	yes	57	0	119
6.6.1	win	2022-12-14	17:51:57	18:02:44	646327	628510a698e9e63b21ef9139	550593980	1	main_slash	11	main_slash	117	stimuli_target_trianglecircles.svg	stimuli_distractor_trianglediamonds.svg	17	yes	53	1	513
6.6.1	win	2022-12-14	17:51:57	18:02:44	646327	628510a698e9e63b21ef9139	550593980	1	main_slash	11	advance_on_keypress_SLASH	118	stimuli_target_trianglecircles.svg	stimuli_distractor_trianglediamonds.svg	17	yes	57	0	139
6.6.1	win	2022-12-14	17:51:57	18:02:46	647570	628510a698e9e63b21ef9139	550593980	1	main_slash	11	main_slash	119	stimuli_distractor_trianglediamonds.svg	stimuli_target_circlediamonds.svg	10	yes	53	1	460
6.6.1	win	2022-12-14	17:51:57	18:02:46	647570	628510a698e9e63b21ef9139	550593980	1	main_slash	11	advance_on_keypress_SLASH	120	stimuli_distractor_trianglediamonds.svg	stimuli_target_circlediamonds.svg	10	yes	57	0	192
6.6.1	win	2022-12-14	17:51:57	18:02:47	648858	628510a698e9e63b21ef9139	550593980	1	main_slash	11	main_slash	121	stimuli_target_trianglesquares.svg	stimuli_distractor_trianglediamonds.svg	18	yes	53	1	463
6.6.1	win	2022-12-14	17:51:57	18:02:47	648858	628510a698e9e63b21ef9139	550593980	1	main_slash	11	advance_on_keypress_SLASH	122	stimuli_target_trianglesquares.svg	stimuli_distractor_trianglediamonds.svg	18	yes	57	0	131
6.6.1	win	2022-12-14	17:51:57	18:02:48	650394	628510a698e9e63b21ef9139	550593980	1	main_slash	11	main_slash	123	stimuli_distractor_diamondtriangles.svg	stimuli_target_squaretriangles.svg	15	yes	53	1	765
6.6.1	win	2022-12-14	17:51:57	18:02:48	650394	628510a698e9e63b21ef9139	550593980	1	main_slash	11	advance_on_keypress_SLASH	124	stimuli_distractor_diamondtriangles.svg	stimuli_target_squaretriangles.svg	15	yes	57	0	125
6.6.1	win	2022-12-14	17:51:57	18:02:51	653148	628510a698e9e63b21ef9139	550593980	1	main_slash	11	main_slash	125	stimuli_distractor_diamondtriangles.svg	stimuli_distractor_diamondtriangles.svg	39	no	0	1	2000
6.6.1	win	2022-12-14	17:51:57	18:02:51	653148	628510a698e9e63b21ef9139	550593980	1	main_slash	11	advance_on_keypress_SLASH	126	stimuli_distractor_diamondtriangles.svg	stimuli_distractor_diamondtriangles.svg	39	no	57	0	276
6.6.1	win	2022-12-14	17:51:57	18:02:53	654490	628510a698e9e63b21ef9139	550593980	1	main_slash	11	main_slash	127	stimuli_target_circlediamonds.svg	stimuli_distractor_diamondtriangles.svg	6	yes	53	1	439
6.6.1	win	2022-12-14	17:51:57	18:02:53	654490	628510a698e9e63b21ef9139	550593980	1	main_slash	11	advance_on_keypress_SLASH	128	stimuli_target_circlediamonds.svg	stimuli_distractor_diamondtriangles.svg	6	yes	57	0	132
6.6.1	win	2022-12-14	17:51:57	18:02:54	655851	628510a698e9e63b21ef9139	550593980	1	main_slash	11	main_slash	129	stimuli_target_squarediamonds.svg	stimuli_distractor_diamondtriangles.svg	8	yes	53	1	581
6.6.1	win	2022-12-14	17:51:57	18:02:54	655851	628510a698e9e63b21ef9139	550593980	1	main_slash	11	advance_on_keypress_SLASH	130	stimuli_target_squarediamonds.svg	stimuli_distractor_diamondtriangles.svg	8	yes	57	0	125
6.6.1	win	2022-12-14	17:51:57	18:02:57	658603	628510a698e9e63b21ef9139	550593980	1	main_slash	11	main_slash	131	stimuli_distractor_trianglediamonds.svg	stimuli_distractor_trianglediamonds.svg	33	no	0	1	2000
6.6.1	win	2022-12-14	17:51:57	18:02:57	658603	628510a698e9e63b21ef9139	550593980	1	main_slash	11	advance_on_keypress_SLASH	132	stimuli_distractor_trianglediamonds.svg	stimuli_distractor_trianglediamonds.svg	33	no	57	0	124
6.6.1	win	2022-12-14	17:51:57	18:02:58	659850	628510a698e9e63b21ef9139	550593980	1	main_slash	11	main_slash	133	stimuli_distractor_diamondtriangles.svg	stimuli_target_diamondsquares.svg	32	yes	53	1	494
6.6.1	win	2022-12-14	17:51:57	18:02:58	659850	628510a698e9e63b21ef9139	550593980	1	main_slash	11	advance_on_keypress_SLASH	134	stimuli_distractor_diamondtriangles.svg	stimuli_target_diamondsquares.svg	32	yes	57	0	113
6.6.1	win	2022-12-14	17:51:57	18:02:59	661074	628510a698e9e63b21ef9139	550593980	1	main_slash	11	main_slash	135	stimuli_target_trianglecircles.svg	stimuli_distractor_diamondtriangles.svg	21	yes	53	1	483
6.6.1	win	2022-12-14	17:51:57	18:02:59	661074	628510a698e9e63b21ef9139	550593980	1	main_slash	11	advance_on_keypress_SLASH	136	stimuli_target_trianglecircles.svg	stimuli_distractor_diamondtriangles.svg	21	yes	57	0	94
6.6.1	win	2022-12-14	17:51:57	18:03:00	662266	628510a698e9e63b21ef9139	550593980	1	main_slash	11	main_slash	137	stimuli_distractor_trianglediamonds.svg	stimuli_target_circletriangles.svg	9	yes	53	1	457
6.6.1	win	2022-12-14	17:51:57	18:03:00	662266	628510a698e9e63b21ef9139	550593980	1	main_slash	11	advance_on_keypress_SLASH	138	stimuli_distractor_trianglediamonds.svg	stimuli_target_circletriangles.svg	9	yes	57	0	86
6.6.1	win	2022-12-14	17:51:57	18:03:02	663450	628510a698e9e63b21ef9139	550593980	1	main_slash	11	main_slash	139	stimuli_distractor_diamondtriangles.svg	stimuli_target_circlediamonds.svg	14	yes	53	1	457
6.6.1	win	2022-12-14	17:51:57	18:03:02	663450	628510a698e9e63b21ef9139	550593980	1	main_slash	11	advance_on_keypress_SLASH	140	stimuli_distractor_diamondtriangles.svg	stimuli_target_circlediamonds.svg	14	yes	57	0	85
6.6.1	win	2022-12-14	17:51:57	18:03:03	664658	628510a698e9e63b21ef9139	550593980	1	main_slash	11	main_slash	141	stimuli_target_diamondcircles.svg	stimuli_distractor_trianglediamonds.svg	19	yes	53	1	480
6.6.1	win	2022-12-14	17:51:57	18:03:03	664658	628510a698e9e63b21ef9139	550593980	1	main_slash	11	advance_on_keypress_SLASH	142	stimuli_target_diamondcircles.svg	stimuli_distractor_trianglediamonds.svg	19	yes	57	0	108
6.6.1	win	2022-12-14	17:51:57	18:03:04	665851	628510a698e9e63b21ef9139	550593980	1	main_slash	11	main_slash	143	stimuli_target_squaretriangles.svg	stimuli_distractor_diamondtriangles.svg	7	yes	53	1	454
6.6.1	win	2022-12-14	17:51:57	18:03:04	665851	628510a698e9e63b21ef9139	550593980	1	main_slash	11	advance_on_keypress_SLASH	144	stimuli_target_squaretriangles.svg	stimuli_distractor_diamondtriangles.svg	7	yes	57	0	107
6.6.1	win	2022-12-14	17:51:57	18:03:05	667034	628510a698e9e63b21ef9139	550593980	1	main_slash	11	main_slash	145	stimuli_target_diamondsquares.svg	stimuli_distractor_trianglediamonds.svg	20	yes	53	1	437
6.6.1	win	2022-12-14	17:51:57	18:03:05	667034	628510a698e9e63b21ef9139	550593980	1	main_slash	11	advance_on_keypress_SLASH	146	stimuli_target_diamondsquares.svg	stimuli_distractor_trianglediamonds.svg	20	yes	57	0	90
6.6.1	win	2022-12-14	17:51:57	18:03:06	668370	628510a698e9e63b21ef9139	550593980	1	main_slash	11	main_slash	147	stimuli_target_diamondsquares.svg	stimuli_distractor_diamondtriangles.svg	24	yes	53	1	605
6.6.1	win	2022-12-14	17:51:57	18:03:06	668370	628510a698e9e63b21ef9139	550593980	1	main_slash	11	advance_on_keypress_SLASH	148	stimuli_target_diamondsquares.svg	stimuli_distractor_diamondtriangles.svg	24	yes	57	0	75
6.6.1	win	2022-12-14	17:51:57	18:03:08	669979	628510a698e9e63b21ef9139	550593980	1	main_slash	11	main_slash	149	stimuli_target_trianglesquares.svg	stimuli_distractor_diamondtriangles.svg	22	yes	53	1	895
6.6.1	win	2022-12-14	17:51:57	18:03:08	669979	628510a698e9e63b21ef9139	550593980	1	main_slash	11	advance_on_keypress_SLASH	150	stimuli_target_trianglesquares.svg	stimuli_distractor_diamondtriangles.svg	22	yes	57	0	74
6.6.1	win	2022-12-14	17:51:57	18:03:09	671218	628510a698e9e63b21ef9139	550593980	1	main_slash	11	main_slash	151	stimuli_distractor_trianglediamonds.svg	stimuli_target_trianglesquares.svg	26	yes	53	1	534
6.6.1	win	2022-12-14	17:51:57	18:03:09	671218	628510a698e9e63b21ef9139	550593980	1	main_slash	11	advance_on_keypress_SLASH	152	stimuli_distractor_trianglediamonds.svg	stimuli_target_trianglesquares.svg	26	yes	57	0	110
6.6.1	win	2022-12-14	17:51:57	18:03:11	672443	628510a698e9e63b21ef9139	550593980	1	main_slash	11	main_slash	153	stimuli_target_diamondcircles.svg	stimuli_distractor_diamondtriangles.svg	23	yes	53	1	473
6.6.1	win	2022-12-14	17:51:57	18:03:11	672443	628510a698e9e63b21ef9139	550593980	1	main_slash	11	advance_on_keypress_SLASH	154	stimuli_target_diamondcircles.svg	stimuli_distractor_diamondtriangles.svg	23	yes	57	0	108
6.6.1	win	2022-12-14	17:51:57	18:03:13	675187	628510a698e9e63b21ef9139	550593980	1	main_slash	11	main_slash	155	stimuli_distractor_trianglediamonds.svg	stimuli_distractor_trianglediamonds.svg	34	no	0	1	2000
6.6.1	win	2022-12-14	17:51:57	18:03:13	675187	628510a698e9e63b21ef9139	550593980	1	main_slash	11	advance_on_keypress_SLASH	156	stimuli_distractor_trianglediamonds.svg	stimuli_distractor_trianglediamonds.svg	34	no	57	0	332
6.6.1	win	2022-12-14	17:51:57	18:03:16	678157	628510a698e9e63b21ef9139	550593980	1	main_slash	11	main_slash	157	stimuli_distractor_trianglediamonds.svg	stimuli_distractor_diamondtriangles.svg	35	no	0	1	2000
6.6.1	win	2022-12-14	17:51:57	18:03:16	678157	628510a698e9e63b21ef9139	550593980	1	main_slash	11	advance_on_keypress_SLASH	158	stimuli_distractor_trianglediamonds.svg	stimuli_distractor_diamondtriangles.svg	35	no	57	0	91
6.6.1	win	2022-12-14	17:51:57	18:03:18	679435	628510a698e9e63b21ef9139	550593980	1	main_slash	11	main_slash	159	stimuli_distractor_trianglediamonds.svg	stimuli_target_squaretriangles.svg	11	yes	53	1	558
6.6.1	win	2022-12-14	17:51:57	18:03:18	679435	628510a698e9e63b21ef9139	550593980	1	main_slash	11	advance_on_keypress_SLASH	160	stimuli_distractor_trianglediamonds.svg	stimuli_target_squaretriangles.svg	11	yes	57	0	118