build	computer.platform	date	time	timestamp	time_elapsed_ms	subject	group	session	blockcode	blocknum	trialcode	trialnum	stimulus_left	stimulus_right	stim_index	target_present	response	correct	latency
6.6.1	win	2022-12-14	18:09:18	18:11:06	106153	610898813e48dc2864965122	758914142	1	practice_z	5	practice_z	1	stimuli_target_squarediamonds.svg	stimuli_distractor_diamondtriangles.svg	2	yes	44	1	620
6.6.1	win	2022-12-14	18:09:18	18:11:06	106153	610898813e48dc2864965122	758914142	1	practice_z	5	advance_on_keypress_ZEE	2	stimuli_target_squarediamonds.svg	stimuli_distractor_diamondtriangles.svg	2	yes	57	0	1193
6.6.1	win	2022-12-14	18:09:18	18:11:11	110992	610898813e48dc2864965122	758914142	1	practice_z	5	practice_z	3	stimuli_distractor_trianglediamonds.svg	stimuli_distractor_trianglediamonds.svg	15	no	0	1	2000
6.6.1	win	2022-12-14	18:09:18	18:11:11	110992	610898813e48dc2864965122	758914142	1	practice_z	5	advance_on_keypress_ZEE	4	stimuli_distractor_trianglediamonds.svg	stimuli_distractor_trianglediamonds.svg	15	no	57	0	505
6.6.1	win	2022-12-14	18:09:18	18:11:14	113916	610898813e48dc2864965122	758914142	1	practice_z	5	practice_z	5	stimuli_distractor_trianglediamonds.svg	stimuli_target_diamondcircles.svg	12	yes	44	1	776
6.6.1	win	2022-12-14	18:09:18	18:11:14	113916	610898813e48dc2864965122	758914142	1	practice_z	5	advance_on_keypress_ZEE	6	stimuli_distractor_trianglediamonds.svg	stimuli_target_diamondcircles.svg	12	yes	57	0	513
6.6.1	win	2022-12-14	18:09:18	18:11:17	117012	610898813e48dc2864965122	758914142	1	practice_z	5	practice_z	7	stimuli_target_diamondsquares.svg	stimuli_distractor_diamondtriangles.svg	3	yes	44	1	930
6.6.1	win	2022-12-14	18:09:18	18:11:17	117012	610898813e48dc2864965122	758914142	1	practice_z	5	advance_on_keypress_ZEE	8	stimuli_target_diamondsquares.svg	stimuli_distractor_diamondtriangles.svg	3	yes	57	0	394
6.6.1	win	2022-12-14	18:09:18	18:11:21	121060	610898813e48dc2864965122	758914142	1	practice_z	5	practice_z	9	stimuli_target_circlediamonds.svg	stimuli_distractor_trianglediamonds.svg	4	yes	0	0	2000
6.6.1	win	2022-12-14	18:09:18	18:11:21	121060	610898813e48dc2864965122	758914142	1	practice_z	5	advance_on_keypress_ZEE	10	stimuli_target_circlediamonds.svg	stimuli_distractor_trianglediamonds.svg	4	yes	57	0	363
6.6.1	win	2022-12-14	18:09:18	18:11:24	123844	610898813e48dc2864965122	758914142	1	practice_z	5	practice_z	11	stimuli_target_squarediamonds.svg	stimuli_distractor_trianglediamonds.svg	5	yes	44	1	769
6.6.1	win	2022-12-14	18:09:18	18:11:24	123844	610898813e48dc2864965122	758914142	1	practice_z	5	advance_on_keypress_ZEE	12	stimuli_target_squarediamonds.svg	stimuli_distractor_trianglediamonds.svg	5	yes	57	0	410
6.6.1	win	2022-12-14	18:09:18	18:11:28	127901	610898813e48dc2864965122	758914142	1	practice_z	5	practice_z	13	stimuli_distractor_trianglediamonds.svg	stimuli_distractor_diamondtriangles.svg	16	no	0	1	2000
6.6.1	win	2022-12-14	18:09:18	18:11:28	127901	610898813e48dc2864965122	758914142	1	practice_z	5	advance_on_keypress_ZEE	14	stimuli_distractor_trianglediamonds.svg	stimuli_distractor_diamondtriangles.svg	16	no	57	0	378
6.6.1	win	2022-12-14	18:09:18	18:11:31	130852	610898813e48dc2864965122	758914142	1	practice_z	5	practice_z	15	stimuli_distractor_diamondtriangles.svg	stimuli_target_circletriangles.svg	7	yes	44	1	920
6.6.1	win	2022-12-14	18:09:18	18:11:31	130852	610898813e48dc2864965122	758914142	1	practice_z	5	advance_on_keypress_ZEE	16	stimuli_distractor_diamondtriangles.svg	stimuli_target_circletriangles.svg	7	yes	57	0	266
6.6.1	win	2022-12-14	18:09:18	18:11:34	133700	610898813e48dc2864965122	758914142	1	practice_z	5	practice_z	17	stimuli_distractor_trianglediamonds.svg	stimuli_target_squarediamonds.svg	11	yes	44	1	925
6.6.1	win	2022-12-14	18:09:18	18:11:34	133700	610898813e48dc2864965122	758914142	1	practice_z	5	advance_on_keypress_ZEE	18	stimuli_distractor_trianglediamonds.svg	stimuli_target_squarediamonds.svg	11	yes	57	0	118
6.6.1	win	2022-12-14	18:09:18	18:11:37	137472	610898813e48dc2864965122	758914142	1	practice_z	5	practice_z	19	stimuli_distractor_diamondtriangles.svg	stimuli_distractor_trianglediamonds.svg	14	no	0	1	2000
6.6.1	win	2022-12-14	18:09:18	18:11:37	137472	610898813e48dc2864965122	758914142	1	practice_z	5	advance_on_keypress_ZEE	20	stimuli_distractor_diamondtriangles.svg	stimuli_distractor_trianglediamonds.svg	14	no	57	0	379
6.6.1	win	2022-12-14	18:09:18	18:11:40	140373	610898813e48dc2864965122	758914142	1	practice_z	5	practice_z	21	stimuli_distractor_trianglediamonds.svg	stimuli_target_circlediamonds.svg	10	yes	44	1	873
6.6.1	win	2022-12-14	18:09:18	18:11:40	140373	610898813e48dc2864965122	758914142	1	practice_z	5	advance_on_keypress_ZEE	22	stimuli_distractor_trianglediamonds.svg	stimuli_target_circlediamonds.svg	10	yes	57	0	285
6.6.1	win	2022-12-14	18:09:18	18:11:44	144311	610898813e48dc2864965122	758914142	1	practice_z	5	practice_z	23	stimuli_distractor_diamondtriangles.svg	stimuli_distractor_diamondtriangles.svg	13	no	0	1	2000
6.6.1	win	2022-12-14	18:09:18	18:11:44	144311	610898813e48dc2864965122	758914142	1	practice_z	5	advance_on_keypress_ZEE	24	stimuli_distractor_diamondtriangles.svg	stimuli_distractor_diamondtriangles.svg	13	no	57	0	291
6.6.1	win	2022-12-14	18:09:18	18:11:47	147230	610898813e48dc2864965122	758914142	1	practice_z	5	practice_z	25	stimuli_target_diamondsquares.svg	stimuli_distractor_trianglediamonds.svg	6	yes	44	1	989
6.6.1	win	2022-12-14	18:09:18	18:11:47	147230	610898813e48dc2864965122	758914142	1	practice_z	5	advance_on_keypress_ZEE	26	stimuli_target_diamondsquares.svg	stimuli_distractor_trianglediamonds.svg	6	yes	57	0	252
6.6.1	win	2022-12-14	18:09:18	18:11:50	150004	610898813e48dc2864965122	758914142	1	practice_z	5	practice_z	27	stimuli_target_circlediamonds.svg	stimuli_distractor_diamondtriangles.svg	1	yes	44	1	872
6.6.1	win	2022-12-14	18:09:18	18:11:50	150004	610898813e48dc2864965122	758914142	1	practice_z	5	advance_on_keypress_ZEE	28	stimuli_target_circlediamonds.svg	stimuli_distractor_diamondtriangles.svg	1	yes	57	0	211
6.6.1	win	2022-12-14	18:09:18	18:11:53	152832	610898813e48dc2864965122	758914142	1	practice_z	5	practice_z	29	stimuli_distractor_diamondtriangles.svg	stimuli_target_trianglecircles.svg	9	yes	44	1	953
6.6.1	win	2022-12-14	18:09:18	18:11:53	152832	610898813e48dc2864965122	758914142	1	practice_z	5	advance_on_keypress_ZEE	30	stimuli_distractor_diamondtriangles.svg	stimuli_target_trianglecircles.svg	9	yes	57	0	25
6.6.1	win	2022-12-14	18:09:18	18:11:55	155244	610898813e48dc2864965122	758914142	1	practice_z	5	practice_z	31	stimuli_distractor_diamondtriangles.svg	stimuli_target_diamondcircles.svg	8	yes	44	1	743
6.6.1	win	2022-12-14	18:09:18	18:11:55	155244	610898813e48dc2864965122	758914142	1	practice_z	5	advance_on_keypress_ZEE	32	stimuli_distractor_diamondtriangles.svg	stimuli_target_diamondcircles.svg	8	yes	57	0	240
6.6.1	win	2022-12-14	18:09:18	18:12:04	163859	610898813e48dc2864965122	758914142	1	main_z	7	main_z	1	stimuli_target_diamondsquares.svg	stimuli_distractor_diamondtriangles.svg	24	yes	44	1	875
6.6.1	win	2022-12-14	18:09:18	18:12:04	163859	610898813e48dc2864965122	758914142	1	main_z	7	advance_on_keypress_ZEE	2	stimuli_target_diamondsquares.svg	stimuli_distractor_diamondtriangles.svg	24	yes	57	0	435
6.6.1	win	2022-12-14	18:09:18	18:12:06	165874	610898813e48dc2864965122	758914142	1	main_z	7	main_z	3	stimuli_target_circlediamonds.svg	stimuli_distractor_diamondtriangles.svg	6	yes	44	1	935
6.6.1	win	2022-12-14	18:09:18	18:12:06	165874	610898813e48dc2864965122	758914142	1	main_z	7	advance_on_keypress_ZEE	4	stimuli_target_circlediamonds.svg	stimuli_distractor_diamondtriangles.svg	6	yes	57	0	428
6.6.1	win	2022-12-14	18:09:18	18:12:08	167723	610898813e48dc2864965122	758914142	1	main_z	7	main_z	5	stimuli_distractor_diamondtriangles.svg	stimuli_target_circletriangles.svg	13	yes	44	1	792
6.6.1	win	2022-12-14	18:09:18	18:12:08	167723	610898813e48dc2864965122	758914142	1	main_z	7	advance_on_keypress_ZEE	6	stimuli_distractor_diamondtriangles.svg	stimuli_target_circletriangles.svg	13	yes	57	0	355
6.6.1	win	2022-12-14	18:09:18	18:12:10	169658	610898813e48dc2864965122	758914142	1	main_z	7	main_z	7	stimuli_distractor_trianglediamonds.svg	stimuli_target_trianglecircles.svg	25	yes	44	1	939
6.6.1	win	2022-12-14	18:09:18	18:12:10	169658	610898813e48dc2864965122	758914142	1	main_z	7	advance_on_keypress_ZEE	8	stimuli_distractor_trianglediamonds.svg	stimuli_target_trianglecircles.svg	25	yes	57	0	368
6.6.1	win	2022-12-14	18:09:18	18:12:11	171531	610898813e48dc2864965122	758914142	1	main_z	7	main_z	9	stimuli_distractor_trianglediamonds.svg	stimuli_target_diamondsquares.svg	28	yes	44	1	854
6.6.1	win	2022-12-14	18:09:18	18:12:11	171531	610898813e48dc2864965122	758914142	1	main_z	7	advance_on_keypress_ZEE	10	stimuli_distractor_trianglediamonds.svg	stimuli_target_diamondsquares.svg	28	yes	57	0	334
6.6.1	win	2022-12-14	18:09:18	18:12:13	173348	610898813e48dc2864965122	758914142	1	main_z	7	main_z	11	stimuli_target_trianglecircles.svg	stimuli_distractor_diamondtriangles.svg	21	yes	44	1	830
6.6.1	win	2022-12-14	18:09:18	18:12:13	173348	610898813e48dc2864965122	758914142	1	main_z	7	advance_on_keypress_ZEE	12	stimuli_target_trianglecircles.svg	stimuli_distractor_diamondtriangles.svg	21	yes	57	0	327
6.6.1	win	2022-12-14	18:09:18	18:12:15	175275	610898813e48dc2864965122	758914142	1	main_z	7	main_z	13	stimuli_distractor_trianglediamonds.svg	stimuli_target_squaretriangles.svg	11	yes	44	1	952
6.6.1	win	2022-12-14	18:09:18	18:12:15	175275	610898813e48dc2864965122	758914142	1	main_z	7	advance_on_keypress_ZEE	14	stimuli_distractor_trianglediamonds.svg	stimuli_target_squaretriangles.svg	11	yes	57	0	379
6.6.1	win	2022-12-14	18:09:18	18:12:17	177132	610898813e48dc2864965122	758914142	1	main_z	7	main_z	15	stimuli_distractor_diamondtriangles.svg	stimuli_target_trianglesquares.svg	30	yes	44	1	834
6.6.1	win	2022-12-14	18:09:18	18:12:17	177132	610898813e48dc2864965122	758914142	1	main_z	7	advance_on_keypress_ZEE	16	stimuli_distractor_diamondtriangles.svg	stimuli_target_trianglesquares.svg	30	yes	57	0	299
6.6.1	win	2022-12-14	18:09:18	18:12:19	178891	610898813e48dc2864965122	758914142	1	main_z	7	main_z	17	stimuli_target_circletriangles.svg	stimuli_distractor_diamondtriangles.svg	5	yes	44	1	804
6.6.1	win	2022-12-14	18:09:18	18:12:19	178891	610898813e48dc2864965122	758914142	1	main_z	7	advance_on_keypress_ZEE	18	stimuli_target_circletriangles.svg	stimuli_distractor_diamondtriangles.svg	5	yes	57	0	327
6.6.1	win	2022-12-14	18:09:18	18:12:21	180651	610898813e48dc2864965122	758914142	1	main_z	7	main_z	19	stimuli_distractor_trianglediamonds.svg	stimuli_target_diamondcircles.svg	27	yes	44	1	792
6.6.1	win	2022-12-14	18:09:18	18:12:21	180651	610898813e48dc2864965122	758914142	1	main_z	7	advance_on_keypress_ZEE	20	stimuli_distractor_trianglediamonds.svg	stimuli_target_diamondcircles.svg	27	yes	57	0	307
6.6.1	win	2022-12-14	18:09:18	18:12:22	182451	610898813e48dc2864965122	758914142	1	main_z	7	main_z	21	stimuli_target_squaretriangles.svg	stimuli_distractor_diamondtriangles.svg	7	yes	44	1	852
6.6.1	win	2022-12-14	18:09:18	18:12:22	182451	610898813e48dc2864965122	758914142	1	main_z	7	advance_on_keypress_ZEE	22	stimuli_target_squaretriangles.svg	stimuli_distractor_diamondtriangles.svg	7	yes	57	0	356
6.6.1	win	2022-12-14	18:09:18	18:12:24	184468	610898813e48dc2864965122	758914142	1	main_z	7	main_z	23	stimuli_target_trianglesquares.svg	stimuli_distractor_trianglediamonds.svg	18	yes	44	1	1012
6.6.1	win	2022-12-14	18:09:18	18:12:24	184468	610898813e48dc2864965122	758914142	1	main_z	7	advance_on_keypress_ZEE	24	stimuli_target_trianglesquares.svg	stimuli_distractor_trianglediamonds.svg	18	yes	57	0	301
6.6.1	win	2022-12-14	18:09:18	18:12:26	186218	610898813e48dc2864965122	758914142	1	main_z	7	main_z	25	stimuli_target_circlediamonds.svg	stimuli_distractor_trianglediamonds.svg	2	yes	44	1	807
6.6.1	win	2022-12-14	18:09:18	18:12:26	186218	610898813e48dc2864965122	758914142	1	main_z	7	advance_on_keypress_ZEE	26	stimuli_target_circlediamonds.svg	stimuli_distractor_trianglediamonds.svg	2	yes	57	0	313
6.6.1	win	2022-12-14	18:09:18	18:12:28	188052	610898813e48dc2864965122	758914142	1	main_z	7	main_z	27	stimuli_target_squaretriangles.svg	stimuli_distractor_trianglediamonds.svg	3	yes	44	1	884
6.6.1	win	2022-12-14	18:09:18	18:12:28	188052	610898813e48dc2864965122	758914142	1	main_z	7	advance_on_keypress_ZEE	28	stimuli_target_squaretriangles.svg	stimuli_distractor_trianglediamonds.svg	3	yes	57	0	434
6.6.1	win	2022-12-14	18:09:18	18:12:31	191125	610898813e48dc2864965122	758914142	1	main_z	7	main_z	29	stimuli_distractor_trianglediamonds.svg	stimuli_distractor_diamondtriangles.svg	36	no	0	1	2000
6.6.1	win	2022-12-14	18:09:18	18:12:31	191125	610898813e48dc2864965122	758914142	1	main_z	7	advance_on_keypress_ZEE	30	stimuli_distractor_trianglediamonds.svg	stimuli_distractor_diamondtriangles.svg	36	no	57	0	444
6.6.1	win	2022-12-14	18:09:18	18:12:33	192990	610898813e48dc2864965122	758914142	1	main_z	7	main_z	31	stimuli_distractor_diamondtriangles.svg	stimuli_target_squaretriangles.svg	15	yes	44	1	768
6.6.1	win	2022-12-14	18:09:18	18:12:33	192990	610898813e48dc2864965122	758914142	1	main_z	7	advance_on_keypress_ZEE	32	stimuli_distractor_diamondtriangles.svg	stimuli_target_squaretriangles.svg	15	yes	57	0	316
6.6.1	win	2022-12-14	18:09:18	18:12:35	194779	610898813e48dc2864965122	758914142	1	main_z	7	main_z	33	stimuli_distractor_diamondtriangles.svg	stimuli_target_circlediamonds.svg	14	yes	44	1	820
6.6.1	win	2022-12-14	18:09:18	18:12:35	194779	610898813e48dc2864965122	758914142	1	main_z	7	advance_on_keypress_ZEE	34	stimuli_distractor_diamondtriangles.svg	stimuli_target_circlediamonds.svg	14	yes	57	0	318
6.6.1	win	2022-12-14	18:09:18	18:12:38	197750	610898813e48dc2864965122	758914142	1	main_z	7	main_z	35	stimuli_distractor_diamondtriangles.svg	stimuli_distractor_trianglediamonds.svg	38	no	0	1	2000
6.6.1	win	2022-12-14	18:09:18	18:12:38	197750	610898813e48dc2864965122	758914142	1	main_z	7	advance_on_keypress_ZEE	36	stimuli_distractor_diamondtriangles.svg	stimuli_distractor_trianglediamonds.svg	38	no	57	0	389
6.6.1	win	2022-12-14	18:09:18	18:12:39	199611	610898813e48dc2864965122	758914142	1	main_z	7	main_z	37	stimuli_target_squarediamonds.svg	stimuli_distractor_diamondtriangles.svg	8	yes	44	1	835
6.6.1	win	2022-12-14	18:09:18	18:12:39	199611	610898813e48dc2864965122	758914142	1	main_z	7	advance_on_keypress_ZEE	38	stimuli_target_squarediamonds.svg	stimuli_distractor_diamondtriangles.svg	8	yes	57	0	180
6.6.1	win	2022-12-14	18:09:18	18:12:41	201314	610898813e48dc2864965122	758914142	1	main_z	7	main_z	39	stimuli_distractor_diamondtriangles.svg	stimuli_target_diamondcircles.svg	31	yes	44	1	867
6.6.1	win	2022-12-14	18:09:18	18:12:41	201314	610898813e48dc2864965122	758914142	1	main_z	7	advance_on_keypress_ZEE	40	stimuli_distractor_diamondtriangles.svg	stimuli_target_diamondcircles.svg	31	yes	57	0	363
6.6.1	win	2022-12-14	18:09:18	18:12:43	203162	610898813e48dc2864965122	758914142	1	main_z	7	main_z	41	stimuli_target_squarediamonds.svg	stimuli_distractor_trianglediamonds.svg	4	yes	44	1	842
6.6.1	win	2022-12-14	18:09:18	18:12:43	203162	610898813e48dc2864965122	758914142	1	main_z	7	advance_on_keypress_ZEE	42	stimuli_target_squarediamonds.svg	stimuli_distractor_trianglediamonds.svg	4	yes	57	0	274
6.6.1	win	2022-12-14	18:09:18	18:12:45	205322	610898813e48dc2864965122	758914142	1	main_z	7	main_z	43	stimuli_distractor_diamondtriangles.svg	stimuli_distractor_diamondtriangles.svg	40	no	44	0	1245
6.6.1	win	2022-12-14	18:09:18	18:12:45	205322	610898813e48dc2864965122	758914142	1	main_z	7	advance_on_keypress_ZEE	44	stimuli_distractor_diamondtriangles.svg	stimuli_distractor_diamondtriangles.svg	40	no	57	0	461
6.6.1	win	2022-12-14	18:09:18	18:12:47	207298	610898813e48dc2864965122	758914142	1	main_z	7	main_z	45	stimuli_distractor_diamondtriangles.svg	stimuli_target_diamondsquares.svg	32	yes	44	1	880
6.6.1	win	2022-12-14	18:09:18	18:12:47	207298	610898813e48dc2864965122	758914142	1	main_z	7	advance_on_keypress_ZEE	46	stimuli_distractor_diamondtriangles.svg	stimuli_target_diamondsquares.svg	32	yes	57	0	271
6.6.1	win	2022-12-14	18:09:18	18:12:50	210210	610898813e48dc2864965122	758914142	1	main_z	7	main_z	47	stimuli_distractor_trianglediamonds.svg	stimuli_distractor_trianglediamonds.svg	33	no	0	1	2000
6.6.1	win	2022-12-14	18:09:18	18:12:50	210210	610898813e48dc2864965122	758914142	1	main_z	7	advance_on_keypress_ZEE	48	stimuli_distractor_trianglediamonds.svg	stimuli_distractor_trianglediamonds.svg	33	no	57	0	289
6.6.1	win	2022-12-14	18:09:18	18:12:53	213135	610898813e48dc2864965122	758914142	1	main_z	7	main_z	49	stimuli_distractor_trianglediamonds.svg	stimuli_distractor_trianglediamonds.svg	34	no	0	1	2000
6.6.1	win	2022-12-14	18:09:18	18:12:53	213135	610898813e48dc2864965122	758914142	1	main_z	7	advance_on_keypress_ZEE	50	stimuli_distractor_trianglediamonds.svg	stimuli_distractor_trianglediamonds.svg	34	no	57	0	386
6.6.1	win	2022-12-14	18:09:18	18:12:55	214978	610898813e48dc2864965122	758914142	1	main_z	7	main_z	51	stimuli_target_trianglecircles.svg	stimuli_distractor_trianglediamonds.svg	17	yes	44	1	816
6.6.1	win	2022-12-14	18:09:18	18:12:55	214978	610898813e48dc2864965122	758914142	1	main_z	7	advance_on_keypress_ZEE	52	stimuli_target_trianglecircles.svg	stimuli_distractor_trianglediamonds.svg	17	yes	57	0	338
6.6.1	win	2022-12-14	18:09:18	18:12:57	216819	610898813e48dc2864965122	758914142	1	main_z	7	main_z	53	stimuli_distractor_diamondtriangles.svg	stimuli_target_squarediamonds.svg	16	yes	44	1	866
6.6.1	win	2022-12-14	18:09:18	18:12:57	216819	610898813e48dc2864965122	758914142	1	main_z	7	advance_on_keypress_ZEE	54	stimuli_distractor_diamondtriangles.svg	stimuli_target_squarediamonds.svg	16	yes	57	0	274
6.6.1	win	2022-12-14	18:09:18	18:12:58	218547	610898813e48dc2864965122	758914142	1	main_z	7	main_z	55	stimuli_distractor_trianglediamonds.svg	stimuli_target_trianglesquares.svg	26	yes	44	1	822
6.6.1	win	2022-12-14	18:09:18	18:12:58	218547	610898813e48dc2864965122	758914142	1	main_z	7	advance_on_keypress_ZEE	56	stimuli_distractor_trianglediamonds.svg	stimuli_target_trianglesquares.svg	26	yes	57	0	255
6.6.1	win	2022-12-14	18:09:18	18:13:00	220387	610898813e48dc2864965122	758914142	1	main_z	7	main_z	57	stimuli_target_trianglesquares.svg	stimuli_distractor_diamondtriangles.svg	22	yes	44	1	939
6.6.1	win	2022-12-14	18:09:18	18:13:00	220387	610898813e48dc2864965122	758914142	1	main_z	7	advance_on_keypress_ZEE	58	stimuli_target_trianglesquares.svg	stimuli_distractor_diamondtriangles.svg	22	yes	57	0	247
6.6.1	win	2022-12-14	18:09:18	18:13:02	222252	610898813e48dc2864965122	758914142	1	main_z	7	main_z	59	stimuli_distractor_trianglediamonds.svg	stimuli_target_squarediamonds.svg	12	yes	44	1	963
6.6.1	win	2022-12-14	18:09:18	18:13:02	222252	610898813e48dc2864965122	758914142	1	main_z	7	advance_on_keypress_ZEE	60	stimuli_distractor_trianglediamonds.svg	stimuli_target_squarediamonds.svg	12	yes	57	0	248
6.6.1	win	2022-12-14	18:09:18	18:13:04	223978	610898813e48dc2864965122	758914142	1	main_z	7	main_z	61	stimuli_target_circletriangles.svg	stimuli_distractor_trianglediamonds.svg	1	yes	44	1	834
6.6.1	win	2022-12-14	18:09:18	18:13:04	223978	610898813e48dc2864965122	758914142	1	main_z	7	advance_on_keypress_ZEE	62	stimuli_target_circletriangles.svg	stimuli_distractor_trianglediamonds.svg	1	yes	57	0	243
6.6.1	win	2022-12-14	18:09:18	18:13:06	225715	610898813e48dc2864965122	758914142	1	main_z	7	main_z	63	stimuli_target_diamondcircles.svg	stimuli_distractor_diamondtriangles.svg	23	yes	44	1	832
6.6.1	win	2022-12-14	18:09:18	18:13:06	225715	610898813e48dc2864965122	758914142	1	main_z	7	advance_on_keypress_ZEE	64	stimuli_target_diamondcircles.svg	stimuli_distractor_diamondtriangles.svg	23	yes	57	0	257
6.6.1	win	2022-12-14	18:09:18	18:13:07	227251	610898813e48dc2864965122	758914142	1	main_z	7	main_z	65	stimuli_distractor_diamondtriangles.svg	stimuli_target_trianglecircles.svg	29	yes	44	1	644
6.6.1	win	2022-12-14	18:09:18	18:13:07	227251	610898813e48dc2864965122	758914142	1	main_z	7	advance_on_keypress_ZEE	66	stimuli_distractor_diamondtriangles.svg	stimuli_target_trianglecircles.svg	29	yes	57	0	286
6.6.1	win	2022-12-14	18:09:18	18:13:09	228891	610898813e48dc2864965122	758914142	1	main_z	7	main_z	67	stimuli_target_diamondcircles.svg	stimuli_distractor_trianglediamonds.svg	19	yes	44	1	712
6.6.1	win	2022-12-14	18:09:18	18:13:09	228891	610898813e48dc2864965122	758914142	1	main_z	7	advance_on_keypress_ZEE	68	stimuli_target_diamondcircles.svg	stimuli_distractor_trianglediamonds.svg	19	yes	57	0	263
6.6.1	win	2022-12-14	18:09:18	18:13:10	230555	610898813e48dc2864965122	758914142	1	main_z	7	main_z	69	stimuli_distractor_trianglediamonds.svg	stimuli_target_circlediamonds.svg	10	yes	44	1	754
6.6.1	win	2022-12-14	18:09:18	18:13:10	230555	610898813e48dc2864965122	758914142	1	main_z	7	advance_on_keypress_ZEE	70	stimuli_distractor_trianglediamonds.svg	stimuli_target_circlediamonds.svg	10	yes	57	0	294
6.6.1	win	2022-12-14	18:09:18	18:13:13	233508	610898813e48dc2864965122	758914142	1	main_z	7	main_z	71	stimuli_distractor_diamondtriangles.svg	stimuli_distractor_diamondtriangles.svg	39	no	0	1	2000
6.6.1	win	2022-12-14	18:09:18	18:13:13	233508	610898813e48dc2864965122	758914142	1	main_z	7	advance_on_keypress_ZEE	72	stimuli_distractor_diamondtriangles.svg	stimuli_distractor_diamondtriangles.svg	39	no	57	0	406
6.6.1	win	2022-12-14	18:09:18	18:13:15	235388	610898813e48dc2864965122	758914142	1	main_z	7	main_z	73	stimuli_distractor_trianglediamonds.svg	stimuli_distractor_diamondtriangles.svg	35	no	44	0	836
6.6.1	win	2022-12-14	18:09:18	18:13:15	235388	610898813e48dc2864965122	758914142	1	main_z	7	advance_on_keypress_ZEE	74	stimuli_distractor_trianglediamonds.svg	stimuli_distractor_diamondtriangles.svg	35	no	57	0	397
6.6.1	win	2022-12-14	18:09:18	18:13:17	237179	610898813e48dc2864965122	758914142	1	main_z	7	main_z	75	stimuli_distractor_trianglediamonds.svg	stimuli_target_circletriangles.svg	9	yes	44	1	738
6.6.1	win	2022-12-14	18:09:18	18:13:17	237179	610898813e48dc2864965122	758914142	1	main_z	7	advance_on_keypress_ZEE	76	stimuli_distractor_trianglediamonds.svg	stimuli_target_circletriangles.svg	9	yes	57	0	239
6.6.1	win	2022-12-14	18:09:18	18:13:19	238818	610898813e48dc2864965122	758914142	1	main_z	7	main_z	77	stimuli_target_diamondsquares.svg	stimuli_distractor_trianglediamonds.svg	20	yes	44	1	756
6.6.1	win	2022-12-14	18:09:18	18:13:19	238818	610898813e48dc2864965122	758914142	1	main_z	7	advance_on_keypress_ZEE	78	stimuli_target_diamondsquares.svg	stimuli_distractor_trianglediamonds.svg	20	yes	57	0	320
6.6.1	win	2022-12-14	18:09:18	18:13:22	241786	610898813e48dc2864965122	758914142	1	main_z	7	main_z	79	stimuli_distractor_diamondtriangles.svg	stimuli_distractor_trianglediamonds.svg	37	no	0	1	2000
6.6.1	win	2022-12-14	18:09:18	18:13:22	241786	610898813e48dc2864965122	758914142	1	main_z	7	advance_on_keypress_ZEE	80	stimuli_distractor_diamondtriangles.svg	stimuli_distractor_trianglediamonds.svg	37	no	57	0	448
6.6.1	win	2022-12-14	18:09:18	18:13:23	243315	610898813e48dc2864965122	758914142	1	main_z	7	main_z	81	stimuli_target_trianglecircles.svg	stimuli_distractor_trianglediamonds.svg	17	yes	44	1	435
6.6.1	win	2022-12-14	18:09:18	18:13:23	243315	610898813e48dc2864965122	758914142	1	main_z	7	advance_on_keypress_ZEE	82	stimuli_target_trianglecircles.svg	stimuli_distractor_trianglediamonds.svg	17	yes	57	0	253
6.6.1	win	2022-12-14	18:09:18	18:13:26	246217	610898813e48dc2864965122	758914142	1	main_z	7	main_z	83	stimuli_distractor_trianglediamonds.svg	stimuli_target_squarediamonds.svg	12	yes	0	0	2000
6.6.1	win	2022-12-14	18:09:18	18:13:26	246217	610898813e48dc2864965122	758914142	1	main_z	7	advance_on_keypress_ZEE	84	stimuli_distractor_trianglediamonds.svg	stimuli_target_squarediamonds.svg	12	yes	57	0	415
6.6.1	win	2022-12-14	18:09:18	18:13:28	247987	610898813e48dc2864965122	758914142	1	main_z	7	main_z	85	stimuli_distractor_diamondtriangles.svg	stimuli_target_diamondcircles.svg	31	yes	44	1	708
6.6.1	win	2022-12-14	18:09:18	18:13:28	247987	610898813e48dc2864965122	758914142	1	main_z	7	advance_on_keypress_ZEE	86	stimuli_distractor_diamondtriangles.svg	stimuli_target_diamondcircles.svg	31	yes	57	0	179
6.6.1	win	2022-12-14	18:09:18	18:13:29	249354	610898813e48dc2864965122	758914142	1	main_z	7	main_z	87	stimuli_distractor_diamondtriangles.svg	stimuli_target_trianglesquares.svg	30	yes	44	1	554
6.6.1	win	2022-12-14	18:09:18	18:13:29	249354	610898813e48dc2864965122	758914142	1	main_z	7	advance_on_keypress_ZEE	88	stimuli_distractor_diamondtriangles.svg	stimuli_target_trianglesquares.svg	30	yes	57	0	167
6.6.1	win	2022-12-14	18:09:18	18:13:30	250559	610898813e48dc2864965122	758914142	1	main_z	7	main_z	89	stimuli_distractor_trianglediamonds.svg	stimuli_target_trianglecircles.svg	25	yes	44	1	374
6.6.1	win	2022-12-14	18:09:18	18:13:30	250559	610898813e48dc2864965122	758914142	1	main_z	7	advance_on_keypress_ZEE	90	stimuli_distractor_trianglediamonds.svg	stimuli_target_trianglecircles.svg	25	yes	57	0	179
6.6.1	win	2022-12-14	18:09:18	18:13:32	251858	610898813e48dc2864965122	758914142	1	main_z	7	main_z	91	stimuli_distractor_diamondtriangles.svg	stimuli_target_trianglecircles.svg	29	yes	44	1	482
6.6.1	win	2022-12-14	18:09:18	18:13:32	251858	610898813e48dc2864965122	758914142	1	main_z	7	advance_on_keypress_ZEE	92	stimuli_distractor_diamondtriangles.svg	stimuli_target_trianglecircles.svg	29	yes	57	0	155
6.6.1	win	2022-12-14	18:09:18	18:13:33	253122	610898813e48dc2864965122	758914142	1	main_z	7	main_z	93	stimuli_target_trianglesquares.svg	stimuli_distractor_trianglediamonds.svg	18	yes	44	1	475
6.6.1	win	2022-12-14	18:09:18	18:13:33	253122	610898813e48dc2864965122	758914142	1	main_z	7	advance_on_keypress_ZEE	94	stimuli_target_trianglesquares.svg	stimuli_distractor_trianglediamonds.svg	18	yes	57	0	180
6.6.1	win	2022-12-14	18:09:18	18:13:35	254658	610898813e48dc2864965122	758914142	1	main_z	7	main_z	95	stimuli_distractor_trianglediamonds.svg	stimuli_target_circlediamonds.svg	10	yes	44	1	706
6.6.1	win	2022-12-14	18:09:18	18:13:35	254658	610898813e48dc2864965122	758914142	1	main_z	7	advance_on_keypress_ZEE	96	stimuli_distractor_trianglediamonds.svg	stimuli_target_circlediamonds.svg	10	yes	57	0	209
6.6.1	win	2022-12-14	18:09:18	18:13:36	255978	610898813e48dc2864965122	758914142	1	main_z	7	main_z	97	stimuli_target_trianglesquares.svg	stimuli_distractor_diamondtriangles.svg	22	yes	44	1	471
6.6.1	win	2022-12-14	18:09:18	18:13:36	255978	610898813e48dc2864965122	758914142	1	main_z	7	advance_on_keypress_ZEE	98	stimuli_target_trianglesquares.svg	stimuli_distractor_diamondtriangles.svg	22	yes	57	0	216
6.6.1	win	2022-12-14	18:09:18	18:13:39	258846	610898813e48dc2864965122	758914142	1	main_z	7	main_z	99	stimuli_distractor_trianglediamonds.svg	stimuli_distractor_trianglediamonds.svg	34	no	0	1	2000
6.6.1	win	2022-12-14	18:09:18	18:13:39	258846	610898813e48dc2864965122	758914142	1	main_z	7	advance_on_keypress_ZEE	100	stimuli_distractor_trianglediamonds.svg	stimuli_distractor_trianglediamonds.svg	34	no	57	0	2116
6.6.1	win	2022-12-14	18:09:18	18:13:42	261988	610898813e48dc2864965122	758914142	1	main_z	7	main_z	101	stimuli_distractor_diamondtriangles.svg	stimuli_distractor_diamondtriangles.svg	40	no	44	0	391
6.6.1	win	2022-12-14	18:09:18	18:13:42	261988	610898813e48dc2864965122	758914142	1	main_z	7	advance_on_keypress_ZEE	102	stimuli_distractor_diamondtriangles.svg	stimuli_distractor_diamondtriangles.svg	40	no	57	0	532
6.6.1	win	2022-12-14	18:09:18	18:13:44	263947	610898813e48dc2864965122	758914142	1	main_z	7	main_z	103	stimuli_target_circlediamonds.svg	stimuli_distractor_trianglediamonds.svg	2	yes	44	1	778
6.6.1	win	2022-12-14	18:09:18	18:13:44	263947	610898813e48dc2864965122	758914142	1	main_z	7	advance_on_keypress_ZEE	104	stimuli_target_circlediamonds.svg	stimuli_distractor_trianglediamonds.svg	2	yes	57	0	214
6.6.1	win	2022-12-14	18:09:18	18:13:47	266807	610898813e48dc2864965122	758914142	1	main_z	7	main_z	105	stimuli_distractor_diamondtriangles.svg	stimuli_distractor_trianglediamonds.svg	37	no	0	1	2000
6.6.1	win	2022-12-14	18:09:18	18:13:47	266807	610898813e48dc2864965122	758914142	1	main_z	7	advance_on_keypress_ZEE	106	stimuli_distractor_diamondtriangles.svg	stimuli_distractor_trianglediamonds.svg	37	no	57	0	282
6.6.1	win	2022-12-14	18:09:18	18:13:50	269733	610898813e48dc2864965122	758914142	1	main_z	7	main_z	107	stimuli_distractor_trianglediamonds.svg	stimuli_target_diamondsquares.svg	28	yes	0	0	2000
6.6.1	win	2022-12-14	18:09:18	18:13:50	269733	610898813e48dc2864965122	758914142	1	main_z	7	advance_on_keypress_ZEE	108	stimuli_distractor_trianglediamonds.svg	stimuli_target_diamondsquares.svg	28	yes	57	0	316
6.6.1	win	2022-12-14	18:09:18	18:13:51	271091	610898813e48dc2864965122	758914142	1	main_z	7	main_z	109	stimuli_distractor_trianglediamonds.svg	stimuli_target_trianglesquares.svg	26	yes	44	1	397
6.6.1	win	2022-12-14	18:09:18	18:13:51	271091	610898813e48dc2864965122	758914142	1	main_z	7	advance_on_keypress_ZEE	110	stimuli_distractor_trianglediamonds.svg	stimuli_target_trianglesquares.svg	26	yes	57	0	241
6.6.1	win	2022-12-14	18:09:18	18:13:52	272351	610898813e48dc2864965122	758914142	1	main_z	7	main_z	111	stimuli_target_diamondcircles.svg	stimuli_distractor_trianglediamonds.svg	19	yes	44	1	373
6.6.1	win	2022-12-14	18:09:18	18:13:52	272351	610898813e48dc2864965122	758914142	1	main_z	7	advance_on_keypress_ZEE	112	stimuli_target_diamondcircles.svg	stimuli_distractor_trianglediamonds.svg	19	yes	57	0	154
6.6.1	win	2022-12-14	18:09:18	18:13:53	273602	610898813e48dc2864965122	758914142	1	main_z	7	main_z	113	stimuli_distractor_diamondtriangles.svg	stimuli_target_circletriangles.svg	13	yes	44	1	450
6.6.1	win	2022-12-14	18:09:18	18:13:53	273602	610898813e48dc2864965122	758914142	1	main_z	7	advance_on_keypress_ZEE	114	stimuli_distractor_diamondtriangles.svg	stimuli_target_circletriangles.svg	13	yes	57	0	123
6.6.1	win	2022-12-14	18:09:18	18:13:55	274794	610898813e48dc2864965122	758914142	1	main_z	7	main_z	115	stimuli_target_squaretriangles.svg	stimuli_distractor_trianglediamonds.svg	3	yes	44	1	421
6.6.1	win	2022-12-14	18:09:18	18:13:55	274794	610898813e48dc2864965122	758914142	1	main_z	7	advance_on_keypress_ZEE	116	stimuli_target_squaretriangles.svg	stimuli_distractor_trianglediamonds.svg	3	yes	57	0	160
6.6.1	win	2022-12-14	18:09:18	18:13:56	276122	610898813e48dc2864965122	758914142	1	main_z	7	main_z	117	stimuli_distractor_trianglediamonds.svg	stimuli_distractor_diamondtriangles.svg	36	no	44	0	528
6.6.1	win	2022-12-14	18:09:18	18:13:56	276122	610898813e48dc2864965122	758914142	1	main_z	7	advance_on_keypress_ZEE	118	stimuli_distractor_trianglediamonds.svg	stimuli_distractor_diamondtriangles.svg	36	no	57	0	231
6.6.1	win	2022-12-14	18:09:18	18:13:58	277652	610898813e48dc2864965122	758914142	1	main_z	7	main_z	119	stimuli_target_squarediamonds.svg	stimuli_distractor_diamondtriangles.svg	8	yes	44	1	651
6.6.1	win	2022-12-14	18:09:18	18:13:58	277652	610898813e48dc2864965122	758914142	1	main_z	7	advance_on_keypress_ZEE	120	stimuli_target_squarediamonds.svg	stimuli_distractor_diamondtriangles.svg	8	yes	57	0	292
6.6.1	win	2022-12-14	18:09:18	18:13:59	279028	610898813e48dc2864965122	758914142	1	main_z	7	main_z	121	stimuli_target_circletriangles.svg	stimuli_distractor_trianglediamonds.svg	1	yes	44	1	438
6.6.1	win	2022-12-14	18:09:18	18:13:59	279028	610898813e48dc2864965122	758914142	1	main_z	7	advance_on_keypress_ZEE	122	stimuli_target_circletriangles.svg	stimuli_distractor_trianglediamonds.svg	1	yes	57	0	176
6.6.1	win	2022-12-14	18:09:18	18:14:00	280282	610898813e48dc2864965122	758914142	1	main_z	7	main_z	123	stimuli_target_circlediamonds.svg	stimuli_distractor_diamondtriangles.svg	6	yes	44	1	440
6.6.1	win	2022-12-14	18:09:18	18:14:00	280282	610898813e48dc2864965122	758914142	1	main_z	7	advance_on_keypress_ZEE	124	stimuli_target_circlediamonds.svg	stimuli_distractor_diamondtriangles.svg	6	yes	57	0	154
6.6.1	win	2022-12-14	18:09:18	18:14:03	283080	610898813e48dc2864965122	758914142	1	main_z	7	main_z	125	stimuli_distractor_diamondtriangles.svg	stimuli_distractor_trianglediamonds.svg	38	no	0	1	2000
6.6.1	win	2022-12-14	18:09:18	18:14:03	283080	610898813e48dc2864965122	758914142	1	main_z	7	advance_on_keypress_ZEE	126	stimuli_distractor_diamondtriangles.svg	stimuli_distractor_trianglediamonds.svg	38	no	57	0	265
6.6.1	win	2022-12-14	18:09:18	18:14:04	284578	610898813e48dc2864965122	758914142	1	main_z	7	main_z	127	stimuli_distractor_diamondtriangles.svg	stimuli_target_squarediamonds.svg	16	yes	44	1	588
6.6.1	win	2022-12-14	18:09:18	18:14:04	284578	610898813e48dc2864965122	758914142	1	main_z	7	advance_on_keypress_ZEE	128	stimuli_distractor_diamondtriangles.svg	stimuli_target_squarediamonds.svg	16	yes	57	0	312
6.6.1	win	2022-12-14	18:09:18	18:14:06	285882	610898813e48dc2864965122	758914142	1	main_z	7	main_z	129	stimuli_distractor_trianglediamonds.svg	stimuli_target_circletriangles.svg	9	yes	44	1	353
6.6.1	win	2022-12-14	18:09:18	18:14:06	285882	610898813e48dc2864965122	758914142	1	main_z	7	advance_on_keypress_ZEE	130	stimuli_distractor_trianglediamonds.svg	stimuli_target_circletriangles.svg	9	yes	57	0	215
6.6.1	win	2022-12-14	18:09:18	18:14:07	287191	610898813e48dc2864965122	758914142	1	main_z	7	main_z	131	stimuli_distractor_trianglediamonds.svg	stimuli_target_diamondcircles.svg	27	yes	44	1	436
6.6.1	win	2022-12-14	18:09:18	18:14:07	287191	610898813e48dc2864965122	758914142	1	main_z	7	advance_on_keypress_ZEE	132	stimuli_distractor_trianglediamonds.svg	stimuli_target_diamondcircles.svg	27	yes	57	0	182
6.6.1	win	2022-12-14	18:09:18	18:14:08	288474	610898813e48dc2864965122	758914142	1	main_z	7	main_z	133	stimuli_target_squaretriangles.svg	stimuli_distractor_diamondtriangles.svg	7	yes	44	1	453
6.6.1	win	2022-12-14	18:09:18	18:14:08	288474	610898813e48dc2864965122	758914142	1	main_z	7	advance_on_keypress_ZEE	134	stimuli_target_squaretriangles.svg	stimuli_distractor_diamondtriangles.svg	7	yes	57	0	175
6.6.1	win	2022-12-14	18:09:18	18:14:11	291292	610898813e48dc2864965122	758914142	1	main_z	7	main_z	135	stimuli_distractor_diamondtriangles.svg	stimuli_distractor_diamondtriangles.svg	39	no	0	1	2000
6.6.1	win	2022-12-14	18:09:18	18:14:11	291292	610898813e48dc2864965122	758914142	1	main_z	7	advance_on_keypress_ZEE	136	stimuli_distractor_diamondtriangles.svg	stimuli_distractor_diamondtriangles.svg	39	no	57	0	421
6.6.1	win	2022-12-14	18:09:18	18:14:13	292875	610898813e48dc2864965122	758914142	1	main_z	7	main_z	137	stimuli_target_diamondsquares.svg	stimuli_distractor_trianglediamonds.svg	20	yes	44	1	521
6.6.1	win	2022-12-14	18:09:18	18:14:13	292875	610898813e48dc2864965122	758914142	1	main_z	7	advance_on_keypress_ZEE	138	stimuli_target_diamondsquares.svg	stimuli_distractor_trianglediamonds.svg	20	yes	57	0	576
6.6.1	win	2022-12-14	18:09:18	18:14:16	296093	610898813e48dc2864965122	758914142	1	main_z	7	main_z	139	stimuli_distractor_trianglediamonds.svg	stimuli_distractor_diamondtriangles.svg	35	no	0	1	2000
6.6.1	win	2022-12-14	18:09:18	18:14:16	296093	610898813e48dc2864965122	758914142	1	main_z	7	advance_on_keypress_ZEE	140	stimuli_distractor_trianglediamonds.svg	stimuli_distractor_diamondtriangles.svg	35	no	57	0	317
6.6.1	win	2022-12-14	18:09:18	18:14:17	297551	610898813e48dc2864965122	758914142	1	main_z	7	main_z	141	stimuli_target_trianglecircles.svg	stimuli_distractor_diamondtriangles.svg	21	yes	44	1	493
6.6.1	win	2022-12-14	18:09:18	18:14:17	297551	610898813e48dc2864965122	758914142	1	main_z	7	advance_on_keypress_ZEE	142	stimuli_target_trianglecircles.svg	stimuli_distractor_diamondtriangles.svg	21	yes	57	0	262
6.6.1	win	2022-12-14	18:09:18	18:14:19	298914	610898813e48dc2864965122	758914142	1	main_z	7	main_z	143	stimuli_distractor_diamondtriangles.svg	stimuli_target_circlediamonds.svg	14	yes	44	1	473
6.6.1	win	2022-12-14	18:09:18	18:14:19	298914	610898813e48dc2864965122	758914142	1	main_z	7	advance_on_keypress_ZEE	144	stimuli_distractor_diamondtriangles.svg	stimuli_target_circlediamonds.svg	14	yes	57	0	226
6.6.1	win	2022-12-14	18:09:18	18:14:21	300774	610898813e48dc2864965122	758914142	1	main_z	7	main_z	145	stimuli_target_diamondsquares.svg	stimuli_distractor_diamondtriangles.svg	24	yes	44	1	992
6.6.1	win	2022-12-14	18:09:18	18:14:21	300774	610898813e48dc2864965122	758914142	1	main_z	7	advance_on_keypress_ZEE	146	stimuli_target_diamondsquares.svg	stimuli_distractor_diamondtriangles.svg	24	yes	57	0	265
6.6.1	win	2022-12-14	18:09:18	18:14:22	302110	610898813e48dc2864965122	758914142	1	main_z	7	main_z	147	stimuli_target_squarediamonds.svg	stimuli_distractor_trianglediamonds.svg	4	yes	44	1	422
6.6.1	win	2022-12-14	18:09:18	18:14:22	302110	610898813e48dc2864965122	758914142	1	main_z	7	advance_on_keypress_ZEE	148	stimuli_target_squarediamonds.svg	stimuli_distractor_trianglediamonds.svg	4	yes	57	0	231
6.6.1	win	2022-12-14	18:09:18	18:14:23	303482	610898813e48dc2864965122	758914142	1	main_z	7	main_z	149	stimuli_distractor_diamondtriangles.svg	stimuli_target_diamondsquares.svg	32	yes	44	1	492
6.6.1	win	2022-12-14	18:09:18	18:14:23	303482	610898813e48dc2864965122	758914142	1	main_z	7	advance_on_keypress_ZEE	150	stimuli_distractor_diamondtriangles.svg	stimuli_target_diamondsquares.svg	32	yes	57	0	292
6.6.1	win	2022-12-14	18:09:18	18:14:25	304851	610898813e48dc2864965122	758914142	1	main_z	7	main_z	151	stimuli_distractor_trianglediamonds.svg	stimuli_target_squaretriangles.svg	11	yes	44	1	438
6.6.1	win	2022-12-14	18:09:18	18:14:25	304851	610898813e48dc2864965122	758914142	1	main_z	7	advance_on_keypress_ZEE	152	stimuli_distractor_trianglediamonds.svg	stimuli_target_squaretriangles.svg	11	yes	57	0	184
6.6.1	win	2022-12-14	18:09:18	18:14:26	306070	610898813e48dc2864965122	758914142	1	main_z	7	main_z	153	stimuli_target_circletriangles.svg	stimuli_distractor_diamondtriangles.svg	5	yes	44	1	371
6.6.1	win	2022-12-14	18:09:18	18:14:26	306070	610898813e48dc2864965122	758914142	1	main_z	7	advance_on_keypress_ZEE	154	stimuli_target_circletriangles.svg	stimuli_distractor_diamondtriangles.svg	5	yes	57	0	171
6.6.1	win	2022-12-14	18:09:18	18:14:29	308892	610898813e48dc2864965122	758914142	1	main_z	7	main_z	155	stimuli_distractor_trianglediamonds.svg	stimuli_distractor_trianglediamonds.svg	33	no	0	1	2000
6.6.1	win	2022-12-14	18:09:18	18:14:29	308892	610898813e48dc2864965122	758914142	1	main_z	7	advance_on_keypress_ZEE	156	stimuli_distractor_trianglediamonds.svg	stimuli_distractor_trianglediamonds.svg	33	no	57	0	273
6.6.1	win	2022-12-14	18:09:18	18:14:30	310184	610898813e48dc2864965122	758914142	1	main_z	7	main_z	157	stimuli_target_diamondcircles.svg	stimuli_distractor_diamondtriangles.svg	23	yes	44	1	381
6.6.1	win	2022-12-14	18:09:18	18:14:30	310184	610898813e48dc2864965122	758914142	1	main_z	7	advance_on_keypress_ZEE	158	stimuli_target_diamondcircles.svg	stimuli_distractor_diamondtriangles.svg	23	yes	57	0	217
6.6.1	win	2022-12-14	18:09:18	18:14:31	311402	610898813e48dc2864965122	758914142	1	main_z	7	main_z	159	stimuli_distractor_diamondtriangles.svg	stimuli_target_squaretriangles.svg	15	yes	44	1	350
6.6.1	win	2022-12-14	18:09:18	18:14:31	311402	610898813e48dc2864965122	758914142	1	main_z	7	advance_on_keypress_ZEE	160	stimuli_distractor_diamondtriangles.svg	stimuli_target_squaretriangles.svg	15	yes	57	0	196
6.6.1	win	2022-12-14	18:09:18	18:14:57	337420	610898813e48dc2864965122	758914142	1	practice_slash	9	practice_slash	1	stimuli_target_circlediamonds.svg	stimuli_distractor_trianglediamonds.svg	4	yes	53	1	395
6.6.1	win	2022-12-14	18:09:18	18:14:57	337420	610898813e48dc2864965122	758914142	1	practice_slash	9	advance_on_keypress_SLASH	2	stimuli_target_circlediamonds.svg	stimuli_distractor_trianglediamonds.svg	4	yes	57	0	404
6.6.1	win	2022-12-14	18:09:18	18:15:00	340276	610898813e48dc2864965122	758914142	1	practice_slash	9	practice_slash	3	stimuli_target_diamondsquares.svg	stimuli_distractor_diamondtriangles.svg	3	yes	53	1	809
6.6.1	win	2022-12-14	18:09:18	18:15:00	340276	610898813e48dc2864965122	758914142	1	practice_slash	9	advance_on_keypress_SLASH	4	stimuli_target_diamondsquares.svg	stimuli_distractor_diamondtriangles.svg	3	yes	57	0	432
6.6.1	win	2022-12-14	18:09:18	18:15:03	343293	610898813e48dc2864965122	758914142	1	practice_slash	9	practice_slash	5	stimuli_distractor_diamondtriangles.svg	stimuli_target_diamondcircles.svg	8	yes	53	1	932
6.6.1	win	2022-12-14	18:09:18	18:15:03	343293	610898813e48dc2864965122	758914142	1	practice_slash	9	advance_on_keypress_SLASH	6	stimuli_distractor_diamondtriangles.svg	stimuli_target_diamondcircles.svg	8	yes	57	0	446
6.6.1	win	2022-12-14	18:09:18	18:15:06	346251	610898813e48dc2864965122	758914142	1	practice_slash	9	practice_slash	7	stimuli_distractor_trianglediamonds.svg	stimuli_target_diamondcircles.svg	12	yes	53	1	865
6.6.1	win	2022-12-14	18:09:18	18:15:06	346251	610898813e48dc2864965122	758914142	1	practice_slash	9	advance_on_keypress_SLASH	8	stimuli_distractor_trianglediamonds.svg	stimuli_target_diamondcircles.svg	12	yes	57	0	469
6.6.1	win	2022-12-14	18:09:18	18:15:09	349172	610898813e48dc2864965122	758914142	1	practice_slash	9	practice_slash	9	stimuli_target_squarediamonds.svg	stimuli_distractor_trianglediamonds.svg	5	yes	53	1	808
6.6.1	win	2022-12-14	18:09:18	18:15:09	349172	610898813e48dc2864965122	758914142	1	practice_slash	9	advance_on_keypress_SLASH	10	stimuli_target_squarediamonds.svg	stimuli_distractor_trianglediamonds.svg	5	yes	57	0	270
6.6.1	win	2022-12-14	18:09:18	18:15:12	351764	610898813e48dc2864965122	758914142	1	practice_slash	9	practice_slash	11	stimuli_distractor_diamondtriangles.svg	stimuli_target_circletriangles.svg	7	yes	53	1	674
6.6.1	win	2022-12-14	18:09:18	18:15:12	351764	610898813e48dc2864965122	758914142	1	practice_slash	9	advance_on_keypress_SLASH	12	stimuli_distractor_diamondtriangles.svg	stimuli_target_circletriangles.svg	7	yes	57	0	270
6.6.1	win	2022-12-14	18:09:18	18:15:14	354351	610898813e48dc2864965122	758914142	1	practice_slash	9	practice_slash	13	stimuli_distractor_diamondtriangles.svg	stimuli_target_trianglecircles.svg	9	yes	53	1	665
6.6.1	win	2022-12-14	18:09:18	18:15:14	354351	610898813e48dc2864965122	758914142	1	practice_slash	9	advance_on_keypress_SLASH	14	stimuli_distractor_diamondtriangles.svg	stimuli_target_trianglecircles.svg	9	yes	57	0	222
6.6.1	win	2022-12-14	18:09:18	18:15:18	358226	610898813e48dc2864965122	758914142	1	practice_slash	9	practice_slash	15	stimuli_distractor_diamondtriangles.svg	stimuli_distractor_trianglediamonds.svg	14	no	0	1	2000
6.6.1	win	2022-12-14	18:09:18	18:15:18	358226	610898813e48dc2864965122	758914142	1	practice_slash	9	advance_on_keypress_SLASH	16	stimuli_distractor_diamondtriangles.svg	stimuli_distractor_trianglediamonds.svg	14	no	57	0	278
6.6.1	win	2022-12-14	18:09:18	18:15:21	360804	610898813e48dc2864965122	758914142	1	practice_slash	9	practice_slash	17	stimuli_distractor_trianglediamonds.svg	stimuli_target_squarediamonds.svg	11	yes	53	1	648
6.6.1	win	2022-12-14	18:09:18	18:15:21	360804	610898813e48dc2864965122	758914142	1	practice_slash	9	advance_on_keypress_SLASH	18	stimuli_distractor_trianglediamonds.svg	stimuli_target_squarediamonds.svg	11	yes	57	0	254
6.6.1	win	2022-12-14	18:09:18	18:15:23	363443	610898813e48dc2864965122	758914142	1	practice_slash	9	practice_slash	19	stimuli_target_squarediamonds.svg	stimuli_distractor_diamondtriangles.svg	2	yes	53	1	746
6.6.1	win	2022-12-14	18:09:18	18:15:23	363443	610898813e48dc2864965122	758914142	1	practice_slash	9	advance_on_keypress_SLASH	20	stimuli_target_squarediamonds.svg	stimuli_distractor_diamondtriangles.svg	2	yes	57	0	300
6.6.1	win	2022-12-14	18:09:18	18:15:26	366196	610898813e48dc2864965122	758914142	1	practice_slash	9	practice_slash	21	stimuli_target_circlediamonds.svg	stimuli_distractor_diamondtriangles.svg	1	yes	53	1	805
6.6.1	win	2022-12-14	18:09:18	18:15:26	366196	610898813e48dc2864965122	758914142	1	practice_slash	9	advance_on_keypress_SLASH	22	stimuli_target_circlediamonds.svg	stimuli_distractor_diamondtriangles.svg	1	yes	57	0	292
6.6.1	win	2022-12-14	18:09:18	18:15:30	370133	610898813e48dc2864965122	758914142	1	practice_slash	9	practice_slash	23	stimuli_distractor_diamondtriangles.svg	stimuli_distractor_diamondtriangles.svg	13	no	0	1	2000
6.6.1	win	2022-12-14	18:09:18	18:15:30	370133	610898813e48dc2864965122	758914142	1	practice_slash	9	advance_on_keypress_SLASH	24	stimuli_distractor_diamondtriangles.svg	stimuli_distractor_diamondtriangles.svg	13	no	57	0	322
6.6.1	win	2022-12-14	18:09:18	18:15:33	373156	610898813e48dc2864965122	758914142	1	practice_slash	9	practice_slash	25	stimuli_target_diamondsquares.svg	stimuli_distractor_trianglediamonds.svg	6	yes	53	1	1059
6.6.1	win	2022-12-14	18:09:18	18:15:33	373156	610898813e48dc2864965122	758914142	1	practice_slash	9	advance_on_keypress_SLASH	26	stimuli_target_diamondsquares.svg	stimuli_distractor_trianglediamonds.svg	6	yes	57	0	270
6.6.1	win	2022-12-14	18:09:18	18:15:37	377074	610898813e48dc2864965122	758914142	1	practice_slash	9	practice_slash	27	stimuli_distractor_trianglediamonds.svg	stimuli_distractor_trianglediamonds.svg	15	no	0	1	2000
6.6.1	win	2022-12-14	18:09:18	18:15:37	377074	610898813e48dc2864965122	758914142	1	practice_slash	9	advance_on_keypress_SLASH	28	stimuli_distractor_trianglediamonds.svg	stimuli_distractor_trianglediamonds.svg	15	no	57	0	277
6.6.1	win	2022-12-14	18:09:18	18:15:41	381006	610898813e48dc2864965122	758914142	1	practice_slash	9	practice_slash	29	stimuli_distractor_trianglediamonds.svg	stimuli_distractor_diamondtriangles.svg	16	no	0	1	2000
6.6.1	win	2022-12-14	18:09:18	18:15:41	381006	610898813e48dc2864965122	758914142	1	practice_slash	9	advance_on_keypress_SLASH	30	stimuli_distractor_trianglediamonds.svg	stimuli_distractor_diamondtriangles.svg	16	no	57	0	42
6.6.1	win	2022-12-14	18:09:18	18:15:43	383100	610898813e48dc2864965122	758914142	1	practice_slash	9	practice_slash	31	stimuli_distractor_trianglediamonds.svg	stimuli_target_circlediamonds.svg	10	yes	53	1	415
6.6.1	win	2022-12-14	18:09:18	18:15:43	383100	610898813e48dc2864965122	758914142	1	practice_slash	9	advance_on_keypress_SLASH	32	stimuli_distractor_trianglediamonds.svg	stimuli_target_circlediamonds.svg	10	yes	57	0	448
6.6.1	win	2022-12-14	18:09:18	18:16:14	414250	610898813e48dc2864965122	758914142	1	main_slash	11	main_slash	1	stimuli_distractor_diamondtriangles.svg	stimuli_target_squarediamonds.svg	16	yes	53	1	1241
6.6.1	win	2022-12-14	18:09:18	18:16:14	414250	610898813e48dc2864965122	758914142	1	main_slash	11	advance_on_keypress_SLASH	2	stimuli_distractor_diamondtriangles.svg	stimuli_target_squarediamonds.svg	16	yes	57	0	784
6.6.1	win	2022-12-14	18:09:18	18:16:16	416554	610898813e48dc2864965122	758914142	1	main_slash	11	main_slash	3	stimuli_distractor_diamondtriangles.svg	stimuli_target_diamondcircles.svg	31	yes	53	1	869
6.6.1	win	2022-12-14	18:09:18	18:16:16	416554	610898813e48dc2864965122	758914142	1	main_slash	11	advance_on_keypress_SLASH	4	stimuli_distractor_diamondtriangles.svg	stimuli_target_diamondcircles.svg	31	yes	57	0	412
6.6.1	win	2022-12-14	18:09:18	18:16:18	418082	610898813e48dc2864965122	758914142	1	main_slash	11	main_slash	5	stimuli_distractor_diamondtriangles.svg	stimuli_target_trianglecircles.svg	29	yes	53	1	473
6.6.1	win	2022-12-14	18:09:18	18:16:18	418082	610898813e48dc2864965122	758914142	1	main_slash	11	advance_on_keypress_SLASH	6	stimuli_distractor_diamondtriangles.svg	stimuli_target_trianglecircles.svg	29	yes	57	0	250
6.6.1	win	2022-12-14	18:09:18	18:16:19	419514	610898813e48dc2864965122	758914142	1	main_slash	11	main_slash	7	stimuli_target_diamondcircles.svg	stimuli_distractor_diamondtriangles.svg	23	yes	53	1	534
6.6.1	win	2022-12-14	18:09:18	18:16:19	419514	610898813e48dc2864965122	758914142	1	main_slash	11	advance_on_keypress_SLASH	8	stimuli_target_diamondcircles.svg	stimuli_distractor_diamondtriangles.svg	23	yes	57	0	268
6.6.1	win	2022-12-14	18:09:18	18:16:21	421187	610898813e48dc2864965122	758914142	1	main_slash	11	main_slash	9	stimuli_target_diamondsquares.svg	stimuli_distractor_trianglediamonds.svg	20	yes	53	1	751
6.6.1	win	2022-12-14	18:09:18	18:16:21	421187	610898813e48dc2864965122	758914142	1	main_slash	11	advance_on_keypress_SLASH	10	stimuli_target_diamondsquares.svg	stimuli_distractor_trianglediamonds.svg	20	yes	57	0	235
6.6.1	win	2022-12-14	18:09:18	18:16:23	422691	610898813e48dc2864965122	758914142	1	main_slash	11	main_slash	11	stimuli_target_circlediamonds.svg	stimuli_distractor_trianglediamonds.svg	2	yes	53	1	616
6.6.1	win	2022-12-14	18:09:18	18:16:23	422691	610898813e48dc2864965122	758914142	1	main_slash	11	advance_on_keypress_SLASH	12	stimuli_target_circlediamonds.svg	stimuli_distractor_trianglediamonds.svg	2	yes	57	0	283
6.6.1	win	2022-12-14	18:09:18	18:16:24	424362	610898813e48dc2864965122	758914142	1	main_slash	11	main_slash	13	stimuli_distractor_trianglediamonds.svg	stimuli_target_squarediamonds.svg	12	yes	53	1	749
6.6.1	win	2022-12-14	18:09:18	18:16:24	424362	610898813e48dc2864965122	758914142	1	main_slash	11	advance_on_keypress_SLASH	14	stimuli_distractor_trianglediamonds.svg	stimuli_target_squarediamonds.svg	12	yes	57	0	210
6.6.1	win	2022-12-14	18:09:18	18:16:27	427219	610898813e48dc2864965122	758914142	1	main_slash	11	main_slash	15	stimuli_distractor_trianglediamonds.svg	stimuli_distractor_diamondtriangles.svg	35	no	0	1	2000
6.6.1	win	2022-12-14	18:09:18	18:16:27	427219	610898813e48dc2864965122	758914142	1	main_slash	11	advance_on_keypress_SLASH	16	stimuli_distractor_trianglediamonds.svg	stimuli_distractor_diamondtriangles.svg	35	no	57	0	286
6.6.1	win	2022-12-14	18:09:18	18:16:29	428642	610898813e48dc2864965122	758914142	1	main_slash	11	main_slash	17	stimuli_distractor_trianglediamonds.svg	stimuli_target_trianglecircles.svg	25	yes	53	1	497
6.6.1	win	2022-12-14	18:09:18	18:16:29	428642	610898813e48dc2864965122	758914142	1	main_slash	11	advance_on_keypress_SLASH	18	stimuli_distractor_trianglediamonds.svg	stimuli_target_trianglecircles.svg	25	yes	57	0	217
6.6.1	win	2022-12-14	18:09:18	18:16:30	429886	610898813e48dc2864965122	758914142	1	main_slash	11	main_slash	19	stimuli_target_squaretriangles.svg	stimuli_distractor_trianglediamonds.svg	3	yes	53	1	374
6.6.1	win	2022-12-14	18:09:18	18:16:30	429886	610898813e48dc2864965122	758914142	1	main_slash	11	advance_on_keypress_SLASH	20	stimuli_target_squaretriangles.svg	stimuli_distractor_trianglediamonds.svg	3	yes	57	0	202
6.6.1	win	2022-12-14	18:09:18	18:16:31	431268	610898813e48dc2864965122	758914142	1	main_slash	11	main_slash	21	stimuli_target_diamondcircles.svg	stimuli_distractor_trianglediamonds.svg	19	yes	53	1	528
6.6.1	win	2022-12-14	18:09:18	18:16:31	431268	610898813e48dc2864965122	758914142	1	main_slash	11	advance_on_keypress_SLASH	22	stimuli_target_diamondcircles.svg	stimuli_distractor_trianglediamonds.svg	19	yes	57	0	206
6.6.1	win	2022-12-14	18:09:18	18:16:32	432474	610898813e48dc2864965122	758914142	1	main_slash	11	main_slash	23	stimuli_target_diamondsquares.svg	stimuli_distractor_diamondtriangles.svg	24	yes	53	1	365
6.6.1	win	2022-12-14	18:09:18	18:16:32	432474	610898813e48dc2864965122	758914142	1	main_slash	11	advance_on_keypress_SLASH	24	stimuli_target_diamondsquares.svg	stimuli_distractor_diamondtriangles.svg	24	yes	57	0	219
6.6.1	win	2022-12-14	18:09:18	18:16:35	435331	610898813e48dc2864965122	758914142	1	main_slash	11	main_slash	25	stimuli_distractor_trianglediamonds.svg	stimuli_distractor_trianglediamonds.svg	34	no	0	1	2000
6.6.1	win	2022-12-14	18:09:18	18:16:35	435331	610898813e48dc2864965122	758914142	1	main_slash	11	advance_on_keypress_SLASH	26	stimuli_distractor_trianglediamonds.svg	stimuli_distractor_trianglediamonds.svg	34	no	57	0	247
6.6.1	win	2022-12-14	18:09:18	18:16:37	436994	610898813e48dc2864965122	758914142	1	main_slash	11	main_slash	27	stimuli_target_squarediamonds.svg	stimuli_distractor_diamondtriangles.svg	8	yes	53	1	787
6.6.1	win	2022-12-14	18:09:18	18:16:37	436994	610898813e48dc2864965122	758914142	1	main_slash	11	advance_on_keypress_SLASH	28	stimuli_target_squarediamonds.svg	stimuli_distractor_diamondtriangles.svg	8	yes	57	0	398
6.6.1	win	2022-12-14	18:09:18	18:16:40	440051	610898813e48dc2864965122	758914142	1	main_slash	11	main_slash	29	stimuli_distractor_trianglediamonds.svg	stimuli_distractor_diamondtriangles.svg	36	no	0	1	2000
6.6.1	win	2022-12-14	18:09:18	18:16:40	440051	610898813e48dc2864965122	758914142	1	main_slash	11	advance_on_keypress_SLASH	30	stimuli_distractor_trianglediamonds.svg	stimuli_distractor_diamondtriangles.svg	36	no	57	0	274
6.6.1	win	2022-12-14	18:09:18	18:16:41	441354	610898813e48dc2864965122	758914142	1	main_slash	11	main_slash	31	stimuli_target_squarediamonds.svg	stimuli_distractor_trianglediamonds.svg	4	yes	53	1	397
6.6.1	win	2022-12-14	18:09:18	18:16:41	441354	610898813e48dc2864965122	758914142	1	main_slash	11	advance_on_keypress_SLASH	32	stimuli_target_squarediamonds.svg	stimuli_distractor_trianglediamonds.svg	4	yes	57	0	257
6.6.1	win	2022-12-14	18:09:18	18:16:43	442787	610898813e48dc2864965122	758914142	1	main_slash	11	main_slash	33	stimuli_distractor_diamondtriangles.svg	stimuli_target_diamondsquares.svg	32	yes	53	1	541
6.6.1	win	2022-12-14	18:09:18	18:16:43	442787	610898813e48dc2864965122	758914142	1	main_slash	11	advance_on_keypress_SLASH	34	stimuli_distractor_diamondtriangles.svg	stimuli_target_diamondsquares.svg	32	yes	57	0	227
6.6.1	win	2022-12-14	18:09:18	18:16:44	444218	610898813e48dc2864965122	758914142	1	main_slash	11	main_slash	35	stimuli_distractor_diamondtriangles.svg	stimuli_target_circletriangles.svg	13	yes	53	1	568
6.6.1	win	2022-12-14	18:09:18	18:16:44	444218	610898813e48dc2864965122	758914142	1	main_slash	11	advance_on_keypress_SLASH	36	stimuli_distractor_diamondtriangles.svg	stimuli_target_circletriangles.svg	13	yes	57	0	189
6.6.1	win	2022-12-14	18:09:18	18:16:45	445594	610898813e48dc2864965122	758914142	1	main_slash	11	main_slash	37	stimuli_distractor_diamondtriangles.svg	stimuli_target_trianglesquares.svg	30	yes	53	1	539
6.6.1	win	2022-12-14	18:09:18	18:16:45	445594	610898813e48dc2864965122	758914142	1	main_slash	11	advance_on_keypress_SLASH	38	stimuli_distractor_diamondtriangles.svg	stimuli_target_trianglesquares.svg	30	yes	57	0	209
6.6.1	win	2022-12-14	18:09:18	18:16:47	447018	610898813e48dc2864965122	758914142	1	main_slash	11	main_slash	39	stimuli_distractor_trianglediamonds.svg	stimuli_target_circlediamonds.svg	10	yes	53	1	575
6.6.1	win	2022-12-14	18:09:18	18:16:47	447018	610898813e48dc2864965122	758914142	1	main_slash	11	advance_on_keypress_SLASH	40	stimuli_distractor_trianglediamonds.svg	stimuli_target_circlediamonds.svg	10	yes	57	0	132
6.6.1	win	2022-12-14	18:09:18	18:16:50	449798	610898813e48dc2864965122	758914142	1	main_slash	11	main_slash	41	stimuli_distractor_trianglediamonds.svg	stimuli_target_diamondsquares.svg	28	yes	0	0	2000
6.6.1	win	2022-12-14	18:09:18	18:16:50	449798	610898813e48dc2864965122	758914142	1	main_slash	11	advance_on_keypress_SLASH	42	stimuli_distractor_trianglediamonds.svg	stimuli_target_diamondsquares.svg	28	yes	57	0	395
6.6.1	win	2022-12-14	18:09:18	18:16:51	451428	610898813e48dc2864965122	758914142	1	main_slash	11	main_slash	43	stimuli_distractor_trianglediamonds.svg	stimuli_target_trianglesquares.svg	26	yes	53	1	601
6.6.1	win	2022-12-14	18:09:18	18:16:51	451428	610898813e48dc2864965122	758914142	1	main_slash	11	advance_on_keypress_SLASH	44	stimuli_distractor_trianglediamonds.svg	stimuli_target_trianglesquares.svg	26	yes	57	0	172
6.6.1	win	2022-12-14	18:09:18	18:16:53	452714	610898813e48dc2864965122	758914142	1	main_slash	11	main_slash	45	stimuli_target_trianglecircles.svg	stimuli_distractor_diamondtriangles.svg	21	yes	53	1	467
6.6.1	win	2022-12-14	18:09:18	18:16:53	452714	610898813e48dc2864965122	758914142	1	main_slash	11	advance_on_keypress_SLASH	46	stimuli_target_trianglecircles.svg	stimuli_distractor_diamondtriangles.svg	21	yes	57	0	148
6.6.1	win	2022-12-14	18:09:18	18:16:54	453908	610898813e48dc2864965122	758914142	1	main_slash	11	main_slash	47	stimuli_target_trianglecircles.svg	stimuli_distractor_trianglediamonds.svg	17	yes	53	1	388
6.6.1	win	2022-12-14	18:09:18	18:16:54	453908	610898813e48dc2864965122	758914142	1	main_slash	11	advance_on_keypress_SLASH	48	stimuli_target_trianglecircles.svg	stimuli_distractor_trianglediamonds.svg	17	yes	57	0	241
6.6.1	win	2022-12-14	18:09:18	18:16:55	455175	610898813e48dc2864965122	758914142	1	main_slash	11	main_slash	49	stimuli_distractor_trianglediamonds.svg	stimuli_target_diamondcircles.svg	27	yes	53	1	381
6.6.1	win	2022-12-14	18:09:18	18:16:55	455175	610898813e48dc2864965122	758914142	1	main_slash	11	advance_on_keypress_SLASH	50	stimuli_distractor_trianglediamonds.svg	stimuli_target_diamondcircles.svg	27	yes	57	0	193
6.6.1	win	2022-12-14	18:09:18	18:16:58	458011	610898813e48dc2864965122	758914142	1	main_slash	11	main_slash	51	stimuli_distractor_diamondtriangles.svg	stimuli_distractor_diamondtriangles.svg	40	no	0	1	2000
6.6.1	win	2022-12-14	18:09:18	18:16:58	458011	610898813e48dc2864965122	758914142	1	main_slash	11	advance_on_keypress_SLASH	52	stimuli_distractor_diamondtriangles.svg	stimuli_distractor_diamondtriangles.svg	40	no	57	0	351
6.6.1	win	2022-12-14	18:09:18	18:16:59	459524	610898813e48dc2864965122	758914142	1	main_slash	11	main_slash	53	stimuli_distractor_trianglediamonds.svg	stimuli_target_circletriangles.svg	9	yes	53	1	518
6.6.1	win	2022-12-14	18:09:18	18:16:59	459524	610898813e48dc2864965122	758914142	1	main_slash	11	advance_on_keypress_SLASH	54	stimuli_distractor_trianglediamonds.svg	stimuli_target_circletriangles.svg	9	yes	57	0	173
6.6.1	win	2022-12-14	18:09:18	18:17:01	460834	610898813e48dc2864965122	758914142	1	main_slash	11	main_slash	55	stimuli_target_trianglesquares.svg	stimuli_distractor_trianglediamonds.svg	18	yes	53	1	492
6.6.1	win	2022-12-14	18:09:18	18:17:01	460834	610898813e48dc2864965122	758914142	1	main_slash	11	advance_on_keypress_SLASH	56	stimuli_target_trianglesquares.svg	stimuli_distractor_trianglediamonds.svg	18	yes	57	0	132
6.6.1	win	2022-12-14	18:09:18	18:17:02	462059	610898813e48dc2864965122	758914142	1	main_slash	11	main_slash	57	stimuli_target_circletriangles.svg	stimuli_distractor_diamondtriangles.svg	5	yes	53	1	445
6.6.1	win	2022-12-14	18:09:18	18:17:02	462059	610898813e48dc2864965122	758914142	1	main_slash	11	advance_on_keypress_SLASH	58	stimuli_target_circletriangles.svg	stimuli_distractor_diamondtriangles.svg	5	yes	57	0	151
6.6.1	win	2022-12-14	18:09:18	18:17:03	463237	610898813e48dc2864965122	758914142	1	main_slash	11	main_slash	59	stimuli_target_squaretriangles.svg	stimuli_distractor_diamondtriangles.svg	7	yes	53	1	383
6.6.1	win	2022-12-14	18:09:18	18:17:03	463237	610898813e48dc2864965122	758914142	1	main_slash	11	advance_on_keypress_SLASH	60	stimuli_target_squaretriangles.svg	stimuli_distractor_diamondtriangles.svg	7	yes	57	0	188
6.6.1	win	2022-12-14	18:09:18	18:17:04	464459	610898813e48dc2864965122	758914142	1	main_slash	11	main_slash	61	stimuli_distractor_diamondtriangles.svg	stimuli_target_circlediamonds.svg	14	yes	53	1	387
6.6.1	win	2022-12-14	18:09:18	18:17:04	464459	610898813e48dc2864965122	758914142	1	main_slash	11	advance_on_keypress_SLASH	62	stimuli_distractor_diamondtriangles.svg	stimuli_target_circlediamonds.svg	14	yes	57	0	207
6.6.1	win	2022-12-14	18:09:18	18:17:06	465674	610898813e48dc2864965122	758914142	1	main_slash	11	main_slash	63	stimuli_distractor_trianglediamonds.svg	stimuli_target_squaretriangles.svg	11	yes	53	1	365
6.6.1	win	2022-12-14	18:09:18	18:17:06	465674	610898813e48dc2864965122	758914142	1	main_slash	11	advance_on_keypress_SLASH	64	stimuli_distractor_trianglediamonds.svg	stimuli_target_squaretriangles.svg	11	yes	57	0	187
6.6.1	win	2022-12-14	18:09:18	18:17:08	468497	610898813e48dc2864965122	758914142	1	main_slash	11	main_slash	65	stimuli_distractor_trianglediamonds.svg	stimuli_distractor_trianglediamonds.svg	33	no	0	1	2000
6.6.1	win	2022-12-14	18:09:18	18:17:08	468497	610898813e48dc2864965122	758914142	1	main_slash	11	advance_on_keypress_SLASH	66	stimuli_distractor_trianglediamonds.svg	stimuli_distractor_trianglediamonds.svg	33	no	57	0	264
6.6.1	win	2022-12-14	18:09:18	18:17:10	469818	610898813e48dc2864965122	758914142	1	main_slash	11	main_slash	67	stimuli_target_circletriangles.svg	stimuli_distractor_trianglediamonds.svg	1	yes	53	1	411
6.6.1	win	2022-12-14	18:09:18	18:17:10	469818	610898813e48dc2864965122	758914142	1	main_slash	11	advance_on_keypress_SLASH	68	stimuli_target_circletriangles.svg	stimuli_distractor_trianglediamonds.svg	1	yes	57	0	159
6.6.1	win	2022-12-14	18:09:18	18:17:12	472611	610898813e48dc2864965122	758914142	1	main_slash	11	main_slash	69	stimuli_distractor_diamondtriangles.svg	stimuli_distractor_trianglediamonds.svg	37	no	0	1	2000
6.6.1	win	2022-12-14	18:09:18	18:17:12	472611	610898813e48dc2864965122	758914142	1	main_slash	11	advance_on_keypress_SLASH	70	stimuli_distractor_diamondtriangles.svg	stimuli_distractor_trianglediamonds.svg	37	no	57	0	254
6.6.1	win	2022-12-14	18:09:18	18:17:14	474227	610898813e48dc2864965122	758914142	1	main_slash	11	main_slash	71	stimuli_target_trianglesquares.svg	stimuli_distractor_diamondtriangles.svg	22	yes	53	1	721
6.6.1	win	2022-12-14	18:09:18	18:17:14	474227	610898813e48dc2864965122	758914142	1	main_slash	11	advance_on_keypress_SLASH	72	stimuli_target_trianglesquares.svg	stimuli_distractor_diamondtriangles.svg	22	yes	57	0	183
6.6.1	win	2022-12-14	18:09:18	18:17:17	477060	610898813e48dc2864965122	758914142	1	main_slash	11	main_slash	73	stimuli_distractor_diamondtriangles.svg	stimuli_distractor_diamondtriangles.svg	39	no	0	1	2000
6.6.1	win	2022-12-14	18:09:18	18:17:17	477060	610898813e48dc2864965122	758914142	1	main_slash	11	advance_on_keypress_SLASH	74	stimuli_distractor_diamondtriangles.svg	stimuli_distractor_diamondtriangles.svg	39	no	57	0	213
6.6.1	win	2022-12-14	18:09:18	18:17:18	478307	610898813e48dc2864965122	758914142	1	main_slash	11	main_slash	75	stimuli_target_circlediamonds.svg	stimuli_distractor_diamondtriangles.svg	6	yes	53	1	378
6.6.1	win	2022-12-14	18:09:18	18:17:18	478307	610898813e48dc2864965122	758914142	1	main_slash	11	advance_on_keypress_SLASH	76	stimuli_target_circlediamonds.svg	stimuli_distractor_diamondtriangles.svg	6	yes	57	0	157
6.6.1	win	2022-12-14	18:09:18	18:17:19	479493	610898813e48dc2864965122	758914142	1	main_slash	11	main_slash	77	stimuli_distractor_diamondtriangles.svg	stimuli_target_squaretriangles.svg	15	yes	53	1	374
6.6.1	win	2022-12-14	18:09:18	18:17:19	479493	610898813e48dc2864965122	758914142	1	main_slash	11	advance_on_keypress_SLASH	78	stimuli_distractor_diamondtriangles.svg	stimuli_target_squaretriangles.svg	15	yes	57	0	99
6.6.1	win	2022-12-14	18:09:18	18:17:20	480570	610898813e48dc2864965122	758914142	1	main_slash	11	main_slash	79	stimuli_distractor_diamondtriangles.svg	stimuli_distractor_trianglediamonds.svg	38	no	53	0	325
6.6.1	win	2022-12-14	18:09:18	18:17:20	480570	610898813e48dc2864965122	758914142	1	main_slash	11	advance_on_keypress_SLASH	80	stimuli_distractor_diamondtriangles.svg	stimuli_distractor_trianglediamonds.svg	38	no	57	0	420
6.6.1	win	2022-12-14	18:09:18	18:17:22	482274	610898813e48dc2864965122	758914142	1	main_slash	11	main_slash	81	stimuli_target_squaretriangles.svg	stimuli_distractor_diamondtriangles.svg	7	yes	53	1	641
6.6.1	win	2022-12-14	18:09:18	18:17:22	482274	610898813e48dc2864965122	758914142	1	main_slash	11	advance_on_keypress_SLASH	82	stimuli_target_squaretriangles.svg	stimuli_distractor_diamondtriangles.svg	7	yes	57	0	179
6.6.1	win	2022-12-14	18:09:18	18:17:24	483625	610898813e48dc2864965122	758914142	1	main_slash	11	main_slash	83	stimuli_distractor_trianglediamonds.svg	stimuli_target_trianglecircles.svg	25	yes	53	1	506
6.6.1	win	2022-12-14	18:09:18	18:17:24	483625	610898813e48dc2864965122	758914142	1	main_slash	11	advance_on_keypress_SLASH	84	stimuli_distractor_trianglediamonds.svg	stimuli_target_trianglecircles.svg	25	yes	57	0	64
6.6.1	win	2022-12-14	18:09:18	18:17:26	486343	610898813e48dc2864965122	758914142	1	main_slash	11	main_slash	85	stimuli_distractor_trianglediamonds.svg	stimuli_distractor_trianglediamonds.svg	33	no	0	1	2000
6.6.1	win	2022-12-14	18:09:18	18:17:26	486343	610898813e48dc2864965122	758914142	1	main_slash	11	advance_on_keypress_SLASH	86	stimuli_distractor_trianglediamonds.svg	stimuli_distractor_trianglediamonds.svg	33	no	57	0	258
6.6.1	win	2022-12-14	18:09:18	18:17:28	487757	610898813e48dc2864965122	758914142	1	main_slash	11	main_slash	87	stimuli_distractor_diamondtriangles.svg	stimuli_target_squarediamonds.svg	16	yes	53	1	504
6.6.1	win	2022-12-14	18:09:18	18:17:28	487757	610898813e48dc2864965122	758914142	1	main_slash	11	advance_on_keypress_SLASH	88	stimuli_distractor_diamondtriangles.svg	stimuli_target_squarediamonds.svg	16	yes	57	0	101
6.6.1	win	2022-12-14	18:09:18	18:17:29	488852	610898813e48dc2864965122	758914142	1	main_slash	11	main_slash	89	stimuli_target_circletriangles.svg	stimuli_distractor_trianglediamonds.svg	1	yes	53	1	343
6.6.1	win	2022-12-14	18:09:18	18:17:29	488852	610898813e48dc2864965122	758914142	1	main_slash	11	advance_on_keypress_SLASH	90	stimuli_target_circletriangles.svg	stimuli_distractor_trianglediamonds.svg	1	yes	57	0	173
6.6.1	win	2022-12-14	18:09:18	18:17:30	490181	610898813e48dc2864965122	758914142	1	main_slash	11	main_slash	91	stimuli_target_trianglecircles.svg	stimuli_distractor_diamondtriangles.svg	21	yes	53	1	509
6.6.1	win	2022-12-14	18:09:18	18:17:30	490181	610898813e48dc2864965122	758914142	1	main_slash	11	advance_on_keypress_SLASH	92	stimuli_target_trianglecircles.svg	stimuli_distractor_diamondtriangles.svg	21	yes	57	0	59
6.6.1	win	2022-12-14	18:09:18	18:17:33	492882	610898813e48dc2864965122	758914142	1	main_slash	11	main_slash	93	stimuli_distractor_diamondtriangles.svg	stimuli_distractor_diamondtriangles.svg	40	no	0	1	2000
6.6.1	win	2022-12-14	18:09:18	18:17:33	492882	610898813e48dc2864965122	758914142	1	main_slash	11	advance_on_keypress_SLASH	94	stimuli_distractor_diamondtriangles.svg	stimuli_distractor_diamondtriangles.svg	40	no	57	0	295
6.6.1	win	2022-12-14	18:09:18	18:17:34	494195	610898813e48dc2864965122	758914142	1	main_slash	11	main_slash	95	stimuli_distractor_diamondtriangles.svg	stimuli_target_trianglesquares.svg	30	yes	53	1	369
6.6.1	win	2022-12-14	18:09:18	18:17:34	494195	610898813e48dc2864965122	758914142	1	main_slash	11	advance_on_keypress_SLASH	96	stimuli_distractor_diamondtriangles.svg	stimuli_target_trianglesquares.svg	30	yes	57	0	108
6.6.1	win	2022-12-14	18:09:18	18:17:35	495338	610898813e48dc2864965122	758914142	1	main_slash	11	main_slash	97	stimuli_target_diamondcircles.svg	stimuli_distractor_diamondtriangles.svg	23	yes	53	1	392
6.6.1	win	2022-12-14	18:09:18	18:17:35	495338	610898813e48dc2864965122	758914142	1	main_slash	11	advance_on_keypress_SLASH	98	stimuli_target_diamondcircles.svg	stimuli_distractor_diamondtriangles.svg	23	yes	57	0	140
6.6.1	win	2022-12-14	18:09:18	18:17:37	496747	610898813e48dc2864965122	758914142	1	main_slash	11	main_slash	99	stimuli_distractor_trianglediamonds.svg	stimuli_target_squarediamonds.svg	12	yes	53	1	629
6.6.1	win	2022-12-14	18:09:18	18:17:37	496747	610898813e48dc2864965122	758914142	1	main_slash	11	advance_on_keypress_SLASH	100	stimuli_distractor_trianglediamonds.svg	stimuli_target_squarediamonds.svg	12	yes	57	0	151
6.6.1	win	2022-12-14	18:09:18	18:17:38	498082	610898813e48dc2864965122	758914142	1	main_slash	11	main_slash	101	stimuli_distractor_diamondtriangles.svg	stimuli_distractor_trianglediamonds.svg	38	no	53	0	542
6.6.1	win	2022-12-14	18:09:18	18:17:38	498082	610898813e48dc2864965122	758914142	1	main_slash	11	advance_on_keypress_SLASH	102	stimuli_distractor_diamondtriangles.svg	stimuli_distractor_trianglediamonds.svg	38	no	57	0	325
6.6.1	win	2022-12-14	18:09:18	18:17:41	501045	610898813e48dc2864965122	758914142	1	main_slash	11	main_slash	103	stimuli_distractor_diamondtriangles.svg	stimuli_distractor_diamondtriangles.svg	39	no	0	1	2000
6.6.1	win	2022-12-14	18:09:18	18:17:41	501045	610898813e48dc2864965122	758914142	1	main_slash	11	advance_on_keypress_SLASH	104	stimuli_distractor_diamondtriangles.svg	stimuli_distractor_diamondtriangles.svg	39	no	57	0	332
6.6.1	win	2022-12-14	18:09:18	18:17:42	502482	610898813e48dc2864965122	758914142	1	main_slash	11	main_slash	105	stimuli_distractor_trianglediamonds.svg	stimuli_target_trianglesquares.svg	26	yes	53	1	460
6.6.1	win	2022-12-14	18:09:18	18:17:42	502482	610898813e48dc2864965122	758914142	1	main_slash	11	advance_on_keypress_SLASH	106	stimuli_distractor_trianglediamonds.svg	stimuli_target_trianglesquares.svg	26	yes	57	0	174
6.6.1	win	2022-12-14	18:09:18	18:17:44	503634	610898813e48dc2864965122	758914142	1	main_slash	11	main_slash	107	stimuli_target_squaretriangles.svg	stimuli_distractor_trianglediamonds.svg	3	yes	53	1	342
6.6.1	win	2022-12-14	18:09:18	18:17:44	503634	610898813e48dc2864965122	758914142	1	main_slash	11	advance_on_keypress_SLASH	108	stimuli_target_squaretriangles.svg	stimuli_distractor_trianglediamonds.svg	3	yes	57	0	139
6.6.1	win	2022-12-14	18:09:18	18:17:45	504818	610898813e48dc2864965122	758914142	1	main_slash	11	main_slash	109	stimuli_distractor_diamondtriangles.svg	stimuli_target_circlediamonds.svg	14	yes	53	1	405
6.6.1	win	2022-12-14	18:09:18	18:17:45	504818	610898813e48dc2864965122	758914142	1	main_slash	11	advance_on_keypress_SLASH	110	stimuli_distractor_diamondtriangles.svg	stimuli_target_circlediamonds.svg	14	yes	57	0	145
6.6.1	win	2022-12-14	18:09:18	18:17:46	505987	610898813e48dc2864965122	758914142	1	main_slash	11	main_slash	111	stimuli_distractor_diamondtriangles.svg	stimuli_target_diamondsquares.svg	32	yes	53	1	378
6.6.1	win	2022-12-14	18:09:18	18:17:46	505987	610898813e48dc2864965122	758914142	1	main_slash	11	advance_on_keypress_SLASH	112	stimuli_distractor_diamondtriangles.svg	stimuli_target_diamondsquares.svg	32	yes	57	0	174
6.6.1	win	2022-12-14	18:09:18	18:17:47	507191	610898813e48dc2864965122	758914142	1	main_slash	11	main_slash	113	stimuli_target_diamondcircles.svg	stimuli_distractor_trianglediamonds.svg	19	yes	53	1	381
6.6.1	win	2022-12-14	18:09:18	18:17:47	507191	610898813e48dc2864965122	758914142	1	main_slash	11	advance_on_keypress_SLASH	114	stimuli_target_diamondcircles.svg	stimuli_distractor_trianglediamonds.svg	19	yes	57	0	153
6.6.1	win	2022-12-14	18:09:18	18:17:48	508442	610898813e48dc2864965122	758914142	1	main_slash	11	main_slash	115	stimuli_distractor_trianglediamonds.svg	stimuli_target_squaretriangles.svg	11	yes	53	1	449
6.6.1	win	2022-12-14	18:09:18	18:17:48	508442	610898813e48dc2864965122	758914142	1	main_slash	11	advance_on_keypress_SLASH	116	stimuli_distractor_trianglediamonds.svg	stimuli_target_squaretriangles.svg	11	yes	57	0	171
6.6.1	win	2022-12-14	18:09:18	18:17:49	509611	610898813e48dc2864965122	758914142	1	main_slash	11	main_slash	117	stimuli_target_circlediamonds.svg	stimuli_distractor_diamondtriangles.svg	6	yes	53	1	364
6.6.1	win	2022-12-14	18:09:18	18:17:49	509611	610898813e48dc2864965122	758914142	1	main_slash	11	advance_on_keypress_SLASH	118	stimuli_target_circlediamonds.svg	stimuli_distractor_diamondtriangles.svg	6	yes	57	0	208
6.6.1	win	2022-12-14	18:09:18	18:17:52	512451	610898813e48dc2864965122	758914142	1	main_slash	11	main_slash	119	stimuli_distractor_trianglediamonds.svg	stimuli_distractor_diamondtriangles.svg	36	no	0	1	2000
6.6.1	win	2022-12-14	18:09:18	18:17:52	512451	610898813e48dc2864965122	758914142	1	main_slash	11	advance_on_keypress_SLASH	120	stimuli_distractor_trianglediamonds.svg	stimuli_distractor_diamondtriangles.svg	36	no	57	0	278
6.6.1	win	2022-12-14	18:09:18	18:17:55	515361	610898813e48dc2864965122	758914142	1	main_slash	11	main_slash	121	stimuli_distractor_trianglediamonds.svg	stimuli_distractor_trianglediamonds.svg	34	no	0	1	2000
6.6.1	win	2022-12-14	18:09:18	18:17:55	515361	610898813e48dc2864965122	758914142	1	main_slash	11	advance_on_keypress_SLASH	122	stimuli_distractor_trianglediamonds.svg	stimuli_distractor_trianglediamonds.svg	34	no	57	0	296
6.6.1	win	2022-12-14	18:09:18	18:17:57	516754	610898813e48dc2864965122	758914142	1	main_slash	11	main_slash	123	stimuli_target_trianglesquares.svg	stimuli_distractor_trianglediamonds.svg	18	yes	53	1	466
6.6.1	win	2022-12-14	18:09:18	18:17:57	516754	610898813e48dc2864965122	758914142	1	main_slash	11	advance_on_keypress_SLASH	124	stimuli_target_trianglesquares.svg	stimuli_distractor_trianglediamonds.svg	18	yes	57	0	179
6.6.1	win	2022-12-14	18:09:18	18:17:58	517945	610898813e48dc2864965122	758914142	1	main_slash	11	main_slash	125	stimuli_target_diamondsquares.svg	stimuli_distractor_trianglediamonds.svg	20	yes	53	1	371
6.6.1	win	2022-12-14	18:09:18	18:17:58	517945	610898813e48dc2864965122	758914142	1	main_slash	11	advance_on_keypress_SLASH	126	stimuli_target_diamondsquares.svg	stimuli_distractor_trianglediamonds.svg	20	yes	57	0	103
6.6.1	win	2022-12-14	18:09:18	18:17:59	519034	610898813e48dc2864965122	758914142	1	main_slash	11	main_slash	127	stimuli_distractor_trianglediamonds.svg	stimuli_target_circlediamonds.svg	10	yes	53	1	338
6.6.1	win	2022-12-14	18:09:18	18:17:59	519034	610898813e48dc2864965122	758914142	1	main_slash	11	advance_on_keypress_SLASH	128	stimuli_distractor_trianglediamonds.svg	stimuli_target_circlediamonds.svg	10	yes	57	0	160
6.6.1	win	2022-12-14	18:09:18	18:18:00	520210	610898813e48dc2864965122	758914142	1	main_slash	11	main_slash	129	stimuli_distractor_diamondtriangles.svg	stimuli_target_circletriangles.svg	13	yes	53	1	360
6.6.1	win	2022-12-14	18:09:18	18:18:00	520210	610898813e48dc2864965122	758914142	1	main_slash	11	advance_on_keypress_SLASH	130	stimuli_distractor_diamondtriangles.svg	stimuli_target_circletriangles.svg	13	yes	57	0	141
6.6.1	win	2022-12-14	18:09:18	18:18:01	521458	610898813e48dc2864965122	758914142	1	main_slash	11	main_slash	131	stimuli_distractor_trianglediamonds.svg	stimuli_target_diamondcircles.svg	27	yes	53	1	469
6.6.1	win	2022-12-14	18:09:18	18:18:01	521458	610898813e48dc2864965122	758914142	1	main_slash	11	advance_on_keypress_SLASH	132	stimuli_distractor_trianglediamonds.svg	stimuli_target_diamondcircles.svg	27	yes	57	0	95
6.6.1	win	2022-12-14	18:09:18	18:18:02	522594	610898813e48dc2864965122	758914142	1	main_slash	11	main_slash	133	stimuli_distractor_diamondtriangles.svg	stimuli_distractor_trianglediamonds.svg	37	no	53	0	385
6.6.1	win	2022-12-14	18:09:18	18:18:02	522594	610898813e48dc2864965122	758914142	1	main_slash	11	advance_on_keypress_SLASH	134	stimuli_distractor_diamondtriangles.svg	stimuli_distractor_trianglediamonds.svg	37	no	57	0	166
6.6.1	win	2022-12-14	18:09:18	18:18:04	523946	610898813e48dc2864965122	758914142	1	main_slash	11	main_slash	135	stimuli_distractor_trianglediamonds.svg	stimuli_target_circletriangles.svg	9	yes	53	1	532
6.6.1	win	2022-12-14	18:09:18	18:18:04	523946	610898813e48dc2864965122	758914142	1	main_slash	11	advance_on_keypress_SLASH	136	stimuli_distractor_trianglediamonds.svg	stimuli_target_circletriangles.svg	9	yes	57	0	116
6.6.1	win	2022-12-14	18:09:18	18:18:05	525187	610898813e48dc2864965122	758914142	1	main_slash	11	main_slash	137	stimuli_target_trianglesquares.svg	stimuli_distractor_diamondtriangles.svg	22	yes	53	1	484
6.6.1	win	2022-12-14	18:09:18	18:18:05	525187	610898813e48dc2864965122	758914142	1	main_slash	11	advance_on_keypress_SLASH	138	stimuli_target_trianglesquares.svg	stimuli_distractor_diamondtriangles.svg	22	yes	57	0	85
6.6.1	win	2022-12-14	18:09:18	18:18:06	526314	610898813e48dc2864965122	758914142	1	main_slash	11	main_slash	139	stimuli_distractor_trianglediamonds.svg	stimuli_target_diamondsquares.svg	28	yes	53	1	392
6.6.1	win	2022-12-14	18:09:18	18:18:06	526314	610898813e48dc2864965122	758914142	1	main_slash	11	advance_on_keypress_SLASH	140	stimuli_distractor_trianglediamonds.svg	stimuli_target_diamondsquares.svg	28	yes	57	0	141
6.6.1	win	2022-12-14	18:09:18	18:18:07	527479	610898813e48dc2864965122	758914142	1	main_slash	11	main_slash	141	stimuli_target_diamondsquares.svg	stimuli_distractor_diamondtriangles.svg	24	yes	53	1	373
6.6.1	win	2022-12-14	18:09:18	18:18:07	527479	610898813e48dc2864965122	758914142	1	main_slash	11	advance_on_keypress_SLASH	142	stimuli_target_diamondsquares.svg	stimuli_distractor_diamondtriangles.svg	24	yes	57	0	154
6.6.1	win	2022-12-14	18:09:18	18:18:09	528802	610898813e48dc2864965122	758914142	1	main_slash	11	main_slash	143	stimuli_target_circletriangles.svg	stimuli_distractor_diamondtriangles.svg	5	yes	53	1	521
6.6.1	win	2022-12-14	18:09:18	18:18:09	528802	610898813e48dc2864965122	758914142	1	main_slash	11	advance_on_keypress_SLASH	144	stimuli_target_circletriangles.svg	stimuli_distractor_diamondtriangles.svg	5	yes	57	0	105
6.6.1	win	2022-12-14	18:09:18	18:18:10	529938	610898813e48dc2864965122	758914142	1	main_slash	11	main_slash	145	stimuli_target_circlediamonds.svg	stimuli_distractor_trianglediamonds.svg	2	yes	53	1	372
6.6.1	win	2022-12-14	18:09:18	18:18:10	529938	610898813e48dc2864965122	758914142	1	main_slash	11	advance_on_keypress_SLASH	146	stimuli_target_circlediamonds.svg	stimuli_distractor_trianglediamonds.svg	2	yes	57	0	143
6.6.1	win	2022-12-14	18:09:18	18:18:11	531211	610898813e48dc2864965122	758914142	1	main_slash	11	main_slash	147	stimuli_distractor_diamondtriangles.svg	stimuli_target_squaretriangles.svg	15	yes	53	1	488
6.6.1	win	2022-12-14	18:09:18	18:18:11	531211	610898813e48dc2864965122	758914142	1	main_slash	11	advance_on_keypress_SLASH	148	stimuli_distractor_diamondtriangles.svg	stimuli_target_squaretriangles.svg	15	yes	57	0	128
6.6.1	win	2022-12-14	18:09:18	18:18:12	532426	610898813e48dc2864965122	758914142	1	main_slash	11	main_slash	149	stimuli_distractor_diamondtriangles.svg	stimuli_target_trianglecircles.svg	29	yes	53	1	449
6.6.1	win	2022-12-14	18:09:18	18:18:12	532426	610898813e48dc2864965122	758914142	1	main_slash	11	advance_on_keypress_SLASH	150	stimuli_distractor_diamondtriangles.svg	stimuli_target_trianglecircles.svg	29	yes	57	0	107
6.6.1	win	2022-12-14	18:09:18	18:18:13	533618	610898813e48dc2864965122	758914142	1	main_slash	11	main_slash	151	stimuli_distractor_diamondtriangles.svg	stimuli_target_diamondcircles.svg	31	yes	53	1	453
6.6.1	win	2022-12-14	18:09:18	18:18:13	533618	610898813e48dc2864965122	758914142	1	main_slash	11	advance_on_keypress_SLASH	152	stimuli_distractor_diamondtriangles.svg	stimuli_target_diamondcircles.svg	31	yes	57	0	127
6.6.1	win	2022-12-14	18:09:18	18:18:15	534818	610898813e48dc2864965122	758914142	1	main_slash	11	main_slash	153	stimuli_target_squarediamonds.svg	stimuli_distractor_diamondtriangles.svg	8	yes	53	1	432
6.6.1	win	2022-12-14	18:09:18	18:18:15	534818	610898813e48dc2864965122	758914142	1	main_slash	11	advance_on_keypress_SLASH	154	stimuli_target_squarediamonds.svg	stimuli_distractor_diamondtriangles.svg	8	yes	57	0	147
6.6.1	win	2022-12-14	18:09:18	18:18:16	535992	610898813e48dc2864965122	758914142	1	main_slash	11	main_slash	155	stimuli_target_trianglecircles.svg	stimuli_distractor_trianglediamonds.svg	17	yes	53	1	380
6.6.1	win	2022-12-14	18:09:18	18:18:16	535992	610898813e48dc2864965122	758914142	1	main_slash	11	advance_on_keypress_SLASH	156	stimuli_target_trianglecircles.svg	stimuli_distractor_trianglediamonds.svg	17	yes	57	0	168
6.6.1	win	2022-12-14	18:09:18	18:18:17	537226	610898813e48dc2864965122	758914142	1	main_slash	11	main_slash	157	stimuli_distractor_trianglediamonds.svg	stimuli_distractor_diamondtriangles.svg	35	no	53	0	415
6.6.1	win	2022-12-14	18:09:18	18:18:17	537226	610898813e48dc2864965122	758914142	1	main_slash	11	advance_on_keypress_SLASH	158	stimuli_distractor_trianglediamonds.svg	stimuli_distractor_diamondtriangles.svg	35	no	57	0	700
6.6.1	win	2022-12-14	18:09:18	18:18:20	540568	610898813e48dc2864965122	758914142	1	main_slash	11	main_slash	159	stimuli_target_squarediamonds.svg	stimuli_distractor_trianglediamonds.svg	4	yes	0	0	2000
6.6.1	win	2022-12-14	18:09:18	18:18:20	540568	610898813e48dc2864965122	758914142	1	main_slash	11	advance_on_keypress_SLASH	160	stimuli_target_squarediamonds.svg	stimuli_distractor_trianglediamonds.svg	4	yes	57	0	322