build	computer.platform	date	time	timestamp	time_elapsed_ms	subject	group	session	blockcode	blocknum	trialcode	trialnum	stimulus_left	stimulus_right	stim_index	target_present	response	correct	latency
6.6.1	win	2022-12-24	12:22:33	12:29:57	436935	5a99f17035237b0001128ff2	631817877	1	practice_slash	5	practice_slash	1	stimuli_distractor_trianglediamonds.svg	stimuli_distractor_diamondtriangles.svg	16	no	0	1	2000
6.6.1	win	2022-12-24	12:22:33	12:29:57	436935	5a99f17035237b0001128ff2	631817877	1	practice_slash	5	advance_on_keypress_SLASH	2	stimuli_distractor_trianglediamonds.svg	stimuli_distractor_diamondtriangles.svg	16	no	57	0	2103
6.6.1	win	2022-12-24	12:22:33	12:30:01	441295	5a99f17035237b0001128ff2	631817877	1	practice_slash	5	practice_slash	3	stimuli_distractor_diamondtriangles.svg	stimuli_target_trianglecircles.svg	9	yes	53	1	578
6.6.1	win	2022-12-24	12:22:33	12:30:01	441295	5a99f17035237b0001128ff2	631817877	1	practice_slash	5	advance_on_keypress_SLASH	4	stimuli_distractor_diamondtriangles.svg	stimuli_target_trianglecircles.svg	9	yes	57	0	526
6.6.1	win	2022-12-24	12:22:33	12:30:04	444021	5a99f17035237b0001128ff2	631817877	1	practice_slash	5	practice_slash	5	stimuli_distractor_diamondtriangles.svg	stimuli_target_diamondcircles.svg	8	yes	53	1	541
6.6.1	win	2022-12-24	12:22:33	12:30:04	444021	5a99f17035237b0001128ff2	631817877	1	practice_slash	5	advance_on_keypress_SLASH	6	stimuli_distractor_diamondtriangles.svg	stimuli_target_diamondcircles.svg	8	yes	57	0	2916
6.6.1	win	2022-12-24	12:22:33	12:30:10	449865	5a99f17035237b0001128ff2	631817877	1	practice_slash	5	practice_slash	7	stimuli_target_diamondsquares.svg	stimuli_distractor_diamondtriangles.svg	3	yes	53	1	1273
6.6.1	win	2022-12-24	12:22:33	12:30:10	449865	5a99f17035237b0001128ff2	631817877	1	practice_slash	5	advance_on_keypress_SLASH	8	stimuli_target_diamondsquares.svg	stimuli_distractor_diamondtriangles.svg	3	yes	57	0	106
6.6.1	win	2022-12-24	12:22:33	12:30:13	453623	5a99f17035237b0001128ff2	631817877	1	practice_slash	5	practice_slash	9	stimuli_distractor_diamondtriangles.svg	stimuli_distractor_trianglediamonds.svg	14	no	0	1	2000
6.6.1	win	2022-12-24	12:22:33	12:30:13	453623	5a99f17035237b0001128ff2	631817877	1	practice_slash	5	advance_on_keypress_SLASH	10	stimuli_distractor_diamondtriangles.svg	stimuli_distractor_trianglediamonds.svg	14	no	57	0	992
6.6.1	win	2022-12-24	12:22:33	12:30:17	457199	5a99f17035237b0001128ff2	631817877	1	practice_slash	5	practice_slash	11	stimuli_target_diamondsquares.svg	stimuli_distractor_trianglediamonds.svg	6	yes	53	1	929
6.6.1	win	2022-12-24	12:22:33	12:30:17	457199	5a99f17035237b0001128ff2	631817877	1	practice_slash	5	advance_on_keypress_SLASH	12	stimuli_target_diamondsquares.svg	stimuli_distractor_trianglediamonds.svg	6	yes	57	0	507
6.6.1	win	2022-12-24	12:22:33	12:30:21	461368	5a99f17035237b0001128ff2	631817877	1	practice_slash	5	practice_slash	13	stimuli_distractor_trianglediamonds.svg	stimuli_distractor_trianglediamonds.svg	15	no	0	1	2000
6.6.1	win	2022-12-24	12:22:33	12:30:21	461368	5a99f17035237b0001128ff2	631817877	1	practice_slash	5	advance_on_keypress_SLASH	14	stimuli_distractor_trianglediamonds.svg	stimuli_distractor_trianglediamonds.svg	15	no	57	0	1356
6.6.1	win	2022-12-24	12:22:33	12:30:25	465042	5a99f17035237b0001128ff2	631817877	1	practice_slash	5	practice_slash	15	stimuli_target_circlediamonds.svg	stimuli_distractor_diamondtriangles.svg	1	yes	53	1	661
6.6.1	win	2022-12-24	12:22:33	12:30:25	465042	5a99f17035237b0001128ff2	631817877	1	practice_slash	5	advance_on_keypress_SLASH	16	stimuli_target_circlediamonds.svg	stimuli_distractor_diamondtriangles.svg	1	yes	57	0	606
6.6.1	win	2022-12-24	12:22:33	12:30:28	468059	5a99f17035237b0001128ff2	631817877	1	practice_slash	5	practice_slash	17	stimuli_target_squarediamonds.svg	stimuli_distractor_diamondtriangles.svg	2	yes	53	1	747
6.6.1	win	2022-12-24	12:22:33	12:30:28	468059	5a99f17035237b0001128ff2	631817877	1	practice_slash	5	advance_on_keypress_SLASH	18	stimuli_target_squarediamonds.svg	stimuli_distractor_diamondtriangles.svg	2	yes	57	0	395
6.6.1	win	2022-12-24	12:22:33	12:30:31	470791	5a99f17035237b0001128ff2	631817877	1	practice_slash	5	practice_slash	19	stimuli_distractor_diamondtriangles.svg	stimuli_target_circletriangles.svg	7	yes	53	1	664
6.6.1	win	2022-12-24	12:22:33	12:30:31	470791	5a99f17035237b0001128ff2	631817877	1	practice_slash	5	advance_on_keypress_SLASH	20	stimuli_distractor_diamondtriangles.svg	stimuli_target_circletriangles.svg	7	yes	57	0	24
6.6.1	win	2022-12-24	12:22:33	12:30:33	473256	5a99f17035237b0001128ff2	631817877	1	practice_slash	5	practice_slash	21	stimuli_distractor_trianglediamonds.svg	stimuli_target_circlediamonds.svg	10	yes	53	1	798
6.6.1	win	2022-12-24	12:22:33	12:30:33	473256	5a99f17035237b0001128ff2	631817877	1	practice_slash	5	advance_on_keypress_SLASH	22	stimuli_distractor_trianglediamonds.svg	stimuli_target_circlediamonds.svg	10	yes	57	0	592
6.6.1	win	2022-12-24	12:22:33	12:30:37	477508	5a99f17035237b0001128ff2	631817877	1	practice_slash	5	practice_slash	23	stimuli_distractor_diamondtriangles.svg	stimuli_distractor_diamondtriangles.svg	13	no	0	1	2000
6.6.1	win	2022-12-24	12:22:33	12:30:37	477508	5a99f17035237b0001128ff2	631817877	1	practice_slash	5	advance_on_keypress_SLASH	24	stimuli_distractor_diamondtriangles.svg	stimuli_distractor_diamondtriangles.svg	13	no	57	0	490
6.6.1	win	2022-12-24	12:22:33	12:30:40	480253	5a99f17035237b0001128ff2	631817877	1	practice_slash	5	practice_slash	25	stimuli_target_circlediamonds.svg	stimuli_distractor_trianglediamonds.svg	4	yes	53	1	598
6.6.1	win	2022-12-24	12:22:33	12:30:40	480253	5a99f17035237b0001128ff2	631817877	1	practice_slash	5	advance_on_keypress_SLASH	26	stimuli_target_circlediamonds.svg	stimuli_distractor_trianglediamonds.svg	4	yes	57	0	560
6.6.1	win	2022-12-24	12:22:33	12:30:43	483135	5a99f17035237b0001128ff2	631817877	1	practice_slash	5	practice_slash	27	stimuli_distractor_trianglediamonds.svg	stimuli_target_squarediamonds.svg	11	yes	53	1	666
6.6.1	win	2022-12-24	12:22:33	12:30:43	483135	5a99f17035237b0001128ff2	631817877	1	practice_slash	5	advance_on_keypress_SLASH	28	stimuli_distractor_trianglediamonds.svg	stimuli_target_squarediamonds.svg	11	yes	57	0	489
6.6.1	win	2022-12-24	12:22:33	12:30:46	485798	5a99f17035237b0001128ff2	631817877	1	practice_slash	5	practice_slash	29	stimuli_distractor_trianglediamonds.svg	stimuli_target_diamondcircles.svg	12	yes	53	1	530
6.6.1	win	2022-12-24	12:22:33	12:30:46	485798	5a99f17035237b0001128ff2	631817877	1	practice_slash	5	advance_on_keypress_SLASH	30	stimuli_distractor_trianglediamonds.svg	stimuli_target_diamondcircles.svg	12	yes	57	0	544
6.6.1	win	2022-12-24	12:22:33	12:30:48	488603	5a99f17035237b0001128ff2	631817877	1	practice_slash	5	practice_slash	31	stimuli_target_squarediamonds.svg	stimuli_distractor_trianglediamonds.svg	5	yes	53	1	605
6.6.1	win	2022-12-24	12:22:33	12:30:48	488603	5a99f17035237b0001128ff2	631817877	1	practice_slash	5	advance_on_keypress_SLASH	32	stimuli_target_squarediamonds.svg	stimuli_distractor_trianglediamonds.svg	5	yes	57	0	491
6.6.1	win	2022-12-24	12:22:33	12:31:05	505245	5a99f17035237b0001128ff2	631817877	1	main_slash	7	main_slash	1	stimuli_distractor_diamondtriangles.svg	stimuli_target_diamondcircles.svg	31	yes	53	1	611
6.6.1	win	2022-12-24	12:22:33	12:31:05	505245	5a99f17035237b0001128ff2	631817877	1	main_slash	7	advance_on_keypress_SLASH	2	stimuli_distractor_diamondtriangles.svg	stimuli_target_diamondcircles.svg	31	yes	57	0	637
6.6.1	win	2022-12-24	12:22:33	12:31:07	507342	5a99f17035237b0001128ff2	631817877	1	main_slash	7	main_slash	3	stimuli_target_diamondcircles.svg	stimuli_distractor_trianglediamonds.svg	19	yes	53	1	810
6.6.1	win	2022-12-24	12:22:33	12:31:07	507342	5a99f17035237b0001128ff2	631817877	1	main_slash	7	advance_on_keypress_SLASH	4	stimuli_target_diamondcircles.svg	stimuli_distractor_trianglediamonds.svg	19	yes	57	0	555
6.6.1	win	2022-12-24	12:22:33	12:31:09	509664	5a99f17035237b0001128ff2	631817877	1	main_slash	7	main_slash	5	stimuli_target_diamondsquares.svg	stimuli_distractor_trianglediamonds.svg	20	yes	53	1	1118
6.6.1	win	2022-12-24	12:22:33	12:31:09	509664	5a99f17035237b0001128ff2	631817877	1	main_slash	7	advance_on_keypress_SLASH	6	stimuli_target_diamondsquares.svg	stimuli_distractor_trianglediamonds.svg	20	yes	57	0	543
6.6.1	win	2022-12-24	12:22:33	12:31:13	512863	5a99f17035237b0001128ff2	631817877	1	main_slash	7	main_slash	7	stimuli_distractor_diamondtriangles.svg	stimuli_distractor_trianglediamonds.svg	37	no	0	1	2000
6.6.1	win	2022-12-24	12:22:33	12:31:13	512863	5a99f17035237b0001128ff2	631817877	1	main_slash	7	advance_on_keypress_SLASH	8	stimuli_distractor_diamondtriangles.svg	stimuli_distractor_trianglediamonds.svg	37	no	57	0	462
6.6.1	win	2022-12-24	12:22:33	12:31:15	514776	5a99f17035237b0001128ff2	631817877	1	main_slash	7	main_slash	9	stimuli_distractor_diamondtriangles.svg	stimuli_target_trianglesquares.svg	30	yes	53	1	799
6.6.1	win	2022-12-24	12:22:33	12:31:15	514776	5a99f17035237b0001128ff2	631817877	1	main_slash	7	advance_on_keypress_SLASH	10	stimuli_distractor_diamondtriangles.svg	stimuli_target_trianglesquares.svg	30	yes	57	0	1105
6.6.1	win	2022-12-24	12:22:33	12:31:17	517276	5a99f17035237b0001128ff2	631817877	1	main_slash	7	main_slash	11	stimuli_distractor_diamondtriangles.svg	stimuli_target_trianglecircles.svg	29	yes	53	1	751
6.6.1	win	2022-12-24	12:22:33	12:31:17	517276	5a99f17035237b0001128ff2	631817877	1	main_slash	7	advance_on_keypress_SLASH	12	stimuli_distractor_diamondtriangles.svg	stimuli_target_trianglecircles.svg	29	yes	57	0	871
6.6.1	win	2022-12-24	12:22:33	12:31:21	520790	5a99f17035237b0001128ff2	631817877	1	main_slash	7	main_slash	13	stimuli_distractor_trianglediamonds.svg	stimuli_distractor_diamondtriangles.svg	35	no	0	1	2000
6.6.1	win	2022-12-24	12:22:33	12:31:21	520790	5a99f17035237b0001128ff2	631817877	1	main_slash	7	advance_on_keypress_SLASH	14	stimuli_distractor_trianglediamonds.svg	stimuli_distractor_diamondtriangles.svg	35	no	57	0	341
6.6.1	win	2022-12-24	12:22:33	12:31:22	522541	5a99f17035237b0001128ff2	631817877	1	main_slash	7	main_slash	15	stimuli_distractor_trianglediamonds.svg	stimuli_target_diamondcircles.svg	27	yes	53	1	771
6.6.1	win	2022-12-24	12:22:33	12:31:22	522541	5a99f17035237b0001128ff2	631817877	1	main_slash	7	advance_on_keypress_SLASH	16	stimuli_distractor_trianglediamonds.svg	stimuli_target_diamondcircles.svg	27	yes	57	0	804
6.6.1	win	2022-12-24	12:22:33	12:31:25	524718	5a99f17035237b0001128ff2	631817877	1	main_slash	7	main_slash	17	stimuli_distractor_diamondtriangles.svg	stimuli_target_circlediamonds.svg	14	yes	53	1	731
6.6.1	win	2022-12-24	12:22:33	12:31:25	524718	5a99f17035237b0001128ff2	631817877	1	main_slash	7	advance_on_keypress_SLASH	18	stimuli_distractor_diamondtriangles.svg	stimuli_target_circlediamonds.svg	14	yes	57	0	820
6.6.1	win	2022-12-24	12:22:33	12:31:27	527041	5a99f17035237b0001128ff2	631817877	1	main_slash	7	main_slash	19	stimuli_target_trianglesquares.svg	stimuli_distractor_diamondtriangles.svg	22	yes	53	1	856
6.6.1	win	2022-12-24	12:22:33	12:31:27	527041	5a99f17035237b0001128ff2	631817877	1	main_slash	7	advance_on_keypress_SLASH	20	stimuli_target_trianglesquares.svg	stimuli_distractor_diamondtriangles.svg	22	yes	57	0	589
6.6.1	win	2022-12-24	12:22:33	12:31:29	528923	5a99f17035237b0001128ff2	631817877	1	main_slash	7	main_slash	21	stimuli_target_circletriangles.svg	stimuli_distractor_trianglediamonds.svg	1	yes	53	1	656
6.6.1	win	2022-12-24	12:22:33	12:31:29	528923	5a99f17035237b0001128ff2	631817877	1	main_slash	7	advance_on_keypress_SLASH	22	stimuli_target_circletriangles.svg	stimuli_distractor_trianglediamonds.svg	1	yes	57	0	747
6.6.1	win	2022-12-24	12:22:33	12:31:31	530986	5a99f17035237b0001128ff2	631817877	1	main_slash	7	main_slash	23	stimuli_distractor_diamondtriangles.svg	stimuli_target_squarediamonds.svg	16	yes	53	1	671
6.6.1	win	2022-12-24	12:22:33	12:31:31	530986	5a99f17035237b0001128ff2	631817877	1	main_slash	7	advance_on_keypress_SLASH	24	stimuli_distractor_diamondtriangles.svg	stimuli_target_squarediamonds.svg	16	yes	57	0	694
6.6.1	win	2022-12-24	12:22:33	12:31:33	532980	5a99f17035237b0001128ff2	631817877	1	main_slash	7	main_slash	25	stimuli_target_squarediamonds.svg	stimuli_distractor_diamondtriangles.svg	8	yes	53	1	650
6.6.1	win	2022-12-24	12:22:33	12:31:33	532980	5a99f17035237b0001128ff2	631817877	1	main_slash	7	advance_on_keypress_SLASH	26	stimuli_target_squarediamonds.svg	stimuli_distractor_diamondtriangles.svg	8	yes	57	0	621
6.6.1	win	2022-12-24	12:22:33	12:31:36	536246	5a99f17035237b0001128ff2	631817877	1	main_slash	7	main_slash	27	stimuli_distractor_trianglediamonds.svg	stimuli_distractor_diamondtriangles.svg	36	no	0	1	2000
6.6.1	win	2022-12-24	12:22:33	12:31:36	536246	5a99f17035237b0001128ff2	631817877	1	main_slash	7	advance_on_keypress_SLASH	28	stimuli_distractor_trianglediamonds.svg	stimuli_distractor_diamondtriangles.svg	36	no	57	0	701
6.6.1	win	2022-12-24	12:22:33	12:31:38	538265	5a99f17035237b0001128ff2	631817877	1	main_slash	7	main_slash	29	stimuli_target_trianglecircles.svg	stimuli_distractor_trianglediamonds.svg	17	yes	53	1	672
6.6.1	win	2022-12-24	12:22:33	12:31:38	538265	5a99f17035237b0001128ff2	631817877	1	main_slash	7	advance_on_keypress_SLASH	30	stimuli_target_trianglecircles.svg	stimuli_distractor_trianglediamonds.svg	17	yes	57	0	760
6.6.1	win	2022-12-24	12:22:33	12:31:40	540242	5a99f17035237b0001128ff2	631817877	1	main_slash	7	main_slash	31	stimuli_distractor_diamondtriangles.svg	stimuli_target_diamondsquares.svg	32	yes	53	1	566
6.6.1	win	2022-12-24	12:22:33	12:31:40	540242	5a99f17035237b0001128ff2	631817877	1	main_slash	7	advance_on_keypress_SLASH	32	stimuli_distractor_diamondtriangles.svg	stimuli_target_diamondsquares.svg	32	yes	57	0	488
6.6.1	win	2022-12-24	12:22:33	12:31:42	541996	5a99f17035237b0001128ff2	631817877	1	main_slash	7	main_slash	33	stimuli_target_diamondcircles.svg	stimuli_distractor_diamondtriangles.svg	23	yes	53	1	623
6.6.1	win	2022-12-24	12:22:33	12:31:42	541996	5a99f17035237b0001128ff2	631817877	1	main_slash	7	advance_on_keypress_SLASH	34	stimuli_target_diamondcircles.svg	stimuli_distractor_diamondtriangles.svg	23	yes	57	0	757
6.6.1	win	2022-12-24	12:22:33	12:31:44	544042	5a99f17035237b0001128ff2	631817877	1	main_slash	7	main_slash	35	stimuli_distractor_trianglediamonds.svg	stimuli_target_diamondsquares.svg	28	yes	53	1	653
6.6.1	win	2022-12-24	12:22:33	12:31:44	544042	5a99f17035237b0001128ff2	631817877	1	main_slash	7	advance_on_keypress_SLASH	36	stimuli_distractor_trianglediamonds.svg	stimuli_target_diamondsquares.svg	28	yes	57	0	521
6.6.1	win	2022-12-24	12:22:33	12:31:46	545865	5a99f17035237b0001128ff2	631817877	1	main_slash	7	main_slash	37	stimuli_distractor_diamondtriangles.svg	stimuli_distractor_trianglediamonds.svg	38	no	53	0	660
6.6.1	win	2022-12-24	12:22:33	12:31:46	545865	5a99f17035237b0001128ff2	631817877	1	main_slash	7	advance_on_keypress_SLASH	38	stimuli_distractor_diamondtriangles.svg	stimuli_distractor_trianglediamonds.svg	38	no	57	0	794
6.6.1	win	2022-12-24	12:22:33	12:31:48	547900	5a99f17035237b0001128ff2	631817877	1	main_slash	7	main_slash	39	stimuli_distractor_diamondtriangles.svg	stimuli_target_circletriangles.svg	13	yes	53	1	580
6.6.1	win	2022-12-24	12:22:33	12:31:48	547900	5a99f17035237b0001128ff2	631817877	1	main_slash	7	advance_on_keypress_SLASH	40	stimuli_distractor_diamondtriangles.svg	stimuli_target_circletriangles.svg	13	yes	57	0	499
6.6.1	win	2022-12-24	12:22:33	12:31:49	549635	5a99f17035237b0001128ff2	631817877	1	main_slash	7	main_slash	41	stimuli_distractor_trianglediamonds.svg	stimuli_target_squaretriangles.svg	11	yes	53	1	584
6.6.1	win	2022-12-24	12:22:33	12:31:49	549635	5a99f17035237b0001128ff2	631817877	1	main_slash	7	advance_on_keypress_SLASH	42	stimuli_distractor_trianglediamonds.svg	stimuli_target_squaretriangles.svg	11	yes	57	0	993
6.6.1	win	2022-12-24	12:22:33	12:31:52	551907	5a99f17035237b0001128ff2	631817877	1	main_slash	7	main_slash	43	stimuli_target_diamondsquares.svg	stimuli_distractor_diamondtriangles.svg	24	yes	53	1	623
6.6.1	win	2022-12-24	12:22:33	12:31:52	551907	5a99f17035237b0001128ff2	631817877	1	main_slash	7	advance_on_keypress_SLASH	44	stimuli_target_diamondsquares.svg	stimuli_distractor_diamondtriangles.svg	24	yes	57	0	944
6.6.1	win	2022-12-24	12:22:33	12:31:54	554063	5a99f17035237b0001128ff2	631817877	1	main_slash	7	main_slash	45	stimuli_distractor_trianglediamonds.svg	stimuli_distractor_trianglediamonds.svg	33	no	53	0	564
6.6.1	win	2022-12-24	12:22:33	12:31:54	554063	5a99f17035237b0001128ff2	631817877	1	main_slash	7	advance_on_keypress_SLASH	46	stimuli_distractor_trianglediamonds.svg	stimuli_distractor_trianglediamonds.svg	33	no	57	0	633
6.6.1	win	2022-12-24	12:22:33	12:31:56	556017	5a99f17035237b0001128ff2	631817877	1	main_slash	7	main_slash	47	stimuli_distractor_trianglediamonds.svg	stimuli_target_trianglesquares.svg	26	yes	53	1	669
6.6.1	win	2022-12-24	12:22:33	12:31:56	556017	5a99f17035237b0001128ff2	631817877	1	main_slash	7	advance_on_keypress_SLASH	48	stimuli_distractor_trianglediamonds.svg	stimuli_target_trianglesquares.svg	26	yes	57	0	647
6.6.1	win	2022-12-24	12:22:33	12:31:58	557881	5a99f17035237b0001128ff2	631817877	1	main_slash	7	main_slash	49	stimuli_distractor_trianglediamonds.svg	stimuli_target_squarediamonds.svg	12	yes	53	1	567
6.6.1	win	2022-12-24	12:22:33	12:31:58	557881	5a99f17035237b0001128ff2	631817877	1	main_slash	7	advance_on_keypress_SLASH	50	stimuli_distractor_trianglediamonds.svg	stimuli_target_squarediamonds.svg	12	yes	57	0	665
6.6.1	win	2022-12-24	12:22:33	12:32:00	559784	5a99f17035237b0001128ff2	631817877	1	main_slash	7	main_slash	51	stimuli_target_circlediamonds.svg	stimuli_distractor_diamondtriangles.svg	6	yes	53	1	589
6.6.1	win	2022-12-24	12:22:33	12:32:00	559784	5a99f17035237b0001128ff2	631817877	1	main_slash	7	advance_on_keypress_SLASH	52	stimuli_target_circlediamonds.svg	stimuli_distractor_diamondtriangles.svg	6	yes	57	0	532
6.6.1	win	2022-12-24	12:22:33	12:32:01	561539	5a99f17035237b0001128ff2	631817877	1	main_slash	7	main_slash	53	stimuli_target_squaretriangles.svg	stimuli_distractor_trianglediamonds.svg	3	yes	53	1	578
6.6.1	win	2022-12-24	12:22:33	12:32:01	561539	5a99f17035237b0001128ff2	631817877	1	main_slash	7	advance_on_keypress_SLASH	54	stimuli_target_squaretriangles.svg	stimuli_distractor_trianglediamonds.svg	3	yes	57	0	611
6.6.1	win	2022-12-24	12:22:33	12:32:03	563356	5a99f17035237b0001128ff2	631817877	1	main_slash	7	main_slash	55	stimuli_target_trianglecircles.svg	stimuli_distractor_diamondtriangles.svg	21	yes	53	1	547
6.6.1	win	2022-12-24	12:22:33	12:32:03	563356	5a99f17035237b0001128ff2	631817877	1	main_slash	7	advance_on_keypress_SLASH	56	stimuli_target_trianglecircles.svg	stimuli_distractor_diamondtriangles.svg	21	yes	57	0	1436
6.6.1	win	2022-12-24	12:22:33	12:32:06	566013	5a99f17035237b0001128ff2	631817877	1	main_slash	7	main_slash	57	stimuli_target_trianglesquares.svg	stimuli_distractor_trianglediamonds.svg	18	yes	53	1	572
6.6.1	win	2022-12-24	12:22:33	12:32:06	566013	5a99f17035237b0001128ff2	631817877	1	main_slash	7	advance_on_keypress_SLASH	58	stimuli_target_trianglesquares.svg	stimuli_distractor_trianglediamonds.svg	18	yes	57	0	2781
6.6.1	win	2022-12-24	12:22:33	12:32:10	570025	5a99f17035237b0001128ff2	631817877	1	main_slash	7	main_slash	59	stimuli_distractor_trianglediamonds.svg	stimuli_target_circletriangles.svg	9	yes	53	1	588
6.6.1	win	2022-12-24	12:22:33	12:32:10	570025	5a99f17035237b0001128ff2	631817877	1	main_slash	7	advance_on_keypress_SLASH	60	stimuli_distractor_trianglediamonds.svg	stimuli_target_circletriangles.svg	9	yes	57	0	734
6.6.1	win	2022-12-24	12:22:33	12:32:12	571918	5a99f17035237b0001128ff2	631817877	1	main_slash	7	main_slash	61	stimuli_target_circlediamonds.svg	stimuli_distractor_trianglediamonds.svg	2	yes	53	1	514
6.6.1	win	2022-12-24	12:22:33	12:32:12	571918	5a99f17035237b0001128ff2	631817877	1	main_slash	7	advance_on_keypress_SLASH	62	stimuli_target_circlediamonds.svg	stimuli_distractor_trianglediamonds.svg	2	yes	57	0	600
6.6.1	win	2022-12-24	12:22:33	12:32:14	573937	5a99f17035237b0001128ff2	631817877	1	main_slash	7	main_slash	63	stimuli_distractor_trianglediamonds.svg	stimuli_distractor_trianglediamonds.svg	34	no	53	0	769
6.6.1	win	2022-12-24	12:22:33	12:32:14	573937	5a99f17035237b0001128ff2	631817877	1	main_slash	7	advance_on_keypress_SLASH	64	stimuli_distractor_trianglediamonds.svg	stimuli_distractor_trianglediamonds.svg	34	no	57	0	650
6.6.1	win	2022-12-24	12:22:33	12:32:16	575944	5a99f17035237b0001128ff2	631817877	1	main_slash	7	main_slash	65	stimuli_target_circletriangles.svg	stimuli_distractor_diamondtriangles.svg	5	yes	53	1	710
6.6.1	win	2022-12-24	12:22:33	12:32:16	575944	5a99f17035237b0001128ff2	631817877	1	main_slash	7	advance_on_keypress_SLASH	66	stimuli_target_circletriangles.svg	stimuli_distractor_diamondtriangles.svg	5	yes	57	0	2578
6.6.1	win	2022-12-24	12:22:33	12:32:20	579719	5a99f17035237b0001128ff2	631817877	1	main_slash	7	main_slash	67	stimuli_target_squarediamonds.svg	stimuli_distractor_trianglediamonds.svg	4	yes	53	1	538
6.6.1	win	2022-12-24	12:22:33	12:32:20	579719	5a99f17035237b0001128ff2	631817877	1	main_slash	7	advance_on_keypress_SLASH	68	stimuli_target_squarediamonds.svg	stimuli_distractor_trianglediamonds.svg	4	yes	57	0	1907
6.6.1	win	2022-12-24	12:22:33	12:32:24	584279	5a99f17035237b0001128ff2	631817877	1	main_slash	7	main_slash	69	stimuli_distractor_diamondtriangles.svg	stimuli_distractor_diamondtriangles.svg	39	no	0	1	2000
6.6.1	win	2022-12-24	12:22:33	12:32:24	584279	5a99f17035237b0001128ff2	631817877	1	main_slash	7	advance_on_keypress_SLASH	70	stimuli_distractor_diamondtriangles.svg	stimuli_distractor_diamondtriangles.svg	39	no	57	0	643
6.6.1	win	2022-12-24	12:22:33	12:32:26	586123	5a99f17035237b0001128ff2	631817877	1	main_slash	7	main_slash	71	stimuli_distractor_diamondtriangles.svg	stimuli_target_squaretriangles.svg	15	yes	53	1	547
6.6.1	win	2022-12-24	12:22:33	12:32:26	586123	5a99f17035237b0001128ff2	631817877	1	main_slash	7	advance_on_keypress_SLASH	72	stimuli_distractor_diamondtriangles.svg	stimuli_target_squaretriangles.svg	15	yes	57	0	955
6.6.1	win	2022-12-24	12:22:33	12:32:28	588292	5a99f17035237b0001128ff2	631817877	1	main_slash	7	main_slash	73	stimuli_target_squaretriangles.svg	stimuli_distractor_diamondtriangles.svg	7	yes	53	1	566
6.6.1	win	2022-12-24	12:22:33	12:32:28	588292	5a99f17035237b0001128ff2	631817877	1	main_slash	7	advance_on_keypress_SLASH	74	stimuli_target_squaretriangles.svg	stimuli_distractor_diamondtriangles.svg	7	yes	57	0	603
6.6.1	win	2022-12-24	12:22:33	12:32:30	590080	5a99f17035237b0001128ff2	631817877	1	main_slash	7	main_slash	75	stimuli_distractor_trianglediamonds.svg	stimuli_target_circlediamonds.svg	10	yes	53	1	540
6.6.1	win	2022-12-24	12:22:33	12:32:30	590080	5a99f17035237b0001128ff2	631817877	1	main_slash	7	advance_on_keypress_SLASH	76	stimuli_distractor_trianglediamonds.svg	stimuli_target_circlediamonds.svg	10	yes	57	0	617
6.6.1	win	2022-12-24	12:22:33	12:32:32	591854	5a99f17035237b0001128ff2	631817877	1	main_slash	7	main_slash	77	stimuli_distractor_trianglediamonds.svg	stimuli_target_trianglecircles.svg	25	yes	53	1	508
6.6.1	win	2022-12-24	12:22:33	12:32:32	591854	5a99f17035237b0001128ff2	631817877	1	main_slash	7	advance_on_keypress_SLASH	78	stimuli_distractor_trianglediamonds.svg	stimuli_target_trianglecircles.svg	25	yes	57	0	1218
6.6.1	win	2022-12-24	12:22:33	12:32:35	594729	5a99f17035237b0001128ff2	631817877	1	main_slash	7	main_slash	79	stimuli_distractor_diamondtriangles.svg	stimuli_distractor_diamondtriangles.svg	40	no	53	0	1008
6.6.1	win	2022-12-24	12:22:33	12:32:35	594729	5a99f17035237b0001128ff2	631817877	1	main_slash	7	advance_on_keypress_SLASH	80	stimuli_distractor_diamondtriangles.svg	stimuli_distractor_diamondtriangles.svg	40	no	57	0	633
6.6.1	win	2022-12-24	12:22:33	12:32:36	596649	5a99f17035237b0001128ff2	631817877	1	main_slash	7	main_slash	81	stimuli_target_trianglesquares.svg	stimuli_distractor_trianglediamonds.svg	18	yes	53	1	631
6.6.1	win	2022-12-24	12:22:33	12:32:36	596649	5a99f17035237b0001128ff2	631817877	1	main_slash	7	advance_on_keypress_SLASH	82	stimuli_target_trianglesquares.svg	stimuli_distractor_trianglediamonds.svg	18	yes	57	0	763
6.6.1	win	2022-12-24	12:22:33	12:32:40	600068	5a99f17035237b0001128ff2	631817877	1	main_slash	7	main_slash	83	stimuli_distractor_diamondtriangles.svg	stimuli_distractor_diamondtriangles.svg	39	no	0	1	2000
6.6.1	win	2022-12-24	12:22:33	12:32:40	600068	5a99f17035237b0001128ff2	631817877	1	main_slash	7	advance_on_keypress_SLASH	84	stimuli_distractor_diamondtriangles.svg	stimuli_distractor_diamondtriangles.svg	39	no	57	0	298
6.6.1	win	2022-12-24	12:22:33	12:32:41	601684	5a99f17035237b0001128ff2	631817877	1	main_slash	7	main_slash	85	stimuli_distractor_trianglediamonds.svg	stimuli_target_squaretriangles.svg	11	yes	53	1	669
6.6.1	win	2022-12-24	12:22:33	12:32:41	601684	5a99f17035237b0001128ff2	631817877	1	main_slash	7	advance_on_keypress_SLASH	86	stimuli_distractor_trianglediamonds.svg	stimuli_target_squaretriangles.svg	11	yes	57	0	1228
6.6.1	win	2022-12-24	12:22:33	12:32:44	604306	5a99f17035237b0001128ff2	631817877	1	main_slash	7	main_slash	87	stimuli_target_circlediamonds.svg	stimuli_distractor_diamondtriangles.svg	6	yes	53	1	743
6.6.1	win	2022-12-24	12:22:33	12:32:44	604306	5a99f17035237b0001128ff2	631817877	1	main_slash	7	advance_on_keypress_SLASH	88	stimuli_target_circlediamonds.svg	stimuli_distractor_diamondtriangles.svg	6	yes	57	0	753
6.6.1	win	2022-12-24	12:22:33	12:32:47	606745	5a99f17035237b0001128ff2	631817877	1	main_slash	7	main_slash	89	stimuli_target_circletriangles.svg	stimuli_distractor_diamondtriangles.svg	5	yes	53	1	1033
6.6.1	win	2022-12-24	12:22:33	12:32:47	606745	5a99f17035237b0001128ff2	631817877	1	main_slash	7	advance_on_keypress_SLASH	90	stimuli_target_circletriangles.svg	stimuli_distractor_diamondtriangles.svg	5	yes	57	0	796
6.6.1	win	2022-12-24	12:22:33	12:32:49	609149	5a99f17035237b0001128ff2	631817877	1	main_slash	7	main_slash	91	stimuli_target_squaretriangles.svg	stimuli_distractor_diamondtriangles.svg	7	yes	53	1	956
6.6.1	win	2022-12-24	12:22:33	12:32:49	609149	5a99f17035237b0001128ff2	631817877	1	main_slash	7	advance_on_keypress_SLASH	92	stimuli_target_squaretriangles.svg	stimuli_distractor_diamondtriangles.svg	7	yes	57	0	1028
6.6.1	win	2022-12-24	12:22:33	12:32:51	611658	5a99f17035237b0001128ff2	631817877	1	main_slash	7	main_slash	93	stimuli_target_diamondcircles.svg	stimuli_distractor_diamondtriangles.svg	23	yes	53	1	834
6.6.1	win	2022-12-24	12:22:33	12:32:51	611658	5a99f17035237b0001128ff2	631817877	1	main_slash	7	advance_on_keypress_SLASH	94	stimuli_target_diamondcircles.svg	stimuli_distractor_diamondtriangles.svg	23	yes	57	0	638
6.6.1	win	2022-12-24	12:22:33	12:32:53	613621	5a99f17035237b0001128ff2	631817877	1	main_slash	7	main_slash	95	stimuli_target_circletriangles.svg	stimuli_distractor_trianglediamonds.svg	1	yes	53	1	681
6.6.1	win	2022-12-24	12:22:33	12:32:53	613621	5a99f17035237b0001128ff2	631817877	1	main_slash	7	advance_on_keypress_SLASH	96	stimuli_target_circletriangles.svg	stimuli_distractor_trianglediamonds.svg	1	yes	57	0	658
6.6.1	win	2022-12-24	12:22:33	12:32:55	615630	5a99f17035237b0001128ff2	631817877	1	main_slash	7	main_slash	97	stimuli_distractor_diamondtriangles.svg	stimuli_target_circletriangles.svg	13	yes	53	1	691
6.6.1	win	2022-12-24	12:22:33	12:32:55	615630	5a99f17035237b0001128ff2	631817877	1	main_slash	7	advance_on_keypress_SLASH	98	stimuli_distractor_diamondtriangles.svg	stimuli_target_circletriangles.svg	13	yes	57	0	609
6.6.1	win	2022-12-24	12:22:33	12:32:57	617307	5a99f17035237b0001128ff2	631817877	1	main_slash	7	main_slash	99	stimuli_distractor_trianglediamonds.svg	stimuli_target_squarediamonds.svg	12	yes	53	1	404
6.6.1	win	2022-12-24	12:22:33	12:32:57	617307	5a99f17035237b0001128ff2	631817877	1	main_slash	7	advance_on_keypress_SLASH	100	stimuli_distractor_trianglediamonds.svg	stimuli_target_squarediamonds.svg	12	yes	57	0	933
6.6.1	win	2022-12-24	12:22:33	12:32:59	619551	5a99f17035237b0001128ff2	631817877	1	main_slash	7	main_slash	101	stimuli_target_diamondsquares.svg	stimuli_distractor_trianglediamonds.svg	20	yes	53	1	664
6.6.1	win	2022-12-24	12:22:33	12:32:59	619551	5a99f17035237b0001128ff2	631817877	1	main_slash	7	advance_on_keypress_SLASH	102	stimuli_target_diamondsquares.svg	stimuli_distractor_trianglediamonds.svg	20	yes	57	0	543
6.6.1	win	2022-12-24	12:22:33	12:33:01	621195	5a99f17035237b0001128ff2	631817877	1	main_slash	7	main_slash	103	stimuli_distractor_diamondtriangles.svg	stimuli_target_trianglecircles.svg	29	yes	53	1	443
6.6.1	win	2022-12-24	12:22:33	12:33:01	621195	5a99f17035237b0001128ff2	631817877	1	main_slash	7	advance_on_keypress_SLASH	104	stimuli_distractor_diamondtriangles.svg	stimuli_target_trianglecircles.svg	29	yes	57	0	574
6.6.1	win	2022-12-24	12:22:33	12:33:03	622970	5a99f17035237b0001128ff2	631817877	1	main_slash	7	main_slash	105	stimuli_distractor_trianglediamonds.svg	stimuli_target_diamondsquares.svg	28	yes	53	1	553
6.6.1	win	2022-12-24	12:22:33	12:33:03	622970	5a99f17035237b0001128ff2	631817877	1	main_slash	7	advance_on_keypress_SLASH	106	stimuli_distractor_trianglediamonds.svg	stimuli_target_diamondsquares.svg	28	yes	57	0	991
6.6.1	win	2022-12-24	12:22:33	12:33:05	625469	5a99f17035237b0001128ff2	631817877	1	main_slash	7	main_slash	107	stimuli_distractor_diamondtriangles.svg	stimuli_distractor_trianglediamonds.svg	37	no	53	0	853
6.6.1	win	2022-12-24	12:22:33	12:33:05	625469	5a99f17035237b0001128ff2	631817877	1	main_slash	7	advance_on_keypress_SLASH	108	stimuli_distractor_diamondtriangles.svg	stimuli_distractor_trianglediamonds.svg	37	no	57	0	539
6.6.1	win	2022-12-24	12:22:33	12:33:07	627448	5a99f17035237b0001128ff2	631817877	1	main_slash	7	main_slash	109	stimuli_target_diamondcircles.svg	stimuli_distractor_trianglediamonds.svg	19	yes	53	1	801
6.6.1	win	2022-12-24	12:22:33	12:33:07	627448	5a99f17035237b0001128ff2	631817877	1	main_slash	7	advance_on_keypress_SLASH	110	stimuli_target_diamondcircles.svg	stimuli_distractor_trianglediamonds.svg	19	yes	57	0	562
6.6.1	win	2022-12-24	12:22:33	12:33:09	629459	5a99f17035237b0001128ff2	631817877	1	main_slash	7	main_slash	111	stimuli_distractor_trianglediamonds.svg	stimuli_distractor_trianglediamonds.svg	33	no	53	0	795
6.6.1	win	2022-12-24	12:22:33	12:33:09	629459	5a99f17035237b0001128ff2	631817877	1	main_slash	7	advance_on_keypress_SLASH	112	stimuli_distractor_trianglediamonds.svg	stimuli_distractor_trianglediamonds.svg	33	no	57	0	521
6.6.1	win	2022-12-24	12:22:33	12:33:12	632628	5a99f17035237b0001128ff2	631817877	1	main_slash	7	main_slash	113	stimuli_distractor_diamondtriangles.svg	stimuli_distractor_diamondtriangles.svg	40	no	0	1	2000
6.6.1	win	2022-12-24	12:22:33	12:33:12	632628	5a99f17035237b0001128ff2	631817877	1	main_slash	7	advance_on_keypress_SLASH	114	stimuli_distractor_diamondtriangles.svg	stimuli_distractor_diamondtriangles.svg	40	no	57	0	5
6.6.1	win	2022-12-24	12:22:33	12:33:14	633936	5a99f17035237b0001128ff2	631817877	1	main_slash	7	main_slash	115	stimuli_distractor_diamondtriangles.svg	stimuli_target_squarediamonds.svg	16	yes	53	1	643
6.6.1	win	2022-12-24	12:22:33	12:33:14	633936	5a99f17035237b0001128ff2	631817877	1	main_slash	7	advance_on_keypress_SLASH	116	stimuli_distractor_diamondtriangles.svg	stimuli_target_squarediamonds.svg	16	yes	57	0	1074
6.6.1	win	2022-12-24	12:22:33	12:33:16	636097	5a99f17035237b0001128ff2	631817877	1	main_slash	7	main_slash	117	stimuli_distractor_diamondtriangles.svg	stimuli_target_diamondsquares.svg	32	yes	53	1	439
6.6.1	win	2022-12-24	12:22:33	12:33:16	636097	5a99f17035237b0001128ff2	631817877	1	main_slash	7	advance_on_keypress_SLASH	118	stimuli_distractor_diamondtriangles.svg	stimuli_target_diamondsquares.svg	32	yes	57	0	568
6.6.1	win	2022-12-24	12:22:33	12:33:18	637841	5a99f17035237b0001128ff2	631817877	1	main_slash	7	main_slash	119	stimuli_distractor_diamondtriangles.svg	stimuli_target_squaretriangles.svg	15	yes	53	1	534
6.6.1	win	2022-12-24	12:22:33	12:33:18	637841	5a99f17035237b0001128ff2	631817877	1	main_slash	7	advance_on_keypress_SLASH	120	stimuli_distractor_diamondtriangles.svg	stimuli_target_squaretriangles.svg	15	yes	57	0	561
6.6.1	win	2022-12-24	12:22:33	12:33:20	639770	5a99f17035237b0001128ff2	631817877	1	main_slash	7	main_slash	121	stimuli_target_squarediamonds.svg	stimuli_distractor_trianglediamonds.svg	4	yes	53	1	715
6.6.1	win	2022-12-24	12:22:33	12:33:20	639770	5a99f17035237b0001128ff2	631817877	1	main_slash	7	advance_on_keypress_SLASH	122	stimuli_target_squarediamonds.svg	stimuli_distractor_trianglediamonds.svg	4	yes	57	0	513
6.6.1	win	2022-12-24	12:22:33	12:33:22	641720	5a99f17035237b0001128ff2	631817877	1	main_slash	7	main_slash	123	stimuli_distractor_trianglediamonds.svg	stimuli_target_circletriangles.svg	9	yes	53	1	784
6.6.1	win	2022-12-24	12:22:33	12:33:22	641720	5a99f17035237b0001128ff2	631817877	1	main_slash	7	advance_on_keypress_SLASH	124	stimuli_distractor_trianglediamonds.svg	stimuli_target_circletriangles.svg	9	yes	57	0	527
6.6.1	win	2022-12-24	12:22:33	12:33:23	643617	5a99f17035237b0001128ff2	631817877	1	main_slash	7	main_slash	125	stimuli_target_trianglecircles.svg	stimuli_distractor_trianglediamonds.svg	17	yes	53	1	714
6.6.1	win	2022-12-24	12:22:33	12:33:23	643617	5a99f17035237b0001128ff2	631817877	1	main_slash	7	advance_on_keypress_SLASH	126	stimuli_target_trianglecircles.svg	stimuli_distractor_trianglediamonds.svg	17	yes	57	0	563
6.6.1	win	2022-12-24	12:22:33	12:33:25	645591	5a99f17035237b0001128ff2	631817877	1	main_slash	7	main_slash	127	stimuli_distractor_diamondtriangles.svg	stimuli_target_diamondcircles.svg	31	yes	53	1	756
6.6.1	win	2022-12-24	12:22:33	12:33:25	645591	5a99f17035237b0001128ff2	631817877	1	main_slash	7	advance_on_keypress_SLASH	128	stimuli_distractor_diamondtriangles.svg	stimuli_target_diamondcircles.svg	31	yes	57	0	555
6.6.1	win	2022-12-24	12:22:33	12:33:27	647656	5a99f17035237b0001128ff2	631817877	1	main_slash	7	main_slash	129	stimuli_distractor_diamondtriangles.svg	stimuli_target_circlediamonds.svg	14	yes	53	1	873
6.6.1	win	2022-12-24	12:22:33	12:33:27	647656	5a99f17035237b0001128ff2	631817877	1	main_slash	7	advance_on_keypress_SLASH	130	stimuli_distractor_diamondtriangles.svg	stimuli_target_circlediamonds.svg	14	yes	57	0	604
6.6.1	win	2022-12-24	12:22:33	12:33:30	649803	5a99f17035237b0001128ff2	631817877	1	main_slash	7	main_slash	131	stimuli_distractor_trianglediamonds.svg	stimuli_target_trianglecircles.svg	25	yes	53	1	906
6.6.1	win	2022-12-24	12:22:33	12:33:30	649803	5a99f17035237b0001128ff2	631817877	1	main_slash	7	advance_on_keypress_SLASH	132	stimuli_distractor_trianglediamonds.svg	stimuli_target_trianglecircles.svg	25	yes	57	0	581
6.6.1	win	2022-12-24	12:22:33	12:33:31	651520	5a99f17035237b0001128ff2	631817877	1	main_slash	7	main_slash	133	stimuli_target_diamondsquares.svg	stimuli_distractor_diamondtriangles.svg	24	yes	53	1	490
6.6.1	win	2022-12-24	12:22:33	12:33:31	651520	5a99f17035237b0001128ff2	631817877	1	main_slash	7	advance_on_keypress_SLASH	134	stimuli_target_diamondsquares.svg	stimuli_distractor_diamondtriangles.svg	24	yes	57	0	623
6.6.1	win	2022-12-24	12:22:33	12:33:33	653694	5a99f17035237b0001128ff2	631817877	1	main_slash	7	main_slash	135	stimuli_distractor_trianglediamonds.svg	stimuli_target_circlediamonds.svg	10	yes	53	1	916
6.6.1	win	2022-12-24	12:22:33	12:33:33	653694	5a99f17035237b0001128ff2	631817877	1	main_slash	7	advance_on_keypress_SLASH	136	stimuli_distractor_trianglediamonds.svg	stimuli_target_circlediamonds.svg	10	yes	57	0	1022
6.6.1	win	2022-12-24	12:22:33	12:33:36	656151	5a99f17035237b0001128ff2	631817877	1	main_slash	7	main_slash	137	stimuli_target_circlediamonds.svg	stimuli_distractor_trianglediamonds.svg	2	yes	53	1	791
6.6.1	win	2022-12-24	12:22:33	12:33:36	656151	5a99f17035237b0001128ff2	631817877	1	main_slash	7	advance_on_keypress_SLASH	138	stimuli_target_circlediamonds.svg	stimuli_distractor_trianglediamonds.svg	2	yes	57	0	650
6.6.1	win	2022-12-24	12:22:33	12:33:38	658196	5a99f17035237b0001128ff2	631817877	1	main_slash	7	main_slash	139	stimuli_target_trianglesquares.svg	stimuli_distractor_diamondtriangles.svg	22	yes	53	1	738
6.6.1	win	2022-12-24	12:22:33	12:33:38	658196	5a99f17035237b0001128ff2	631817877	1	main_slash	7	advance_on_keypress_SLASH	140	stimuli_target_trianglesquares.svg	stimuli_distractor_diamondtriangles.svg	22	yes	57	0	505
6.6.1	win	2022-12-24	12:22:33	12:33:40	660248	5a99f17035237b0001128ff2	631817877	1	main_slash	7	main_slash	141	stimuli_distractor_diamondtriangles.svg	stimuli_distractor_trianglediamonds.svg	38	no	53	0	906
6.6.1	win	2022-12-24	12:22:33	12:33:40	660248	5a99f17035237b0001128ff2	631817877	1	main_slash	7	advance_on_keypress_SLASH	142	stimuli_distractor_diamondtriangles.svg	stimuli_distractor_trianglediamonds.svg	38	no	57	0	467
6.6.1	win	2022-12-24	12:22:33	12:33:42	662337	5a99f17035237b0001128ff2	631817877	1	main_slash	7	main_slash	143	stimuli_target_squaretriangles.svg	stimuli_distractor_trianglediamonds.svg	3	yes	53	1	981
6.6.1	win	2022-12-24	12:22:33	12:33:42	662337	5a99f17035237b0001128ff2	631817877	1	main_slash	7	advance_on_keypress_SLASH	144	stimuli_target_squaretriangles.svg	stimuli_distractor_trianglediamonds.svg	3	yes	57	0	806
6.6.1	win	2022-12-24	12:22:33	12:33:45	664758	5a99f17035237b0001128ff2	631817877	1	main_slash	7	main_slash	145	stimuli_distractor_trianglediamonds.svg	stimuli_distractor_diamondtriangles.svg	36	no	53	0	970
6.6.1	win	2022-12-24	12:22:33	12:33:45	664758	5a99f17035237b0001128ff2	631817877	1	main_slash	7	advance_on_keypress_SLASH	146	stimuli_distractor_trianglediamonds.svg	stimuli_distractor_diamondtriangles.svg	36	no	57	0	656
6.6.1	win	2022-12-24	12:22:33	12:33:47	666775	5a99f17035237b0001128ff2	631817877	1	main_slash	7	main_slash	147	stimuli_target_trianglecircles.svg	stimuli_distractor_diamondtriangles.svg	21	yes	53	1	722
6.6.1	win	2022-12-24	12:22:33	12:33:47	666775	5a99f17035237b0001128ff2	631817877	1	main_slash	7	advance_on_keypress_SLASH	148	stimuli_target_trianglecircles.svg	stimuli_distractor_diamondtriangles.svg	21	yes	57	0	611
6.6.1	win	2022-12-24	12:22:33	12:33:48	668569	5a99f17035237b0001128ff2	631817877	1	main_slash	7	main_slash	149	stimuli_distractor_diamondtriangles.svg	stimuli_target_trianglesquares.svg	30	yes	53	1	535
6.6.1	win	2022-12-24	12:22:33	12:33:48	668569	5a99f17035237b0001128ff2	631817877	1	main_slash	7	advance_on_keypress_SLASH	150	stimuli_distractor_diamondtriangles.svg	stimuli_target_trianglesquares.svg	30	yes	57	0	651
6.6.1	win	2022-12-24	12:22:33	12:33:51	670969	5a99f17035237b0001128ff2	631817877	1	main_slash	7	main_slash	151	stimuli_distractor_trianglediamonds.svg	stimuli_target_trianglesquares.svg	26	yes	53	1	1102
6.6.1	win	2022-12-24	12:22:33	12:33:51	670969	5a99f17035237b0001128ff2	631817877	1	main_slash	7	advance_on_keypress_SLASH	152	stimuli_distractor_trianglediamonds.svg	stimuli_target_trianglesquares.svg	26	yes	57	0	927
6.6.1	win	2022-12-24	12:22:33	12:33:53	673017	5a99f17035237b0001128ff2	631817877	1	main_slash	7	main_slash	153	stimuli_distractor_trianglediamonds.svg	stimuli_target_diamondcircles.svg	27	yes	53	1	468
6.6.1	win	2022-12-24	12:22:33	12:33:53	673017	5a99f17035237b0001128ff2	631817877	1	main_slash	7	advance_on_keypress_SLASH	154	stimuli_distractor_trianglediamonds.svg	stimuli_target_diamondcircles.svg	27	yes	57	0	614
6.6.1	win	2022-12-24	12:22:33	12:33:55	675023	5a99f17035237b0001128ff2	631817877	1	main_slash	7	main_slash	155	stimuli_distractor_trianglediamonds.svg	stimuli_distractor_diamondtriangles.svg	35	no	53	0	743
6.6.1	win	2022-12-24	12:22:33	12:33:55	675023	5a99f17035237b0001128ff2	631817877	1	main_slash	7	advance_on_keypress_SLASH	156	stimuli_distractor_trianglediamonds.svg	stimuli_distractor_diamondtriangles.svg	35	no	57	0	351
6.6.1	win	2022-12-24	12:22:33	12:33:58	678029	5a99f17035237b0001128ff2	631817877	1	main_slash	7	main_slash	157	stimuli_distractor_trianglediamonds.svg	stimuli_distractor_trianglediamonds.svg	34	no	0	1	2000
6.6.1	win	2022-12-24	12:22:33	12:33:58	678029	5a99f17035237b0001128ff2	631817877	1	main_slash	7	advance_on_keypress_SLASH	158	stimuli_distractor_trianglediamonds.svg	stimuli_distractor_trianglediamonds.svg	34	no	57	0	585
6.6.1	win	2022-12-24	12:22:33	12:34:00	680009	5a99f17035237b0001128ff2	631817877	1	main_slash	7	main_slash	159	stimuli_target_squarediamonds.svg	stimuli_distractor_diamondtriangles.svg	8	yes	53	1	749
6.6.1	win	2022-12-24	12:22:33	12:34:00	680009	5a99f17035237b0001128ff2	631817877	1	main_slash	7	advance_on_keypress_SLASH	160	stimuli_target_squarediamonds.svg	stimuli_distractor_diamondtriangles.svg	8	yes	57	0	665
6.6.1	win	2022-12-24	12:22:33	12:34:20	700430	5a99f17035237b0001128ff2	631817877	1	practice_z	9	practice_z	1	stimuli_distractor_trianglediamonds.svg	stimuli_distractor_diamondtriangles.svg	16	no	44	0	497
6.6.1	win	2022-12-24	12:22:33	12:34:20	700430	5a99f17035237b0001128ff2	631817877	1	practice_z	9	advance_on_keypress_ZEE	2	stimuli_distractor_trianglediamonds.svg	stimuli_distractor_diamondtriangles.svg	16	no	57	0	1427
6.6.1	win	2022-12-24	12:22:33	12:34:25	705512	5a99f17035237b0001128ff2	631817877	1	practice_z	9	practice_z	3	stimuli_distractor_diamondtriangles.svg	stimuli_distractor_trianglediamonds.svg	14	no	0	1	2000
6.6.1	win	2022-12-24	12:22:33	12:34:25	705512	5a99f17035237b0001128ff2	631817877	1	practice_z	9	advance_on_keypress_ZEE	4	stimuli_distractor_diamondtriangles.svg	stimuli_distractor_trianglediamonds.svg	14	no	57	0	391
6.6.1	win	2022-12-24	12:22:33	12:34:28	708368	5a99f17035237b0001128ff2	631817877	1	practice_z	9	practice_z	5	stimuli_target_diamondsquares.svg	stimuli_distractor_diamondtriangles.svg	3	yes	44	1	808
6.6.1	win	2022-12-24	12:22:33	12:34:28	708368	5a99f17035237b0001128ff2	631817877	1	practice_z	9	advance_on_keypress_ZEE	6	stimuli_target_diamondsquares.svg	stimuli_distractor_diamondtriangles.svg	3	yes	57	0	1239
6.6.1	win	2022-12-24	12:22:33	12:34:32	712026	5a99f17035237b0001128ff2	631817877	1	practice_z	9	practice_z	7	stimuli_distractor_diamondtriangles.svg	stimuli_target_trianglecircles.svg	9	yes	44	1	769
6.6.1	win	2022-12-24	12:22:33	12:34:32	712026	5a99f17035237b0001128ff2	631817877	1	practice_z	9	advance_on_keypress_ZEE	8	stimuli_distractor_diamondtriangles.svg	stimuli_target_trianglecircles.svg	9	yes	57	0	433
6.6.1	win	2022-12-24	12:22:33	12:34:35	714841	5a99f17035237b0001128ff2	631817877	1	practice_z	9	practice_z	9	stimuli_target_circlediamonds.svg	stimuli_distractor_trianglediamonds.svg	4	yes	44	1	735
6.6.1	win	2022-12-24	12:22:33	12:34:35	714841	5a99f17035237b0001128ff2	631817877	1	practice_z	9	advance_on_keypress_ZEE	10	stimuli_target_circlediamonds.svg	stimuli_distractor_trianglediamonds.svg	4	yes	57	0	429
6.6.1	win	2022-12-24	12:22:33	12:34:39	718921	5a99f17035237b0001128ff2	631817877	1	practice_z	9	practice_z	11	stimuli_distractor_diamondtriangles.svg	stimuli_target_circletriangles.svg	7	yes	0	0	2000
6.6.1	win	2022-12-24	12:22:33	12:34:39	718921	5a99f17035237b0001128ff2	631817877	1	practice_z	9	advance_on_keypress_ZEE	12	stimuli_distractor_diamondtriangles.svg	stimuli_target_circletriangles.svg	7	yes	57	0	2565
6.6.1	win	2022-12-24	12:22:33	12:34:43	723662	5a99f17035237b0001128ff2	631817877	1	practice_z	9	practice_z	13	stimuli_distractor_trianglediamonds.svg	stimuli_target_squarediamonds.svg	11	yes	44	1	530
6.6.1	win	2022-12-24	12:22:33	12:34:43	723662	5a99f17035237b0001128ff2	631817877	1	practice_z	9	advance_on_keypress_ZEE	14	stimuli_distractor_trianglediamonds.svg	stimuli_target_squarediamonds.svg	11	yes	57	0	3529
6.6.1	win	2022-12-24	12:22:33	12:34:49	729542	5a99f17035237b0001128ff2	631817877	1	practice_z	9	practice_z	15	stimuli_target_squarediamonds.svg	stimuli_distractor_diamondtriangles.svg	2	yes	44	1	697
6.6.1	win	2022-12-24	12:22:33	12:34:49	729542	5a99f17035237b0001128ff2	631817877	1	practice_z	9	advance_on_keypress_ZEE	16	stimuli_target_squarediamonds.svg	stimuli_distractor_diamondtriangles.svg	2	yes	57	0	316
6.6.1	win	2022-12-24	12:22:33	12:34:52	732219	5a99f17035237b0001128ff2	631817877	1	practice_z	9	practice_z	17	stimuli_distractor_trianglediamonds.svg	stimuli_target_diamondcircles.svg	12	yes	44	1	710
6.6.1	win	2022-12-24	12:22:33	12:34:52	732219	5a99f17035237b0001128ff2	631817877	1	practice_z	9	advance_on_keypress_ZEE	18	stimuli_distractor_trianglediamonds.svg	stimuli_target_diamondcircles.svg	12	yes	57	0	525
6.6.1	win	2022-12-24	12:22:33	12:34:55	735150	5a99f17035237b0001128ff2	631817877	1	practice_z	9	practice_z	19	stimuli_distractor_trianglediamonds.svg	stimuli_target_circlediamonds.svg	10	yes	44	1	741
6.6.1	win	2022-12-24	12:22:33	12:34:55	735150	5a99f17035237b0001128ff2	631817877	1	practice_z	9	advance_on_keypress_ZEE	20	stimuli_distractor_trianglediamonds.svg	stimuli_target_circlediamonds.svg	10	yes	57	0	439
6.6.1	win	2022-12-24	12:22:33	12:34:59	739241	5a99f17035237b0001128ff2	631817877	1	practice_z	9	practice_z	21	stimuli_distractor_trianglediamonds.svg	stimuli_distractor_trianglediamonds.svg	15	no	0	1	2000
6.6.1	win	2022-12-24	12:22:33	12:34:59	739241	5a99f17035237b0001128ff2	631817877	1	practice_z	9	advance_on_keypress_ZEE	22	stimuli_distractor_trianglediamonds.svg	stimuli_distractor_trianglediamonds.svg	15	no	57	0	3240
6.6.1	win	2022-12-24	12:22:33	12:35:06	746134	5a99f17035237b0001128ff2	631817877	1	practice_z	9	practice_z	23	stimuli_distractor_diamondtriangles.svg	stimuli_distractor_diamondtriangles.svg	13	no	0	1	2000
6.6.1	win	2022-12-24	12:22:33	12:35:06	746134	5a99f17035237b0001128ff2	631817877	1	practice_z	9	advance_on_keypress_ZEE	24	stimuli_distractor_diamondtriangles.svg	stimuli_distractor_diamondtriangles.svg	13	no	57	0	2251
6.6.1	win	2022-12-24	12:22:33	12:35:10	750583	5a99f17035237b0001128ff2	631817877	1	practice_z	9	practice_z	25	stimuli_target_squarediamonds.svg	stimuli_distractor_trianglediamonds.svg	5	yes	44	1	554
6.6.1	win	2022-12-24	12:22:33	12:35:10	750583	5a99f17035237b0001128ff2	631817877	1	practice_z	9	advance_on_keypress_ZEE	26	stimuli_target_squarediamonds.svg	stimuli_distractor_trianglediamonds.svg	5	yes	57	0	841
6.6.1	win	2022-12-24	12:22:33	12:35:14	753767	5a99f17035237b0001128ff2	631817877	1	practice_z	9	practice_z	27	stimuli_distractor_diamondtriangles.svg	stimuli_target_diamondcircles.svg	8	yes	44	1	690
6.6.1	win	2022-12-24	12:22:33	12:35:14	753767	5a99f17035237b0001128ff2	631817877	1	practice_z	9	advance_on_keypress_ZEE	28	stimuli_distractor_diamondtriangles.svg	stimuli_target_diamondcircles.svg	8	yes	57	0	747
6.6.1	win	2022-12-24	12:22:33	12:35:17	756896	5a99f17035237b0001128ff2	631817877	1	practice_z	9	practice_z	29	stimuli_target_circlediamonds.svg	stimuli_distractor_diamondtriangles.svg	1	yes	44	1	720
6.6.1	win	2022-12-24	12:22:33	12:35:17	756896	5a99f17035237b0001128ff2	631817877	1	practice_z	9	advance_on_keypress_ZEE	30	stimuli_target_circlediamonds.svg	stimuli_distractor_diamondtriangles.svg	1	yes	57	0	496
6.6.1	win	2022-12-24	12:22:33	12:35:20	759747	5a99f17035237b0001128ff2	631817877	1	practice_z	9	practice_z	31	stimuli_target_diamondsquares.svg	stimuli_distractor_trianglediamonds.svg	6	yes	44	1	707
6.6.1	win	2022-12-24	12:22:33	12:35:20	759747	5a99f17035237b0001128ff2	631817877	1	practice_z	9	advance_on_keypress_ZEE	32	stimuli_target_diamondsquares.svg	stimuli_distractor_trianglediamonds.svg	6	yes	57	0	617
6.6.1	win	2022-12-24	12:22:33	12:35:31	771272	5a99f17035237b0001128ff2	631817877	1	main_z	11	main_z	1	stimuli_target_diamondcircles.svg	stimuli_distractor_trianglediamonds.svg	19	yes	44	1	576
6.6.1	win	2022-12-24	12:22:33	12:35:31	771272	5a99f17035237b0001128ff2	631817877	1	main_z	11	advance_on_keypress_ZEE	2	stimuli_target_diamondcircles.svg	stimuli_distractor_trianglediamonds.svg	19	yes	57	0	1102
6.6.1	win	2022-12-24	12:22:33	12:35:34	773727	5a99f17035237b0001128ff2	631817877	1	main_z	11	main_z	3	stimuli_target_squarediamonds.svg	stimuli_distractor_trianglediamonds.svg	4	yes	44	1	698
6.6.1	win	2022-12-24	12:22:33	12:35:34	773727	5a99f17035237b0001128ff2	631817877	1	main_z	11	advance_on_keypress_ZEE	4	stimuli_target_squarediamonds.svg	stimuli_distractor_trianglediamonds.svg	4	yes	57	0	1027
6.6.1	win	2022-12-24	12:22:33	12:35:36	776362	5a99f17035237b0001128ff2	631817877	1	main_z	11	main_z	5	stimuli_target_squarediamonds.svg	stimuli_distractor_diamondtriangles.svg	8	yes	44	1	952
6.6.1	win	2022-12-24	12:22:33	12:35:36	776362	5a99f17035237b0001128ff2	631817877	1	main_z	11	advance_on_keypress_ZEE	6	stimuli_target_squarediamonds.svg	stimuli_distractor_diamondtriangles.svg	8	yes	57	0	817
6.6.1	win	2022-12-24	12:22:33	12:35:39	778728	5a99f17035237b0001128ff2	631817877	1	main_z	11	main_z	7	stimuli_distractor_trianglediamonds.svg	stimuli_target_diamondcircles.svg	27	yes	44	1	904
6.6.1	win	2022-12-24	12:22:33	12:35:39	778728	5a99f17035237b0001128ff2	631817877	1	main_z	11	advance_on_keypress_ZEE	8	stimuli_distractor_trianglediamonds.svg	stimuli_target_diamondcircles.svg	27	yes	57	0	830
6.6.1	win	2022-12-24	12:22:33	12:35:41	781040	5a99f17035237b0001128ff2	631817877	1	main_z	11	main_z	9	stimuli_distractor_trianglediamonds.svg	stimuli_target_circlediamonds.svg	10	yes	44	1	835
6.6.1	win	2022-12-24	12:22:33	12:35:41	781040	5a99f17035237b0001128ff2	631817877	1	main_z	11	advance_on_keypress_ZEE	10	stimuli_distractor_trianglediamonds.svg	stimuli_target_circlediamonds.svg	10	yes	57	0	741
6.6.1	win	2022-12-24	12:22:33	12:35:43	783461	5a99f17035237b0001128ff2	631817877	1	main_z	11	main_z	11	stimuli_target_circletriangles.svg	stimuli_distractor_diamondtriangles.svg	5	yes	44	1	1040
6.6.1	win	2022-12-24	12:22:33	12:35:43	783461	5a99f17035237b0001128ff2	631817877	1	main_z	11	advance_on_keypress_ZEE	12	stimuli_target_circletriangles.svg	stimuli_distractor_diamondtriangles.svg	5	yes	57	0	708
6.6.1	win	2022-12-24	12:22:33	12:35:45	785536	5a99f17035237b0001128ff2	631817877	1	main_z	11	main_z	13	stimuli_target_diamondcircles.svg	stimuli_distractor_diamondtriangles.svg	23	yes	44	1	717
6.6.1	win	2022-12-24	12:22:33	12:35:45	785536	5a99f17035237b0001128ff2	631817877	1	main_z	11	advance_on_keypress_ZEE	14	stimuli_target_diamondcircles.svg	stimuli_distractor_diamondtriangles.svg	23	yes	57	0	582
6.6.1	win	2022-12-24	12:22:33	12:35:47	787654	5a99f17035237b0001128ff2	631817877	1	main_z	11	main_z	15	stimuli_distractor_trianglediamonds.svg	stimuli_target_diamondsquares.svg	28	yes	44	1	886
6.6.1	win	2022-12-24	12:22:33	12:35:47	787654	5a99f17035237b0001128ff2	631817877	1	main_z	11	advance_on_keypress_ZEE	16	stimuli_distractor_trianglediamonds.svg	stimuli_target_diamondsquares.svg	28	yes	57	0	665
6.6.1	win	2022-12-24	12:22:33	12:35:50	789839	5a99f17035237b0001128ff2	631817877	1	main_z	11	main_z	17	stimuli_target_diamondsquares.svg	stimuli_distractor_diamondtriangles.svg	24	yes	44	1	873
6.6.1	win	2022-12-24	12:22:33	12:35:50	789839	5a99f17035237b0001128ff2	631817877	1	main_z	11	advance_on_keypress_ZEE	18	stimuli_target_diamondsquares.svg	stimuli_distractor_diamondtriangles.svg	24	yes	57	0	868
6.6.1	win	2022-12-24	12:22:33	12:35:52	792304	5a99f17035237b0001128ff2	631817877	1	main_z	11	main_z	19	stimuli_distractor_diamondtriangles.svg	stimuli_target_circletriangles.svg	13	yes	44	1	956
6.6.1	win	2022-12-24	12:22:33	12:35:52	792304	5a99f17035237b0001128ff2	631817877	1	main_z	11	advance_on_keypress_ZEE	20	stimuli_distractor_diamondtriangles.svg	stimuli_target_circletriangles.svg	13	yes	57	0	649
6.6.1	win	2022-12-24	12:22:33	12:35:54	794586	5a99f17035237b0001128ff2	631817877	1	main_z	11	main_z	21	stimuli_target_circlediamonds.svg	stimuli_distractor_diamondtriangles.svg	6	yes	44	1	991
6.6.1	win	2022-12-24	12:22:33	12:35:54	794586	5a99f17035237b0001128ff2	631817877	1	main_z	11	advance_on_keypress_ZEE	22	stimuli_target_circlediamonds.svg	stimuli_distractor_diamondtriangles.svg	6	yes	57	0	981
6.6.1	win	2022-12-24	12:22:33	12:35:57	796996	5a99f17035237b0001128ff2	631817877	1	main_z	11	main_z	23	stimuli_target_circletriangles.svg	stimuli_distractor_trianglediamonds.svg	1	yes	44	1	785
6.6.1	win	2022-12-24	12:22:33	12:35:57	796996	5a99f17035237b0001128ff2	631817877	1	main_z	11	advance_on_keypress_ZEE	24	stimuli_target_circletriangles.svg	stimuli_distractor_trianglediamonds.svg	1	yes	57	0	972
6.6.1	win	2022-12-24	12:22:33	12:35:59	799505	5a99f17035237b0001128ff2	631817877	1	main_z	11	main_z	25	stimuli_distractor_trianglediamonds.svg	stimuli_distractor_trianglediamonds.svg	33	no	44	0	896
6.6.1	win	2022-12-24	12:22:33	12:35:59	799505	5a99f17035237b0001128ff2	631817877	1	main_z	11	advance_on_keypress_ZEE	26	stimuli_distractor_trianglediamonds.svg	stimuli_distractor_trianglediamonds.svg	33	no	57	0	550
6.6.1	win	2022-12-24	12:22:33	12:36:02	802707	5a99f17035237b0001128ff2	631817877	1	main_z	11	main_z	27	stimuli_distractor_diamondtriangles.svg	stimuli_distractor_diamondtriangles.svg	40	no	0	1	2000
6.6.1	win	2022-12-24	12:22:33	12:36:02	802707	5a99f17035237b0001128ff2	631817877	1	main_z	11	advance_on_keypress_ZEE	28	stimuli_distractor_diamondtriangles.svg	stimuli_distractor_diamondtriangles.svg	40	no	57	0	585
6.6.1	win	2022-12-24	12:22:33	12:36:05	804932	5a99f17035237b0001128ff2	631817877	1	main_z	11	main_z	29	stimuli_distractor_diamondtriangles.svg	stimuli_target_trianglesquares.svg	30	yes	44	1	994
6.6.1	win	2022-12-24	12:22:33	12:36:05	804932	5a99f17035237b0001128ff2	631817877	1	main_z	11	advance_on_keypress_ZEE	30	stimuli_distractor_diamondtriangles.svg	stimuli_target_trianglesquares.svg	30	yes	57	0	1838
6.6.1	win	2022-12-24	12:22:33	12:36:09	809420	5a99f17035237b0001128ff2	631817877	1	main_z	11	main_z	31	stimuli_distractor_trianglediamonds.svg	stimuli_distractor_diamondtriangles.svg	36	no	0	1	2000
6.6.1	win	2022-12-24	12:22:33	12:36:09	809420	5a99f17035237b0001128ff2	631817877	1	main_z	11	advance_on_keypress_ZEE	32	stimuli_distractor_trianglediamonds.svg	stimuli_distractor_diamondtriangles.svg	36	no	57	0	370
6.6.1	win	2022-12-24	12:22:33	12:36:11	811296	5a99f17035237b0001128ff2	631817877	1	main_z	11	main_z	33	stimuli_target_diamondsquares.svg	stimuli_distractor_trianglediamonds.svg	20	yes	44	1	861
6.6.1	win	2022-12-24	12:22:33	12:36:11	811296	5a99f17035237b0001128ff2	631817877	1	main_z	11	advance_on_keypress_ZEE	34	stimuli_target_diamondsquares.svg	stimuli_distractor_trianglediamonds.svg	20	yes	57	0	501
6.6.1	win	2022-12-24	12:22:33	12:36:13	813219	5a99f17035237b0001128ff2	631817877	1	main_z	11	main_z	35	stimuli_distractor_trianglediamonds.svg	stimuli_target_circletriangles.svg	9	yes	44	1	768
6.6.1	win	2022-12-24	12:22:33	12:36:13	813219	5a99f17035237b0001128ff2	631817877	1	main_z	11	advance_on_keypress_ZEE	36	stimuli_distractor_trianglediamonds.svg	stimuli_target_circletriangles.svg	9	yes	57	0	535
6.6.1	win	2022-12-24	12:22:33	12:36:15	815403	5a99f17035237b0001128ff2	631817877	1	main_z	11	main_z	37	stimuli_distractor_diamondtriangles.svg	stimuli_target_squarediamonds.svg	16	yes	44	1	1005
6.6.1	win	2022-12-24	12:22:33	12:36:15	815403	5a99f17035237b0001128ff2	631817877	1	main_z	11	advance_on_keypress_ZEE	38	stimuli_distractor_diamondtriangles.svg	stimuli_target_squarediamonds.svg	16	yes	57	0	653
6.6.1	win	2022-12-24	12:22:33	12:36:17	817582	5a99f17035237b0001128ff2	631817877	1	main_z	11	main_z	39	stimuli_distractor_trianglediamonds.svg	stimuli_target_trianglecircles.svg	25	yes	44	1	885
6.6.1	win	2022-12-24	12:22:33	12:36:17	817582	5a99f17035237b0001128ff2	631817877	1	main_z	11	advance_on_keypress_ZEE	40	stimuli_distractor_trianglediamonds.svg	stimuli_target_trianglecircles.svg	25	yes	57	0	795
6.6.1	win	2022-12-24	12:22:33	12:36:20	819839	5a99f17035237b0001128ff2	631817877	1	main_z	11	main_z	41	stimuli_target_trianglecircles.svg	stimuli_distractor_trianglediamonds.svg	17	yes	44	1	811
6.6.1	win	2022-12-24	12:22:33	12:36:20	819839	5a99f17035237b0001128ff2	631817877	1	main_z	11	advance_on_keypress_ZEE	42	stimuli_target_trianglecircles.svg	stimuli_distractor_trianglediamonds.svg	17	yes	57	0	478
6.6.1	win	2022-12-24	12:22:33	12:36:23	822977	5a99f17035237b0001128ff2	631817877	1	main_z	11	main_z	43	stimuli_distractor_diamondtriangles.svg	stimuli_distractor_trianglediamonds.svg	38	no	0	1	2000
6.6.1	win	2022-12-24	12:22:33	12:36:23	822977	5a99f17035237b0001128ff2	631817877	1	main_z	11	advance_on_keypress_ZEE	44	stimuli_distractor_diamondtriangles.svg	stimuli_distractor_trianglediamonds.svg	38	no	57	0	412
6.6.1	win	2022-12-24	12:22:33	12:36:25	824821	5a99f17035237b0001128ff2	631817877	1	main_z	11	main_z	45	stimuli_distractor_diamondtriangles.svg	stimuli_target_squaretriangles.svg	15	yes	44	1	779
6.6.1	win	2022-12-24	12:22:33	12:36:25	824821	5a99f17035237b0001128ff2	631817877	1	main_z	11	advance_on_keypress_ZEE	46	stimuli_distractor_diamondtriangles.svg	stimuli_target_squaretriangles.svg	15	yes	57	0	498
6.6.1	win	2022-12-24	12:22:33	12:36:28	827974	5a99f17035237b0001128ff2	631817877	1	main_z	11	main_z	47	stimuli_distractor_diamondtriangles.svg	stimuli_distractor_diamondtriangles.svg	39	no	0	1	2000
6.6.1	win	2022-12-24	12:22:33	12:36:28	827974	5a99f17035237b0001128ff2	631817877	1	main_z	11	advance_on_keypress_ZEE	48	stimuli_distractor_diamondtriangles.svg	stimuli_distractor_diamondtriangles.svg	39	no	57	0	653
6.6.1	win	2022-12-24	12:22:33	12:36:30	829971	5a99f17035237b0001128ff2	631817877	1	main_z	11	main_z	49	stimuli_distractor_trianglediamonds.svg	stimuli_target_trianglesquares.svg	26	yes	44	1	699
6.6.1	win	2022-12-24	12:22:33	12:36:30	829971	5a99f17035237b0001128ff2	631817877	1	main_z	11	advance_on_keypress_ZEE	50	stimuli_distractor_trianglediamonds.svg	stimuli_target_trianglesquares.svg	26	yes	57	0	692
6.6.1	win	2022-12-24	12:22:33	12:36:32	832128	5a99f17035237b0001128ff2	631817877	1	main_z	11	main_z	51	stimuli_distractor_trianglediamonds.svg	stimuli_target_squarediamonds.svg	12	yes	44	1	808
6.6.1	win	2022-12-24	12:22:33	12:36:32	832128	5a99f17035237b0001128ff2	631817877	1	main_z	11	advance_on_keypress_ZEE	52	stimuli_distractor_trianglediamonds.svg	stimuli_target_squarediamonds.svg	12	yes	57	0	637
6.6.1	win	2022-12-24	12:22:33	12:36:34	834407	5a99f17035237b0001128ff2	631817877	1	main_z	11	main_z	53	stimuli_target_trianglesquares.svg	stimuli_distractor_diamondtriangles.svg	22	yes	44	1	989
6.6.1	win	2022-12-24	12:22:33	12:36:34	834407	5a99f17035237b0001128ff2	631817877	1	main_z	11	advance_on_keypress_ZEE	54	stimuli_target_trianglesquares.svg	stimuli_distractor_diamondtriangles.svg	22	yes	57	0	952
6.6.1	win	2022-12-24	12:22:33	12:36:37	836792	5a99f17035237b0001128ff2	631817877	1	main_z	11	main_z	55	stimuli_target_trianglecircles.svg	stimuli_distractor_diamondtriangles.svg	21	yes	44	1	792
6.6.1	win	2022-12-24	12:22:33	12:36:37	836792	5a99f17035237b0001128ff2	631817877	1	main_z	11	advance_on_keypress_ZEE	56	stimuli_target_trianglecircles.svg	stimuli_distractor_diamondtriangles.svg	21	yes	57	0	767
6.6.1	win	2022-12-24	12:22:33	12:36:39	839192	5a99f17035237b0001128ff2	631817877	1	main_z	11	main_z	57	stimuli_target_squaretriangles.svg	stimuli_distractor_diamondtriangles.svg	7	yes	44	1	978
6.6.1	win	2022-12-24	12:22:33	12:36:39	839192	5a99f17035237b0001128ff2	631817877	1	main_z	11	advance_on_keypress_ZEE	58	stimuli_target_squaretriangles.svg	stimuli_distractor_diamondtriangles.svg	7	yes	57	0	685
6.6.1	win	2022-12-24	12:22:33	12:36:41	841487	5a99f17035237b0001128ff2	631817877	1	main_z	11	main_z	59	stimuli_target_circlediamonds.svg	stimuli_distractor_trianglediamonds.svg	2	yes	44	1	958
6.6.1	win	2022-12-24	12:22:33	12:36:41	841487	5a99f17035237b0001128ff2	631817877	1	main_z	11	advance_on_keypress_ZEE	60	stimuli_target_circlediamonds.svg	stimuli_distractor_trianglediamonds.svg	2	yes	57	0	1223
6.6.1	win	2022-12-24	12:22:33	12:36:45	845362	5a99f17035237b0001128ff2	631817877	1	main_z	11	main_z	61	stimuli_distractor_trianglediamonds.svg	stimuli_distractor_trianglediamonds.svg	34	no	0	1	2000
6.6.1	win	2022-12-24	12:22:33	12:36:45	845362	5a99f17035237b0001128ff2	631817877	1	main_z	11	advance_on_keypress_ZEE	62	stimuli_distractor_trianglediamonds.svg	stimuli_distractor_trianglediamonds.svg	34	no	57	0	447
6.6.1	win	2022-12-24	12:22:33	12:36:47	847377	5a99f17035237b0001128ff2	631817877	1	main_z	11	main_z	63	stimuli_distractor_trianglediamonds.svg	stimuli_target_squaretriangles.svg	11	yes	44	1	918
6.6.1	win	2022-12-24	12:22:33	12:36:47	847377	5a99f17035237b0001128ff2	631817877	1	main_z	11	advance_on_keypress_ZEE	64	stimuli_distractor_trianglediamonds.svg	stimuli_target_squaretriangles.svg	11	yes	57	0	553
6.6.1	win	2022-12-24	12:22:33	12:36:49	849420	5a99f17035237b0001128ff2	631817877	1	main_z	11	main_z	65	stimuli_distractor_diamondtriangles.svg	stimuli_target_circlediamonds.svg	14	yes	44	1	779
6.6.1	win	2022-12-24	12:22:33	12:36:49	849420	5a99f17035237b0001128ff2	631817877	1	main_z	11	advance_on_keypress_ZEE	66	stimuli_distractor_diamondtriangles.svg	stimuli_target_circlediamonds.svg	14	yes	57	0	443
6.6.1	win	2022-12-24	12:22:33	12:36:52	852523	5a99f17035237b0001128ff2	631817877	1	main_z	11	main_z	67	stimuli_distractor_diamondtriangles.svg	stimuli_distractor_trianglediamonds.svg	37	no	0	1	2000
6.6.1	win	2022-12-24	12:22:33	12:36:52	852523	5a99f17035237b0001128ff2	631817877	1	main_z	11	advance_on_keypress_ZEE	68	stimuli_distractor_diamondtriangles.svg	stimuli_distractor_trianglediamonds.svg	37	no	57	0	361
6.6.1	win	2022-12-24	12:22:33	12:36:54	854342	5a99f17035237b0001128ff2	631817877	1	main_z	11	main_z	69	stimuli_target_squaretriangles.svg	stimuli_distractor_trianglediamonds.svg	3	yes	44	1	805
6.6.1	win	2022-12-24	12:22:33	12:36:54	854342	5a99f17035237b0001128ff2	631817877	1	main_z	11	advance_on_keypress_ZEE	70	stimuli_target_squaretriangles.svg	stimuli_distractor_trianglediamonds.svg	3	yes	57	0	923
6.6.1	win	2022-12-24	12:22:33	12:36:57	856799	5a99f17035237b0001128ff2	631817877	1	main_z	11	main_z	71	stimuli_target_trianglesquares.svg	stimuli_distractor_trianglediamonds.svg	18	yes	44	1	896
6.6.1	win	2022-12-24	12:22:33	12:36:57	856799	5a99f17035237b0001128ff2	631817877	1	main_z	11	advance_on_keypress_ZEE	72	stimuli_target_trianglesquares.svg	stimuli_distractor_trianglediamonds.svg	18	yes	57	0	494
6.6.1	win	2022-12-24	12:22:33	12:36:58	858556	5a99f17035237b0001128ff2	631817877	1	main_z	11	main_z	73	stimuli_distractor_diamondtriangles.svg	stimuli_target_diamondsquares.svg	32	yes	44	1	605
6.6.1	win	2022-12-24	12:22:33	12:36:58	858556	5a99f17035237b0001128ff2	631817877	1	main_z	11	advance_on_keypress_ZEE	74	stimuli_distractor_diamondtriangles.svg	stimuli_target_diamondsquares.svg	32	yes	57	0	525
6.6.1	win	2022-12-24	12:22:33	12:37:02	861716	5a99f17035237b0001128ff2	631817877	1	main_z	11	main_z	75	stimuli_distractor_trianglediamonds.svg	stimuli_distractor_diamondtriangles.svg	35	no	0	1	2000
6.6.1	win	2022-12-24	12:22:33	12:37:02	861716	5a99f17035237b0001128ff2	631817877	1	main_z	11	advance_on_keypress_ZEE	76	stimuli_distractor_trianglediamonds.svg	stimuli_distractor_diamondtriangles.svg	35	no	57	0	742
6.6.1	win	2022-12-24	12:22:33	12:37:04	863719	5a99f17035237b0001128ff2	631817877	1	main_z	11	main_z	77	stimuli_distractor_diamondtriangles.svg	stimuli_target_trianglecircles.svg	29	yes	44	1	605
6.6.1	win	2022-12-24	12:22:33	12:37:04	863719	5a99f17035237b0001128ff2	631817877	1	main_z	11	advance_on_keypress_ZEE	78	stimuli_distractor_diamondtriangles.svg	stimuli_target_trianglecircles.svg	29	yes	57	0	443
6.6.1	win	2022-12-24	12:22:33	12:37:05	865636	5a99f17035237b0001128ff2	631817877	1	main_z	11	main_z	79	stimuli_distractor_diamondtriangles.svg	stimuli_target_diamondcircles.svg	31	yes	44	1	824
6.6.1	win	2022-12-24	12:22:33	12:37:05	865636	5a99f17035237b0001128ff2	631817877	1	main_z	11	advance_on_keypress_ZEE	80	stimuli_distractor_diamondtriangles.svg	stimuli_target_diamondcircles.svg	31	yes	57	0	655
6.6.1	win	2022-12-24	12:22:33	12:37:07	867674	5a99f17035237b0001128ff2	631817877	1	main_z	11	main_z	81	stimuli_target_circlediamonds.svg	stimuli_distractor_diamondtriangles.svg	6	yes	44	1	746
6.6.1	win	2022-12-24	12:22:33	12:37:07	867674	5a99f17035237b0001128ff2	631817877	1	main_z	11	advance_on_keypress_ZEE	82	stimuli_target_circlediamonds.svg	stimuli_distractor_diamondtriangles.svg	6	yes	57	0	386
6.6.1	win	2022-12-24	12:22:33	12:37:09	869471	5a99f17035237b0001128ff2	631817877	1	main_z	11	main_z	83	stimuli_distractor_trianglediamonds.svg	stimuli_target_trianglesquares.svg	26	yes	44	1	762
6.6.1	win	2022-12-24	12:22:33	12:37:09	869471	5a99f17035237b0001128ff2	631817877	1	main_z	11	advance_on_keypress_ZEE	84	stimuli_distractor_trianglediamonds.svg	stimuli_target_trianglesquares.svg	26	yes	57	0	668
6.6.1	win	2022-12-24	12:22:33	12:37:11	871544	5a99f17035237b0001128ff2	631817877	1	main_z	11	main_z	85	stimuli_target_squaretriangles.svg	stimuli_distractor_trianglediamonds.svg	3	yes	44	1	752
6.6.1	win	2022-12-24	12:22:33	12:37:11	871544	5a99f17035237b0001128ff2	631817877	1	main_z	11	advance_on_keypress_ZEE	86	stimuli_target_squaretriangles.svg	stimuli_distractor_trianglediamonds.svg	3	yes	57	0	1312
6.6.1	win	2022-12-24	12:22:33	12:37:14	874295	5a99f17035237b0001128ff2	631817877	1	main_z	11	main_z	87	stimuli_target_squarediamonds.svg	stimuli_distractor_diamondtriangles.svg	8	yes	44	1	789
6.6.1	win	2022-12-24	12:22:33	12:37:14	874295	5a99f17035237b0001128ff2	631817877	1	main_z	11	advance_on_keypress_ZEE	88	stimuli_target_squarediamonds.svg	stimuli_distractor_diamondtriangles.svg	8	yes	57	0	687
6.6.1	win	2022-12-24	12:22:33	12:37:16	876518	5a99f17035237b0001128ff2	631817877	1	main_z	11	main_z	89	stimuli_distractor_diamondtriangles.svg	stimuli_distractor_trianglediamonds.svg	37	no	44	0	897
6.6.1	win	2022-12-24	12:22:33	12:37:16	876518	5a99f17035237b0001128ff2	631817877	1	main_z	11	advance_on_keypress_ZEE	90	stimuli_distractor_diamondtriangles.svg	stimuli_distractor_trianglediamonds.svg	37	no	57	0	443
6.6.1	win	2022-12-24	12:22:33	12:37:18	878360	5a99f17035237b0001128ff2	631817877	1	main_z	11	main_z	91	stimuli_target_squaretriangles.svg	stimuli_distractor_diamondtriangles.svg	7	yes	44	1	739
6.6.1	win	2022-12-24	12:22:33	12:37:18	878360	5a99f17035237b0001128ff2	631817877	1	main_z	11	advance_on_keypress_ZEE	92	stimuli_target_squaretriangles.svg	stimuli_distractor_diamondtriangles.svg	7	yes	57	0	401
6.6.1	win	2022-12-24	12:22:33	12:37:20	880396	5a99f17035237b0001128ff2	631817877	1	main_z	11	main_z	93	stimuli_target_trianglecircles.svg	stimuli_distractor_diamondtriangles.svg	21	yes	44	1	993
6.6.1	win	2022-12-24	12:22:33	12:37:20	880396	5a99f17035237b0001128ff2	631817877	1	main_z	11	advance_on_keypress_ZEE	94	stimuli_target_trianglecircles.svg	stimuli_distractor_diamondtriangles.svg	21	yes	57	0	1049
6.6.1	win	2022-12-24	12:22:33	12:37:24	884101	5a99f17035237b0001128ff2	631817877	1	main_z	11	main_z	95	stimuli_distractor_trianglediamonds.svg	stimuli_distractor_trianglediamonds.svg	34	no	0	1	2000
6.6.1	win	2022-12-24	12:22:33	12:37:24	884101	5a99f17035237b0001128ff2	631817877	1	main_z	11	advance_on_keypress_ZEE	96	stimuli_distractor_trianglediamonds.svg	stimuli_distractor_trianglediamonds.svg	34	no	57	0	376
6.6.1	win	2022-12-24	12:22:33	12:37:26	886007	5a99f17035237b0001128ff2	631817877	1	main_z	11	main_z	97	stimuli_target_squarediamonds.svg	stimuli_distractor_trianglediamonds.svg	4	yes	44	1	875
6.6.1	win	2022-12-24	12:22:33	12:37:26	886007	5a99f17035237b0001128ff2	631817877	1	main_z	11	advance_on_keypress_ZEE	98	stimuli_target_squarediamonds.svg	stimuli_distractor_trianglediamonds.svg	4	yes	57	0	793
6.6.1	win	2022-12-24	12:22:33	12:37:28	888192	5a99f17035237b0001128ff2	631817877	1	main_z	11	main_z	99	stimuli_distractor_diamondtriangles.svg	stimuli_target_trianglecircles.svg	29	yes	44	1	728
6.6.1	win	2022-12-24	12:22:33	12:37:28	888192	5a99f17035237b0001128ff2	631817877	1	main_z	11	advance_on_keypress_ZEE	100	stimuli_distractor_diamondtriangles.svg	stimuli_target_trianglecircles.svg	29	yes	57	0	429
6.6.1	win	2022-12-24	12:22:33	12:37:31	891278	5a99f17035237b0001128ff2	631817877	1	main_z	11	main_z	101	stimuli_distractor_trianglediamonds.svg	stimuli_distractor_trianglediamonds.svg	33	no	0	1	2000
6.6.1	win	2022-12-24	12:22:33	12:37:31	891278	5a99f17035237b0001128ff2	631817877	1	main_z	11	advance_on_keypress_ZEE	102	stimuli_distractor_trianglediamonds.svg	stimuli_distractor_trianglediamonds.svg	33	no	57	0	649
6.6.1	win	2022-12-24	12:22:33	12:37:33	893404	5a99f17035237b0001128ff2	631817877	1	main_z	11	main_z	103	stimuli_target_diamondcircles.svg	stimuli_distractor_diamondtriangles.svg	23	yes	44	1	827
6.6.1	win	2022-12-24	12:22:33	12:37:33	893404	5a99f17035237b0001128ff2	631817877	1	main_z	11	advance_on_keypress_ZEE	104	stimuli_target_diamondcircles.svg	stimuli_distractor_diamondtriangles.svg	23	yes	57	0	468
6.6.1	win	2022-12-24	12:22:33	12:37:35	895383	5a99f17035237b0001128ff2	631817877	1	main_z	11	main_z	105	stimuli_target_circletriangles.svg	stimuli_distractor_diamondtriangles.svg	5	yes	44	1	859
6.6.1	win	2022-12-24	12:22:33	12:37:35	895383	5a99f17035237b0001128ff2	631817877	1	main_z	11	advance_on_keypress_ZEE	106	stimuli_target_circletriangles.svg	stimuli_distractor_diamondtriangles.svg	5	yes	57	0	479
6.6.1	win	2022-12-24	12:22:33	12:37:37	897385	5a99f17035237b0001128ff2	631817877	1	main_z	11	main_z	107	stimuli_target_diamondcircles.svg	stimuli_distractor_trianglediamonds.svg	19	yes	44	1	862
6.6.1	win	2022-12-24	12:22:33	12:37:37	897385	5a99f17035237b0001128ff2	631817877	1	main_z	11	advance_on_keypress_ZEE	108	stimuli_target_diamondcircles.svg	stimuli_distractor_trianglediamonds.svg	19	yes	57	0	534
6.6.1	win	2022-12-24	12:22:33	12:37:39	899378	5a99f17035237b0001128ff2	631817877	1	main_z	11	main_z	109	stimuli_distractor_trianglediamonds.svg	stimuli_target_trianglecircles.svg	25	yes	44	1	807
6.6.1	win	2022-12-24	12:22:33	12:37:39	899378	5a99f17035237b0001128ff2	631817877	1	main_z	11	advance_on_keypress_ZEE	110	stimuli_distractor_trianglediamonds.svg	stimuli_target_trianglecircles.svg	25	yes	57	0	387
6.6.1	win	2022-12-24	12:22:33	12:37:41	901227	5a99f17035237b0001128ff2	631817877	1	main_z	11	main_z	111	stimuli_distractor_trianglediamonds.svg	stimuli_target_diamondcircles.svg	27	yes	44	1	824
6.6.1	win	2022-12-24	12:22:33	12:37:41	901227	5a99f17035237b0001128ff2	631817877	1	main_z	11	advance_on_keypress_ZEE	112	stimuli_distractor_trianglediamonds.svg	stimuli_target_diamondcircles.svg	27	yes	57	0	510
6.6.1	win	2022-12-24	12:22:33	12:37:43	903202	5a99f17035237b0001128ff2	631817877	1	main_z	11	main_z	113	stimuli_target_diamondsquares.svg	stimuli_distractor_trianglediamonds.svg	20	yes	44	1	817
6.6.1	win	2022-12-24	12:22:33	12:37:43	903202	5a99f17035237b0001128ff2	631817877	1	main_z	11	advance_on_keypress_ZEE	114	stimuli_target_diamondsquares.svg	stimuli_distractor_trianglediamonds.svg	20	yes	57	0	487
6.6.1	win	2022-12-24	12:22:33	12:37:45	905159	5a99f17035237b0001128ff2	631817877	1	main_z	11	main_z	115	stimuli_distractor_trianglediamonds.svg	stimuli_target_circlediamonds.svg	10	yes	44	1	825
6.6.1	win	2022-12-24	12:22:33	12:37:45	905159	5a99f17035237b0001128ff2	631817877	1	main_z	11	advance_on_keypress_ZEE	116	stimuli_distractor_trianglediamonds.svg	stimuli_target_circlediamonds.svg	10	yes	57	0	397
6.6.1	win	2022-12-24	12:22:33	12:37:47	907195	5a99f17035237b0001128ff2	631817877	1	main_z	11	main_z	117	stimuli_distractor_trianglediamonds.svg	stimuli_target_squaretriangles.svg	11	yes	44	1	978
6.6.1	win	2022-12-24	12:22:33	12:37:47	907195	5a99f17035237b0001128ff2	631817877	1	main_z	11	advance_on_keypress_ZEE	118	stimuli_distractor_trianglediamonds.svg	stimuli_target_squaretriangles.svg	11	yes	57	0	474
6.6.1	win	2022-12-24	12:22:33	12:37:50	910315	5a99f17035237b0001128ff2	631817877	1	main_z	11	main_z	119	stimuli_distractor_diamondtriangles.svg	stimuli_distractor_diamondtriangles.svg	40	no	0	1	2000
6.6.1	win	2022-12-24	12:22:33	12:37:50	910315	5a99f17035237b0001128ff2	631817877	1	main_z	11	advance_on_keypress_ZEE	120	stimuli_distractor_diamondtriangles.svg	stimuli_distractor_diamondtriangles.svg	40	no	57	0	406
6.6.1	win	2022-12-24	12:22:33	12:37:52	912290	5a99f17035237b0001128ff2	631817877	1	main_z	11	main_z	121	stimuli_distractor_trianglediamonds.svg	stimuli_target_diamondsquares.svg	28	yes	44	1	927
6.6.1	win	2022-12-24	12:22:33	12:37:52	912290	5a99f17035237b0001128ff2	631817877	1	main_z	11	advance_on_keypress_ZEE	122	stimuli_distractor_trianglediamonds.svg	stimuli_target_diamondsquares.svg	28	yes	57	0	580
6.6.1	win	2022-12-24	12:22:33	12:37:54	914474	5a99f17035237b0001128ff2	631817877	1	main_z	11	main_z	123	stimuli_target_trianglecircles.svg	stimuli_distractor_trianglediamonds.svg	17	yes	44	1	946
6.6.1	win	2022-12-24	12:22:33	12:37:54	914474	5a99f17035237b0001128ff2	631817877	1	main_z	11	advance_on_keypress_ZEE	124	stimuli_target_trianglecircles.svg	stimuli_distractor_trianglediamonds.svg	17	yes	57	0	623
6.6.1	win	2022-12-24	12:22:33	12:37:56	916678	5a99f17035237b0001128ff2	631817877	1	main_z	11	main_z	125	stimuli_distractor_diamondtriangles.svg	stimuli_target_diamondcircles.svg	31	yes	44	1	935
6.6.1	win	2022-12-24	12:22:33	12:37:56	916678	5a99f17035237b0001128ff2	631817877	1	main_z	11	advance_on_keypress_ZEE	126	stimuli_distractor_diamondtriangles.svg	stimuli_target_diamondcircles.svg	31	yes	57	0	1086
6.6.1	win	2022-12-24	12:22:33	12:37:59	919173	5a99f17035237b0001128ff2	631817877	1	main_z	11	main_z	127	stimuli_distractor_diamondtriangles.svg	stimuli_target_squaretriangles.svg	15	yes	44	1	764
6.6.1	win	2022-12-24	12:22:33	12:37:59	919173	5a99f17035237b0001128ff2	631817877	1	main_z	11	advance_on_keypress_ZEE	128	stimuli_distractor_diamondtriangles.svg	stimuli_target_squaretriangles.svg	15	yes	57	0	809
6.6.1	win	2022-12-24	12:22:33	12:38:01	921483	5a99f17035237b0001128ff2	631817877	1	main_z	11	main_z	129	stimuli_distractor_trianglediamonds.svg	stimuli_target_squarediamonds.svg	12	yes	44	1	842
6.6.1	win	2022-12-24	12:22:33	12:38:01	921483	5a99f17035237b0001128ff2	631817877	1	main_z	11	advance_on_keypress_ZEE	130	stimuli_distractor_trianglediamonds.svg	stimuli_target_squarediamonds.svg	12	yes	57	0	497
6.6.1	win	2022-12-24	12:22:33	12:38:03	923368	5a99f17035237b0001128ff2	631817877	1	main_z	11	main_z	131	stimuli_distractor_diamondtriangles.svg	stimuli_target_trianglesquares.svg	30	yes	44	1	729
6.6.1	win	2022-12-24	12:22:33	12:38:03	923368	5a99f17035237b0001128ff2	631817877	1	main_z	11	advance_on_keypress_ZEE	132	stimuli_distractor_diamondtriangles.svg	stimuli_target_trianglesquares.svg	30	yes	57	0	615
6.6.1	win	2022-12-24	12:22:33	12:38:05	925596	5a99f17035237b0001128ff2	631817877	1	main_z	11	main_z	133	stimuli_distractor_diamondtriangles.svg	stimuli_target_diamondsquares.svg	32	yes	44	1	960
6.6.1	win	2022-12-24	12:22:33	12:38:05	925596	5a99f17035237b0001128ff2	631817877	1	main_z	11	advance_on_keypress_ZEE	134	stimuli_distractor_diamondtriangles.svg	stimuli_target_diamondsquares.svg	32	yes	57	0	502
6.6.1	win	2022-12-24	12:22:33	12:38:09	928752	5a99f17035237b0001128ff2	631817877	1	main_z	11	main_z	135	stimuli_distractor_diamondtriangles.svg	stimuli_distractor_diamondtriangles.svg	39	no	0	1	2000
6.6.1	win	2022-12-24	12:22:33	12:38:09	928752	5a99f17035237b0001128ff2	631817877	1	main_z	11	advance_on_keypress_ZEE	136	stimuli_distractor_diamondtriangles.svg	stimuli_distractor_diamondtriangles.svg	39	no	57	0	445
6.6.1	win	2022-12-24	12:22:33	12:38:12	931850	5a99f17035237b0001128ff2	631817877	1	main_z	11	main_z	137	stimuli_distractor_trianglediamonds.svg	stimuli_distractor_diamondtriangles.svg	35	no	0	1	2000
6.6.1	win	2022-12-24	12:22:33	12:38:12	931850	5a99f17035237b0001128ff2	631817877	1	main_z	11	advance_on_keypress_ZEE	138	stimuli_distractor_trianglediamonds.svg	stimuli_distractor_diamondtriangles.svg	35	no	57	0	1339
6.6.1	win	2022-12-24	12:22:33	12:38:14	934530	5a99f17035237b0001128ff2	631817877	1	main_z	11	main_z	139	stimuli_distractor_diamondtriangles.svg	stimuli_target_circletriangles.svg	13	yes	44	1	699
6.6.1	win	2022-12-24	12:22:33	12:38:14	934530	5a99f17035237b0001128ff2	631817877	1	main_z	11	advance_on_keypress_ZEE	140	stimuli_distractor_diamondtriangles.svg	stimuli_target_circletriangles.svg	13	yes	57	0	2854
6.6.1	win	2022-12-24	12:22:33	12:38:20	940027	5a99f17035237b0001128ff2	631817877	1	main_z	11	main_z	141	stimuli_distractor_trianglediamonds.svg	stimuli_distractor_diamondtriangles.svg	36	no	0	1	2000
6.6.1	win	2022-12-24	12:22:33	12:38:20	940027	5a99f17035237b0001128ff2	631817877	1	main_z	11	advance_on_keypress_ZEE	142	stimuli_distractor_trianglediamonds.svg	stimuli_distractor_diamondtriangles.svg	36	no	57	0	765
6.6.1	win	2022-12-24	12:22:33	12:38:22	941956	5a99f17035237b0001128ff2	631817877	1	main_z	11	main_z	143	stimuli_target_diamondsquares.svg	stimuli_distractor_diamondtriangles.svg	24	yes	44	1	505
6.6.1	win	2022-12-24	12:22:33	12:38:22	941956	5a99f17035237b0001128ff2	631817877	1	main_z	11	advance_on_keypress_ZEE	144	stimuli_target_diamondsquares.svg	stimuli_distractor_diamondtriangles.svg	24	yes	57	0	1226
6.6.1	win	2022-12-24	12:22:33	12:38:24	944355	5a99f17035237b0001128ff2	631817877	1	main_z	11	main_z	145	stimuli_target_trianglesquares.svg	stimuli_distractor_trianglediamonds.svg	18	yes	44	1	504
6.6.1	win	2022-12-24	12:22:33	12:38:24	944355	5a99f17035237b0001128ff2	631817877	1	main_z	11	advance_on_keypress_ZEE	146	stimuli_target_trianglesquares.svg	stimuli_distractor_trianglediamonds.svg	18	yes	57	0	704
6.6.1	win	2022-12-24	12:22:33	12:38:27	946793	5a99f17035237b0001128ff2	631817877	1	main_z	11	main_z	147	stimuli_distractor_diamondtriangles.svg	stimuli_distractor_trianglediamonds.svg	38	no	44	0	1087
6.6.1	win	2022-12-24	12:22:33	12:38:27	946793	5a99f17035237b0001128ff2	631817877	1	main_z	11	advance_on_keypress_ZEE	148	stimuli_distractor_diamondtriangles.svg	stimuli_distractor_trianglediamonds.svg	38	no	57	0	769
6.6.1	win	2022-12-24	12:22:33	12:38:29	948835	5a99f17035237b0001128ff2	631817877	1	main_z	11	main_z	149	stimuli_target_circletriangles.svg	stimuli_distractor_trianglediamonds.svg	1	yes	44	1	631
6.6.1	win	2022-12-24	12:22:33	12:38:29	948835	5a99f17035237b0001128ff2	631817877	1	main_z	11	advance_on_keypress_ZEE	150	stimuli_target_circletriangles.svg	stimuli_distractor_trianglediamonds.svg	1	yes	57	0	747
6.6.1	win	2022-12-24	12:22:33	12:38:31	950782	5a99f17035237b0001128ff2	631817877	1	main_z	11	main_z	151	stimuli_distractor_trianglediamonds.svg	stimuli_target_circletriangles.svg	9	yes	44	1	546
6.6.1	win	2022-12-24	12:22:33	12:38:31	950782	5a99f17035237b0001128ff2	631817877	1	main_z	11	advance_on_keypress_ZEE	152	stimuli_distractor_trianglediamonds.svg	stimuli_target_circletriangles.svg	9	yes	57	0	661
6.6.1	win	2022-12-24	12:22:33	12:38:34	954101	5a99f17035237b0001128ff2	631817877	1	main_z	11	main_z	153	stimuli_distractor_diamondtriangles.svg	stimuli_target_squarediamonds.svg	16	yes	0	0	2000
6.6.1	win	2022-12-24	12:22:33	12:38:34	954101	5a99f17035237b0001128ff2	631817877	1	main_z	11	advance_on_keypress_ZEE	154	stimuli_distractor_diamondtriangles.svg	stimuli_target_squarediamonds.svg	16	yes	57	0	384
6.6.1	win	2022-12-24	12:22:33	12:38:36	955937	5a99f17035237b0001128ff2	631817877	1	main_z	11	main_z	155	stimuli_target_circlediamonds.svg	stimuli_distractor_trianglediamonds.svg	2	yes	44	1	804
6.6.1	win	2022-12-24	12:22:33	12:38:36	955937	5a99f17035237b0001128ff2	631817877	1	main_z	11	advance_on_keypress_ZEE	156	stimuli_target_circlediamonds.svg	stimuli_distractor_trianglediamonds.svg	2	yes	57	0	2449
6.6.1	win	2022-12-24	12:22:33	12:38:40	959815	5a99f17035237b0001128ff2	631817877	1	main_z	11	main_z	157	stimuli_distractor_diamondtriangles.svg	stimuli_target_circlediamonds.svg	14	yes	44	1	785
6.6.1	win	2022-12-24	12:22:33	12:38:40	959815	5a99f17035237b0001128ff2	631817877	1	main_z	11	advance_on_keypress_ZEE	158	stimuli_distractor_diamondtriangles.svg	stimuli_target_circlediamonds.svg	14	yes	57	0	506
6.6.1	win	2022-12-24	12:22:33	12:38:42	961812	5a99f17035237b0001128ff2	631817877	1	main_z	11	main_z	159	stimuli_target_trianglesquares.svg	stimuli_distractor_diamondtriangles.svg	22	yes	44	1	850
6.6.1	win	2022-12-24	12:22:33	12:38:42	961812	5a99f17035237b0001128ff2	631817877	1	main_z	11	advance_on_keypress_ZEE	160	stimuli_target_trianglesquares.svg	stimuli_distractor_diamondtriangles.svg	22	yes	57	0	511