build	computer.platform	date	time	timestamp	time_elapsed_ms	subject	group	session	blockcode	blocknum	trialcode	trialnum	stimulus_left	stimulus_right	stim_index	target_present	response	correct	latency
6.6.1	win	2022-12-14	19:12:54	19:16:26	207827	5e455faf462e0802d9d9c3e2	219483207	1	practice_slash	5	practice_slash	1	stimuli_distractor_trianglediamonds.svg	stimuli_target_squarediamonds.svg	11	yes	53	1	1110
6.6.1	win	2022-12-14	19:12:54	19:16:26	207827	5e455faf462e0802d9d9c3e2	219483207	1	practice_slash	5	advance_on_keypress_SLASH	2	stimuli_distractor_trianglediamonds.svg	stimuli_target_squarediamonds.svg	11	yes	57	0	1225
6.6.1	win	2022-12-14	19:12:54	19:16:29	211306	5e455faf462e0802d9d9c3e2	219483207	1	practice_slash	5	practice_slash	3	stimuli_distractor_trianglediamonds.svg	stimuli_target_circlediamonds.svg	10	yes	53	1	592
6.6.1	win	2022-12-14	19:12:54	19:16:29	211306	5e455faf462e0802d9d9c3e2	219483207	1	practice_slash	5	advance_on_keypress_SLASH	4	stimuli_distractor_trianglediamonds.svg	stimuli_target_circlediamonds.svg	10	yes	57	0	1217
6.6.1	win	2022-12-14	19:12:54	19:16:33	214802	5e455faf462e0802d9d9c3e2	219483207	1	practice_slash	5	practice_slash	5	stimuli_target_circlediamonds.svg	stimuli_distractor_diamondtriangles.svg	1	yes	53	1	621
6.6.1	win	2022-12-14	19:12:54	19:16:33	214802	5e455faf462e0802d9d9c3e2	219483207	1	practice_slash	5	advance_on_keypress_SLASH	6	stimuli_target_circlediamonds.svg	stimuli_distractor_diamondtriangles.svg	1	yes	57	0	732
6.6.1	win	2022-12-14	19:12:54	19:16:37	219179	5e455faf462e0802d9d9c3e2	219483207	1	practice_slash	5	practice_slash	7	stimuli_distractor_trianglediamonds.svg	stimuli_distractor_trianglediamonds.svg	15	no	0	1	2000
6.6.1	win	2022-12-14	19:12:54	19:16:37	219179	5e455faf462e0802d9d9c3e2	219483207	1	practice_slash	5	advance_on_keypress_SLASH	8	stimuli_distractor_trianglediamonds.svg	stimuli_distractor_trianglediamonds.svg	15	no	57	0	538
6.6.1	win	2022-12-14	19:12:54	19:16:40	221951	5e455faf462e0802d9d9c3e2	219483207	1	practice_slash	5	practice_slash	9	stimuli_target_circlediamonds.svg	stimuli_distractor_trianglediamonds.svg	4	yes	53	1	587
6.6.1	win	2022-12-14	19:12:54	19:16:40	221951	5e455faf462e0802d9d9c3e2	219483207	1	practice_slash	5	advance_on_keypress_SLASH	10	stimuli_target_circlediamonds.svg	stimuli_distractor_trianglediamonds.svg	4	yes	57	0	1231
6.6.1	win	2022-12-14	19:12:54	19:16:43	225469	5e455faf462e0802d9d9c3e2	219483207	1	practice_slash	5	practice_slash	11	stimuli_target_squarediamonds.svg	stimuli_distractor_trianglediamonds.svg	5	yes	53	1	625
6.6.1	win	2022-12-14	19:12:54	19:16:43	225469	5e455faf462e0802d9d9c3e2	219483207	1	practice_slash	5	advance_on_keypress_SLASH	12	stimuli_target_squarediamonds.svg	stimuli_distractor_trianglediamonds.svg	5	yes	57	0	1053
6.6.1	win	2022-12-14	19:12:54	19:16:48	230176	5e455faf462e0802d9d9c3e2	219483207	1	practice_slash	5	practice_slash	13	stimuli_distractor_diamondtriangles.svg	stimuli_distractor_diamondtriangles.svg	13	no	0	1	2000
6.6.1	win	2022-12-14	19:12:54	19:16:48	230176	5e455faf462e0802d9d9c3e2	219483207	1	practice_slash	5	advance_on_keypress_SLASH	14	stimuli_distractor_diamondtriangles.svg	stimuli_distractor_diamondtriangles.svg	13	no	57	0	703
6.6.1	win	2022-12-14	19:12:54	19:16:51	233158	5e455faf462e0802d9d9c3e2	219483207	1	practice_slash	5	practice_slash	15	stimuli_target_squarediamonds.svg	stimuli_distractor_diamondtriangles.svg	2	yes	53	1	634
6.6.1	win	2022-12-14	19:12:54	19:16:51	233158	5e455faf462e0802d9d9c3e2	219483207	1	practice_slash	5	advance_on_keypress_SLASH	16	stimuli_target_squarediamonds.svg	stimuli_distractor_diamondtriangles.svg	2	yes	57	0	1136
6.6.1	win	2022-12-14	19:12:54	19:16:56	237944	5e455faf462e0802d9d9c3e2	219483207	1	practice_slash	5	practice_slash	17	stimuli_target_diamondsquares.svg	stimuli_distractor_diamondtriangles.svg	3	yes	0	0	2000
6.6.1	win	2022-12-14	19:12:54	19:16:56	237944	5e455faf462e0802d9d9c3e2	219483207	1	practice_slash	5	advance_on_keypress_SLASH	18	stimuli_target_diamondsquares.svg	stimuli_distractor_diamondtriangles.svg	3	yes	57	0	1041
6.6.1	win	2022-12-14	19:12:54	19:17:00	242621	5e455faf462e0802d9d9c3e2	219483207	1	practice_slash	5	practice_slash	19	stimuli_target_diamondsquares.svg	stimuli_distractor_trianglediamonds.svg	6	yes	0	0	2000
6.6.1	win	2022-12-14	19:12:54	19:17:00	242621	5e455faf462e0802d9d9c3e2	219483207	1	practice_slash	5	advance_on_keypress_SLASH	20	stimuli_target_diamondsquares.svg	stimuli_distractor_trianglediamonds.svg	6	yes	57	0	597
6.6.1	win	2022-12-14	19:12:54	19:17:04	245813	5e455faf462e0802d9d9c3e2	219483207	1	practice_slash	5	practice_slash	21	stimuli_distractor_diamondtriangles.svg	stimuli_target_diamondcircles.svg	8	yes	53	1	943
6.6.1	win	2022-12-14	19:12:54	19:17:04	245813	5e455faf462e0802d9d9c3e2	219483207	1	practice_slash	5	advance_on_keypress_SLASH	22	stimuli_distractor_diamondtriangles.svg	stimuli_target_diamondcircles.svg	8	yes	57	0	3156
6.6.1	win	2022-12-14	19:12:54	19:17:09	251690	5e455faf462e0802d9d9c3e2	219483207	1	practice_slash	5	practice_slash	23	stimuli_distractor_diamondtriangles.svg	stimuli_target_trianglecircles.svg	9	yes	53	1	1055
6.6.1	win	2022-12-14	19:12:54	19:17:09	251690	5e455faf462e0802d9d9c3e2	219483207	1	practice_slash	5	advance_on_keypress_SLASH	24	stimuli_distractor_diamondtriangles.svg	stimuli_target_trianglecircles.svg	9	yes	57	0	1563
6.6.1	win	2022-12-14	19:12:54	19:17:13	255539	5e455faf462e0802d9d9c3e2	219483207	1	practice_slash	5	practice_slash	25	stimuli_distractor_trianglediamonds.svg	stimuli_target_diamondcircles.svg	12	yes	53	1	639
6.6.1	win	2022-12-14	19:12:54	19:17:13	255539	5e455faf462e0802d9d9c3e2	219483207	1	practice_slash	5	advance_on_keypress_SLASH	26	stimuli_distractor_trianglediamonds.svg	stimuli_target_diamondcircles.svg	12	yes	57	0	2237
6.6.1	win	2022-12-14	19:12:54	19:17:19	261415	5e455faf462e0802d9d9c3e2	219483207	1	practice_slash	5	practice_slash	27	stimuli_distractor_diamondtriangles.svg	stimuli_distractor_trianglediamonds.svg	14	no	0	1	2000
6.6.1	win	2022-12-14	19:12:54	19:17:19	261415	5e455faf462e0802d9d9c3e2	219483207	1	practice_slash	5	advance_on_keypress_SLASH	28	stimuli_distractor_diamondtriangles.svg	stimuli_distractor_trianglediamonds.svg	14	no	57	0	708
6.6.1	win	2022-12-14	19:12:54	19:17:22	264323	5e455faf462e0802d9d9c3e2	219483207	1	practice_slash	5	practice_slash	29	stimuli_distractor_diamondtriangles.svg	stimuli_target_circletriangles.svg	7	yes	53	1	543
6.6.1	win	2022-12-14	19:12:54	19:17:22	264323	5e455faf462e0802d9d9c3e2	219483207	1	practice_slash	5	advance_on_keypress_SLASH	30	stimuli_distractor_diamondtriangles.svg	stimuli_target_circletriangles.svg	7	yes	57	0	1393
6.6.1	win	2022-12-14	19:12:54	19:17:27	269379	5e455faf462e0802d9d9c3e2	219483207	1	practice_slash	5	practice_slash	31	stimuli_distractor_trianglediamonds.svg	stimuli_distractor_diamondtriangles.svg	16	no	0	1	2000
6.6.1	win	2022-12-14	19:12:54	19:17:27	269379	5e455faf462e0802d9d9c3e2	219483207	1	practice_slash	5	advance_on_keypress_SLASH	32	stimuli_distractor_trianglediamonds.svg	stimuli_distractor_diamondtriangles.svg	16	no	57	0	502
6.6.1	win	2022-12-14	19:12:54	19:17:39	281236	5e455faf462e0802d9d9c3e2	219483207	1	main_slash	7	main_slash	1	stimuli_target_circlediamonds.svg	stimuli_distractor_diamondtriangles.svg	6	yes	53	1	514
6.6.1	win	2022-12-14	19:12:54	19:17:39	281236	5e455faf462e0802d9d9c3e2	219483207	1	main_slash	7	advance_on_keypress_SLASH	2	stimuli_target_circlediamonds.svg	stimuli_distractor_diamondtriangles.svg	6	yes	57	0	1833
6.6.1	win	2022-12-14	19:12:54	19:17:42	284338	5e455faf462e0802d9d9c3e2	219483207	1	main_slash	7	main_slash	3	stimuli_target_trianglecircles.svg	stimuli_distractor_trianglediamonds.svg	17	yes	53	1	617
6.6.1	win	2022-12-14	19:12:54	19:17:42	284338	5e455faf462e0802d9d9c3e2	219483207	1	main_slash	7	advance_on_keypress_SLASH	4	stimuli_target_trianglecircles.svg	stimuli_distractor_trianglediamonds.svg	17	yes	57	0	2001
6.6.1	win	2022-12-14	19:12:54	19:17:45	287502	5e455faf462e0802d9d9c3e2	219483207	1	main_slash	7	main_slash	5	stimuli_distractor_trianglediamonds.svg	stimuli_target_trianglecircles.svg	25	yes	53	1	507
6.6.1	win	2022-12-14	19:12:54	19:17:45	287502	5e455faf462e0802d9d9c3e2	219483207	1	main_slash	7	advance_on_keypress_SLASH	6	stimuli_distractor_trianglediamonds.svg	stimuli_target_trianglecircles.svg	25	yes	57	0	1881
6.6.1	win	2022-12-14	19:12:54	19:17:50	292035	5e455faf462e0802d9d9c3e2	219483207	1	main_slash	7	main_slash	7	stimuli_distractor_diamondtriangles.svg	stimuli_distractor_trianglediamonds.svg	37	no	0	1	2000
6.6.1	win	2022-12-14	19:12:54	19:17:50	292035	5e455faf462e0802d9d9c3e2	219483207	1	main_slash	7	advance_on_keypress_SLASH	8	stimuli_distractor_diamondtriangles.svg	stimuli_distractor_trianglediamonds.svg	37	no	57	0	662
6.6.1	win	2022-12-14	19:12:54	19:17:52	293903	5e455faf462e0802d9d9c3e2	219483207	1	main_slash	7	main_slash	9	stimuli_distractor_trianglediamonds.svg	stimuli_target_trianglesquares.svg	26	yes	53	1	552
6.6.1	win	2022-12-14	19:12:54	19:17:52	293903	5e455faf462e0802d9d9c3e2	219483207	1	main_slash	7	advance_on_keypress_SLASH	10	stimuli_distractor_trianglediamonds.svg	stimuli_target_trianglesquares.svg	26	yes	57	0	1933
6.6.1	win	2022-12-14	19:12:54	19:17:55	297105	5e455faf462e0802d9d9c3e2	219483207	1	main_slash	7	main_slash	11	stimuli_target_squarediamonds.svg	stimuli_distractor_trianglediamonds.svg	4	yes	53	1	622
6.6.1	win	2022-12-14	19:12:54	19:17:55	297105	5e455faf462e0802d9d9c3e2	219483207	1	main_slash	7	advance_on_keypress_SLASH	12	stimuli_target_squarediamonds.svg	stimuli_distractor_trianglediamonds.svg	4	yes	57	0	1627
6.6.1	win	2022-12-14	19:12:54	19:17:58	300147	5e455faf462e0802d9d9c3e2	219483207	1	main_slash	7	main_slash	13	stimuli_target_diamondcircles.svg	stimuli_distractor_diamondtriangles.svg	23	yes	53	1	765
6.6.1	win	2022-12-14	19:12:54	19:17:58	300147	5e455faf462e0802d9d9c3e2	219483207	1	main_slash	7	advance_on_keypress_SLASH	14	stimuli_target_diamondcircles.svg	stimuli_distractor_diamondtriangles.svg	23	yes	57	0	1306
6.6.1	win	2022-12-14	19:12:54	19:18:01	303389	5e455faf462e0802d9d9c3e2	219483207	1	main_slash	7	main_slash	15	stimuli_distractor_diamondtriangles.svg	stimuli_target_circlediamonds.svg	14	yes	53	1	1290
6.6.1	win	2022-12-14	19:12:54	19:18:01	303389	5e455faf462e0802d9d9c3e2	219483207	1	main_slash	7	advance_on_keypress_SLASH	16	stimuli_distractor_diamondtriangles.svg	stimuli_target_circlediamonds.svg	14	yes	57	0	1505
6.6.1	win	2022-12-14	19:12:54	19:18:04	306307	5e455faf462e0802d9d9c3e2	219483207	1	main_slash	7	main_slash	17	stimuli_distractor_trianglediamonds.svg	stimuli_target_diamondcircles.svg	27	yes	53	1	777
6.6.1	win	2022-12-14	19:12:54	19:18:04	306307	5e455faf462e0802d9d9c3e2	219483207	1	main_slash	7	advance_on_keypress_SLASH	18	stimuli_distractor_trianglediamonds.svg	stimuli_target_diamondcircles.svg	27	yes	57	0	1033
6.6.1	win	2022-12-14	19:12:54	19:18:07	308762	5e455faf462e0802d9d9c3e2	219483207	1	main_slash	7	main_slash	19	stimuli_distractor_trianglediamonds.svg	stimuli_target_squaretriangles.svg	11	yes	53	1	766
6.6.1	win	2022-12-14	19:12:54	19:18:07	308762	5e455faf462e0802d9d9c3e2	219483207	1	main_slash	7	advance_on_keypress_SLASH	20	stimuli_distractor_trianglediamonds.svg	stimuli_target_squaretriangles.svg	11	yes	57	0	1114
6.6.1	win	2022-12-14	19:12:54	19:18:09	311168	5e455faf462e0802d9d9c3e2	219483207	1	main_slash	7	main_slash	21	stimuli_distractor_trianglediamonds.svg	stimuli_target_circlediamonds.svg	10	yes	53	1	639
6.6.1	win	2022-12-14	19:12:54	19:18:09	311168	5e455faf462e0802d9d9c3e2	219483207	1	main_slash	7	advance_on_keypress_SLASH	22	stimuli_distractor_trianglediamonds.svg	stimuli_target_circlediamonds.svg	10	yes	57	0	766
6.6.1	win	2022-12-14	19:12:54	19:18:11	313513	5e455faf462e0802d9d9c3e2	219483207	1	main_slash	7	main_slash	23	stimuli_target_circletriangles.svg	stimuli_distractor_diamondtriangles.svg	5	yes	53	1	935
6.6.1	win	2022-12-14	19:12:54	19:18:11	313513	5e455faf462e0802d9d9c3e2	219483207	1	main_slash	7	advance_on_keypress_SLASH	24	stimuli_target_circletriangles.svg	stimuli_distractor_diamondtriangles.svg	5	yes	57	0	1041
6.6.1	win	2022-12-14	19:12:54	19:18:14	315813	5e455faf462e0802d9d9c3e2	219483207	1	main_slash	7	main_slash	25	stimuli_distractor_diamondtriangles.svg	stimuli_target_squarediamonds.svg	16	yes	53	1	620
6.6.1	win	2022-12-14	19:12:54	19:18:14	315813	5e455faf462e0802d9d9c3e2	219483207	1	main_slash	7	advance_on_keypress_SLASH	26	stimuli_distractor_diamondtriangles.svg	stimuli_target_squarediamonds.svg	16	yes	57	0	1560
6.6.1	win	2022-12-14	19:12:54	19:18:16	318627	5e455faf462e0802d9d9c3e2	219483207	1	main_slash	7	main_slash	27	stimuli_target_circletriangles.svg	stimuli_distractor_trianglediamonds.svg	1	yes	53	1	601
6.6.1	win	2022-12-14	19:12:54	19:18:16	318627	5e455faf462e0802d9d9c3e2	219483207	1	main_slash	7	advance_on_keypress_SLASH	28	stimuli_target_circletriangles.svg	stimuli_distractor_trianglediamonds.svg	1	yes	57	0	706
6.6.1	win	2022-12-14	19:12:54	19:18:18	320583	5e455faf462e0802d9d9c3e2	219483207	1	main_slash	7	main_slash	29	stimuli_target_squaretriangles.svg	stimuli_distractor_trianglediamonds.svg	3	yes	53	1	609
6.6.1	win	2022-12-14	19:12:54	19:18:18	320583	5e455faf462e0802d9d9c3e2	219483207	1	main_slash	7	advance_on_keypress_SLASH	30	stimuli_target_squaretriangles.svg	stimuli_distractor_trianglediamonds.svg	3	yes	57	0	933
6.6.1	win	2022-12-14	19:12:54	19:18:20	322695	5e455faf462e0802d9d9c3e2	219483207	1	main_slash	7	main_slash	31	stimuli_distractor_trianglediamonds.svg	stimuli_target_squarediamonds.svg	12	yes	53	1	537
6.6.1	win	2022-12-14	19:12:54	19:18:20	322695	5e455faf462e0802d9d9c3e2	219483207	1	main_slash	7	advance_on_keypress_SLASH	32	stimuli_distractor_trianglediamonds.svg	stimuli_target_squarediamonds.svg	12	yes	57	0	600
6.6.1	win	2022-12-14	19:12:54	19:18:24	325940	5e455faf462e0802d9d9c3e2	219483207	1	main_slash	7	main_slash	33	stimuli_target_trianglesquares.svg	stimuli_distractor_diamondtriangles.svg	22	yes	0	0	2000
6.6.1	win	2022-12-14	19:12:54	19:18:24	325940	5e455faf462e0802d9d9c3e2	219483207	1	main_slash	7	advance_on_keypress_SLASH	34	stimuli_target_trianglesquares.svg	stimuli_distractor_diamondtriangles.svg	22	yes	57	0	807
6.6.1	win	2022-12-14	19:12:54	19:18:27	329389	5e455faf462e0802d9d9c3e2	219483207	1	main_slash	7	main_slash	35	stimuli_distractor_trianglediamonds.svg	stimuli_distractor_diamondtriangles.svg	35	no	0	1	2000
6.6.1	win	2022-12-14	19:12:54	19:18:27	329389	5e455faf462e0802d9d9c3e2	219483207	1	main_slash	7	advance_on_keypress_SLASH	36	stimuli_distractor_trianglediamonds.svg	stimuli_distractor_diamondtriangles.svg	35	no	57	0	351
6.6.1	win	2022-12-14	19:12:54	19:18:30	332388	5e455faf462e0802d9d9c3e2	219483207	1	main_slash	7	main_slash	37	stimuli_distractor_trianglediamonds.svg	stimuli_distractor_trianglediamonds.svg	33	no	0	1	2000
6.6.1	win	2022-12-14	19:12:54	19:18:30	332388	5e455faf462e0802d9d9c3e2	219483207	1	main_slash	7	advance_on_keypress_SLASH	38	stimuli_distractor_trianglediamonds.svg	stimuli_distractor_trianglediamonds.svg	33	no	57	0	2242
6.6.1	win	2022-12-14	19:12:54	19:18:34	335836	5e455faf462e0802d9d9c3e2	219483207	1	main_slash	7	main_slash	39	stimuli_distractor_diamondtriangles.svg	stimuli_target_trianglecircles.svg	29	yes	53	1	550
6.6.1	win	2022-12-14	19:12:54	19:18:34	335836	5e455faf462e0802d9d9c3e2	219483207	1	main_slash	7	advance_on_keypress_SLASH	40	stimuli_distractor_diamondtriangles.svg	stimuli_target_trianglecircles.svg	29	yes	57	0	935
6.6.1	win	2022-12-14	19:12:54	19:18:36	338241	5e455faf462e0802d9d9c3e2	219483207	1	main_slash	7	main_slash	41	stimuli_distractor_diamondtriangles.svg	stimuli_target_trianglesquares.svg	30	yes	53	1	822
6.6.1	win	2022-12-14	19:12:54	19:18:36	338241	5e455faf462e0802d9d9c3e2	219483207	1	main_slash	7	advance_on_keypress_SLASH	42	stimuli_distractor_diamondtriangles.svg	stimuli_target_trianglesquares.svg	30	yes	57	0	821
6.6.1	win	2022-12-14	19:12:54	19:18:38	340353	5e455faf462e0802d9d9c3e2	219483207	1	main_slash	7	main_slash	43	stimuli_distractor_diamondtriangles.svg	stimuli_target_circletriangles.svg	13	yes	53	1	652
6.6.1	win	2022-12-14	19:12:54	19:18:38	340353	5e455faf462e0802d9d9c3e2	219483207	1	main_slash	7	advance_on_keypress_SLASH	44	stimuli_distractor_diamondtriangles.svg	stimuli_target_circletriangles.svg	13	yes	57	0	607
6.6.1	win	2022-12-14	19:12:54	19:18:40	342175	5e455faf462e0802d9d9c3e2	219483207	1	main_slash	7	main_slash	45	stimuli_distractor_diamondtriangles.svg	stimuli_target_diamondcircles.svg	31	yes	53	1	574
6.6.1	win	2022-12-14	19:12:54	19:18:40	342175	5e455faf462e0802d9d9c3e2	219483207	1	main_slash	7	advance_on_keypress_SLASH	46	stimuli_distractor_diamondtriangles.svg	stimuli_target_diamondcircles.svg	31	yes	57	0	578
6.6.1	win	2022-12-14	19:12:54	19:18:42	344222	5e455faf462e0802d9d9c3e2	219483207	1	main_slash	7	main_slash	47	stimuli_target_squarediamonds.svg	stimuli_distractor_diamondtriangles.svg	8	yes	53	1	821
6.6.1	win	2022-12-14	19:12:54	19:18:42	344222	5e455faf462e0802d9d9c3e2	219483207	1	main_slash	7	advance_on_keypress_SLASH	48	stimuli_target_squarediamonds.svg	stimuli_distractor_diamondtriangles.svg	8	yes	57	0	2095
6.6.1	win	2022-12-14	19:12:54	19:18:45	347727	5e455faf462e0802d9d9c3e2	219483207	1	main_slash	7	main_slash	49	stimuli_distractor_diamondtriangles.svg	stimuli_target_diamondsquares.svg	32	yes	53	1	761
6.6.1	win	2022-12-14	19:12:54	19:18:45	347727	5e455faf462e0802d9d9c3e2	219483207	1	main_slash	7	advance_on_keypress_SLASH	50	stimuli_distractor_diamondtriangles.svg	stimuli_target_diamondsquares.svg	32	yes	57	0	775
6.6.1	win	2022-12-14	19:12:54	19:18:48	350202	5e455faf462e0802d9d9c3e2	219483207	1	main_slash	7	main_slash	51	stimuli_target_trianglecircles.svg	stimuli_distractor_diamondtriangles.svg	21	yes	53	1	1054
6.6.1	win	2022-12-14	19:12:54	19:18:48	350202	5e455faf462e0802d9d9c3e2	219483207	1	main_slash	7	advance_on_keypress_SLASH	52	stimuli_target_trianglecircles.svg	stimuli_distractor_diamondtriangles.svg	21	yes	57	0	869
6.6.1	win	2022-12-14	19:12:54	19:18:50	352328	5e455faf462e0802d9d9c3e2	219483207	1	main_slash	7	main_slash	53	stimuli_target_diamondcircles.svg	stimuli_distractor_trianglediamonds.svg	19	yes	53	1	614
6.6.1	win	2022-12-14	19:12:54	19:18:50	352328	5e455faf462e0802d9d9c3e2	219483207	1	main_slash	7	advance_on_keypress_SLASH	54	stimuli_target_diamondcircles.svg	stimuli_distractor_trianglediamonds.svg	19	yes	57	0	893
6.6.1	win	2022-12-14	19:12:54	19:18:54	355863	5e455faf462e0802d9d9c3e2	219483207	1	main_slash	7	main_slash	55	stimuli_distractor_trianglediamonds.svg	stimuli_distractor_trianglediamonds.svg	34	no	0	1	2000
6.6.1	win	2022-12-14	19:12:54	19:18:54	355863	5e455faf462e0802d9d9c3e2	219483207	1	main_slash	7	advance_on_keypress_SLASH	56	stimuli_distractor_trianglediamonds.svg	stimuli_distractor_trianglediamonds.svg	34	no	57	0	374
6.6.1	win	2022-12-14	19:12:54	19:18:55	357628	5e455faf462e0802d9d9c3e2	219483207	1	main_slash	7	main_slash	57	stimuli_target_squaretriangles.svg	stimuli_distractor_diamondtriangles.svg	7	yes	53	1	749
6.6.1	win	2022-12-14	19:12:54	19:18:55	357628	5e455faf462e0802d9d9c3e2	219483207	1	main_slash	7	advance_on_keypress_SLASH	58	stimuli_target_squaretriangles.svg	stimuli_distractor_diamondtriangles.svg	7	yes	57	0	645
6.6.1	win	2022-12-14	19:12:54	19:18:58	359923	5e455faf462e0802d9d9c3e2	219483207	1	main_slash	7	main_slash	59	stimuli_distractor_trianglediamonds.svg	stimuli_target_diamondsquares.svg	28	yes	53	1	995
6.6.1	win	2022-12-14	19:12:54	19:18:58	359923	5e455faf462e0802d9d9c3e2	219483207	1	main_slash	7	advance_on_keypress_SLASH	60	stimuli_distractor_trianglediamonds.svg	stimuli_target_diamondsquares.svg	28	yes	57	0	950
6.6.1	win	2022-12-14	19:12:54	19:19:01	363527	5e455faf462e0802d9d9c3e2	219483207	1	main_slash	7	main_slash	61	stimuli_target_diamondsquares.svg	stimuli_distractor_trianglediamonds.svg	20	yes	0	0	2000
6.6.1	win	2022-12-14	19:12:54	19:19:01	363527	5e455faf462e0802d9d9c3e2	219483207	1	main_slash	7	advance_on_keypress_SLASH	62	stimuli_target_diamondsquares.svg	stimuli_distractor_trianglediamonds.svg	20	yes	57	0	483
6.6.1	win	2022-12-14	19:12:54	19:19:04	366659	5e455faf462e0802d9d9c3e2	219483207	1	main_slash	7	main_slash	63	stimuli_distractor_trianglediamonds.svg	stimuli_distractor_diamondtriangles.svg	36	no	0	1	2000
6.6.1	win	2022-12-14	19:12:54	19:19:04	366659	5e455faf462e0802d9d9c3e2	219483207	1	main_slash	7	advance_on_keypress_SLASH	64	stimuli_distractor_trianglediamonds.svg	stimuli_distractor_diamondtriangles.svg	36	no	57	0	617
6.6.1	win	2022-12-14	19:12:54	19:19:06	368643	5e455faf462e0802d9d9c3e2	219483207	1	main_slash	7	main_slash	65	stimuli_target_trianglesquares.svg	stimuli_distractor_trianglediamonds.svg	18	yes	53	1	717
6.6.1	win	2022-12-14	19:12:54	19:19:06	368643	5e455faf462e0802d9d9c3e2	219483207	1	main_slash	7	advance_on_keypress_SLASH	66	stimuli_target_trianglesquares.svg	stimuli_distractor_trianglediamonds.svg	18	yes	57	0	1029
6.6.1	win	2022-12-14	19:12:54	19:19:10	372324	5e455faf462e0802d9d9c3e2	219483207	1	main_slash	7	main_slash	67	stimuli_distractor_diamondtriangles.svg	stimuli_distractor_diamondtriangles.svg	40	no	0	1	2000
6.6.1	win	2022-12-14	19:12:54	19:19:10	372324	5e455faf462e0802d9d9c3e2	219483207	1	main_slash	7	advance_on_keypress_SLASH	68	stimuli_distractor_diamondtriangles.svg	stimuli_distractor_diamondtriangles.svg	40	no	57	0	305
6.6.1	win	2022-12-14	19:12:54	19:19:12	373875	5e455faf462e0802d9d9c3e2	219483207	1	main_slash	7	main_slash	69	stimuli_distractor_diamondtriangles.svg	stimuli_target_squaretriangles.svg	15	yes	53	1	602
6.6.1	win	2022-12-14	19:12:54	19:19:12	373875	5e455faf462e0802d9d9c3e2	219483207	1	main_slash	7	advance_on_keypress_SLASH	70	stimuli_distractor_diamondtriangles.svg	stimuli_target_squaretriangles.svg	15	yes	57	0	648
6.6.1	win	2022-12-14	19:12:54	19:19:14	375848	5e455faf462e0802d9d9c3e2	219483207	1	main_slash	7	main_slash	71	stimuli_distractor_trianglediamonds.svg	stimuli_target_circletriangles.svg	9	yes	53	1	674
6.6.1	win	2022-12-14	19:12:54	19:19:14	375848	5e455faf462e0802d9d9c3e2	219483207	1	main_slash	7	advance_on_keypress_SLASH	72	stimuli_distractor_trianglediamonds.svg	stimuli_target_circletriangles.svg	9	yes	57	0	566
6.6.1	win	2022-12-14	19:12:54	19:19:17	379055	5e455faf462e0802d9d9c3e2	219483207	1	main_slash	7	main_slash	73	stimuli_distractor_diamondtriangles.svg	stimuli_distractor_trianglediamonds.svg	38	no	0	1	2000
6.6.1	win	2022-12-14	19:12:54	19:19:17	379055	5e455faf462e0802d9d9c3e2	219483207	1	main_slash	7	advance_on_keypress_SLASH	74	stimuli_distractor_diamondtriangles.svg	stimuli_distractor_trianglediamonds.svg	38	no	57	0	451
6.6.1	win	2022-12-14	19:12:54	19:19:20	382154	5e455faf462e0802d9d9c3e2	219483207	1	main_slash	7	main_slash	75	stimuli_distractor_diamondtriangles.svg	stimuli_distractor_diamondtriangles.svg	39	no	0	1	2000
6.6.1	win	2022-12-14	19:12:54	19:19:20	382154	5e455faf462e0802d9d9c3e2	219483207	1	main_slash	7	advance_on_keypress_SLASH	76	stimuli_distractor_diamondtriangles.svg	stimuli_distractor_diamondtriangles.svg	39	no	57	0	310
6.6.1	win	2022-12-14	19:12:54	19:19:21	383710	5e455faf462e0802d9d9c3e2	219483207	1	main_slash	7	main_slash	77	stimuli_target_diamondsquares.svg	stimuli_distractor_diamondtriangles.svg	24	yes	53	1	607
6.6.1	win	2022-12-14	19:12:54	19:19:21	383710	5e455faf462e0802d9d9c3e2	219483207	1	main_slash	7	advance_on_keypress_SLASH	78	stimuli_target_diamondsquares.svg	stimuli_distractor_diamondtriangles.svg	24	yes	57	0	873
6.6.1	win	2022-12-14	19:12:54	19:19:24	385892	5e455faf462e0802d9d9c3e2	219483207	1	main_slash	7	main_slash	79	stimuli_target_circlediamonds.svg	stimuli_distractor_trianglediamonds.svg	2	yes	53	1	673
6.6.1	win	2022-12-14	19:12:54	19:19:24	385892	5e455faf462e0802d9d9c3e2	219483207	1	main_slash	7	advance_on_keypress_SLASH	80	stimuli_target_circlediamonds.svg	stimuli_distractor_trianglediamonds.svg	2	yes	57	0	975
6.6.1	win	2022-12-14	19:12:54	19:19:26	388267	5e455faf462e0802d9d9c3e2	219483207	1	main_slash	7	main_slash	81	stimuli_target_diamondsquares.svg	stimuli_distractor_diamondtriangles.svg	24	yes	53	1	765
6.6.1	win	2022-12-14	19:12:54	19:19:26	388267	5e455faf462e0802d9d9c3e2	219483207	1	main_slash	7	advance_on_keypress_SLASH	82	stimuli_target_diamondsquares.svg	stimuli_distractor_diamondtriangles.svg	24	yes	57	0	803
6.6.1	win	2022-12-14	19:12:54	19:19:28	390403	5e455faf462e0802d9d9c3e2	219483207	1	main_slash	7	main_slash	83	stimuli_target_diamondcircles.svg	stimuli_distractor_diamondtriangles.svg	23	yes	53	1	685
6.6.1	win	2022-12-14	19:12:54	19:19:28	390403	5e455faf462e0802d9d9c3e2	219483207	1	main_slash	7	advance_on_keypress_SLASH	84	stimuli_target_diamondcircles.svg	stimuli_distractor_diamondtriangles.svg	23	yes	57	0	1231
6.6.1	win	2022-12-14	19:12:54	19:19:32	394283	5e455faf462e0802d9d9c3e2	219483207	1	main_slash	7	main_slash	85	stimuli_distractor_diamondtriangles.svg	stimuli_distractor_trianglediamonds.svg	38	no	0	1	2000
6.6.1	win	2022-12-14	19:12:54	19:19:32	394283	5e455faf462e0802d9d9c3e2	219483207	1	main_slash	7	advance_on_keypress_SLASH	86	stimuli_distractor_diamondtriangles.svg	stimuli_distractor_trianglediamonds.svg	38	no	57	0	541
6.6.1	win	2022-12-14	19:12:54	19:19:34	396230	5e455faf462e0802d9d9c3e2	219483207	1	main_slash	7	main_slash	87	stimuli_target_trianglesquares.svg	stimuli_distractor_trianglediamonds.svg	18	yes	53	1	764
6.6.1	win	2022-12-14	19:12:54	19:19:34	396230	5e455faf462e0802d9d9c3e2	219483207	1	main_slash	7	advance_on_keypress_SLASH	88	stimuli_target_trianglesquares.svg	stimuli_distractor_trianglediamonds.svg	18	yes	57	0	763
6.6.1	win	2022-12-14	19:12:54	19:19:36	398450	5e455faf462e0802d9d9c3e2	219483207	1	main_slash	7	main_slash	89	stimuli_target_circletriangles.svg	stimuli_distractor_trianglediamonds.svg	1	yes	53	1	802
6.6.1	win	2022-12-14	19:12:54	19:19:36	398450	5e455faf462e0802d9d9c3e2	219483207	1	main_slash	7	advance_on_keypress_SLASH	90	stimuli_target_circletriangles.svg	stimuli_distractor_trianglediamonds.svg	1	yes	57	0	1370
6.6.1	win	2022-12-14	19:12:54	19:19:39	401130	5e455faf462e0802d9d9c3e2	219483207	1	main_slash	7	main_slash	91	stimuli_distractor_diamondtriangles.svg	stimuli_target_trianglesquares.svg	30	yes	53	1	666
6.6.1	win	2022-12-14	19:12:54	19:19:39	401130	5e455faf462e0802d9d9c3e2	219483207	1	main_slash	7	advance_on_keypress_SLASH	92	stimuli_distractor_diamondtriangles.svg	stimuli_target_trianglesquares.svg	30	yes	57	0	1730
6.6.1	win	2022-12-14	19:12:54	19:19:42	404197	5e455faf462e0802d9d9c3e2	219483207	1	main_slash	7	main_slash	93	stimuli_distractor_trianglediamonds.svg	stimuli_target_squarediamonds.svg	12	yes	53	1	684
6.6.1	win	2022-12-14	19:12:54	19:19:42	404197	5e455faf462e0802d9d9c3e2	219483207	1	main_slash	7	advance_on_keypress_SLASH	94	stimuli_distractor_trianglediamonds.svg	stimuli_target_squarediamonds.svg	12	yes	57	0	728
6.6.1	win	2022-12-14	19:12:54	19:19:44	406150	5e455faf462e0802d9d9c3e2	219483207	1	main_slash	7	main_slash	95	stimuli_target_circlediamonds.svg	stimuli_distractor_diamondtriangles.svg	6	yes	53	1	588
6.6.1	win	2022-12-14	19:12:54	19:19:44	406150	5e455faf462e0802d9d9c3e2	219483207	1	main_slash	7	advance_on_keypress_SLASH	96	stimuli_target_circlediamonds.svg	stimuli_distractor_diamondtriangles.svg	6	yes	57	0	705
6.6.1	win	2022-12-14	19:12:54	19:19:46	408116	5e455faf462e0802d9d9c3e2	219483207	1	main_slash	7	main_slash	97	stimuli_distractor_diamondtriangles.svg	stimuli_target_circlediamonds.svg	14	yes	53	1	621
6.6.1	win	2022-12-14	19:12:54	19:19:46	408116	5e455faf462e0802d9d9c3e2	219483207	1	main_slash	7	advance_on_keypress_SLASH	98	stimuli_distractor_diamondtriangles.svg	stimuli_target_circlediamonds.svg	14	yes	57	0	691
6.6.1	win	2022-12-14	19:12:54	19:19:48	410073	5e455faf462e0802d9d9c3e2	219483207	1	main_slash	7	main_slash	99	stimuli_target_squarediamonds.svg	stimuli_distractor_trianglediamonds.svg	4	yes	53	1	629
6.6.1	win	2022-12-14	19:12:54	19:19:48	410073	5e455faf462e0802d9d9c3e2	219483207	1	main_slash	7	advance_on_keypress_SLASH	100	stimuli_target_squarediamonds.svg	stimuli_distractor_trianglediamonds.svg	4	yes	57	0	702
6.6.1	win	2022-12-14	19:12:54	19:19:50	412050	5e455faf462e0802d9d9c3e2	219483207	1	main_slash	7	main_slash	101	stimuli_target_trianglecircles.svg	stimuli_distractor_trianglediamonds.svg	17	yes	53	1	623
6.6.1	win	2022-12-14	19:12:54	19:19:50	412050	5e455faf462e0802d9d9c3e2	219483207	1	main_slash	7	advance_on_keypress_SLASH	102	stimuli_target_trianglecircles.svg	stimuli_distractor_trianglediamonds.svg	17	yes	57	0	643
6.6.1	win	2022-12-14	19:12:54	19:19:53	415326	5e455faf462e0802d9d9c3e2	219483207	1	main_slash	7	main_slash	103	stimuli_distractor_diamondtriangles.svg	stimuli_distractor_diamondtriangles.svg	40	no	0	1	2000
6.6.1	win	2022-12-14	19:12:54	19:19:53	415326	5e455faf462e0802d9d9c3e2	219483207	1	main_slash	7	advance_on_keypress_SLASH	104	stimuli_distractor_diamondtriangles.svg	stimuli_distractor_diamondtriangles.svg	40	no	57	0	653
6.6.1	win	2022-12-14	19:12:54	19:19:55	417315	5e455faf462e0802d9d9c3e2	219483207	1	main_slash	7	main_slash	105	stimuli_distractor_diamondtriangles.svg	stimuli_target_squarediamonds.svg	16	yes	53	1	689
6.6.1	win	2022-12-14	19:12:54	19:19:55	417315	5e455faf462e0802d9d9c3e2	219483207	1	main_slash	7	advance_on_keypress_SLASH	106	stimuli_distractor_diamondtriangles.svg	stimuli_target_squarediamonds.svg	16	yes	57	0	875
6.6.1	win	2022-12-14	19:12:54	19:19:57	419707	5e455faf462e0802d9d9c3e2	219483207	1	main_slash	7	main_slash	107	stimuli_target_trianglecircles.svg	stimuli_distractor_diamondtriangles.svg	21	yes	53	1	878
6.6.1	win	2022-12-14	19:12:54	19:19:57	419707	5e455faf462e0802d9d9c3e2	219483207	1	main_slash	7	advance_on_keypress_SLASH	108	stimuli_target_trianglecircles.svg	stimuli_distractor_diamondtriangles.svg	21	yes	57	0	1056
6.6.1	win	2022-12-14	19:12:54	19:20:00	422061	5e455faf462e0802d9d9c3e2	219483207	1	main_slash	7	main_slash	109	stimuli_distractor_diamondtriangles.svg	stimuli_target_trianglecircles.svg	29	yes	53	1	637
6.6.1	win	2022-12-14	19:12:54	19:20:00	422061	5e455faf462e0802d9d9c3e2	219483207	1	main_slash	7	advance_on_keypress_SLASH	110	stimuli_distractor_diamondtriangles.svg	stimuli_target_trianglecircles.svg	29	yes	57	0	814
6.6.1	win	2022-12-14	19:12:54	19:20:02	424273	5e455faf462e0802d9d9c3e2	219483207	1	main_slash	7	main_slash	111	stimuli_distractor_diamondtriangles.svg	stimuli_target_diamondsquares.svg	32	yes	53	1	749
6.6.1	win	2022-12-14	19:12:54	19:20:02	424273	5e455faf462e0802d9d9c3e2	219483207	1	main_slash	7	advance_on_keypress_SLASH	112	stimuli_distractor_diamondtriangles.svg	stimuli_target_diamondsquares.svg	32	yes	57	0	869
6.6.1	win	2022-12-14	19:12:54	19:20:04	426727	5e455faf462e0802d9d9c3e2	219483207	1	main_slash	7	main_slash	113	stimuli_target_diamondcircles.svg	stimuli_distractor_trianglediamonds.svg	19	yes	53	1	937
6.6.1	win	2022-12-14	19:12:54	19:20:04	426727	5e455faf462e0802d9d9c3e2	219483207	1	main_slash	7	advance_on_keypress_SLASH	114	stimuli_target_diamondcircles.svg	stimuli_distractor_trianglediamonds.svg	19	yes	57	0	1259
6.6.1	win	2022-12-14	19:12:54	19:20:07	429719	5e455faf462e0802d9d9c3e2	219483207	1	main_slash	7	main_slash	115	stimuli_distractor_diamondtriangles.svg	stimuli_target_squaretriangles.svg	15	yes	53	1	1098
6.6.1	win	2022-12-14	19:12:54	19:20:07	429719	5e455faf462e0802d9d9c3e2	219483207	1	main_slash	7	advance_on_keypress_SLASH	116	stimuli_distractor_diamondtriangles.svg	stimuli_target_squaretriangles.svg	15	yes	57	0	978
6.6.1	win	2022-12-14	19:12:54	19:20:11	433354	5e455faf462e0802d9d9c3e2	219483207	1	main_slash	7	main_slash	117	stimuli_distractor_trianglediamonds.svg	stimuli_distractor_diamondtriangles.svg	36	no	0	1	2000
6.6.1	win	2022-12-14	19:12:54	19:20:11	433354	5e455faf462e0802d9d9c3e2	219483207	1	main_slash	7	advance_on_keypress_SLASH	118	stimuli_distractor_trianglediamonds.svg	stimuli_distractor_diamondtriangles.svg	36	no	57	0	474
6.6.1	win	2022-12-14	19:12:54	19:20:13	435427	5e455faf462e0802d9d9c3e2	219483207	1	main_slash	7	main_slash	119	stimuli_distractor_trianglediamonds.svg	stimuli_target_diamondsquares.svg	28	yes	53	1	958
6.6.1	win	2022-12-14	19:12:54	19:20:13	435427	5e455faf462e0802d9d9c3e2	219483207	1	main_slash	7	advance_on_keypress_SLASH	120	stimuli_distractor_trianglediamonds.svg	stimuli_target_diamondsquares.svg	28	yes	57	0	803
6.6.1	win	2022-12-14	19:12:54	19:20:16	438435	5e455faf462e0802d9d9c3e2	219483207	1	main_slash	7	main_slash	121	stimuli_target_squaretriangles.svg	stimuli_distractor_trianglediamonds.svg	3	yes	53	1	1567
6.6.1	win	2022-12-14	19:12:54	19:20:16	438435	5e455faf462e0802d9d9c3e2	219483207	1	main_slash	7	advance_on_keypress_SLASH	122	stimuli_target_squaretriangles.svg	stimuli_distractor_trianglediamonds.svg	3	yes	57	0	661
6.6.1	win	2022-12-14	19:12:54	19:20:19	441750	5e455faf462e0802d9d9c3e2	219483207	1	main_slash	7	main_slash	123	stimuli_distractor_diamondtriangles.svg	stimuli_distractor_trianglediamonds.svg	37	no	0	1	2000
6.6.1	win	2022-12-14	19:12:54	19:20:19	441750	5e455faf462e0802d9d9c3e2	219483207	1	main_slash	7	advance_on_keypress_SLASH	124	stimuli_distractor_diamondtriangles.svg	stimuli_distractor_trianglediamonds.svg	37	no	57	0	1310
6.6.1	win	2022-12-14	19:12:54	19:20:22	444392	5e455faf462e0802d9d9c3e2	219483207	1	main_slash	7	main_slash	125	stimuli_target_trianglesquares.svg	stimuli_distractor_diamondtriangles.svg	22	yes	53	1	692
6.6.1	win	2022-12-14	19:12:54	19:20:22	444392	5e455faf462e0802d9d9c3e2	219483207	1	main_slash	7	advance_on_keypress_SLASH	126	stimuli_target_trianglesquares.svg	stimuli_distractor_diamondtriangles.svg	22	yes	57	0	642
6.6.1	win	2022-12-14	19:12:54	19:20:24	446443	5e455faf462e0802d9d9c3e2	219483207	1	main_slash	7	main_slash	127	stimuli_distractor_trianglediamonds.svg	stimuli_target_circletriangles.svg	9	yes	53	1	761
6.6.1	win	2022-12-14	19:12:54	19:20:24	446443	5e455faf462e0802d9d9c3e2	219483207	1	main_slash	7	advance_on_keypress_SLASH	128	stimuli_distractor_trianglediamonds.svg	stimuli_target_circletriangles.svg	9	yes	57	0	1292
6.6.1	win	2022-12-14	19:12:54	19:20:27	449112	5e455faf462e0802d9d9c3e2	219483207	1	main_slash	7	main_slash	129	stimuli_distractor_trianglediamonds.svg	stimuli_target_squaretriangles.svg	11	yes	53	1	731
6.6.1	win	2022-12-14	19:12:54	19:20:27	449112	5e455faf462e0802d9d9c3e2	219483207	1	main_slash	7	advance_on_keypress_SLASH	130	stimuli_distractor_trianglediamonds.svg	stimuli_target_squaretriangles.svg	11	yes	57	0	1869
6.6.1	win	2022-12-14	19:12:54	19:20:30	452359	5e455faf462e0802d9d9c3e2	219483207	1	main_slash	7	main_slash	131	stimuli_distractor_diamondtriangles.svg	stimuli_target_diamondcircles.svg	31	yes	53	1	729
6.6.1	win	2022-12-14	19:12:54	19:20:30	452359	5e455faf462e0802d9d9c3e2	219483207	1	main_slash	7	advance_on_keypress_SLASH	132	stimuli_distractor_diamondtriangles.svg	stimuli_target_diamondcircles.svg	31	yes	57	0	649
6.6.1	win	2022-12-14	19:12:54	19:20:32	454377	5e455faf462e0802d9d9c3e2	219483207	1	main_slash	7	main_slash	133	stimuli_distractor_trianglediamonds.svg	stimuli_target_trianglesquares.svg	26	yes	53	1	713
6.6.1	win	2022-12-14	19:12:54	19:20:32	454377	5e455faf462e0802d9d9c3e2	219483207	1	main_slash	7	advance_on_keypress_SLASH	134	stimuli_distractor_trianglediamonds.svg	stimuli_target_trianglesquares.svg	26	yes	57	0	857
6.6.1	win	2022-12-14	19:12:54	19:20:35	456816	5e455faf462e0802d9d9c3e2	219483207	1	main_slash	7	main_slash	135	stimuli_target_squaretriangles.svg	stimuli_distractor_diamondtriangles.svg	7	yes	53	1	938
6.6.1	win	2022-12-14	19:12:54	19:20:35	456816	5e455faf462e0802d9d9c3e2	219483207	1	main_slash	7	advance_on_keypress_SLASH	136	stimuli_target_squaretriangles.svg	stimuli_distractor_diamondtriangles.svg	7	yes	57	0	665
6.6.1	win	2022-12-14	19:12:54	19:20:37	458798	5e455faf462e0802d9d9c3e2	219483207	1	main_slash	7	main_slash	137	stimuli_distractor_diamondtriangles.svg	stimuli_target_circletriangles.svg	13	yes	53	1	670
6.6.1	win	2022-12-14	19:12:54	19:20:37	458798	5e455faf462e0802d9d9c3e2	219483207	1	main_slash	7	advance_on_keypress_SLASH	138	stimuli_distractor_diamondtriangles.svg	stimuli_target_circletriangles.svg	13	yes	57	0	724
6.6.1	win	2022-12-14	19:12:54	19:20:39	460909	5e455faf462e0802d9d9c3e2	219483207	1	main_slash	7	main_slash	139	stimuli_target_squarediamonds.svg	stimuli_distractor_diamondtriangles.svg	8	yes	53	1	749
6.6.1	win	2022-12-14	19:12:54	19:20:39	460909	5e455faf462e0802d9d9c3e2	219483207	1	main_slash	7	advance_on_keypress_SLASH	140	stimuli_target_squarediamonds.svg	stimuli_distractor_diamondtriangles.svg	8	yes	57	0	616
6.6.1	win	2022-12-14	19:12:54	19:20:42	464176	5e455faf462e0802d9d9c3e2	219483207	1	main_slash	7	main_slash	141	stimuli_distractor_trianglediamonds.svg	stimuli_distractor_diamondtriangles.svg	35	no	0	1	2000
6.6.1	win	2022-12-14	19:12:54	19:20:42	464176	5e455faf462e0802d9d9c3e2	219483207	1	main_slash	7	advance_on_keypress_SLASH	142	stimuli_distractor_trianglediamonds.svg	stimuli_distractor_diamondtriangles.svg	35	no	57	0	487
6.6.1	win	2022-12-14	19:12:54	19:20:45	467308	5e455faf462e0802d9d9c3e2	219483207	1	main_slash	7	main_slash	143	stimuli_distractor_diamondtriangles.svg	stimuli_distractor_diamondtriangles.svg	39	no	0	1	2000
6.6.1	win	2022-12-14	19:12:54	19:20:45	467308	5e455faf462e0802d9d9c3e2	219483207	1	main_slash	7	advance_on_keypress_SLASH	144	stimuli_distractor_diamondtriangles.svg	stimuli_distractor_diamondtriangles.svg	39	no	57	0	328
6.6.1	win	2022-12-14	19:12:54	19:20:47	468862	5e455faf462e0802d9d9c3e2	219483207	1	main_slash	7	main_slash	145	stimuli_distractor_trianglediamonds.svg	stimuli_target_circlediamonds.svg	10	yes	53	1	571
6.6.1	win	2022-12-14	19:12:54	19:20:47	468862	5e455faf462e0802d9d9c3e2	219483207	1	main_slash	7	advance_on_keypress_SLASH	146	stimuli_distractor_trianglediamonds.svg	stimuli_target_circlediamonds.svg	10	yes	57	0	596
6.6.1	win	2022-12-14	19:12:54	19:20:49	470755	5e455faf462e0802d9d9c3e2	219483207	1	main_slash	7	main_slash	147	stimuli_distractor_trianglediamonds.svg	stimuli_target_diamondcircles.svg	27	yes	53	1	648
6.6.1	win	2022-12-14	19:12:54	19:20:49	470755	5e455faf462e0802d9d9c3e2	219483207	1	main_slash	7	advance_on_keypress_SLASH	148	stimuli_distractor_trianglediamonds.svg	stimuli_target_diamondcircles.svg	27	yes	57	0	649
6.6.1	win	2022-12-14	19:12:54	19:20:50	472642	5e455faf462e0802d9d9c3e2	219483207	1	main_slash	7	main_slash	149	stimuli_distractor_trianglediamonds.svg	stimuli_target_trianglecircles.svg	25	yes	53	1	586
6.6.1	win	2022-12-14	19:12:54	19:20:50	472642	5e455faf462e0802d9d9c3e2	219483207	1	main_slash	7	advance_on_keypress_SLASH	150	stimuli_distractor_trianglediamonds.svg	stimuli_target_trianglecircles.svg	25	yes	57	0	539
6.6.1	win	2022-12-14	19:12:54	19:20:52	474679	5e455faf462e0802d9d9c3e2	219483207	1	main_slash	7	main_slash	151	stimuli_target_circletriangles.svg	stimuli_distractor_diamondtriangles.svg	5	yes	53	1	857
6.6.1	win	2022-12-14	19:12:54	19:20:52	474679	5e455faf462e0802d9d9c3e2	219483207	1	main_slash	7	advance_on_keypress_SLASH	152	stimuli_target_circletriangles.svg	stimuli_distractor_diamondtriangles.svg	5	yes	57	0	784
6.6.1	win	2022-12-14	19:12:54	19:20:56	478105	5e455faf462e0802d9d9c3e2	219483207	1	main_slash	7	main_slash	153	stimuli_distractor_trianglediamonds.svg	stimuli_distractor_trianglediamonds.svg	34	no	0	1	2000
6.6.1	win	2022-12-14	19:12:54	19:20:56	478105	5e455faf462e0802d9d9c3e2	219483207	1	main_slash	7	advance_on_keypress_SLASH	154	stimuli_distractor_trianglediamonds.svg	stimuli_distractor_trianglediamonds.svg	34	no	57	0	368
6.6.1	win	2022-12-14	19:12:54	19:20:59	481120	5e455faf462e0802d9d9c3e2	219483207	1	main_slash	7	main_slash	155	stimuli_distractor_trianglediamonds.svg	stimuli_distractor_trianglediamonds.svg	33	no	0	1	2000
6.6.1	win	2022-12-14	19:12:54	19:20:59	481120	5e455faf462e0802d9d9c3e2	219483207	1	main_slash	7	advance_on_keypress_SLASH	156	stimuli_distractor_trianglediamonds.svg	stimuli_distractor_trianglediamonds.svg	33	no	57	0	262
6.6.1	win	2022-12-14	19:12:54	19:21:00	482648	5e455faf462e0802d9d9c3e2	219483207	1	main_slash	7	main_slash	157	stimuli_target_circlediamonds.svg	stimuli_distractor_trianglediamonds.svg	2	yes	53	1	612
6.6.1	win	2022-12-14	19:12:54	19:21:00	482648	5e455faf462e0802d9d9c3e2	219483207	1	main_slash	7	advance_on_keypress_SLASH	158	stimuli_target_circlediamonds.svg	stimuli_distractor_trianglediamonds.svg	2	yes	57	0	516
6.6.1	win	2022-12-14	19:12:54	19:21:03	484874	5e455faf462e0802d9d9c3e2	219483207	1	main_slash	7	main_slash	159	stimuli_target_diamondsquares.svg	stimuli_distractor_trianglediamonds.svg	20	yes	53	1	1054
6.6.1	win	2022-12-14	19:12:54	19:21:03	484874	5e455faf462e0802d9d9c3e2	219483207	1	main_slash	7	advance_on_keypress_SLASH	160	stimuli_target_diamondsquares.svg	stimuli_distractor_trianglediamonds.svg	20	yes	57	0	616
6.6.1	win	2022-12-14	19:12:54	19:21:33	515019	5e455faf462e0802d9d9c3e2	219483207	1	practice_z	9	practice_z	1	stimuli_distractor_diamondtriangles.svg	stimuli_target_diamondcircles.svg	8	yes	44	1	690
6.6.1	win	2022-12-14	19:12:54	19:21:33	515019	5e455faf462e0802d9d9c3e2	219483207	1	practice_z	9	advance_on_keypress_ZEE	2	stimuli_distractor_diamondtriangles.svg	stimuli_target_diamondcircles.svg	8	yes	57	0	766
6.6.1	win	2022-12-14	19:12:54	19:21:36	518070	5e455faf462e0802d9d9c3e2	219483207	1	practice_z	9	practice_z	3	stimuli_distractor_diamondtriangles.svg	stimuli_target_circletriangles.svg	7	yes	44	1	624
6.6.1	win	2022-12-14	19:12:54	19:21:36	518070	5e455faf462e0802d9d9c3e2	219483207	1	practice_z	9	advance_on_keypress_ZEE	4	stimuli_distractor_diamondtriangles.svg	stimuli_target_circletriangles.svg	7	yes	57	0	331
6.6.1	win	2022-12-14	19:12:54	19:21:38	520534	5e455faf462e0802d9d9c3e2	219483207	1	practice_z	9	practice_z	5	stimuli_target_diamondsquares.svg	stimuli_distractor_trianglediamonds.svg	6	yes	44	1	474
6.6.1	win	2022-12-14	19:12:54	19:21:38	520534	5e455faf462e0802d9d9c3e2	219483207	1	practice_z	9	advance_on_keypress_ZEE	6	stimuli_target_diamondsquares.svg	stimuli_distractor_trianglediamonds.svg	6	yes	57	0	446
6.6.1	win	2022-12-14	19:12:54	19:21:41	523093	5e455faf462e0802d9d9c3e2	219483207	1	practice_z	9	practice_z	7	stimuli_distractor_diamondtriangles.svg	stimuli_target_trianglecircles.svg	9	yes	44	1	467
6.6.1	win	2022-12-14	19:12:54	19:21:41	523093	5e455faf462e0802d9d9c3e2	219483207	1	practice_z	9	advance_on_keypress_ZEE	8	stimuli_distractor_diamondtriangles.svg	stimuli_target_trianglecircles.svg	9	yes	57	0	370
6.6.1	win	2022-12-14	19:12:54	19:21:43	525703	5e455faf462e0802d9d9c3e2	219483207	1	practice_z	9	practice_z	9	stimuli_distractor_trianglediamonds.svg	stimuli_target_diamondcircles.svg	12	yes	44	1	595
6.6.1	win	2022-12-14	19:12:54	19:21:43	525703	5e455faf462e0802d9d9c3e2	219483207	1	practice_z	9	advance_on_keypress_ZEE	10	stimuli_distractor_trianglediamonds.svg	stimuli_target_diamondcircles.svg	12	yes	57	0	592
6.6.1	win	2022-12-14	19:12:54	19:21:46	528358	5e455faf462e0802d9d9c3e2	219483207	1	practice_z	9	practice_z	11	stimuli_distractor_trianglediamonds.svg	stimuli_target_squarediamonds.svg	11	yes	44	1	416
6.6.1	win	2022-12-14	19:12:54	19:21:46	528358	5e455faf462e0802d9d9c3e2	219483207	1	practice_z	9	advance_on_keypress_ZEE	12	stimuli_distractor_trianglediamonds.svg	stimuli_target_squarediamonds.svg	11	yes	57	0	526
6.6.1	win	2022-12-14	19:12:54	19:21:50	532540	5e455faf462e0802d9d9c3e2	219483207	1	practice_z	9	practice_z	13	stimuli_distractor_diamondtriangles.svg	stimuli_distractor_trianglediamonds.svg	14	no	0	1	2000
6.6.1	win	2022-12-14	19:12:54	19:21:50	532540	5e455faf462e0802d9d9c3e2	219483207	1	practice_z	9	advance_on_keypress_ZEE	14	stimuli_distractor_diamondtriangles.svg	stimuli_distractor_trianglediamonds.svg	14	no	57	0	508
6.6.1	win	2022-12-14	19:12:54	19:21:53	535277	5e455faf462e0802d9d9c3e2	219483207	1	practice_z	9	practice_z	15	stimuli_target_diamondsquares.svg	stimuli_distractor_diamondtriangles.svg	3	yes	44	1	589
6.6.1	win	2022-12-14	19:12:54	19:21:53	535277	5e455faf462e0802d9d9c3e2	219483207	1	practice_z	9	advance_on_keypress_ZEE	16	stimuli_target_diamondsquares.svg	stimuli_distractor_diamondtriangles.svg	3	yes	57	0	549
6.6.1	win	2022-12-14	19:12:54	19:21:56	538002	5e455faf462e0802d9d9c3e2	219483207	1	practice_z	9	practice_z	17	stimuli_target_circlediamonds.svg	stimuli_distractor_trianglediamonds.svg	4	yes	44	1	513
6.6.1	win	2022-12-14	19:12:54	19:21:56	538002	5e455faf462e0802d9d9c3e2	219483207	1	practice_z	9	advance_on_keypress_ZEE	18	stimuli_target_circlediamonds.svg	stimuli_distractor_trianglediamonds.svg	4	yes	57	0	539
6.6.1	win	2022-12-14	19:12:54	19:22:00	542186	5e455faf462e0802d9d9c3e2	219483207	1	practice_z	9	practice_z	19	stimuli_distractor_diamondtriangles.svg	stimuli_distractor_diamondtriangles.svg	13	no	0	1	2000
6.6.1	win	2022-12-14	19:12:54	19:22:00	542186	5e455faf462e0802d9d9c3e2	219483207	1	practice_z	9	advance_on_keypress_ZEE	20	stimuli_distractor_diamondtriangles.svg	stimuli_distractor_diamondtriangles.svg	13	no	57	0	391
6.6.1	win	2022-12-14	19:12:54	19:22:04	546218	5e455faf462e0802d9d9c3e2	219483207	1	practice_z	9	practice_z	21	stimuli_distractor_trianglediamonds.svg	stimuli_distractor_diamondtriangles.svg	16	no	0	1	2000
6.6.1	win	2022-12-14	19:12:54	19:22:04	546218	5e455faf462e0802d9d9c3e2	219483207	1	practice_z	9	advance_on_keypress_ZEE	22	stimuli_distractor_trianglediamonds.svg	stimuli_distractor_diamondtriangles.svg	16	no	57	0	267
6.6.1	win	2022-12-14	19:12:54	19:22:08	550133	5e455faf462e0802d9d9c3e2	219483207	1	practice_z	9	practice_z	23	stimuli_distractor_trianglediamonds.svg	stimuli_distractor_trianglediamonds.svg	15	no	0	1	2000
6.6.1	win	2022-12-14	19:12:54	19:22:08	550133	5e455faf462e0802d9d9c3e2	219483207	1	practice_z	9	advance_on_keypress_ZEE	24	stimuli_distractor_trianglediamonds.svg	stimuli_distractor_trianglediamonds.svg	15	no	57	0	410
6.6.1	win	2022-12-14	19:12:54	19:22:10	552684	5e455faf462e0802d9d9c3e2	219483207	1	practice_z	9	practice_z	25	stimuli_target_circlediamonds.svg	stimuli_distractor_diamondtriangles.svg	1	yes	44	1	486
6.6.1	win	2022-12-14	19:12:54	19:22:10	552684	5e455faf462e0802d9d9c3e2	219483207	1	practice_z	9	advance_on_keypress_ZEE	26	stimuli_target_circlediamonds.svg	stimuli_distractor_diamondtriangles.svg	1	yes	57	0	556
6.6.1	win	2022-12-14	19:12:54	19:22:13	555314	5e455faf462e0802d9d9c3e2	219483207	1	practice_z	9	practice_z	27	stimuli_distractor_trianglediamonds.svg	stimuli_target_circlediamonds.svg	10	yes	44	1	433
6.6.1	win	2022-12-14	19:12:54	19:22:13	555314	5e455faf462e0802d9d9c3e2	219483207	1	practice_z	9	advance_on_keypress_ZEE	28	stimuli_distractor_trianglediamonds.svg	stimuli_target_circlediamonds.svg	10	yes	57	0	457
6.6.1	win	2022-12-14	19:12:54	19:22:16	557893	5e455faf462e0802d9d9c3e2	219483207	1	practice_z	9	practice_z	29	stimuli_target_squarediamonds.svg	stimuli_distractor_trianglediamonds.svg	5	yes	44	1	479
6.6.1	win	2022-12-14	19:12:54	19:22:16	557893	5e455faf462e0802d9d9c3e2	219483207	1	practice_z	9	advance_on_keypress_ZEE	30	stimuli_target_squarediamonds.svg	stimuli_distractor_trianglediamonds.svg	5	yes	57	0	584
6.6.1	win	2022-12-14	19:12:54	19:22:18	560611	5e455faf462e0802d9d9c3e2	219483207	1	practice_z	9	practice_z	31	stimuli_target_squarediamonds.svg	stimuli_distractor_diamondtriangles.svg	2	yes	44	1	477
6.6.1	win	2022-12-14	19:12:54	19:22:18	560611	5e455faf462e0802d9d9c3e2	219483207	1	practice_z	9	advance_on_keypress_ZEE	32	stimuli_target_squarediamonds.svg	stimuli_distractor_diamondtriangles.svg	2	yes	57	0	804
6.6.1	win	2022-12-14	19:12:54	19:22:25	567665	5e455faf462e0802d9d9c3e2	219483207	1	main_z	11	main_z	1	stimuli_distractor_diamondtriangles.svg	stimuli_target_diamondsquares.svg	32	yes	44	1	607
6.6.1	win	2022-12-14	19:12:54	19:22:25	567665	5e455faf462e0802d9d9c3e2	219483207	1	main_z	11	advance_on_keypress_ZEE	2	stimuli_distractor_diamondtriangles.svg	stimuli_target_diamondsquares.svg	32	yes	57	0	961
6.6.1	win	2022-12-14	19:12:54	19:22:28	569871	5e455faf462e0802d9d9c3e2	219483207	1	main_z	11	main_z	3	stimuli_target_circletriangles.svg	stimuli_distractor_diamondtriangles.svg	5	yes	44	1	581
6.6.1	win	2022-12-14	19:12:54	19:22:28	569871	5e455faf462e0802d9d9c3e2	219483207	1	main_z	11	advance_on_keypress_ZEE	4	stimuli_target_circletriangles.svg	stimuli_distractor_diamondtriangles.svg	5	yes	57	0	828
6.6.1	win	2022-12-14	19:12:54	19:22:30	572016	5e455faf462e0802d9d9c3e2	219483207	1	main_z	11	main_z	5	stimuli_target_diamondsquares.svg	stimuli_distractor_diamondtriangles.svg	24	yes	44	1	660
6.6.1	win	2022-12-14	19:12:54	19:22:30	572016	5e455faf462e0802d9d9c3e2	219483207	1	main_z	11	advance_on_keypress_ZEE	6	stimuli_target_diamondsquares.svg	stimuli_distractor_diamondtriangles.svg	24	yes	57	0	809
6.6.1	win	2022-12-14	19:12:54	19:22:32	573928	5e455faf462e0802d9d9c3e2	219483207	1	main_z	11	main_z	7	stimuli_distractor_diamondtriangles.svg	stimuli_target_circlediamonds.svg	14	yes	44	1	456
6.6.1	win	2022-12-14	19:12:54	19:22:32	573928	5e455faf462e0802d9d9c3e2	219483207	1	main_z	11	advance_on_keypress_ZEE	8	stimuli_distractor_diamondtriangles.svg	stimuli_target_circlediamonds.svg	14	yes	57	0	671
6.6.1	win	2022-12-14	19:12:54	19:22:33	575694	5e455faf462e0802d9d9c3e2	219483207	1	main_z	11	main_z	9	stimuli_distractor_trianglediamonds.svg	stimuli_target_circlediamonds.svg	10	yes	44	1	437
6.6.1	win	2022-12-14	19:12:54	19:22:33	575694	5e455faf462e0802d9d9c3e2	219483207	1	main_z	11	advance_on_keypress_ZEE	10	stimuli_distractor_trianglediamonds.svg	stimuli_target_circlediamonds.svg	10	yes	57	0	493
6.6.1	win	2022-12-14	19:12:54	19:22:35	577428	5e455faf462e0802d9d9c3e2	219483207	1	main_z	11	main_z	11	stimuli_target_squarediamonds.svg	stimuli_distractor_trianglediamonds.svg	4	yes	44	1	591
6.6.1	win	2022-12-14	19:12:54	19:22:35	577428	5e455faf462e0802d9d9c3e2	219483207	1	main_z	11	advance_on_keypress_ZEE	12	stimuli_target_squarediamonds.svg	stimuli_distractor_trianglediamonds.svg	4	yes	57	0	664
6.6.1	win	2022-12-14	19:12:54	19:22:38	580737	5e455faf462e0802d9d9c3e2	219483207	1	main_z	11	main_z	13	stimuli_target_trianglesquares.svg	stimuli_distractor_trianglediamonds.svg	18	yes	0	0	2000
6.6.1	win	2022-12-14	19:12:54	19:22:38	580737	5e455faf462e0802d9d9c3e2	219483207	1	main_z	11	advance_on_keypress_ZEE	14	stimuli_target_trianglesquares.svg	stimuli_distractor_trianglediamonds.svg	18	yes	57	0	406
6.6.1	win	2022-12-14	19:12:54	19:22:42	583785	5e455faf462e0802d9d9c3e2	219483207	1	main_z	11	main_z	15	stimuli_distractor_diamondtriangles.svg	stimuli_distractor_diamondtriangles.svg	39	no	0	1	2000
6.6.1	win	2022-12-14	19:12:54	19:22:42	583785	5e455faf462e0802d9d9c3e2	219483207	1	main_z	11	advance_on_keypress_ZEE	16	stimuli_distractor_diamondtriangles.svg	stimuli_distractor_diamondtriangles.svg	39	no	57	0	259
6.6.1	win	2022-12-14	19:12:54	19:22:43	585126	5e455faf462e0802d9d9c3e2	219483207	1	main_z	11	main_z	17	stimuli_distractor_diamondtriangles.svg	stimuli_target_diamondcircles.svg	31	yes	44	1	441
6.6.1	win	2022-12-14	19:12:54	19:22:43	585126	5e455faf462e0802d9d9c3e2	219483207	1	main_z	11	advance_on_keypress_ZEE	18	stimuli_distractor_diamondtriangles.svg	stimuli_target_diamondcircles.svg	31	yes	57	0	863
6.6.1	win	2022-12-14	19:12:54	19:22:45	587098	5e455faf462e0802d9d9c3e2	219483207	1	main_z	11	main_z	19	stimuli_target_squaretriangles.svg	stimuli_distractor_diamondtriangles.svg	7	yes	44	1	464
6.6.1	win	2022-12-14	19:12:54	19:22:45	587098	5e455faf462e0802d9d9c3e2	219483207	1	main_z	11	advance_on_keypress_ZEE	20	stimuli_target_squaretriangles.svg	stimuli_distractor_diamondtriangles.svg	7	yes	57	0	564
6.6.1	win	2022-12-14	19:12:54	19:22:47	588945	5e455faf462e0802d9d9c3e2	219483207	1	main_z	11	main_z	21	stimuli_target_trianglesquares.svg	stimuli_distractor_diamondtriangles.svg	22	yes	44	1	628
6.6.1	win	2022-12-14	19:12:54	19:22:47	588945	5e455faf462e0802d9d9c3e2	219483207	1	main_z	11	advance_on_keypress_ZEE	22	stimuli_target_trianglesquares.svg	stimuli_distractor_diamondtriangles.svg	22	yes	57	0	566
6.6.1	win	2022-12-14	19:12:54	19:22:48	590598	5e455faf462e0802d9d9c3e2	219483207	1	main_z	11	main_z	23	stimuli_target_circlediamonds.svg	stimuli_distractor_diamondtriangles.svg	6	yes	44	1	432
6.6.1	win	2022-12-14	19:12:54	19:22:48	590598	5e455faf462e0802d9d9c3e2	219483207	1	main_z	11	advance_on_keypress_ZEE	24	stimuli_target_circlediamonds.svg	stimuli_distractor_diamondtriangles.svg	6	yes	57	0	630
6.6.1	win	2022-12-14	19:12:54	19:22:50	592301	5e455faf462e0802d9d9c3e2	219483207	1	main_z	11	main_z	25	stimuli_target_circlediamonds.svg	stimuli_distractor_trianglediamonds.svg	2	yes	44	1	419
6.6.1	win	2022-12-14	19:12:54	19:22:50	592301	5e455faf462e0802d9d9c3e2	219483207	1	main_z	11	advance_on_keypress_ZEE	26	stimuli_target_circlediamonds.svg	stimuli_distractor_trianglediamonds.svg	2	yes	57	0	597
6.6.1	win	2022-12-14	19:12:54	19:22:53	595548	5e455faf462e0802d9d9c3e2	219483207	1	main_z	11	main_z	27	stimuli_distractor_trianglediamonds.svg	stimuli_distractor_trianglediamonds.svg	33	no	0	1	2000
6.6.1	win	2022-12-14	19:12:54	19:22:53	595548	5e455faf462e0802d9d9c3e2	219483207	1	main_z	11	advance_on_keypress_ZEE	28	stimuli_distractor_trianglediamonds.svg	stimuli_distractor_trianglediamonds.svg	33	no	57	0	446
6.6.1	win	2022-12-14	19:12:54	19:22:56	598647	5e455faf462e0802d9d9c3e2	219483207	1	main_z	11	main_z	29	stimuli_distractor_diamondtriangles.svg	stimuli_distractor_trianglediamonds.svg	38	no	0	1	2000
6.6.1	win	2022-12-14	19:12:54	19:22:56	598647	5e455faf462e0802d9d9c3e2	219483207	1	main_z	11	advance_on_keypress_ZEE	30	stimuli_distractor_diamondtriangles.svg	stimuli_distractor_trianglediamonds.svg	38	no	57	0	295
6.6.1	win	2022-12-14	19:12:54	19:22:58	600029	5e455faf462e0802d9d9c3e2	219483207	1	main_z	11	main_z	31	stimuli_target_squarediamonds.svg	stimuli_distractor_diamondtriangles.svg	8	yes	44	1	432
6.6.1	win	2022-12-14	19:12:54	19:22:58	600029	5e455faf462e0802d9d9c3e2	219483207	1	main_z	11	advance_on_keypress_ZEE	32	stimuli_target_squarediamonds.svg	stimuli_distractor_diamondtriangles.svg	8	yes	57	0	580
6.6.1	win	2022-12-14	19:12:54	19:23:00	601830	5e455faf462e0802d9d9c3e2	219483207	1	main_z	11	main_z	33	stimuli_target_trianglecircles.svg	stimuli_distractor_diamondtriangles.svg	21	yes	44	1	568
6.6.1	win	2022-12-14	19:12:54	19:23:00	601830	5e455faf462e0802d9d9c3e2	219483207	1	main_z	11	advance_on_keypress_ZEE	34	stimuli_target_trianglecircles.svg	stimuli_distractor_diamondtriangles.svg	21	yes	57	0	683
6.6.1	win	2022-12-14	19:12:54	19:23:03	605161	5e455faf462e0802d9d9c3e2	219483207	1	main_z	11	main_z	35	stimuli_distractor_trianglediamonds.svg	stimuli_distractor_diamondtriangles.svg	36	no	0	1	2000
6.6.1	win	2022-12-14	19:12:54	19:23:03	605161	5e455faf462e0802d9d9c3e2	219483207	1	main_z	11	advance_on_keypress_ZEE	36	stimuli_distractor_trianglediamonds.svg	stimuli_distractor_diamondtriangles.svg	36	no	57	0	408
6.6.1	win	2022-12-14	19:12:54	19:23:04	606735	5e455faf462e0802d9d9c3e2	219483207	1	main_z	11	main_z	37	stimuli_distractor_diamondtriangles.svg	stimuli_target_trianglecircles.svg	29	yes	44	1	524
6.6.1	win	2022-12-14	19:12:54	19:23:04	606735	5e455faf462e0802d9d9c3e2	219483207	1	main_z	11	advance_on_keypress_ZEE	38	stimuli_distractor_diamondtriangles.svg	stimuli_target_trianglecircles.svg	29	yes	57	0	1057
6.6.1	win	2022-12-14	19:12:54	19:23:07	608876	5e455faf462e0802d9d9c3e2	219483207	1	main_z	11	main_z	39	stimuli_distractor_trianglediamonds.svg	stimuli_target_trianglesquares.svg	26	yes	44	1	449
6.6.1	win	2022-12-14	19:12:54	19:23:07	608876	5e455faf462e0802d9d9c3e2	219483207	1	main_z	11	advance_on_keypress_ZEE	40	stimuli_distractor_trianglediamonds.svg	stimuli_target_trianglesquares.svg	26	yes	57	0	750
6.6.1	win	2022-12-14	19:12:54	19:23:08	610673	5e455faf462e0802d9d9c3e2	219483207	1	main_z	11	main_z	41	stimuli_target_squaretriangles.svg	stimuli_distractor_trianglediamonds.svg	3	yes	44	1	397
6.6.1	win	2022-12-14	19:12:54	19:23:08	610673	5e455faf462e0802d9d9c3e2	219483207	1	main_z	11	advance_on_keypress_ZEE	42	stimuli_target_squaretriangles.svg	stimuli_distractor_trianglediamonds.svg	3	yes	57	0	714
6.6.1	win	2022-12-14	19:12:54	19:23:10	612535	5e455faf462e0802d9d9c3e2	219483207	1	main_z	11	main_z	43	stimuli_distractor_trianglediamonds.svg	stimuli_target_trianglecircles.svg	25	yes	44	1	493
6.6.1	win	2022-12-14	19:12:54	19:23:10	612535	5e455faf462e0802d9d9c3e2	219483207	1	main_z	11	advance_on_keypress_ZEE	44	stimuli_distractor_trianglediamonds.svg	stimuli_target_trianglecircles.svg	25	yes	57	0	617
6.6.1	win	2022-12-14	19:12:54	19:23:12	614533	5e455faf462e0802d9d9c3e2	219483207	1	main_z	11	main_z	45	stimuli_distractor_trianglediamonds.svg	stimuli_target_diamondsquares.svg	28	yes	44	1	741
6.6.1	win	2022-12-14	19:12:54	19:23:12	614533	5e455faf462e0802d9d9c3e2	219483207	1	main_z	11	advance_on_keypress_ZEE	46	stimuli_distractor_trianglediamonds.svg	stimuli_target_diamondsquares.svg	28	yes	57	0	1360
6.6.1	win	2022-12-14	19:12:54	19:23:16	618540	5e455faf462e0802d9d9c3e2	219483207	1	main_z	11	main_z	47	stimuli_distractor_diamondtriangles.svg	stimuli_distractor_trianglediamonds.svg	37	no	0	1	2000
6.6.1	win	2022-12-14	19:12:54	19:23:16	618540	5e455faf462e0802d9d9c3e2	219483207	1	main_z	11	advance_on_keypress_ZEE	48	stimuli_distractor_diamondtriangles.svg	stimuli_distractor_trianglediamonds.svg	37	no	57	0	283
6.6.1	win	2022-12-14	19:12:54	19:23:18	619895	5e455faf462e0802d9d9c3e2	219483207	1	main_z	11	main_z	49	stimuli_distractor_trianglediamonds.svg	stimuli_target_squarediamonds.svg	12	yes	44	1	422
6.6.1	win	2022-12-14	19:12:54	19:23:18	619895	5e455faf462e0802d9d9c3e2	219483207	1	main_z	11	advance_on_keypress_ZEE	50	stimuli_distractor_trianglediamonds.svg	stimuli_target_squarediamonds.svg	12	yes	57	0	601
6.6.1	win	2022-12-14	19:12:54	19:23:19	621597	5e455faf462e0802d9d9c3e2	219483207	1	main_z	11	main_z	51	stimuli_distractor_diamondtriangles.svg	stimuli_target_squaretriangles.svg	15	yes	44	1	458
6.6.1	win	2022-12-14	19:12:54	19:23:19	621597	5e455faf462e0802d9d9c3e2	219483207	1	main_z	11	advance_on_keypress_ZEE	52	stimuli_distractor_diamondtriangles.svg	stimuli_target_squaretriangles.svg	15	yes	57	0	540
6.6.1	win	2022-12-14	19:12:54	19:23:21	623271	5e455faf462e0802d9d9c3e2	219483207	1	main_z	11	main_z	53	stimuli_distractor_diamondtriangles.svg	stimuli_target_circletriangles.svg	13	yes	44	1	498
6.6.1	win	2022-12-14	19:12:54	19:23:21	623271	5e455faf462e0802d9d9c3e2	219483207	1	main_z	11	advance_on_keypress_ZEE	54	stimuli_distractor_diamondtriangles.svg	stimuli_target_circletriangles.svg	13	yes	57	0	575
6.6.1	win	2022-12-14	19:12:54	19:23:23	625132	5e455faf462e0802d9d9c3e2	219483207	1	main_z	11	main_z	55	stimuli_distractor_diamondtriangles.svg	stimuli_target_trianglesquares.svg	30	yes	44	1	641
6.6.1	win	2022-12-14	19:12:54	19:23:23	625132	5e455faf462e0802d9d9c3e2	219483207	1	main_z	11	advance_on_keypress_ZEE	56	stimuli_distractor_diamondtriangles.svg	stimuli_target_trianglesquares.svg	30	yes	57	0	611
6.6.1	win	2022-12-14	19:12:54	19:23:25	627000	5e455faf462e0802d9d9c3e2	219483207	1	main_z	11	main_z	57	stimuli_target_trianglecircles.svg	stimuli_distractor_trianglediamonds.svg	17	yes	44	1	596
6.6.1	win	2022-12-14	19:12:54	19:23:25	627000	5e455faf462e0802d9d9c3e2	219483207	1	main_z	11	advance_on_keypress_ZEE	58	stimuli_target_trianglecircles.svg	stimuli_distractor_trianglediamonds.svg	17	yes	57	0	527
6.6.1	win	2022-12-14	19:12:54	19:23:28	630170	5e455faf462e0802d9d9c3e2	219483207	1	main_z	11	main_z	59	stimuli_distractor_trianglediamonds.svg	stimuli_distractor_trianglediamonds.svg	34	no	0	1	2000
6.6.1	win	2022-12-14	19:12:54	19:23:28	630170	5e455faf462e0802d9d9c3e2	219483207	1	main_z	11	advance_on_keypress_ZEE	60	stimuli_distractor_trianglediamonds.svg	stimuli_distractor_trianglediamonds.svg	34	no	57	0	284
6.6.1	win	2022-12-14	19:12:54	19:23:29	631583	5e455faf462e0802d9d9c3e2	219483207	1	main_z	11	main_z	61	stimuli_target_diamondcircles.svg	stimuli_distractor_trianglediamonds.svg	19	yes	44	1	480
6.6.1	win	2022-12-14	19:12:54	19:23:29	631583	5e455faf462e0802d9d9c3e2	219483207	1	main_z	11	advance_on_keypress_ZEE	62	stimuli_target_diamondcircles.svg	stimuli_distractor_trianglediamonds.svg	19	yes	57	0	581
6.6.1	win	2022-12-14	19:12:54	19:23:33	634819	5e455faf462e0802d9d9c3e2	219483207	1	main_z	11	main_z	63	stimuli_distractor_diamondtriangles.svg	stimuli_distractor_diamondtriangles.svg	40	no	0	1	2000
6.6.1	win	2022-12-14	19:12:54	19:23:33	634819	5e455faf462e0802d9d9c3e2	219483207	1	main_z	11	advance_on_keypress_ZEE	64	stimuli_distractor_diamondtriangles.svg	stimuli_distractor_diamondtriangles.svg	40	no	57	0	295
6.6.1	win	2022-12-14	19:12:54	19:23:34	636236	5e455faf462e0802d9d9c3e2	219483207	1	main_z	11	main_z	65	stimuli_distractor_trianglediamonds.svg	stimuli_target_circletriangles.svg	9	yes	44	1	469
6.6.1	win	2022-12-14	19:12:54	19:23:34	636236	5e455faf462e0802d9d9c3e2	219483207	1	main_z	11	advance_on_keypress_ZEE	66	stimuli_distractor_trianglediamonds.svg	stimuli_target_circletriangles.svg	9	yes	57	0	793
6.6.1	win	2022-12-14	19:12:54	19:23:37	638840	5e455faf462e0802d9d9c3e2	219483207	1	main_z	11	main_z	67	stimuli_distractor_trianglediamonds.svg	stimuli_distractor_diamondtriangles.svg	35	no	44	0	1173
6.6.1	win	2022-12-14	19:12:54	19:23:37	638840	5e455faf462e0802d9d9c3e2	219483207	1	main_z	11	advance_on_keypress_ZEE	68	stimuli_distractor_trianglediamonds.svg	stimuli_distractor_diamondtriangles.svg	35	no	57	0	603
6.6.1	win	2022-12-14	19:12:54	19:23:38	640498	5e455faf462e0802d9d9c3e2	219483207	1	main_z	11	main_z	69	stimuli_distractor_diamondtriangles.svg	stimuli_target_squarediamonds.svg	16	yes	44	1	416
6.6.1	win	2022-12-14	19:12:54	19:23:38	640498	5e455faf462e0802d9d9c3e2	219483207	1	main_z	11	advance_on_keypress_ZEE	70	stimuli_distractor_diamondtriangles.svg	stimuli_target_squarediamonds.svg	16	yes	57	0	665
6.6.1	win	2022-12-14	19:12:54	19:23:40	642430	5e455faf462e0802d9d9c3e2	219483207	1	main_z	11	main_z	71	stimuli_target_diamondcircles.svg	stimuli_distractor_diamondtriangles.svg	23	yes	44	1	614
6.6.1	win	2022-12-14	19:12:54	19:23:40	642430	5e455faf462e0802d9d9c3e2	219483207	1	main_z	11	advance_on_keypress_ZEE	72	stimuli_target_diamondcircles.svg	stimuli_distractor_diamondtriangles.svg	23	yes	57	0	559
6.6.1	win	2022-12-14	19:12:54	19:23:42	644192	5e455faf462e0802d9d9c3e2	219483207	1	main_z	11	main_z	73	stimuli_target_diamondsquares.svg	stimuli_distractor_trianglediamonds.svg	20	yes	44	1	561
6.6.1	win	2022-12-14	19:12:54	19:23:42	644192	5e455faf462e0802d9d9c3e2	219483207	1	main_z	11	advance_on_keypress_ZEE	74	stimuli_target_diamondsquares.svg	stimuli_distractor_trianglediamonds.svg	20	yes	57	0	780
6.6.1	win	2022-12-14	19:12:54	19:23:44	646024	5e455faf462e0802d9d9c3e2	219483207	1	main_z	11	main_z	75	stimuli_distractor_trianglediamonds.svg	stimuli_target_diamondcircles.svg	27	yes	44	1	394
6.6.1	win	2022-12-14	19:12:54	19:23:44	646024	5e455faf462e0802d9d9c3e2	219483207	1	main_z	11	advance_on_keypress_ZEE	76	stimuli_distractor_trianglediamonds.svg	stimuli_target_diamondcircles.svg	27	yes	57	0	719
6.6.1	win	2022-12-14	19:12:54	19:23:46	647794	5e455faf462e0802d9d9c3e2	219483207	1	main_z	11	main_z	77	stimuli_distractor_trianglediamonds.svg	stimuli_target_squaretriangles.svg	11	yes	44	1	395
6.6.1	win	2022-12-14	19:12:54	19:23:46	647794	5e455faf462e0802d9d9c3e2	219483207	1	main_z	11	advance_on_keypress_ZEE	78	stimuli_distractor_trianglediamonds.svg	stimuli_target_squaretriangles.svg	11	yes	57	0	596
6.6.1	win	2022-12-14	19:12:54	19:23:47	649470	5e455faf462e0802d9d9c3e2	219483207	1	main_z	11	main_z	79	stimuli_target_circletriangles.svg	stimuli_distractor_trianglediamonds.svg	1	yes	44	1	424
6.6.1	win	2022-12-14	19:12:54	19:23:47	649470	5e455faf462e0802d9d9c3e2	219483207	1	main_z	11	advance_on_keypress_ZEE	80	stimuli_target_circletriangles.svg	stimuli_distractor_trianglediamonds.svg	1	yes	57	0	888
6.6.1	win	2022-12-14	19:12:54	19:23:49	651421	5e455faf462e0802d9d9c3e2	219483207	1	main_z	11	main_z	81	stimuli_distractor_trianglediamonds.svg	stimuli_target_circletriangles.svg	9	yes	44	1	427
6.6.1	win	2022-12-14	19:12:54	19:23:49	651421	5e455faf462e0802d9d9c3e2	219483207	1	main_z	11	advance_on_keypress_ZEE	82	stimuli_distractor_trianglediamonds.svg	stimuli_target_circletriangles.svg	9	yes	57	0	642
6.6.1	win	2022-12-14	19:12:54	19:23:52	654695	5e455faf462e0802d9d9c3e2	219483207	1	main_z	11	main_z	83	stimuli_distractor_diamondtriangles.svg	stimuli_distractor_trianglediamonds.svg	37	no	0	1	2000
6.6.1	win	2022-12-14	19:12:54	19:23:52	654695	5e455faf462e0802d9d9c3e2	219483207	1	main_z	11	advance_on_keypress_ZEE	84	stimuli_distractor_diamondtriangles.svg	stimuli_distractor_trianglediamonds.svg	37	no	57	0	271
6.6.1	win	2022-12-14	19:12:54	19:23:54	656072	5e455faf462e0802d9d9c3e2	219483207	1	main_z	11	main_z	85	stimuli_distractor_trianglediamonds.svg	stimuli_target_diamondsquares.svg	28	yes	44	1	462
6.6.1	win	2022-12-14	19:12:54	19:23:54	656072	5e455faf462e0802d9d9c3e2	219483207	1	main_z	11	advance_on_keypress_ZEE	86	stimuli_distractor_trianglediamonds.svg	stimuli_target_diamondsquares.svg	28	yes	57	0	557
6.6.1	win	2022-12-14	19:12:54	19:23:56	657849	5e455faf462e0802d9d9c3e2	219483207	1	main_z	11	main_z	87	stimuli_target_circletriangles.svg	stimuli_distractor_diamondtriangles.svg	5	yes	44	1	572
6.6.1	win	2022-12-14	19:12:54	19:23:56	657849	5e455faf462e0802d9d9c3e2	219483207	1	main_z	11	advance_on_keypress_ZEE	88	stimuli_target_circletriangles.svg	stimuli_distractor_diamondtriangles.svg	5	yes	57	0	688
6.6.1	win	2022-12-14	19:12:54	19:23:57	659642	5e455faf462e0802d9d9c3e2	219483207	1	main_z	11	main_z	89	stimuli_distractor_trianglediamonds.svg	stimuli_target_circlediamonds.svg	10	yes	44	1	466
6.6.1	win	2022-12-14	19:12:54	19:23:57	659642	5e455faf462e0802d9d9c3e2	219483207	1	main_z	11	advance_on_keypress_ZEE	90	stimuli_distractor_trianglediamonds.svg	stimuli_target_circlediamonds.svg	10	yes	57	0	626
6.6.1	win	2022-12-14	19:12:54	19:23:59	661429	5e455faf462e0802d9d9c3e2	219483207	1	main_z	11	main_z	91	stimuli_target_circlediamonds.svg	stimuli_distractor_diamondtriangles.svg	6	yes	44	1	520
6.6.1	win	2022-12-14	19:12:54	19:23:59	661429	5e455faf462e0802d9d9c3e2	219483207	1	main_z	11	advance_on_keypress_ZEE	92	stimuli_target_circlediamonds.svg	stimuli_distractor_diamondtriangles.svg	6	yes	57	0	602
6.6.1	win	2022-12-14	19:12:54	19:24:02	664675	5e455faf462e0802d9d9c3e2	219483207	1	main_z	11	main_z	93	stimuli_distractor_trianglediamonds.svg	stimuli_distractor_trianglediamonds.svg	34	no	0	1	2000
6.6.1	win	2022-12-14	19:12:54	19:24:02	664675	5e455faf462e0802d9d9c3e2	219483207	1	main_z	11	advance_on_keypress_ZEE	94	stimuli_distractor_trianglediamonds.svg	stimuli_distractor_trianglediamonds.svg	34	no	57	0	349
6.6.1	win	2022-12-14	19:12:54	19:24:04	666144	5e455faf462e0802d9d9c3e2	219483207	1	main_z	11	main_z	95	stimuli_target_squarediamonds.svg	stimuli_distractor_trianglediamonds.svg	4	yes	44	1	470
6.6.1	win	2022-12-14	19:12:54	19:24:04	666144	5e455faf462e0802d9d9c3e2	219483207	1	main_z	11	advance_on_keypress_ZEE	96	stimuli_target_squarediamonds.svg	stimuli_distractor_trianglediamonds.svg	4	yes	57	0	645
6.6.1	win	2022-12-14	19:12:54	19:24:06	667847	5e455faf462e0802d9d9c3e2	219483207	1	main_z	11	main_z	97	stimuli_target_squaretriangles.svg	stimuli_distractor_diamondtriangles.svg	7	yes	44	1	407
6.6.1	win	2022-12-14	19:12:54	19:24:06	667847	5e455faf462e0802d9d9c3e2	219483207	1	main_z	11	advance_on_keypress_ZEE	98	stimuli_target_squaretriangles.svg	stimuli_distractor_diamondtriangles.svg	7	yes	57	0	539
6.6.1	win	2022-12-14	19:12:54	19:24:07	669560	5e455faf462e0802d9d9c3e2	219483207	1	main_z	11	main_z	99	stimuli_target_diamondcircles.svg	stimuli_distractor_diamondtriangles.svg	23	yes	44	1	537
6.6.1	win	2022-12-14	19:12:54	19:24:07	669560	5e455faf462e0802d9d9c3e2	219483207	1	main_z	11	advance_on_keypress_ZEE	100	stimuli_target_diamondcircles.svg	stimuli_distractor_diamondtriangles.svg	23	yes	57	0	650
6.6.1	win	2022-12-14	19:12:54	19:24:09	671462	5e455faf462e0802d9d9c3e2	219483207	1	main_z	11	main_z	101	stimuli_distractor_trianglediamonds.svg	stimuli_target_trianglesquares.svg	26	yes	44	1	607
6.6.1	win	2022-12-14	19:12:54	19:24:09	671462	5e455faf462e0802d9d9c3e2	219483207	1	main_z	11	advance_on_keypress_ZEE	102	stimuli_distractor_trianglediamonds.svg	stimuli_target_trianglesquares.svg	26	yes	57	0	573
6.6.1	win	2022-12-14	19:12:54	19:24:11	673305	5e455faf462e0802d9d9c3e2	219483207	1	main_z	11	main_z	103	stimuli_target_diamondsquares.svg	stimuli_distractor_diamondtriangles.svg	24	yes	44	1	634
6.6.1	win	2022-12-14	19:12:54	19:24:11	673305	5e455faf462e0802d9d9c3e2	219483207	1	main_z	11	advance_on_keypress_ZEE	104	stimuli_target_diamondsquares.svg	stimuli_distractor_diamondtriangles.svg	24	yes	57	0	626
6.6.1	win	2022-12-14	19:12:54	19:24:13	674997	5e455faf462e0802d9d9c3e2	219483207	1	main_z	11	main_z	105	stimuli_distractor_trianglediamonds.svg	stimuli_target_squarediamonds.svg	12	yes	44	1	426
6.6.1	win	2022-12-14	19:12:54	19:24:13	674997	5e455faf462e0802d9d9c3e2	219483207	1	main_z	11	advance_on_keypress_ZEE	106	stimuli_distractor_trianglediamonds.svg	stimuli_target_squarediamonds.svg	12	yes	57	0	746
6.6.1	win	2022-12-14	19:12:54	19:24:15	676880	5e455faf462e0802d9d9c3e2	219483207	1	main_z	11	main_z	107	stimuli_target_trianglesquares.svg	stimuli_distractor_diamondtriangles.svg	22	yes	44	1	493
6.6.1	win	2022-12-14	19:12:54	19:24:15	676880	5e455faf462e0802d9d9c3e2	219483207	1	main_z	11	advance_on_keypress_ZEE	108	stimuli_target_trianglesquares.svg	stimuli_distractor_diamondtriangles.svg	22	yes	57	0	641
6.6.1	win	2022-12-14	19:12:54	19:24:17	678806	5e455faf462e0802d9d9c3e2	219483207	1	main_z	11	main_z	109	stimuli_distractor_diamondtriangles.svg	stimuli_target_trianglesquares.svg	30	yes	44	1	653
6.6.1	win	2022-12-14	19:12:54	19:24:17	678806	5e455faf462e0802d9d9c3e2	219483207	1	main_z	11	advance_on_keypress_ZEE	110	stimuli_distractor_diamondtriangles.svg	stimuli_target_trianglesquares.svg	30	yes	57	0	744
6.6.1	win	2022-12-14	19:12:54	19:24:18	680599	5e455faf462e0802d9d9c3e2	219483207	1	main_z	11	main_z	111	stimuli_target_circlediamonds.svg	stimuli_distractor_trianglediamonds.svg	2	yes	44	1	397
6.6.1	win	2022-12-14	19:12:54	19:24:18	680599	5e455faf462e0802d9d9c3e2	219483207	1	main_z	11	advance_on_keypress_ZEE	112	stimuli_target_circlediamonds.svg	stimuli_distractor_trianglediamonds.svg	2	yes	57	0	558
6.6.1	win	2022-12-14	19:12:54	19:24:20	682262	5e455faf462e0802d9d9c3e2	219483207	1	main_z	11	main_z	113	stimuli_distractor_diamondtriangles.svg	stimuli_target_trianglecircles.svg	29	yes	44	1	461
6.6.1	win	2022-12-14	19:12:54	19:24:20	682262	5e455faf462e0802d9d9c3e2	219483207	1	main_z	11	advance_on_keypress_ZEE	114	stimuli_distractor_diamondtriangles.svg	stimuli_target_trianglecircles.svg	29	yes	57	0	571
6.6.1	win	2022-12-14	19:12:54	19:24:22	684353	5e455faf462e0802d9d9c3e2	219483207	1	main_z	11	main_z	115	stimuli_distractor_diamondtriangles.svg	stimuli_target_diamondsquares.svg	32	yes	44	1	885
6.6.1	win	2022-12-14	19:12:54	19:24:22	684353	5e455faf462e0802d9d9c3e2	219483207	1	main_z	11	advance_on_keypress_ZEE	116	stimuli_distractor_diamondtriangles.svg	stimuli_target_diamondsquares.svg	32	yes	57	0	509
6.6.1	win	2022-12-14	19:12:54	19:24:24	685947	5e455faf462e0802d9d9c3e2	219483207	1	main_z	11	main_z	117	stimuli_target_circletriangles.svg	stimuli_distractor_trianglediamonds.svg	1	yes	44	1	447
6.6.1	win	2022-12-14	19:12:54	19:24:24	685947	5e455faf462e0802d9d9c3e2	219483207	1	main_z	11	advance_on_keypress_ZEE	118	stimuli_target_circletriangles.svg	stimuli_distractor_trianglediamonds.svg	1	yes	57	0	527
6.6.1	win	2022-12-14	19:12:54	19:24:25	687650	5e455faf462e0802d9d9c3e2	219483207	1	main_z	11	main_z	119	stimuli_distractor_trianglediamonds.svg	stimuli_target_squaretriangles.svg	11	yes	44	1	516
6.6.1	win	2022-12-14	19:12:54	19:24:25	687650	5e455faf462e0802d9d9c3e2	219483207	1	main_z	11	advance_on_keypress_ZEE	120	stimuli_distractor_trianglediamonds.svg	stimuli_target_squaretriangles.svg	11	yes	57	0	521
6.6.1	win	2022-12-14	19:12:54	19:24:27	689307	5e455faf462e0802d9d9c3e2	219483207	1	main_z	11	main_z	121	stimuli_distractor_diamondtriangles.svg	stimuli_target_squarediamonds.svg	16	yes	44	1	491
6.6.1	win	2022-12-14	19:12:54	19:24:27	689307	5e455faf462e0802d9d9c3e2	219483207	1	main_z	11	advance_on_keypress_ZEE	122	stimuli_distractor_diamondtriangles.svg	stimuli_target_squarediamonds.svg	16	yes	57	0	525
6.6.1	win	2022-12-14	19:12:54	19:24:29	691015	5e455faf462e0802d9d9c3e2	219483207	1	main_z	11	main_z	123	stimuli_target_squaretriangles.svg	stimuli_distractor_trianglediamonds.svg	3	yes	44	1	550
6.6.1	win	2022-12-14	19:12:54	19:24:29	691015	5e455faf462e0802d9d9c3e2	219483207	1	main_z	11	advance_on_keypress_ZEE	124	stimuli_target_squaretriangles.svg	stimuli_distractor_trianglediamonds.svg	3	yes	57	0	537
6.6.1	win	2022-12-14	19:12:54	19:24:30	692553	5e455faf462e0802d9d9c3e2	219483207	1	main_z	11	main_z	125	stimuli_distractor_trianglediamonds.svg	stimuli_target_diamondcircles.svg	27	yes	44	1	355
6.6.1	win	2022-12-14	19:12:54	19:24:30	692553	5e455faf462e0802d9d9c3e2	219483207	1	main_z	11	advance_on_keypress_ZEE	126	stimuli_distractor_trianglediamonds.svg	stimuli_target_diamondcircles.svg	27	yes	57	0	587
6.6.1	win	2022-12-14	19:12:54	19:24:32	694296	5e455faf462e0802d9d9c3e2	219483207	1	main_z	11	main_z	127	stimuli_distractor_trianglediamonds.svg	stimuli_distractor_diamondtriangles.svg	36	no	44	0	510
6.6.1	win	2022-12-14	19:12:54	19:24:32	694296	5e455faf462e0802d9d9c3e2	219483207	1	main_z	11	advance_on_keypress_ZEE	128	stimuli_distractor_trianglediamonds.svg	stimuli_distractor_diamondtriangles.svg	36	no	57	0	1451
6.6.1	win	2022-12-14	19:12:54	19:24:36	698397	5e455faf462e0802d9d9c3e2	219483207	1	main_z	11	main_z	129	stimuli_distractor_trianglediamonds.svg	stimuli_distractor_diamondtriangles.svg	35	no	0	1	2000
6.6.1	win	2022-12-14	19:12:54	19:24:36	698397	5e455faf462e0802d9d9c3e2	219483207	1	main_z	11	advance_on_keypress_ZEE	130	stimuli_distractor_trianglediamonds.svg	stimuli_distractor_diamondtriangles.svg	35	no	57	0	310
6.6.1	win	2022-12-14	19:12:54	19:24:38	699763	5e455faf462e0802d9d9c3e2	219483207	1	main_z	11	main_z	131	stimuli_distractor_trianglediamonds.svg	stimuli_target_trianglecircles.svg	25	yes	44	1	417
6.6.1	win	2022-12-14	19:12:54	19:24:38	699763	5e455faf462e0802d9d9c3e2	219483207	1	main_z	11	advance_on_keypress_ZEE	132	stimuli_distractor_trianglediamonds.svg	stimuli_target_trianglecircles.svg	25	yes	57	0	467
6.6.1	win	2022-12-14	19:12:54	19:24:39	701557	5e455faf462e0802d9d9c3e2	219483207	1	main_z	11	main_z	133	stimuli_target_squarediamonds.svg	stimuli_distractor_diamondtriangles.svg	8	yes	44	1	678
6.6.1	win	2022-12-14	19:12:54	19:24:39	701557	5e455faf462e0802d9d9c3e2	219483207	1	main_z	11	advance_on_keypress_ZEE	134	stimuli_target_squarediamonds.svg	stimuli_distractor_diamondtriangles.svg	8	yes	57	0	506
6.6.1	win	2022-12-14	19:12:54	19:24:41	703308	5e455faf462e0802d9d9c3e2	219483207	1	main_z	11	main_z	135	stimuli_target_trianglesquares.svg	stimuli_distractor_trianglediamonds.svg	18	yes	44	1	597
6.6.1	win	2022-12-14	19:12:54	19:24:41	703308	5e455faf462e0802d9d9c3e2	219483207	1	main_z	11	advance_on_keypress_ZEE	136	stimuli_target_trianglesquares.svg	stimuli_distractor_trianglediamonds.svg	18	yes	57	0	514
6.6.1	win	2022-12-14	19:12:54	19:24:43	705186	5e455faf462e0802d9d9c3e2	219483207	1	main_z	11	main_z	137	stimuli_distractor_diamondtriangles.svg	stimuli_target_squaretriangles.svg	15	yes	44	1	708
6.6.1	win	2022-12-14	19:12:54	19:24:43	705186	5e455faf462e0802d9d9c3e2	219483207	1	main_z	11	advance_on_keypress_ZEE	138	stimuli_distractor_diamondtriangles.svg	stimuli_target_squaretriangles.svg	15	yes	57	0	470
6.6.1	win	2022-12-14	19:12:54	19:24:44	706744	5e455faf462e0802d9d9c3e2	219483207	1	main_z	11	main_z	139	stimuli_distractor_diamondtriangles.svg	stimuli_target_circlediamonds.svg	14	yes	44	1	451
6.6.1	win	2022-12-14	19:12:54	19:24:44	706744	5e455faf462e0802d9d9c3e2	219483207	1	main_z	11	advance_on_keypress_ZEE	140	stimuli_distractor_diamondtriangles.svg	stimuli_target_circlediamonds.svg	14	yes	57	0	538
6.6.1	win	2022-12-14	19:12:54	19:24:46	708517	5e455faf462e0802d9d9c3e2	219483207	1	main_z	11	main_z	141	stimuli_target_trianglecircles.svg	stimuli_distractor_trianglediamonds.svg	17	yes	44	1	590
6.6.1	win	2022-12-14	19:12:54	19:24:46	708517	5e455faf462e0802d9d9c3e2	219483207	1	main_z	11	advance_on_keypress_ZEE	142	stimuli_target_trianglecircles.svg	stimuli_distractor_trianglediamonds.svg	17	yes	57	0	517
6.6.1	win	2022-12-14	19:12:54	19:24:49	711676	5e455faf462e0802d9d9c3e2	219483207	1	main_z	11	main_z	143	stimuli_distractor_diamondtriangles.svg	stimuli_distractor_diamondtriangles.svg	39	no	0	1	2000
6.6.1	win	2022-12-14	19:12:54	19:24:49	711676	5e455faf462e0802d9d9c3e2	219483207	1	main_z	11	advance_on_keypress_ZEE	144	stimuli_distractor_diamondtriangles.svg	stimuli_distractor_diamondtriangles.svg	39	no	57	0	271
6.6.1	win	2022-12-14	19:12:54	19:24:52	714590	5e455faf462e0802d9d9c3e2	219483207	1	main_z	11	main_z	145	stimuli_distractor_trianglediamonds.svg	stimuli_distractor_trianglediamonds.svg	33	no	0	1	2000
6.6.1	win	2022-12-14	19:12:54	19:24:52	714590	5e455faf462e0802d9d9c3e2	219483207	1	main_z	11	advance_on_keypress_ZEE	146	stimuli_distractor_trianglediamonds.svg	stimuli_distractor_trianglediamonds.svg	33	no	57	0	288
6.6.1	win	2022-12-14	19:12:54	19:24:54	716150	5e455faf462e0802d9d9c3e2	219483207	1	main_z	11	main_z	147	stimuli_distractor_diamondtriangles.svg	stimuli_target_circletriangles.svg	13	yes	44	1	627
6.6.1	win	2022-12-14	19:12:54	19:24:54	716150	5e455faf462e0802d9d9c3e2	219483207	1	main_z	11	advance_on_keypress_ZEE	148	stimuli_distractor_diamondtriangles.svg	stimuli_target_circletriangles.svg	13	yes	57	0	491
6.6.1	win	2022-12-14	19:12:54	19:24:56	717797	5e455faf462e0802d9d9c3e2	219483207	1	main_z	11	main_z	149	stimuli_target_trianglecircles.svg	stimuli_distractor_diamondtriangles.svg	21	yes	44	1	524
6.6.1	win	2022-12-14	19:12:54	19:24:56	717797	5e455faf462e0802d9d9c3e2	219483207	1	main_z	11	advance_on_keypress_ZEE	150	stimuli_target_trianglecircles.svg	stimuli_distractor_diamondtriangles.svg	21	yes	57	0	519
6.6.1	win	2022-12-14	19:12:54	19:24:57	719545	5e455faf462e0802d9d9c3e2	219483207	1	main_z	11	main_z	151	stimuli_target_diamondcircles.svg	stimuli_distractor_trianglediamonds.svg	19	yes	44	1	589
6.6.1	win	2022-12-14	19:12:54	19:24:57	719545	5e455faf462e0802d9d9c3e2	219483207	1	main_z	11	advance_on_keypress_ZEE	152	stimuli_target_diamondcircles.svg	stimuli_distractor_trianglediamonds.svg	19	yes	57	0	931
6.6.1	win	2022-12-14	19:12:54	19:25:01	723121	5e455faf462e0802d9d9c3e2	219483207	1	main_z	11	main_z	153	stimuli_distractor_diamondtriangles.svg	stimuli_distractor_trianglediamonds.svg	38	no	0	1	2000
6.6.1	win	2022-12-14	19:12:54	19:25:01	723121	5e455faf462e0802d9d9c3e2	219483207	1	main_z	11	advance_on_keypress_ZEE	154	stimuli_distractor_diamondtriangles.svg	stimuli_distractor_trianglediamonds.svg	38	no	57	0	261
6.6.1	win	2022-12-14	19:12:54	19:25:02	724560	5e455faf462e0802d9d9c3e2	219483207	1	main_z	11	main_z	155	stimuli_distractor_diamondtriangles.svg	stimuli_target_diamondcircles.svg	31	yes	44	1	521
6.6.1	win	2022-12-14	19:12:54	19:25:02	724560	5e455faf462e0802d9d9c3e2	219483207	1	main_z	11	advance_on_keypress_ZEE	156	stimuli_distractor_diamondtriangles.svg	stimuli_target_diamondcircles.svg	31	yes	57	0	472
6.6.1	win	2022-12-14	19:12:54	19:25:05	727670	5e455faf462e0802d9d9c3e2	219483207	1	main_z	11	main_z	157	stimuli_distractor_diamondtriangles.svg	stimuli_distractor_diamondtriangles.svg	40	no	0	1	2000
6.6.1	win	2022-12-14	19:12:54	19:25:05	727670	5e455faf462e0802d9d9c3e2	219483207	1	main_z	11	advance_on_keypress_ZEE	158	stimuli_distractor_diamondtriangles.svg	stimuli_distractor_diamondtriangles.svg	40	no	57	0	283
6.6.1	win	2022-12-14	19:12:54	19:25:07	729075	5e455faf462e0802d9d9c3e2	219483207	1	main_z	11	main_z	159	stimuli_target_diamondsquares.svg	stimuli_distractor_trianglediamonds.svg	20	yes	44	1	473
6.6.1	win	2022-12-14	19:12:54	19:25:07	729075	5e455faf462e0802d9d9c3e2	219483207	1	main_z	11	advance_on_keypress_ZEE	160	stimuli_target_diamondsquares.svg	stimuli_distractor_trianglediamonds.svg	20	yes	57	0	558