build	computer.platform	date	time	timestamp	time_elapsed_ms	subject	group	session	blockcode	blocknum	trialcode	trialnum	stimulus_left	stimulus_right	stim_index	target_present	response	correct	latency
6.6.1	win	2022-12-14	14:44:32	14:47:00	143379	63235c5bf70d8e4f79b205cd	885992765	1	practice_slash	5	practice_slash	1	stimuli_target_circlediamonds.svg	stimuli_distractor_diamondtriangles.svg	1	yes	0	0	2000
6.6.1	win	2022-12-14	14:44:32	14:47:00	143379	63235c5bf70d8e4f79b205cd	885992765	1	practice_slash	5	advance_on_keypress_SLASH	2	stimuli_target_circlediamonds.svg	stimuli_distractor_diamondtriangles.svg	1	yes	57	0	892
6.6.1	win	2022-12-14	14:44:32	14:47:03	147071	63235c5bf70d8e4f79b205cd	885992765	1	practice_slash	5	practice_slash	3	stimuli_distractor_diamondtriangles.svg	stimuli_distractor_diamondtriangles.svg	13	no	53	0	962
6.6.1	win	2022-12-14	14:44:32	14:47:03	147071	63235c5bf70d8e4f79b205cd	885992765	1	practice_slash	5	advance_on_keypress_SLASH	4	stimuli_distractor_diamondtriangles.svg	stimuli_distractor_diamondtriangles.svg	13	no	57	0	698
6.6.1	win	2022-12-14	14:44:32	14:47:07	150794	63235c5bf70d8e4f79b205cd	885992765	1	practice_slash	5	practice_slash	5	stimuli_distractor_diamondtriangles.svg	stimuli_target_trianglecircles.svg	9	yes	53	1	1335
6.6.1	win	2022-12-14	14:44:32	14:47:07	150794	63235c5bf70d8e4f79b205cd	885992765	1	practice_slash	5	advance_on_keypress_SLASH	6	stimuli_distractor_diamondtriangles.svg	stimuli_target_trianglecircles.svg	9	yes	57	0	606
6.6.1	win	2022-12-14	14:44:32	14:47:10	154198	63235c5bf70d8e4f79b205cd	885992765	1	practice_slash	5	practice_slash	7	stimuli_target_diamondsquares.svg	stimuli_distractor_trianglediamonds.svg	6	yes	53	1	1088
6.6.1	win	2022-12-14	14:44:32	14:47:10	154198	63235c5bf70d8e4f79b205cd	885992765	1	practice_slash	5	advance_on_keypress_SLASH	8	stimuli_target_diamondsquares.svg	stimuli_distractor_trianglediamonds.svg	6	yes	57	0	466
6.6.1	win	2022-12-14	14:44:32	14:47:13	157122	63235c5bf70d8e4f79b205cd	885992765	1	practice_slash	5	practice_slash	9	stimuli_distractor_diamondtriangles.svg	stimuli_target_circletriangles.svg	7	yes	53	1	763
6.6.1	win	2022-12-14	14:44:32	14:47:13	157122	63235c5bf70d8e4f79b205cd	885992765	1	practice_slash	5	advance_on_keypress_SLASH	10	stimuli_distractor_diamondtriangles.svg	stimuli_target_circletriangles.svg	7	yes	57	0	987
6.6.1	win	2022-12-14	14:44:32	14:47:17	160552	63235c5bf70d8e4f79b205cd	885992765	1	practice_slash	5	practice_slash	11	stimuli_target_squarediamonds.svg	stimuli_distractor_trianglediamonds.svg	5	yes	53	1	759
6.6.1	win	2022-12-14	14:44:32	14:47:17	160552	63235c5bf70d8e4f79b205cd	885992765	1	practice_slash	5	advance_on_keypress_SLASH	12	stimuli_target_squarediamonds.svg	stimuli_distractor_trianglediamonds.svg	5	yes	57	0	652
6.6.1	win	2022-12-14	14:44:32	14:47:20	163710	63235c5bf70d8e4f79b205cd	885992765	1	practice_slash	5	practice_slash	13	stimuli_distractor_diamondtriangles.svg	stimuli_target_diamondcircles.svg	8	yes	53	1	803
6.6.1	win	2022-12-14	14:44:32	14:47:20	163710	63235c5bf70d8e4f79b205cd	885992765	1	practice_slash	5	advance_on_keypress_SLASH	14	stimuli_distractor_diamondtriangles.svg	stimuli_target_diamondcircles.svg	8	yes	57	0	341
6.6.1	win	2022-12-14	14:44:32	14:47:24	167740	63235c5bf70d8e4f79b205cd	885992765	1	practice_slash	5	practice_slash	15	stimuli_target_diamondsquares.svg	stimuli_distractor_diamondtriangles.svg	3	yes	0	0	2000
6.6.1	win	2022-12-14	14:44:32	14:47:24	167740	63235c5bf70d8e4f79b205cd	885992765	1	practice_slash	5	advance_on_keypress_SLASH	16	stimuli_target_diamondsquares.svg	stimuli_distractor_diamondtriangles.svg	3	yes	57	0	1596
6.6.1	win	2022-12-14	14:44:32	14:47:28	171901	63235c5bf70d8e4f79b205cd	885992765	1	practice_slash	5	practice_slash	17	stimuli_target_circlediamonds.svg	stimuli_distractor_trianglediamonds.svg	4	yes	53	1	861
6.6.1	win	2022-12-14	14:44:32	14:47:28	171901	63235c5bf70d8e4f79b205cd	885992765	1	practice_slash	5	advance_on_keypress_SLASH	18	stimuli_target_circlediamonds.svg	stimuli_distractor_trianglediamonds.svg	4	yes	57	0	555
6.6.1	win	2022-12-14	14:44:32	14:47:31	174812	63235c5bf70d8e4f79b205cd	885992765	1	practice_slash	5	practice_slash	19	stimuli_distractor_trianglediamonds.svg	stimuli_target_squarediamonds.svg	11	yes	53	1	656
6.6.1	win	2022-12-14	14:44:32	14:47:31	174812	63235c5bf70d8e4f79b205cd	885992765	1	practice_slash	5	advance_on_keypress_SLASH	20	stimuli_distractor_trianglediamonds.svg	stimuli_target_squarediamonds.svg	11	yes	57	0	404
6.6.1	win	2022-12-14	14:44:32	14:47:34	177800	63235c5bf70d8e4f79b205cd	885992765	1	practice_slash	5	practice_slash	21	stimuli_target_squarediamonds.svg	stimuli_distractor_diamondtriangles.svg	2	yes	53	1	912
6.6.1	win	2022-12-14	14:44:32	14:47:34	177800	63235c5bf70d8e4f79b205cd	885992765	1	practice_slash	5	advance_on_keypress_SLASH	22	stimuli_target_squarediamonds.svg	stimuli_distractor_diamondtriangles.svg	2	yes	57	0	390
6.6.1	win	2022-12-14	14:44:32	14:47:38	181887	63235c5bf70d8e4f79b205cd	885992765	1	practice_slash	5	practice_slash	23	stimuli_distractor_trianglediamonds.svg	stimuli_distractor_trianglediamonds.svg	15	no	0	1	2000
6.6.1	win	2022-12-14	14:44:32	14:47:38	181887	63235c5bf70d8e4f79b205cd	885992765	1	practice_slash	5	advance_on_keypress_SLASH	24	stimuli_distractor_trianglediamonds.svg	stimuli_distractor_trianglediamonds.svg	15	no	57	0	486
6.6.1	win	2022-12-14	14:44:32	14:47:42	186038	63235c5bf70d8e4f79b205cd	885992765	1	practice_slash	5	practice_slash	25	stimuli_distractor_trianglediamonds.svg	stimuli_distractor_diamondtriangles.svg	16	no	0	1	2000
6.6.1	win	2022-12-14	14:44:32	14:47:42	186038	63235c5bf70d8e4f79b205cd	885992765	1	practice_slash	5	advance_on_keypress_SLASH	26	stimuli_distractor_trianglediamonds.svg	stimuli_distractor_diamondtriangles.svg	16	no	57	0	689
6.6.1	win	2022-12-14	14:44:32	14:47:47	190404	63235c5bf70d8e4f79b205cd	885992765	1	practice_slash	5	practice_slash	27	stimuli_distractor_diamondtriangles.svg	stimuli_distractor_trianglediamonds.svg	14	no	0	1	2000
6.6.1	win	2022-12-14	14:44:32	14:47:47	190404	63235c5bf70d8e4f79b205cd	885992765	1	practice_slash	5	advance_on_keypress_SLASH	28	stimuli_distractor_diamondtriangles.svg	stimuli_distractor_trianglediamonds.svg	14	no	57	0	466
6.6.1	win	2022-12-14	14:44:32	14:47:50	193682	63235c5bf70d8e4f79b205cd	885992765	1	practice_slash	5	practice_slash	29	stimuli_distractor_trianglediamonds.svg	stimuli_target_diamondcircles.svg	12	yes	53	1	1145
6.6.1	win	2022-12-14	14:44:32	14:47:50	193682	63235c5bf70d8e4f79b205cd	885992765	1	practice_slash	5	advance_on_keypress_SLASH	30	stimuli_distractor_trianglediamonds.svg	stimuli_target_diamondcircles.svg	12	yes	57	0	359
6.6.1	win	2022-12-14	14:44:32	14:47:53	196430	63235c5bf70d8e4f79b205cd	885992765	1	practice_slash	5	practice_slash	31	stimuli_distractor_trianglediamonds.svg	stimuli_target_circlediamonds.svg	10	yes	53	1	711
6.6.1	win	2022-12-14	14:44:32	14:47:53	196430	63235c5bf70d8e4f79b205cd	885992765	1	practice_slash	5	advance_on_keypress_SLASH	32	stimuli_distractor_trianglediamonds.svg	stimuli_target_circlediamonds.svg	10	yes	57	0	468
6.6.1	win	2022-12-14	14:44:32	14:48:00	204016	63235c5bf70d8e4f79b205cd	885992765	1	main_slash	7	main_slash	1	stimuli_distractor_diamondtriangles.svg	stimuli_target_trianglesquares.svg	30	yes	53	1	1402
6.6.1	win	2022-12-14	14:44:32	14:48:00	204016	63235c5bf70d8e4f79b205cd	885992765	1	main_slash	7	advance_on_keypress_SLASH	2	stimuli_distractor_diamondtriangles.svg	stimuli_target_trianglesquares.svg	30	yes	57	0	598
6.6.1	win	2022-12-14	14:44:32	14:48:02	206029	63235c5bf70d8e4f79b205cd	885992765	1	main_slash	7	main_slash	3	stimuli_distractor_trianglediamonds.svg	stimuli_target_squaretriangles.svg	11	yes	53	1	732
6.6.1	win	2022-12-14	14:44:32	14:48:02	206029	63235c5bf70d8e4f79b205cd	885992765	1	main_slash	7	advance_on_keypress_SLASH	4	stimuli_distractor_trianglediamonds.svg	stimuli_target_squaretriangles.svg	11	yes	57	0	572
6.6.1	win	2022-12-14	14:44:32	14:48:05	209262	63235c5bf70d8e4f79b205cd	885992765	1	main_slash	7	main_slash	5	stimuli_distractor_diamondtriangles.svg	stimuli_distractor_diamondtriangles.svg	39	no	0	1	2000
6.6.1	win	2022-12-14	14:44:32	14:48:05	209262	63235c5bf70d8e4f79b205cd	885992765	1	main_slash	7	advance_on_keypress_SLASH	6	stimuli_distractor_diamondtriangles.svg	stimuli_distractor_diamondtriangles.svg	39	no	57	0	457
6.6.1	win	2022-12-14	14:44:32	14:48:09	212362	63235c5bf70d8e4f79b205cd	885992765	1	main_slash	7	main_slash	7	stimuli_distractor_diamondtriangles.svg	stimuli_target_diamondsquares.svg	32	yes	0	0	2000
6.6.1	win	2022-12-14	14:44:32	14:48:09	212362	63235c5bf70d8e4f79b205cd	885992765	1	main_slash	7	advance_on_keypress_SLASH	8	stimuli_distractor_diamondtriangles.svg	stimuli_target_diamondsquares.svg	32	yes	57	0	586
6.6.1	win	2022-12-14	14:44:32	14:48:11	214435	63235c5bf70d8e4f79b205cd	885992765	1	main_slash	7	main_slash	9	stimuli_distractor_trianglediamonds.svg	stimuli_target_circletriangles.svg	9	yes	53	1	840
6.6.1	win	2022-12-14	14:44:32	14:48:11	214435	63235c5bf70d8e4f79b205cd	885992765	1	main_slash	7	advance_on_keypress_SLASH	10	stimuli_distractor_trianglediamonds.svg	stimuli_target_circletriangles.svg	9	yes	57	0	630
6.6.1	win	2022-12-14	14:44:32	14:48:13	216925	63235c5bf70d8e4f79b205cd	885992765	1	main_slash	7	main_slash	11	stimuli_target_squarediamonds.svg	stimuli_distractor_diamondtriangles.svg	8	yes	53	1	1213
6.6.1	win	2022-12-14	14:44:32	14:48:13	216925	63235c5bf70d8e4f79b205cd	885992765	1	main_slash	7	advance_on_keypress_SLASH	12	stimuli_target_squarediamonds.svg	stimuli_distractor_diamondtriangles.svg	8	yes	57	0	521
6.6.1	win	2022-12-14	14:44:32	14:48:15	218835	63235c5bf70d8e4f79b205cd	885992765	1	main_slash	7	main_slash	13	stimuli_distractor_trianglediamonds.svg	stimuli_target_squarediamonds.svg	12	yes	53	1	740
6.6.1	win	2022-12-14	14:44:32	14:48:15	218835	63235c5bf70d8e4f79b205cd	885992765	1	main_slash	7	advance_on_keypress_SLASH	14	stimuli_distractor_trianglediamonds.svg	stimuli_target_squarediamonds.svg	12	yes	57	0	712
6.6.1	win	2022-12-14	14:44:32	14:48:17	220836	63235c5bf70d8e4f79b205cd	885992765	1	main_slash	7	main_slash	15	stimuli_distractor_diamondtriangles.svg	stimuli_target_squarediamonds.svg	16	yes	53	1	642
6.6.1	win	2022-12-14	14:44:32	14:48:17	220836	63235c5bf70d8e4f79b205cd	885992765	1	main_slash	7	advance_on_keypress_SLASH	16	stimuli_distractor_diamondtriangles.svg	stimuli_target_squarediamonds.svg	16	yes	57	0	494
6.6.1	win	2022-12-14	14:44:32	14:48:20	223994	63235c5bf70d8e4f79b205cd	885992765	1	main_slash	7	main_slash	17	stimuli_distractor_trianglediamonds.svg	stimuli_distractor_trianglediamonds.svg	34	no	0	1	2000
6.6.1	win	2022-12-14	14:44:32	14:48:20	223994	63235c5bf70d8e4f79b205cd	885992765	1	main_slash	7	advance_on_keypress_SLASH	18	stimuli_distractor_trianglediamonds.svg	stimuli_distractor_trianglediamonds.svg	34	no	57	0	445
6.6.1	win	2022-12-14	14:44:32	14:48:22	225765	63235c5bf70d8e4f79b205cd	885992765	1	main_slash	7	main_slash	19	stimuli_target_squarediamonds.svg	stimuli_distractor_trianglediamonds.svg	4	yes	53	1	671
6.6.1	win	2022-12-14	14:44:32	14:48:22	225765	63235c5bf70d8e4f79b205cd	885992765	1	main_slash	7	advance_on_keypress_SLASH	20	stimuli_target_squarediamonds.svg	stimuli_distractor_trianglediamonds.svg	4	yes	57	0	478
6.6.1	win	2022-12-14	14:44:32	14:48:25	228893	63235c5bf70d8e4f79b205cd	885992765	1	main_slash	7	main_slash	21	stimuli_distractor_trianglediamonds.svg	stimuli_target_diamondsquares.svg	28	yes	0	0	2000
6.6.1	win	2022-12-14	14:44:32	14:48:25	228893	63235c5bf70d8e4f79b205cd	885992765	1	main_slash	7	advance_on_keypress_SLASH	22	stimuli_distractor_trianglediamonds.svg	stimuli_target_diamondsquares.svg	28	yes	57	0	395
6.6.1	win	2022-12-14	14:44:32	14:48:27	230635	63235c5bf70d8e4f79b205cd	885992765	1	main_slash	7	main_slash	23	stimuli_distractor_trianglediamonds.svg	stimuli_target_diamondcircles.svg	27	yes	53	1	692
6.6.1	win	2022-12-14	14:44:32	14:48:27	230635	63235c5bf70d8e4f79b205cd	885992765	1	main_slash	7	advance_on_keypress_SLASH	24	stimuli_distractor_trianglediamonds.svg	stimuli_target_diamondcircles.svg	27	yes	57	0	506
6.6.1	win	2022-12-14	14:44:32	14:48:29	232725	63235c5bf70d8e4f79b205cd	885992765	1	main_slash	7	main_slash	25	stimuli_distractor_trianglediamonds.svg	stimuli_target_trianglesquares.svg	26	yes	53	1	932
6.6.1	win	2022-12-14	14:44:32	14:48:29	232725	63235c5bf70d8e4f79b205cd	885992765	1	main_slash	7	advance_on_keypress_SLASH	26	stimuli_distractor_trianglediamonds.svg	stimuli_target_trianglesquares.svg	26	yes	57	0	463
6.6.1	win	2022-12-14	14:44:32	14:48:31	234556	63235c5bf70d8e4f79b205cd	885992765	1	main_slash	7	main_slash	27	stimuli_target_trianglesquares.svg	stimuli_distractor_diamondtriangles.svg	22	yes	53	1	714
6.6.1	win	2022-12-14	14:44:32	14:48:31	234556	63235c5bf70d8e4f79b205cd	885992765	1	main_slash	7	advance_on_keypress_SLASH	28	stimuli_target_trianglesquares.svg	stimuli_distractor_diamondtriangles.svg	22	yes	57	0	489
6.6.1	win	2022-12-14	14:44:32	14:48:34	237692	63235c5bf70d8e4f79b205cd	885992765	1	main_slash	7	main_slash	29	stimuli_distractor_diamondtriangles.svg	stimuli_distractor_diamondtriangles.svg	40	no	0	1	2000
6.6.1	win	2022-12-14	14:44:32	14:48:34	237692	63235c5bf70d8e4f79b205cd	885992765	1	main_slash	7	advance_on_keypress_SLASH	30	stimuli_distractor_diamondtriangles.svg	stimuli_distractor_diamondtriangles.svg	40	no	57	0	366
6.6.1	win	2022-12-14	14:44:32	14:48:35	239205	63235c5bf70d8e4f79b205cd	885992765	1	main_slash	7	main_slash	31	stimuli_distractor_diamondtriangles.svg	stimuli_target_circlediamonds.svg	14	yes	53	1	497
6.6.1	win	2022-12-14	14:44:32	14:48:35	239205	63235c5bf70d8e4f79b205cd	885992765	1	main_slash	7	advance_on_keypress_SLASH	32	stimuli_distractor_diamondtriangles.svg	stimuli_target_circlediamonds.svg	14	yes	57	0	660
6.6.1	win	2022-12-14	14:44:32	14:48:37	241155	63235c5bf70d8e4f79b205cd	885992765	1	main_slash	7	main_slash	33	stimuli_target_diamondcircles.svg	stimuli_distractor_diamondtriangles.svg	23	yes	53	1	630
6.6.1	win	2022-12-14	14:44:32	14:48:37	241155	63235c5bf70d8e4f79b205cd	885992765	1	main_slash	7	advance_on_keypress_SLASH	34	stimuli_target_diamondcircles.svg	stimuli_distractor_diamondtriangles.svg	23	yes	57	0	471
6.6.1	win	2022-12-14	14:44:32	14:48:40	244274	63235c5bf70d8e4f79b205cd	885992765	1	main_slash	7	main_slash	35	stimuli_distractor_diamondtriangles.svg	stimuli_distractor_trianglediamonds.svg	37	no	0	1	2000
6.6.1	win	2022-12-14	14:44:32	14:48:40	244274	63235c5bf70d8e4f79b205cd	885992765	1	main_slash	7	advance_on_keypress_SLASH	36	stimuli_distractor_diamondtriangles.svg	stimuli_distractor_trianglediamonds.svg	37	no	57	0	763
6.6.1	win	2022-12-14	14:44:32	14:48:43	246534	63235c5bf70d8e4f79b205cd	885992765	1	main_slash	7	main_slash	37	stimuli_target_diamondsquares.svg	stimuli_distractor_diamondtriangles.svg	24	yes	53	1	844
6.6.1	win	2022-12-14	14:44:32	14:48:43	246534	63235c5bf70d8e4f79b205cd	885992765	1	main_slash	7	advance_on_keypress_SLASH	38	stimuli_target_diamondsquares.svg	stimuli_distractor_diamondtriangles.svg	24	yes	57	0	428
6.6.1	win	2022-12-14	14:44:32	14:48:44	248106	63235c5bf70d8e4f79b205cd	885992765	1	main_slash	7	main_slash	39	stimuli_target_trianglecircles.svg	stimuli_distractor_diamondtriangles.svg	21	yes	53	1	482
6.6.1	win	2022-12-14	14:44:32	14:48:44	248106	63235c5bf70d8e4f79b205cd	885992765	1	main_slash	7	advance_on_keypress_SLASH	40	stimuli_target_trianglecircles.svg	stimuli_distractor_diamondtriangles.svg	21	yes	57	0	472
6.6.1	win	2022-12-14	14:44:32	14:48:47	251224	63235c5bf70d8e4f79b205cd	885992765	1	main_slash	7	main_slash	41	stimuli_distractor_diamondtriangles.svg	stimuli_distractor_trianglediamonds.svg	38	no	0	1	2000
6.6.1	win	2022-12-14	14:44:32	14:48:47	251224	63235c5bf70d8e4f79b205cd	885992765	1	main_slash	7	advance_on_keypress_SLASH	42	stimuli_distractor_diamondtriangles.svg	stimuli_distractor_trianglediamonds.svg	38	no	57	0	314
6.6.1	win	2022-12-14	14:44:32	14:48:49	252875	63235c5bf70d8e4f79b205cd	885992765	1	main_slash	7	main_slash	43	stimuli_target_trianglesquares.svg	stimuli_distractor_trianglediamonds.svg	18	yes	53	1	685
6.6.1	win	2022-12-14	14:44:32	14:48:49	252875	63235c5bf70d8e4f79b205cd	885992765	1	main_slash	7	advance_on_keypress_SLASH	44	stimuli_target_trianglesquares.svg	stimuli_distractor_trianglediamonds.svg	18	yes	57	0	724
6.6.1	win	2022-12-14	14:44:32	14:48:51	254734	63235c5bf70d8e4f79b205cd	885992765	1	main_slash	7	main_slash	45	stimuli_distractor_trianglediamonds.svg	stimuli_target_circlediamonds.svg	10	yes	53	1	478
6.6.1	win	2022-12-14	14:44:32	14:48:51	254734	63235c5bf70d8e4f79b205cd	885992765	1	main_slash	7	advance_on_keypress_SLASH	46	stimuli_distractor_trianglediamonds.svg	stimuli_target_circlediamonds.svg	10	yes	57	0	598
6.6.1	win	2022-12-14	14:44:32	14:48:53	256997	63235c5bf70d8e4f79b205cd	885992765	1	main_slash	7	main_slash	47	stimuli_target_squaretriangles.svg	stimuli_distractor_diamondtriangles.svg	7	yes	53	1	1007
6.6.1	win	2022-12-14	14:44:32	14:48:53	256997	63235c5bf70d8e4f79b205cd	885992765	1	main_slash	7	advance_on_keypress_SLASH	48	stimuli_target_squaretriangles.svg	stimuli_distractor_diamondtriangles.svg	7	yes	57	0	468
6.6.1	win	2022-12-14	14:44:32	14:48:56	260106	63235c5bf70d8e4f79b205cd	885992765	1	main_slash	7	main_slash	49	stimuli_target_diamondsquares.svg	stimuli_distractor_trianglediamonds.svg	20	yes	0	0	2000
6.6.1	win	2022-12-14	14:44:32	14:48:56	260106	63235c5bf70d8e4f79b205cd	885992765	1	main_slash	7	advance_on_keypress_SLASH	50	stimuli_target_diamondsquares.svg	stimuli_distractor_trianglediamonds.svg	20	yes	57	0	699
6.6.1	win	2022-12-14	14:44:32	14:48:58	261985	63235c5bf70d8e4f79b205cd	885992765	1	main_slash	7	main_slash	51	stimuli_distractor_diamondtriangles.svg	stimuli_target_trianglecircles.svg	29	yes	53	1	519
6.6.1	win	2022-12-14	14:44:32	14:48:58	261985	63235c5bf70d8e4f79b205cd	885992765	1	main_slash	7	advance_on_keypress_SLASH	52	stimuli_distractor_diamondtriangles.svg	stimuli_target_trianglecircles.svg	29	yes	57	0	539
6.6.1	win	2022-12-14	14:44:32	14:49:01	265172	63235c5bf70d8e4f79b205cd	885992765	1	main_slash	7	main_slash	53	stimuli_distractor_trianglediamonds.svg	stimuli_distractor_diamondtriangles.svg	36	no	0	1	2000
6.6.1	win	2022-12-14	14:44:32	14:49:01	265172	63235c5bf70d8e4f79b205cd	885992765	1	main_slash	7	advance_on_keypress_SLASH	54	stimuli_distractor_trianglediamonds.svg	stimuli_distractor_diamondtriangles.svg	36	no	57	0	786
6.6.1	win	2022-12-14	14:44:32	14:49:03	267223	63235c5bf70d8e4f79b205cd	885992765	1	main_slash	7	main_slash	55	stimuli_distractor_diamondtriangles.svg	stimuli_target_circletriangles.svg	13	yes	53	1	619
6.6.1	win	2022-12-14	14:44:32	14:49:03	267223	63235c5bf70d8e4f79b205cd	885992765	1	main_slash	7	advance_on_keypress_SLASH	56	stimuli_distractor_diamondtriangles.svg	stimuli_target_circletriangles.svg	13	yes	57	0	466
6.6.1	win	2022-12-14	14:44:32	14:49:05	269044	63235c5bf70d8e4f79b205cd	885992765	1	main_slash	7	main_slash	57	stimuli_target_circlediamonds.svg	stimuli_distractor_trianglediamonds.svg	2	yes	53	1	706
6.6.1	win	2022-12-14	14:44:32	14:49:05	269044	63235c5bf70d8e4f79b205cd	885992765	1	main_slash	7	advance_on_keypress_SLASH	58	stimuli_target_circlediamonds.svg	stimuli_distractor_trianglediamonds.svg	2	yes	57	0	420
6.6.1	win	2022-12-14	14:44:32	14:49:08	272104	63235c5bf70d8e4f79b205cd	885992765	1	main_slash	7	main_slash	59	stimuli_distractor_trianglediamonds.svg	stimuli_distractor_trianglediamonds.svg	33	no	0	1	2000
6.6.1	win	2022-12-14	14:44:32	14:49:08	272104	63235c5bf70d8e4f79b205cd	885992765	1	main_slash	7	advance_on_keypress_SLASH	60	stimuli_distractor_trianglediamonds.svg	stimuli_distractor_trianglediamonds.svg	33	no	57	0	658
6.6.1	win	2022-12-14	14:44:32	14:49:10	273964	63235c5bf70d8e4f79b205cd	885992765	1	main_slash	7	main_slash	61	stimuli_distractor_trianglediamonds.svg	stimuli_target_trianglecircles.svg	25	yes	53	1	543
6.6.1	win	2022-12-14	14:44:32	14:49:10	273964	63235c5bf70d8e4f79b205cd	885992765	1	main_slash	7	advance_on_keypress_SLASH	62	stimuli_distractor_trianglediamonds.svg	stimuli_target_trianglecircles.svg	25	yes	57	0	1107
6.6.1	win	2022-12-14	14:44:32	14:49:12	276295	63235c5bf70d8e4f79b205cd	885992765	1	main_slash	7	main_slash	63	stimuli_target_squaretriangles.svg	stimuli_distractor_trianglediamonds.svg	3	yes	53	1	557
6.6.1	win	2022-12-14	14:44:32	14:49:12	276295	63235c5bf70d8e4f79b205cd	885992765	1	main_slash	7	advance_on_keypress_SLASH	64	stimuli_target_squaretriangles.svg	stimuli_distractor_trianglediamonds.svg	3	yes	57	0	644
6.6.1	win	2022-12-14	14:44:32	14:49:14	278074	63235c5bf70d8e4f79b205cd	885992765	1	main_slash	7	main_slash	65	stimuli_target_circletriangles.svg	stimuli_distractor_diamondtriangles.svg	5	yes	53	1	471
6.6.1	win	2022-12-14	14:44:32	14:49:14	278074	63235c5bf70d8e4f79b205cd	885992765	1	main_slash	7	advance_on_keypress_SLASH	66	stimuli_target_circletriangles.svg	stimuli_distractor_diamondtriangles.svg	5	yes	57	0	457
6.6.1	win	2022-12-14	14:44:32	14:49:16	279715	63235c5bf70d8e4f79b205cd	885992765	1	main_slash	7	main_slash	67	stimuli_distractor_diamondtriangles.svg	stimuli_target_diamondcircles.svg	31	yes	53	1	528
6.6.1	win	2022-12-14	14:44:32	14:49:16	279715	63235c5bf70d8e4f79b205cd	885992765	1	main_slash	7	advance_on_keypress_SLASH	68	stimuli_distractor_diamondtriangles.svg	stimuli_target_diamondcircles.svg	31	yes	57	0	378
6.6.1	win	2022-12-14	14:44:32	14:49:18	281394	63235c5bf70d8e4f79b205cd	885992765	1	main_slash	7	main_slash	69	stimuli_target_circletriangles.svg	stimuli_distractor_trianglediamonds.svg	1	yes	53	1	458
6.6.1	win	2022-12-14	14:44:32	14:49:18	281394	63235c5bf70d8e4f79b205cd	885992765	1	main_slash	7	advance_on_keypress_SLASH	70	stimuli_target_circletriangles.svg	stimuli_distractor_trianglediamonds.svg	1	yes	57	0	395
6.6.1	win	2022-12-14	14:44:32	14:49:19	282884	63235c5bf70d8e4f79b205cd	885992765	1	main_slash	7	main_slash	71	stimuli_target_circlediamonds.svg	stimuli_distractor_diamondtriangles.svg	6	yes	53	1	431
6.6.1	win	2022-12-14	14:44:32	14:49:19	282884	63235c5bf70d8e4f79b205cd	885992765	1	main_slash	7	advance_on_keypress_SLASH	72	stimuli_target_circlediamonds.svg	stimuli_distractor_diamondtriangles.svg	6	yes	57	0	455
6.6.1	win	2022-12-14	14:44:32	14:49:22	286002	63235c5bf70d8e4f79b205cd	885992765	1	main_slash	7	main_slash	73	stimuli_target_diamondcircles.svg	stimuli_distractor_trianglediamonds.svg	19	yes	0	0	2000
6.6.1	win	2022-12-14	14:44:32	14:49:22	286002	63235c5bf70d8e4f79b205cd	885992765	1	main_slash	7	advance_on_keypress_SLASH	74	stimuli_target_diamondcircles.svg	stimuli_distractor_trianglediamonds.svg	19	yes	57	0	336
6.6.1	win	2022-12-14	14:44:32	14:49:25	288985	63235c5bf70d8e4f79b205cd	885992765	1	main_slash	7	main_slash	75	stimuli_distractor_trianglediamonds.svg	stimuli_distractor_diamondtriangles.svg	35	no	0	1	2000
6.6.1	win	2022-12-14	14:44:32	14:49:25	288985	63235c5bf70d8e4f79b205cd	885992765	1	main_slash	7	advance_on_keypress_SLASH	76	stimuli_distractor_trianglediamonds.svg	stimuli_distractor_diamondtriangles.svg	35	no	57	0	737
6.6.1	win	2022-12-14	14:44:32	14:49:27	290984	63235c5bf70d8e4f79b205cd	885992765	1	main_slash	7	main_slash	77	stimuli_distractor_diamondtriangles.svg	stimuli_target_squaretriangles.svg	15	yes	53	1	617
6.6.1	win	2022-12-14	14:44:32	14:49:27	290984	63235c5bf70d8e4f79b205cd	885992765	1	main_slash	7	advance_on_keypress_SLASH	78	stimuli_distractor_diamondtriangles.svg	stimuli_target_squaretriangles.svg	15	yes	57	0	543
6.6.1	win	2022-12-14	14:44:32	14:49:29	292994	63235c5bf70d8e4f79b205cd	885992765	1	main_slash	7	main_slash	79	stimuli_target_trianglecircles.svg	stimuli_distractor_trianglediamonds.svg	17	yes	53	1	810
6.6.1	win	2022-12-14	14:44:32	14:49:29	292994	63235c5bf70d8e4f79b205cd	885992765	1	main_slash	7	advance_on_keypress_SLASH	80	stimuli_target_trianglecircles.svg	stimuli_distractor_trianglediamonds.svg	17	yes	57	0	417
6.6.1	win	2022-12-14	14:44:32	14:49:31	294524	63235c5bf70d8e4f79b205cd	885992765	1	main_slash	7	main_slash	81	stimuli_target_circlediamonds.svg	stimuli_distractor_diamondtriangles.svg	6	yes	53	1	456
6.6.1	win	2022-12-14	14:44:32	14:49:31	294524	63235c5bf70d8e4f79b205cd	885992765	1	main_slash	7	advance_on_keypress_SLASH	82	stimuli_target_circlediamonds.svg	stimuli_distractor_diamondtriangles.svg	6	yes	57	0	426
6.6.1	win	2022-12-14	14:44:32	14:49:32	296092	63235c5bf70d8e4f79b205cd	885992765	1	main_slash	7	main_slash	83	stimuli_target_circlediamonds.svg	stimuli_distractor_trianglediamonds.svg	2	yes	53	1	485
6.6.1	win	2022-12-14	14:44:32	14:49:32	296092	63235c5bf70d8e4f79b205cd	885992765	1	main_slash	7	advance_on_keypress_SLASH	84	stimuli_target_circlediamonds.svg	stimuli_distractor_trianglediamonds.svg	2	yes	57	0	507
6.6.1	win	2022-12-14	14:44:32	14:49:35	299269	63235c5bf70d8e4f79b205cd	885992765	1	main_slash	7	main_slash	85	stimuli_target_trianglesquares.svg	stimuli_distractor_diamondtriangles.svg	22	yes	0	0	2000
6.6.1	win	2022-12-14	14:44:32	14:49:35	299269	63235c5bf70d8e4f79b205cd	885992765	1	main_slash	7	advance_on_keypress_SLASH	86	stimuli_target_trianglesquares.svg	stimuli_distractor_diamondtriangles.svg	22	yes	57	0	382
6.6.1	win	2022-12-14	14:44:32	14:49:37	301084	63235c5bf70d8e4f79b205cd	885992765	1	main_slash	7	main_slash	87	stimuli_distractor_trianglediamonds.svg	stimuli_target_trianglesquares.svg	26	yes	53	1	784
6.6.1	win	2022-12-14	14:44:32	14:49:37	301084	63235c5bf70d8e4f79b205cd	885992765	1	main_slash	7	advance_on_keypress_SLASH	88	stimuli_distractor_trianglediamonds.svg	stimuli_target_trianglesquares.svg	26	yes	57	0	584
6.6.1	win	2022-12-14	14:44:32	14:49:39	302903	63235c5bf70d8e4f79b205cd	885992765	1	main_slash	7	main_slash	89	stimuli_target_diamondcircles.svg	stimuli_distractor_diamondtriangles.svg	23	yes	53	1	587
6.6.1	win	2022-12-14	14:44:32	14:49:39	302903	63235c5bf70d8e4f79b205cd	885992765	1	main_slash	7	advance_on_keypress_SLASH	90	stimuli_target_diamondcircles.svg	stimuli_distractor_diamondtriangles.svg	23	yes	57	0	417
6.6.1	win	2022-12-14	14:44:32	14:49:42	305967	63235c5bf70d8e4f79b205cd	885992765	1	main_slash	7	main_slash	91	stimuli_distractor_trianglediamonds.svg	stimuli_distractor_diamondtriangles.svg	35	no	0	1	2000
6.6.1	win	2022-12-14	14:44:32	14:49:42	305967	63235c5bf70d8e4f79b205cd	885992765	1	main_slash	7	advance_on_keypress_SLASH	92	stimuli_distractor_trianglediamonds.svg	stimuli_distractor_diamondtriangles.svg	35	no	57	0	481
6.6.1	win	2022-12-14	14:44:32	14:49:44	307674	63235c5bf70d8e4f79b205cd	885992765	1	main_slash	7	main_slash	93	stimuli_distractor_trianglediamonds.svg	stimuli_target_squarediamonds.svg	12	yes	53	1	576
6.6.1	win	2022-12-14	14:44:32	14:49:44	307674	63235c5bf70d8e4f79b205cd	885992765	1	main_slash	7	advance_on_keypress_SLASH	94	stimuli_distractor_trianglediamonds.svg	stimuli_target_squarediamonds.svg	12	yes	57	0	615
6.6.1	win	2022-12-14	14:44:32	14:49:46	309478	63235c5bf70d8e4f79b205cd	885992765	1	main_slash	7	main_slash	95	stimuli_target_squaretriangles.svg	stimuli_distractor_trianglediamonds.svg	3	yes	53	1	526
6.6.1	win	2022-12-14	14:44:32	14:49:46	309478	63235c5bf70d8e4f79b205cd	885992765	1	main_slash	7	advance_on_keypress_SLASH	96	stimuli_target_squaretriangles.svg	stimuli_distractor_trianglediamonds.svg	3	yes	57	0	545
6.6.1	win	2022-12-14	14:44:32	14:49:48	311395	63235c5bf70d8e4f79b205cd	885992765	1	main_slash	7	main_slash	97	stimuli_distractor_trianglediamonds.svg	stimuli_target_diamondcircles.svg	27	yes	53	1	712
6.6.1	win	2022-12-14	14:44:32	14:49:48	311395	63235c5bf70d8e4f79b205cd	885992765	1	main_slash	7	advance_on_keypress_SLASH	98	stimuli_distractor_trianglediamonds.svg	stimuli_target_diamondcircles.svg	27	yes	57	0	629
6.6.1	win	2022-12-14	14:44:32	14:49:49	313174	63235c5bf70d8e4f79b205cd	885992765	1	main_slash	7	main_slash	99	stimuli_distractor_trianglediamonds.svg	stimuli_target_trianglecircles.svg	25	yes	53	1	492
6.6.1	win	2022-12-14	14:44:32	14:49:49	313174	63235c5bf70d8e4f79b205cd	885992765	1	main_slash	7	advance_on_keypress_SLASH	100	stimuli_distractor_trianglediamonds.svg	stimuli_target_trianglecircles.svg	25	yes	57	0	526
6.6.1	win	2022-12-14	14:44:32	14:49:51	314824	63235c5bf70d8e4f79b205cd	885992765	1	main_slash	7	main_slash	101	stimuli_target_diamondsquares.svg	stimuli_distractor_trianglediamonds.svg	20	yes	53	1	459
6.6.1	win	2022-12-14	14:44:32	14:49:51	314824	63235c5bf70d8e4f79b205cd	885992765	1	main_slash	7	advance_on_keypress_SLASH	102	stimuli_target_diamondsquares.svg	stimuli_distractor_trianglediamonds.svg	20	yes	57	0	1485
6.6.1	win	2022-12-14	14:44:32	14:49:55	318964	63235c5bf70d8e4f79b205cd	885992765	1	main_slash	7	main_slash	103	stimuli_distractor_trianglediamonds.svg	stimuli_distractor_trianglediamonds.svg	33	no	0	1	2000
6.6.1	win	2022-12-14	14:44:32	14:49:55	318964	63235c5bf70d8e4f79b205cd	885992765	1	main_slash	7	advance_on_keypress_SLASH	104	stimuli_distractor_trianglediamonds.svg	stimuli_distractor_trianglediamonds.svg	33	no	57	0	333
6.6.1	win	2022-12-14	14:44:32	14:49:56	320354	63235c5bf70d8e4f79b205cd	885992765	1	main_slash	7	main_slash	105	stimuli_distractor_diamondtriangles.svg	stimuli_target_trianglecircles.svg	29	yes	53	1	407
6.6.1	win	2022-12-14	14:44:32	14:49:56	320354	63235c5bf70d8e4f79b205cd	885992765	1	main_slash	7	advance_on_keypress_SLASH	106	stimuli_distractor_diamondtriangles.svg	stimuli_target_trianglecircles.svg	29	yes	57	0	493
6.6.1	win	2022-12-14	14:44:32	14:49:58	322064	63235c5bf70d8e4f79b205cd	885992765	1	main_slash	7	main_slash	107	stimuli_distractor_diamondtriangles.svg	stimuli_target_squarediamonds.svg	16	yes	53	1	550
6.6.1	win	2022-12-14	14:44:32	14:49:58	322064	63235c5bf70d8e4f79b205cd	885992765	1	main_slash	7	advance_on_keypress_SLASH	108	stimuli_distractor_diamondtriangles.svg	stimuli_target_squarediamonds.svg	16	yes	57	0	404
6.6.1	win	2022-12-14	14:44:32	14:50:01	325114	63235c5bf70d8e4f79b205cd	885992765	1	main_slash	7	main_slash	109	stimuli_distractor_trianglediamonds.svg	stimuli_distractor_diamondtriangles.svg	36	no	0	1	2000
6.6.1	win	2022-12-14	14:44:32	14:50:01	325114	63235c5bf70d8e4f79b205cd	885992765	1	main_slash	7	advance_on_keypress_SLASH	110	stimuli_distractor_trianglediamonds.svg	stimuli_distractor_diamondtriangles.svg	36	no	57	0	325
6.6.1	win	2022-12-14	14:44:32	14:50:03	326574	63235c5bf70d8e4f79b205cd	885992765	1	main_slash	7	main_slash	111	stimuli_target_squarediamonds.svg	stimuli_distractor_diamondtriangles.svg	8	yes	53	1	477
6.6.1	win	2022-12-14	14:44:32	14:50:03	326574	63235c5bf70d8e4f79b205cd	885992765	1	main_slash	7	advance_on_keypress_SLASH	112	stimuli_target_squarediamonds.svg	stimuli_distractor_diamondtriangles.svg	8	yes	57	0	407
6.6.1	win	2022-12-14	14:44:32	14:50:04	328354	63235c5bf70d8e4f79b205cd	885992765	1	main_slash	7	main_slash	113	stimuli_distractor_trianglediamonds.svg	stimuli_target_circlediamonds.svg	10	yes	53	1	724
6.6.1	win	2022-12-14	14:44:32	14:50:04	328354	63235c5bf70d8e4f79b205cd	885992765	1	main_slash	7	advance_on_keypress_SLASH	114	stimuli_distractor_trianglediamonds.svg	stimuli_target_circlediamonds.svg	10	yes	57	0	414
6.6.1	win	2022-12-14	14:44:32	14:50:06	329924	63235c5bf70d8e4f79b205cd	885992765	1	main_slash	7	main_slash	115	stimuli_target_circletriangles.svg	stimuli_distractor_diamondtriangles.svg	5	yes	53	1	494
6.6.1	win	2022-12-14	14:44:32	14:50:06	329924	63235c5bf70d8e4f79b205cd	885992765	1	main_slash	7	advance_on_keypress_SLASH	116	stimuli_target_circletriangles.svg	stimuli_distractor_diamondtriangles.svg	5	yes	57	0	408
6.6.1	win	2022-12-14	14:44:32	14:50:08	331473	63235c5bf70d8e4f79b205cd	885992765	1	main_slash	7	main_slash	117	stimuli_distractor_diamondtriangles.svg	stimuli_target_squaretriangles.svg	15	yes	53	1	495
6.6.1	win	2022-12-14	14:44:32	14:50:08	331473	63235c5bf70d8e4f79b205cd	885992765	1	main_slash	7	advance_on_keypress_SLASH	118	stimuli_distractor_diamondtriangles.svg	stimuli_target_squaretriangles.svg	15	yes	57	0	508
6.6.1	win	2022-12-14	14:44:32	14:50:09	333023	63235c5bf70d8e4f79b205cd	885992765	1	main_slash	7	main_slash	119	stimuli_distractor_diamondtriangles.svg	stimuli_target_trianglesquares.svg	30	yes	53	1	395
6.6.1	win	2022-12-14	14:44:32	14:50:09	333023	63235c5bf70d8e4f79b205cd	885992765	1	main_slash	7	advance_on_keypress_SLASH	120	stimuli_distractor_diamondtriangles.svg	stimuli_target_trianglesquares.svg	30	yes	57	0	908
6.6.1	win	2022-12-14	14:44:32	14:50:11	335094	63235c5bf70d8e4f79b205cd	885992765	1	main_slash	7	main_slash	121	stimuli_distractor_trianglediamonds.svg	stimuli_target_circletriangles.svg	9	yes	53	1	498
6.6.1	win	2022-12-14	14:44:32	14:50:11	335094	63235c5bf70d8e4f79b205cd	885992765	1	main_slash	7	advance_on_keypress_SLASH	122	stimuli_distractor_trianglediamonds.svg	stimuli_target_circletriangles.svg	9	yes	57	0	482
6.6.1	win	2022-12-14	14:44:32	14:50:14	338228	63235c5bf70d8e4f79b205cd	885992765	1	main_slash	7	main_slash	123	stimuli_distractor_diamondtriangles.svg	stimuli_distractor_diamondtriangles.svg	39	no	0	1	2000
6.6.1	win	2022-12-14	14:44:32	14:50:14	338228	63235c5bf70d8e4f79b205cd	885992765	1	main_slash	7	advance_on_keypress_SLASH	124	stimuli_distractor_diamondtriangles.svg	stimuli_distractor_diamondtriangles.svg	39	no	57	0	519
6.6.1	win	2022-12-14	14:44:32	14:50:18	341395	63235c5bf70d8e4f79b205cd	885992765	1	main_slash	7	main_slash	125	stimuli_distractor_diamondtriangles.svg	stimuli_distractor_trianglediamonds.svg	38	no	0	1	2000
6.6.1	win	2022-12-14	14:44:32	14:50:18	341395	63235c5bf70d8e4f79b205cd	885992765	1	main_slash	7	advance_on_keypress_SLASH	126	stimuli_distractor_diamondtriangles.svg	stimuli_distractor_trianglediamonds.svg	38	no	57	0	423
6.6.1	win	2022-12-14	14:44:32	14:50:20	343444	63235c5bf70d8e4f79b205cd	885992765	1	main_slash	7	main_slash	127	stimuli_distractor_trianglediamonds.svg	stimuli_target_diamondsquares.svg	28	yes	53	1	983
6.6.1	win	2022-12-14	14:44:32	14:50:20	343444	63235c5bf70d8e4f79b205cd	885992765	1	main_slash	7	advance_on_keypress_SLASH	128	stimuli_distractor_trianglediamonds.svg	stimuli_target_diamondsquares.svg	28	yes	57	0	453
6.6.1	win	2022-12-14	14:44:32	14:50:23	346544	63235c5bf70d8e4f79b205cd	885992765	1	main_slash	7	main_slash	129	stimuli_distractor_diamondtriangles.svg	stimuli_distractor_diamondtriangles.svg	40	no	0	1	2000
6.6.1	win	2022-12-14	14:44:32	14:50:23	346544	63235c5bf70d8e4f79b205cd	885992765	1	main_slash	7	advance_on_keypress_SLASH	130	stimuli_distractor_diamondtriangles.svg	stimuli_distractor_diamondtriangles.svg	40	no	57	0	324
6.6.1	win	2022-12-14	14:44:32	14:50:24	348234	63235c5bf70d8e4f79b205cd	885992765	1	main_slash	7	main_slash	131	stimuli_distractor_diamondtriangles.svg	stimuli_target_diamondsquares.svg	32	yes	53	1	723
6.6.1	win	2022-12-14	14:44:32	14:50:24	348234	63235c5bf70d8e4f79b205cd	885992765	1	main_slash	7	advance_on_keypress_SLASH	132	stimuli_distractor_diamondtriangles.svg	stimuli_target_diamondsquares.svg	32	yes	57	0	524
6.6.1	win	2022-12-14	14:44:32	14:50:26	349965	63235c5bf70d8e4f79b205cd	885992765	1	main_slash	7	main_slash	133	stimuli_target_circletriangles.svg	stimuli_distractor_trianglediamonds.svg	1	yes	53	1	555
6.6.1	win	2022-12-14	14:44:32	14:50:26	349965	63235c5bf70d8e4f79b205cd	885992765	1	main_slash	7	advance_on_keypress_SLASH	134	stimuli_target_circletriangles.svg	stimuli_distractor_trianglediamonds.svg	1	yes	57	0	407
6.6.1	win	2022-12-14	14:44:32	14:50:28	352097	63235c5bf70d8e4f79b205cd	885992765	1	main_slash	7	main_slash	135	stimuli_distractor_trianglediamonds.svg	stimuli_target_squaretriangles.svg	11	yes	53	1	1088
6.6.1	win	2022-12-14	14:44:32	14:50:28	352097	63235c5bf70d8e4f79b205cd	885992765	1	main_slash	7	advance_on_keypress_SLASH	136	stimuli_distractor_trianglediamonds.svg	stimuli_target_squaretriangles.svg	11	yes	57	0	534
6.6.1	win	2022-12-14	14:44:32	14:50:30	353806	63235c5bf70d8e4f79b205cd	885992765	1	main_slash	7	main_slash	137	stimuli_distractor_diamondtriangles.svg	stimuli_target_circlediamonds.svg	14	yes	53	1	527
6.6.1	win	2022-12-14	14:44:32	14:50:30	353806	63235c5bf70d8e4f79b205cd	885992765	1	main_slash	7	advance_on_keypress_SLASH	138	stimuli_distractor_diamondtriangles.svg	stimuli_target_circlediamonds.svg	14	yes	57	0	678
6.6.1	win	2022-12-14	14:44:32	14:50:32	356254	63235c5bf70d8e4f79b205cd	885992765	1	main_slash	7	main_slash	139	stimuli_target_trianglecircles.svg	stimuli_distractor_diamondtriangles.svg	21	yes	53	1	1112
6.6.1	win	2022-12-14	14:44:32	14:50:32	356254	63235c5bf70d8e4f79b205cd	885992765	1	main_slash	7	advance_on_keypress_SLASH	140	stimuli_target_trianglecircles.svg	stimuli_distractor_diamondtriangles.svg	21	yes	57	0	5078
6.6.1	win	2022-12-14	14:44:32	14:50:39	362533	63235c5bf70d8e4f79b205cd	885992765	1	main_slash	7	main_slash	141	stimuli_distractor_diamondtriangles.svg	stimuli_target_circletriangles.svg	13	yes	53	1	542
6.6.1	win	2022-12-14	14:44:32	14:50:39	362533	63235c5bf70d8e4f79b205cd	885992765	1	main_slash	7	advance_on_keypress_SLASH	142	stimuli_distractor_diamondtriangles.svg	stimuli_target_circletriangles.svg	13	yes	57	0	9755
6.6.1	win	2022-12-14	14:44:32	14:50:51	374957	63235c5bf70d8e4f79b205cd	885992765	1	main_slash	7	main_slash	143	stimuli_target_diamondsquares.svg	stimuli_distractor_diamondtriangles.svg	24	yes	0	0	2000
6.6.1	win	2022-12-14	14:44:32	14:50:51	374957	63235c5bf70d8e4f79b205cd	885992765	1	main_slash	7	advance_on_keypress_SLASH	144	stimuli_target_diamondsquares.svg	stimuli_distractor_diamondtriangles.svg	24	yes	57	0	1309
6.6.1	win	2022-12-14	14:44:32	14:50:53	377283	63235c5bf70d8e4f79b205cd	885992765	1	main_slash	7	main_slash	145	stimuli_target_diamondcircles.svg	stimuli_distractor_trianglediamonds.svg	19	yes	53	1	360
6.6.1	win	2022-12-14	14:44:32	14:50:53	377283	63235c5bf70d8e4f79b205cd	885992765	1	main_slash	7	advance_on_keypress_SLASH	146	stimuli_target_diamondcircles.svg	stimuli_distractor_trianglediamonds.svg	19	yes	57	0	476
6.6.1	win	2022-12-14	14:44:32	14:50:57	380423	63235c5bf70d8e4f79b205cd	885992765	1	main_slash	7	main_slash	147	stimuli_distractor_diamondtriangles.svg	stimuli_distractor_trianglediamonds.svg	37	no	0	1	2000
6.6.1	win	2022-12-14	14:44:32	14:50:57	380423	63235c5bf70d8e4f79b205cd	885992765	1	main_slash	7	advance_on_keypress_SLASH	148	stimuli_distractor_diamondtriangles.svg	stimuli_distractor_trianglediamonds.svg	37	no	57	0	304
6.6.1	win	2022-12-14	14:44:32	14:50:58	381793	63235c5bf70d8e4f79b205cd	885992765	1	main_slash	7	main_slash	149	stimuli_distractor_diamondtriangles.svg	stimuli_target_diamondcircles.svg	31	yes	53	1	420
6.6.1	win	2022-12-14	14:44:32	14:50:58	381793	63235c5bf70d8e4f79b205cd	885992765	1	main_slash	7	advance_on_keypress_SLASH	150	stimuli_distractor_diamondtriangles.svg	stimuli_target_diamondcircles.svg	31	yes	57	0	837
6.6.1	win	2022-12-14	14:44:32	14:51:00	383853	63235c5bf70d8e4f79b205cd	885992765	1	main_slash	7	main_slash	151	stimuli_target_trianglecircles.svg	stimuli_distractor_trianglediamonds.svg	17	yes	53	1	556
6.6.1	win	2022-12-14	14:44:32	14:51:00	383853	63235c5bf70d8e4f79b205cd	885992765	1	main_slash	7	advance_on_keypress_SLASH	152	stimuli_target_trianglecircles.svg	stimuli_distractor_trianglediamonds.svg	17	yes	57	0	1102
6.6.1	win	2022-12-14	14:44:32	14:51:02	386144	63235c5bf70d8e4f79b205cd	885992765	1	main_slash	7	main_slash	153	stimuli_target_squarediamonds.svg	stimuli_distractor_trianglediamonds.svg	4	yes	53	1	538
6.6.1	win	2022-12-14	14:44:32	14:51:02	386144	63235c5bf70d8e4f79b205cd	885992765	1	main_slash	7	advance_on_keypress_SLASH	154	stimuli_target_squarediamonds.svg	stimuli_distractor_trianglediamonds.svg	4	yes	57	0	508
6.6.1	win	2022-12-14	14:44:32	14:51:04	388203	63235c5bf70d8e4f79b205cd	885992765	1	main_slash	7	main_slash	155	stimuli_target_trianglesquares.svg	stimuli_distractor_trianglediamonds.svg	18	yes	53	1	914
6.6.1	win	2022-12-14	14:44:32	14:51:04	388203	63235c5bf70d8e4f79b205cd	885992765	1	main_slash	7	advance_on_keypress_SLASH	156	stimuli_target_trianglesquares.svg	stimuli_distractor_trianglediamonds.svg	18	yes	57	0	1261
6.6.1	win	2022-12-14	14:44:32	14:51:08	392121	63235c5bf70d8e4f79b205cd	885992765	1	main_slash	7	main_slash	157	stimuli_distractor_trianglediamonds.svg	stimuli_distractor_trianglediamonds.svg	34	no	0	1	2000
6.6.1	win	2022-12-14	14:44:32	14:51:08	392121	63235c5bf70d8e4f79b205cd	885992765	1	main_slash	7	advance_on_keypress_SLASH	158	stimuli_distractor_trianglediamonds.svg	stimuli_distractor_trianglediamonds.svg	34	no	57	0	325
6.6.1	win	2022-12-14	14:44:32	14:51:10	393543	63235c5bf70d8e4f79b205cd	885992765	1	main_slash	7	main_slash	159	stimuli_target_squaretriangles.svg	stimuli_distractor_diamondtriangles.svg	7	yes	53	1	439
6.6.1	win	2022-12-14	14:44:32	14:51:10	393543	63235c5bf70d8e4f79b205cd	885992765	1	main_slash	7	advance_on_keypress_SLASH	160	stimuli_target_squaretriangles.svg	stimuli_distractor_diamondtriangles.svg	7	yes	57	0	529
6.6.1	win	2022-12-14	14:44:32	14:51:26	409859	63235c5bf70d8e4f79b205cd	885992765	1	practice_z	9	practice_z	1	stimuli_distractor_diamondtriangles.svg	stimuli_target_trianglecircles.svg	9	yes	44	1	485
6.6.1	win	2022-12-14	14:44:32	14:51:26	409859	63235c5bf70d8e4f79b205cd	885992765	1	practice_z	9	advance_on_keypress_ZEE	2	stimuli_distractor_diamondtriangles.svg	stimuli_target_trianglecircles.svg	9	yes	57	0	1090
6.6.1	win	2022-12-14	14:44:32	14:51:29	413247	63235c5bf70d8e4f79b205cd	885992765	1	practice_z	9	practice_z	3	stimuli_distractor_trianglediamonds.svg	stimuli_target_diamondcircles.svg	12	yes	44	1	624
6.6.1	win	2022-12-14	14:44:32	14:51:29	413247	63235c5bf70d8e4f79b205cd	885992765	1	practice_z	9	advance_on_keypress_ZEE	4	stimuli_distractor_trianglediamonds.svg	stimuli_target_diamondcircles.svg	12	yes	57	0	596
6.6.1	win	2022-12-14	14:44:32	14:51:34	417523	63235c5bf70d8e4f79b205cd	885992765	1	practice_z	9	practice_z	5	stimuli_distractor_trianglediamonds.svg	stimuli_distractor_diamondtriangles.svg	16	no	0	1	2000
6.6.1	win	2022-12-14	14:44:32	14:51:34	417523	63235c5bf70d8e4f79b205cd	885992765	1	practice_z	9	advance_on_keypress_ZEE	6	stimuli_distractor_trianglediamonds.svg	stimuli_distractor_diamondtriangles.svg	16	no	57	0	369
6.6.1	win	2022-12-14	14:44:32	14:51:36	420139	63235c5bf70d8e4f79b205cd	885992765	1	practice_z	9	practice_z	7	stimuli_distractor_diamondtriangles.svg	stimuli_target_circletriangles.svg	7	yes	44	1	581
6.6.1	win	2022-12-14	14:44:32	14:51:36	420139	63235c5bf70d8e4f79b205cd	885992765	1	practice_z	9	advance_on_keypress_ZEE	8	stimuli_distractor_diamondtriangles.svg	stimuli_target_circletriangles.svg	7	yes	57	0	322
6.6.1	win	2022-12-14	14:44:32	14:51:39	422698	63235c5bf70d8e4f79b205cd	885992765	1	practice_z	9	practice_z	9	stimuli_target_circlediamonds.svg	stimuli_distractor_trianglediamonds.svg	4	yes	44	1	559
6.6.1	win	2022-12-14	14:44:32	14:51:39	422698	63235c5bf70d8e4f79b205cd	885992765	1	practice_z	9	advance_on_keypress_ZEE	10	stimuli_target_circlediamonds.svg	stimuli_distractor_trianglediamonds.svg	4	yes	57	0	336
6.6.1	win	2022-12-14	14:44:32	14:51:41	425199	63235c5bf70d8e4f79b205cd	885992765	1	practice_z	9	practice_z	11	stimuli_distractor_diamondtriangles.svg	stimuli_target_diamondcircles.svg	8	yes	44	1	493
6.6.1	win	2022-12-14	14:44:32	14:51:41	425199	63235c5bf70d8e4f79b205cd	885992765	1	practice_z	9	advance_on_keypress_ZEE	12	stimuli_distractor_diamondtriangles.svg	stimuli_target_diamondcircles.svg	8	yes	57	0	416
6.6.1	win	2022-12-14	14:44:32	14:51:44	427830	63235c5bf70d8e4f79b205cd	885992765	1	practice_z	9	practice_z	13	stimuli_target_squarediamonds.svg	stimuli_distractor_trianglediamonds.svg	5	yes	44	1	541
6.6.1	win	2022-12-14	14:44:32	14:51:44	427830	63235c5bf70d8e4f79b205cd	885992765	1	practice_z	9	advance_on_keypress_ZEE	14	stimuli_target_squarediamonds.svg	stimuli_distractor_trianglediamonds.svg	5	yes	57	0	313
6.6.1	win	2022-12-14	14:44:32	14:51:48	431426	63235c5bf70d8e4f79b205cd	885992765	1	practice_z	9	practice_z	15	stimuli_target_circlediamonds.svg	stimuli_distractor_diamondtriangles.svg	1	yes	44	1	398
6.6.1	win	2022-12-14	14:44:32	14:51:48	431426	63235c5bf70d8e4f79b205cd	885992765	1	practice_z	9	advance_on_keypress_ZEE	16	stimuli_target_circlediamonds.svg	stimuli_distractor_diamondtriangles.svg	1	yes	57	0	480
6.6.1	win	2022-12-14	14:44:32	14:51:52	435587	63235c5bf70d8e4f79b205cd	885992765	1	practice_z	9	practice_z	17	stimuli_distractor_trianglediamonds.svg	stimuli_distractor_trianglediamonds.svg	15	no	0	1	2000
6.6.1	win	2022-12-14	14:44:32	14:51:52	435587	63235c5bf70d8e4f79b205cd	885992765	1	practice_z	9	advance_on_keypress_ZEE	18	stimuli_distractor_trianglediamonds.svg	stimuli_distractor_trianglediamonds.svg	15	no	57	0	294
6.6.1	win	2022-12-14	14:44:32	14:51:54	438168	63235c5bf70d8e4f79b205cd	885992765	1	practice_z	9	practice_z	19	stimuli_distractor_trianglediamonds.svg	stimuli_target_circlediamonds.svg	10	yes	44	1	614
6.6.1	win	2022-12-14	14:44:32	14:51:54	438168	63235c5bf70d8e4f79b205cd	885992765	1	practice_z	9	advance_on_keypress_ZEE	20	stimuli_distractor_trianglediamonds.svg	stimuli_target_circlediamonds.svg	10	yes	57	0	371
6.6.1	win	2022-12-14	14:44:32	14:51:58	442203	63235c5bf70d8e4f79b205cd	885992765	1	practice_z	9	practice_z	21	stimuli_target_diamondsquares.svg	stimuli_distractor_trianglediamonds.svg	6	yes	0	0	2000
6.6.1	win	2022-12-14	14:44:32	14:51:58	442203	63235c5bf70d8e4f79b205cd	885992765	1	practice_z	9	advance_on_keypress_ZEE	22	stimuli_target_diamondsquares.svg	stimuli_distractor_trianglediamonds.svg	6	yes	57	0	468
6.6.1	win	2022-12-14	14:44:32	14:52:02	446336	63235c5bf70d8e4f79b205cd	885992765	1	practice_z	9	practice_z	23	stimuli_target_diamondsquares.svg	stimuli_distractor_diamondtriangles.svg	3	yes	0	0	2000
6.6.1	win	2022-12-14	14:44:32	14:52:02	446336	63235c5bf70d8e4f79b205cd	885992765	1	practice_z	9	advance_on_keypress_ZEE	24	stimuli_target_diamondsquares.svg	stimuli_distractor_diamondtriangles.svg	3	yes	57	0	686
6.6.1	win	2022-12-14	14:44:32	14:52:06	449368	63235c5bf70d8e4f79b205cd	885992765	1	practice_z	9	practice_z	25	stimuli_distractor_trianglediamonds.svg	stimuli_target_squarediamonds.svg	11	yes	44	1	683
6.6.1	win	2022-12-14	14:44:32	14:52:06	449368	63235c5bf70d8e4f79b205cd	885992765	1	practice_z	9	advance_on_keypress_ZEE	26	stimuli_distractor_trianglediamonds.svg	stimuli_target_squarediamonds.svg	11	yes	57	0	383
6.6.1	win	2022-12-14	14:44:32	14:52:10	453419	63235c5bf70d8e4f79b205cd	885992765	1	practice_z	9	practice_z	27	stimuli_distractor_diamondtriangles.svg	stimuli_distractor_diamondtriangles.svg	13	no	0	1	2000
6.6.1	win	2022-12-14	14:44:32	14:52:10	453419	63235c5bf70d8e4f79b205cd	885992765	1	practice_z	9	advance_on_keypress_ZEE	28	stimuli_distractor_diamondtriangles.svg	stimuli_distractor_diamondtriangles.svg	13	no	57	0	493
6.6.1	win	2022-12-14	14:44:32	14:52:12	456197	63235c5bf70d8e4f79b205cd	885992765	1	practice_z	9	practice_z	29	stimuli_target_squarediamonds.svg	stimuli_distractor_diamondtriangles.svg	2	yes	44	1	613
6.6.1	win	2022-12-14	14:44:32	14:52:12	456197	63235c5bf70d8e4f79b205cd	885992765	1	practice_z	9	advance_on_keypress_ZEE	30	stimuli_target_squarediamonds.svg	stimuli_distractor_diamondtriangles.svg	2	yes	57	0	349
6.6.1	win	2022-12-14	14:44:32	14:52:16	460217	63235c5bf70d8e4f79b205cd	885992765	1	practice_z	9	practice_z	31	stimuli_distractor_diamondtriangles.svg	stimuli_distractor_trianglediamonds.svg	14	no	0	1	2000
6.6.1	win	2022-12-14	14:44:32	14:52:16	460217	63235c5bf70d8e4f79b205cd	885992765	1	practice_z	9	advance_on_keypress_ZEE	32	stimuli_distractor_diamondtriangles.svg	stimuli_distractor_trianglediamonds.svg	14	no	57	0	544
6.6.1	win	2022-12-14	14:44:32	14:52:34	478132	63235c5bf70d8e4f79b205cd	885992765	1	main_z	11	main_z	1	stimuli_distractor_trianglediamonds.svg	stimuli_target_circletriangles.svg	9	yes	44	1	423
6.6.1	win	2022-12-14	14:44:32	14:52:34	478132	63235c5bf70d8e4f79b205cd	885992765	1	main_z	11	advance_on_keypress_ZEE	2	stimuli_distractor_trianglediamonds.svg	stimuli_target_circletriangles.svg	9	yes	57	0	623
6.6.1	win	2022-12-14	14:44:32	14:52:36	479873	63235c5bf70d8e4f79b205cd	885992765	1	main_z	11	main_z	3	stimuli_target_squaretriangles.svg	stimuli_distractor_diamondtriangles.svg	7	yes	44	1	463
6.6.1	win	2022-12-14	14:44:32	14:52:36	479873	63235c5bf70d8e4f79b205cd	885992765	1	main_z	11	advance_on_keypress_ZEE	4	stimuli_target_squaretriangles.svg	stimuli_distractor_diamondtriangles.svg	7	yes	57	0	450
6.6.1	win	2022-12-14	14:44:32	14:52:39	482976	63235c5bf70d8e4f79b205cd	885992765	1	main_z	11	main_z	5	stimuli_distractor_diamondtriangles.svg	stimuli_distractor_trianglediamonds.svg	38	no	0	1	2000
6.6.1	win	2022-12-14	14:44:32	14:52:39	482976	63235c5bf70d8e4f79b205cd	885992765	1	main_z	11	advance_on_keypress_ZEE	6	stimuli_distractor_diamondtriangles.svg	stimuli_distractor_trianglediamonds.svg	38	no	57	0	380
6.6.1	win	2022-12-14	14:44:32	14:52:41	484684	63235c5bf70d8e4f79b205cd	885992765	1	main_z	11	main_z	7	stimuli_distractor_trianglediamonds.svg	stimuli_target_diamondsquares.svg	28	yes	44	1	676
6.6.1	win	2022-12-14	14:44:32	14:52:41	484684	63235c5bf70d8e4f79b205cd	885992765	1	main_z	11	advance_on_keypress_ZEE	8	stimuli_distractor_trianglediamonds.svg	stimuli_target_diamondsquares.svg	28	yes	57	0	623
6.6.1	win	2022-12-14	14:44:32	14:52:44	487959	63235c5bf70d8e4f79b205cd	885992765	1	main_z	11	main_z	9	stimuli_distractor_trianglediamonds.svg	stimuli_distractor_trianglediamonds.svg	33	no	0	1	2000
6.6.1	win	2022-12-14	14:44:32	14:52:44	487959	63235c5bf70d8e4f79b205cd	885992765	1	main_z	11	advance_on_keypress_ZEE	10	stimuli_distractor_trianglediamonds.svg	stimuli_distractor_trianglediamonds.svg	33	no	57	0	397
6.6.1	win	2022-12-14	14:44:32	14:52:46	489563	63235c5bf70d8e4f79b205cd	885992765	1	main_z	11	main_z	11	stimuli_distractor_trianglediamonds.svg	stimuli_target_squaretriangles.svg	11	yes	44	1	554
6.6.1	win	2022-12-14	14:44:32	14:52:46	489563	63235c5bf70d8e4f79b205cd	885992765	1	main_z	11	advance_on_keypress_ZEE	12	stimuli_distractor_trianglediamonds.svg	stimuli_target_squaretriangles.svg	11	yes	57	0	428
6.6.1	win	2022-12-14	14:44:32	14:52:47	491122	63235c5bf70d8e4f79b205cd	885992765	1	main_z	11	main_z	13	stimuli_target_squarediamonds.svg	stimuli_distractor_diamondtriangles.svg	8	yes	44	1	481
6.6.1	win	2022-12-14	14:44:32	14:52:47	491122	63235c5bf70d8e4f79b205cd	885992765	1	main_z	11	advance_on_keypress_ZEE	14	stimuli_target_squarediamonds.svg	stimuli_distractor_diamondtriangles.svg	8	yes	57	0	631
6.6.1	win	2022-12-14	14:44:32	14:52:49	492872	63235c5bf70d8e4f79b205cd	885992765	1	main_z	11	main_z	15	stimuli_distractor_trianglediamonds.svg	stimuli_target_circlediamonds.svg	10	yes	44	1	464
6.6.1	win	2022-12-14	14:44:32	14:52:49	492872	63235c5bf70d8e4f79b205cd	885992765	1	main_z	11	advance_on_keypress_ZEE	16	stimuli_distractor_trianglediamonds.svg	stimuli_target_circlediamonds.svg	10	yes	57	0	481
6.6.1	win	2022-12-14	14:44:32	14:52:51	494395	63235c5bf70d8e4f79b205cd	885992765	1	main_z	11	main_z	17	stimuli_target_squarediamonds.svg	stimuli_distractor_trianglediamonds.svg	4	yes	44	1	384
6.6.1	win	2022-12-14	14:44:32	14:52:51	494395	63235c5bf70d8e4f79b205cd	885992765	1	main_z	11	advance_on_keypress_ZEE	18	stimuli_target_squarediamonds.svg	stimuli_distractor_trianglediamonds.svg	4	yes	57	0	374
6.6.1	win	2022-12-14	14:44:32	14:52:54	497407	63235c5bf70d8e4f79b205cd	885992765	1	main_z	11	main_z	19	stimuli_distractor_trianglediamonds.svg	stimuli_distractor_diamondtriangles.svg	35	no	0	1	2000
6.6.1	win	2022-12-14	14:44:32	14:52:54	497407	63235c5bf70d8e4f79b205cd	885992765	1	main_z	11	advance_on_keypress_ZEE	20	stimuli_distractor_trianglediamonds.svg	stimuli_distractor_diamondtriangles.svg	35	no	57	0	278
6.6.1	win	2022-12-14	14:44:32	14:52:55	498741	63235c5bf70d8e4f79b205cd	885992765	1	main_z	11	main_z	21	stimuli_target_circletriangles.svg	stimuli_distractor_diamondtriangles.svg	5	yes	44	1	401
6.6.1	win	2022-12-14	14:44:32	14:52:55	498741	63235c5bf70d8e4f79b205cd	885992765	1	main_z	11	advance_on_keypress_ZEE	22	stimuli_target_circletriangles.svg	stimuli_distractor_diamondtriangles.svg	5	yes	57	0	348
6.6.1	win	2022-12-14	14:44:32	14:52:57	500541	63235c5bf70d8e4f79b205cd	885992765	1	main_z	11	main_z	23	stimuli_target_trianglecircles.svg	stimuli_distractor_trianglediamonds.svg	17	yes	44	1	785
6.6.1	win	2022-12-14	14:44:32	14:52:57	500541	63235c5bf70d8e4f79b205cd	885992765	1	main_z	11	advance_on_keypress_ZEE	24	stimuli_target_trianglecircles.svg	stimuli_distractor_trianglediamonds.svg	17	yes	57	0	486
6.6.1	win	2022-12-14	14:44:32	14:52:58	502182	63235c5bf70d8e4f79b205cd	885992765	1	main_z	11	main_z	25	stimuli_distractor_diamondtriangles.svg	stimuli_target_circletriangles.svg	13	yes	44	1	492
6.6.1	win	2022-12-14	14:44:32	14:52:58	502182	63235c5bf70d8e4f79b205cd	885992765	1	main_z	11	advance_on_keypress_ZEE	26	stimuli_distractor_diamondtriangles.svg	stimuli_target_circletriangles.svg	13	yes	57	0	305
6.6.1	win	2022-12-14	14:44:32	14:53:00	503633	63235c5bf70d8e4f79b205cd	885992765	1	main_z	11	main_z	27	stimuli_distractor_diamondtriangles.svg	stimuli_target_squaretriangles.svg	15	yes	44	1	490
6.6.1	win	2022-12-14	14:44:32	14:53:00	503633	63235c5bf70d8e4f79b205cd	885992765	1	main_z	11	advance_on_keypress_ZEE	28	stimuli_distractor_diamondtriangles.svg	stimuli_target_squaretriangles.svg	15	yes	57	0	316
6.6.1	win	2022-12-14	14:44:32	14:53:02	506272	63235c5bf70d8e4f79b205cd	885992765	1	main_z	11	main_z	29	stimuli_target_trianglecircles.svg	stimuli_distractor_diamondtriangles.svg	21	yes	44	1	1653
6.6.1	win	2022-12-14	14:44:32	14:53:02	506272	63235c5bf70d8e4f79b205cd	885992765	1	main_z	11	advance_on_keypress_ZEE	30	stimuli_target_trianglecircles.svg	stimuli_distractor_diamondtriangles.svg	21	yes	57	0	1099
6.6.1	win	2022-12-14	14:44:32	14:53:05	509093	63235c5bf70d8e4f79b205cd	885992765	1	main_z	11	main_z	31	stimuli_distractor_diamondtriangles.svg	stimuli_target_circlediamonds.svg	14	yes	44	1	1049
6.6.1	win	2022-12-14	14:44:32	14:53:05	509093	63235c5bf70d8e4f79b205cd	885992765	1	main_z	11	advance_on_keypress_ZEE	32	stimuli_distractor_diamondtriangles.svg	stimuli_target_circlediamonds.svg	14	yes	57	0	1011
6.6.1	win	2022-12-14	14:44:32	14:53:08	511569	63235c5bf70d8e4f79b205cd	885992765	1	main_z	11	main_z	33	stimuli_target_diamondcircles.svg	stimuli_distractor_diamondtriangles.svg	23	yes	44	1	810
6.6.1	win	2022-12-14	14:44:32	14:53:08	511569	63235c5bf70d8e4f79b205cd	885992765	1	main_z	11	advance_on_keypress_ZEE	34	stimuli_target_diamondcircles.svg	stimuli_distractor_diamondtriangles.svg	23	yes	57	0	444
6.6.1	win	2022-12-14	14:44:32	14:53:10	513402	63235c5bf70d8e4f79b205cd	885992765	1	main_z	11	main_z	35	stimuli_distractor_trianglediamonds.svg	stimuli_target_trianglesquares.svg	26	yes	44	1	730
6.6.1	win	2022-12-14	14:44:32	14:53:10	513402	63235c5bf70d8e4f79b205cd	885992765	1	main_z	11	advance_on_keypress_ZEE	36	stimuli_distractor_trianglediamonds.svg	stimuli_target_trianglesquares.svg	26	yes	57	0	420
6.6.1	win	2022-12-14	14:44:32	14:53:13	516471	63235c5bf70d8e4f79b205cd	885992765	1	main_z	11	main_z	37	stimuli_target_diamondsquares.svg	stimuli_distractor_trianglediamonds.svg	20	yes	0	0	2000
6.6.1	win	2022-12-14	14:44:32	14:53:13	516471	63235c5bf70d8e4f79b205cd	885992765	1	main_z	11	advance_on_keypress_ZEE	38	stimuli_target_diamondsquares.svg	stimuli_distractor_trianglediamonds.svg	20	yes	57	0	892
6.6.1	win	2022-12-14	14:44:32	14:53:16	520021	63235c5bf70d8e4f79b205cd	885992765	1	main_z	11	main_z	39	stimuli_distractor_diamondtriangles.svg	stimuli_distractor_diamondtriangles.svg	40	no	0	1	2000
6.6.1	win	2022-12-14	14:44:32	14:53:16	520021	63235c5bf70d8e4f79b205cd	885992765	1	main_z	11	advance_on_keypress_ZEE	40	stimuli_distractor_diamondtriangles.svg	stimuli_distractor_diamondtriangles.svg	40	no	57	0	285
6.6.1	win	2022-12-14	14:44:32	14:53:19	522954	63235c5bf70d8e4f79b205cd	885992765	1	main_z	11	main_z	41	stimuli_distractor_diamondtriangles.svg	stimuli_distractor_trianglediamonds.svg	37	no	0	1	2000
6.6.1	win	2022-12-14	14:44:32	14:53:19	522954	63235c5bf70d8e4f79b205cd	885992765	1	main_z	11	advance_on_keypress_ZEE	42	stimuli_distractor_diamondtriangles.svg	stimuli_distractor_trianglediamonds.svg	37	no	57	0	329
6.6.1	win	2022-12-14	14:44:32	14:53:21	524512	63235c5bf70d8e4f79b205cd	885992765	1	main_z	11	main_z	43	stimuli_target_trianglesquares.svg	stimuli_distractor_diamondtriangles.svg	22	yes	44	1	575
6.6.1	win	2022-12-14	14:44:32	14:53:21	524512	63235c5bf70d8e4f79b205cd	885992765	1	main_z	11	advance_on_keypress_ZEE	44	stimuli_target_trianglesquares.svg	stimuli_distractor_diamondtriangles.svg	22	yes	57	0	555
6.6.1	win	2022-12-14	14:44:32	14:53:23	526571	63235c5bf70d8e4f79b205cd	885992765	1	main_z	11	main_z	45	stimuli_distractor_diamondtriangles.svg	stimuli_target_squarediamonds.svg	16	yes	44	1	852
6.6.1	win	2022-12-14	14:44:32	14:53:23	526571	63235c5bf70d8e4f79b205cd	885992765	1	main_z	11	advance_on_keypress_ZEE	46	stimuli_distractor_diamondtriangles.svg	stimuli_target_squarediamonds.svg	16	yes	57	0	474
6.6.1	win	2022-12-14	14:44:32	14:53:24	528162	63235c5bf70d8e4f79b205cd	885992765	1	main_z	11	main_z	47	stimuli_target_circlediamonds.svg	stimuli_distractor_trianglediamonds.svg	2	yes	44	1	459
6.6.1	win	2022-12-14	14:44:32	14:53:24	528162	63235c5bf70d8e4f79b205cd	885992765	1	main_z	11	advance_on_keypress_ZEE	48	stimuli_target_circlediamonds.svg	stimuli_distractor_trianglediamonds.svg	2	yes	57	0	406
6.6.1	win	2022-12-14	14:44:32	14:53:26	529701	63235c5bf70d8e4f79b205cd	885992765	1	main_z	11	main_z	49	stimuli_distractor_trianglediamonds.svg	stimuli_target_trianglecircles.svg	25	yes	44	1	466
6.6.1	win	2022-12-14	14:44:32	14:53:26	529701	63235c5bf70d8e4f79b205cd	885992765	1	main_z	11	advance_on_keypress_ZEE	50	stimuli_distractor_trianglediamonds.svg	stimuli_target_trianglecircles.svg	25	yes	57	0	412
6.6.1	win	2022-12-14	14:44:32	14:53:29	532769	63235c5bf70d8e4f79b205cd	885992765	1	main_z	11	main_z	51	stimuli_distractor_trianglediamonds.svg	stimuli_distractor_trianglediamonds.svg	34	no	0	1	2000
6.6.1	win	2022-12-14	14:44:32	14:53:29	532769	63235c5bf70d8e4f79b205cd	885992765	1	main_z	11	advance_on_keypress_ZEE	52	stimuli_distractor_trianglediamonds.svg	stimuli_distractor_trianglediamonds.svg	34	no	57	0	376
6.6.1	win	2022-12-14	14:44:32	14:53:32	535803	63235c5bf70d8e4f79b205cd	885992765	1	main_z	11	main_z	53	stimuli_distractor_trianglediamonds.svg	stimuli_distractor_diamondtriangles.svg	36	no	0	1	2000
6.6.1	win	2022-12-14	14:44:32	14:53:32	535803	63235c5bf70d8e4f79b205cd	885992765	1	main_z	11	advance_on_keypress_ZEE	54	stimuli_distractor_trianglediamonds.svg	stimuli_distractor_diamondtriangles.svg	36	no	57	0	363
6.6.1	win	2022-12-14	14:44:32	14:53:33	537349	63235c5bf70d8e4f79b205cd	885992765	1	main_z	11	main_z	55	stimuli_target_diamondcircles.svg	stimuli_distractor_trianglediamonds.svg	19	yes	44	1	508
6.6.1	win	2022-12-14	14:44:32	14:53:33	537349	63235c5bf70d8e4f79b205cd	885992765	1	main_z	11	advance_on_keypress_ZEE	56	stimuli_target_diamondcircles.svg	stimuli_distractor_trianglediamonds.svg	19	yes	57	0	364
6.6.1	win	2022-12-14	14:44:32	14:53:35	538906	63235c5bf70d8e4f79b205cd	885992765	1	main_z	11	main_z	57	stimuli_distractor_diamondtriangles.svg	stimuli_target_trianglecircles.svg	29	yes	44	1	534
6.6.1	win	2022-12-14	14:44:32	14:53:35	538906	63235c5bf70d8e4f79b205cd	885992765	1	main_z	11	advance_on_keypress_ZEE	58	stimuli_distractor_diamondtriangles.svg	stimuli_target_trianglecircles.svg	29	yes	57	0	424
6.6.1	win	2022-12-14	14:44:32	14:53:37	540506	63235c5bf70d8e4f79b205cd	885992765	1	main_z	11	main_z	59	stimuli_target_squaretriangles.svg	stimuli_distractor_trianglediamonds.svg	3	yes	44	1	534
6.6.1	win	2022-12-14	14:44:32	14:53:37	540506	63235c5bf70d8e4f79b205cd	885992765	1	main_z	11	advance_on_keypress_ZEE	60	stimuli_target_squaretriangles.svg	stimuli_distractor_trianglediamonds.svg	3	yes	57	0	313
6.6.1	win	2022-12-14	14:44:32	14:53:38	541872	63235c5bf70d8e4f79b205cd	885992765	1	main_z	11	main_z	61	stimuli_distractor_diamondtriangles.svg	stimuli_target_trianglesquares.svg	30	yes	44	1	404
6.6.1	win	2022-12-14	14:44:32	14:53:38	541872	63235c5bf70d8e4f79b205cd	885992765	1	main_z	11	advance_on_keypress_ZEE	62	stimuli_distractor_diamondtriangles.svg	stimuli_target_trianglesquares.svg	30	yes	57	0	476
6.6.1	win	2022-12-14	14:44:32	14:53:41	545001	63235c5bf70d8e4f79b205cd	885992765	1	main_z	11	main_z	63	stimuli_distractor_diamondtriangles.svg	stimuli_distractor_diamondtriangles.svg	39	no	0	1	2000
6.6.1	win	2022-12-14	14:44:32	14:53:41	545001	63235c5bf70d8e4f79b205cd	885992765	1	main_z	11	advance_on_keypress_ZEE	64	stimuli_distractor_diamondtriangles.svg	stimuli_distractor_diamondtriangles.svg	39	no	57	0	307
6.6.1	win	2022-12-14	14:44:32	14:53:43	546452	63235c5bf70d8e4f79b205cd	885992765	1	main_z	11	main_z	65	stimuli_target_trianglesquares.svg	stimuli_distractor_trianglediamonds.svg	18	yes	44	1	485
6.6.1	win	2022-12-14	14:44:32	14:53:43	546452	63235c5bf70d8e4f79b205cd	885992765	1	main_z	11	advance_on_keypress_ZEE	66	stimuli_target_trianglesquares.svg	stimuli_distractor_trianglediamonds.svg	18	yes	57	0	505
6.6.1	win	2022-12-14	14:44:32	14:53:44	548232	63235c5bf70d8e4f79b205cd	885992765	1	main_z	11	main_z	67	stimuli_distractor_diamondtriangles.svg	stimuli_target_diamondsquares.svg	32	yes	44	1	631
6.6.1	win	2022-12-14	14:44:32	14:53:44	548232	63235c5bf70d8e4f79b205cd	885992765	1	main_z	11	advance_on_keypress_ZEE	68	stimuli_distractor_diamondtriangles.svg	stimuli_target_diamondsquares.svg	32	yes	57	0	482
6.6.1	win	2022-12-14	14:44:32	14:53:48	551367	63235c5bf70d8e4f79b205cd	885992765	1	main_z	11	main_z	69	stimuli_distractor_trianglediamonds.svg	stimuli_target_squarediamonds.svg	12	yes	0	0	2000
6.6.1	win	2022-12-14	14:44:32	14:53:48	551367	63235c5bf70d8e4f79b205cd	885992765	1	main_z	11	advance_on_keypress_ZEE	70	stimuli_distractor_trianglediamonds.svg	stimuli_target_squarediamonds.svg	12	yes	57	0	323
6.6.1	win	2022-12-14	14:44:32	14:53:49	552742	63235c5bf70d8e4f79b205cd	885992765	1	main_z	11	main_z	71	stimuli_distractor_trianglediamonds.svg	stimuli_target_diamondcircles.svg	27	yes	44	1	409
6.6.1	win	2022-12-14	14:44:32	14:53:49	552742	63235c5bf70d8e4f79b205cd	885992765	1	main_z	11	advance_on_keypress_ZEE	72	stimuli_distractor_trianglediamonds.svg	stimuli_target_diamondcircles.svg	27	yes	57	0	675
6.6.1	win	2022-12-14	14:44:32	14:53:51	554612	63235c5bf70d8e4f79b205cd	885992765	1	main_z	11	main_z	73	stimuli_target_diamondsquares.svg	stimuli_distractor_diamondtriangles.svg	24	yes	44	1	529
6.6.1	win	2022-12-14	14:44:32	14:53:51	554612	63235c5bf70d8e4f79b205cd	885992765	1	main_z	11	advance_on_keypress_ZEE	74	stimuli_target_diamondsquares.svg	stimuli_distractor_diamondtriangles.svg	24	yes	57	0	649
6.6.1	win	2022-12-14	14:44:32	14:53:53	556481	63235c5bf70d8e4f79b205cd	885992765	1	main_z	11	main_z	75	stimuli_target_circlediamonds.svg	stimuli_distractor_diamondtriangles.svg	6	yes	44	1	566
6.6.1	win	2022-12-14	14:44:32	14:53:53	556481	63235c5bf70d8e4f79b205cd	885992765	1	main_z	11	advance_on_keypress_ZEE	76	stimuli_target_circlediamonds.svg	stimuli_distractor_diamondtriangles.svg	6	yes	57	0	422
6.6.1	win	2022-12-14	14:44:32	14:53:54	557961	63235c5bf70d8e4f79b205cd	885992765	1	main_z	11	main_z	77	stimuli_distractor_diamondtriangles.svg	stimuli_target_diamondcircles.svg	31	yes	44	1	413
6.6.1	win	2022-12-14	14:44:32	14:53:54	557961	63235c5bf70d8e4f79b205cd	885992765	1	main_z	11	advance_on_keypress_ZEE	78	stimuli_distractor_diamondtriangles.svg	stimuli_target_diamondcircles.svg	31	yes	57	0	349
6.6.1	win	2022-12-14	14:44:32	14:53:56	559495	63235c5bf70d8e4f79b205cd	885992765	1	main_z	11	main_z	79	stimuli_target_circletriangles.svg	stimuli_distractor_trianglediamonds.svg	1	yes	44	1	517
6.6.1	win	2022-12-14	14:44:32	14:53:56	559495	63235c5bf70d8e4f79b205cd	885992765	1	main_z	11	advance_on_keypress_ZEE	80	stimuli_target_circletriangles.svg	stimuli_distractor_trianglediamonds.svg	1	yes	57	0	436
6.6.1	win	2022-12-14	14:44:32	14:53:57	561121	63235c5bf70d8e4f79b205cd	885992765	1	main_z	11	main_z	81	stimuli_distractor_trianglediamonds.svg	stimuli_target_circletriangles.svg	9	yes	44	1	540
6.6.1	win	2022-12-14	14:44:32	14:53:57	561121	63235c5bf70d8e4f79b205cd	885992765	1	main_z	11	advance_on_keypress_ZEE	82	stimuli_distractor_trianglediamonds.svg	stimuli_target_circletriangles.svg	9	yes	57	0	360
6.6.1	win	2022-12-14	14:44:32	14:53:59	562621	63235c5bf70d8e4f79b205cd	885992765	1	main_z	11	main_z	83	stimuli_distractor_diamondtriangles.svg	stimuli_target_trianglecircles.svg	29	yes	44	1	490
6.6.1	win	2022-12-14	14:44:32	14:53:59	562621	63235c5bf70d8e4f79b205cd	885992765	1	main_z	11	advance_on_keypress_ZEE	84	stimuli_distractor_diamondtriangles.svg	stimuli_target_trianglecircles.svg	29	yes	57	0	320
6.6.1	win	2022-12-14	14:44:32	14:54:00	564178	63235c5bf70d8e4f79b205cd	885992765	1	main_z	11	main_z	85	stimuli_target_circlediamonds.svg	stimuli_distractor_trianglediamonds.svg	2	yes	44	1	512
6.6.1	win	2022-12-14	14:44:32	14:54:00	564178	63235c5bf70d8e4f79b205cd	885992765	1	main_z	11	advance_on_keypress_ZEE	86	stimuli_target_circlediamonds.svg	stimuli_distractor_trianglediamonds.svg	2	yes	57	0	347
6.6.1	win	2022-12-14	14:44:32	14:54:03	567198	63235c5bf70d8e4f79b205cd	885992765	1	main_z	11	main_z	87	stimuli_distractor_diamondtriangles.svg	stimuli_distractor_diamondtriangles.svg	40	no	0	1	2000
6.6.1	win	2022-12-14	14:44:32	14:54:03	567198	63235c5bf70d8e4f79b205cd	885992765	1	main_z	11	advance_on_keypress_ZEE	88	stimuli_distractor_diamondtriangles.svg	stimuli_distractor_diamondtriangles.svg	40	no	57	0	278
6.6.1	win	2022-12-14	14:44:32	14:54:05	568531	63235c5bf70d8e4f79b205cd	885992765	1	main_z	11	main_z	89	stimuli_target_circletriangles.svg	stimuli_distractor_trianglediamonds.svg	1	yes	44	1	401
6.6.1	win	2022-12-14	14:44:32	14:54:05	568531	63235c5bf70d8e4f79b205cd	885992765	1	main_z	11	advance_on_keypress_ZEE	90	stimuli_target_circletriangles.svg	stimuli_distractor_trianglediamonds.svg	1	yes	57	0	354
6.6.1	win	2022-12-14	14:44:32	14:54:06	569961	63235c5bf70d8e4f79b205cd	885992765	1	main_z	11	main_z	91	stimuli_target_squarediamonds.svg	stimuli_distractor_diamondtriangles.svg	8	yes	44	1	431
6.6.1	win	2022-12-14	14:44:32	14:54:06	569961	63235c5bf70d8e4f79b205cd	885992765	1	main_z	11	advance_on_keypress_ZEE	92	stimuli_target_squarediamonds.svg	stimuli_distractor_diamondtriangles.svg	8	yes	57	0	320
6.6.1	win	2022-12-14	14:44:32	14:54:09	572930	63235c5bf70d8e4f79b205cd	885992765	1	main_z	11	main_z	93	stimuli_distractor_trianglediamonds.svg	stimuli_distractor_trianglediamonds.svg	34	no	0	1	2000
6.6.1	win	2022-12-14	14:44:32	14:54:09	572930	63235c5bf70d8e4f79b205cd	885992765	1	main_z	11	advance_on_keypress_ZEE	94	stimuli_distractor_trianglediamonds.svg	stimuli_distractor_trianglediamonds.svg	34	no	57	0	385
6.6.1	win	2022-12-14	14:44:32	14:54:12	575963	63235c5bf70d8e4f79b205cd	885992765	1	main_z	11	main_z	95	stimuli_distractor_diamondtriangles.svg	stimuli_distractor_diamondtriangles.svg	39	no	0	1	2000
6.6.1	win	2022-12-14	14:44:32	14:54:12	575963	63235c5bf70d8e4f79b205cd	885992765	1	main_z	11	advance_on_keypress_ZEE	96	stimuli_distractor_diamondtriangles.svg	stimuli_distractor_diamondtriangles.svg	39	no	57	0	362
6.6.1	win	2022-12-14	14:44:32	14:54:14	577772	63235c5bf70d8e4f79b205cd	885992765	1	main_z	11	main_z	97	stimuli_target_trianglesquares.svg	stimuli_distractor_diamondtriangles.svg	22	yes	44	1	792
6.6.1	win	2022-12-14	14:44:32	14:54:14	577772	63235c5bf70d8e4f79b205cd	885992765	1	main_z	11	advance_on_keypress_ZEE	98	stimuli_target_trianglesquares.svg	stimuli_distractor_diamondtriangles.svg	22	yes	57	0	427
6.6.1	win	2022-12-14	14:44:32	14:54:15	579273	63235c5bf70d8e4f79b205cd	885992765	1	main_z	11	main_z	99	stimuli_target_trianglecircles.svg	stimuli_distractor_diamondtriangles.svg	21	yes	44	1	409
6.6.1	win	2022-12-14	14:44:32	14:54:15	579273	63235c5bf70d8e4f79b205cd	885992765	1	main_z	11	advance_on_keypress_ZEE	100	stimuli_target_trianglecircles.svg	stimuli_distractor_diamondtriangles.svg	21	yes	57	0	284
6.6.1	win	2022-12-14	14:44:32	14:54:17	580671	63235c5bf70d8e4f79b205cd	885992765	1	main_z	11	main_z	101	stimuli_distractor_trianglediamonds.svg	stimuli_target_squarediamonds.svg	12	yes	44	1	458
6.6.1	win	2022-12-14	14:44:32	14:54:17	580671	63235c5bf70d8e4f79b205cd	885992765	1	main_z	11	advance_on_keypress_ZEE	102	stimuli_distractor_trianglediamonds.svg	stimuli_target_squarediamonds.svg	12	yes	57	0	406
6.6.1	win	2022-12-14	14:44:32	14:54:18	582162	63235c5bf70d8e4f79b205cd	885992765	1	main_z	11	main_z	103	stimuli_target_circlediamonds.svg	stimuli_distractor_diamondtriangles.svg	6	yes	44	1	416
6.6.1	win	2022-12-14	14:44:32	14:54:18	582162	63235c5bf70d8e4f79b205cd	885992765	1	main_z	11	advance_on_keypress_ZEE	104	stimuli_target_circlediamonds.svg	stimuli_distractor_diamondtriangles.svg	6	yes	57	0	313
6.6.1	win	2022-12-14	14:44:32	14:54:20	583542	63235c5bf70d8e4f79b205cd	885992765	1	main_z	11	main_z	105	stimuli_distractor_diamondtriangles.svg	stimuli_target_diamondcircles.svg	31	yes	44	1	413
6.6.1	win	2022-12-14	14:44:32	14:54:20	583542	63235c5bf70d8e4f79b205cd	885992765	1	main_z	11	advance_on_keypress_ZEE	106	stimuli_distractor_diamondtriangles.svg	stimuli_target_diamondcircles.svg	31	yes	57	0	369
6.6.1	win	2022-12-14	14:44:32	14:54:21	584952	63235c5bf70d8e4f79b205cd	885992765	1	main_z	11	main_z	107	stimuli_distractor_trianglediamonds.svg	stimuli_target_trianglecircles.svg	25	yes	44	1	390
6.6.1	win	2022-12-14	14:44:32	14:54:21	584952	63235c5bf70d8e4f79b205cd	885992765	1	main_z	11	advance_on_keypress_ZEE	108	stimuli_distractor_trianglediamonds.svg	stimuli_target_trianglecircles.svg	25	yes	57	0	290
6.6.1	win	2022-12-14	14:44:32	14:54:24	587879	63235c5bf70d8e4f79b205cd	885992765	1	main_z	11	main_z	109	stimuli_distractor_trianglediamonds.svg	stimuli_distractor_diamondtriangles.svg	36	no	0	1	2000
6.6.1	win	2022-12-14	14:44:32	14:54:24	587879	63235c5bf70d8e4f79b205cd	885992765	1	main_z	11	advance_on_keypress_ZEE	110	stimuli_distractor_trianglediamonds.svg	stimuli_distractor_diamondtriangles.svg	36	no	57	0	307
6.6.1	win	2022-12-14	14:44:32	14:54:25	589209	63235c5bf70d8e4f79b205cd	885992765	1	main_z	11	main_z	111	stimuli_distractor_diamondtriangles.svg	stimuli_target_circletriangles.svg	13	yes	44	1	374
6.6.1	win	2022-12-14	14:44:32	14:54:25	589209	63235c5bf70d8e4f79b205cd	885992765	1	main_z	11	advance_on_keypress_ZEE	112	stimuli_distractor_diamondtriangles.svg	stimuli_target_circletriangles.svg	13	yes	57	0	343
6.6.1	win	2022-12-14	14:44:32	14:54:27	590651	63235c5bf70d8e4f79b205cd	885992765	1	main_z	11	main_z	113	stimuli_target_trianglecircles.svg	stimuli_distractor_trianglediamonds.svg	17	yes	44	1	441
6.6.1	win	2022-12-14	14:44:32	14:54:27	590651	63235c5bf70d8e4f79b205cd	885992765	1	main_z	11	advance_on_keypress_ZEE	114	stimuli_target_trianglecircles.svg	stimuli_distractor_trianglediamonds.svg	17	yes	57	0	401
6.6.1	win	2022-12-14	14:44:32	14:54:28	592291	63235c5bf70d8e4f79b205cd	885992765	1	main_z	11	main_z	115	stimuli_target_trianglesquares.svg	stimuli_distractor_trianglediamonds.svg	18	yes	44	1	596
6.6.1	win	2022-12-14	14:44:32	14:54:28	592291	63235c5bf70d8e4f79b205cd	885992765	1	main_z	11	advance_on_keypress_ZEE	116	stimuli_target_trianglesquares.svg	stimuli_distractor_trianglediamonds.svg	18	yes	57	0	9121
6.6.1	win	2022-12-14	14:44:32	14:54:39	602432	63235c5bf70d8e4f79b205cd	885992765	1	main_z	11	main_z	117	stimuli_target_circletriangles.svg	stimuli_distractor_diamondtriangles.svg	5	yes	44	1	355
6.6.1	win	2022-12-14	14:44:32	14:54:39	602432	63235c5bf70d8e4f79b205cd	885992765	1	main_z	11	advance_on_keypress_ZEE	118	stimuli_target_circletriangles.svg	stimuli_distractor_diamondtriangles.svg	5	yes	57	0	359
6.6.1	win	2022-12-14	14:44:32	14:54:40	603872	63235c5bf70d8e4f79b205cd	885992765	1	main_z	11	main_z	119	stimuli_target_squaretriangles.svg	stimuli_distractor_trianglediamonds.svg	3	yes	44	1	429
6.6.1	win	2022-12-14	14:44:32	14:54:40	603872	63235c5bf70d8e4f79b205cd	885992765	1	main_z	11	advance_on_keypress_ZEE	120	stimuli_target_squaretriangles.svg	stimuli_distractor_trianglediamonds.svg	3	yes	57	0	509
6.6.1	win	2022-12-14	14:44:32	14:54:42	605491	63235c5bf70d8e4f79b205cd	885992765	1	main_z	11	main_z	121	stimuli_distractor_diamondtriangles.svg	stimuli_target_squaretriangles.svg	15	yes	44	1	448
6.6.1	win	2022-12-14	14:44:32	14:54:42	605491	63235c5bf70d8e4f79b205cd	885992765	1	main_z	11	advance_on_keypress_ZEE	122	stimuli_distractor_diamondtriangles.svg	stimuli_target_squaretriangles.svg	15	yes	57	0	313
6.6.1	win	2022-12-14	14:44:32	14:54:43	606911	63235c5bf70d8e4f79b205cd	885992765	1	main_z	11	main_z	123	stimuli_distractor_trianglediamonds.svg	stimuli_target_circlediamonds.svg	10	yes	44	1	451
6.6.1	win	2022-12-14	14:44:32	14:54:43	606911	63235c5bf70d8e4f79b205cd	885992765	1	main_z	11	advance_on_keypress_ZEE	124	stimuli_distractor_trianglediamonds.svg	stimuli_target_circlediamonds.svg	10	yes	57	0	305
6.6.1	win	2022-12-14	14:44:32	14:54:46	609862	63235c5bf70d8e4f79b205cd	885992765	1	main_z	11	main_z	125	stimuli_distractor_trianglediamonds.svg	stimuli_distractor_trianglediamonds.svg	33	no	0	1	2000
6.6.1	win	2022-12-14	14:44:32	14:54:46	609862	63235c5bf70d8e4f79b205cd	885992765	1	main_z	11	advance_on_keypress_ZEE	126	stimuli_distractor_trianglediamonds.svg	stimuli_distractor_trianglediamonds.svg	33	no	57	0	306
6.6.1	win	2022-12-14	14:44:32	14:54:47	611242	63235c5bf70d8e4f79b205cd	885992765	1	main_z	11	main_z	127	stimuli_target_squarediamonds.svg	stimuli_distractor_trianglediamonds.svg	4	yes	44	1	433
6.6.1	win	2022-12-14	14:44:32	14:54:47	611242	63235c5bf70d8e4f79b205cd	885992765	1	main_z	11	advance_on_keypress_ZEE	128	stimuli_target_squarediamonds.svg	stimuli_distractor_trianglediamonds.svg	4	yes	57	0	283
6.6.1	win	2022-12-14	14:44:32	14:54:50	614175	63235c5bf70d8e4f79b205cd	885992765	1	main_z	11	main_z	129	stimuli_distractor_diamondtriangles.svg	stimuli_distractor_trianglediamonds.svg	38	no	0	1	2000
6.6.1	win	2022-12-14	14:44:32	14:54:50	614175	63235c5bf70d8e4f79b205cd	885992765	1	main_z	11	advance_on_keypress_ZEE	130	stimuli_distractor_diamondtriangles.svg	stimuli_distractor_trianglediamonds.svg	38	no	57	0	99
6.6.1	win	2022-12-14	14:44:32	14:54:51	615320	63235c5bf70d8e4f79b205cd	885992765	1	main_z	11	main_z	131	stimuli_distractor_trianglediamonds.svg	stimuli_target_diamondcircles.svg	27	yes	44	1	395
6.6.1	win	2022-12-14	14:44:32	14:54:51	615320	63235c5bf70d8e4f79b205cd	885992765	1	main_z	11	advance_on_keypress_ZEE	132	stimuli_distractor_trianglediamonds.svg	stimuli_target_diamondcircles.svg	27	yes	57	0	439
6.6.1	win	2022-12-14	14:44:32	14:54:53	616840	63235c5bf70d8e4f79b205cd	885992765	1	main_z	11	main_z	133	stimuli_distractor_diamondtriangles.svg	stimuli_target_trianglesquares.svg	30	yes	44	1	433
6.6.1	win	2022-12-14	14:44:32	14:54:53	616840	63235c5bf70d8e4f79b205cd	885992765	1	main_z	11	advance_on_keypress_ZEE	134	stimuli_distractor_diamondtriangles.svg	stimuli_target_trianglesquares.svg	30	yes	57	0	282
6.6.1	win	2022-12-14	14:44:32	14:54:54	618172	63235c5bf70d8e4f79b205cd	885992765	1	main_z	11	main_z	135	stimuli_target_diamondcircles.svg	stimuli_distractor_trianglediamonds.svg	19	yes	44	1	397
6.6.1	win	2022-12-14	14:44:32	14:54:54	618172	63235c5bf70d8e4f79b205cd	885992765	1	main_z	11	advance_on_keypress_ZEE	136	stimuli_target_diamondcircles.svg	stimuli_distractor_trianglediamonds.svg	19	yes	57	0	290
6.6.1	win	2022-12-14	14:44:32	14:54:56	619470	63235c5bf70d8e4f79b205cd	885992765	1	main_z	11	main_z	137	stimuli_target_squaretriangles.svg	stimuli_distractor_diamondtriangles.svg	7	yes	44	1	363
6.6.1	win	2022-12-14	14:44:32	14:54:56	619470	63235c5bf70d8e4f79b205cd	885992765	1	main_z	11	advance_on_keypress_ZEE	138	stimuli_target_squaretriangles.svg	stimuli_distractor_diamondtriangles.svg	7	yes	57	0	370
6.6.1	win	2022-12-14	14:44:32	14:54:59	622491	63235c5bf70d8e4f79b205cd	885992765	1	main_z	11	main_z	139	stimuli_distractor_trianglediamonds.svg	stimuli_distractor_diamondtriangles.svg	35	no	0	1	2000
6.6.1	win	2022-12-14	14:44:32	14:54:59	622491	63235c5bf70d8e4f79b205cd	885992765	1	main_z	11	advance_on_keypress_ZEE	140	stimuli_distractor_trianglediamonds.svg	stimuli_distractor_diamondtriangles.svg	35	no	57	0	554
6.6.1	win	2022-12-14	14:44:32	14:55:01	624500	63235c5bf70d8e4f79b205cd	885992765	1	main_z	11	main_z	141	stimuli_distractor_trianglediamonds.svg	stimuli_target_trianglesquares.svg	26	yes	44	1	794
6.6.1	win	2022-12-14	14:44:32	14:55:01	624500	63235c5bf70d8e4f79b205cd	885992765	1	main_z	11	advance_on_keypress_ZEE	142	stimuli_distractor_trianglediamonds.svg	stimuli_target_trianglesquares.svg	26	yes	57	0	1517
6.6.1	win	2022-12-14	14:44:32	14:55:05	628673	63235c5bf70d8e4f79b205cd	885992765	1	main_z	11	main_z	143	stimuli_target_diamondsquares.svg	stimuli_distractor_diamondtriangles.svg	24	yes	0	0	2000
6.6.1	win	2022-12-14	14:44:32	14:55:05	628673	63235c5bf70d8e4f79b205cd	885992765	1	main_z	11	advance_on_keypress_ZEE	144	stimuli_target_diamondsquares.svg	stimuli_distractor_diamondtriangles.svg	24	yes	57	0	481
6.6.1	win	2022-12-14	14:44:32	14:55:06	630337	63235c5bf70d8e4f79b205cd	885992765	1	main_z	11	main_z	145	stimuli_distractor_diamondtriangles.svg	stimuli_target_squarediamonds.svg	16	yes	44	1	509
6.6.1	win	2022-12-14	14:44:32	14:55:06	630337	63235c5bf70d8e4f79b205cd	885992765	1	main_z	11	advance_on_keypress_ZEE	146	stimuli_distractor_diamondtriangles.svg	stimuli_target_squarediamonds.svg	16	yes	57	0	405
6.6.1	win	2022-12-14	14:44:32	14:55:08	632001	63235c5bf70d8e4f79b205cd	885992765	1	main_z	11	main_z	147	stimuli_target_diamondsquares.svg	stimuli_distractor_trianglediamonds.svg	20	yes	44	1	612
6.6.1	win	2022-12-14	14:44:32	14:55:08	632001	63235c5bf70d8e4f79b205cd	885992765	1	main_z	11	advance_on_keypress_ZEE	148	stimuli_target_diamondsquares.svg	stimuli_distractor_trianglediamonds.svg	20	yes	57	0	308
6.6.1	win	2022-12-14	14:44:32	14:55:10	633381	63235c5bf70d8e4f79b205cd	885992765	1	main_z	11	main_z	149	stimuli_distractor_trianglediamonds.svg	stimuli_target_squaretriangles.svg	11	yes	44	1	408
6.6.1	win	2022-12-14	14:44:32	14:55:10	633381	63235c5bf70d8e4f79b205cd	885992765	1	main_z	11	advance_on_keypress_ZEE	150	stimuli_distractor_trianglediamonds.svg	stimuli_target_squaretriangles.svg	11	yes	57	0	345
6.6.1	win	2022-12-14	14:44:32	14:55:11	634781	63235c5bf70d8e4f79b205cd	885992765	1	main_z	11	main_z	151	stimuli_distractor_diamondtriangles.svg	stimuli_target_diamondsquares.svg	32	yes	44	1	392
6.6.1	win	2022-12-14	14:44:32	14:55:11	634781	63235c5bf70d8e4f79b205cd	885992765	1	main_z	11	advance_on_keypress_ZEE	152	stimuli_distractor_diamondtriangles.svg	stimuli_target_diamondsquares.svg	32	yes	57	0	445
6.6.1	win	2022-12-14	14:44:32	14:55:14	637889	63235c5bf70d8e4f79b205cd	885992765	1	main_z	11	main_z	153	stimuli_distractor_diamondtriangles.svg	stimuli_distractor_trianglediamonds.svg	37	no	0	1	2000
6.6.1	win	2022-12-14	14:44:32	14:55:14	637889	63235c5bf70d8e4f79b205cd	885992765	1	main_z	11	advance_on_keypress_ZEE	154	stimuli_distractor_diamondtriangles.svg	stimuli_distractor_trianglediamonds.svg	37	no	57	0	366
6.6.1	win	2022-12-14	14:44:32	14:55:15	639310	63235c5bf70d8e4f79b205cd	885992765	1	main_z	11	main_z	155	stimuli_target_diamondcircles.svg	stimuli_distractor_diamondtriangles.svg	23	yes	44	1	405
6.6.1	win	2022-12-14	14:44:32	14:55:15	639310	63235c5bf70d8e4f79b205cd	885992765	1	main_z	11	advance_on_keypress_ZEE	156	stimuli_target_diamondcircles.svg	stimuli_distractor_diamondtriangles.svg	23	yes	57	0	409
6.6.1	win	2022-12-14	14:44:32	14:55:17	640790	63235c5bf70d8e4f79b205cd	885992765	1	main_z	11	main_z	157	stimuli_distractor_trianglediamonds.svg	stimuli_target_diamondsquares.svg	28	yes	44	1	419
6.6.1	win	2022-12-14	14:44:32	14:55:17	640790	63235c5bf70d8e4f79b205cd	885992765	1	main_z	11	advance_on_keypress_ZEE	158	stimuli_distractor_trianglediamonds.svg	stimuli_target_diamondsquares.svg	28	yes	57	0	306
6.6.1	win	2022-12-14	14:44:32	14:55:18	642320	63235c5bf70d8e4f79b205cd	885992765	1	main_z	11	main_z	159	stimuli_distractor_diamondtriangles.svg	stimuli_target_circlediamonds.svg	14	yes	44	1	582
6.6.1	win	2022-12-14	14:44:32	14:55:18	642320	63235c5bf70d8e4f79b205cd	885992765	1	main_z	11	advance_on_keypress_ZEE	160	stimuli_distractor_diamondtriangles.svg	stimuli_target_circlediamonds.svg	14	yes	57	0	503