build	computer.platform	date	time	timestamp	time_elapsed_ms	subject	group	session	blockcode	blocknum	trialcode	trialnum	stimulus_left	stimulus_right	stim_index	target_present	response	correct	latency
6.6.1	win	2022-12-14	14:52:54	14:56:52	237436	610024bfd6e1038ba3b1601d	82241873	1	practice_slash	5	practice_slash	1	stimuli_target_squarediamonds.svg	stimuli_distractor_diamondtriangles.svg	2	yes	0	0	2000
6.6.1	win	2022-12-14	14:52:54	14:56:52	237436	610024bfd6e1038ba3b1601d	82241873	1	practice_slash	5	advance_on_keypress_SLASH	2	stimuli_target_squarediamonds.svg	stimuli_distractor_diamondtriangles.svg	2	yes	57	0	1660
6.6.1	win	2022-12-14	14:52:54	14:56:57	242552	610024bfd6e1038ba3b1601d	82241873	1	practice_slash	5	practice_slash	3	stimuli_distractor_trianglediamonds.svg	stimuli_target_squarediamonds.svg	11	yes	53	1	1799
6.6.1	win	2022-12-14	14:52:54	14:56:57	242552	610024bfd6e1038ba3b1601d	82241873	1	practice_slash	5	advance_on_keypress_SLASH	4	stimuli_distractor_trianglediamonds.svg	stimuli_target_squarediamonds.svg	11	yes	57	0	1311
6.6.1	win	2022-12-14	14:52:54	14:57:01	246536	610024bfd6e1038ba3b1601d	82241873	1	practice_slash	5	practice_slash	5	stimuli_distractor_trianglediamonds.svg	stimuli_target_diamondcircles.svg	12	yes	53	1	1017
6.6.1	win	2022-12-14	14:52:54	14:57:01	246536	610024bfd6e1038ba3b1601d	82241873	1	practice_slash	5	advance_on_keypress_SLASH	6	stimuli_distractor_trianglediamonds.svg	stimuli_target_diamondcircles.svg	12	yes	57	0	559
6.6.1	win	2022-12-14	14:52:54	14:57:05	250136	610024bfd6e1038ba3b1601d	82241873	1	practice_slash	5	practice_slash	7	stimuli_distractor_diamondtriangles.svg	stimuli_target_trianglecircles.svg	9	yes	53	1	1401
6.6.1	win	2022-12-14	14:52:54	14:57:05	250136	610024bfd6e1038ba3b1601d	82241873	1	practice_slash	5	advance_on_keypress_SLASH	8	stimuli_distractor_diamondtriangles.svg	stimuli_target_trianglecircles.svg	9	yes	57	0	743
6.6.1	win	2022-12-14	14:52:54	14:57:09	253712	610024bfd6e1038ba3b1601d	82241873	1	practice_slash	5	practice_slash	9	stimuli_target_diamondsquares.svg	stimuli_distractor_diamondtriangles.svg	3	yes	53	1	1176
6.6.1	win	2022-12-14	14:52:54	14:57:09	253712	610024bfd6e1038ba3b1601d	82241873	1	practice_slash	5	advance_on_keypress_SLASH	10	stimuli_target_diamondsquares.svg	stimuli_distractor_diamondtriangles.svg	3	yes	57	0	521
6.6.1	win	2022-12-14	14:52:54	14:57:12	256928	610024bfd6e1038ba3b1601d	82241873	1	practice_slash	5	practice_slash	11	stimuli_distractor_diamondtriangles.svg	stimuli_target_diamondcircles.svg	8	yes	53	1	1058
6.6.1	win	2022-12-14	14:52:54	14:57:12	256928	610024bfd6e1038ba3b1601d	82241873	1	practice_slash	5	advance_on_keypress_SLASH	12	stimuli_distractor_diamondtriangles.svg	stimuli_target_diamondcircles.svg	8	yes	57	0	624
6.6.1	win	2022-12-14	14:52:54	14:57:15	260360	610024bfd6e1038ba3b1601d	82241873	1	practice_slash	5	practice_slash	13	stimuli_target_circlediamonds.svg	stimuli_distractor_trianglediamonds.svg	4	yes	53	1	1174
6.6.1	win	2022-12-14	14:52:54	14:57:15	260360	610024bfd6e1038ba3b1601d	82241873	1	practice_slash	5	advance_on_keypress_SLASH	14	stimuli_target_circlediamonds.svg	stimuli_distractor_trianglediamonds.svg	4	yes	57	0	590
6.6.1	win	2022-12-14	14:52:54	14:57:19	264586	610024bfd6e1038ba3b1601d	82241873	1	practice_slash	5	practice_slash	15	stimuli_target_diamondsquares.svg	stimuli_distractor_trianglediamonds.svg	6	yes	0	0	2000
6.6.1	win	2022-12-14	14:52:54	14:57:19	264586	610024bfd6e1038ba3b1601d	82241873	1	practice_slash	5	advance_on_keypress_SLASH	16	stimuli_target_diamondsquares.svg	stimuli_distractor_trianglediamonds.svg	6	yes	57	0	541
6.6.1	win	2022-12-14	14:52:54	14:57:24	268769	610024bfd6e1038ba3b1601d	82241873	1	practice_slash	5	practice_slash	17	stimuli_distractor_diamondtriangles.svg	stimuli_distractor_trianglediamonds.svg	14	no	0	1	2000
6.6.1	win	2022-12-14	14:52:54	14:57:24	268769	610024bfd6e1038ba3b1601d	82241873	1	practice_slash	5	advance_on_keypress_SLASH	18	stimuli_distractor_diamondtriangles.svg	stimuli_distractor_trianglediamonds.svg	14	no	57	0	573
6.6.1	win	2022-12-14	14:52:54	14:57:27	272512	610024bfd6e1038ba3b1601d	82241873	1	practice_slash	5	practice_slash	19	stimuli_target_circlediamonds.svg	stimuli_distractor_diamondtriangles.svg	1	yes	53	1	1526
6.6.1	win	2022-12-14	14:52:54	14:57:27	272512	610024bfd6e1038ba3b1601d	82241873	1	practice_slash	5	advance_on_keypress_SLASH	20	stimuli_target_circlediamonds.svg	stimuli_distractor_diamondtriangles.svg	1	yes	57	0	553
6.6.1	win	2022-12-14	14:52:54	14:57:31	275728	610024bfd6e1038ba3b1601d	82241873	1	practice_slash	5	practice_slash	21	stimuli_distractor_diamondtriangles.svg	stimuli_target_circletriangles.svg	7	yes	53	1	1008
6.6.1	win	2022-12-14	14:52:54	14:57:31	275728	610024bfd6e1038ba3b1601d	82241873	1	practice_slash	5	advance_on_keypress_SLASH	22	stimuli_distractor_diamondtriangles.svg	stimuli_target_circletriangles.svg	7	yes	57	0	521
6.6.1	win	2022-12-14	14:52:54	14:57:34	279296	610024bfd6e1038ba3b1601d	82241873	1	practice_slash	5	practice_slash	23	stimuli_distractor_trianglediamonds.svg	stimuli_distractor_trianglediamonds.svg	15	no	53	0	1409
6.6.1	win	2022-12-14	14:52:54	14:57:34	279296	610024bfd6e1038ba3b1601d	82241873	1	practice_slash	5	advance_on_keypress_SLASH	24	stimuli_distractor_trianglediamonds.svg	stimuli_distractor_trianglediamonds.svg	15	no	57	0	528
6.6.1	win	2022-12-14	14:52:54	14:57:37	282480	610024bfd6e1038ba3b1601d	82241873	1	practice_slash	5	practice_slash	25	stimuli_target_squarediamonds.svg	stimuli_distractor_trianglediamonds.svg	5	yes	53	1	994
6.6.1	win	2022-12-14	14:52:54	14:57:37	282480	610024bfd6e1038ba3b1601d	82241873	1	practice_slash	5	advance_on_keypress_SLASH	26	stimuli_target_squarediamonds.svg	stimuli_distractor_trianglediamonds.svg	5	yes	57	0	545
6.6.1	win	2022-12-14	14:52:54	14:57:41	285736	610024bfd6e1038ba3b1601d	82241873	1	practice_slash	5	practice_slash	27	stimuli_distractor_trianglediamonds.svg	stimuli_target_circlediamonds.svg	10	yes	53	1	1050
6.6.1	win	2022-12-14	14:52:54	14:57:41	285736	610024bfd6e1038ba3b1601d	82241873	1	practice_slash	5	advance_on_keypress_SLASH	28	stimuli_distractor_trianglediamonds.svg	stimuli_target_circlediamonds.svg	10	yes	57	0	535
6.6.1	win	2022-12-14	14:52:54	14:57:44	289464	610024bfd6e1038ba3b1601d	82241873	1	practice_slash	5	practice_slash	29	stimuli_distractor_diamondtriangles.svg	stimuli_distractor_diamondtriangles.svg	13	no	53	0	1545
6.6.1	win	2022-12-14	14:52:54	14:57:44	289464	610024bfd6e1038ba3b1601d	82241873	1	practice_slash	5	advance_on_keypress_SLASH	30	stimuli_distractor_diamondtriangles.svg	stimuli_distractor_diamondtriangles.svg	13	no	57	0	1417
6.6.1	win	2022-12-14	14:52:54	14:57:49	294536	610024bfd6e1038ba3b1601d	82241873	1	practice_slash	5	practice_slash	31	stimuli_distractor_trianglediamonds.svg	stimuli_distractor_diamondtriangles.svg	16	no	0	1	2000
6.6.1	win	2022-12-14	14:52:54	14:57:49	294536	610024bfd6e1038ba3b1601d	82241873	1	practice_slash	5	advance_on_keypress_SLASH	32	stimuli_distractor_trianglediamonds.svg	stimuli_distractor_diamondtriangles.svg	16	no	57	0	464
6.6.1	win	2022-12-14	14:52:54	14:58:01	305784	610024bfd6e1038ba3b1601d	82241873	1	main_slash	7	main_slash	1	stimuli_distractor_diamondtriangles.svg	stimuli_distractor_diamondtriangles.svg	39	no	0	1	2000
6.6.1	win	2022-12-14	14:52:54	14:58:01	305784	610024bfd6e1038ba3b1601d	82241873	1	main_slash	7	advance_on_keypress_SLASH	2	stimuli_distractor_diamondtriangles.svg	stimuli_distractor_diamondtriangles.svg	39	no	57	0	509
6.6.1	win	2022-12-14	14:52:54	14:58:04	308934	610024bfd6e1038ba3b1601d	82241873	1	main_slash	7	main_slash	3	stimuli_distractor_trianglediamonds.svg	stimuli_distractor_trianglediamonds.svg	33	no	0	1	2000
6.6.1	win	2022-12-14	14:52:54	14:58:04	308934	610024bfd6e1038ba3b1601d	82241873	1	main_slash	7	advance_on_keypress_SLASH	4	stimuli_distractor_trianglediamonds.svg	stimuli_distractor_trianglediamonds.svg	33	no	57	0	695
6.6.1	win	2022-12-14	14:52:54	14:58:06	311614	610024bfd6e1038ba3b1601d	82241873	1	main_slash	7	main_slash	5	stimuli_distractor_diamondtriangles.svg	stimuli_distractor_trianglediamonds.svg	37	no	53	0	1346
6.6.1	win	2022-12-14	14:52:54	14:58:06	311614	610024bfd6e1038ba3b1601d	82241873	1	main_slash	7	advance_on_keypress_SLASH	6	stimuli_distractor_diamondtriangles.svg	stimuli_distractor_trianglediamonds.svg	37	no	57	0	933
6.6.1	win	2022-12-14	14:52:54	14:58:09	314342	610024bfd6e1038ba3b1601d	82241873	1	main_slash	7	main_slash	7	stimuli_target_diamondsquares.svg	stimuli_distractor_diamondtriangles.svg	24	yes	53	1	1141
6.6.1	win	2022-12-14	14:52:54	14:58:09	314342	610024bfd6e1038ba3b1601d	82241873	1	main_slash	7	advance_on_keypress_SLASH	8	stimuli_target_diamondsquares.svg	stimuli_distractor_diamondtriangles.svg	24	yes	57	0	776
6.6.1	win	2022-12-14	14:52:54	14:58:12	316710	610024bfd6e1038ba3b1601d	82241873	1	main_slash	7	main_slash	9	stimuli_target_circletriangles.svg	stimuli_distractor_trianglediamonds.svg	1	yes	53	1	959
6.6.1	win	2022-12-14	14:52:54	14:58:12	316710	610024bfd6e1038ba3b1601d	82241873	1	main_slash	7	advance_on_keypress_SLASH	10	stimuli_target_circletriangles.svg	stimuli_distractor_trianglediamonds.svg	1	yes	57	0	536
6.6.1	win	2022-12-14	14:52:54	14:58:14	318758	610024bfd6e1038ba3b1601d	82241873	1	main_slash	7	main_slash	11	stimuli_distractor_trianglediamonds.svg	stimuli_target_trianglesquares.svg	26	yes	53	1	873
6.6.1	win	2022-12-14	14:52:54	14:58:14	318758	610024bfd6e1038ba3b1601d	82241873	1	main_slash	7	advance_on_keypress_SLASH	12	stimuli_distractor_trianglediamonds.svg	stimuli_target_trianglesquares.svg	26	yes	57	0	383
6.6.1	win	2022-12-14	14:52:54	14:58:16	320662	610024bfd6e1038ba3b1601d	82241873	1	main_slash	7	main_slash	13	stimuli_distractor_trianglediamonds.svg	stimuli_target_trianglecircles.svg	25	yes	53	1	877
6.6.1	win	2022-12-14	14:52:54	14:58:16	320662	610024bfd6e1038ba3b1601d	82241873	1	main_slash	7	advance_on_keypress_SLASH	14	stimuli_distractor_trianglediamonds.svg	stimuli_target_trianglecircles.svg	25	yes	57	0	306
6.6.1	win	2022-12-14	14:52:54	14:58:18	322798	610024bfd6e1038ba3b1601d	82241873	1	main_slash	7	main_slash	15	stimuli_target_squarediamonds.svg	stimuli_distractor_trianglediamonds.svg	4	yes	53	1	1198
6.6.1	win	2022-12-14	14:52:54	14:58:18	322798	610024bfd6e1038ba3b1601d	82241873	1	main_slash	7	advance_on_keypress_SLASH	16	stimuli_target_squarediamonds.svg	stimuli_distractor_trianglediamonds.svg	4	yes	57	0	412
6.6.1	win	2022-12-14	14:52:54	14:58:21	325867	610024bfd6e1038ba3b1601d	82241873	1	main_slash	7	main_slash	17	stimuli_distractor_trianglediamonds.svg	stimuli_target_squarediamonds.svg	12	yes	0	0	2000
6.6.1	win	2022-12-14	14:52:54	14:58:21	325867	610024bfd6e1038ba3b1601d	82241873	1	main_slash	7	advance_on_keypress_SLASH	18	stimuli_distractor_trianglediamonds.svg	stimuli_target_squarediamonds.svg	12	yes	57	0	14074
6.6.1	win	2022-12-14	14:52:54	14:58:36	341286	610024bfd6e1038ba3b1601d	82241873	1	main_slash	7	main_slash	19	stimuli_distractor_diamondtriangles.svg	stimuli_target_circlediamonds.svg	14	yes	53	1	702
6.6.1	win	2022-12-14	14:52:54	14:58:36	341286	610024bfd6e1038ba3b1601d	82241873	1	main_slash	7	advance_on_keypress_SLASH	20	stimuli_distractor_diamondtriangles.svg	stimuli_target_circlediamonds.svg	14	yes	57	0	777
6.6.1	win	2022-12-14	14:52:54	14:58:38	343534	610024bfd6e1038ba3b1601d	82241873	1	main_slash	7	main_slash	21	stimuli_distractor_diamondtriangles.svg	stimuli_target_diamondcircles.svg	31	yes	53	1	834
6.6.1	win	2022-12-14	14:52:54	14:58:38	343534	610024bfd6e1038ba3b1601d	82241873	1	main_slash	7	advance_on_keypress_SLASH	22	stimuli_distractor_diamondtriangles.svg	stimuli_target_diamondcircles.svg	31	yes	57	0	535
6.6.1	win	2022-12-14	14:52:54	14:58:40	345550	610024bfd6e1038ba3b1601d	82241873	1	main_slash	7	main_slash	23	stimuli_distractor_diamondtriangles.svg	stimuli_target_diamondsquares.svg	32	yes	53	1	832
6.6.1	win	2022-12-14	14:52:54	14:58:40	345550	610024bfd6e1038ba3b1601d	82241873	1	main_slash	7	advance_on_keypress_SLASH	24	stimuli_distractor_diamondtriangles.svg	stimuli_target_diamondsquares.svg	32	yes	57	0	422
6.6.1	win	2022-12-14	14:52:54	14:58:42	347590	610024bfd6e1038ba3b1601d	82241873	1	main_slash	7	main_slash	25	stimuli_distractor_diamondtriangles.svg	stimuli_target_squaretriangles.svg	15	yes	53	1	972
6.6.1	win	2022-12-14	14:52:54	14:58:42	347590	610024bfd6e1038ba3b1601d	82241873	1	main_slash	7	advance_on_keypress_SLASH	26	stimuli_distractor_diamondtriangles.svg	stimuli_target_squaretriangles.svg	15	yes	57	0	413
6.6.1	win	2022-12-14	14:52:54	14:58:44	349590	610024bfd6e1038ba3b1601d	82241873	1	main_slash	7	main_slash	27	stimuli_target_diamondcircles.svg	stimuli_distractor_diamondtriangles.svg	23	yes	53	1	939
6.6.1	win	2022-12-14	14:52:54	14:58:44	349590	610024bfd6e1038ba3b1601d	82241873	1	main_slash	7	advance_on_keypress_SLASH	28	stimuli_target_diamondcircles.svg	stimuli_distractor_diamondtriangles.svg	23	yes	57	0	821
6.6.1	win	2022-12-14	14:52:54	14:58:48	353051	610024bfd6e1038ba3b1601d	82241873	1	main_slash	7	main_slash	29	stimuli_distractor_diamondtriangles.svg	stimuli_distractor_trianglediamonds.svg	38	no	0	1	2000
6.6.1	win	2022-12-14	14:52:54	14:58:48	353051	610024bfd6e1038ba3b1601d	82241873	1	main_slash	7	advance_on_keypress_SLASH	30	stimuli_distractor_diamondtriangles.svg	stimuli_distractor_trianglediamonds.svg	38	no	57	0	410
6.6.1	win	2022-12-14	14:52:54	14:58:51	356101	610024bfd6e1038ba3b1601d	82241873	1	main_slash	7	main_slash	31	stimuli_distractor_trianglediamonds.svg	stimuli_distractor_diamondtriangles.svg	36	no	0	1	2000
6.6.1	win	2022-12-14	14:52:54	14:58:51	356101	610024bfd6e1038ba3b1601d	82241873	1	main_slash	7	advance_on_keypress_SLASH	32	stimuli_distractor_trianglediamonds.svg	stimuli_distractor_diamondtriangles.svg	36	no	57	0	392
6.6.1	win	2022-12-14	14:52:54	14:58:54	358710	610024bfd6e1038ba3b1601d	82241873	1	main_slash	7	main_slash	33	stimuli_distractor_trianglediamonds.svg	stimuli_distractor_diamondtriangles.svg	35	no	53	0	1576
6.6.1	win	2022-12-14	14:52:54	14:58:54	358710	610024bfd6e1038ba3b1601d	82241873	1	main_slash	7	advance_on_keypress_SLASH	34	stimuli_distractor_trianglediamonds.svg	stimuli_distractor_diamondtriangles.svg	35	no	57	0	552
6.6.1	win	2022-12-14	14:52:54	14:58:56	360870	610024bfd6e1038ba3b1601d	82241873	1	main_slash	7	main_slash	35	stimuli_target_trianglesquares.svg	stimuli_distractor_trianglediamonds.svg	18	yes	53	1	969
6.6.1	win	2022-12-14	14:52:54	14:58:56	360870	610024bfd6e1038ba3b1601d	82241873	1	main_slash	7	advance_on_keypress_SLASH	36	stimuli_target_trianglesquares.svg	stimuli_distractor_trianglediamonds.svg	18	yes	57	0	473
6.6.1	win	2022-12-14	14:52:54	14:58:58	363006	610024bfd6e1038ba3b1601d	82241873	1	main_slash	7	main_slash	37	stimuli_target_circlediamonds.svg	stimuli_distractor_diamondtriangles.svg	6	yes	53	1	1022
6.6.1	win	2022-12-14	14:52:54	14:58:58	363006	610024bfd6e1038ba3b1601d	82241873	1	main_slash	7	advance_on_keypress_SLASH	38	stimuli_target_circlediamonds.svg	stimuli_distractor_diamondtriangles.svg	6	yes	57	0	748
6.6.1	win	2022-12-14	14:52:54	14:59:00	365110	610024bfd6e1038ba3b1601d	82241873	1	main_slash	7	main_slash	39	stimuli_target_squaretriangles.svg	stimuli_distractor_trianglediamonds.svg	3	yes	53	1	710
6.6.1	win	2022-12-14	14:52:54	14:59:00	365110	610024bfd6e1038ba3b1601d	82241873	1	main_slash	7	advance_on_keypress_SLASH	40	stimuli_target_squaretriangles.svg	stimuli_distractor_trianglediamonds.svg	3	yes	57	0	720
6.6.1	win	2022-12-14	14:52:54	14:59:03	367678	610024bfd6e1038ba3b1601d	82241873	1	main_slash	7	main_slash	41	stimuli_distractor_trianglediamonds.svg	stimuli_target_diamondsquares.svg	28	yes	53	1	1210
6.6.1	win	2022-12-14	14:52:54	14:59:03	367678	610024bfd6e1038ba3b1601d	82241873	1	main_slash	7	advance_on_keypress_SLASH	42	stimuli_distractor_trianglediamonds.svg	stimuli_target_diamondsquares.svg	28	yes	57	0	569
6.6.1	win	2022-12-14	14:52:54	14:59:05	370286	610024bfd6e1038ba3b1601d	82241873	1	main_slash	7	main_slash	43	stimuli_target_trianglecircles.svg	stimuli_distractor_diamondtriangles.svg	21	yes	53	1	1402
6.6.1	win	2022-12-14	14:52:54	14:59:05	370286	610024bfd6e1038ba3b1601d	82241873	1	main_slash	7	advance_on_keypress_SLASH	44	stimuli_target_trianglecircles.svg	stimuli_distractor_diamondtriangles.svg	21	yes	57	0	513
6.6.1	win	2022-12-14	14:52:54	14:59:07	372310	610024bfd6e1038ba3b1601d	82241873	1	main_slash	7	main_slash	45	stimuli_target_circlediamonds.svg	stimuli_distractor_trianglediamonds.svg	2	yes	53	1	860
6.6.1	win	2022-12-14	14:52:54	14:59:07	372310	610024bfd6e1038ba3b1601d	82241873	1	main_slash	7	advance_on_keypress_SLASH	46	stimuli_target_circlediamonds.svg	stimuli_distractor_trianglediamonds.svg	2	yes	57	0	424
6.6.1	win	2022-12-14	14:52:54	14:59:09	374438	610024bfd6e1038ba3b1601d	82241873	1	main_slash	7	main_slash	47	stimuli_target_squaretriangles.svg	stimuli_distractor_diamondtriangles.svg	7	yes	53	1	1070
6.6.1	win	2022-12-14	14:52:54	14:59:09	374438	610024bfd6e1038ba3b1601d	82241873	1	main_slash	7	advance_on_keypress_SLASH	48	stimuli_target_squaretriangles.svg	stimuli_distractor_diamondtriangles.svg	7	yes	57	0	435
6.6.1	win	2022-12-14	14:52:54	14:59:11	376550	610024bfd6e1038ba3b1601d	82241873	1	main_slash	7	main_slash	49	stimuli_distractor_diamondtriangles.svg	stimuli_target_circletriangles.svg	13	yes	53	1	1032
6.6.1	win	2022-12-14	14:52:54	14:59:11	376550	610024bfd6e1038ba3b1601d	82241873	1	main_slash	7	advance_on_keypress_SLASH	50	stimuli_distractor_diamondtriangles.svg	stimuli_target_circletriangles.svg	13	yes	57	0	566
6.6.1	win	2022-12-14	14:52:54	14:59:14	379318	610024bfd6e1038ba3b1601d	82241873	1	main_slash	7	main_slash	51	stimuli_target_diamondsquares.svg	stimuli_distractor_trianglediamonds.svg	20	yes	53	1	1550
6.6.1	win	2022-12-14	14:52:54	14:59:14	379318	610024bfd6e1038ba3b1601d	82241873	1	main_slash	7	advance_on_keypress_SLASH	52	stimuli_target_diamondsquares.svg	stimuli_distractor_trianglediamonds.svg	20	yes	57	0	351
6.6.1	win	2022-12-14	14:52:54	14:59:16	381590	610024bfd6e1038ba3b1601d	82241873	1	main_slash	7	main_slash	53	stimuli_distractor_trianglediamonds.svg	stimuli_target_circletriangles.svg	9	yes	53	1	1272
6.6.1	win	2022-12-14	14:52:54	14:59:16	381590	610024bfd6e1038ba3b1601d	82241873	1	main_slash	7	advance_on_keypress_SLASH	54	stimuli_distractor_trianglediamonds.svg	stimuli_target_circletriangles.svg	9	yes	57	0	829
6.6.1	win	2022-12-14	14:52:54	14:59:20	385067	610024bfd6e1038ba3b1601d	82241873	1	main_slash	7	main_slash	55	stimuli_distractor_diamondtriangles.svg	stimuli_target_trianglecircles.svg	29	yes	0	0	2000
6.6.1	win	2022-12-14	14:52:54	14:59:20	385067	610024bfd6e1038ba3b1601d	82241873	1	main_slash	7	advance_on_keypress_SLASH	56	stimuli_distractor_diamondtriangles.svg	stimuli_target_trianglecircles.svg	29	yes	57	0	345
6.6.1	win	2022-12-14	14:52:54	14:59:22	387110	610024bfd6e1038ba3b1601d	82241873	1	main_slash	7	main_slash	57	stimuli_distractor_diamondtriangles.svg	stimuli_target_trianglesquares.svg	30	yes	53	1	1042
6.6.1	win	2022-12-14	14:52:54	14:59:22	387110	610024bfd6e1038ba3b1601d	82241873	1	main_slash	7	advance_on_keypress_SLASH	58	stimuli_distractor_diamondtriangles.svg	stimuli_target_trianglesquares.svg	30	yes	57	0	456
6.6.1	win	2022-12-14	14:52:54	14:59:24	389246	610024bfd6e1038ba3b1601d	82241873	1	main_slash	7	main_slash	59	stimuli_distractor_trianglediamonds.svg	stimuli_target_squaretriangles.svg	11	yes	53	1	1045
6.6.1	win	2022-12-14	14:52:54	14:59:24	389246	610024bfd6e1038ba3b1601d	82241873	1	main_slash	7	advance_on_keypress_SLASH	60	stimuli_distractor_trianglediamonds.svg	stimuli_target_squaretriangles.svg	11	yes	57	0	451
6.6.1	win	2022-12-14	14:52:54	14:59:27	391742	610024bfd6e1038ba3b1601d	82241873	1	main_slash	7	main_slash	61	stimuli_target_trianglesquares.svg	stimuli_distractor_diamondtriangles.svg	22	yes	53	1	1407
6.6.1	win	2022-12-14	14:52:54	14:59:27	391742	610024bfd6e1038ba3b1601d	82241873	1	main_slash	7	advance_on_keypress_SLASH	62	stimuli_target_trianglesquares.svg	stimuli_distractor_diamondtriangles.svg	22	yes	57	0	487
6.6.1	win	2022-12-14	14:52:54	14:59:30	394868	610024bfd6e1038ba3b1601d	82241873	1	main_slash	7	main_slash	63	stimuli_distractor_trianglediamonds.svg	stimuli_distractor_trianglediamonds.svg	34	no	0	1	2000
6.6.1	win	2022-12-14	14:52:54	14:59:30	394868	610024bfd6e1038ba3b1601d	82241873	1	main_slash	7	advance_on_keypress_SLASH	64	stimuli_distractor_trianglediamonds.svg	stimuli_distractor_trianglediamonds.svg	34	no	57	0	834
6.6.1	win	2022-12-14	14:52:54	14:59:32	397230	610024bfd6e1038ba3b1601d	82241873	1	main_slash	7	main_slash	65	stimuli_distractor_trianglediamonds.svg	stimuli_target_diamondcircles.svg	27	yes	53	1	879
6.6.1	win	2022-12-14	14:52:54	14:59:32	397230	610024bfd6e1038ba3b1601d	82241873	1	main_slash	7	advance_on_keypress_SLASH	66	stimuli_distractor_trianglediamonds.svg	stimuli_target_diamondcircles.svg	27	yes	57	0	596
6.6.1	win	2022-12-14	14:52:54	14:59:34	399398	610024bfd6e1038ba3b1601d	82241873	1	main_slash	7	main_slash	67	stimuli_target_trianglecircles.svg	stimuli_distractor_trianglediamonds.svg	17	yes	53	1	931
6.6.1	win	2022-12-14	14:52:54	14:59:34	399398	610024bfd6e1038ba3b1601d	82241873	1	main_slash	7	advance_on_keypress_SLASH	68	stimuli_target_trianglecircles.svg	stimuli_distractor_trianglediamonds.svg	17	yes	57	0	764
6.6.1	win	2022-12-14	14:52:54	14:59:37	401998	610024bfd6e1038ba3b1601d	82241873	1	main_slash	7	main_slash	69	stimuli_target_squarediamonds.svg	stimuli_distractor_diamondtriangles.svg	8	yes	53	1	1180
6.6.1	win	2022-12-14	14:52:54	14:59:37	401998	610024bfd6e1038ba3b1601d	82241873	1	main_slash	7	advance_on_keypress_SLASH	70	stimuli_target_squarediamonds.svg	stimuli_distractor_diamondtriangles.svg	8	yes	57	0	2108
6.6.1	win	2022-12-14	14:52:54	14:59:42	406751	610024bfd6e1038ba3b1601d	82241873	1	main_slash	7	main_slash	71	stimuli_distractor_diamondtriangles.svg	stimuli_target_squarediamonds.svg	16	yes	0	0	2000
6.6.1	win	2022-12-14	14:52:54	14:59:42	406751	610024bfd6e1038ba3b1601d	82241873	1	main_slash	7	advance_on_keypress_SLASH	72	stimuli_distractor_diamondtriangles.svg	stimuli_target_squarediamonds.svg	16	yes	57	0	551
6.6.1	win	2022-12-14	14:52:54	14:59:44	408990	610024bfd6e1038ba3b1601d	82241873	1	main_slash	7	main_slash	73	stimuli_target_diamondcircles.svg	stimuli_distractor_trianglediamonds.svg	19	yes	53	1	1039
6.6.1	win	2022-12-14	14:52:54	14:59:44	408990	610024bfd6e1038ba3b1601d	82241873	1	main_slash	7	advance_on_keypress_SLASH	74	stimuli_target_diamondcircles.svg	stimuli_distractor_trianglediamonds.svg	19	yes	57	0	381
6.6.1	win	2022-12-14	14:52:54	14:59:47	412017	610024bfd6e1038ba3b1601d	82241873	1	main_slash	7	main_slash	75	stimuli_distractor_diamondtriangles.svg	stimuli_distractor_diamondtriangles.svg	40	no	0	1	2000
6.6.1	win	2022-12-14	14:52:54	14:59:47	412017	610024bfd6e1038ba3b1601d	82241873	1	main_slash	7	advance_on_keypress_SLASH	76	stimuli_distractor_diamondtriangles.svg	stimuli_distractor_diamondtriangles.svg	40	no	57	0	699
6.6.1	win	2022-12-14	14:52:54	14:59:49	414486	610024bfd6e1038ba3b1601d	82241873	1	main_slash	7	main_slash	77	stimuli_target_circletriangles.svg	stimuli_distractor_diamondtriangles.svg	5	yes	53	1	1118
6.6.1	win	2022-12-14	14:52:54	14:59:49	414486	610024bfd6e1038ba3b1601d	82241873	1	main_slash	7	advance_on_keypress_SLASH	78	stimuli_target_circletriangles.svg	stimuli_distractor_diamondtriangles.svg	5	yes	57	0	1241
6.6.1	win	2022-12-14	14:52:54	14:59:52	417286	610024bfd6e1038ba3b1601d	82241873	1	main_slash	7	main_slash	79	stimuli_distractor_trianglediamonds.svg	stimuli_target_circlediamonds.svg	10	yes	53	1	918
6.6.1	win	2022-12-14	14:52:54	14:59:52	417286	610024bfd6e1038ba3b1601d	82241873	1	main_slash	7	advance_on_keypress_SLASH	80	stimuli_distractor_trianglediamonds.svg	stimuli_target_circlediamonds.svg	10	yes	57	0	361
6.6.1	win	2022-12-14	14:52:54	14:59:55	420284	610024bfd6e1038ba3b1601d	82241873	1	main_slash	7	main_slash	81	stimuli_distractor_diamondtriangles.svg	stimuli_distractor_diamondtriangles.svg	39	no	0	1	2000
6.6.1	win	2022-12-14	14:52:54	14:59:55	420284	610024bfd6e1038ba3b1601d	82241873	1	main_slash	7	advance_on_keypress_SLASH	82	stimuli_distractor_diamondtriangles.svg	stimuli_distractor_diamondtriangles.svg	39	no	57	0	522
6.6.1	win	2022-12-14	14:52:54	14:59:58	422766	610024bfd6e1038ba3b1601d	82241873	1	main_slash	7	main_slash	83	stimuli_target_trianglecircles.svg	stimuli_distractor_diamondtriangles.svg	21	yes	53	1	1316
6.6.1	win	2022-12-14	14:52:54	14:59:58	422766	610024bfd6e1038ba3b1601d	82241873	1	main_slash	7	advance_on_keypress_SLASH	84	stimuli_target_trianglecircles.svg	stimuli_distractor_diamondtriangles.svg	21	yes	57	0	309
6.6.1	win	2022-12-14	14:52:54	14:59:59	424630	610024bfd6e1038ba3b1601d	82241873	1	main_slash	7	main_slash	85	stimuli_distractor_diamondtriangles.svg	stimuli_target_diamondcircles.svg	31	yes	53	1	913
6.6.1	win	2022-12-14	14:52:54	14:59:59	424630	610024bfd6e1038ba3b1601d	82241873	1	main_slash	7	advance_on_keypress_SLASH	86	stimuli_distractor_diamondtriangles.svg	stimuli_target_diamondcircles.svg	31	yes	57	0	315
6.6.1	win	2022-12-14	14:52:54	15:00:01	426606	610024bfd6e1038ba3b1601d	82241873	1	main_slash	7	main_slash	87	stimuli_distractor_trianglediamonds.svg	stimuli_target_trianglesquares.svg	26	yes	53	1	1022
6.6.1	win	2022-12-14	14:52:54	15:00:01	426606	610024bfd6e1038ba3b1601d	82241873	1	main_slash	7	advance_on_keypress_SLASH	88	stimuli_distractor_trianglediamonds.svg	stimuli_target_trianglesquares.svg	26	yes	57	0	284
6.6.1	win	2022-12-14	14:52:54	15:00:03	428518	610024bfd6e1038ba3b1601d	82241873	1	main_slash	7	main_slash	89	stimuli_target_squaretriangles.svg	stimuli_distractor_trianglediamonds.svg	3	yes	53	1	983
6.6.1	win	2022-12-14	14:52:54	15:00:03	428518	610024bfd6e1038ba3b1601d	82241873	1	main_slash	7	advance_on_keypress_SLASH	90	stimuli_target_squaretriangles.svg	stimuli_distractor_trianglediamonds.svg	3	yes	57	0	359
6.6.1	win	2022-12-14	14:52:54	15:00:05	430534	610024bfd6e1038ba3b1601d	82241873	1	main_slash	7	main_slash	91	stimuli_distractor_trianglediamonds.svg	stimuli_target_squarediamonds.svg	12	yes	53	1	1016
6.6.1	win	2022-12-14	14:52:54	15:00:05	430534	610024bfd6e1038ba3b1601d	82241873	1	main_slash	7	advance_on_keypress_SLASH	92	stimuli_distractor_trianglediamonds.svg	stimuli_target_squarediamonds.svg	12	yes	57	0	335
6.6.1	win	2022-12-14	14:52:54	15:00:08	433517	610024bfd6e1038ba3b1601d	82241873	1	main_slash	7	main_slash	93	stimuli_distractor_diamondtriangles.svg	stimuli_distractor_trianglediamonds.svg	37	no	0	1	2000
6.6.1	win	2022-12-14	14:52:54	15:00:08	433517	610024bfd6e1038ba3b1601d	82241873	1	main_slash	7	advance_on_keypress_SLASH	94	stimuli_distractor_diamondtriangles.svg	stimuli_distractor_trianglediamonds.svg	37	no	57	0	664
6.6.1	win	2022-12-14	14:52:54	15:00:11	435782	610024bfd6e1038ba3b1601d	82241873	1	main_slash	7	main_slash	95	stimuli_target_diamondsquares.svg	stimuli_distractor_diamondtriangles.svg	24	yes	53	1	947
6.6.1	win	2022-12-14	14:52:54	15:00:11	435782	610024bfd6e1038ba3b1601d	82241873	1	main_slash	7	advance_on_keypress_SLASH	96	stimuli_target_diamondsquares.svg	stimuli_distractor_diamondtriangles.svg	24	yes	57	0	389
6.6.1	win	2022-12-14	14:52:54	15:00:13	438094	610024bfd6e1038ba3b1601d	82241873	1	main_slash	7	main_slash	97	stimuli_distractor_diamondtriangles.svg	stimuli_target_circlediamonds.svg	14	yes	53	1	1276
6.6.1	win	2022-12-14	14:52:54	15:00:13	438094	610024bfd6e1038ba3b1601d	82241873	1	main_slash	7	advance_on_keypress_SLASH	98	stimuli_distractor_diamondtriangles.svg	stimuli_target_circlediamonds.svg	14	yes	57	0	449
6.6.1	win	2022-12-14	14:52:54	15:00:16	441184	610024bfd6e1038ba3b1601d	82241873	1	main_slash	7	main_slash	99	stimuli_distractor_diamondtriangles.svg	stimuli_distractor_trianglediamonds.svg	38	no	0	1	2000
6.6.1	win	2022-12-14	14:52:54	15:00:16	441184	610024bfd6e1038ba3b1601d	82241873	1	main_slash	7	advance_on_keypress_SLASH	100	stimuli_distractor_diamondtriangles.svg	stimuli_distractor_trianglediamonds.svg	38	no	57	0	685
6.6.1	win	2022-12-14	14:52:54	15:00:18	443518	610024bfd6e1038ba3b1601d	82241873	1	main_slash	7	main_slash	101	stimuli_target_trianglecircles.svg	stimuli_distractor_trianglediamonds.svg	17	yes	53	1	1000
6.6.1	win	2022-12-14	14:52:54	15:00:18	443518	610024bfd6e1038ba3b1601d	82241873	1	main_slash	7	advance_on_keypress_SLASH	102	stimuli_target_trianglecircles.svg	stimuli_distractor_trianglediamonds.svg	17	yes	57	0	983
6.6.1	win	2022-12-14	14:52:54	15:00:21	446102	610024bfd6e1038ba3b1601d	82241873	1	main_slash	7	main_slash	103	stimuli_distractor_diamondtriangles.svg	stimuli_target_diamondsquares.svg	32	yes	53	1	951
6.6.1	win	2022-12-14	14:52:54	15:00:21	446102	610024bfd6e1038ba3b1601d	82241873	1	main_slash	7	advance_on_keypress_SLASH	104	stimuli_distractor_diamondtriangles.svg	stimuli_target_diamondsquares.svg	32	yes	57	0	352
6.6.1	win	2022-12-14	14:52:54	15:00:23	448118	610024bfd6e1038ba3b1601d	82241873	1	main_slash	7	main_slash	105	stimuli_distractor_diamondtriangles.svg	stimuli_target_squaretriangles.svg	15	yes	53	1	1017
6.6.1	win	2022-12-14	14:52:54	15:00:23	448118	610024bfd6e1038ba3b1601d	82241873	1	main_slash	7	advance_on_keypress_SLASH	106	stimuli_distractor_diamondtriangles.svg	stimuli_target_squaretriangles.svg	15	yes	57	0	655
6.6.1	win	2022-12-14	14:52:54	15:00:25	450174	610024bfd6e1038ba3b1601d	82241873	1	main_slash	7	main_slash	107	stimuli_target_circlediamonds.svg	stimuli_distractor_trianglediamonds.svg	2	yes	53	1	756
6.6.1	win	2022-12-14	14:52:54	15:00:25	450174	610024bfd6e1038ba3b1601d	82241873	1	main_slash	7	advance_on_keypress_SLASH	108	stimuli_target_circlediamonds.svg	stimuli_distractor_trianglediamonds.svg	2	yes	57	0	349
6.6.1	win	2022-12-14	14:52:54	15:00:27	452110	610024bfd6e1038ba3b1601d	82241873	1	main_slash	7	main_slash	109	stimuli_target_circletriangles.svg	stimuli_distractor_diamondtriangles.svg	5	yes	53	1	942
6.6.1	win	2022-12-14	14:52:54	15:00:27	452110	610024bfd6e1038ba3b1601d	82241873	1	main_slash	7	advance_on_keypress_SLASH	110	stimuli_target_circletriangles.svg	stimuli_distractor_diamondtriangles.svg	5	yes	57	0	328
6.6.1	win	2022-12-14	14:52:54	15:00:29	454270	610024bfd6e1038ba3b1601d	82241873	1	main_slash	7	main_slash	111	stimuli_target_circlediamonds.svg	stimuli_distractor_diamondtriangles.svg	6	yes	53	1	1202
6.6.1	win	2022-12-14	14:52:54	15:00:29	454270	610024bfd6e1038ba3b1601d	82241873	1	main_slash	7	advance_on_keypress_SLASH	112	stimuli_target_circlediamonds.svg	stimuli_distractor_diamondtriangles.svg	6	yes	57	0	377
6.6.1	win	2022-12-14	14:52:54	15:00:32	457284	610024bfd6e1038ba3b1601d	82241873	1	main_slash	7	main_slash	113	stimuli_distractor_diamondtriangles.svg	stimuli_distractor_diamondtriangles.svg	40	no	0	1	2000
6.6.1	win	2022-12-14	14:52:54	15:00:32	457284	610024bfd6e1038ba3b1601d	82241873	1	main_slash	7	advance_on_keypress_SLASH	114	stimuli_distractor_diamondtriangles.svg	stimuli_distractor_diamondtriangles.svg	40	no	57	0	553
6.6.1	win	2022-12-14	14:52:54	15:00:34	459374	610024bfd6e1038ba3b1601d	82241873	1	main_slash	7	main_slash	115	stimuli_distractor_trianglediamonds.svg	stimuli_target_squaretriangles.svg	11	yes	53	1	889
6.6.1	win	2022-12-14	14:52:54	15:00:34	459374	610024bfd6e1038ba3b1601d	82241873	1	main_slash	7	advance_on_keypress_SLASH	116	stimuli_distractor_trianglediamonds.svg	stimuli_target_squaretriangles.svg	11	yes	57	0	245
6.6.1	win	2022-12-14	14:52:54	15:00:36	461334	610024bfd6e1038ba3b1601d	82241873	1	main_slash	7	main_slash	117	stimuli_target_squarediamonds.svg	stimuli_distractor_diamondtriangles.svg	8	yes	53	1	1066
6.6.1	win	2022-12-14	14:52:54	15:00:36	461334	610024bfd6e1038ba3b1601d	82241873	1	main_slash	7	advance_on_keypress_SLASH	118	stimuli_target_squarediamonds.svg	stimuli_distractor_diamondtriangles.svg	8	yes	57	0	303
6.6.1	win	2022-12-14	14:52:54	15:00:39	463678	610024bfd6e1038ba3b1601d	82241873	1	main_slash	7	main_slash	119	stimuli_target_diamondcircles.svg	stimuli_distractor_diamondtriangles.svg	23	yes	53	1	1393
6.6.1	win	2022-12-14	14:52:54	15:00:39	463678	610024bfd6e1038ba3b1601d	82241873	1	main_slash	7	advance_on_keypress_SLASH	120	stimuli_target_diamondcircles.svg	stimuli_distractor_diamondtriangles.svg	23	yes	57	0	281
6.6.1	win	2022-12-14	14:52:54	15:00:41	465702	610024bfd6e1038ba3b1601d	82241873	1	main_slash	7	main_slash	121	stimuli_distractor_trianglediamonds.svg	stimuli_target_circlediamonds.svg	10	yes	53	1	1101
6.6.1	win	2022-12-14	14:52:54	15:00:41	465702	610024bfd6e1038ba3b1601d	82241873	1	main_slash	7	advance_on_keypress_SLASH	122	stimuli_distractor_trianglediamonds.svg	stimuli_target_circlediamonds.svg	10	yes	57	0	304
6.6.1	win	2022-12-14	14:52:54	15:00:43	467678	610024bfd6e1038ba3b1601d	82241873	1	main_slash	7	main_slash	123	stimuli_distractor_diamondtriangles.svg	stimuli_target_circletriangles.svg	13	yes	53	1	1027
6.6.1	win	2022-12-14	14:52:54	15:00:43	467678	610024bfd6e1038ba3b1601d	82241873	1	main_slash	7	advance_on_keypress_SLASH	124	stimuli_distractor_diamondtriangles.svg	stimuli_target_circletriangles.svg	13	yes	57	0	289
6.6.1	win	2022-12-14	14:52:54	15:00:44	469614	610024bfd6e1038ba3b1601d	82241873	1	main_slash	7	main_slash	125	stimuli_distractor_trianglediamonds.svg	stimuli_target_trianglecircles.svg	25	yes	53	1	1013
6.6.1	win	2022-12-14	14:52:54	15:00:44	469614	610024bfd6e1038ba3b1601d	82241873	1	main_slash	7	advance_on_keypress_SLASH	126	stimuli_distractor_trianglediamonds.svg	stimuli_target_trianglecircles.svg	25	yes	57	0	283
6.6.1	win	2022-12-14	14:52:54	15:00:47	472551	610024bfd6e1038ba3b1601d	82241873	1	main_slash	7	main_slash	127	stimuli_distractor_trianglediamonds.svg	stimuli_distractor_trianglediamonds.svg	33	no	0	1	2000
6.6.1	win	2022-12-14	14:52:54	15:00:47	472551	610024bfd6e1038ba3b1601d	82241873	1	main_slash	7	advance_on_keypress_SLASH	128	stimuli_distractor_trianglediamonds.svg	stimuli_distractor_trianglediamonds.svg	33	no	57	0	542
6.6.1	win	2022-12-14	14:52:54	15:00:51	475734	610024bfd6e1038ba3b1601d	82241873	1	main_slash	7	main_slash	129	stimuli_distractor_trianglediamonds.svg	stimuli_distractor_diamondtriangles.svg	36	no	0	1	2000
6.6.1	win	2022-12-14	14:52:54	15:00:51	475734	610024bfd6e1038ba3b1601d	82241873	1	main_slash	7	advance_on_keypress_SLASH	130	stimuli_distractor_trianglediamonds.svg	stimuli_distractor_diamondtriangles.svg	36	no	57	0	479
6.6.1	win	2022-12-14	14:52:54	15:00:53	478022	610024bfd6e1038ba3b1601d	82241873	1	main_slash	7	main_slash	131	stimuli_target_squarediamonds.svg	stimuli_distractor_trianglediamonds.svg	4	yes	53	1	1154
6.6.1	win	2022-12-14	14:52:54	15:00:53	478022	610024bfd6e1038ba3b1601d	82241873	1	main_slash	7	advance_on_keypress_SLASH	132	stimuli_target_squarediamonds.svg	stimuli_distractor_trianglediamonds.svg	4	yes	57	0	307
6.6.1	win	2022-12-14	14:52:54	15:00:56	480967	610024bfd6e1038ba3b1601d	82241873	1	main_slash	7	main_slash	133	stimuli_distractor_trianglediamonds.svg	stimuli_distractor_trianglediamonds.svg	34	no	0	1	2000
6.6.1	win	2022-12-14	14:52:54	15:00:56	480967	610024bfd6e1038ba3b1601d	82241873	1	main_slash	7	advance_on_keypress_SLASH	134	stimuli_distractor_trianglediamonds.svg	stimuli_distractor_trianglediamonds.svg	34	no	57	0	565
6.6.1	win	2022-12-14	14:52:54	15:00:58	483110	610024bfd6e1038ba3b1601d	82241873	1	main_slash	7	main_slash	135	stimuli_distractor_diamondtriangles.svg	stimuli_target_trianglesquares.svg	30	yes	53	1	925
6.6.1	win	2022-12-14	14:52:54	15:00:58	483110	610024bfd6e1038ba3b1601d	82241873	1	main_slash	7	advance_on_keypress_SLASH	136	stimuli_distractor_diamondtriangles.svg	stimuli_target_trianglesquares.svg	30	yes	57	0	696
6.6.1	win	2022-12-14	14:52:54	15:01:00	485422	610024bfd6e1038ba3b1601d	82241873	1	main_slash	7	main_slash	137	stimuli_target_circletriangles.svg	stimuli_distractor_trianglediamonds.svg	1	yes	53	1	971
6.6.1	win	2022-12-14	14:52:54	15:01:00	485422	610024bfd6e1038ba3b1601d	82241873	1	main_slash	7	advance_on_keypress_SLASH	138	stimuli_target_circletriangles.svg	stimuli_distractor_trianglediamonds.svg	1	yes	57	0	435
6.6.1	win	2022-12-14	14:52:54	15:01:02	487606	610024bfd6e1038ba3b1601d	82241873	1	main_slash	7	main_slash	139	stimuli_target_trianglesquares.svg	stimuli_distractor_diamondtriangles.svg	22	yes	53	1	1105
6.6.1	win	2022-12-14	14:52:54	15:01:02	487606	610024bfd6e1038ba3b1601d	82241873	1	main_slash	7	advance_on_keypress_SLASH	140	stimuli_target_trianglesquares.svg	stimuli_distractor_diamondtriangles.svg	22	yes	57	0	996
6.6.1	win	2022-12-14	14:52:54	15:01:06	490782	610024bfd6e1038ba3b1601d	82241873	1	main_slash	7	main_slash	141	stimuli_target_squaretriangles.svg	stimuli_distractor_diamondtriangles.svg	7	yes	53	1	1531
6.6.1	win	2022-12-14	14:52:54	15:01:06	490782	610024bfd6e1038ba3b1601d	82241873	1	main_slash	7	advance_on_keypress_SLASH	142	stimuli_target_squaretriangles.svg	stimuli_distractor_diamondtriangles.svg	7	yes	57	0	301
6.6.1	win	2022-12-14	14:52:54	15:01:09	493734	610024bfd6e1038ba3b1601d	82241873	1	main_slash	7	main_slash	143	stimuli_distractor_trianglediamonds.svg	stimuli_target_diamondsquares.svg	28	yes	0	0	2000
6.6.1	win	2022-12-14	14:52:54	15:01:09	493734	610024bfd6e1038ba3b1601d	82241873	1	main_slash	7	advance_on_keypress_SLASH	144	stimuli_distractor_trianglediamonds.svg	stimuli_target_diamondsquares.svg	28	yes	57	0	647
6.6.1	win	2022-12-14	14:52:54	15:01:11	496094	610024bfd6e1038ba3b1601d	82241873	1	main_slash	7	main_slash	145	stimuli_distractor_trianglediamonds.svg	stimuli_target_diamondcircles.svg	27	yes	53	1	1059
6.6.1	win	2022-12-14	14:52:54	15:01:11	496094	610024bfd6e1038ba3b1601d	82241873	1	main_slash	7	advance_on_keypress_SLASH	146	stimuli_distractor_trianglediamonds.svg	stimuli_target_diamondcircles.svg	27	yes	57	0	393
6.6.1	win	2022-12-14	14:52:54	15:01:13	498294	610024bfd6e1038ba3b1601d	82241873	1	main_slash	7	main_slash	147	stimuli_distractor_trianglediamonds.svg	stimuli_distractor_diamondtriangles.svg	35	no	53	0	1176
6.6.1	win	2022-12-14	14:52:54	15:01:13	498294	610024bfd6e1038ba3b1601d	82241873	1	main_slash	7	advance_on_keypress_SLASH	148	stimuli_distractor_trianglediamonds.svg	stimuli_distractor_diamondtriangles.svg	35	no	57	0	425
6.6.1	win	2022-12-14	14:52:54	15:01:16	501351	610024bfd6e1038ba3b1601d	82241873	1	main_slash	7	main_slash	149	stimuli_target_diamondsquares.svg	stimuli_distractor_trianglediamonds.svg	20	yes	0	0	2000
6.6.1	win	2022-12-14	14:52:54	15:01:16	501351	610024bfd6e1038ba3b1601d	82241873	1	main_slash	7	advance_on_keypress_SLASH	150	stimuli_target_diamondsquares.svg	stimuli_distractor_trianglediamonds.svg	20	yes	57	0	486
6.6.1	win	2022-12-14	14:52:54	15:01:18	503406	610024bfd6e1038ba3b1601d	82241873	1	main_slash	7	main_slash	151	stimuli_distractor_trianglediamonds.svg	stimuli_target_circletriangles.svg	9	yes	53	1	922
6.6.1	win	2022-12-14	14:52:54	15:01:18	503406	610024bfd6e1038ba3b1601d	82241873	1	main_slash	7	advance_on_keypress_SLASH	152	stimuli_distractor_trianglediamonds.svg	stimuli_target_circletriangles.svg	9	yes	57	0	429
6.6.1	win	2022-12-14	14:52:54	15:01:21	505726	610024bfd6e1038ba3b1601d	82241873	1	main_slash	7	main_slash	153	stimuli_distractor_diamondtriangles.svg	stimuli_target_trianglecircles.svg	29	yes	53	1	1258
6.6.1	win	2022-12-14	14:52:54	15:01:21	505726	610024bfd6e1038ba3b1601d	82241873	1	main_slash	7	advance_on_keypress_SLASH	154	stimuli_distractor_diamondtriangles.svg	stimuli_target_trianglecircles.svg	29	yes	57	0	263
6.6.1	win	2022-12-14	14:52:54	15:01:23	508634	610024bfd6e1038ba3b1601d	82241873	1	main_slash	7	main_slash	155	stimuli_distractor_diamondtriangles.svg	stimuli_target_squarediamonds.svg	16	yes	0	0	2000
6.6.1	win	2022-12-14	14:52:54	15:01:23	508634	610024bfd6e1038ba3b1601d	82241873	1	main_slash	7	advance_on_keypress_SLASH	156	stimuli_distractor_diamondtriangles.svg	stimuli_target_squarediamonds.svg	16	yes	57	0	594
6.6.1	win	2022-12-14	14:52:54	15:01:25	510638	610024bfd6e1038ba3b1601d	82241873	1	main_slash	7	main_slash	157	stimuli_target_diamondcircles.svg	stimuli_distractor_trianglediamonds.svg	19	yes	53	1	770
6.6.1	win	2022-12-14	14:52:54	15:01:25	510638	610024bfd6e1038ba3b1601d	82241873	1	main_slash	7	advance_on_keypress_SLASH	158	stimuli_target_diamondcircles.svg	stimuli_distractor_trianglediamonds.svg	19	yes	57	0	491
6.6.1	win	2022-12-14	14:52:54	15:01:28	512822	610024bfd6e1038ba3b1601d	82241873	1	main_slash	7	main_slash	159	stimuli_target_trianglesquares.svg	stimuli_distractor_trianglediamonds.svg	18	yes	53	1	1054
6.6.1	win	2022-12-14	14:52:54	15:01:28	512822	610024bfd6e1038ba3b1601d	82241873	1	main_slash	7	advance_on_keypress_SLASH	160	stimuli_target_trianglesquares.svg	stimuli_distractor_trianglediamonds.svg	18	yes	57	0	315
6.6.1	win	2022-12-14	14:52:54	15:02:57	601961	610024bfd6e1038ba3b1601d	82241873	1	practice_z	9	practice_z	1	stimuli_distractor_diamondtriangles.svg	stimuli_distractor_trianglediamonds.svg	14	no	44	0	940
6.6.1	win	2022-12-14	14:52:54	15:02:57	601961	610024bfd6e1038ba3b1601d	82241873	1	practice_z	9	advance_on_keypress_ZEE	2	stimuli_distractor_diamondtriangles.svg	stimuli_distractor_trianglediamonds.svg	14	no	57	0	1030
6.6.1	win	2022-12-14	14:52:54	15:03:00	605256	610024bfd6e1038ba3b1601d	82241873	1	practice_z	9	practice_z	3	stimuli_distractor_diamondtriangles.svg	stimuli_target_trianglecircles.svg	9	yes	44	1	619
6.6.1	win	2022-12-14	14:52:54	15:03:00	605256	610024bfd6e1038ba3b1601d	82241873	1	practice_z	9	advance_on_keypress_ZEE	4	stimuli_distractor_diamondtriangles.svg	stimuli_target_trianglecircles.svg	9	yes	57	0	450
6.6.1	win	2022-12-14	14:52:54	15:03:03	608280	610024bfd6e1038ba3b1601d	82241873	1	practice_z	9	practice_z	5	stimuli_target_diamondsquares.svg	stimuli_distractor_trianglediamonds.svg	6	yes	44	1	927
6.6.1	win	2022-12-14	14:52:54	15:03:03	608280	610024bfd6e1038ba3b1601d	82241873	1	practice_z	9	advance_on_keypress_ZEE	6	stimuli_target_diamondsquares.svg	stimuli_distractor_trianglediamonds.svg	6	yes	57	0	409
6.6.1	win	2022-12-14	14:52:54	15:03:06	611161	610024bfd6e1038ba3b1601d	82241873	1	practice_z	9	practice_z	7	stimuli_distractor_trianglediamonds.svg	stimuli_target_diamondcircles.svg	12	yes	44	1	840
6.6.1	win	2022-12-14	14:52:54	15:03:06	611161	610024bfd6e1038ba3b1601d	82241873	1	practice_z	9	advance_on_keypress_ZEE	8	stimuli_distractor_trianglediamonds.svg	stimuli_target_diamondcircles.svg	12	yes	57	0	582
6.6.1	win	2022-12-14	14:52:54	15:03:09	614505	610024bfd6e1038ba3b1601d	82241873	1	practice_z	9	practice_z	9	stimuli_target_circlediamonds.svg	stimuli_distractor_diamondtriangles.svg	1	yes	44	1	1117
6.6.1	win	2022-12-14	14:52:54	15:03:09	614505	610024bfd6e1038ba3b1601d	82241873	1	practice_z	9	advance_on_keypress_ZEE	10	stimuli_target_circlediamonds.svg	stimuli_distractor_diamondtriangles.svg	1	yes	57	0	376
6.6.1	win	2022-12-14	14:52:54	15:03:13	618520	610024bfd6e1038ba3b1601d	82241873	1	practice_z	9	practice_z	11	stimuli_distractor_diamondtriangles.svg	stimuli_distractor_diamondtriangles.svg	13	no	0	1	2000
6.6.1	win	2022-12-14	14:52:54	15:03:13	618520	610024bfd6e1038ba3b1601d	82241873	1	practice_z	9	advance_on_keypress_ZEE	12	stimuli_distractor_diamondtriangles.svg	stimuli_distractor_diamondtriangles.svg	13	no	57	0	455
6.6.1	win	2022-12-14	14:52:54	15:03:16	621576	610024bfd6e1038ba3b1601d	82241873	1	practice_z	9	practice_z	13	stimuli_target_squarediamonds.svg	stimuli_distractor_trianglediamonds.svg	5	yes	44	1	956
6.6.1	win	2022-12-14	14:52:54	15:03:16	621576	610024bfd6e1038ba3b1601d	82241873	1	practice_z	9	advance_on_keypress_ZEE	14	stimuli_target_squarediamonds.svg	stimuli_distractor_trianglediamonds.svg	5	yes	57	0	501
6.6.1	win	2022-12-14	14:52:54	15:03:20	624657	610024bfd6e1038ba3b1601d	82241873	1	practice_z	9	practice_z	15	stimuli_distractor_diamondtriangles.svg	stimuli_target_diamondcircles.svg	8	yes	44	1	936
6.6.1	win	2022-12-14	14:52:54	15:03:20	624657	610024bfd6e1038ba3b1601d	82241873	1	practice_z	9	advance_on_keypress_ZEE	16	stimuli_distractor_diamondtriangles.svg	stimuli_target_diamondcircles.svg	8	yes	57	0	338
6.6.1	win	2022-12-14	14:52:54	15:03:23	628637	610024bfd6e1038ba3b1601d	82241873	1	practice_z	9	practice_z	17	stimuli_distractor_trianglediamonds.svg	stimuli_distractor_trianglediamonds.svg	15	no	0	1	2000
6.6.1	win	2022-12-14	14:52:54	15:03:23	628637	610024bfd6e1038ba3b1601d	82241873	1	practice_z	9	advance_on_keypress_ZEE	18	stimuli_distractor_trianglediamonds.svg	stimuli_distractor_trianglediamonds.svg	15	no	57	0	307
6.6.1	win	2022-12-14	14:52:54	15:03:26	631369	610024bfd6e1038ba3b1601d	82241873	1	practice_z	9	practice_z	19	stimuli_distractor_trianglediamonds.svg	stimuli_target_circlediamonds.svg	10	yes	44	1	781
6.6.1	win	2022-12-14	14:52:54	15:03:26	631369	610024bfd6e1038ba3b1601d	82241873	1	practice_z	9	advance_on_keypress_ZEE	20	stimuli_distractor_trianglediamonds.svg	stimuli_target_circlediamonds.svg	10	yes	57	0	701
6.6.1	win	2022-12-14	14:52:54	15:03:30	634809	610024bfd6e1038ba3b1601d	82241873	1	practice_z	9	practice_z	21	stimuli_target_squarediamonds.svg	stimuli_distractor_diamondtriangles.svg	2	yes	44	1	1088
6.6.1	win	2022-12-14	14:52:54	15:03:30	634809	610024bfd6e1038ba3b1601d	82241873	1	practice_z	9	advance_on_keypress_ZEE	22	stimuli_target_squarediamonds.svg	stimuli_distractor_diamondtriangles.svg	2	yes	57	0	284
6.6.1	win	2022-12-14	14:52:54	15:03:33	637768	610024bfd6e1038ba3b1601d	82241873	1	practice_z	9	practice_z	23	stimuli_target_diamondsquares.svg	stimuli_distractor_diamondtriangles.svg	3	yes	44	1	1031
6.6.1	win	2022-12-14	14:52:54	15:03:33	637768	610024bfd6e1038ba3b1601d	82241873	1	practice_z	9	advance_on_keypress_ZEE	24	stimuli_target_diamondsquares.svg	stimuli_distractor_diamondtriangles.svg	3	yes	57	0	253
6.6.1	win	2022-12-14	14:52:54	15:03:36	640744	610024bfd6e1038ba3b1601d	82241873	1	practice_z	9	practice_z	25	stimuli_target_circlediamonds.svg	stimuli_distractor_trianglediamonds.svg	4	yes	44	1	1074
6.6.1	win	2022-12-14	14:52:54	15:03:36	640744	610024bfd6e1038ba3b1601d	82241873	1	practice_z	9	advance_on_keypress_ZEE	26	stimuli_target_circlediamonds.svg	stimuli_distractor_trianglediamonds.svg	4	yes	57	0	495
6.6.1	win	2022-12-14	14:52:54	15:03:39	643936	610024bfd6e1038ba3b1601d	82241873	1	practice_z	9	practice_z	27	stimuli_distractor_diamondtriangles.svg	stimuli_target_circletriangles.svg	7	yes	44	1	1049
6.6.1	win	2022-12-14	14:52:54	15:03:39	643936	610024bfd6e1038ba3b1601d	82241873	1	practice_z	9	advance_on_keypress_ZEE	28	stimuli_distractor_diamondtriangles.svg	stimuli_target_circletriangles.svg	7	yes	57	0	615
6.6.1	win	2022-12-14	14:52:54	15:03:42	647168	610024bfd6e1038ba3b1601d	82241873	1	practice_z	9	practice_z	29	stimuli_distractor_trianglediamonds.svg	stimuli_target_squarediamonds.svg	11	yes	44	1	965
6.6.1	win	2022-12-14	14:52:54	15:03:42	647168	610024bfd6e1038ba3b1601d	82241873	1	practice_z	9	advance_on_keypress_ZEE	30	stimuli_distractor_trianglediamonds.svg	stimuli_target_squarediamonds.svg	11	yes	57	0	613
6.6.1	win	2022-12-14	14:52:54	15:03:46	651436	610024bfd6e1038ba3b1601d	82241873	1	practice_z	9	practice_z	31	stimuli_distractor_trianglediamonds.svg	stimuli_distractor_diamondtriangles.svg	16	no	0	1	2000
6.6.1	win	2022-12-14	14:52:54	15:03:46	651436	610024bfd6e1038ba3b1601d	82241873	1	practice_z	9	advance_on_keypress_ZEE	32	stimuli_distractor_trianglediamonds.svg	stimuli_distractor_diamondtriangles.svg	16	no	57	0	531
6.6.1	win	2022-12-14	14:52:54	15:03:53	658126	610024bfd6e1038ba3b1601d	82241873	1	main_z	11	main_z	1	stimuli_target_diamondcircles.svg	stimuli_distractor_trianglediamonds.svg	19	yes	44	1	974
6.6.1	win	2022-12-14	14:52:54	15:03:53	658126	610024bfd6e1038ba3b1601d	82241873	1	main_z	11	advance_on_keypress_ZEE	2	stimuli_target_diamondcircles.svg	stimuli_distractor_trianglediamonds.svg	19	yes	57	0	623
6.6.1	win	2022-12-14	14:52:54	15:03:55	660278	610024bfd6e1038ba3b1601d	82241873	1	main_z	11	main_z	3	stimuli_distractor_trianglediamonds.svg	stimuli_target_circletriangles.svg	9	yes	44	1	893
6.6.1	win	2022-12-14	14:52:54	15:03:55	660278	610024bfd6e1038ba3b1601d	82241873	1	main_z	11	advance_on_keypress_ZEE	4	stimuli_distractor_trianglediamonds.svg	stimuli_target_circletriangles.svg	9	yes	57	0	281
6.6.1	win	2022-12-14	14:52:54	15:03:57	662150	610024bfd6e1038ba3b1601d	82241873	1	main_z	11	main_z	5	stimuli_distractor_diamondtriangles.svg	stimuli_target_circletriangles.svg	13	yes	44	1	949
6.6.1	win	2022-12-14	14:52:54	15:03:57	662150	610024bfd6e1038ba3b1601d	82241873	1	main_z	11	advance_on_keypress_ZEE	6	stimuli_distractor_diamondtriangles.svg	stimuli_target_circletriangles.svg	13	yes	57	0	278
6.6.1	win	2022-12-14	14:52:54	15:03:59	663958	610024bfd6e1038ba3b1601d	82241873	1	main_z	11	main_z	7	stimuli_target_squaretriangles.svg	stimuli_distractor_trianglediamonds.svg	3	yes	44	1	890
6.6.1	win	2022-12-14	14:52:54	15:03:59	663958	610024bfd6e1038ba3b1601d	82241873	1	main_z	11	advance_on_keypress_ZEE	8	stimuli_target_squaretriangles.svg	stimuli_distractor_trianglediamonds.svg	3	yes	57	0	358
6.6.1	win	2022-12-14	14:52:54	15:04:01	665758	610024bfd6e1038ba3b1601d	82241873	1	main_z	11	main_z	9	stimuli_distractor_trianglediamonds.svg	stimuli_target_circlediamonds.svg	10	yes	44	1	807
6.6.1	win	2022-12-14	14:52:54	15:04:01	665758	610024bfd6e1038ba3b1601d	82241873	1	main_z	11	advance_on_keypress_ZEE	10	stimuli_distractor_trianglediamonds.svg	stimuli_target_circlediamonds.svg	10	yes	57	0	366
6.6.1	win	2022-12-14	14:52:54	15:04:04	668768	610024bfd6e1038ba3b1601d	82241873	1	main_z	11	main_z	11	stimuli_distractor_diamondtriangles.svg	stimuli_distractor_diamondtriangles.svg	39	no	0	1	2000
6.6.1	win	2022-12-14	14:52:54	15:04:04	668768	610024bfd6e1038ba3b1601d	82241873	1	main_z	11	advance_on_keypress_ZEE	12	stimuli_distractor_diamondtriangles.svg	stimuli_distractor_diamondtriangles.svg	39	no	57	0	445
6.6.1	win	2022-12-14	14:52:54	15:04:06	670766	610024bfd6e1038ba3b1601d	82241873	1	main_z	11	main_z	13	stimuli_target_squarediamonds.svg	stimuli_distractor_trianglediamonds.svg	4	yes	44	1	898
6.6.1	win	2022-12-14	14:52:54	15:04:06	670766	610024bfd6e1038ba3b1601d	82241873	1	main_z	11	advance_on_keypress_ZEE	14	stimuli_target_squarediamonds.svg	stimuli_distractor_trianglediamonds.svg	4	yes	57	0	253
6.6.1	win	2022-12-14	14:52:54	15:04:08	672670	610024bfd6e1038ba3b1601d	82241873	1	main_z	11	main_z	15	stimuli_target_circletriangles.svg	stimuli_distractor_diamondtriangles.svg	5	yes	44	1	1002
6.6.1	win	2022-12-14	14:52:54	15:04:08	672670	610024bfd6e1038ba3b1601d	82241873	1	main_z	11	advance_on_keypress_ZEE	16	stimuli_target_circletriangles.svg	stimuli_distractor_diamondtriangles.svg	5	yes	57	0	273
6.6.1	win	2022-12-14	14:52:54	15:04:09	674582	610024bfd6e1038ba3b1601d	82241873	1	main_z	11	main_z	17	stimuli_distractor_diamondtriangles.svg	stimuli_distractor_trianglediamonds.svg	37	no	44	0	997
6.6.1	win	2022-12-14	14:52:54	15:04:09	674582	610024bfd6e1038ba3b1601d	82241873	1	main_z	11	advance_on_keypress_ZEE	18	stimuli_distractor_diamondtriangles.svg	stimuli_distractor_trianglediamonds.svg	37	no	57	0	341
6.6.1	win	2022-12-14	14:52:54	15:04:12	677568	610024bfd6e1038ba3b1601d	82241873	1	main_z	11	main_z	19	stimuli_distractor_diamondtriangles.svg	stimuli_distractor_diamondtriangles.svg	40	no	0	1	2000
6.6.1	win	2022-12-14	14:52:54	15:04:12	677568	610024bfd6e1038ba3b1601d	82241873	1	main_z	11	advance_on_keypress_ZEE	20	stimuli_distractor_diamondtriangles.svg	stimuli_distractor_diamondtriangles.svg	40	no	57	0	429
6.6.1	win	2022-12-14	14:52:54	15:04:14	679590	610024bfd6e1038ba3b1601d	82241873	1	main_z	11	main_z	21	stimuli_target_diamondcircles.svg	stimuli_distractor_diamondtriangles.svg	23	yes	44	1	939
6.6.1	win	2022-12-14	14:52:54	15:04:14	679590	610024bfd6e1038ba3b1601d	82241873	1	main_z	11	advance_on_keypress_ZEE	22	stimuli_target_diamondcircles.svg	stimuli_distractor_diamondtriangles.svg	23	yes	57	0	516
6.6.1	win	2022-12-14	14:52:54	15:04:18	682751	610024bfd6e1038ba3b1601d	82241873	1	main_z	11	main_z	23	stimuli_distractor_trianglediamonds.svg	stimuli_distractor_trianglediamonds.svg	34	no	0	1	2000
6.6.1	win	2022-12-14	14:52:54	15:04:18	682751	610024bfd6e1038ba3b1601d	82241873	1	main_z	11	advance_on_keypress_ZEE	24	stimuli_distractor_trianglediamonds.svg	stimuli_distractor_trianglediamonds.svg	34	no	57	0	486
6.6.1	win	2022-12-14	14:52:54	15:04:20	684886	610024bfd6e1038ba3b1601d	82241873	1	main_z	11	main_z	25	stimuli_target_circlediamonds.svg	stimuli_distractor_diamondtriangles.svg	6	yes	44	1	1001
6.6.1	win	2022-12-14	14:52:54	15:04:20	684886	610024bfd6e1038ba3b1601d	82241873	1	main_z	11	advance_on_keypress_ZEE	26	stimuli_target_circlediamonds.svg	stimuli_distractor_diamondtriangles.svg	6	yes	57	0	449
6.6.1	win	2022-12-14	14:52:54	15:04:22	686782	610024bfd6e1038ba3b1601d	82241873	1	main_z	11	main_z	27	stimuli_distractor_trianglediamonds.svg	stimuli_target_trianglesquares.svg	26	yes	44	1	797
6.6.1	win	2022-12-14	14:52:54	15:04:22	686782	610024bfd6e1038ba3b1601d	82241873	1	main_z	11	advance_on_keypress_ZEE	28	stimuli_distractor_trianglediamonds.svg	stimuli_target_trianglesquares.svg	26	yes	57	0	365
6.6.1	win	2022-12-14	14:52:54	15:04:25	689801	610024bfd6e1038ba3b1601d	82241873	1	main_z	11	main_z	29	stimuli_distractor_diamondtriangles.svg	stimuli_distractor_trianglediamonds.svg	38	no	0	1	2000
6.6.1	win	2022-12-14	14:52:54	15:04:25	689801	610024bfd6e1038ba3b1601d	82241873	1	main_z	11	advance_on_keypress_ZEE	30	stimuli_distractor_diamondtriangles.svg	stimuli_distractor_trianglediamonds.svg	38	no	57	0	468
6.6.1	win	2022-12-14	14:52:54	15:04:27	691854	610024bfd6e1038ba3b1601d	82241873	1	main_z	11	main_z	31	stimuli_distractor_diamondtriangles.svg	stimuli_target_squaretriangles.svg	15	yes	44	1	936
6.6.1	win	2022-12-14	14:52:54	15:04:27	691854	610024bfd6e1038ba3b1601d	82241873	1	main_z	11	advance_on_keypress_ZEE	32	stimuli_distractor_diamondtriangles.svg	stimuli_target_squaretriangles.svg	15	yes	57	0	450
6.6.1	win	2022-12-14	14:52:54	15:04:29	693846	610024bfd6e1038ba3b1601d	82241873	1	main_z	11	main_z	33	stimuli_distractor_diamondtriangles.svg	stimuli_target_circlediamonds.svg	14	yes	44	1	895
6.6.1	win	2022-12-14	14:52:54	15:04:29	693846	610024bfd6e1038ba3b1601d	82241873	1	main_z	11	advance_on_keypress_ZEE	34	stimuli_distractor_diamondtriangles.svg	stimuli_target_circlediamonds.svg	14	yes	57	0	515
6.6.1	win	2022-12-14	14:52:54	15:04:31	696038	610024bfd6e1038ba3b1601d	82241873	1	main_z	11	main_z	35	stimuli_distractor_trianglediamonds.svg	stimuli_target_diamondcircles.svg	27	yes	44	1	1037
6.6.1	win	2022-12-14	14:52:54	15:04:31	696038	610024bfd6e1038ba3b1601d	82241873	1	main_z	11	advance_on_keypress_ZEE	36	stimuli_distractor_trianglediamonds.svg	stimuli_target_diamondcircles.svg	27	yes	57	0	547
6.6.1	win	2022-12-14	14:52:54	15:04:34	699234	610024bfd6e1038ba3b1601d	82241873	1	main_z	11	main_z	37	stimuli_distractor_trianglediamonds.svg	stimuli_distractor_diamondtriangles.svg	36	no	0	1	2000
6.6.1	win	2022-12-14	14:52:54	15:04:34	699234	610024bfd6e1038ba3b1601d	82241873	1	main_z	11	advance_on_keypress_ZEE	38	stimuli_distractor_trianglediamonds.svg	stimuli_distractor_diamondtriangles.svg	36	no	57	0	482
6.6.1	win	2022-12-14	14:52:54	15:04:37	702368	610024bfd6e1038ba3b1601d	82241873	1	main_z	11	main_z	39	stimuli_distractor_trianglediamonds.svg	stimuli_distractor_diamondtriangles.svg	35	no	0	1	2000
6.6.1	win	2022-12-14	14:52:54	15:04:37	702368	610024bfd6e1038ba3b1601d	82241873	1	main_z	11	advance_on_keypress_ZEE	40	stimuli_distractor_trianglediamonds.svg	stimuli_distractor_diamondtriangles.svg	35	no	57	0	397
6.6.1	win	2022-12-14	14:52:54	15:04:39	704358	610024bfd6e1038ba3b1601d	82241873	1	main_z	11	main_z	41	stimuli_target_circlediamonds.svg	stimuli_distractor_trianglediamonds.svg	2	yes	44	1	940
6.6.1	win	2022-12-14	14:52:54	15:04:39	704358	610024bfd6e1038ba3b1601d	82241873	1	main_z	11	advance_on_keypress_ZEE	42	stimuli_target_circlediamonds.svg	stimuli_distractor_trianglediamonds.svg	2	yes	57	0	534
6.6.1	win	2022-12-14	14:52:54	15:04:42	707110	610024bfd6e1038ba3b1601d	82241873	1	main_z	11	main_z	43	stimuli_distractor_diamondtriangles.svg	stimuli_target_diamondcircles.svg	31	yes	44	1	1575
6.6.1	win	2022-12-14	14:52:54	15:04:42	707110	610024bfd6e1038ba3b1601d	82241873	1	main_z	11	advance_on_keypress_ZEE	44	stimuli_distractor_diamondtriangles.svg	stimuli_target_diamondcircles.svg	31	yes	57	0	560
6.6.1	win	2022-12-14	14:52:54	15:04:44	709174	610024bfd6e1038ba3b1601d	82241873	1	main_z	11	main_z	45	stimuli_target_squaretriangles.svg	stimuli_distractor_diamondtriangles.svg	7	yes	44	1	873
6.6.1	win	2022-12-14	14:52:54	15:04:44	709174	610024bfd6e1038ba3b1601d	82241873	1	main_z	11	advance_on_keypress_ZEE	46	stimuli_target_squaretriangles.svg	stimuli_distractor_diamondtriangles.svg	7	yes	57	0	613
6.6.1	win	2022-12-14	14:52:54	15:04:46	711182	610024bfd6e1038ba3b1601d	82241873	1	main_z	11	main_z	47	stimuli_distractor_trianglediamonds.svg	stimuli_target_trianglecircles.svg	25	yes	44	1	747
6.6.1	win	2022-12-14	14:52:54	15:04:46	711182	610024bfd6e1038ba3b1601d	82241873	1	main_z	11	advance_on_keypress_ZEE	48	stimuli_distractor_trianglediamonds.svg	stimuli_target_trianglecircles.svg	25	yes	57	0	581
6.6.1	win	2022-12-14	14:52:54	15:04:48	713502	610024bfd6e1038ba3b1601d	82241873	1	main_z	11	main_z	49	stimuli_distractor_diamondtriangles.svg	stimuli_target_trianglecircles.svg	29	yes	44	1	1084
6.6.1	win	2022-12-14	14:52:54	15:04:48	713502	610024bfd6e1038ba3b1601d	82241873	1	main_z	11	advance_on_keypress_ZEE	50	stimuli_distractor_diamondtriangles.svg	stimuli_target_trianglecircles.svg	29	yes	57	0	704
6.6.1	win	2022-12-14	14:52:54	15:04:52	716851	610024bfd6e1038ba3b1601d	82241873	1	main_z	11	main_z	51	stimuli_target_squarediamonds.svg	stimuli_distractor_diamondtriangles.svg	8	yes	0	0	2000
6.6.1	win	2022-12-14	14:52:54	15:04:52	716851	610024bfd6e1038ba3b1601d	82241873	1	main_z	11	advance_on_keypress_ZEE	52	stimuli_target_squarediamonds.svg	stimuli_distractor_diamondtriangles.svg	8	yes	57	0	458
6.6.1	win	2022-12-14	14:52:54	15:04:54	718798	610024bfd6e1038ba3b1601d	82241873	1	main_z	11	main_z	53	stimuli_distractor_trianglediamonds.svg	stimuli_target_diamondsquares.svg	28	yes	44	1	847
6.6.1	win	2022-12-14	14:52:54	15:04:54	718798	610024bfd6e1038ba3b1601d	82241873	1	main_z	11	advance_on_keypress_ZEE	54	stimuli_distractor_trianglediamonds.svg	stimuli_target_diamondsquares.svg	28	yes	57	0	548
6.6.1	win	2022-12-14	14:52:54	15:04:56	721222	610024bfd6e1038ba3b1601d	82241873	1	main_z	11	main_z	55	stimuli_distractor_trianglediamonds.svg	stimuli_target_squarediamonds.svg	12	yes	44	1	1221
6.6.1	win	2022-12-14	14:52:54	15:04:56	721222	610024bfd6e1038ba3b1601d	82241873	1	main_z	11	advance_on_keypress_ZEE	56	stimuli_distractor_trianglediamonds.svg	stimuli_target_squarediamonds.svg	12	yes	57	0	379
6.6.1	win	2022-12-14	14:52:54	15:04:58	723574	610024bfd6e1038ba3b1601d	82241873	1	main_z	11	main_z	57	stimuli_target_trianglecircles.svg	stimuli_distractor_diamondtriangles.svg	21	yes	44	1	1323
6.6.1	win	2022-12-14	14:52:54	15:04:58	723574	610024bfd6e1038ba3b1601d	82241873	1	main_z	11	advance_on_keypress_ZEE	58	stimuli_target_trianglecircles.svg	stimuli_distractor_diamondtriangles.svg	21	yes	57	0	461
6.6.1	win	2022-12-14	14:52:54	15:05:00	725638	610024bfd6e1038ba3b1601d	82241873	1	main_z	11	main_z	59	stimuli_distractor_diamondtriangles.svg	stimuli_target_trianglesquares.svg	30	yes	44	1	970
6.6.1	win	2022-12-14	14:52:54	15:05:00	725638	610024bfd6e1038ba3b1601d	82241873	1	main_z	11	advance_on_keypress_ZEE	60	stimuli_distractor_diamondtriangles.svg	stimuli_target_trianglesquares.svg	30	yes	57	0	1322
6.6.1	win	2022-12-14	14:52:54	15:05:04	728758	610024bfd6e1038ba3b1601d	82241873	1	main_z	11	main_z	61	stimuli_distractor_trianglediamonds.svg	stimuli_target_squaretriangles.svg	11	yes	44	1	1157
6.6.1	win	2022-12-14	14:52:54	15:05:04	728758	610024bfd6e1038ba3b1601d	82241873	1	main_z	11	advance_on_keypress_ZEE	62	stimuli_distractor_trianglediamonds.svg	stimuli_target_squaretriangles.svg	11	yes	57	0	518
6.6.1	win	2022-12-14	14:52:54	15:05:06	730846	610024bfd6e1038ba3b1601d	82241873	1	main_z	11	main_z	63	stimuli_target_circletriangles.svg	stimuli_distractor_trianglediamonds.svg	1	yes	44	1	928
6.6.1	win	2022-12-14	14:52:54	15:05:06	730846	610024bfd6e1038ba3b1601d	82241873	1	main_z	11	advance_on_keypress_ZEE	64	stimuli_target_circletriangles.svg	stimuli_distractor_trianglediamonds.svg	1	yes	57	0	811
6.6.1	win	2022-12-14	14:52:54	15:05:09	734284	610024bfd6e1038ba3b1601d	82241873	1	main_z	11	main_z	65	stimuli_distractor_trianglediamonds.svg	stimuli_distractor_trianglediamonds.svg	33	no	0	1	2000
6.6.1	win	2022-12-14	14:52:54	15:05:09	734284	610024bfd6e1038ba3b1601d	82241873	1	main_z	11	advance_on_keypress_ZEE	66	stimuli_distractor_trianglediamonds.svg	stimuli_distractor_trianglediamonds.svg	33	no	57	0	601
6.6.1	win	2022-12-14	14:52:54	15:05:11	736494	610024bfd6e1038ba3b1601d	82241873	1	main_z	11	main_z	67	stimuli_target_trianglecircles.svg	stimuli_distractor_trianglediamonds.svg	17	yes	44	1	959
6.6.1	win	2022-12-14	14:52:54	15:05:11	736494	610024bfd6e1038ba3b1601d	82241873	1	main_z	11	advance_on_keypress_ZEE	68	stimuli_target_trianglecircles.svg	stimuli_distractor_trianglediamonds.svg	17	yes	57	0	736
6.6.1	win	2022-12-14	14:52:54	15:05:14	738766	610024bfd6e1038ba3b1601d	82241873	1	main_z	11	main_z	69	stimuli_distractor_diamondtriangles.svg	stimuli_target_diamondsquares.svg	32	yes	44	1	898
6.6.1	win	2022-12-14	14:52:54	15:05:14	738766	610024bfd6e1038ba3b1601d	82241873	1	main_z	11	advance_on_keypress_ZEE	70	stimuli_distractor_diamondtriangles.svg	stimuli_target_diamondsquares.svg	32	yes	57	0	589
6.6.1	win	2022-12-14	14:52:54	15:05:16	740966	610024bfd6e1038ba3b1601d	82241873	1	main_z	11	main_z	71	stimuli_target_diamondsquares.svg	stimuli_distractor_diamondtriangles.svg	24	yes	44	1	965
6.6.1	win	2022-12-14	14:52:54	15:05:16	740966	610024bfd6e1038ba3b1601d	82241873	1	main_z	11	advance_on_keypress_ZEE	72	stimuli_target_diamondsquares.svg	stimuli_distractor_diamondtriangles.svg	24	yes	57	0	837
6.6.1	win	2022-12-14	14:52:54	15:05:18	743070	610024bfd6e1038ba3b1601d	82241873	1	main_z	11	main_z	73	stimuli_target_trianglesquares.svg	stimuli_distractor_diamondtriangles.svg	22	yes	44	1	619
6.6.1	win	2022-12-14	14:52:54	15:05:18	743070	610024bfd6e1038ba3b1601d	82241873	1	main_z	11	advance_on_keypress_ZEE	74	stimuli_target_trianglesquares.svg	stimuli_distractor_diamondtriangles.svg	22	yes	57	0	593
6.6.1	win	2022-12-14	14:52:54	15:05:20	744990	610024bfd6e1038ba3b1601d	82241873	1	main_z	11	main_z	75	stimuli_target_trianglesquares.svg	stimuli_distractor_trianglediamonds.svg	18	yes	44	1	689
6.6.1	win	2022-12-14	14:52:54	15:05:20	744990	610024bfd6e1038ba3b1601d	82241873	1	main_z	11	advance_on_keypress_ZEE	76	stimuli_target_trianglesquares.svg	stimuli_distractor_trianglediamonds.svg	18	yes	57	0	1013
6.6.1	win	2022-12-14	14:52:54	15:05:22	747606	610024bfd6e1038ba3b1601d	82241873	1	main_z	11	main_z	77	stimuli_distractor_diamondtriangles.svg	stimuli_target_squarediamonds.svg	16	yes	44	1	954
6.6.1	win	2022-12-14	14:52:54	15:05:22	747606	610024bfd6e1038ba3b1601d	82241873	1	main_z	11	advance_on_keypress_ZEE	78	stimuli_distractor_diamondtriangles.svg	stimuli_target_squarediamonds.svg	16	yes	57	0	540
6.6.1	win	2022-12-14	14:52:54	15:05:25	749798	610024bfd6e1038ba3b1601d	82241873	1	main_z	11	main_z	79	stimuli_target_diamondsquares.svg	stimuli_distractor_trianglediamonds.svg	20	yes	44	1	1013
6.6.1	win	2022-12-14	14:52:54	15:05:25	749798	610024bfd6e1038ba3b1601d	82241873	1	main_z	11	advance_on_keypress_ZEE	80	stimuli_target_diamondsquares.svg	stimuli_distractor_trianglediamonds.svg	20	yes	57	0	620
6.6.1	win	2022-12-14	14:52:54	15:05:27	751822	610024bfd6e1038ba3b1601d	82241873	1	main_z	11	main_z	81	stimuli_target_diamondsquares.svg	stimuli_distractor_trianglediamonds.svg	20	yes	44	1	754
6.6.1	win	2022-12-14	14:52:54	15:05:27	751822	610024bfd6e1038ba3b1601d	82241873	1	main_z	11	advance_on_keypress_ZEE	82	stimuli_target_diamondsquares.svg	stimuli_distractor_trianglediamonds.svg	20	yes	57	0	611
6.6.1	win	2022-12-14	14:52:54	15:05:30	755068	610024bfd6e1038ba3b1601d	82241873	1	main_z	11	main_z	83	stimuli_distractor_trianglediamonds.svg	stimuli_distractor_trianglediamonds.svg	34	no	0	1	2000
6.6.1	win	2022-12-14	14:52:54	15:05:30	755068	610024bfd6e1038ba3b1601d	82241873	1	main_z	11	advance_on_keypress_ZEE	84	stimuli_distractor_trianglediamonds.svg	stimuli_distractor_trianglediamonds.svg	34	no	57	0	569
6.6.1	win	2022-12-14	14:52:54	15:05:32	756998	610024bfd6e1038ba3b1601d	82241873	1	main_z	11	main_z	85	stimuli_target_diamondcircles.svg	stimuli_distractor_trianglediamonds.svg	19	yes	44	1	713
6.6.1	win	2022-12-14	14:52:54	15:05:32	756998	610024bfd6e1038ba3b1601d	82241873	1	main_z	11	advance_on_keypress_ZEE	86	stimuli_target_diamondcircles.svg	stimuli_distractor_trianglediamonds.svg	19	yes	57	0	500
6.6.1	win	2022-12-14	14:52:54	15:05:34	758950	610024bfd6e1038ba3b1601d	82241873	1	main_z	11	main_z	87	stimuli_target_squaretriangles.svg	stimuli_distractor_diamondtriangles.svg	7	yes	44	1	799
6.6.1	win	2022-12-14	14:52:54	15:05:34	758950	610024bfd6e1038ba3b1601d	82241873	1	main_z	11	advance_on_keypress_ZEE	88	stimuli_target_squaretriangles.svg	stimuli_distractor_diamondtriangles.svg	7	yes	57	0	430
6.6.1	win	2022-12-14	14:52:54	15:05:35	760606	610024bfd6e1038ba3b1601d	82241873	1	main_z	11	main_z	89	stimuli_distractor_diamondtriangles.svg	stimuli_target_diamondcircles.svg	31	yes	44	1	571
6.6.1	win	2022-12-14	14:52:54	15:05:35	760606	610024bfd6e1038ba3b1601d	82241873	1	main_z	11	advance_on_keypress_ZEE	90	stimuli_distractor_diamondtriangles.svg	stimuli_target_diamondcircles.svg	31	yes	57	0	540
6.6.1	win	2022-12-14	14:52:54	15:05:39	763784	610024bfd6e1038ba3b1601d	82241873	1	main_z	11	main_z	91	stimuli_distractor_diamondtriangles.svg	stimuli_distractor_diamondtriangles.svg	39	no	0	1	2000
6.6.1	win	2022-12-14	14:52:54	15:05:39	763784	610024bfd6e1038ba3b1601d	82241873	1	main_z	11	advance_on_keypress_ZEE	92	stimuli_distractor_diamondtriangles.svg	stimuli_distractor_diamondtriangles.svg	39	no	57	0	373
6.6.1	win	2022-12-14	14:52:54	15:05:40	765430	610024bfd6e1038ba3b1601d	82241873	1	main_z	11	main_z	93	stimuli_target_circletriangles.svg	stimuli_distractor_diamondtriangles.svg	5	yes	44	1	628
6.6.1	win	2022-12-14	14:52:54	15:05:40	765430	610024bfd6e1038ba3b1601d	82241873	1	main_z	11	advance_on_keypress_ZEE	94	stimuli_target_circletriangles.svg	stimuli_distractor_diamondtriangles.svg	5	yes	57	0	419
6.6.1	win	2022-12-14	14:52:54	15:05:42	767462	610024bfd6e1038ba3b1601d	82241873	1	main_z	11	main_z	95	stimuli_distractor_diamondtriangles.svg	stimuli_target_circlediamonds.svg	14	yes	44	1	977
6.6.1	win	2022-12-14	14:52:54	15:05:42	767462	610024bfd6e1038ba3b1601d	82241873	1	main_z	11	advance_on_keypress_ZEE	96	stimuli_distractor_diamondtriangles.svg	stimuli_target_circlediamonds.svg	14	yes	57	0	506
6.6.1	win	2022-12-14	14:52:54	15:05:44	769422	610024bfd6e1038ba3b1601d	82241873	1	main_z	11	main_z	97	stimuli_target_squaretriangles.svg	stimuli_distractor_trianglediamonds.svg	3	yes	44	1	821
6.6.1	win	2022-12-14	14:52:54	15:05:44	769422	610024bfd6e1038ba3b1601d	82241873	1	main_z	11	advance_on_keypress_ZEE	98	stimuli_target_squaretriangles.svg	stimuli_distractor_trianglediamonds.svg	3	yes	57	0	491
6.6.1	win	2022-12-14	14:52:54	15:05:46	771254	610024bfd6e1038ba3b1601d	82241873	1	main_z	11	main_z	99	stimuli_target_trianglesquares.svg	stimuli_distractor_diamondtriangles.svg	22	yes	44	1	702
6.6.1	win	2022-12-14	14:52:54	15:05:46	771254	610024bfd6e1038ba3b1601d	82241873	1	main_z	11	advance_on_keypress_ZEE	100	stimuli_target_trianglesquares.svg	stimuli_distractor_diamondtriangles.svg	22	yes	57	0	458
6.6.1	win	2022-12-14	14:52:54	15:05:48	773270	610024bfd6e1038ba3b1601d	82241873	1	main_z	11	main_z	101	stimuli_distractor_trianglediamonds.svg	stimuli_target_trianglecircles.svg	25	yes	44	1	918
6.6.1	win	2022-12-14	14:52:54	15:05:48	773270	610024bfd6e1038ba3b1601d	82241873	1	main_z	11	advance_on_keypress_ZEE	102	stimuli_distractor_trianglediamonds.svg	stimuli_target_trianglecircles.svg	25	yes	57	0	441
6.6.1	win	2022-12-14	14:52:54	15:05:50	775334	610024bfd6e1038ba3b1601d	82241873	1	main_z	11	main_z	103	stimuli_distractor_diamondtriangles.svg	stimuli_target_squarediamonds.svg	16	yes	44	1	982
6.6.1	win	2022-12-14	14:52:54	15:05:50	775334	610024bfd6e1038ba3b1601d	82241873	1	main_z	11	advance_on_keypress_ZEE	104	stimuli_distractor_diamondtriangles.svg	stimuli_target_squarediamonds.svg	16	yes	57	0	414
6.6.1	win	2022-12-14	14:52:54	15:05:53	778401	610024bfd6e1038ba3b1601d	82241873	1	main_z	11	main_z	105	stimuli_distractor_trianglediamonds.svg	stimuli_distractor_diamondtriangles.svg	36	no	0	1	2000
6.6.1	win	2022-12-14	14:52:54	15:05:53	778401	610024bfd6e1038ba3b1601d	82241873	1	main_z	11	advance_on_keypress_ZEE	106	stimuli_distractor_trianglediamonds.svg	stimuli_distractor_diamondtriangles.svg	36	no	57	0	420
6.6.1	win	2022-12-14	14:52:54	15:05:55	780102	610024bfd6e1038ba3b1601d	82241873	1	main_z	11	main_z	107	stimuli_distractor_diamondtriangles.svg	stimuli_target_circletriangles.svg	13	yes	44	1	634
6.6.1	win	2022-12-14	14:52:54	15:05:55	780102	610024bfd6e1038ba3b1601d	82241873	1	main_z	11	advance_on_keypress_ZEE	108	stimuli_distractor_diamondtriangles.svg	stimuli_target_circletriangles.svg	13	yes	57	0	400
6.6.1	win	2022-12-14	14:52:54	15:05:57	781878	610024bfd6e1038ba3b1601d	82241873	1	main_z	11	main_z	109	stimuli_target_trianglecircles.svg	stimuli_distractor_trianglediamonds.svg	17	yes	44	1	727
6.6.1	win	2022-12-14	14:52:54	15:05:57	781878	610024bfd6e1038ba3b1601d	82241873	1	main_z	11	advance_on_keypress_ZEE	110	stimuli_target_trianglecircles.svg	stimuli_distractor_trianglediamonds.svg	17	yes	57	0	393
6.6.1	win	2022-12-14	14:52:54	15:05:59	784030	610024bfd6e1038ba3b1601d	82241873	1	main_z	11	main_z	111	stimuli_target_trianglesquares.svg	stimuli_distractor_trianglediamonds.svg	18	yes	44	1	1128
6.6.1	win	2022-12-14	14:52:54	15:05:59	784030	610024bfd6e1038ba3b1601d	82241873	1	main_z	11	advance_on_keypress_ZEE	112	stimuli_target_trianglesquares.svg	stimuli_distractor_trianglediamonds.svg	18	yes	57	0	387
6.6.1	win	2022-12-14	14:52:54	15:06:01	785798	610024bfd6e1038ba3b1601d	82241873	1	main_z	11	main_z	113	stimuli_target_trianglecircles.svg	stimuli_distractor_diamondtriangles.svg	21	yes	44	1	747
6.6.1	win	2022-12-14	14:52:54	15:06:01	785798	610024bfd6e1038ba3b1601d	82241873	1	main_z	11	advance_on_keypress_ZEE	114	stimuli_target_trianglecircles.svg	stimuli_distractor_diamondtriangles.svg	21	yes	57	0	476
6.6.1	win	2022-12-14	14:52:54	15:06:03	787750	610024bfd6e1038ba3b1601d	82241873	1	main_z	11	main_z	115	stimuli_distractor_trianglediamonds.svg	stimuli_target_circlediamonds.svg	10	yes	44	1	832
6.6.1	win	2022-12-14	14:52:54	15:06:03	787750	610024bfd6e1038ba3b1601d	82241873	1	main_z	11	advance_on_keypress_ZEE	116	stimuli_distractor_trianglediamonds.svg	stimuli_target_circlediamonds.svg	10	yes	57	0	454
6.6.1	win	2022-12-14	14:52:54	15:06:06	790851	610024bfd6e1038ba3b1601d	82241873	1	main_z	11	main_z	117	stimuli_distractor_diamondtriangles.svg	stimuli_distractor_diamondtriangles.svg	40	no	0	1	2000
6.6.1	win	2022-12-14	14:52:54	15:06:06	790851	610024bfd6e1038ba3b1601d	82241873	1	main_z	11	advance_on_keypress_ZEE	118	stimuli_distractor_diamondtriangles.svg	stimuli_distractor_diamondtriangles.svg	40	no	57	0	354
6.6.1	win	2022-12-14	14:52:54	15:06:07	792630	610024bfd6e1038ba3b1601d	82241873	1	main_z	11	main_z	119	stimuli_distractor_diamondtriangles.svg	stimuli_distractor_trianglediamonds.svg	38	no	44	0	779
6.6.1	win	2022-12-14	14:52:54	15:06:07	792630	610024bfd6e1038ba3b1601d	82241873	1	main_z	11	advance_on_keypress_ZEE	120	stimuli_distractor_diamondtriangles.svg	stimuli_distractor_trianglediamonds.svg	38	no	57	0	883
6.6.1	win	2022-12-14	14:52:54	15:06:10	795110	610024bfd6e1038ba3b1601d	82241873	1	main_z	11	main_z	121	stimuli_target_circletriangles.svg	stimuli_distractor_trianglediamonds.svg	1	yes	44	1	959
6.6.1	win	2022-12-14	14:52:54	15:06:10	795110	610024bfd6e1038ba3b1601d	82241873	1	main_z	11	advance_on_keypress_ZEE	122	stimuli_target_circletriangles.svg	stimuli_distractor_trianglediamonds.svg	1	yes	57	0	544
6.6.1	win	2022-12-14	14:52:54	15:06:12	797326	610024bfd6e1038ba3b1601d	82241873	1	main_z	11	main_z	123	stimuli_distractor_diamondtriangles.svg	stimuli_target_diamondsquares.svg	32	yes	44	1	1041
6.6.1	win	2022-12-14	14:52:54	15:06:12	797326	610024bfd6e1038ba3b1601d	82241873	1	main_z	11	advance_on_keypress_ZEE	124	stimuli_distractor_diamondtriangles.svg	stimuli_target_diamondsquares.svg	32	yes	57	0	407
6.6.1	win	2022-12-14	14:52:54	15:06:14	799534	610024bfd6e1038ba3b1601d	82241873	1	main_z	11	main_z	125	stimuli_distractor_diamondtriangles.svg	stimuli_distractor_trianglediamonds.svg	37	no	44	0	1166
6.6.1	win	2022-12-14	14:52:54	15:06:14	799534	610024bfd6e1038ba3b1601d	82241873	1	main_z	11	advance_on_keypress_ZEE	126	stimuli_distractor_diamondtriangles.svg	stimuli_distractor_trianglediamonds.svg	37	no	57	0	510
6.6.1	win	2022-12-14	14:52:54	15:06:17	801702	610024bfd6e1038ba3b1601d	82241873	1	main_z	11	main_z	127	stimuli_distractor_trianglediamonds.svg	stimuli_target_squarediamonds.svg	12	yes	44	1	1017
6.6.1	win	2022-12-14	14:52:54	15:06:17	801702	610024bfd6e1038ba3b1601d	82241873	1	main_z	11	advance_on_keypress_ZEE	128	stimuli_distractor_trianglediamonds.svg	stimuli_target_squarediamonds.svg	12	yes	57	0	416
6.6.1	win	2022-12-14	14:52:54	15:06:19	803758	610024bfd6e1038ba3b1601d	82241873	1	main_z	11	main_z	129	stimuli_distractor_diamondtriangles.svg	stimuli_target_trianglecircles.svg	29	yes	44	1	990
6.6.1	win	2022-12-14	14:52:54	15:06:19	803758	610024bfd6e1038ba3b1601d	82241873	1	main_z	11	advance_on_keypress_ZEE	130	stimuli_distractor_diamondtriangles.svg	stimuli_target_trianglecircles.svg	29	yes	57	0	414
6.6.1	win	2022-12-14	14:52:54	15:06:21	805758	610024bfd6e1038ba3b1601d	82241873	1	main_z	11	main_z	131	stimuli_distractor_trianglediamonds.svg	stimuli_target_diamondcircles.svg	27	yes	44	1	940
6.6.1	win	2022-12-14	14:52:54	15:06:21	805758	610024bfd6e1038ba3b1601d	82241873	1	main_z	11	advance_on_keypress_ZEE	132	stimuli_distractor_trianglediamonds.svg	stimuli_target_diamondcircles.svg	27	yes	57	0	398
6.6.1	win	2022-12-14	14:52:54	15:06:22	807590	610024bfd6e1038ba3b1601d	82241873	1	main_z	11	main_z	133	stimuli_target_diamondcircles.svg	stimuli_distractor_diamondtriangles.svg	23	yes	44	1	788
6.6.1	win	2022-12-14	14:52:54	15:06:22	807590	610024bfd6e1038ba3b1601d	82241873	1	main_z	11	advance_on_keypress_ZEE	134	stimuli_target_diamondcircles.svg	stimuli_distractor_diamondtriangles.svg	23	yes	57	0	460
6.6.1	win	2022-12-14	14:52:54	15:06:24	809646	610024bfd6e1038ba3b1601d	82241873	1	main_z	11	main_z	135	stimuli_target_diamondsquares.svg	stimuli_distractor_diamondtriangles.svg	24	yes	44	1	961
6.6.1	win	2022-12-14	14:52:54	15:06:24	809646	610024bfd6e1038ba3b1601d	82241873	1	main_z	11	advance_on_keypress_ZEE	136	stimuli_target_diamondsquares.svg	stimuli_distractor_diamondtriangles.svg	24	yes	57	0	354
6.6.1	win	2022-12-14	14:52:54	15:06:27	812046	610024bfd6e1038ba3b1601d	82241873	1	main_z	11	main_z	137	stimuli_distractor_diamondtriangles.svg	stimuli_target_squaretriangles.svg	15	yes	44	1	1411
6.6.1	win	2022-12-14	14:52:54	15:06:27	812046	610024bfd6e1038ba3b1601d	82241873	1	main_z	11	advance_on_keypress_ZEE	138	stimuli_distractor_diamondtriangles.svg	stimuli_target_squaretriangles.svg	15	yes	57	0	274
6.6.1	win	2022-12-14	14:52:54	15:06:30	814968	610024bfd6e1038ba3b1601d	82241873	1	main_z	11	main_z	139	stimuli_distractor_trianglediamonds.svg	stimuli_distractor_diamondtriangles.svg	35	no	0	1	2000
6.6.1	win	2022-12-14	14:52:54	15:06:30	814968	610024bfd6e1038ba3b1601d	82241873	1	main_z	11	advance_on_keypress_ZEE	140	stimuli_distractor_trianglediamonds.svg	stimuli_distractor_diamondtriangles.svg	35	no	57	0	8821
6.6.1	win	2022-12-14	14:52:54	15:06:41	826434	610024bfd6e1038ba3b1601d	82241873	1	main_z	11	main_z	141	stimuli_distractor_trianglediamonds.svg	stimuli_distractor_trianglediamonds.svg	33	no	0	1	2000
6.6.1	win	2022-12-14	14:52:54	15:06:41	826434	610024bfd6e1038ba3b1601d	82241873	1	main_z	11	advance_on_keypress_ZEE	142	stimuli_distractor_trianglediamonds.svg	stimuli_distractor_trianglediamonds.svg	33	no	57	0	450
6.6.1	win	2022-12-14	14:52:54	15:06:43	828173	610024bfd6e1038ba3b1601d	82241873	1	main_z	11	main_z	143	stimuli_target_squarediamonds.svg	stimuli_distractor_trianglediamonds.svg	4	yes	44	1	639
6.6.1	win	2022-12-14	14:52:54	15:06:43	828173	610024bfd6e1038ba3b1601d	82241873	1	main_z	11	advance_on_keypress_ZEE	144	stimuli_target_squarediamonds.svg	stimuli_distractor_trianglediamonds.svg	4	yes	57	0	389
6.6.1	win	2022-12-14	14:52:54	15:06:45	830158	610024bfd6e1038ba3b1601d	82241873	1	main_z	11	main_z	145	stimuli_distractor_trianglediamonds.svg	stimuli_target_squaretriangles.svg	11	yes	44	1	956
6.6.1	win	2022-12-14	14:52:54	15:06:45	830158	610024bfd6e1038ba3b1601d	82241873	1	main_z	11	advance_on_keypress_ZEE	146	stimuli_distractor_trianglediamonds.svg	stimuli_target_squaretriangles.svg	11	yes	57	0	438
6.6.1	win	2022-12-14	14:52:54	15:06:47	832158	610024bfd6e1038ba3b1601d	82241873	1	main_z	11	main_z	147	stimuli_distractor_trianglediamonds.svg	stimuli_target_diamondsquares.svg	28	yes	44	1	923
6.6.1	win	2022-12-14	14:52:54	15:06:47	832158	610024bfd6e1038ba3b1601d	82241873	1	main_z	11	advance_on_keypress_ZEE	148	stimuli_distractor_trianglediamonds.svg	stimuli_target_diamondsquares.svg	28	yes	57	0	374
6.6.1	win	2022-12-14	14:52:54	15:06:49	833726	610024bfd6e1038ba3b1601d	82241873	1	main_z	11	main_z	149	stimuli_distractor_diamondtriangles.svg	stimuli_target_trianglesquares.svg	30	yes	44	1	558
6.6.1	win	2022-12-14	14:52:54	15:06:49	833726	610024bfd6e1038ba3b1601d	82241873	1	main_z	11	advance_on_keypress_ZEE	150	stimuli_distractor_diamondtriangles.svg	stimuli_target_trianglesquares.svg	30	yes	57	0	391
6.6.1	win	2022-12-14	14:52:54	15:06:50	835549	610024bfd6e1038ba3b1601d	82241873	1	main_z	11	main_z	151	stimuli_target_squarediamonds.svg	stimuli_distractor_diamondtriangles.svg	8	yes	44	1	798
6.6.1	win	2022-12-14	14:52:54	15:06:50	835549	610024bfd6e1038ba3b1601d	82241873	1	main_z	11	advance_on_keypress_ZEE	152	stimuli_target_squarediamonds.svg	stimuli_distractor_diamondtriangles.svg	8	yes	57	0	342
6.6.1	win	2022-12-14	14:52:54	15:06:52	837262	610024bfd6e1038ba3b1601d	82241873	1	main_z	11	main_z	153	stimuli_target_circlediamonds.svg	stimuli_distractor_trianglediamonds.svg	2	yes	44	1	727
6.6.1	win	2022-12-14	14:52:54	15:06:52	837262	610024bfd6e1038ba3b1601d	82241873	1	main_z	11	advance_on_keypress_ZEE	154	stimuli_target_circlediamonds.svg	stimuli_distractor_trianglediamonds.svg	2	yes	57	0	386
6.6.1	win	2022-12-14	14:52:54	15:06:54	838974	610024bfd6e1038ba3b1601d	82241873	1	main_z	11	main_z	155	stimuli_distractor_trianglediamonds.svg	stimuli_target_circletriangles.svg	9	yes	44	1	689
6.6.1	win	2022-12-14	14:52:54	15:06:54	838974	610024bfd6e1038ba3b1601d	82241873	1	main_z	11	advance_on_keypress_ZEE	156	stimuli_distractor_trianglediamonds.svg	stimuli_target_circletriangles.svg	9	yes	57	0	357
6.6.1	win	2022-12-14	14:52:54	15:06:56	840662	610024bfd6e1038ba3b1601d	82241873	1	main_z	11	main_z	157	stimuli_distractor_trianglediamonds.svg	stimuli_target_trianglesquares.svg	26	yes	44	1	694
6.6.1	win	2022-12-14	14:52:54	15:06:56	840662	610024bfd6e1038ba3b1601d	82241873	1	main_z	11	advance_on_keypress_ZEE	158	stimuli_distractor_trianglediamonds.svg	stimuli_target_trianglesquares.svg	26	yes	57	0	410
6.6.1	win	2022-12-14	14:52:54	15:06:58	842790	610024bfd6e1038ba3b1601d	82241873	1	main_z	11	main_z	159	stimuli_target_circlediamonds.svg	stimuli_distractor_diamondtriangles.svg	6	yes	44	1	1088
6.6.1	win	2022-12-14	14:52:54	15:06:58	842790	610024bfd6e1038ba3b1601d	82241873	1	main_z	11	advance_on_keypress_ZEE	160	stimuli_target_circlediamonds.svg	stimuli_distractor_diamondtriangles.svg	6	yes	57	0	388