build	computer.platform	date	time	timestamp	time_elapsed_ms	subject	group	session	blockcode	blocknum	trialcode	trialnum	stimulus_left	stimulus_right	stim_index	target_present	response	correct	latency
6.6.1	win	2022-12-21	17:24:55	17:27:32	156132	60f6d47e13b6f6b93d860dfe	274258796	1	practice_z	5	practice_z	1	stimuli_distractor_diamondtriangles.svg	stimuli_target_circletriangles.svg	7	yes	0	0	2000
6.6.1	win	2022-12-21	17:24:55	17:27:32	156132	60f6d47e13b6f6b93d860dfe	274258796	1	practice_z	5	advance_on_keypress_ZEE	2	stimuli_distractor_diamondtriangles.svg	stimuli_target_circletriangles.svg	7	yes	57	0	2348
6.6.1	win	2022-12-21	17:24:55	17:27:38	161217	60f6d47e13b6f6b93d860dfe	274258796	1	practice_z	5	practice_z	3	stimuli_distractor_diamondtriangles.svg	stimuli_distractor_trianglediamonds.svg	14	no	44	0	1087
6.6.1	win	2022-12-21	17:24:55	17:27:38	161217	60f6d47e13b6f6b93d860dfe	274258796	1	practice_z	5	advance_on_keypress_ZEE	4	stimuli_distractor_diamondtriangles.svg	stimuli_distractor_trianglediamonds.svg	14	no	57	0	1192
6.6.1	win	2022-12-21	17:24:55	17:27:42	165278	60f6d47e13b6f6b93d860dfe	274258796	1	practice_z	5	practice_z	5	stimuli_target_diamondsquares.svg	stimuli_distractor_trianglediamonds.svg	6	yes	44	1	1217
6.6.1	win	2022-12-21	17:24:55	17:27:42	165278	60f6d47e13b6f6b93d860dfe	274258796	1	practice_z	5	advance_on_keypress_ZEE	6	stimuli_target_diamondsquares.svg	stimuli_distractor_trianglediamonds.svg	6	yes	57	0	754
6.6.1	win	2022-12-21	17:24:55	17:27:45	168904	60f6d47e13b6f6b93d860dfe	274258796	1	practice_z	5	practice_z	7	stimuli_target_diamondsquares.svg	stimuli_distractor_diamondtriangles.svg	3	yes	44	1	1228
6.6.1	win	2022-12-21	17:24:55	17:27:45	168904	60f6d47e13b6f6b93d860dfe	274258796	1	practice_z	5	advance_on_keypress_ZEE	8	stimuli_target_diamondsquares.svg	stimuli_distractor_diamondtriangles.svg	3	yes	57	0	1001
6.6.1	win	2022-12-21	17:24:55	17:27:49	172550	60f6d47e13b6f6b93d860dfe	274258796	1	practice_z	5	practice_z	9	stimuli_target_squarediamonds.svg	stimuli_distractor_diamondtriangles.svg	2	yes	44	1	992
6.6.1	win	2022-12-21	17:24:55	17:27:49	172550	60f6d47e13b6f6b93d860dfe	274258796	1	practice_z	5	advance_on_keypress_ZEE	10	stimuli_target_squarediamonds.svg	stimuli_distractor_diamondtriangles.svg	2	yes	57	0	781
6.6.1	win	2022-12-21	17:24:55	17:27:52	176093	60f6d47e13b6f6b93d860dfe	274258796	1	practice_z	5	practice_z	11	stimuli_target_circlediamonds.svg	stimuli_distractor_diamondtriangles.svg	1	yes	44	1	1104
6.6.1	win	2022-12-21	17:24:55	17:27:52	176093	60f6d47e13b6f6b93d860dfe	274258796	1	practice_z	5	advance_on_keypress_ZEE	12	stimuli_target_circlediamonds.svg	stimuli_distractor_diamondtriangles.svg	1	yes	57	0	493
6.6.1	win	2022-12-21	17:24:55	17:27:55	178970	60f6d47e13b6f6b93d860dfe	274258796	1	practice_z	5	practice_z	13	stimuli_distractor_diamondtriangles.svg	stimuli_target_diamondcircles.svg	8	yes	44	1	733
6.6.1	win	2022-12-21	17:24:55	17:27:55	178970	60f6d47e13b6f6b93d860dfe	274258796	1	practice_z	5	advance_on_keypress_ZEE	14	stimuli_distractor_diamondtriangles.svg	stimuli_target_diamondcircles.svg	8	yes	57	0	437
6.6.1	win	2022-12-21	17:24:55	17:27:58	181963	60f6d47e13b6f6b93d860dfe	274258796	1	practice_z	5	practice_z	15	stimuli_target_circlediamonds.svg	stimuli_distractor_trianglediamonds.svg	4	yes	44	1	909
6.6.1	win	2022-12-21	17:24:55	17:27:58	181963	60f6d47e13b6f6b93d860dfe	274258796	1	practice_z	5	advance_on_keypress_ZEE	16	stimuli_target_circlediamonds.svg	stimuli_distractor_trianglediamonds.svg	4	yes	57	0	724
6.6.1	win	2022-12-21	17:24:55	17:28:03	186336	60f6d47e13b6f6b93d860dfe	274258796	1	practice_z	5	practice_z	17	stimuli_distractor_trianglediamonds.svg	stimuli_distractor_trianglediamonds.svg	15	no	0	1	2000
6.6.1	win	2022-12-21	17:24:55	17:28:03	186336	60f6d47e13b6f6b93d860dfe	274258796	1	practice_z	5	advance_on_keypress_ZEE	18	stimuli_distractor_trianglediamonds.svg	stimuli_distractor_trianglediamonds.svg	15	no	57	0	652
6.6.1	win	2022-12-21	17:24:55	17:28:06	189720	60f6d47e13b6f6b93d860dfe	274258796	1	practice_z	5	practice_z	19	stimuli_distractor_trianglediamonds.svg	stimuli_target_squarediamonds.svg	11	yes	44	1	1087
6.6.1	win	2022-12-21	17:24:55	17:28:06	189720	60f6d47e13b6f6b93d860dfe	274258796	1	practice_z	5	advance_on_keypress_ZEE	20	stimuli_distractor_trianglediamonds.svg	stimuli_target_squarediamonds.svg	11	yes	57	0	447
6.6.1	win	2022-12-21	17:24:55	17:28:09	192566	60f6d47e13b6f6b93d860dfe	274258796	1	practice_z	5	practice_z	21	stimuli_distractor_trianglediamonds.svg	stimuli_target_circlediamonds.svg	10	yes	44	1	751
6.6.1	win	2022-12-21	17:24:55	17:28:09	192566	60f6d47e13b6f6b93d860dfe	274258796	1	practice_z	5	advance_on_keypress_ZEE	22	stimuli_distractor_trianglediamonds.svg	stimuli_target_circlediamonds.svg	10	yes	57	0	1166
6.6.1	win	2022-12-21	17:24:55	17:28:13	196441	60f6d47e13b6f6b93d860dfe	274258796	1	practice_z	5	practice_z	23	stimuli_distractor_diamondtriangles.svg	stimuli_target_trianglecircles.svg	9	yes	44	1	1061
6.6.1	win	2022-12-21	17:24:55	17:28:13	196441	60f6d47e13b6f6b93d860dfe	274258796	1	practice_z	5	advance_on_keypress_ZEE	24	stimuli_distractor_diamondtriangles.svg	stimuli_target_trianglecircles.svg	9	yes	57	0	414
6.6.1	win	2022-12-21	17:24:55	17:28:16	199794	60f6d47e13b6f6b93d860dfe	274258796	1	practice_z	5	practice_z	25	stimuli_distractor_trianglediamonds.svg	stimuli_target_diamondcircles.svg	12	yes	44	1	1280
6.6.1	win	2022-12-21	17:24:55	17:28:16	199794	60f6d47e13b6f6b93d860dfe	274258796	1	practice_z	5	advance_on_keypress_ZEE	26	stimuli_distractor_trianglediamonds.svg	stimuli_target_diamondcircles.svg	12	yes	57	0	596
6.6.1	win	2022-12-21	17:24:55	17:28:20	204044	60f6d47e13b6f6b93d860dfe	274258796	1	practice_z	5	practice_z	27	stimuli_distractor_trianglediamonds.svg	stimuli_distractor_diamondtriangles.svg	16	no	0	1	2000
6.6.1	win	2022-12-21	17:24:55	17:28:20	204044	60f6d47e13b6f6b93d860dfe	274258796	1	practice_z	5	advance_on_keypress_ZEE	28	stimuli_distractor_trianglediamonds.svg	stimuli_distractor_diamondtriangles.svg	16	no	57	0	538
6.6.1	win	2022-12-21	17:24:55	17:28:24	207290	60f6d47e13b6f6b93d860dfe	274258796	1	practice_z	5	practice_z	29	stimuli_target_squarediamonds.svg	stimuli_distractor_trianglediamonds.svg	5	yes	44	1	1065
6.6.1	win	2022-12-21	17:24:55	17:28:24	207290	60f6d47e13b6f6b93d860dfe	274258796	1	practice_z	5	advance_on_keypress_ZEE	30	stimuli_target_squarediamonds.svg	stimuli_distractor_trianglediamonds.svg	5	yes	57	0	391
6.6.1	win	2022-12-21	17:24:55	17:28:28	211324	60f6d47e13b6f6b93d860dfe	274258796	1	practice_z	5	practice_z	31	stimuli_distractor_diamondtriangles.svg	stimuli_distractor_diamondtriangles.svg	13	no	0	1	2000
6.6.1	win	2022-12-21	17:24:55	17:28:28	211324	60f6d47e13b6f6b93d860dfe	274258796	1	practice_z	5	advance_on_keypress_ZEE	32	stimuli_distractor_diamondtriangles.svg	stimuli_distractor_diamondtriangles.svg	13	no	57	0	371
6.6.1	win	2022-12-21	17:24:55	17:28:37	220946	60f6d47e13b6f6b93d860dfe	274258796	1	main_z	7	main_z	1	stimuli_target_diamondcircles.svg	stimuli_distractor_trianglediamonds.svg	19	yes	44	1	963
6.6.1	win	2022-12-21	17:24:55	17:28:37	220946	60f6d47e13b6f6b93d860dfe	274258796	1	main_z	7	advance_on_keypress_ZEE	2	stimuli_target_diamondcircles.svg	stimuli_distractor_trianglediamonds.svg	19	yes	57	0	966
6.6.1	win	2022-12-21	17:24:55	17:28:40	223622	60f6d47e13b6f6b93d860dfe	274258796	1	main_z	7	main_z	3	stimuli_target_circlediamonds.svg	stimuli_distractor_trianglediamonds.svg	2	yes	44	1	1056
6.6.1	win	2022-12-21	17:24:55	17:28:40	223622	60f6d47e13b6f6b93d860dfe	274258796	1	main_z	7	advance_on_keypress_ZEE	4	stimuli_target_circlediamonds.svg	stimuli_distractor_trianglediamonds.svg	2	yes	57	0	861
6.6.1	win	2022-12-21	17:24:55	17:28:43	227131	60f6d47e13b6f6b93d860dfe	274258796	1	main_z	7	main_z	5	stimuli_distractor_diamondtriangles.svg	stimuli_distractor_diamondtriangles.svg	39	no	0	1	2000
6.6.1	win	2022-12-21	17:24:55	17:28:43	227131	60f6d47e13b6f6b93d860dfe	274258796	1	main_z	7	advance_on_keypress_ZEE	6	stimuli_distractor_diamondtriangles.svg	stimuli_distractor_diamondtriangles.svg	39	no	57	0	367
6.6.1	win	2022-12-21	17:24:55	17:28:45	229193	60f6d47e13b6f6b93d860dfe	274258796	1	main_z	7	main_z	7	stimuli_target_diamondsquares.svg	stimuli_distractor_diamondtriangles.svg	24	yes	44	1	1047
6.6.1	win	2022-12-21	17:24:55	17:28:45	229193	60f6d47e13b6f6b93d860dfe	274258796	1	main_z	7	advance_on_keypress_ZEE	8	stimuli_target_diamondsquares.svg	stimuli_distractor_diamondtriangles.svg	24	yes	57	0	1406
6.6.1	win	2022-12-21	17:24:55	17:28:49	232344	60f6d47e13b6f6b93d860dfe	274258796	1	main_z	7	main_z	9	stimuli_target_trianglecircles.svg	stimuli_distractor_diamondtriangles.svg	21	yes	44	1	1099
6.6.1	win	2022-12-21	17:24:55	17:28:49	232344	60f6d47e13b6f6b93d860dfe	274258796	1	main_z	7	advance_on_keypress_ZEE	10	stimuli_target_trianglecircles.svg	stimuli_distractor_diamondtriangles.svg	21	yes	57	0	1048
6.6.1	win	2022-12-21	17:24:55	17:28:52	236044	60f6d47e13b6f6b93d860dfe	274258796	1	main_z	7	main_z	11	stimuli_distractor_trianglediamonds.svg	stimuli_distractor_trianglediamonds.svg	34	no	0	1	2000
6.6.1	win	2022-12-21	17:24:55	17:28:52	236044	60f6d47e13b6f6b93d860dfe	274258796	1	main_z	7	advance_on_keypress_ZEE	12	stimuli_distractor_trianglediamonds.svg	stimuli_distractor_trianglediamonds.svg	34	no	57	0	266
6.6.1	win	2022-12-21	17:24:55	17:28:54	237978	60f6d47e13b6f6b93d860dfe	274258796	1	main_z	7	main_z	13	stimuli_target_diamondsquares.svg	stimuli_distractor_trianglediamonds.svg	20	yes	44	1	1020
6.6.1	win	2022-12-21	17:24:55	17:28:54	237978	60f6d47e13b6f6b93d860dfe	274258796	1	main_z	7	advance_on_keypress_ZEE	14	stimuli_target_diamondsquares.svg	stimuli_distractor_trianglediamonds.svg	20	yes	57	0	986
6.6.1	win	2022-12-21	17:24:55	17:28:57	240752	60f6d47e13b6f6b93d860dfe	274258796	1	main_z	7	main_z	15	stimuli_distractor_trianglediamonds.svg	stimuli_target_circlediamonds.svg	10	yes	44	1	1145
6.6.1	win	2022-12-21	17:24:55	17:28:57	240752	60f6d47e13b6f6b93d860dfe	274258796	1	main_z	7	advance_on_keypress_ZEE	16	stimuli_distractor_trianglediamonds.svg	stimuli_target_circlediamonds.svg	10	yes	57	0	1463
6.6.1	win	2022-12-21	17:24:55	17:29:01	244873	60f6d47e13b6f6b93d860dfe	274258796	1	main_z	7	main_z	17	stimuli_distractor_trianglediamonds.svg	stimuli_distractor_diamondtriangles.svg	35	no	0	1	2000
6.6.1	win	2022-12-21	17:24:55	17:29:01	244873	60f6d47e13b6f6b93d860dfe	274258796	1	main_z	7	advance_on_keypress_ZEE	18	stimuli_distractor_trianglediamonds.svg	stimuli_distractor_diamondtriangles.svg	35	no	57	0	559
6.6.1	win	2022-12-21	17:24:55	17:29:03	247126	60f6d47e13b6f6b93d860dfe	274258796	1	main_z	7	main_z	19	stimuli_distractor_trianglediamonds.svg	stimuli_target_squaretriangles.svg	11	yes	44	1	1038
6.6.1	win	2022-12-21	17:24:55	17:29:03	247126	60f6d47e13b6f6b93d860dfe	274258796	1	main_z	7	advance_on_keypress_ZEE	20	stimuli_distractor_trianglediamonds.svg	stimuli_target_squaretriangles.svg	11	yes	57	0	802
6.6.1	win	2022-12-21	17:24:55	17:29:06	249893	60f6d47e13b6f6b93d860dfe	274258796	1	main_z	7	main_z	21	stimuli_distractor_diamondtriangles.svg	stimuli_distractor_diamondtriangles.svg	40	no	44	0	1238
6.6.1	win	2022-12-21	17:24:55	17:29:06	249893	60f6d47e13b6f6b93d860dfe	274258796	1	main_z	7	advance_on_keypress_ZEE	22	stimuli_distractor_diamondtriangles.svg	stimuli_distractor_diamondtriangles.svg	40	no	57	0	876
6.6.1	win	2022-12-21	17:24:55	17:29:09	252557	60f6d47e13b6f6b93d860dfe	274258796	1	main_z	7	main_z	23	stimuli_distractor_trianglediamonds.svg	stimuli_target_circletriangles.svg	9	yes	44	1	1139
6.6.1	win	2022-12-21	17:24:55	17:29:09	252557	60f6d47e13b6f6b93d860dfe	274258796	1	main_z	7	advance_on_keypress_ZEE	24	stimuli_distractor_trianglediamonds.svg	stimuli_target_circletriangles.svg	9	yes	57	0	770
6.6.1	win	2022-12-21	17:24:55	17:29:11	255141	60f6d47e13b6f6b93d860dfe	274258796	1	main_z	7	main_z	25	stimuli_target_squaretriangles.svg	stimuli_distractor_trianglediamonds.svg	3	yes	44	1	1174
6.6.1	win	2022-12-21	17:24:55	17:29:11	255141	60f6d47e13b6f6b93d860dfe	274258796	1	main_z	7	advance_on_keypress_ZEE	26	stimuli_target_squaretriangles.svg	stimuli_distractor_trianglediamonds.svg	3	yes	57	0	1112
6.6.1	win	2022-12-21	17:24:55	17:29:15	258358	60f6d47e13b6f6b93d860dfe	274258796	1	main_z	7	main_z	27	stimuli_target_squarediamonds.svg	stimuli_distractor_trianglediamonds.svg	4	yes	44	1	1458
6.6.1	win	2022-12-21	17:24:55	17:29:15	258358	60f6d47e13b6f6b93d860dfe	274258796	1	main_z	7	advance_on_keypress_ZEE	28	stimuli_target_squarediamonds.svg	stimuli_distractor_trianglediamonds.svg	4	yes	57	0	585
6.6.1	win	2022-12-21	17:24:55	17:29:17	260556	60f6d47e13b6f6b93d860dfe	274258796	1	main_z	7	main_z	29	stimuli_distractor_diamondtriangles.svg	stimuli_target_diamondcircles.svg	31	yes	44	1	974
6.6.1	win	2022-12-21	17:24:55	17:29:17	260556	60f6d47e13b6f6b93d860dfe	274258796	1	main_z	7	advance_on_keypress_ZEE	30	stimuli_distractor_diamondtriangles.svg	stimuli_target_diamondcircles.svg	31	yes	57	0	666
6.6.1	win	2022-12-21	17:24:55	17:29:19	262925	60f6d47e13b6f6b93d860dfe	274258796	1	main_z	7	main_z	31	stimuli_target_squaretriangles.svg	stimuli_distractor_diamondtriangles.svg	7	yes	44	1	1060
6.6.1	win	2022-12-21	17:24:55	17:29:19	262925	60f6d47e13b6f6b93d860dfe	274258796	1	main_z	7	advance_on_keypress_ZEE	32	stimuli_target_squaretriangles.svg	stimuli_distractor_diamondtriangles.svg	7	yes	57	0	558
6.6.1	win	2022-12-21	17:24:55	17:29:21	265144	60f6d47e13b6f6b93d860dfe	274258796	1	main_z	7	main_z	33	stimuli_distractor_trianglediamonds.svg	stimuli_target_diamondcircles.svg	27	yes	44	1	1015
6.6.1	win	2022-12-21	17:24:55	17:29:21	265144	60f6d47e13b6f6b93d860dfe	274258796	1	main_z	7	advance_on_keypress_ZEE	34	stimuli_distractor_trianglediamonds.svg	stimuli_target_diamondcircles.svg	27	yes	57	0	701
6.6.1	win	2022-12-21	17:24:55	17:29:25	268495	60f6d47e13b6f6b93d860dfe	274258796	1	main_z	7	main_z	35	stimuli_distractor_trianglediamonds.svg	stimuli_target_diamondsquares.svg	28	yes	0	0	2000
6.6.1	win	2022-12-21	17:24:55	17:29:25	268495	60f6d47e13b6f6b93d860dfe	274258796	1	main_z	7	advance_on_keypress_ZEE	36	stimuli_distractor_trianglediamonds.svg	stimuli_target_diamondsquares.svg	28	yes	57	0	356
6.6.1	win	2022-12-21	17:24:55	17:29:28	271494	60f6d47e13b6f6b93d860dfe	274258796	1	main_z	7	main_z	37	stimuli_distractor_diamondtriangles.svg	stimuli_distractor_trianglediamonds.svg	37	no	0	1	2000
6.6.1	win	2022-12-21	17:24:55	17:29:28	271494	60f6d47e13b6f6b93d860dfe	274258796	1	main_z	7	advance_on_keypress_ZEE	38	stimuli_distractor_diamondtriangles.svg	stimuli_distractor_trianglediamonds.svg	37	no	57	0	427
6.6.1	win	2022-12-21	17:24:55	17:29:30	273626	60f6d47e13b6f6b93d860dfe	274258796	1	main_z	7	main_z	39	stimuli_target_squarediamonds.svg	stimuli_distractor_diamondtriangles.svg	8	yes	44	1	1050
6.6.1	win	2022-12-21	17:24:55	17:29:30	273626	60f6d47e13b6f6b93d860dfe	274258796	1	main_z	7	advance_on_keypress_ZEE	40	stimuli_target_squarediamonds.svg	stimuli_distractor_diamondtriangles.svg	8	yes	57	0	757
6.6.1	win	2022-12-21	17:24:55	17:29:33	277025	60f6d47e13b6f6b93d860dfe	274258796	1	main_z	7	main_z	41	stimuli_distractor_trianglediamonds.svg	stimuli_distractor_diamondtriangles.svg	36	no	0	1	2000
6.6.1	win	2022-12-21	17:24:55	17:29:33	277025	60f6d47e13b6f6b93d860dfe	274258796	1	main_z	7	advance_on_keypress_ZEE	42	stimuli_distractor_trianglediamonds.svg	stimuli_distractor_diamondtriangles.svg	36	no	57	0	305
6.6.1	win	2022-12-21	17:24:55	17:29:35	279060	60f6d47e13b6f6b93d860dfe	274258796	1	main_z	7	main_z	43	stimuli_target_circlediamonds.svg	stimuli_distractor_diamondtriangles.svg	6	yes	44	1	1087
6.6.1	win	2022-12-21	17:24:55	17:29:35	279060	60f6d47e13b6f6b93d860dfe	274258796	1	main_z	7	advance_on_keypress_ZEE	44	stimuli_target_circlediamonds.svg	stimuli_distractor_diamondtriangles.svg	6	yes	57	0	852
6.6.1	win	2022-12-21	17:24:55	17:29:38	281796	60f6d47e13b6f6b93d860dfe	274258796	1	main_z	7	main_z	45	stimuli_target_circletriangles.svg	stimuli_distractor_diamondtriangles.svg	5	yes	44	1	1240
6.6.1	win	2022-12-21	17:24:55	17:29:38	281796	60f6d47e13b6f6b93d860dfe	274258796	1	main_z	7	advance_on_keypress_ZEE	46	stimuli_target_circletriangles.svg	stimuli_distractor_diamondtriangles.svg	5	yes	57	0	835
6.6.1	win	2022-12-21	17:24:55	17:29:41	284545	60f6d47e13b6f6b93d860dfe	274258796	1	main_z	7	main_z	47	stimuli_distractor_diamondtriangles.svg	stimuli_target_circlediamonds.svg	14	yes	44	1	1273
6.6.1	win	2022-12-21	17:24:55	17:29:41	284545	60f6d47e13b6f6b93d860dfe	274258796	1	main_z	7	advance_on_keypress_ZEE	48	stimuli_distractor_diamondtriangles.svg	stimuli_target_circlediamonds.svg	14	yes	57	0	651
6.6.1	win	2022-12-21	17:24:55	17:29:44	287837	60f6d47e13b6f6b93d860dfe	274258796	1	main_z	7	main_z	49	stimuli_distractor_trianglediamonds.svg	stimuli_distractor_trianglediamonds.svg	33	no	0	1	2000
6.6.1	win	2022-12-21	17:24:55	17:29:44	287837	60f6d47e13b6f6b93d860dfe	274258796	1	main_z	7	advance_on_keypress_ZEE	50	stimuli_distractor_trianglediamonds.svg	stimuli_distractor_trianglediamonds.svg	33	no	57	0	349
6.6.1	win	2022-12-21	17:24:55	17:29:47	290836	60f6d47e13b6f6b93d860dfe	274258796	1	main_z	7	main_z	51	stimuli_target_trianglesquares.svg	stimuli_distractor_diamondtriangles.svg	22	yes	0	0	2000
6.6.1	win	2022-12-21	17:24:55	17:29:47	290836	60f6d47e13b6f6b93d860dfe	274258796	1	main_z	7	advance_on_keypress_ZEE	52	stimuli_target_trianglesquares.svg	stimuli_distractor_diamondtriangles.svg	22	yes	57	0	295
6.6.1	win	2022-12-21	17:24:55	17:29:50	293784	60f6d47e13b6f6b93d860dfe	274258796	1	main_z	7	main_z	53	stimuli_distractor_diamondtriangles.svg	stimuli_distractor_trianglediamonds.svg	38	no	0	1	2000
6.6.1	win	2022-12-21	17:24:55	17:29:50	293784	60f6d47e13b6f6b93d860dfe	274258796	1	main_z	7	advance_on_keypress_ZEE	54	stimuli_distractor_diamondtriangles.svg	stimuli_distractor_trianglediamonds.svg	38	no	57	0	353
6.6.1	win	2022-12-21	17:24:55	17:29:52	295721	60f6d47e13b6f6b93d860dfe	274258796	1	main_z	7	main_z	55	stimuli_distractor_trianglediamonds.svg	stimuli_target_squarediamonds.svg	12	yes	44	1	938
6.6.1	win	2022-12-21	17:24:55	17:29:52	295721	60f6d47e13b6f6b93d860dfe	274258796	1	main_z	7	advance_on_keypress_ZEE	56	stimuli_distractor_trianglediamonds.svg	stimuli_target_squarediamonds.svg	12	yes	57	0	576
6.6.1	win	2022-12-21	17:24:55	17:29:54	297973	60f6d47e13b6f6b93d860dfe	274258796	1	main_z	7	main_z	57	stimuli_distractor_trianglediamonds.svg	stimuli_target_trianglesquares.svg	26	yes	44	1	1041
6.6.1	win	2022-12-21	17:24:55	17:29:54	297973	60f6d47e13b6f6b93d860dfe	274258796	1	main_z	7	advance_on_keypress_ZEE	58	stimuli_distractor_trianglediamonds.svg	stimuli_target_trianglesquares.svg	26	yes	57	0	674
6.6.1	win	2022-12-21	17:24:55	17:29:57	300351	60f6d47e13b6f6b93d860dfe	274258796	1	main_z	7	main_z	59	stimuli_distractor_diamondtriangles.svg	stimuli_target_circletriangles.svg	13	yes	44	1	1070
6.6.1	win	2022-12-21	17:24:55	17:29:57	300351	60f6d47e13b6f6b93d860dfe	274258796	1	main_z	7	advance_on_keypress_ZEE	60	stimuli_distractor_diamondtriangles.svg	stimuli_target_circletriangles.svg	13	yes	57	0	569
6.6.1	win	2022-12-21	17:24:55	17:29:59	302703	60f6d47e13b6f6b93d860dfe	274258796	1	main_z	7	main_z	61	stimuli_distractor_diamondtriangles.svg	stimuli_target_diamondsquares.svg	32	yes	44	1	1141
6.6.1	win	2022-12-21	17:24:55	17:29:59	302703	60f6d47e13b6f6b93d860dfe	274258796	1	main_z	7	advance_on_keypress_ZEE	62	stimuli_distractor_diamondtriangles.svg	stimuli_target_diamondsquares.svg	32	yes	57	0	606
6.6.1	win	2022-12-21	17:24:55	17:30:01	305045	60f6d47e13b6f6b93d860dfe	274258796	1	main_z	7	main_z	63	stimuli_distractor_diamondtriangles.svg	stimuli_target_squarediamonds.svg	16	yes	44	1	1099
6.6.1	win	2022-12-21	17:24:55	17:30:01	305045	60f6d47e13b6f6b93d860dfe	274258796	1	main_z	7	advance_on_keypress_ZEE	64	stimuli_distractor_diamondtriangles.svg	stimuli_target_squarediamonds.svg	16	yes	57	0	633
6.6.1	win	2022-12-21	17:24:55	17:30:04	307431	60f6d47e13b6f6b93d860dfe	274258796	1	main_z	7	main_z	65	stimuli_distractor_diamondtriangles.svg	stimuli_target_trianglesquares.svg	30	yes	44	1	1103
6.6.1	win	2022-12-21	17:24:55	17:30:04	307431	60f6d47e13b6f6b93d860dfe	274258796	1	main_z	7	advance_on_keypress_ZEE	66	stimuli_distractor_diamondtriangles.svg	stimuli_target_trianglesquares.svg	30	yes	57	0	622
6.6.1	win	2022-12-21	17:24:55	17:30:06	309758	60f6d47e13b6f6b93d860dfe	274258796	1	main_z	7	main_z	67	stimuli_target_circletriangles.svg	stimuli_distractor_trianglediamonds.svg	1	yes	44	1	1065
6.6.1	win	2022-12-21	17:24:55	17:30:06	309758	60f6d47e13b6f6b93d860dfe	274258796	1	main_z	7	advance_on_keypress_ZEE	68	stimuli_target_circletriangles.svg	stimuli_distractor_trianglediamonds.svg	1	yes	57	0	473
6.6.1	win	2022-12-21	17:24:55	17:30:08	311990	60f6d47e13b6f6b93d860dfe	274258796	1	main_z	7	main_z	69	stimuli_target_trianglesquares.svg	stimuli_distractor_trianglediamonds.svg	18	yes	44	1	1114
6.6.1	win	2022-12-21	17:24:55	17:30:08	311990	60f6d47e13b6f6b93d860dfe	274258796	1	main_z	7	advance_on_keypress_ZEE	70	stimuli_target_trianglesquares.svg	stimuli_distractor_trianglediamonds.svg	18	yes	57	0	530
6.6.1	win	2022-12-21	17:24:55	17:30:10	314184	60f6d47e13b6f6b93d860dfe	274258796	1	main_z	7	main_z	71	stimuli_distractor_diamondtriangles.svg	stimuli_target_squaretriangles.svg	15	yes	44	1	1010
6.6.1	win	2022-12-21	17:24:55	17:30:10	314184	60f6d47e13b6f6b93d860dfe	274258796	1	main_z	7	advance_on_keypress_ZEE	72	stimuli_distractor_diamondtriangles.svg	stimuli_target_squaretriangles.svg	15	yes	57	0	491
6.6.1	win	2022-12-21	17:24:55	17:30:13	316377	60f6d47e13b6f6b93d860dfe	274258796	1	main_z	7	main_z	73	stimuli_distractor_diamondtriangles.svg	stimuli_target_trianglecircles.svg	29	yes	44	1	1054
6.6.1	win	2022-12-21	17:24:55	17:30:13	316377	60f6d47e13b6f6b93d860dfe	274258796	1	main_z	7	advance_on_keypress_ZEE	74	stimuli_distractor_diamondtriangles.svg	stimuli_target_trianglecircles.svg	29	yes	57	0	481
6.6.1	win	2022-12-21	17:24:55	17:30:15	318607	60f6d47e13b6f6b93d860dfe	274258796	1	main_z	7	main_z	75	stimuli_target_trianglecircles.svg	stimuli_distractor_trianglediamonds.svg	17	yes	44	1	1102
6.6.1	win	2022-12-21	17:24:55	17:30:15	318607	60f6d47e13b6f6b93d860dfe	274258796	1	main_z	7	advance_on_keypress_ZEE	76	stimuli_target_trianglecircles.svg	stimuli_distractor_trianglediamonds.svg	17	yes	57	0	694
6.6.1	win	2022-12-21	17:24:55	17:30:17	320986	60f6d47e13b6f6b93d860dfe	274258796	1	main_z	7	main_z	77	stimuli_distractor_trianglediamonds.svg	stimuli_target_trianglecircles.svg	25	yes	44	1	1031
6.6.1	win	2022-12-21	17:24:55	17:30:17	320986	60f6d47e13b6f6b93d860dfe	274258796	1	main_z	7	advance_on_keypress_ZEE	78	stimuli_distractor_trianglediamonds.svg	stimuli_target_trianglecircles.svg	25	yes	57	0	486
6.6.1	win	2022-12-21	17:24:55	17:30:19	323180	60f6d47e13b6f6b93d860dfe	274258796	1	main_z	7	main_z	79	stimuli_target_diamondcircles.svg	stimuli_distractor_diamondtriangles.svg	23	yes	44	1	1060
6.6.1	win	2022-12-21	17:24:55	17:30:19	323180	60f6d47e13b6f6b93d860dfe	274258796	1	main_z	7	advance_on_keypress_ZEE	80	stimuli_target_diamondcircles.svg	stimuli_distractor_diamondtriangles.svg	23	yes	57	0	391
6.6.1	win	2022-12-21	17:24:55	17:30:22	325284	60f6d47e13b6f6b93d860dfe	274258796	1	main_z	7	main_z	81	stimuli_target_circlediamonds.svg	stimuli_distractor_diamondtriangles.svg	6	yes	44	1	1065
6.6.1	win	2022-12-21	17:24:55	17:30:22	325284	60f6d47e13b6f6b93d860dfe	274258796	1	main_z	7	advance_on_keypress_ZEE	82	stimuli_target_circlediamonds.svg	stimuli_distractor_diamondtriangles.svg	6	yes	57	0	565
6.6.1	win	2022-12-21	17:24:55	17:30:24	327619	60f6d47e13b6f6b93d860dfe	274258796	1	main_z	7	main_z	83	stimuli_distractor_diamondtriangles.svg	stimuli_target_circletriangles.svg	13	yes	44	1	1117
6.6.1	win	2022-12-21	17:24:55	17:30:24	327619	60f6d47e13b6f6b93d860dfe	274258796	1	main_z	7	advance_on_keypress_ZEE	84	stimuli_distractor_diamondtriangles.svg	stimuli_target_circletriangles.svg	13	yes	57	0	679
6.6.1	win	2022-12-21	17:24:55	17:30:26	330007	60f6d47e13b6f6b93d860dfe	274258796	1	main_z	7	main_z	85	stimuli_distractor_trianglediamonds.svg	stimuli_target_diamondcircles.svg	27	yes	44	1	1057
6.6.1	win	2022-12-21	17:24:55	17:30:26	330007	60f6d47e13b6f6b93d860dfe	274258796	1	main_z	7	advance_on_keypress_ZEE	86	stimuli_distractor_trianglediamonds.svg	stimuli_target_diamondcircles.svg	27	yes	57	0	540
6.6.1	win	2022-12-21	17:24:55	17:30:29	333183	60f6d47e13b6f6b93d860dfe	274258796	1	main_z	7	main_z	87	stimuli_distractor_trianglediamonds.svg	stimuli_distractor_trianglediamonds.svg	33	no	0	1	2000
6.6.1	win	2022-12-21	17:24:55	17:30:29	333183	60f6d47e13b6f6b93d860dfe	274258796	1	main_z	7	advance_on_keypress_ZEE	88	stimuli_distractor_trianglediamonds.svg	stimuli_distractor_trianglediamonds.svg	33	no	57	0	579
6.6.1	win	2022-12-21	17:24:55	17:30:32	335626	60f6d47e13b6f6b93d860dfe	274258796	1	main_z	7	main_z	89	stimuli_distractor_trianglediamonds.svg	stimuli_target_trianglesquares.svg	26	yes	44	1	1212
6.6.1	win	2022-12-21	17:24:55	17:30:32	335626	60f6d47e13b6f6b93d860dfe	274258796	1	main_z	7	advance_on_keypress_ZEE	90	stimuli_distractor_trianglediamonds.svg	stimuli_target_trianglesquares.svg	26	yes	57	0	697
6.6.1	win	2022-12-21	17:24:55	17:30:35	338772	60f6d47e13b6f6b93d860dfe	274258796	1	main_z	7	main_z	91	stimuli_target_circlediamonds.svg	stimuli_distractor_trianglediamonds.svg	2	yes	44	1	1791
6.6.1	win	2022-12-21	17:24:55	17:30:35	338772	60f6d47e13b6f6b93d860dfe	274258796	1	main_z	7	advance_on_keypress_ZEE	92	stimuli_target_circlediamonds.svg	stimuli_distractor_trianglediamonds.svg	2	yes	57	0	646
6.6.1	win	2022-12-21	17:24:55	17:30:38	341239	60f6d47e13b6f6b93d860dfe	274258796	1	main_z	7	main_z	93	stimuli_distractor_diamondtriangles.svg	stimuli_target_diamondsquares.svg	32	yes	44	1	1177
6.6.1	win	2022-12-21	17:24:55	17:30:38	341239	60f6d47e13b6f6b93d860dfe	274258796	1	main_z	7	advance_on_keypress_ZEE	94	stimuli_distractor_diamondtriangles.svg	stimuli_target_diamondsquares.svg	32	yes	57	0	779
6.6.1	win	2022-12-21	17:24:55	17:30:40	343776	60f6d47e13b6f6b93d860dfe	274258796	1	main_z	7	main_z	95	stimuli_distractor_trianglediamonds.svg	stimuli_target_trianglecircles.svg	25	yes	44	1	1098
6.6.1	win	2022-12-21	17:24:55	17:30:40	343776	60f6d47e13b6f6b93d860dfe	274258796	1	main_z	7	advance_on_keypress_ZEE	96	stimuli_distractor_trianglediamonds.svg	stimuli_target_trianglecircles.svg	25	yes	57	0	621
6.6.1	win	2022-12-21	17:24:55	17:30:43	346302	60f6d47e13b6f6b93d860dfe	274258796	1	main_z	7	main_z	97	stimuli_distractor_trianglediamonds.svg	stimuli_target_circlediamonds.svg	10	yes	44	1	1258
6.6.1	win	2022-12-21	17:24:55	17:30:43	346302	60f6d47e13b6f6b93d860dfe	274258796	1	main_z	7	advance_on_keypress_ZEE	98	stimuli_distractor_trianglediamonds.svg	stimuli_target_circlediamonds.svg	10	yes	57	0	919
6.6.1	win	2022-12-21	17:24:55	17:30:45	348782	60f6d47e13b6f6b93d860dfe	274258796	1	main_z	7	main_z	99	stimuli_distractor_trianglediamonds.svg	stimuli_target_squaretriangles.svg	11	yes	44	1	924
6.6.1	win	2022-12-21	17:24:55	17:30:45	348782	60f6d47e13b6f6b93d860dfe	274258796	1	main_z	7	advance_on_keypress_ZEE	100	stimuli_distractor_trianglediamonds.svg	stimuli_target_squaretriangles.svg	11	yes	57	0	511
6.6.1	win	2022-12-21	17:24:55	17:30:47	351011	60f6d47e13b6f6b93d860dfe	274258796	1	main_z	7	main_z	101	stimuli_target_trianglesquares.svg	stimuli_distractor_trianglediamonds.svg	18	yes	44	1	1070
6.6.1	win	2022-12-21	17:24:55	17:30:47	351011	60f6d47e13b6f6b93d860dfe	274258796	1	main_z	7	advance_on_keypress_ZEE	102	stimuli_target_trianglesquares.svg	stimuli_distractor_trianglediamonds.svg	18	yes	57	0	375
6.6.1	win	2022-12-21	17:24:55	17:30:49	353154	60f6d47e13b6f6b93d860dfe	274258796	1	main_z	7	main_z	103	stimuli_target_squaretriangles.svg	stimuli_distractor_diamondtriangles.svg	7	yes	44	1	1130
6.6.1	win	2022-12-21	17:24:55	17:30:49	353154	60f6d47e13b6f6b93d860dfe	274258796	1	main_z	7	advance_on_keypress_ZEE	104	stimuli_target_squaretriangles.svg	stimuli_distractor_diamondtriangles.svg	7	yes	57	0	564
6.6.1	win	2022-12-21	17:24:55	17:30:52	355466	60f6d47e13b6f6b93d860dfe	274258796	1	main_z	7	main_z	105	stimuli_target_diamondcircles.svg	stimuli_distractor_trianglediamonds.svg	19	yes	44	1	1094
6.6.1	win	2022-12-21	17:24:55	17:30:52	355466	60f6d47e13b6f6b93d860dfe	274258796	1	main_z	7	advance_on_keypress_ZEE	106	stimuli_target_diamondcircles.svg	stimuli_distractor_trianglediamonds.svg	19	yes	57	0	497
6.6.1	win	2022-12-21	17:24:55	17:30:55	358621	60f6d47e13b6f6b93d860dfe	274258796	1	main_z	7	main_z	107	stimuli_distractor_diamondtriangles.svg	stimuli_distractor_trianglediamonds.svg	37	no	0	1	2000
6.6.1	win	2022-12-21	17:24:55	17:30:55	358621	60f6d47e13b6f6b93d860dfe	274258796	1	main_z	7	advance_on_keypress_ZEE	108	stimuli_distractor_diamondtriangles.svg	stimuli_distractor_trianglediamonds.svg	37	no	57	0	953
6.6.1	win	2022-12-21	17:24:55	17:30:59	362220	60f6d47e13b6f6b93d860dfe	274258796	1	main_z	7	main_z	109	stimuli_distractor_trianglediamonds.svg	stimuli_distractor_diamondtriangles.svg	36	no	0	1	2000
6.6.1	win	2022-12-21	17:24:55	17:30:59	362220	60f6d47e13b6f6b93d860dfe	274258796	1	main_z	7	advance_on_keypress_ZEE	110	stimuli_distractor_trianglediamonds.svg	stimuli_distractor_diamondtriangles.svg	36	no	57	0	387
6.6.1	win	2022-12-21	17:24:55	17:31:01	364219	60f6d47e13b6f6b93d860dfe	274258796	1	main_z	7	main_z	111	stimuli_distractor_diamondtriangles.svg	stimuli_target_squaretriangles.svg	15	yes	44	1	968
6.6.1	win	2022-12-21	17:24:55	17:31:01	364219	60f6d47e13b6f6b93d860dfe	274258796	1	main_z	7	advance_on_keypress_ZEE	112	stimuli_distractor_diamondtriangles.svg	stimuli_target_squaretriangles.svg	15	yes	57	0	512
6.6.1	win	2022-12-21	17:24:55	17:31:03	366495	60f6d47e13b6f6b93d860dfe	274258796	1	main_z	7	main_z	113	stimuli_target_diamondsquares.svg	stimuli_distractor_trianglediamonds.svg	20	yes	44	1	1110
6.6.1	win	2022-12-21	17:24:55	17:31:03	366495	60f6d47e13b6f6b93d860dfe	274258796	1	main_z	7	advance_on_keypress_ZEE	114	stimuli_target_diamondsquares.svg	stimuli_distractor_trianglediamonds.svg	20	yes	57	0	570
6.6.1	win	2022-12-21	17:24:55	17:31:05	369076	60f6d47e13b6f6b93d860dfe	274258796	1	main_z	7	main_z	115	stimuli_target_diamondcircles.svg	stimuli_distractor_diamondtriangles.svg	23	yes	44	1	1360
6.6.1	win	2022-12-21	17:24:55	17:31:05	369076	60f6d47e13b6f6b93d860dfe	274258796	1	main_z	7	advance_on_keypress_ZEE	116	stimuli_target_diamondcircles.svg	stimuli_distractor_diamondtriangles.svg	23	yes	57	0	481
6.6.1	win	2022-12-21	17:24:55	17:31:08	371341	60f6d47e13b6f6b93d860dfe	274258796	1	main_z	7	main_z	117	stimuli_target_trianglesquares.svg	stimuli_distractor_diamondtriangles.svg	22	yes	44	1	1125
6.6.1	win	2022-12-21	17:24:55	17:31:08	371341	60f6d47e13b6f6b93d860dfe	274258796	1	main_z	7	advance_on_keypress_ZEE	118	stimuli_target_trianglesquares.svg	stimuli_distractor_diamondtriangles.svg	22	yes	57	0	474
6.6.1	win	2022-12-21	17:24:55	17:31:10	373585	60f6d47e13b6f6b93d860dfe	274258796	1	main_z	7	main_z	119	stimuli_target_diamondsquares.svg	stimuli_distractor_diamondtriangles.svg	24	yes	44	1	1138
6.6.1	win	2022-12-21	17:24:55	17:31:10	373585	60f6d47e13b6f6b93d860dfe	274258796	1	main_z	7	advance_on_keypress_ZEE	120	stimuli_target_diamondsquares.svg	stimuli_distractor_diamondtriangles.svg	24	yes	57	0	414
6.6.1	win	2022-12-21	17:24:55	17:31:13	376306	60f6d47e13b6f6b93d860dfe	274258796	1	main_z	7	main_z	121	stimuli_target_squarediamonds.svg	stimuli_distractor_diamondtriangles.svg	8	yes	44	1	1660
6.6.1	win	2022-12-21	17:24:55	17:31:13	376306	60f6d47e13b6f6b93d860dfe	274258796	1	main_z	7	advance_on_keypress_ZEE	122	stimuli_target_squarediamonds.svg	stimuli_distractor_diamondtriangles.svg	8	yes	57	0	370
6.6.1	win	2022-12-21	17:24:55	17:31:15	378459	60f6d47e13b6f6b93d860dfe	274258796	1	main_z	7	main_z	123	stimuli_distractor_diamondtriangles.svg	stimuli_target_diamondcircles.svg	31	yes	44	1	1131
6.6.1	win	2022-12-21	17:24:55	17:31:15	378459	60f6d47e13b6f6b93d860dfe	274258796	1	main_z	7	advance_on_keypress_ZEE	124	stimuli_distractor_diamondtriangles.svg	stimuli_target_diamondcircles.svg	31	yes	57	0	607
6.6.1	win	2022-12-21	17:24:55	17:31:17	380830	60f6d47e13b6f6b93d860dfe	274258796	1	main_z	7	main_z	125	stimuli_target_trianglecircles.svg	stimuli_distractor_trianglediamonds.svg	17	yes	44	1	1120
6.6.1	win	2022-12-21	17:24:55	17:31:17	380830	60f6d47e13b6f6b93d860dfe	274258796	1	main_z	7	advance_on_keypress_ZEE	126	stimuli_target_trianglecircles.svg	stimuli_distractor_trianglediamonds.svg	17	yes	57	0	957
6.6.1	win	2022-12-21	17:24:55	17:31:20	383471	60f6d47e13b6f6b93d860dfe	274258796	1	main_z	7	main_z	127	stimuli_distractor_diamondtriangles.svg	stimuli_target_trianglesquares.svg	30	yes	44	1	1044
6.6.1	win	2022-12-21	17:24:55	17:31:20	383471	60f6d47e13b6f6b93d860dfe	274258796	1	main_z	7	advance_on_keypress_ZEE	128	stimuli_distractor_diamondtriangles.svg	stimuli_target_trianglesquares.svg	30	yes	57	0	680
6.6.1	win	2022-12-21	17:24:55	17:31:22	385900	60f6d47e13b6f6b93d860dfe	274258796	1	main_z	7	main_z	129	stimuli_distractor_diamondtriangles.svg	stimuli_target_squarediamonds.svg	16	yes	44	1	1091
6.6.1	win	2022-12-21	17:24:55	17:31:22	385900	60f6d47e13b6f6b93d860dfe	274258796	1	main_z	7	advance_on_keypress_ZEE	130	stimuli_distractor_diamondtriangles.svg	stimuli_target_squarediamonds.svg	16	yes	57	0	512
6.6.1	win	2022-12-21	17:24:55	17:31:25	389058	60f6d47e13b6f6b93d860dfe	274258796	1	main_z	7	main_z	131	stimuli_distractor_diamondtriangles.svg	stimuli_distractor_trianglediamonds.svg	38	no	0	1	2000
6.6.1	win	2022-12-21	17:24:55	17:31:25	389058	60f6d47e13b6f6b93d860dfe	274258796	1	main_z	7	advance_on_keypress_ZEE	132	stimuli_distractor_diamondtriangles.svg	stimuli_distractor_trianglediamonds.svg	38	no	57	0	1227
6.6.1	win	2022-12-21	17:24:55	17:31:29	392939	60f6d47e13b6f6b93d860dfe	274258796	1	main_z	7	main_z	133	stimuli_distractor_diamondtriangles.svg	stimuli_distractor_diamondtriangles.svg	39	no	0	1	2000
6.6.1	win	2022-12-21	17:24:55	17:31:29	392939	60f6d47e13b6f6b93d860dfe	274258796	1	main_z	7	advance_on_keypress_ZEE	134	stimuli_distractor_diamondtriangles.svg	stimuli_distractor_diamondtriangles.svg	39	no	57	0	365
6.6.1	win	2022-12-21	17:24:55	17:31:31	394992	60f6d47e13b6f6b93d860dfe	274258796	1	main_z	7	main_z	135	stimuli_distractor_diamondtriangles.svg	stimuli_target_trianglecircles.svg	29	yes	44	1	1037
6.6.1	win	2022-12-21	17:24:55	17:31:31	394992	60f6d47e13b6f6b93d860dfe	274258796	1	main_z	7	advance_on_keypress_ZEE	136	stimuli_distractor_diamondtriangles.svg	stimuli_target_trianglecircles.svg	29	yes	57	0	472
6.6.1	win	2022-12-21	17:24:55	17:31:34	397297	60f6d47e13b6f6b93d860dfe	274258796	1	main_z	7	main_z	137	stimuli_target_trianglecircles.svg	stimuli_distractor_diamondtriangles.svg	21	yes	44	1	1194
6.6.1	win	2022-12-21	17:24:55	17:31:34	397297	60f6d47e13b6f6b93d860dfe	274258796	1	main_z	7	advance_on_keypress_ZEE	138	stimuli_target_trianglecircles.svg	stimuli_distractor_diamondtriangles.svg	21	yes	57	0	404
6.6.1	win	2022-12-21	17:24:55	17:31:37	400353	60f6d47e13b6f6b93d860dfe	274258796	1	main_z	7	main_z	139	stimuli_target_circletriangles.svg	stimuli_distractor_trianglediamonds.svg	1	yes	0	0	2000
6.6.1	win	2022-12-21	17:24:55	17:31:37	400353	60f6d47e13b6f6b93d860dfe	274258796	1	main_z	7	advance_on_keypress_ZEE	140	stimuli_target_circletriangles.svg	stimuli_distractor_trianglediamonds.svg	1	yes	57	0	396
6.6.1	win	2022-12-21	17:24:55	17:31:39	402296	60f6d47e13b6f6b93d860dfe	274258796	1	main_z	7	main_z	141	stimuli_distractor_trianglediamonds.svg	stimuli_target_squarediamonds.svg	12	yes	44	1	895
6.6.1	win	2022-12-21	17:24:55	17:31:39	402296	60f6d47e13b6f6b93d860dfe	274258796	1	main_z	7	advance_on_keypress_ZEE	142	stimuli_distractor_trianglediamonds.svg	stimuli_target_squarediamonds.svg	12	yes	57	0	465
6.6.1	win	2022-12-21	17:24:55	17:31:42	405417	60f6d47e13b6f6b93d860dfe	274258796	1	main_z	7	main_z	143	stimuli_distractor_diamondtriangles.svg	stimuli_distractor_diamondtriangles.svg	40	no	0	1	2000
6.6.1	win	2022-12-21	17:24:55	17:31:42	405417	60f6d47e13b6f6b93d860dfe	274258796	1	main_z	7	advance_on_keypress_ZEE	144	stimuli_distractor_diamondtriangles.svg	stimuli_distractor_diamondtriangles.svg	40	no	57	0	1346
6.6.1	win	2022-12-21	17:24:55	17:31:45	408676	60f6d47e13b6f6b93d860dfe	274258796	1	main_z	7	main_z	145	stimuli_target_circletriangles.svg	stimuli_distractor_diamondtriangles.svg	5	yes	44	1	1262
6.6.1	win	2022-12-21	17:24:55	17:31:45	408676	60f6d47e13b6f6b93d860dfe	274258796	1	main_z	7	advance_on_keypress_ZEE	146	stimuli_target_circletriangles.svg	stimuli_distractor_diamondtriangles.svg	5	yes	57	0	522
6.6.1	win	2022-12-21	17:24:55	17:31:47	410964	60f6d47e13b6f6b93d860dfe	274258796	1	main_z	7	main_z	147	stimuli_distractor_trianglediamonds.svg	stimuli_target_diamondsquares.svg	28	yes	44	1	1117
6.6.1	win	2022-12-21	17:24:55	17:31:47	410964	60f6d47e13b6f6b93d860dfe	274258796	1	main_z	7	advance_on_keypress_ZEE	148	stimuli_distractor_trianglediamonds.svg	stimuli_target_diamondsquares.svg	28	yes	57	0	315
6.6.1	win	2022-12-21	17:24:55	17:31:49	412985	60f6d47e13b6f6b93d860dfe	274258796	1	main_z	7	main_z	149	stimuli_distractor_diamondtriangles.svg	stimuli_target_circlediamonds.svg	14	yes	44	1	1056
6.6.1	win	2022-12-21	17:24:55	17:31:49	412985	60f6d47e13b6f6b93d860dfe	274258796	1	main_z	7	advance_on_keypress_ZEE	150	stimuli_distractor_diamondtriangles.svg	stimuli_target_circlediamonds.svg	14	yes	57	0	515
6.6.1	win	2022-12-21	17:24:55	17:31:52	415208	60f6d47e13b6f6b93d860dfe	274258796	1	main_z	7	main_z	151	stimuli_target_squaretriangles.svg	stimuli_distractor_trianglediamonds.svg	3	yes	44	1	1063
6.6.1	win	2022-12-21	17:24:55	17:31:52	415208	60f6d47e13b6f6b93d860dfe	274258796	1	main_z	7	advance_on_keypress_ZEE	152	stimuli_target_squaretriangles.svg	stimuli_distractor_trianglediamonds.svg	3	yes	57	0	615
6.6.1	win	2022-12-21	17:24:55	17:31:55	418244	60f6d47e13b6f6b93d860dfe	274258796	1	main_z	7	main_z	153	stimuli_target_squarediamonds.svg	stimuli_distractor_trianglediamonds.svg	4	yes	44	1	1766
6.6.1	win	2022-12-21	17:24:55	17:31:55	418244	60f6d47e13b6f6b93d860dfe	274258796	1	main_z	7	advance_on_keypress_ZEE	154	stimuli_target_squarediamonds.svg	stimuli_distractor_trianglediamonds.svg	4	yes	57	0	493
6.6.1	win	2022-12-21	17:24:55	17:31:58	421376	60f6d47e13b6f6b93d860dfe	274258796	1	main_z	7	main_z	155	stimuli_distractor_trianglediamonds.svg	stimuli_distractor_trianglediamonds.svg	34	no	0	1	2000
6.6.1	win	2022-12-21	17:24:55	17:31:58	421376	60f6d47e13b6f6b93d860dfe	274258796	1	main_z	7	advance_on_keypress_ZEE	156	stimuli_distractor_trianglediamonds.svg	stimuli_distractor_trianglediamonds.svg	34	no	57	0	767
6.6.1	win	2022-12-21	17:24:55	17:32:00	423734	60f6d47e13b6f6b93d860dfe	274258796	1	main_z	7	main_z	157	stimuli_distractor_trianglediamonds.svg	stimuli_target_circletriangles.svg	9	yes	44	1	943
6.6.1	win	2022-12-21	17:24:55	17:32:00	423734	60f6d47e13b6f6b93d860dfe	274258796	1	main_z	7	advance_on_keypress_ZEE	158	stimuli_distractor_trianglediamonds.svg	stimuli_target_circletriangles.svg	9	yes	57	0	531
6.6.1	win	2022-12-21	17:24:55	17:32:03	426907	60f6d47e13b6f6b93d860dfe	274258796	1	main_z	7	main_z	159	stimuli_distractor_trianglediamonds.svg	stimuli_distractor_diamondtriangles.svg	35	no	0	1	2000
6.6.1	win	2022-12-21	17:24:55	17:32:03	426907	60f6d47e13b6f6b93d860dfe	274258796	1	main_z	7	advance_on_keypress_ZEE	160	stimuli_distractor_trianglediamonds.svg	stimuli_distractor_diamondtriangles.svg	35	no	57	0	331
6.6.1	win	2022-12-21	17:24:55	17:32:30	453371	60f6d47e13b6f6b93d860dfe	274258796	1	practice_slash	9	practice_slash	1	stimuli_target_circlediamonds.svg	stimuli_distractor_diamondtriangles.svg	1	yes	53	1	1157
6.6.1	win	2022-12-21	17:24:55	17:32:30	453371	60f6d47e13b6f6b93d860dfe	274258796	1	practice_slash	9	advance_on_keypress_SLASH	2	stimuli_target_circlediamonds.svg	stimuli_distractor_diamondtriangles.svg	1	yes	57	0	409
6.6.1	win	2022-12-21	17:24:55	17:32:33	456491	60f6d47e13b6f6b93d860dfe	274258796	1	practice_slash	9	practice_slash	3	stimuli_target_squarediamonds.svg	stimuli_distractor_trianglediamonds.svg	5	yes	53	1	1045
6.6.1	win	2022-12-21	17:24:55	17:32:33	456491	60f6d47e13b6f6b93d860dfe	274258796	1	practice_slash	9	advance_on_keypress_SLASH	4	stimuli_target_squarediamonds.svg	stimuli_distractor_trianglediamonds.svg	5	yes	57	0	336
6.6.1	win	2022-12-21	17:24:55	17:32:36	459490	60f6d47e13b6f6b93d860dfe	274258796	1	practice_slash	9	practice_slash	5	stimuli_distractor_trianglediamonds.svg	stimuli_target_circlediamonds.svg	10	yes	53	1	1012
6.6.1	win	2022-12-21	17:24:55	17:32:36	459490	60f6d47e13b6f6b93d860dfe	274258796	1	practice_slash	9	advance_on_keypress_SLASH	6	stimuli_distractor_trianglediamonds.svg	stimuli_target_circlediamonds.svg	10	yes	57	0	431
6.6.1	win	2022-12-21	17:24:55	17:32:40	463577	60f6d47e13b6f6b93d860dfe	274258796	1	practice_slash	9	practice_slash	7	stimuli_distractor_trianglediamonds.svg	stimuli_distractor_trianglediamonds.svg	15	no	0	1	2000
6.6.1	win	2022-12-21	17:24:55	17:32:40	463577	60f6d47e13b6f6b93d860dfe	274258796	1	practice_slash	9	advance_on_keypress_SLASH	8	stimuli_distractor_trianglediamonds.svg	stimuli_distractor_trianglediamonds.svg	15	no	57	0	372
6.6.1	win	2022-12-21	17:24:55	17:32:44	467591	60f6d47e13b6f6b93d860dfe	274258796	1	practice_slash	9	practice_slash	9	stimuli_distractor_diamondtriangles.svg	stimuli_distractor_trianglediamonds.svg	14	no	0	1	2000
6.6.1	win	2022-12-21	17:24:55	17:32:44	467591	60f6d47e13b6f6b93d860dfe	274258796	1	practice_slash	9	advance_on_keypress_SLASH	10	stimuli_distractor_diamondtriangles.svg	stimuli_distractor_trianglediamonds.svg	14	no	57	0	620
6.6.1	win	2022-12-21	17:24:55	17:32:47	470893	60f6d47e13b6f6b93d860dfe	274258796	1	practice_slash	9	practice_slash	11	stimuli_distractor_trianglediamonds.svg	stimuli_target_diamondcircles.svg	12	yes	53	1	1037
6.6.1	win	2022-12-21	17:24:55	17:32:47	470893	60f6d47e13b6f6b93d860dfe	274258796	1	practice_slash	9	advance_on_keypress_SLASH	12	stimuli_distractor_trianglediamonds.svg	stimuli_target_diamondcircles.svg	12	yes	57	0	598
6.6.1	win	2022-12-21	17:24:55	17:32:51	474240	60f6d47e13b6f6b93d860dfe	274258796	1	practice_slash	9	practice_slash	13	stimuli_distractor_diamondtriangles.svg	stimuli_target_diamondcircles.svg	8	yes	53	1	1102
6.6.1	win	2022-12-21	17:24:55	17:32:51	474240	60f6d47e13b6f6b93d860dfe	274258796	1	practice_slash	9	advance_on_keypress_SLASH	14	stimuli_distractor_diamondtriangles.svg	stimuli_target_diamondcircles.svg	8	yes	57	0	695
6.6.1	win	2022-12-21	17:24:55	17:32:54	477931	60f6d47e13b6f6b93d860dfe	274258796	1	practice_slash	9	practice_slash	15	stimuli_distractor_diamondtriangles.svg	stimuli_target_circletriangles.svg	7	yes	53	1	1345
6.6.1	win	2022-12-21	17:24:55	17:32:54	477931	60f6d47e13b6f6b93d860dfe	274258796	1	practice_slash	9	advance_on_keypress_SLASH	16	stimuli_distractor_diamondtriangles.svg	stimuli_target_circletriangles.svg	7	yes	57	0	523
6.6.1	win	2022-12-21	17:24:55	17:32:57	481043	60f6d47e13b6f6b93d860dfe	274258796	1	practice_slash	9	practice_slash	17	stimuli_target_diamondsquares.svg	stimuli_distractor_diamondtriangles.svg	3	yes	53	1	942
6.6.1	win	2022-12-21	17:24:55	17:32:57	481043	60f6d47e13b6f6b93d860dfe	274258796	1	practice_slash	9	advance_on_keypress_SLASH	18	stimuli_target_diamondsquares.svg	stimuli_distractor_diamondtriangles.svg	3	yes	57	0	611
6.6.1	win	2022-12-21	17:24:55	17:33:01	484378	60f6d47e13b6f6b93d860dfe	274258796	1	practice_slash	9	practice_slash	19	stimuli_target_circlediamonds.svg	stimuli_distractor_trianglediamonds.svg	4	yes	53	1	1061
6.6.1	win	2022-12-21	17:24:55	17:33:01	484378	60f6d47e13b6f6b93d860dfe	274258796	1	practice_slash	9	advance_on_keypress_SLASH	20	stimuli_target_circlediamonds.svg	stimuli_distractor_trianglediamonds.svg	4	yes	57	0	449
6.6.1	win	2022-12-21	17:24:55	17:33:05	488482	60f6d47e13b6f6b93d860dfe	274258796	1	practice_slash	9	practice_slash	21	stimuli_distractor_trianglediamonds.svg	stimuli_distractor_diamondtriangles.svg	16	no	0	1	2000
6.6.1	win	2022-12-21	17:24:55	17:33:05	488482	60f6d47e13b6f6b93d860dfe	274258796	1	practice_slash	9	advance_on_keypress_SLASH	22	stimuli_distractor_trianglediamonds.svg	stimuli_distractor_diamondtriangles.svg	16	no	57	0	433
6.6.1	win	2022-12-21	17:24:55	17:33:08	491536	60f6d47e13b6f6b93d860dfe	274258796	1	practice_slash	9	practice_slash	23	stimuli_target_diamondsquares.svg	stimuli_distractor_trianglediamonds.svg	6	yes	53	1	973
6.6.1	win	2022-12-21	17:24:55	17:33:08	491536	60f6d47e13b6f6b93d860dfe	274258796	1	practice_slash	9	advance_on_keypress_SLASH	24	stimuli_target_diamondsquares.svg	stimuli_distractor_trianglediamonds.svg	6	yes	57	0	483
6.6.1	win	2022-12-21	17:24:55	17:33:11	494695	60f6d47e13b6f6b93d860dfe	274258796	1	practice_slash	9	practice_slash	25	stimuli_target_squarediamonds.svg	stimuli_distractor_diamondtriangles.svg	2	yes	53	1	1033
6.6.1	win	2022-12-21	17:24:55	17:33:11	494695	60f6d47e13b6f6b93d860dfe	274258796	1	practice_slash	9	advance_on_keypress_SLASH	26	stimuli_target_squarediamonds.svg	stimuli_distractor_diamondtriangles.svg	2	yes	57	0	442
6.6.1	win	2022-12-21	17:24:55	17:33:15	498777	60f6d47e13b6f6b93d860dfe	274258796	1	practice_slash	9	practice_slash	27	stimuli_distractor_trianglediamonds.svg	stimuli_target_squarediamonds.svg	11	yes	0	0	2000
6.6.1	win	2022-12-21	17:24:55	17:33:15	498777	60f6d47e13b6f6b93d860dfe	274258796	1	practice_slash	9	advance_on_keypress_SLASH	28	stimuli_distractor_trianglediamonds.svg	stimuli_target_squarediamonds.svg	11	yes	57	0	615
6.6.1	win	2022-12-21	17:24:55	17:33:18	502054	60f6d47e13b6f6b93d860dfe	274258796	1	practice_slash	9	practice_slash	29	stimuli_distractor_diamondtriangles.svg	stimuli_distractor_diamondtriangles.svg	13	no	53	0	1012
6.6.1	win	2022-12-21	17:24:55	17:33:18	502054	60f6d47e13b6f6b93d860dfe	274258796	1	practice_slash	9	advance_on_keypress_SLASH	30	stimuli_distractor_diamondtriangles.svg	stimuli_distractor_diamondtriangles.svg	13	no	57	0	395
6.6.1	win	2022-12-21	17:24:55	17:33:21	505104	60f6d47e13b6f6b93d860dfe	274258796	1	practice_slash	9	practice_slash	31	stimuli_distractor_diamondtriangles.svg	stimuli_target_trianglecircles.svg	9	yes	53	1	997
6.6.1	win	2022-12-21	17:24:55	17:33:21	505104	60f6d47e13b6f6b93d860dfe	274258796	1	practice_slash	9	advance_on_keypress_SLASH	32	stimuli_distractor_diamondtriangles.svg	stimuli_target_trianglecircles.svg	9	yes	57	0	322
6.6.1	win	2022-12-21	17:24:55	17:33:29	512625	60f6d47e13b6f6b93d860dfe	274258796	1	main_slash	11	main_slash	1	stimuli_distractor_trianglediamonds.svg	stimuli_target_trianglesquares.svg	26	yes	53	1	691
6.6.1	win	2022-12-21	17:24:55	17:33:29	512625	60f6d47e13b6f6b93d860dfe	274258796	1	main_slash	11	advance_on_keypress_SLASH	2	stimuli_distractor_trianglediamonds.svg	stimuli_target_trianglesquares.svg	26	yes	57	0	795
6.6.1	win	2022-12-21	17:24:55	17:33:31	514992	60f6d47e13b6f6b93d860dfe	274258796	1	main_slash	11	main_slash	3	stimuli_distractor_diamondtriangles.svg	stimuli_target_diamondsquares.svg	32	yes	53	1	926
6.6.1	win	2022-12-21	17:24:55	17:33:31	514992	60f6d47e13b6f6b93d860dfe	274258796	1	main_slash	11	advance_on_keypress_SLASH	4	stimuli_distractor_diamondtriangles.svg	stimuli_target_diamondsquares.svg	32	yes	57	0	667
6.6.1	win	2022-12-21	17:24:55	17:33:33	516813	60f6d47e13b6f6b93d860dfe	274258796	1	main_slash	11	main_slash	5	stimuli_target_squarediamonds.svg	stimuli_distractor_diamondtriangles.svg	8	yes	53	1	504
6.6.1	win	2022-12-21	17:24:55	17:33:33	516813	60f6d47e13b6f6b93d860dfe	274258796	1	main_slash	11	advance_on_keypress_SLASH	6	stimuli_target_squarediamonds.svg	stimuli_distractor_diamondtriangles.svg	8	yes	57	0	668
6.6.1	win	2022-12-21	17:24:55	17:33:35	518755	60f6d47e13b6f6b93d860dfe	274258796	1	main_slash	11	main_slash	7	stimuli_distractor_diamondtriangles.svg	stimuli_target_circlediamonds.svg	14	yes	53	1	624
6.6.1	win	2022-12-21	17:24:55	17:33:35	518755	60f6d47e13b6f6b93d860dfe	274258796	1	main_slash	11	advance_on_keypress_SLASH	8	stimuli_distractor_diamondtriangles.svg	stimuli_target_circlediamonds.svg	14	yes	57	0	711
6.6.1	win	2022-12-21	17:24:55	17:33:38	522114	60f6d47e13b6f6b93d860dfe	274258796	1	main_slash	11	main_slash	9	stimuli_distractor_trianglediamonds.svg	stimuli_distractor_diamondtriangles.svg	35	no	0	1	2000
6.6.1	win	2022-12-21	17:24:55	17:33:38	522114	60f6d47e13b6f6b93d860dfe	274258796	1	main_slash	11	advance_on_keypress_SLASH	10	stimuli_distractor_trianglediamonds.svg	stimuli_distractor_diamondtriangles.svg	35	no	57	0	388
6.6.1	win	2022-12-21	17:24:55	17:33:40	524182	60f6d47e13b6f6b93d860dfe	274258796	1	main_slash	11	main_slash	11	stimuli_target_circletriangles.svg	stimuli_distractor_trianglediamonds.svg	1	yes	53	1	1037
6.6.1	win	2022-12-21	17:24:55	17:33:40	524182	60f6d47e13b6f6b93d860dfe	274258796	1	main_slash	11	advance_on_keypress_SLASH	12	stimuli_target_circletriangles.svg	stimuli_distractor_trianglediamonds.svg	1	yes	57	0	758
6.6.1	win	2022-12-21	17:24:55	17:33:43	526625	60f6d47e13b6f6b93d860dfe	274258796	1	main_slash	11	main_slash	13	stimuli_target_circlediamonds.svg	stimuli_distractor_trianglediamonds.svg	2	yes	53	1	1046
6.6.1	win	2022-12-21	17:24:55	17:33:43	526625	60f6d47e13b6f6b93d860dfe	274258796	1	main_slash	11	advance_on_keypress_SLASH	14	stimuli_target_circlediamonds.svg	stimuli_distractor_trianglediamonds.svg	2	yes	57	0	549
6.6.1	win	2022-12-21	17:24:55	17:33:46	529827	60f6d47e13b6f6b93d860dfe	274258796	1	main_slash	11	main_slash	15	stimuli_distractor_diamondtriangles.svg	stimuli_distractor_diamondtriangles.svg	39	no	0	1	2000
6.6.1	win	2022-12-21	17:24:55	17:33:46	529827	60f6d47e13b6f6b93d860dfe	274258796	1	main_slash	11	advance_on_keypress_SLASH	16	stimuli_distractor_diamondtriangles.svg	stimuli_distractor_diamondtriangles.svg	39	no	57	0	398
6.6.1	win	2022-12-21	17:24:55	17:33:48	532168	60f6d47e13b6f6b93d860dfe	274258796	1	main_slash	11	main_slash	17	stimuli_target_squaretriangles.svg	stimuli_distractor_trianglediamonds.svg	3	yes	53	1	1293
6.6.1	win	2022-12-21	17:24:55	17:33:48	532168	60f6d47e13b6f6b93d860dfe	274258796	1	main_slash	11	advance_on_keypress_SLASH	18	stimuli_target_squaretriangles.svg	stimuli_distractor_trianglediamonds.svg	3	yes	57	0	734
6.6.1	win	2022-12-21	17:24:55	17:33:51	534643	60f6d47e13b6f6b93d860dfe	274258796	1	main_slash	11	main_slash	19	stimuli_target_trianglecircles.svg	stimuli_distractor_diamondtriangles.svg	21	yes	53	1	1102
6.6.1	win	2022-12-21	17:24:55	17:33:51	534643	60f6d47e13b6f6b93d860dfe	274258796	1	main_slash	11	advance_on_keypress_SLASH	20	stimuli_target_trianglecircles.svg	stimuli_distractor_diamondtriangles.svg	21	yes	57	0	517
6.6.1	win	2022-12-21	17:24:55	17:33:53	537068	60f6d47e13b6f6b93d860dfe	274258796	1	main_slash	11	main_slash	21	stimuli_distractor_diamondtriangles.svg	stimuli_target_trianglesquares.svg	30	yes	53	1	1261
6.6.1	win	2022-12-21	17:24:55	17:33:53	537068	60f6d47e13b6f6b93d860dfe	274258796	1	main_slash	11	advance_on_keypress_SLASH	22	stimuli_distractor_diamondtriangles.svg	stimuli_target_trianglesquares.svg	30	yes	57	0	534
6.6.1	win	2022-12-21	17:24:55	17:33:56	539219	60f6d47e13b6f6b93d860dfe	274258796	1	main_slash	11	main_slash	23	stimuli_target_diamondcircles.svg	stimuli_distractor_trianglediamonds.svg	19	yes	53	1	964
6.6.1	win	2022-12-21	17:24:55	17:33:56	539219	60f6d47e13b6f6b93d860dfe	274258796	1	main_slash	11	advance_on_keypress_SLASH	24	stimuli_target_diamondcircles.svg	stimuli_distractor_trianglediamonds.svg	19	yes	57	0	669
6.6.1	win	2022-12-21	17:24:55	17:33:58	541519	60f6d47e13b6f6b93d860dfe	274258796	1	main_slash	11	main_slash	25	stimuli_target_trianglecircles.svg	stimuli_distractor_trianglediamonds.svg	17	yes	53	1	981
6.6.1	win	2022-12-21	17:24:55	17:33:58	541519	60f6d47e13b6f6b93d860dfe	274258796	1	main_slash	11	advance_on_keypress_SLASH	26	stimuli_target_trianglecircles.svg	stimuli_distractor_trianglediamonds.svg	17	yes	57	0	948
6.6.1	win	2022-12-21	17:24:55	17:34:01	544273	60f6d47e13b6f6b93d860dfe	274258796	1	main_slash	11	main_slash	27	stimuli_distractor_diamondtriangles.svg	stimuli_target_diamondcircles.svg	31	yes	53	1	1152
6.6.1	win	2022-12-21	17:24:55	17:34:01	544273	60f6d47e13b6f6b93d860dfe	274258796	1	main_slash	11	advance_on_keypress_SLASH	28	stimuli_distractor_diamondtriangles.svg	stimuli_target_diamondcircles.svg	31	yes	57	0	682
6.6.1	win	2022-12-21	17:24:55	17:34:03	546726	60f6d47e13b6f6b93d860dfe	274258796	1	main_slash	11	main_slash	29	stimuli_distractor_diamondtriangles.svg	stimuli_target_squaretriangles.svg	15	yes	53	1	1123
6.6.1	win	2022-12-21	17:24:55	17:34:03	546726	60f6d47e13b6f6b93d860dfe	274258796	1	main_slash	11	advance_on_keypress_SLASH	30	stimuli_distractor_diamondtriangles.svg	stimuli_target_squaretriangles.svg	15	yes	57	0	706
6.6.1	win	2022-12-21	17:24:55	17:34:05	549030	60f6d47e13b6f6b93d860dfe	274258796	1	main_slash	11	main_slash	31	stimuli_target_diamondsquares.svg	stimuli_distractor_trianglediamonds.svg	20	yes	53	1	963
6.6.1	win	2022-12-21	17:24:55	17:34:05	549030	60f6d47e13b6f6b93d860dfe	274258796	1	main_slash	11	advance_on_keypress_SLASH	32	stimuli_target_diamondsquares.svg	stimuli_distractor_trianglediamonds.svg	20	yes	57	0	609
6.6.1	win	2022-12-21	17:24:55	17:34:07	550871	60f6d47e13b6f6b93d860dfe	274258796	1	main_slash	11	main_slash	33	stimuli_distractor_trianglediamonds.svg	stimuli_target_diamondcircles.svg	27	yes	53	1	587
6.6.1	win	2022-12-21	17:24:55	17:34:07	550871	60f6d47e13b6f6b93d860dfe	274258796	1	main_slash	11	advance_on_keypress_SLASH	34	stimuli_distractor_trianglediamonds.svg	stimuli_target_diamondcircles.svg	27	yes	57	0	801
6.6.1	win	2022-12-21	17:24:55	17:34:10	553329	60f6d47e13b6f6b93d860dfe	274258796	1	main_slash	11	main_slash	35	stimuli_target_circletriangles.svg	stimuli_distractor_diamondtriangles.svg	5	yes	53	1	1012
6.6.1	win	2022-12-21	17:24:55	17:34:10	553329	60f6d47e13b6f6b93d860dfe	274258796	1	main_slash	11	advance_on_keypress_SLASH	36	stimuli_target_circletriangles.svg	stimuli_distractor_diamondtriangles.svg	5	yes	57	0	597
6.6.1	win	2022-12-21	17:24:55	17:34:12	555608	60f6d47e13b6f6b93d860dfe	274258796	1	main_slash	11	main_slash	37	stimuli_distractor_trianglediamonds.svg	stimuli_target_squarediamonds.svg	12	yes	53	1	1026
6.6.1	win	2022-12-21	17:24:55	17:34:12	555608	60f6d47e13b6f6b93d860dfe	274258796	1	main_slash	11	advance_on_keypress_SLASH	38	stimuli_distractor_trianglediamonds.svg	stimuli_target_squarediamonds.svg	12	yes	57	0	607
6.6.1	win	2022-12-21	17:24:55	17:34:14	557820	60f6d47e13b6f6b93d860dfe	274258796	1	main_slash	11	main_slash	39	stimuli_distractor_diamondtriangles.svg	stimuli_target_trianglecircles.svg	29	yes	53	1	957
6.6.1	win	2022-12-21	17:24:55	17:34:14	557820	60f6d47e13b6f6b93d860dfe	274258796	1	main_slash	11	advance_on_keypress_SLASH	40	stimuli_distractor_diamondtriangles.svg	stimuli_target_trianglecircles.svg	29	yes	57	0	603
6.6.1	win	2022-12-21	17:24:55	17:34:17	561063	60f6d47e13b6f6b93d860dfe	274258796	1	main_slash	11	main_slash	41	stimuli_distractor_diamondtriangles.svg	stimuli_distractor_trianglediamonds.svg	37	no	0	1	2000
6.6.1	win	2022-12-21	17:24:55	17:34:17	561063	60f6d47e13b6f6b93d860dfe	274258796	1	main_slash	11	advance_on_keypress_SLASH	42	stimuli_distractor_diamondtriangles.svg	stimuli_distractor_trianglediamonds.svg	37	no	57	0	389
6.6.1	win	2022-12-21	17:24:55	17:34:20	564095	60f6d47e13b6f6b93d860dfe	274258796	1	main_slash	11	main_slash	43	stimuli_distractor_diamondtriangles.svg	stimuli_distractor_diamondtriangles.svg	40	no	0	1	2000
6.6.1	win	2022-12-21	17:24:55	17:34:20	564095	60f6d47e13b6f6b93d860dfe	274258796	1	main_slash	11	advance_on_keypress_SLASH	44	stimuli_distractor_diamondtriangles.svg	stimuli_distractor_diamondtriangles.svg	40	no	57	0	765
6.6.1	win	2022-12-21	17:24:55	17:34:23	566586	60f6d47e13b6f6b93d860dfe	274258796	1	main_slash	11	main_slash	45	stimuli_target_trianglesquares.svg	stimuli_distractor_diamondtriangles.svg	22	yes	53	1	1076
6.6.1	win	2022-12-21	17:24:55	17:34:23	566586	60f6d47e13b6f6b93d860dfe	274258796	1	main_slash	11	advance_on_keypress_SLASH	46	stimuli_target_trianglesquares.svg	stimuli_distractor_diamondtriangles.svg	22	yes	57	0	1048
6.6.1	win	2022-12-21	17:24:55	17:34:26	569328	60f6d47e13b6f6b93d860dfe	274258796	1	main_slash	11	main_slash	47	stimuli_target_diamondsquares.svg	stimuli_distractor_diamondtriangles.svg	24	yes	53	1	1052
6.6.1	win	2022-12-21	17:24:55	17:34:26	569328	60f6d47e13b6f6b93d860dfe	274258796	1	main_slash	11	advance_on_keypress_SLASH	48	stimuli_target_diamondsquares.svg	stimuli_distractor_diamondtriangles.svg	24	yes	57	0	717
6.6.1	win	2022-12-21	17:24:55	17:34:29	572691	60f6d47e13b6f6b93d860dfe	274258796	1	main_slash	11	main_slash	49	stimuli_distractor_trianglediamonds.svg	stimuli_distractor_trianglediamonds.svg	33	no	0	1	2000
6.6.1	win	2022-12-21	17:24:55	17:34:29	572691	60f6d47e13b6f6b93d860dfe	274258796	1	main_slash	11	advance_on_keypress_SLASH	50	stimuli_distractor_trianglediamonds.svg	stimuli_distractor_trianglediamonds.svg	33	no	57	0	386
6.6.1	win	2022-12-21	17:24:55	17:34:31	574829	60f6d47e13b6f6b93d860dfe	274258796	1	main_slash	11	main_slash	51	stimuli_target_circlediamonds.svg	stimuli_distractor_diamondtriangles.svg	6	yes	53	1	1106
6.6.1	win	2022-12-21	17:24:55	17:34:31	574829	60f6d47e13b6f6b93d860dfe	274258796	1	main_slash	11	advance_on_keypress_SLASH	52	stimuli_target_circlediamonds.svg	stimuli_distractor_diamondtriangles.svg	6	yes	57	0	585
6.6.1	win	2022-12-21	17:24:55	17:34:33	577041	60f6d47e13b6f6b93d860dfe	274258796	1	main_slash	11	main_slash	53	stimuli_distractor_trianglediamonds.svg	stimuli_target_squaretriangles.svg	11	yes	53	1	985
6.6.1	win	2022-12-21	17:24:55	17:34:33	577041	60f6d47e13b6f6b93d860dfe	274258796	1	main_slash	11	advance_on_keypress_SLASH	54	stimuli_distractor_trianglediamonds.svg	stimuli_target_squaretriangles.svg	11	yes	57	0	612
6.6.1	win	2022-12-21	17:24:55	17:34:36	579365	60f6d47e13b6f6b93d860dfe	274258796	1	main_slash	11	main_slash	55	stimuli_target_squaretriangles.svg	stimuli_distractor_diamondtriangles.svg	7	yes	53	1	1061
6.6.1	win	2022-12-21	17:24:55	17:34:36	579365	60f6d47e13b6f6b93d860dfe	274258796	1	main_slash	11	advance_on_keypress_SLASH	56	stimuli_target_squaretriangles.svg	stimuli_distractor_diamondtriangles.svg	7	yes	57	0	539
6.6.1	win	2022-12-21	17:24:55	17:34:38	581637	60f6d47e13b6f6b93d860dfe	274258796	1	main_slash	11	main_slash	57	stimuli_target_diamondcircles.svg	stimuli_distractor_diamondtriangles.svg	23	yes	53	1	1084
6.6.1	win	2022-12-21	17:24:55	17:34:38	581637	60f6d47e13b6f6b93d860dfe	274258796	1	main_slash	11	advance_on_keypress_SLASH	58	stimuli_target_diamondcircles.svg	stimuli_distractor_diamondtriangles.svg	23	yes	57	0	630
6.6.1	win	2022-12-21	17:24:55	17:34:40	583629	60f6d47e13b6f6b93d860dfe	274258796	1	main_slash	11	main_slash	59	stimuli_distractor_diamondtriangles.svg	stimuli_target_squarediamonds.svg	16	yes	53	1	710
6.6.1	win	2022-12-21	17:24:55	17:34:40	583629	60f6d47e13b6f6b93d860dfe	274258796	1	main_slash	11	advance_on_keypress_SLASH	60	stimuli_distractor_diamondtriangles.svg	stimuli_target_squarediamonds.svg	16	yes	57	0	831
6.6.1	win	2022-12-21	17:24:55	17:34:42	586110	60f6d47e13b6f6b93d860dfe	274258796	1	main_slash	11	main_slash	61	stimuli_distractor_diamondtriangles.svg	stimuli_target_circletriangles.svg	13	yes	53	1	993
6.6.1	win	2022-12-21	17:24:55	17:34:42	586110	60f6d47e13b6f6b93d860dfe	274258796	1	main_slash	11	advance_on_keypress_SLASH	62	stimuli_distractor_diamondtriangles.svg	stimuli_target_circletriangles.svg	13	yes	57	0	696
6.6.1	win	2022-12-21	17:24:55	17:34:45	588395	60f6d47e13b6f6b93d860dfe	274258796	1	main_slash	11	main_slash	63	stimuli_target_trianglesquares.svg	stimuli_distractor_trianglediamonds.svg	18	yes	53	1	944
6.6.1	win	2022-12-21	17:24:55	17:34:45	588395	60f6d47e13b6f6b93d860dfe	274258796	1	main_slash	11	advance_on_keypress_SLASH	64	stimuli_target_trianglesquares.svg	stimuli_distractor_trianglediamonds.svg	18	yes	57	0	702
6.6.1	win	2022-12-21	17:24:55	17:34:47	590872	60f6d47e13b6f6b93d860dfe	274258796	1	main_slash	11	main_slash	65	stimuli_distractor_trianglediamonds.svg	stimuli_target_diamondsquares.svg	28	yes	53	1	1123
6.6.1	win	2022-12-21	17:24:55	17:34:47	590872	60f6d47e13b6f6b93d860dfe	274258796	1	main_slash	11	advance_on_keypress_SLASH	66	stimuli_distractor_trianglediamonds.svg	stimuli_target_diamondsquares.svg	28	yes	57	0	606
6.6.1	win	2022-12-21	17:24:55	17:34:49	593154	60f6d47e13b6f6b93d860dfe	274258796	1	main_slash	11	main_slash	67	stimuli_distractor_trianglediamonds.svg	stimuli_target_circlediamonds.svg	10	yes	53	1	1039
6.6.1	win	2022-12-21	17:24:55	17:34:49	593154	60f6d47e13b6f6b93d860dfe	274258796	1	main_slash	11	advance_on_keypress_SLASH	68	stimuli_distractor_trianglediamonds.svg	stimuli_target_circlediamonds.svg	10	yes	57	0	612
6.6.1	win	2022-12-21	17:24:55	17:34:52	595339	60f6d47e13b6f6b93d860dfe	274258796	1	main_slash	11	main_slash	69	stimuli_target_squarediamonds.svg	stimuli_distractor_trianglediamonds.svg	4	yes	53	1	925
6.6.1	win	2022-12-21	17:24:55	17:34:52	595339	60f6d47e13b6f6b93d860dfe	274258796	1	main_slash	11	advance_on_keypress_SLASH	70	stimuli_target_squarediamonds.svg	stimuli_distractor_trianglediamonds.svg	4	yes	57	0	545
6.6.1	win	2022-12-21	17:24:55	17:34:54	597680	60f6d47e13b6f6b93d860dfe	274258796	1	main_slash	11	main_slash	71	stimuli_distractor_diamondtriangles.svg	stimuli_distractor_trianglediamonds.svg	38	no	53	0	1150
6.6.1	win	2022-12-21	17:24:55	17:34:54	597680	60f6d47e13b6f6b93d860dfe	274258796	1	main_slash	11	advance_on_keypress_SLASH	72	stimuli_distractor_diamondtriangles.svg	stimuli_distractor_trianglediamonds.svg	38	no	57	0	510
6.6.1	win	2022-12-21	17:24:55	17:34:56	599853	60f6d47e13b6f6b93d860dfe	274258796	1	main_slash	11	main_slash	73	stimuli_distractor_trianglediamonds.svg	stimuli_distractor_trianglediamonds.svg	34	no	53	0	1024
6.6.1	win	2022-12-21	17:24:55	17:34:56	599853	60f6d47e13b6f6b93d860dfe	274258796	1	main_slash	11	advance_on_keypress_SLASH	74	stimuli_distractor_trianglediamonds.svg	stimuli_distractor_trianglediamonds.svg	34	no	57	0	452
6.6.1	win	2022-12-21	17:24:55	17:34:58	601947	60f6d47e13b6f6b93d860dfe	274258796	1	main_slash	11	main_slash	75	stimuli_distractor_trianglediamonds.svg	stimuli_target_circletriangles.svg	9	yes	53	1	1003
6.6.1	win	2022-12-21	17:24:55	17:34:58	601947	60f6d47e13b6f6b93d860dfe	274258796	1	main_slash	11	advance_on_keypress_SLASH	76	stimuli_distractor_trianglediamonds.svg	stimuli_target_circletriangles.svg	9	yes	57	0	729
6.6.1	win	2022-12-21	17:24:55	17:35:01	604251	60f6d47e13b6f6b93d860dfe	274258796	1	main_slash	11	main_slash	77	stimuli_distractor_trianglediamonds.svg	stimuli_target_trianglecircles.svg	25	yes	53	1	924
6.6.1	win	2022-12-21	17:24:55	17:35:01	604251	60f6d47e13b6f6b93d860dfe	274258796	1	main_slash	11	advance_on_keypress_SLASH	78	stimuli_distractor_trianglediamonds.svg	stimuli_target_trianglecircles.svg	25	yes	57	0	737
6.6.1	win	2022-12-21	17:24:55	17:35:04	607625	60f6d47e13b6f6b93d860dfe	274258796	1	main_slash	11	main_slash	79	stimuli_distractor_trianglediamonds.svg	stimuli_distractor_diamondtriangles.svg	36	no	0	1	2000
6.6.1	win	2022-12-21	17:24:55	17:35:04	607625	60f6d47e13b6f6b93d860dfe	274258796	1	main_slash	11	advance_on_keypress_SLASH	80	stimuli_distractor_trianglediamonds.svg	stimuli_distractor_diamondtriangles.svg	36	no	57	0	870
6.6.1	win	2022-12-21	17:24:55	17:35:07	611141	60f6d47e13b6f6b93d860dfe	274258796	1	main_slash	11	main_slash	81	stimuli_distractor_trianglediamonds.svg	stimuli_distractor_trianglediamonds.svg	34	no	0	1	2000
6.6.1	win	2022-12-21	17:24:55	17:35:07	611141	60f6d47e13b6f6b93d860dfe	274258796	1	main_slash	11	advance_on_keypress_SLASH	82	stimuli_distractor_trianglediamonds.svg	stimuli_distractor_trianglediamonds.svg	34	no	57	0	374
6.6.1	win	2022-12-21	17:24:55	17:35:09	613122	60f6d47e13b6f6b93d860dfe	274258796	1	main_slash	11	main_slash	83	stimuli_target_squarediamonds.svg	stimuli_distractor_trianglediamonds.svg	4	yes	53	1	966
6.6.1	win	2022-12-21	17:24:55	17:35:09	613122	60f6d47e13b6f6b93d860dfe	274258796	1	main_slash	11	advance_on_keypress_SLASH	84	stimuli_target_squarediamonds.svg	stimuli_distractor_trianglediamonds.svg	4	yes	57	0	730
6.6.1	win	2022-12-21	17:24:55	17:35:12	615500	60f6d47e13b6f6b93d860dfe	274258796	1	main_slash	11	main_slash	85	stimuli_distractor_trianglediamonds.svg	stimuli_target_circletriangles.svg	9	yes	53	1	995
6.6.1	win	2022-12-21	17:24:55	17:35:12	615500	60f6d47e13b6f6b93d860dfe	274258796	1	main_slash	11	advance_on_keypress_SLASH	86	stimuli_distractor_trianglediamonds.svg	stimuli_target_circletriangles.svg	9	yes	57	0	660
6.6.1	win	2022-12-21	17:24:55	17:35:14	618129	60f6d47e13b6f6b93d860dfe	274258796	1	main_slash	11	main_slash	87	stimuli_target_trianglecircles.svg	stimuli_distractor_trianglediamonds.svg	17	yes	53	1	1325
6.6.1	win	2022-12-21	17:24:55	17:35:14	618129	60f6d47e13b6f6b93d860dfe	274258796	1	main_slash	11	advance_on_keypress_SLASH	88	stimuli_target_trianglecircles.svg	stimuli_distractor_trianglediamonds.svg	17	yes	57	0	571
6.6.1	win	2022-12-21	17:24:55	17:35:18	621336	60f6d47e13b6f6b93d860dfe	274258796	1	main_slash	11	main_slash	89	stimuli_distractor_trianglediamonds.svg	stimuli_distractor_trianglediamonds.svg	33	no	0	1	2000
6.6.1	win	2022-12-21	17:24:55	17:35:18	621336	60f6d47e13b6f6b93d860dfe	274258796	1	main_slash	11	advance_on_keypress_SLASH	90	stimuli_distractor_trianglediamonds.svg	stimuli_distractor_trianglediamonds.svg	33	no	57	0	395
6.6.1	win	2022-12-21	17:24:55	17:35:20	623622	60f6d47e13b6f6b93d860dfe	274258796	1	main_slash	11	main_slash	91	stimuli_distractor_diamondtriangles.svg	stimuli_target_circlediamonds.svg	14	yes	53	1	1238
6.6.1	win	2022-12-21	17:24:55	17:35:20	623622	60f6d47e13b6f6b93d860dfe	274258796	1	main_slash	11	advance_on_keypress_SLASH	92	stimuli_distractor_diamondtriangles.svg	stimuli_target_circlediamonds.svg	14	yes	57	0	731
6.6.1	win	2022-12-21	17:24:55	17:35:22	626067	60f6d47e13b6f6b93d860dfe	274258796	1	main_slash	11	main_slash	93	stimuli_target_circlediamonds.svg	stimuli_distractor_diamondtriangles.svg	6	yes	53	1	1068
6.6.1	win	2022-12-21	17:24:55	17:35:22	626067	60f6d47e13b6f6b93d860dfe	274258796	1	main_slash	11	advance_on_keypress_SLASH	94	stimuli_target_circlediamonds.svg	stimuli_distractor_diamondtriangles.svg	6	yes	57	0	521
6.6.1	win	2022-12-21	17:24:55	17:35:25	628511	60f6d47e13b6f6b93d860dfe	274258796	1	main_slash	11	main_slash	95	stimuli_distractor_diamondtriangles.svg	stimuli_target_trianglesquares.svg	30	yes	53	1	1279
6.6.1	win	2022-12-21	17:24:55	17:35:25	628511	60f6d47e13b6f6b93d860dfe	274258796	1	main_slash	11	advance_on_keypress_SLASH	96	stimuli_distractor_diamondtriangles.svg	stimuli_target_trianglesquares.svg	30	yes	57	0	1250
6.6.1	win	2022-12-21	17:24:55	17:35:29	632414	60f6d47e13b6f6b93d860dfe	274258796	1	main_slash	11	main_slash	97	stimuli_distractor_diamondtriangles.svg	stimuli_distractor_diamondtriangles.svg	40	no	0	1	2000
6.6.1	win	2022-12-21	17:24:55	17:35:29	632414	60f6d47e13b6f6b93d860dfe	274258796	1	main_slash	11	advance_on_keypress_SLASH	98	stimuli_distractor_diamondtriangles.svg	stimuli_distractor_diamondtriangles.svg	40	no	57	0	374
6.6.1	win	2022-12-21	17:24:55	17:35:30	634010	60f6d47e13b6f6b93d860dfe	274258796	1	main_slash	11	main_slash	99	stimuli_distractor_trianglediamonds.svg	stimuli_target_trianglesquares.svg	26	yes	53	1	581
6.6.1	win	2022-12-21	17:24:55	17:35:30	634010	60f6d47e13b6f6b93d860dfe	274258796	1	main_slash	11	advance_on_keypress_SLASH	100	stimuli_distractor_trianglediamonds.svg	stimuli_target_trianglesquares.svg	26	yes	57	0	633
6.6.1	win	2022-12-21	17:24:55	17:35:32	635919	60f6d47e13b6f6b93d860dfe	274258796	1	main_slash	11	main_slash	101	stimuli_target_trianglesquares.svg	stimuli_distractor_diamondtriangles.svg	22	yes	53	1	624
6.6.1	win	2022-12-21	17:24:55	17:35:32	635919	60f6d47e13b6f6b93d860dfe	274258796	1	main_slash	11	advance_on_keypress_SLASH	102	stimuli_target_trianglesquares.svg	stimuli_distractor_diamondtriangles.svg	22	yes	57	0	496
6.6.1	win	2022-12-21	17:24:55	17:35:34	637923	60f6d47e13b6f6b93d860dfe	274258796	1	main_slash	11	main_slash	103	stimuli_target_trianglesquares.svg	stimuli_distractor_trianglediamonds.svg	18	yes	53	1	862
6.6.1	win	2022-12-21	17:24:55	17:35:34	637923	60f6d47e13b6f6b93d860dfe	274258796	1	main_slash	11	advance_on_keypress_SLASH	104	stimuli_target_trianglesquares.svg	stimuli_distractor_trianglediamonds.svg	18	yes	57	0	421
6.6.1	win	2022-12-21	17:24:55	17:35:36	639664	60f6d47e13b6f6b93d860dfe	274258796	1	main_slash	11	main_slash	105	stimuli_target_diamondsquares.svg	stimuli_distractor_diamondtriangles.svg	24	yes	53	1	666
6.6.1	win	2022-12-21	17:24:55	17:35:36	639664	60f6d47e13b6f6b93d860dfe	274258796	1	main_slash	11	advance_on_keypress_SLASH	106	stimuli_target_diamondsquares.svg	stimuli_distractor_diamondtriangles.svg	24	yes	57	0	456
6.6.1	win	2022-12-21	17:24:55	17:35:38	641691	60f6d47e13b6f6b93d860dfe	274258796	1	main_slash	11	main_slash	107	stimuli_distractor_trianglediamonds.svg	stimuli_target_squarediamonds.svg	12	yes	53	1	931
6.6.1	win	2022-12-21	17:24:55	17:35:38	641691	60f6d47e13b6f6b93d860dfe	274258796	1	main_slash	11	advance_on_keypress_SLASH	108	stimuli_distractor_trianglediamonds.svg	stimuli_target_squarediamonds.svg	12	yes	57	0	604
6.6.1	win	2022-12-21	17:24:55	17:35:40	643735	60f6d47e13b6f6b93d860dfe	274258796	1	main_slash	11	main_slash	109	stimuli_distractor_trianglediamonds.svg	stimuli_target_squaretriangles.svg	11	yes	53	1	793
6.6.1	win	2022-12-21	17:24:55	17:35:40	643735	60f6d47e13b6f6b93d860dfe	274258796	1	main_slash	11	advance_on_keypress_SLASH	110	stimuli_distractor_trianglediamonds.svg	stimuli_target_squaretriangles.svg	11	yes	57	0	512
6.6.1	win	2022-12-21	17:24:55	17:35:42	645911	60f6d47e13b6f6b93d860dfe	274258796	1	main_slash	11	main_slash	111	stimuli_distractor_trianglediamonds.svg	stimuli_distractor_diamondtriangles.svg	36	no	53	0	1004
6.6.1	win	2022-12-21	17:24:55	17:35:42	645911	60f6d47e13b6f6b93d860dfe	274258796	1	main_slash	11	advance_on_keypress_SLASH	112	stimuli_distractor_trianglediamonds.svg	stimuli_distractor_diamondtriangles.svg	36	no	57	0	614
6.6.1	win	2022-12-21	17:24:55	17:35:45	648205	60f6d47e13b6f6b93d860dfe	274258796	1	main_slash	11	main_slash	113	stimuli_distractor_diamondtriangles.svg	stimuli_distractor_trianglediamonds.svg	38	no	53	0	1032
6.6.1	win	2022-12-21	17:24:55	17:35:45	648205	60f6d47e13b6f6b93d860dfe	274258796	1	main_slash	11	advance_on_keypress_SLASH	114	stimuli_distractor_diamondtriangles.svg	stimuli_distractor_trianglediamonds.svg	38	no	57	0	546
6.6.1	win	2022-12-21	17:24:55	17:35:46	650109	60f6d47e13b6f6b93d860dfe	274258796	1	main_slash	11	main_slash	115	stimuli_distractor_trianglediamonds.svg	stimuli_target_circlediamonds.svg	10	yes	53	1	704
6.6.1	win	2022-12-21	17:24:55	17:35:46	650109	60f6d47e13b6f6b93d860dfe	274258796	1	main_slash	11	advance_on_keypress_SLASH	116	stimuli_distractor_trianglediamonds.svg	stimuli_target_circlediamonds.svg	10	yes	57	0	622
6.6.1	win	2022-12-21	17:24:55	17:35:48	652176	60f6d47e13b6f6b93d860dfe	274258796	1	main_slash	11	main_slash	117	stimuli_distractor_diamondtriangles.svg	stimuli_target_diamondsquares.svg	32	yes	53	1	804
6.6.1	win	2022-12-21	17:24:55	17:35:48	652176	60f6d47e13b6f6b93d860dfe	274258796	1	main_slash	11	advance_on_keypress_SLASH	118	stimuli_distractor_diamondtriangles.svg	stimuli_target_diamondsquares.svg	32	yes	57	0	780
6.6.1	win	2022-12-21	17:24:55	17:35:51	654642	60f6d47e13b6f6b93d860dfe	274258796	1	main_slash	11	main_slash	119	stimuli_distractor_diamondtriangles.svg	stimuli_target_diamondcircles.svg	31	yes	53	1	1038
6.6.1	win	2022-12-21	17:24:55	17:35:51	654642	60f6d47e13b6f6b93d860dfe	274258796	1	main_slash	11	advance_on_keypress_SLASH	120	stimuli_distractor_diamondtriangles.svg	stimuli_target_diamondcircles.svg	31	yes	57	0	543
6.6.1	win	2022-12-21	17:24:55	17:35:53	656231	60f6d47e13b6f6b93d860dfe	274258796	1	main_slash	11	main_slash	121	stimuli_distractor_trianglediamonds.svg	stimuli_target_diamondcircles.svg	27	yes	53	1	411
6.6.1	win	2022-12-21	17:24:55	17:35:53	656231	60f6d47e13b6f6b93d860dfe	274258796	1	main_slash	11	advance_on_keypress_SLASH	122	stimuli_distractor_trianglediamonds.svg	stimuli_target_diamondcircles.svg	27	yes	57	0	548
6.6.1	win	2022-12-21	17:24:55	17:35:54	658174	60f6d47e13b6f6b93d860dfe	274258796	1	main_slash	11	main_slash	123	stimuli_distractor_trianglediamonds.svg	stimuli_target_trianglecircles.svg	25	yes	53	1	738
6.6.1	win	2022-12-21	17:24:55	17:35:54	658174	60f6d47e13b6f6b93d860dfe	274258796	1	main_slash	11	advance_on_keypress_SLASH	124	stimuli_distractor_trianglediamonds.svg	stimuli_target_trianglecircles.svg	25	yes	57	0	572
6.6.1	win	2022-12-21	17:24:55	17:35:57	660407	60f6d47e13b6f6b93d860dfe	274258796	1	main_slash	11	main_slash	125	stimuli_target_diamondsquares.svg	stimuli_distractor_trianglediamonds.svg	20	yes	53	1	1023
6.6.1	win	2022-12-21	17:24:55	17:35:57	660407	60f6d47e13b6f6b93d860dfe	274258796	1	main_slash	11	advance_on_keypress_SLASH	126	stimuli_target_diamondsquares.svg	stimuli_distractor_trianglediamonds.svg	20	yes	57	0	544
6.6.1	win	2022-12-21	17:24:55	17:35:59	662720	60f6d47e13b6f6b93d860dfe	274258796	1	main_slash	11	main_slash	127	stimuli_distractor_diamondtriangles.svg	stimuli_distractor_trianglediamonds.svg	37	no	53	0	1136
6.6.1	win	2022-12-21	17:24:55	17:35:59	662720	60f6d47e13b6f6b93d860dfe	274258796	1	main_slash	11	advance_on_keypress_SLASH	128	stimuli_distractor_diamondtriangles.svg	stimuli_distractor_trianglediamonds.svg	37	no	57	0	569
6.6.1	win	2022-12-21	17:24:55	17:36:01	665015	60f6d47e13b6f6b93d860dfe	274258796	1	main_slash	11	main_slash	129	stimuli_target_diamondcircles.svg	stimuli_distractor_trianglediamonds.svg	19	yes	53	1	1082
6.6.1	win	2022-12-21	17:24:55	17:36:01	665015	60f6d47e13b6f6b93d860dfe	274258796	1	main_slash	11	advance_on_keypress_SLASH	130	stimuli_target_diamondcircles.svg	stimuli_distractor_trianglediamonds.svg	19	yes	57	0	452
6.6.1	win	2022-12-21	17:24:55	17:36:04	668114	60f6d47e13b6f6b93d860dfe	274258796	1	main_slash	11	main_slash	131	stimuli_distractor_trianglediamonds.svg	stimuli_distractor_diamondtriangles.svg	35	no	0	1	2000
6.6.1	win	2022-12-21	17:24:55	17:36:04	668114	60f6d47e13b6f6b93d860dfe	274258796	1	main_slash	11	advance_on_keypress_SLASH	132	stimuli_distractor_trianglediamonds.svg	stimuli_distractor_diamondtriangles.svg	35	no	57	0	358
6.6.1	win	2022-12-21	17:24:55	17:36:06	670077	60f6d47e13b6f6b93d860dfe	274258796	1	main_slash	11	main_slash	133	stimuli_target_squaretriangles.svg	stimuli_distractor_diamondtriangles.svg	7	yes	53	1	964
6.6.1	win	2022-12-21	17:24:55	17:36:06	670077	60f6d47e13b6f6b93d860dfe	274258796	1	main_slash	11	advance_on_keypress_SLASH	134	stimuli_target_squaretriangles.svg	stimuli_distractor_diamondtriangles.svg	7	yes	57	0	483
6.6.1	win	2022-12-21	17:24:55	17:36:08	671891	60f6d47e13b6f6b93d860dfe	274258796	1	main_slash	11	main_slash	135	stimuli_target_circlediamonds.svg	stimuli_distractor_trianglediamonds.svg	2	yes	53	1	679
6.6.1	win	2022-12-21	17:24:55	17:36:08	671891	60f6d47e13b6f6b93d860dfe	274258796	1	main_slash	11	advance_on_keypress_SLASH	136	stimuli_target_circlediamonds.svg	stimuli_distractor_trianglediamonds.svg	2	yes	57	0	444
6.6.1	win	2022-12-21	17:24:55	17:36:10	673484	60f6d47e13b6f6b93d860dfe	274258796	1	main_slash	11	main_slash	137	stimuli_distractor_diamondtriangles.svg	stimuli_target_circletriangles.svg	13	yes	53	1	490
6.6.1	win	2022-12-21	17:24:55	17:36:10	673484	60f6d47e13b6f6b93d860dfe	274258796	1	main_slash	11	advance_on_keypress_SLASH	138	stimuli_distractor_diamondtriangles.svg	stimuli_target_circletriangles.svg	13	yes	57	0	499
6.6.1	win	2022-12-21	17:24:55	17:36:12	675207	60f6d47e13b6f6b93d860dfe	274258796	1	main_slash	11	main_slash	139	stimuli_target_circletriangles.svg	stimuli_distractor_diamondtriangles.svg	5	yes	53	1	579
6.6.1	win	2022-12-21	17:24:55	17:36:12	675207	60f6d47e13b6f6b93d860dfe	274258796	1	main_slash	11	advance_on_keypress_SLASH	140	stimuli_target_circletriangles.svg	stimuli_distractor_diamondtriangles.svg	5	yes	57	0	494
6.6.1	win	2022-12-21	17:24:55	17:36:13	676994	60f6d47e13b6f6b93d860dfe	274258796	1	main_slash	11	main_slash	141	stimuli_target_diamondcircles.svg	stimuli_distractor_diamondtriangles.svg	23	yes	53	1	634
6.6.1	win	2022-12-21	17:24:55	17:36:13	676994	60f6d47e13b6f6b93d860dfe	274258796	1	main_slash	11	advance_on_keypress_SLASH	142	stimuli_target_diamondcircles.svg	stimuli_distractor_diamondtriangles.svg	23	yes	57	0	646
6.6.1	win	2022-12-21	17:24:55	17:36:16	679312	60f6d47e13b6f6b93d860dfe	274258796	1	main_slash	11	main_slash	143	stimuli_distractor_diamondtriangles.svg	stimuli_target_squaretriangles.svg	15	yes	53	1	1019
6.6.1	win	2022-12-21	17:24:55	17:36:16	679312	60f6d47e13b6f6b93d860dfe	274258796	1	main_slash	11	advance_on_keypress_SLASH	144	stimuli_distractor_diamondtriangles.svg	stimuli_target_squaretriangles.svg	15	yes	57	0	670
6.6.1	win	2022-12-21	17:24:55	17:36:18	681692	60f6d47e13b6f6b93d860dfe	274258796	1	main_slash	11	main_slash	145	stimuli_target_squarediamonds.svg	stimuli_distractor_diamondtriangles.svg	8	yes	53	1	1068
6.6.1	win	2022-12-21	17:24:55	17:36:18	681692	60f6d47e13b6f6b93d860dfe	274258796	1	main_slash	11	advance_on_keypress_SLASH	146	stimuli_target_squarediamonds.svg	stimuli_distractor_diamondtriangles.svg	8	yes	57	0	606
6.6.1	win	2022-12-21	17:24:55	17:36:21	684940	60f6d47e13b6f6b93d860dfe	274258796	1	main_slash	11	main_slash	147	stimuli_distractor_diamondtriangles.svg	stimuli_distractor_diamondtriangles.svg	39	no	0	1	2000
6.6.1	win	2022-12-21	17:24:55	17:36:21	684940	60f6d47e13b6f6b93d860dfe	274258796	1	main_slash	11	advance_on_keypress_SLASH	148	stimuli_distractor_diamondtriangles.svg	stimuli_distractor_diamondtriangles.svg	39	no	57	0	1032
6.6.1	win	2022-12-21	17:24:55	17:36:24	687573	60f6d47e13b6f6b93d860dfe	274258796	1	main_slash	11	main_slash	149	stimuli_distractor_trianglediamonds.svg	stimuli_target_diamondsquares.svg	28	yes	53	1	951
6.6.1	win	2022-12-21	17:24:55	17:36:24	687573	60f6d47e13b6f6b93d860dfe	274258796	1	main_slash	11	advance_on_keypress_SLASH	150	stimuli_distractor_trianglediamonds.svg	stimuli_target_diamondsquares.svg	28	yes	57	0	754
6.6.1	win	2022-12-21	17:24:55	17:36:26	689841	60f6d47e13b6f6b93d860dfe	274258796	1	main_slash	11	main_slash	151	stimuli_target_squaretriangles.svg	stimuli_distractor_trianglediamonds.svg	3	yes	53	1	871
6.6.1	win	2022-12-21	17:24:55	17:36:26	689841	60f6d47e13b6f6b93d860dfe	274258796	1	main_slash	11	advance_on_keypress_SLASH	152	stimuli_target_squaretriangles.svg	stimuli_distractor_trianglediamonds.svg	3	yes	57	0	586
6.6.1	win	2022-12-21	17:24:55	17:36:28	692039	60f6d47e13b6f6b93d860dfe	274258796	1	main_slash	11	main_slash	153	stimuli_distractor_diamondtriangles.svg	stimuli_target_squarediamonds.svg	16	yes	53	1	970
6.6.1	win	2022-12-21	17:24:55	17:36:28	692039	60f6d47e13b6f6b93d860dfe	274258796	1	main_slash	11	advance_on_keypress_SLASH	154	stimuli_distractor_diamondtriangles.svg	stimuli_target_squarediamonds.svg	16	yes	57	0	536
6.6.1	win	2022-12-21	17:24:55	17:36:31	694499	60f6d47e13b6f6b93d860dfe	274258796	1	main_slash	11	main_slash	155	stimuli_distractor_diamondtriangles.svg	stimuli_target_trianglecircles.svg	29	yes	53	1	1280
6.6.1	win	2022-12-21	17:24:55	17:36:31	694499	60f6d47e13b6f6b93d860dfe	274258796	1	main_slash	11	advance_on_keypress_SLASH	156	stimuli_distractor_diamondtriangles.svg	stimuli_target_trianglecircles.svg	29	yes	57	0	854
6.6.1	win	2022-12-21	17:24:55	17:36:33	697032	60f6d47e13b6f6b93d860dfe	274258796	1	main_slash	11	main_slash	157	stimuli_target_trianglecircles.svg	stimuli_distractor_diamondtriangles.svg	21	yes	53	1	1031
6.6.1	win	2022-12-21	17:24:55	17:36:33	697032	60f6d47e13b6f6b93d860dfe	274258796	1	main_slash	11	advance_on_keypress_SLASH	158	stimuli_target_trianglecircles.svg	stimuli_distractor_diamondtriangles.svg	21	yes	57	0	669
6.6.1	win	2022-12-21	17:24:55	17:36:36	699334	60f6d47e13b6f6b93d860dfe	274258796	1	main_slash	11	main_slash	159	stimuli_target_circletriangles.svg	stimuli_distractor_trianglediamonds.svg	1	yes	53	1	984
6.6.1	win	2022-12-21	17:24:55	17:36:36	699334	60f6d47e13b6f6b93d860dfe	274258796	1	main_slash	11	advance_on_keypress_SLASH	160	stimuli_target_circletriangles.svg	stimuli_distractor_trianglediamonds.svg	1	yes	57	0	594