build	computer.platform	date	time	timestamp	time_elapsed_ms	subject	group	session	blockcode	blocknum	trialcode	trialnum	stimulus_left	stimulus_right	stim_index	target_present	response	correct	latency
6.6.1	win	2022-12-14	13:39:52	13:43:06	192520	62b0a213241d25b7185f43a4	356963807	1	practice_slash	5	practice_slash	1	stimuli_distractor_diamondtriangles.svg	stimuli_distractor_trianglediamonds.svg	14	no	0	1	2000
6.6.1	win	2022-12-14	13:39:52	13:43:06	192520	62b0a213241d25b7185f43a4	356963807	1	practice_slash	5	advance_on_keypress_SLASH	2	stimuli_distractor_diamondtriangles.svg	stimuli_distractor_trianglediamonds.svg	14	no	57	0	4568
6.6.1	win	2022-12-14	13:39:52	13:43:14	200745	62b0a213241d25b7185f43a4	356963807	1	practice_slash	5	practice_slash	3	stimuli_distractor_trianglediamonds.svg	stimuli_target_circlediamonds.svg	10	yes	0	0	2000
6.6.1	win	2022-12-14	13:39:52	13:43:14	200745	62b0a213241d25b7185f43a4	356963807	1	practice_slash	5	advance_on_keypress_SLASH	4	stimuli_distractor_trianglediamonds.svg	stimuli_target_circlediamonds.svg	10	yes	57	0	1407
6.6.1	win	2022-12-14	13:39:52	13:43:20	205799	62b0a213241d25b7185f43a4	356963807	1	practice_slash	5	practice_slash	5	stimuli_distractor_diamondtriangles.svg	stimuli_target_circletriangles.svg	7	yes	0	0	2000
6.6.1	win	2022-12-14	13:39:52	13:43:20	205799	62b0a213241d25b7185f43a4	356963807	1	practice_slash	5	advance_on_keypress_SLASH	6	stimuli_distractor_diamondtriangles.svg	stimuli_target_circletriangles.svg	7	yes	57	0	687
6.6.1	win	2022-12-14	13:39:52	13:43:23	208859	62b0a213241d25b7185f43a4	356963807	1	practice_slash	5	practice_slash	7	stimuli_target_squarediamonds.svg	stimuli_distractor_diamondtriangles.svg	2	yes	53	1	739
6.6.1	win	2022-12-14	13:39:52	13:43:23	208859	62b0a213241d25b7185f43a4	356963807	1	practice_slash	5	advance_on_keypress_SLASH	8	stimuli_target_squarediamonds.svg	stimuli_distractor_diamondtriangles.svg	2	yes	57	0	1091
6.6.1	win	2022-12-14	13:39:52	13:43:26	212579	62b0a213241d25b7185f43a4	356963807	1	practice_slash	5	practice_slash	9	stimuli_distractor_trianglediamonds.svg	stimuli_target_squarediamonds.svg	11	yes	53	1	988
6.6.1	win	2022-12-14	13:39:52	13:43:26	212579	62b0a213241d25b7185f43a4	356963807	1	practice_slash	5	advance_on_keypress_SLASH	10	stimuli_distractor_trianglediamonds.svg	stimuli_target_squarediamonds.svg	11	yes	57	0	609
6.6.1	win	2022-12-14	13:39:52	13:43:29	215564	62b0a213241d25b7185f43a4	356963807	1	practice_slash	5	practice_slash	11	stimuli_distractor_diamondtriangles.svg	stimuli_target_trianglecircles.svg	9	yes	53	1	736
6.6.1	win	2022-12-14	13:39:52	13:43:29	215564	62b0a213241d25b7185f43a4	356963807	1	practice_slash	5	advance_on_keypress_SLASH	12	stimuli_distractor_diamondtriangles.svg	stimuli_target_trianglecircles.svg	9	yes	57	0	911
6.6.1	win	2022-12-14	13:39:52	13:43:34	220114	62b0a213241d25b7185f43a4	356963807	1	practice_slash	5	practice_slash	13	stimuli_distractor_trianglediamonds.svg	stimuli_distractor_diamondtriangles.svg	16	no	0	1	2000
6.6.1	win	2022-12-14	13:39:52	13:43:34	220114	62b0a213241d25b7185f43a4	356963807	1	practice_slash	5	advance_on_keypress_SLASH	14	stimuli_distractor_trianglediamonds.svg	stimuli_distractor_diamondtriangles.svg	16	no	57	0	829
6.6.1	win	2022-12-14	13:39:52	13:43:37	223419	62b0a213241d25b7185f43a4	356963807	1	practice_slash	5	practice_slash	15	stimuli_target_circlediamonds.svg	stimuli_distractor_diamondtriangles.svg	1	yes	53	1	834
6.6.1	win	2022-12-14	13:39:52	13:43:37	223419	62b0a213241d25b7185f43a4	356963807	1	practice_slash	5	advance_on_keypress_SLASH	16	stimuli_target_circlediamonds.svg	stimuli_distractor_diamondtriangles.svg	1	yes	57	0	766
6.6.1	win	2022-12-14	13:39:52	13:43:40	226691	62b0a213241d25b7185f43a4	356963807	1	practice_slash	5	practice_slash	17	stimuli_distractor_diamondtriangles.svg	stimuli_target_diamondcircles.svg	8	yes	53	1	852
6.6.1	win	2022-12-14	13:39:52	13:43:40	226691	62b0a213241d25b7185f43a4	356963807	1	practice_slash	5	advance_on_keypress_SLASH	18	stimuli_distractor_diamondtriangles.svg	stimuli_target_diamondcircles.svg	8	yes	57	0	839
6.6.1	win	2022-12-14	13:39:52	13:43:45	231175	62b0a213241d25b7185f43a4	356963807	1	practice_slash	5	practice_slash	19	stimuli_distractor_trianglediamonds.svg	stimuli_distractor_trianglediamonds.svg	15	no	0	1	2000
6.6.1	win	2022-12-14	13:39:52	13:43:45	231175	62b0a213241d25b7185f43a4	356963807	1	practice_slash	5	advance_on_keypress_SLASH	20	stimuli_distractor_trianglediamonds.svg	stimuli_distractor_trianglediamonds.svg	15	no	57	0	735
6.6.1	win	2022-12-14	13:39:52	13:43:48	234187	62b0a213241d25b7185f43a4	356963807	1	practice_slash	5	practice_slash	21	stimuli_distractor_trianglediamonds.svg	stimuli_target_diamondcircles.svg	12	yes	53	1	625
6.6.1	win	2022-12-14	13:39:52	13:43:48	234187	62b0a213241d25b7185f43a4	356963807	1	practice_slash	5	advance_on_keypress_SLASH	22	stimuli_distractor_trianglediamonds.svg	stimuli_target_diamondcircles.svg	12	yes	57	0	556
6.6.1	win	2022-12-14	13:39:52	13:43:51	237138	62b0a213241d25b7185f43a4	356963807	1	practice_slash	5	practice_slash	23	stimuli_target_squarediamonds.svg	stimuli_distractor_trianglediamonds.svg	5	yes	53	1	757
6.6.1	win	2022-12-14	13:39:52	13:43:51	237138	62b0a213241d25b7185f43a4	356963807	1	practice_slash	5	advance_on_keypress_SLASH	24	stimuli_target_squarediamonds.svg	stimuli_distractor_trianglediamonds.svg	5	yes	57	0	701
6.6.1	win	2022-12-14	13:39:52	13:43:55	241486	62b0a213241d25b7185f43a4	356963807	1	practice_slash	5	practice_slash	25	stimuli_target_diamondsquares.svg	stimuli_distractor_trianglediamonds.svg	6	yes	0	0	2000
6.6.1	win	2022-12-14	13:39:52	13:43:55	241486	62b0a213241d25b7185f43a4	356963807	1	practice_slash	5	advance_on_keypress_SLASH	26	stimuli_target_diamondsquares.svg	stimuli_distractor_trianglediamonds.svg	6	yes	57	0	586
6.6.1	win	2022-12-14	13:39:52	13:43:59	245723	62b0a213241d25b7185f43a4	356963807	1	practice_slash	5	practice_slash	27	stimuli_distractor_diamondtriangles.svg	stimuli_distractor_diamondtriangles.svg	13	no	0	1	2000
6.6.1	win	2022-12-14	13:39:52	13:43:59	245723	62b0a213241d25b7185f43a4	356963807	1	practice_slash	5	advance_on_keypress_SLASH	28	stimuli_distractor_diamondtriangles.svg	stimuli_distractor_diamondtriangles.svg	13	no	57	0	556
6.6.1	win	2022-12-14	13:39:52	13:44:02	248491	62b0a213241d25b7185f43a4	356963807	1	practice_slash	5	practice_slash	29	stimuli_target_circlediamonds.svg	stimuli_distractor_trianglediamonds.svg	4	yes	53	1	564
6.6.1	win	2022-12-14	13:39:52	13:44:02	248491	62b0a213241d25b7185f43a4	356963807	1	practice_slash	5	advance_on_keypress_SLASH	30	stimuli_target_circlediamonds.svg	stimuli_distractor_trianglediamonds.svg	4	yes	57	0	627
6.6.1	win	2022-12-14	13:39:52	13:44:06	252747	62b0a213241d25b7185f43a4	356963807	1	practice_slash	5	practice_slash	31	stimuli_target_diamondsquares.svg	stimuli_distractor_diamondtriangles.svg	3	yes	0	0	2000
6.6.1	win	2022-12-14	13:39:52	13:44:06	252747	62b0a213241d25b7185f43a4	356963807	1	practice_slash	5	advance_on_keypress_SLASH	32	stimuli_target_diamondsquares.svg	stimuli_distractor_diamondtriangles.svg	3	yes	57	0	444
6.6.1	win	2022-12-14	13:39:52	13:44:18	264178	62b0a213241d25b7185f43a4	356963807	1	main_slash	7	main_slash	1	stimuli_distractor_trianglediamonds.svg	stimuli_target_diamondcircles.svg	27	yes	53	1	468
6.6.1	win	2022-12-14	13:39:52	13:44:18	264178	62b0a213241d25b7185f43a4	356963807	1	main_slash	7	advance_on_keypress_SLASH	2	stimuli_distractor_trianglediamonds.svg	stimuli_target_diamondcircles.svg	27	yes	57	0	2072
6.6.1	win	2022-12-14	13:39:52	13:44:21	267482	62b0a213241d25b7185f43a4	356963807	1	main_slash	7	main_slash	3	stimuli_target_circletriangles.svg	stimuli_distractor_trianglediamonds.svg	1	yes	53	1	586
6.6.1	win	2022-12-14	13:39:52	13:44:21	267482	62b0a213241d25b7185f43a4	356963807	1	main_slash	7	advance_on_keypress_SLASH	4	stimuli_target_circletriangles.svg	stimuli_distractor_trianglediamonds.svg	1	yes	57	0	1361
6.6.1	win	2022-12-14	13:39:52	13:44:25	271482	62b0a213241d25b7185f43a4	356963807	1	main_slash	7	main_slash	5	stimuli_distractor_diamondtriangles.svg	stimuli_distractor_trianglediamonds.svg	38	no	0	1	2000
6.6.1	win	2022-12-14	13:39:52	13:44:25	271482	62b0a213241d25b7185f43a4	356963807	1	main_slash	7	advance_on_keypress_SLASH	6	stimuli_distractor_diamondtriangles.svg	stimuli_distractor_trianglediamonds.svg	38	no	57	0	717
6.6.1	win	2022-12-14	13:39:52	13:44:27	273522	62b0a213241d25b7185f43a4	356963807	1	main_slash	7	main_slash	7	stimuli_distractor_trianglediamonds.svg	stimuli_target_squarediamonds.svg	12	yes	53	1	670
6.6.1	win	2022-12-14	13:39:52	13:44:27	273522	62b0a213241d25b7185f43a4	356963807	1	main_slash	7	advance_on_keypress_SLASH	8	stimuli_distractor_trianglediamonds.svg	stimuli_target_squarediamonds.svg	12	yes	57	0	1369
6.6.1	win	2022-12-14	13:39:52	13:44:30	276106	62b0a213241d25b7185f43a4	356963807	1	main_slash	7	main_slash	9	stimuli_target_squarediamonds.svg	stimuli_distractor_trianglediamonds.svg	4	yes	53	1	568
6.6.1	win	2022-12-14	13:39:52	13:44:30	276106	62b0a213241d25b7185f43a4	356963807	1	main_slash	7	advance_on_keypress_SLASH	10	stimuli_target_squarediamonds.svg	stimuli_distractor_trianglediamonds.svg	4	yes	57	0	783
6.6.1	win	2022-12-14	13:39:52	13:44:32	278578	62b0a213241d25b7185f43a4	356963807	1	main_slash	7	main_slash	11	stimuli_target_squaretriangles.svg	stimuli_distractor_trianglediamonds.svg	3	yes	53	1	1039
6.6.1	win	2022-12-14	13:39:52	13:44:32	278578	62b0a213241d25b7185f43a4	356963807	1	main_slash	7	advance_on_keypress_SLASH	12	stimuli_target_squaretriangles.svg	stimuli_distractor_trianglediamonds.svg	3	yes	57	0	618
6.6.1	win	2022-12-14	13:39:52	13:44:36	281842	62b0a213241d25b7185f43a4	356963807	1	main_slash	7	main_slash	13	stimuli_distractor_diamondtriangles.svg	stimuli_target_diamondsquares.svg	32	yes	0	0	2000
6.6.1	win	2022-12-14	13:39:52	13:44:36	281842	62b0a213241d25b7185f43a4	356963807	1	main_slash	7	advance_on_keypress_SLASH	14	stimuli_distractor_diamondtriangles.svg	stimuli_target_diamondsquares.svg	32	yes	57	0	540
6.6.1	win	2022-12-14	13:39:52	13:44:38	284154	62b0a213241d25b7185f43a4	356963807	1	main_slash	7	main_slash	15	stimuli_target_trianglesquares.svg	stimuli_distractor_diamondtriangles.svg	22	yes	53	1	1126
6.6.1	win	2022-12-14	13:39:52	13:44:38	284154	62b0a213241d25b7185f43a4	356963807	1	main_slash	7	advance_on_keypress_SLASH	16	stimuli_target_trianglesquares.svg	stimuli_distractor_diamondtriangles.svg	22	yes	57	0	798
6.6.1	win	2022-12-14	13:39:52	13:44:41	287598	62b0a213241d25b7185f43a4	356963807	1	main_slash	7	main_slash	17	stimuli_distractor_trianglediamonds.svg	stimuli_target_trianglesquares.svg	26	yes	0	0	2000
6.6.1	win	2022-12-14	13:39:52	13:44:41	287598	62b0a213241d25b7185f43a4	356963807	1	main_slash	7	advance_on_keypress_SLASH	18	stimuli_distractor_trianglediamonds.svg	stimuli_target_trianglesquares.svg	26	yes	57	0	593
6.6.1	win	2022-12-14	13:39:52	13:44:43	289418	62b0a213241d25b7185f43a4	356963807	1	main_slash	7	main_slash	19	stimuli_distractor_trianglediamonds.svg	stimuli_target_trianglecircles.svg	25	yes	53	1	583
6.6.1	win	2022-12-14	13:39:52	13:44:43	289418	62b0a213241d25b7185f43a4	356963807	1	main_slash	7	advance_on_keypress_SLASH	20	stimuli_distractor_trianglediamonds.svg	stimuli_target_trianglecircles.svg	25	yes	57	0	1070
6.6.1	win	2022-12-14	13:39:52	13:44:46	291922	62b0a213241d25b7185f43a4	356963807	1	main_slash	7	main_slash	21	stimuli_distractor_diamondtriangles.svg	stimuli_target_squaretriangles.svg	15	yes	53	1	785
6.6.1	win	2022-12-14	13:39:52	13:44:46	291922	62b0a213241d25b7185f43a4	356963807	1	main_slash	7	advance_on_keypress_SLASH	22	stimuli_distractor_diamondtriangles.svg	stimuli_target_squaretriangles.svg	15	yes	57	0	592
6.6.1	win	2022-12-14	13:39:52	13:44:48	293962	62b0a213241d25b7185f43a4	356963807	1	main_slash	7	main_slash	23	stimuli_distractor_diamondtriangles.svg	stimuli_target_diamondcircles.svg	31	yes	53	1	806
6.6.1	win	2022-12-14	13:39:52	13:44:48	293962	62b0a213241d25b7185f43a4	356963807	1	main_slash	7	advance_on_keypress_SLASH	24	stimuli_distractor_diamondtriangles.svg	stimuli_target_diamondcircles.svg	31	yes	57	0	620
6.6.1	win	2022-12-14	13:39:52	13:44:50	296362	62b0a213241d25b7185f43a4	356963807	1	main_slash	7	main_slash	25	stimuli_distractor_trianglediamonds.svg	stimuli_target_circletriangles.svg	9	yes	53	1	1139
6.6.1	win	2022-12-14	13:39:52	13:44:50	296362	62b0a213241d25b7185f43a4	356963807	1	main_slash	7	advance_on_keypress_SLASH	26	stimuli_distractor_trianglediamonds.svg	stimuli_target_circletriangles.svg	9	yes	57	0	522
6.6.1	win	2022-12-14	13:39:52	13:44:53	299526	62b0a213241d25b7185f43a4	356963807	1	main_slash	7	main_slash	27	stimuli_distractor_diamondtriangles.svg	stimuli_distractor_diamondtriangles.svg	39	no	0	1	2000
6.6.1	win	2022-12-14	13:39:52	13:44:53	299526	62b0a213241d25b7185f43a4	356963807	1	main_slash	7	advance_on_keypress_SLASH	28	stimuli_distractor_diamondtriangles.svg	stimuli_distractor_diamondtriangles.svg	39	no	57	0	432
6.6.1	win	2022-12-14	13:39:52	13:44:55	301458	62b0a213241d25b7185f43a4	356963807	1	main_slash	7	main_slash	29	stimuli_target_diamondcircles.svg	stimuli_distractor_diamondtriangles.svg	23	yes	53	1	845
6.6.1	win	2022-12-14	13:39:52	13:44:55	301458	62b0a213241d25b7185f43a4	356963807	1	main_slash	7	advance_on_keypress_SLASH	30	stimuli_target_diamondcircles.svg	stimuli_distractor_diamondtriangles.svg	23	yes	57	0	586
6.6.1	win	2022-12-14	13:39:52	13:44:58	304682	62b0a213241d25b7185f43a4	356963807	1	main_slash	7	main_slash	31	stimuli_distractor_diamondtriangles.svg	stimuli_distractor_diamondtriangles.svg	40	no	0	1	2000
6.6.1	win	2022-12-14	13:39:52	13:44:58	304682	62b0a213241d25b7185f43a4	356963807	1	main_slash	7	advance_on_keypress_SLASH	32	stimuli_distractor_diamondtriangles.svg	stimuli_distractor_diamondtriangles.svg	40	no	57	0	757
6.6.1	win	2022-12-14	13:39:52	13:45:02	308085	62b0a213241d25b7185f43a4	356963807	1	main_slash	7	main_slash	33	stimuli_target_diamondcircles.svg	stimuli_distractor_trianglediamonds.svg	19	yes	0	0	2000
6.6.1	win	2022-12-14	13:39:52	13:45:02	308085	62b0a213241d25b7185f43a4	356963807	1	main_slash	7	advance_on_keypress_SLASH	34	stimuli_target_diamondcircles.svg	stimuli_distractor_trianglediamonds.svg	19	yes	57	0	418
6.6.1	win	2022-12-14	13:39:52	13:45:03	309682	62b0a213241d25b7185f43a4	356963807	1	main_slash	7	main_slash	35	stimuli_distractor_trianglediamonds.svg	stimuli_target_circlediamonds.svg	10	yes	53	1	527
6.6.1	win	2022-12-14	13:39:52	13:45:03	309682	62b0a213241d25b7185f43a4	356963807	1	main_slash	7	advance_on_keypress_SLASH	36	stimuli_distractor_trianglediamonds.svg	stimuli_target_circlediamonds.svg	10	yes	57	0	1049
6.6.1	win	2022-12-14	13:39:52	13:45:06	311866	62b0a213241d25b7185f43a4	356963807	1	main_slash	7	main_slash	37	stimuli_target_squaretriangles.svg	stimuli_distractor_diamondtriangles.svg	7	yes	53	1	492
6.6.1	win	2022-12-14	13:39:52	13:45:06	311866	62b0a213241d25b7185f43a4	356963807	1	main_slash	7	advance_on_keypress_SLASH	38	stimuli_target_squaretriangles.svg	stimuli_distractor_diamondtriangles.svg	7	yes	57	0	751
6.6.1	win	2022-12-14	13:39:52	13:45:07	313722	62b0a213241d25b7185f43a4	356963807	1	main_slash	7	main_slash	39	stimuli_distractor_diamondtriangles.svg	stimuli_target_squarediamonds.svg	16	yes	53	1	463
6.6.1	win	2022-12-14	13:39:52	13:45:07	313722	62b0a213241d25b7185f43a4	356963807	1	main_slash	7	advance_on_keypress_SLASH	40	stimuli_distractor_diamondtriangles.svg	stimuli_target_squarediamonds.svg	16	yes	57	0	507
6.6.1	win	2022-12-14	13:39:52	13:45:09	315466	62b0a213241d25b7185f43a4	356963807	1	main_slash	7	main_slash	41	stimuli_distractor_diamondtriangles.svg	stimuli_target_circlediamonds.svg	14	yes	53	1	605
6.6.1	win	2022-12-14	13:39:52	13:45:09	315466	62b0a213241d25b7185f43a4	356963807	1	main_slash	7	advance_on_keypress_SLASH	42	stimuli_distractor_diamondtriangles.svg	stimuli_target_circlediamonds.svg	14	yes	57	0	532
6.6.1	win	2022-12-14	13:39:52	13:45:11	317298	62b0a213241d25b7185f43a4	356963807	1	main_slash	7	main_slash	43	stimuli_target_trianglecircles.svg	stimuli_distractor_trianglediamonds.svg	17	yes	53	1	652
6.6.1	win	2022-12-14	13:39:52	13:45:11	317298	62b0a213241d25b7185f43a4	356963807	1	main_slash	7	advance_on_keypress_SLASH	44	stimuli_target_trianglecircles.svg	stimuli_distractor_trianglediamonds.svg	17	yes	57	0	440
6.6.1	win	2022-12-14	13:39:52	13:45:13	319010	62b0a213241d25b7185f43a4	356963807	1	main_slash	7	main_slash	45	stimuli_target_circletriangles.svg	stimuli_distractor_diamondtriangles.svg	5	yes	53	1	629
6.6.1	win	2022-12-14	13:39:52	13:45:13	319010	62b0a213241d25b7185f43a4	356963807	1	main_slash	7	advance_on_keypress_SLASH	46	stimuli_target_circletriangles.svg	stimuli_distractor_diamondtriangles.svg	5	yes	57	0	482
6.6.1	win	2022-12-14	13:39:52	13:45:16	322132	62b0a213241d25b7185f43a4	356963807	1	main_slash	7	main_slash	47	stimuli_target_diamondsquares.svg	stimuli_distractor_trianglediamonds.svg	20	yes	0	0	2000
6.6.1	win	2022-12-14	13:39:52	13:45:16	322132	62b0a213241d25b7185f43a4	356963807	1	main_slash	7	advance_on_keypress_SLASH	48	stimuli_target_diamondsquares.svg	stimuli_distractor_trianglediamonds.svg	20	yes	57	0	538
6.6.1	win	2022-12-14	13:39:52	13:45:18	323882	62b0a213241d25b7185f43a4	356963807	1	main_slash	7	main_slash	49	stimuli_distractor_diamondtriangles.svg	stimuli_target_trianglesquares.svg	30	yes	53	1	563
6.6.1	win	2022-12-14	13:39:52	13:45:18	323882	62b0a213241d25b7185f43a4	356963807	1	main_slash	7	advance_on_keypress_SLASH	50	stimuli_distractor_diamondtriangles.svg	stimuli_target_trianglesquares.svg	30	yes	57	0	667
6.6.1	win	2022-12-14	13:39:52	13:45:21	327188	62b0a213241d25b7185f43a4	356963807	1	main_slash	7	main_slash	51	stimuli_distractor_trianglediamonds.svg	stimuli_distractor_diamondtriangles.svg	35	no	0	1	2000
6.6.1	win	2022-12-14	13:39:52	13:45:21	327188	62b0a213241d25b7185f43a4	356963807	1	main_slash	7	advance_on_keypress_SLASH	52	stimuli_distractor_trianglediamonds.svg	stimuli_distractor_diamondtriangles.svg	35	no	57	0	443
6.6.1	win	2022-12-14	13:39:52	13:45:23	328791	62b0a213241d25b7185f43a4	356963807	1	main_slash	7	main_slash	53	stimuli_target_circlediamonds.svg	stimuli_distractor_diamondtriangles.svg	6	yes	53	1	512
6.6.1	win	2022-12-14	13:39:52	13:45:23	328791	62b0a213241d25b7185f43a4	356963807	1	main_slash	7	advance_on_keypress_SLASH	54	stimuli_target_circlediamonds.svg	stimuli_distractor_diamondtriangles.svg	6	yes	57	0	762
6.6.1	win	2022-12-14	13:39:52	13:45:25	331306	62b0a213241d25b7185f43a4	356963807	1	main_slash	7	main_slash	55	stimuli_target_trianglecircles.svg	stimuli_distractor_diamondtriangles.svg	21	yes	53	1	1114
6.6.1	win	2022-12-14	13:39:52	13:45:25	331306	62b0a213241d25b7185f43a4	356963807	1	main_slash	7	advance_on_keypress_SLASH	56	stimuli_target_trianglecircles.svg	stimuli_distractor_diamondtriangles.svg	21	yes	57	0	395
6.6.1	win	2022-12-14	13:39:52	13:45:27	332818	62b0a213241d25b7185f43a4	356963807	1	main_slash	7	main_slash	57	stimuli_target_squarediamonds.svg	stimuli_distractor_diamondtriangles.svg	8	yes	53	1	490
6.6.1	win	2022-12-14	13:39:52	13:45:27	332818	62b0a213241d25b7185f43a4	356963807	1	main_slash	7	advance_on_keypress_SLASH	58	stimuli_target_squarediamonds.svg	stimuli_distractor_diamondtriangles.svg	8	yes	57	0	541
6.6.1	win	2022-12-14	13:39:52	13:45:29	334762	62b0a213241d25b7185f43a4	356963807	1	main_slash	7	main_slash	59	stimuli_target_trianglesquares.svg	stimuli_distractor_trianglediamonds.svg	18	yes	53	1	766
6.6.1	win	2022-12-14	13:39:52	13:45:29	334762	62b0a213241d25b7185f43a4	356963807	1	main_slash	7	advance_on_keypress_SLASH	60	stimuli_target_trianglesquares.svg	stimuli_distractor_trianglediamonds.svg	18	yes	57	0	493
6.6.1	win	2022-12-14	13:39:52	13:45:30	336562	62b0a213241d25b7185f43a4	356963807	1	main_slash	7	main_slash	61	stimuli_distractor_diamondtriangles.svg	stimuli_target_circletriangles.svg	13	yes	53	1	665
6.6.1	win	2022-12-14	13:39:52	13:45:30	336562	62b0a213241d25b7185f43a4	356963807	1	main_slash	7	advance_on_keypress_SLASH	62	stimuli_distractor_diamondtriangles.svg	stimuli_target_circletriangles.svg	13	yes	57	0	404
6.6.1	win	2022-12-14	13:39:52	13:45:32	338442	62b0a213241d25b7185f43a4	356963807	1	main_slash	7	main_slash	63	stimuli_distractor_trianglediamonds.svg	stimuli_target_squaretriangles.svg	11	yes	53	1	825
6.6.1	win	2022-12-14	13:39:52	13:45:32	338442	62b0a213241d25b7185f43a4	356963807	1	main_slash	7	advance_on_keypress_SLASH	64	stimuli_distractor_trianglediamonds.svg	stimuli_target_squaretriangles.svg	11	yes	57	0	319
6.6.1	win	2022-12-14	13:39:52	13:45:35	341402	62b0a213241d25b7185f43a4	356963807	1	main_slash	7	main_slash	65	stimuli_distractor_trianglediamonds.svg	stimuli_distractor_trianglediamonds.svg	33	no	0	1	2000
6.6.1	win	2022-12-14	13:39:52	13:45:35	341402	62b0a213241d25b7185f43a4	356963807	1	main_slash	7	advance_on_keypress_SLASH	66	stimuli_distractor_trianglediamonds.svg	stimuli_distractor_trianglediamonds.svg	33	no	57	0	461
6.6.1	win	2022-12-14	13:39:52	13:45:38	344504	62b0a213241d25b7185f43a4	356963807	1	main_slash	7	main_slash	67	stimuli_distractor_trianglediamonds.svg	stimuli_distractor_diamondtriangles.svg	36	no	0	1	2000
6.6.1	win	2022-12-14	13:39:52	13:45:38	344504	62b0a213241d25b7185f43a4	356963807	1	main_slash	7	advance_on_keypress_SLASH	68	stimuli_distractor_trianglediamonds.svg	stimuli_distractor_diamondtriangles.svg	36	no	57	0	311
6.6.1	win	2022-12-14	13:39:52	13:45:41	347441	62b0a213241d25b7185f43a4	356963807	1	main_slash	7	main_slash	69	stimuli_target_diamondsquares.svg	stimuli_distractor_diamondtriangles.svg	24	yes	0	0	2000
6.6.1	win	2022-12-14	13:39:52	13:45:41	347441	62b0a213241d25b7185f43a4	356963807	1	main_slash	7	advance_on_keypress_SLASH	70	stimuli_target_diamondsquares.svg	stimuli_distractor_diamondtriangles.svg	24	yes	57	0	286
6.6.1	win	2022-12-14	13:39:52	13:45:43	348761	62b0a213241d25b7185f43a4	356963807	1	main_slash	7	main_slash	71	stimuli_distractor_trianglediamonds.svg	stimuli_distractor_trianglediamonds.svg	34	no	53	0	377
6.6.1	win	2022-12-14	13:39:52	13:45:43	348761	62b0a213241d25b7185f43a4	356963807	1	main_slash	7	advance_on_keypress_SLASH	72	stimuli_distractor_trianglediamonds.svg	stimuli_distractor_trianglediamonds.svg	34	no	57	0	840
6.6.1	win	2022-12-14	13:39:52	13:45:46	352246	62b0a213241d25b7185f43a4	356963807	1	main_slash	7	main_slash	73	stimuli_distractor_trianglediamonds.svg	stimuli_target_diamondsquares.svg	28	yes	0	0	2000
6.6.1	win	2022-12-14	13:39:52	13:45:46	352246	62b0a213241d25b7185f43a4	356963807	1	main_slash	7	advance_on_keypress_SLASH	74	stimuli_distractor_trianglediamonds.svg	stimuli_target_diamondsquares.svg	28	yes	57	0	673
6.6.1	win	2022-12-14	13:39:52	13:45:48	354250	62b0a213241d25b7185f43a4	356963807	1	main_slash	7	main_slash	75	stimuli_distractor_diamondtriangles.svg	stimuli_distractor_trianglediamonds.svg	37	no	53	0	684
6.6.1	win	2022-12-14	13:39:52	13:45:48	354250	62b0a213241d25b7185f43a4	356963807	1	main_slash	7	advance_on_keypress_SLASH	76	stimuli_distractor_diamondtriangles.svg	stimuli_distractor_trianglediamonds.svg	37	no	57	0	431
6.6.1	win	2022-12-14	13:39:52	13:45:49	355746	62b0a213241d25b7185f43a4	356963807	1	main_slash	7	main_slash	77	stimuli_target_circlediamonds.svg	stimuli_distractor_trianglediamonds.svg	2	yes	53	1	412
6.6.1	win	2022-12-14	13:39:52	13:45:49	355746	62b0a213241d25b7185f43a4	356963807	1	main_slash	7	advance_on_keypress_SLASH	78	stimuli_target_circlediamonds.svg	stimuli_distractor_trianglediamonds.svg	2	yes	57	0	482
6.6.1	win	2022-12-14	13:39:52	13:45:51	357282	62b0a213241d25b7185f43a4	356963807	1	main_slash	7	main_slash	79	stimuli_distractor_diamondtriangles.svg	stimuli_target_trianglecircles.svg	29	yes	53	1	413
6.6.1	win	2022-12-14	13:39:52	13:45:51	357282	62b0a213241d25b7185f43a4	356963807	1	main_slash	7	advance_on_keypress_SLASH	80	stimuli_distractor_diamondtriangles.svg	stimuli_target_trianglecircles.svg	29	yes	57	0	419
6.6.1	win	2022-12-14	13:39:52	13:45:52	358754	62b0a213241d25b7185f43a4	356963807	1	main_slash	7	main_slash	81	stimuli_distractor_diamondtriangles.svg	stimuli_target_squarediamonds.svg	16	yes	53	1	417
6.6.1	win	2022-12-14	13:39:52	13:45:52	358754	62b0a213241d25b7185f43a4	356963807	1	main_slash	7	advance_on_keypress_SLASH	82	stimuli_distractor_diamondtriangles.svg	stimuli_target_squarediamonds.svg	16	yes	57	0	310
6.6.1	win	2022-12-14	13:39:52	13:45:54	360089	62b0a213241d25b7185f43a4	356963807	1	main_slash	7	main_slash	83	stimuli_distractor_diamondtriangles.svg	stimuli_target_squaretriangles.svg	15	yes	53	1	377
6.6.1	win	2022-12-14	13:39:52	13:45:54	360089	62b0a213241d25b7185f43a4	356963807	1	main_slash	7	advance_on_keypress_SLASH	84	stimuli_distractor_diamondtriangles.svg	stimuli_target_squaretriangles.svg	15	yes	57	0	312
6.6.1	win	2022-12-14	13:39:52	13:45:55	361602	62b0a213241d25b7185f43a4	356963807	1	main_slash	7	main_slash	85	stimuli_target_diamondcircles.svg	stimuli_distractor_trianglediamonds.svg	19	yes	53	1	562
6.6.1	win	2022-12-14	13:39:52	13:45:55	361602	62b0a213241d25b7185f43a4	356963807	1	main_slash	7	advance_on_keypress_SLASH	86	stimuli_target_diamondcircles.svg	stimuli_distractor_trianglediamonds.svg	19	yes	57	0	338
6.6.1	win	2022-12-14	13:39:52	13:45:57	363092	62b0a213241d25b7185f43a4	356963807	1	main_slash	7	main_slash	87	stimuli_target_squarediamonds.svg	stimuli_distractor_diamondtriangles.svg	8	yes	53	1	515
6.6.1	win	2022-12-14	13:39:52	13:45:57	363092	62b0a213241d25b7185f43a4	356963807	1	main_slash	7	advance_on_keypress_SLASH	88	stimuli_target_squarediamonds.svg	stimuli_distractor_diamondtriangles.svg	8	yes	57	0	269
6.6.1	win	2022-12-14	13:39:52	13:45:58	364682	62b0a213241d25b7185f43a4	356963807	1	main_slash	7	main_slash	89	stimuli_distractor_trianglediamonds.svg	stimuli_target_circletriangles.svg	9	yes	53	1	673
6.6.1	win	2022-12-14	13:39:52	13:45:58	364682	62b0a213241d25b7185f43a4	356963807	1	main_slash	7	advance_on_keypress_SLASH	90	stimuli_distractor_trianglediamonds.svg	stimuli_target_circletriangles.svg	9	yes	57	0	284
6.6.1	win	2022-12-14	13:39:52	13:46:00	366042	62b0a213241d25b7185f43a4	356963807	1	main_slash	7	main_slash	91	stimuli_target_circletriangles.svg	stimuli_distractor_trianglediamonds.svg	1	yes	53	1	431
6.6.1	win	2022-12-14	13:39:52	13:46:00	366042	62b0a213241d25b7185f43a4	356963807	1	main_slash	7	advance_on_keypress_SLASH	92	stimuli_target_circletriangles.svg	stimuli_distractor_trianglediamonds.svg	1	yes	57	0	293
6.6.1	win	2022-12-14	13:39:52	13:46:03	368962	62b0a213241d25b7185f43a4	356963807	1	main_slash	7	main_slash	93	stimuli_distractor_diamondtriangles.svg	stimuli_distractor_diamondtriangles.svg	39	no	0	1	2000
6.6.1	win	2022-12-14	13:39:52	13:46:03	368962	62b0a213241d25b7185f43a4	356963807	1	main_slash	7	advance_on_keypress_SLASH	94	stimuli_distractor_diamondtriangles.svg	stimuli_distractor_diamondtriangles.svg	39	no	57	0	501
6.6.1	win	2022-12-14	13:39:52	13:46:04	370570	62b0a213241d25b7185f43a4	356963807	1	main_slash	7	main_slash	95	stimuli_target_diamondcircles.svg	stimuli_distractor_diamondtriangles.svg	23	yes	53	1	454
6.6.1	win	2022-12-14	13:39:52	13:46:04	370570	62b0a213241d25b7185f43a4	356963807	1	main_slash	7	advance_on_keypress_SLASH	96	stimuli_target_diamondcircles.svg	stimuli_distractor_diamondtriangles.svg	23	yes	57	0	355
6.6.1	win	2022-12-14	13:39:52	13:46:06	371954	62b0a213241d25b7185f43a4	356963807	1	main_slash	7	main_slash	97	stimuli_distractor_trianglediamonds.svg	stimuli_target_trianglecircles.svg	25	yes	53	1	387
6.6.1	win	2022-12-14	13:39:52	13:46:06	371954	62b0a213241d25b7185f43a4	356963807	1	main_slash	7	advance_on_keypress_SLASH	98	stimuli_distractor_trianglediamonds.svg	stimuli_target_trianglecircles.svg	25	yes	57	0	394
6.6.1	win	2022-12-14	13:39:52	13:46:07	373338	62b0a213241d25b7185f43a4	356963807	1	main_slash	7	main_slash	99	stimuli_target_circlediamonds.svg	stimuli_distractor_trianglediamonds.svg	2	yes	53	1	353
6.6.1	win	2022-12-14	13:39:52	13:46:07	373338	62b0a213241d25b7185f43a4	356963807	1	main_slash	7	advance_on_keypress_SLASH	100	stimuli_target_circlediamonds.svg	stimuli_distractor_trianglediamonds.svg	2	yes	57	0	314
6.6.1	win	2022-12-14	13:39:52	13:46:09	375338	62b0a213241d25b7185f43a4	356963807	1	main_slash	7	main_slash	101	stimuli_distractor_trianglediamonds.svg	stimuli_target_diamondcircles.svg	27	yes	53	1	1052
6.6.1	win	2022-12-14	13:39:52	13:46:09	375338	62b0a213241d25b7185f43a4	356963807	1	main_slash	7	advance_on_keypress_SLASH	102	stimuli_distractor_trianglediamonds.svg	stimuli_target_diamondcircles.svg	27	yes	57	0	215
6.6.1	win	2022-12-14	13:39:52	13:46:10	376666	62b0a213241d25b7185f43a4	356963807	1	main_slash	7	main_slash	103	stimuli_distractor_diamondtriangles.svg	stimuli_target_circlediamonds.svg	14	yes	53	1	461
6.6.1	win	2022-12-14	13:39:52	13:46:10	376666	62b0a213241d25b7185f43a4	356963807	1	main_slash	7	advance_on_keypress_SLASH	104	stimuli_distractor_diamondtriangles.svg	stimuli_target_circlediamonds.svg	14	yes	57	0	250
6.6.1	win	2022-12-14	13:39:52	13:46:13	379556	62b0a213241d25b7185f43a4	356963807	1	main_slash	7	main_slash	105	stimuli_target_diamondsquares.svg	stimuli_distractor_trianglediamonds.svg	20	yes	0	0	2000
6.6.1	win	2022-12-14	13:39:52	13:46:13	379556	62b0a213241d25b7185f43a4	356963807	1	main_slash	7	advance_on_keypress_SLASH	106	stimuli_target_diamondsquares.svg	stimuli_distractor_trianglediamonds.svg	20	yes	57	0	330
6.6.1	win	2022-12-14	13:39:52	13:46:16	382526	62b0a213241d25b7185f43a4	356963807	1	main_slash	7	main_slash	107	stimuli_distractor_diamondtriangles.svg	stimuli_distractor_trianglediamonds.svg	37	no	0	1	2000
6.6.1	win	2022-12-14	13:39:52	13:46:16	382526	62b0a213241d25b7185f43a4	356963807	1	main_slash	7	advance_on_keypress_SLASH	108	stimuli_distractor_diamondtriangles.svg	stimuli_distractor_trianglediamonds.svg	37	no	57	0	665
6.6.1	win	2022-12-14	13:39:52	13:46:18	384363	62b0a213241d25b7185f43a4	356963807	1	main_slash	7	main_slash	109	stimuli_target_trianglesquares.svg	stimuli_distractor_diamondtriangles.svg	22	yes	53	1	501
6.6.1	win	2022-12-14	13:39:52	13:46:18	384363	62b0a213241d25b7185f43a4	356963807	1	main_slash	7	advance_on_keypress_SLASH	110	stimuli_target_trianglesquares.svg	stimuli_distractor_diamondtriangles.svg	22	yes	57	0	422
6.6.1	win	2022-12-14	13:39:52	13:46:21	387431	62b0a213241d25b7185f43a4	356963807	1	main_slash	7	main_slash	111	stimuli_distractor_diamondtriangles.svg	stimuli_distractor_trianglediamonds.svg	38	no	0	1	2000
6.6.1	win	2022-12-14	13:39:52	13:46:21	387431	62b0a213241d25b7185f43a4	356963807	1	main_slash	7	advance_on_keypress_SLASH	112	stimuli_distractor_diamondtriangles.svg	stimuli_distractor_trianglediamonds.svg	38	no	57	0	352
6.6.1	win	2022-12-14	13:39:52	13:46:23	388890	62b0a213241d25b7185f43a4	356963807	1	main_slash	7	main_slash	113	stimuli_distractor_trianglediamonds.svg	stimuli_target_squarediamonds.svg	12	yes	53	1	457
6.6.1	win	2022-12-14	13:39:52	13:46:23	388890	62b0a213241d25b7185f43a4	356963807	1	main_slash	7	advance_on_keypress_SLASH	114	stimuli_distractor_trianglediamonds.svg	stimuli_target_squarediamonds.svg	12	yes	57	0	516
6.6.1	win	2022-12-14	13:39:52	13:46:26	392052	62b0a213241d25b7185f43a4	356963807	1	main_slash	7	main_slash	115	stimuli_distractor_trianglediamonds.svg	stimuli_target_diamondsquares.svg	28	yes	0	0	2000
6.6.1	win	2022-12-14	13:39:52	13:46:26	392052	62b0a213241d25b7185f43a4	356963807	1	main_slash	7	advance_on_keypress_SLASH	116	stimuli_distractor_trianglediamonds.svg	stimuli_target_diamondsquares.svg	28	yes	57	0	1251
6.6.1	win	2022-12-14	13:39:52	13:46:30	395956	62b0a213241d25b7185f43a4	356963807	1	main_slash	7	main_slash	117	stimuli_distractor_trianglediamonds.svg	stimuli_distractor_diamondtriangles.svg	35	no	0	1	2000
6.6.1	win	2022-12-14	13:39:52	13:46:30	395956	62b0a213241d25b7185f43a4	356963807	1	main_slash	7	advance_on_keypress_SLASH	118	stimuli_distractor_trianglediamonds.svg	stimuli_distractor_diamondtriangles.svg	35	no	57	0	251
6.6.1	win	2022-12-14	13:39:52	13:46:31	397650	62b0a213241d25b7185f43a4	356963807	1	main_slash	7	main_slash	119	stimuli_target_diamondsquares.svg	stimuli_distractor_diamondtriangles.svg	24	yes	53	1	791
6.6.1	win	2022-12-14	13:39:52	13:46:31	397650	62b0a213241d25b7185f43a4	356963807	1	main_slash	7	advance_on_keypress_SLASH	120	stimuli_target_diamondsquares.svg	stimuli_distractor_diamondtriangles.svg	24	yes	57	0	310
6.6.1	win	2022-12-14	13:39:52	13:46:33	399114	62b0a213241d25b7185f43a4	356963807	1	main_slash	7	main_slash	121	stimuli_target_trianglecircles.svg	stimuli_distractor_trianglediamonds.svg	17	yes	53	1	520
6.6.1	win	2022-12-14	13:39:52	13:46:33	399114	62b0a213241d25b7185f43a4	356963807	1	main_slash	7	advance_on_keypress_SLASH	122	stimuli_target_trianglecircles.svg	stimuli_distractor_trianglediamonds.svg	17	yes	57	0	346
6.6.1	win	2022-12-14	13:39:52	13:46:34	400642	62b0a213241d25b7185f43a4	356963807	1	main_slash	7	main_slash	123	stimuli_distractor_diamondtriangles.svg	stimuli_target_trianglesquares.svg	30	yes	53	1	547
6.6.1	win	2022-12-14	13:39:52	13:46:34	400642	62b0a213241d25b7185f43a4	356963807	1	main_slash	7	advance_on_keypress_SLASH	124	stimuli_distractor_diamondtriangles.svg	stimuli_target_trianglesquares.svg	30	yes	57	0	355
6.6.1	win	2022-12-14	13:39:52	13:46:36	402722	62b0a213241d25b7185f43a4	356963807	1	main_slash	7	main_slash	125	stimuli_target_trianglesquares.svg	stimuli_distractor_trianglediamonds.svg	18	yes	53	1	1092
6.6.1	win	2022-12-14	13:39:52	13:46:36	402722	62b0a213241d25b7185f43a4	356963807	1	main_slash	7	advance_on_keypress_SLASH	126	stimuli_target_trianglesquares.svg	stimuli_distractor_trianglediamonds.svg	18	yes	57	0	246
6.6.1	win	2022-12-14	13:39:52	13:46:38	404298	62b0a213241d25b7185f43a4	356963807	1	main_slash	7	main_slash	127	stimuli_target_squaretriangles.svg	stimuli_distractor_diamondtriangles.svg	7	yes	53	1	699
6.6.1	win	2022-12-14	13:39:52	13:46:38	404298	62b0a213241d25b7185f43a4	356963807	1	main_slash	7	advance_on_keypress_SLASH	128	stimuli_target_squaretriangles.svg	stimuli_distractor_diamondtriangles.svg	7	yes	57	0	381
6.6.1	win	2022-12-14	13:39:52	13:46:40	405818	62b0a213241d25b7185f43a4	356963807	1	main_slash	7	main_slash	129	stimuli_target_circletriangles.svg	stimuli_distractor_diamondtriangles.svg	5	yes	53	1	484
6.6.1	win	2022-12-14	13:39:52	13:46:40	405818	62b0a213241d25b7185f43a4	356963807	1	main_slash	7	advance_on_keypress_SLASH	130	stimuli_target_circletriangles.svg	stimuli_distractor_diamondtriangles.svg	5	yes	57	0	591
6.6.1	win	2022-12-14	13:39:52	13:46:43	409053	62b0a213241d25b7185f43a4	356963807	1	main_slash	7	main_slash	131	stimuli_distractor_trianglediamonds.svg	stimuli_distractor_trianglediamonds.svg	33	no	0	1	2000
6.6.1	win	2022-12-14	13:39:52	13:46:43	409053	62b0a213241d25b7185f43a4	356963807	1	main_slash	7	advance_on_keypress_SLASH	132	stimuli_distractor_trianglediamonds.svg	stimuli_distractor_trianglediamonds.svg	33	no	57	0	794
6.6.1	win	2022-12-14	13:39:52	13:46:45	410842	62b0a213241d25b7185f43a4	356963807	1	main_slash	7	main_slash	133	stimuli_target_circlediamonds.svg	stimuli_distractor_diamondtriangles.svg	6	yes	53	1	353
6.6.1	win	2022-12-14	13:39:52	13:46:45	410842	62b0a213241d25b7185f43a4	356963807	1	main_slash	7	advance_on_keypress_SLASH	134	stimuli_target_circlediamonds.svg	stimuli_distractor_diamondtriangles.svg	6	yes	57	0	313
6.6.1	win	2022-12-14	13:39:52	13:46:48	413791	62b0a213241d25b7185f43a4	356963807	1	main_slash	7	main_slash	135	stimuli_distractor_trianglediamonds.svg	stimuli_distractor_diamondtriangles.svg	36	no	0	1	2000
6.6.1	win	2022-12-14	13:39:52	13:46:48	413791	62b0a213241d25b7185f43a4	356963807	1	main_slash	7	advance_on_keypress_SLASH	136	stimuli_distractor_trianglediamonds.svg	stimuli_distractor_diamondtriangles.svg	36	no	57	0	320
6.6.1	win	2022-12-14	13:39:52	13:46:49	415144	62b0a213241d25b7185f43a4	356963807	1	main_slash	7	main_slash	137	stimuli_distractor_trianglediamonds.svg	stimuli_target_circlediamonds.svg	10	yes	53	1	370
6.6.1	win	2022-12-14	13:39:52	13:46:49	415144	62b0a213241d25b7185f43a4	356963807	1	main_slash	7	advance_on_keypress_SLASH	138	stimuli_distractor_trianglediamonds.svg	stimuli_target_circlediamonds.svg	10	yes	57	0	313
6.6.1	win	2022-12-14	13:39:52	13:46:50	416730	62b0a213241d25b7185f43a4	356963807	1	main_slash	7	main_slash	139	stimuli_distractor_diamondtriangles.svg	stimuli_target_circletriangles.svg	13	yes	53	1	635
6.6.1	win	2022-12-14	13:39:52	13:46:50	416730	62b0a213241d25b7185f43a4	356963807	1	main_slash	7	advance_on_keypress_SLASH	140	stimuli_distractor_diamondtriangles.svg	stimuli_target_circletriangles.svg	13	yes	57	0	320
6.6.1	win	2022-12-14	13:39:52	13:46:52	418378	62b0a213241d25b7185f43a4	356963807	1	main_slash	7	main_slash	141	stimuli_target_squarediamonds.svg	stimuli_distractor_trianglediamonds.svg	4	yes	53	1	682
6.6.1	win	2022-12-14	13:39:52	13:46:52	418378	62b0a213241d25b7185f43a4	356963807	1	main_slash	7	advance_on_keypress_SLASH	142	stimuli_target_squarediamonds.svg	stimuli_distractor_trianglediamonds.svg	4	yes	57	0	349
6.6.1	win	2022-12-14	13:39:52	13:46:54	420506	62b0a213241d25b7185f43a4	356963807	1	main_slash	7	main_slash	143	stimuli_distractor_diamondtriangles.svg	stimuli_target_diamondsquares.svg	32	yes	53	1	1141
6.6.1	win	2022-12-14	13:39:52	13:46:54	420506	62b0a213241d25b7185f43a4	356963807	1	main_slash	7	advance_on_keypress_SLASH	144	stimuli_distractor_diamondtriangles.svg	stimuli_target_diamondsquares.svg	32	yes	57	0	326
6.6.1	win	2022-12-14	13:39:52	13:46:56	422282	62b0a213241d25b7185f43a4	356963807	1	main_slash	7	main_slash	145	stimuli_distractor_diamondtriangles.svg	stimuli_target_diamondcircles.svg	31	yes	53	1	815
6.6.1	win	2022-12-14	13:39:52	13:46:56	422282	62b0a213241d25b7185f43a4	356963807	1	main_slash	7	advance_on_keypress_SLASH	146	stimuli_distractor_diamondtriangles.svg	stimuli_target_diamondcircles.svg	31	yes	57	0	373
6.6.1	win	2022-12-14	13:39:52	13:46:58	423762	62b0a213241d25b7185f43a4	356963807	1	main_slash	7	main_slash	147	stimuli_target_trianglecircles.svg	stimuli_distractor_diamondtriangles.svg	21	yes	53	1	477
6.6.1	win	2022-12-14	13:39:52	13:46:58	423762	62b0a213241d25b7185f43a4	356963807	1	main_slash	7	advance_on_keypress_SLASH	148	stimuli_target_trianglecircles.svg	stimuli_distractor_diamondtriangles.svg	21	yes	57	0	392
6.6.1	win	2022-12-14	13:39:52	13:46:59	425618	62b0a213241d25b7185f43a4	356963807	1	main_slash	7	main_slash	149	stimuli_distractor_trianglediamonds.svg	stimuli_target_squaretriangles.svg	11	yes	53	1	831
6.6.1	win	2022-12-14	13:39:52	13:46:59	425618	62b0a213241d25b7185f43a4	356963807	1	main_slash	7	advance_on_keypress_SLASH	150	stimuli_distractor_trianglediamonds.svg	stimuli_target_squaretriangles.svg	11	yes	57	0	333
6.6.1	win	2022-12-14	13:39:52	13:47:01	427058	62b0a213241d25b7185f43a4	356963807	1	main_slash	7	main_slash	151	stimuli_distractor_diamondtriangles.svg	stimuli_target_trianglecircles.svg	29	yes	53	1	470
6.6.1	win	2022-12-14	13:39:52	13:47:01	427058	62b0a213241d25b7185f43a4	356963807	1	main_slash	7	advance_on_keypress_SLASH	152	stimuli_distractor_diamondtriangles.svg	stimuli_target_trianglecircles.svg	29	yes	57	0	377
6.6.1	win	2022-12-14	13:39:52	13:47:02	428754	62b0a213241d25b7185f43a4	356963807	1	main_slash	7	main_slash	153	stimuli_target_squaretriangles.svg	stimuli_distractor_trianglediamonds.svg	3	yes	53	1	681
6.6.1	win	2022-12-14	13:39:52	13:47:02	428754	62b0a213241d25b7185f43a4	356963807	1	main_slash	7	advance_on_keypress_SLASH	154	stimuli_target_squaretriangles.svg	stimuli_distractor_trianglediamonds.svg	3	yes	57	0	292
6.6.1	win	2022-12-14	13:39:52	13:47:05	431675	62b0a213241d25b7185f43a4	356963807	1	main_slash	7	main_slash	155	stimuli_distractor_diamondtriangles.svg	stimuli_distractor_diamondtriangles.svg	40	no	0	1	2000
6.6.1	win	2022-12-14	13:39:52	13:47:05	431675	62b0a213241d25b7185f43a4	356963807	1	main_slash	7	advance_on_keypress_SLASH	156	stimuli_distractor_diamondtriangles.svg	stimuli_distractor_diamondtriangles.svg	40	no	57	0	340
6.6.1	win	2022-12-14	13:39:52	13:47:08	434662	62b0a213241d25b7185f43a4	356963807	1	main_slash	7	main_slash	157	stimuli_distractor_trianglediamonds.svg	stimuli_distractor_trianglediamonds.svg	34	no	0	1	2000
6.6.1	win	2022-12-14	13:39:52	13:47:08	434662	62b0a213241d25b7185f43a4	356963807	1	main_slash	7	advance_on_keypress_SLASH	158	stimuli_distractor_trianglediamonds.svg	stimuli_distractor_trianglediamonds.svg	34	no	57	0	314
6.6.1	win	2022-12-14	13:39:52	13:47:10	435930	62b0a213241d25b7185f43a4	356963807	1	main_slash	7	main_slash	159	stimuli_distractor_trianglediamonds.svg	stimuli_target_trianglesquares.svg	26	yes	53	1	299
6.6.1	win	2022-12-14	13:39:52	13:47:10	435930	62b0a213241d25b7185f43a4	356963807	1	main_slash	7	advance_on_keypress_SLASH	160	stimuli_distractor_trianglediamonds.svg	stimuli_target_trianglesquares.svg	26	yes	57	0	526
6.6.1	win	2022-12-14	13:39:52	13:47:37	463691	62b0a213241d25b7185f43a4	356963807	1	practice_z	9	practice_z	1	stimuli_target_circlediamonds.svg	stimuli_distractor_trianglediamonds.svg	4	yes	44	1	483
6.6.1	win	2022-12-14	13:39:52	13:47:37	463691	62b0a213241d25b7185f43a4	356963807	1	practice_z	9	advance_on_keypress_ZEE	2	stimuli_target_circlediamonds.svg	stimuli_distractor_trianglediamonds.svg	4	yes	57	0	669
6.6.1	win	2022-12-14	13:39:52	13:47:40	466528	62b0a213241d25b7185f43a4	356963807	1	practice_z	9	practice_z	3	stimuli_target_squarediamonds.svg	stimuli_distractor_trianglediamonds.svg	5	yes	44	1	504
6.6.1	win	2022-12-14	13:39:52	13:47:40	466528	62b0a213241d25b7185f43a4	356963807	1	practice_z	9	advance_on_keypress_ZEE	4	stimuli_target_squarediamonds.svg	stimuli_distractor_trianglediamonds.svg	5	yes	57	0	416
6.6.1	win	2022-12-14	13:39:52	13:47:44	470596	62b0a213241d25b7185f43a4	356963807	1	practice_z	9	practice_z	5	stimuli_target_diamondsquares.svg	stimuli_distractor_diamondtriangles.svg	3	yes	0	0	2000
6.6.1	win	2022-12-14	13:39:52	13:47:44	470596	62b0a213241d25b7185f43a4	356963807	1	practice_z	9	advance_on_keypress_ZEE	6	stimuli_target_diamondsquares.svg	stimuli_distractor_diamondtriangles.svg	3	yes	57	0	611
6.6.1	win	2022-12-14	13:39:52	13:47:47	473380	62b0a213241d25b7185f43a4	356963807	1	practice_z	9	practice_z	7	stimuli_distractor_diamondtriangles.svg	stimuli_distractor_trianglediamonds.svg	14	no	44	0	545
6.6.1	win	2022-12-14	13:39:52	13:47:47	473380	62b0a213241d25b7185f43a4	356963807	1	practice_z	9	advance_on_keypress_ZEE	8	stimuli_distractor_diamondtriangles.svg	stimuli_distractor_trianglediamonds.svg	14	no	57	0	712
6.6.1	win	2022-12-14	13:39:52	13:47:50	476139	62b0a213241d25b7185f43a4	356963807	1	practice_z	9	practice_z	9	stimuli_target_circlediamonds.svg	stimuli_distractor_diamondtriangles.svg	1	yes	44	1	418
6.6.1	win	2022-12-14	13:39:52	13:47:50	476139	62b0a213241d25b7185f43a4	356963807	1	practice_z	9	advance_on_keypress_ZEE	10	stimuli_target_circlediamonds.svg	stimuli_distractor_diamondtriangles.svg	1	yes	57	0	503
6.6.1	win	2022-12-14	13:39:52	13:47:54	480290	62b0a213241d25b7185f43a4	356963807	1	practice_z	9	practice_z	11	stimuli_distractor_trianglediamonds.svg	stimuli_distractor_trianglediamonds.svg	15	no	0	1	2000
6.6.1	win	2022-12-14	13:39:52	13:47:54	480290	62b0a213241d25b7185f43a4	356963807	1	practice_z	9	advance_on_keypress_ZEE	12	stimuli_distractor_trianglediamonds.svg	stimuli_distractor_trianglediamonds.svg	15	no	57	0	501
6.6.1	win	2022-12-14	13:39:52	13:47:57	482803	62b0a213241d25b7185f43a4	356963807	1	practice_z	9	practice_z	13	stimuli_distractor_trianglediamonds.svg	stimuli_target_circlediamonds.svg	10	yes	44	1	359
6.6.1	win	2022-12-14	13:39:52	13:47:57	482803	62b0a213241d25b7185f43a4	356963807	1	practice_z	9	advance_on_keypress_ZEE	14	stimuli_distractor_trianglediamonds.svg	stimuli_target_circlediamonds.svg	10	yes	57	0	566
6.6.1	win	2022-12-14	13:39:52	13:47:59	485659	62b0a213241d25b7185f43a4	356963807	1	practice_z	9	practice_z	15	stimuli_distractor_trianglediamonds.svg	stimuli_target_squarediamonds.svg	11	yes	44	1	646
6.6.1	win	2022-12-14	13:39:52	13:47:59	485659	62b0a213241d25b7185f43a4	356963807	1	practice_z	9	advance_on_keypress_ZEE	16	stimuli_distractor_trianglediamonds.svg	stimuli_target_squarediamonds.svg	11	yes	57	0	538
6.6.1	win	2022-12-14	13:39:52	13:48:04	489833	62b0a213241d25b7185f43a4	356963807	1	practice_z	9	practice_z	17	stimuli_distractor_trianglediamonds.svg	stimuli_distractor_diamondtriangles.svg	16	no	0	1	2000
6.6.1	win	2022-12-14	13:39:52	13:48:04	489833	62b0a213241d25b7185f43a4	356963807	1	practice_z	9	advance_on_keypress_ZEE	18	stimuli_distractor_trianglediamonds.svg	stimuli_distractor_diamondtriangles.svg	16	no	57	0	518
6.6.1	win	2022-12-14	13:39:52	13:48:08	494004	62b0a213241d25b7185f43a4	356963807	1	practice_z	9	practice_z	19	stimuli_distractor_diamondtriangles.svg	stimuli_distractor_diamondtriangles.svg	13	no	0	1	2000
6.6.1	win	2022-12-14	13:39:52	13:48:08	494004	62b0a213241d25b7185f43a4	356963807	1	practice_z	9	advance_on_keypress_ZEE	20	stimuli_distractor_diamondtriangles.svg	stimuli_distractor_diamondtriangles.svg	13	no	57	0	555
6.6.1	win	2022-12-14	13:39:52	13:48:10	496725	62b0a213241d25b7185f43a4	356963807	1	practice_z	9	practice_z	21	stimuli_distractor_diamondtriangles.svg	stimuli_target_trianglecircles.svg	9	yes	44	1	507
6.6.1	win	2022-12-14	13:39:52	13:48:10	496725	62b0a213241d25b7185f43a4	356963807	1	practice_z	9	advance_on_keypress_ZEE	22	stimuli_distractor_diamondtriangles.svg	stimuli_target_trianglecircles.svg	9	yes	57	0	604
6.6.1	win	2022-12-14	13:39:52	13:48:13	499411	62b0a213241d25b7185f43a4	356963807	1	practice_z	9	practice_z	23	stimuli_distractor_trianglediamonds.svg	stimuli_target_diamondcircles.svg	12	yes	44	1	434
6.6.1	win	2022-12-14	13:39:52	13:48:13	499411	62b0a213241d25b7185f43a4	356963807	1	practice_z	9	advance_on_keypress_ZEE	24	stimuli_distractor_trianglediamonds.svg	stimuli_target_diamondcircles.svg	12	yes	57	0	446
6.6.1	win	2022-12-14	13:39:52	13:48:16	501890	62b0a213241d25b7185f43a4	356963807	1	practice_z	9	practice_z	25	stimuli_distractor_diamondtriangles.svg	stimuli_target_diamondcircles.svg	8	yes	44	1	395
6.6.1	win	2022-12-14	13:39:52	13:48:16	501890	62b0a213241d25b7185f43a4	356963807	1	practice_z	9	advance_on_keypress_ZEE	26	stimuli_distractor_diamondtriangles.svg	stimuli_target_diamondcircles.svg	8	yes	57	0	553
6.6.1	win	2022-12-14	13:39:52	13:48:18	504599	62b0a213241d25b7185f43a4	356963807	1	practice_z	9	practice_z	27	stimuli_target_squarediamonds.svg	stimuli_distractor_diamondtriangles.svg	2	yes	44	1	513
6.6.1	win	2022-12-14	13:39:52	13:48:18	504599	62b0a213241d25b7185f43a4	356963807	1	practice_z	9	advance_on_keypress_ZEE	28	stimuli_target_squarediamonds.svg	stimuli_distractor_diamondtriangles.svg	2	yes	57	0	449
6.6.1	win	2022-12-14	13:39:52	13:48:21	507619	62b0a213241d25b7185f43a4	356963807	1	practice_z	9	practice_z	29	stimuli_target_diamondsquares.svg	stimuli_distractor_trianglediamonds.svg	6	yes	44	1	917
6.6.1	win	2022-12-14	13:39:52	13:48:21	507619	62b0a213241d25b7185f43a4	356963807	1	practice_z	9	advance_on_keypress_ZEE	30	stimuli_target_diamondsquares.svg	stimuli_distractor_trianglediamonds.svg	6	yes	57	0	494
6.6.1	win	2022-12-14	13:39:52	13:48:24	510137	62b0a213241d25b7185f43a4	356963807	1	practice_z	9	practice_z	31	stimuli_distractor_diamondtriangles.svg	stimuli_target_circletriangles.svg	7	yes	44	1	376
6.6.1	win	2022-12-14	13:39:52	13:48:24	510137	62b0a213241d25b7185f43a4	356963807	1	practice_z	9	advance_on_keypress_ZEE	32	stimuli_distractor_diamondtriangles.svg	stimuli_target_circletriangles.svg	7	yes	57	0	462
6.6.1	win	2022-12-14	13:39:52	13:48:31	517690	62b0a213241d25b7185f43a4	356963807	1	main_z	11	main_z	1	stimuli_target_trianglesquares.svg	stimuli_distractor_diamondtriangles.svg	22	yes	44	1	845
6.6.1	win	2022-12-14	13:39:52	13:48:31	517690	62b0a213241d25b7185f43a4	356963807	1	main_z	11	advance_on_keypress_ZEE	2	stimuli_target_trianglesquares.svg	stimuli_distractor_diamondtriangles.svg	22	yes	57	0	650
6.6.1	win	2022-12-14	13:39:52	13:48:35	520980	62b0a213241d25b7185f43a4	356963807	1	main_z	11	main_z	3	stimuli_distractor_trianglediamonds.svg	stimuli_distractor_diamondtriangles.svg	36	no	0	1	2000
6.6.1	win	2022-12-14	13:39:52	13:48:35	520980	62b0a213241d25b7185f43a4	356963807	1	main_z	11	advance_on_keypress_ZEE	4	stimuli_distractor_trianglediamonds.svg	stimuli_distractor_diamondtriangles.svg	36	no	57	0	339
6.6.1	win	2022-12-14	13:39:52	13:48:36	522314	62b0a213241d25b7185f43a4	356963807	1	main_z	11	main_z	5	stimuli_target_circletriangles.svg	stimuli_distractor_trianglediamonds.svg	1	yes	44	1	364
6.6.1	win	2022-12-14	13:39:52	13:48:36	522314	62b0a213241d25b7185f43a4	356963807	1	main_z	11	advance_on_keypress_ZEE	6	stimuli_target_circletriangles.svg	stimuli_distractor_trianglediamonds.svg	1	yes	57	0	1012
6.6.1	win	2022-12-14	13:39:52	13:48:38	524378	62b0a213241d25b7185f43a4	356963807	1	main_z	11	main_z	7	stimuli_target_circlediamonds.svg	stimuli_distractor_diamondtriangles.svg	6	yes	44	1	426
6.6.1	win	2022-12-14	13:39:52	13:48:38	524378	62b0a213241d25b7185f43a4	356963807	1	main_z	11	advance_on_keypress_ZEE	8	stimuli_target_circlediamonds.svg	stimuli_distractor_diamondtriangles.svg	6	yes	57	0	440
6.6.1	win	2022-12-14	13:39:52	13:48:40	525898	62b0a213241d25b7185f43a4	356963807	1	main_z	11	main_z	9	stimuli_distractor_trianglediamonds.svg	stimuli_target_circletriangles.svg	9	yes	44	1	445
6.6.1	win	2022-12-14	13:39:52	13:48:40	525898	62b0a213241d25b7185f43a4	356963807	1	main_z	11	advance_on_keypress_ZEE	10	stimuli_distractor_trianglediamonds.svg	stimuli_target_circletriangles.svg	9	yes	57	0	457
6.6.1	win	2022-12-14	13:39:52	13:48:41	527730	62b0a213241d25b7185f43a4	356963807	1	main_z	11	main_z	11	stimuli_target_squarediamonds.svg	stimuli_distractor_trianglediamonds.svg	4	yes	44	1	743
6.6.1	win	2022-12-14	13:39:52	13:48:41	527730	62b0a213241d25b7185f43a4	356963807	1	main_z	11	advance_on_keypress_ZEE	12	stimuli_target_squarediamonds.svg	stimuli_distractor_trianglediamonds.svg	4	yes	57	0	374
6.6.1	win	2022-12-14	13:39:52	13:48:43	529610	62b0a213241d25b7185f43a4	356963807	1	main_z	11	main_z	13	stimuli_target_trianglecircles.svg	stimuli_distractor_diamondtriangles.svg	21	yes	44	1	870
6.6.1	win	2022-12-14	13:39:52	13:48:43	529610	62b0a213241d25b7185f43a4	356963807	1	main_z	11	advance_on_keypress_ZEE	14	stimuli_target_trianglecircles.svg	stimuli_distractor_diamondtriangles.svg	21	yes	57	0	345
6.6.1	win	2022-12-14	13:39:52	13:48:45	531050	62b0a213241d25b7185f43a4	356963807	1	main_z	11	main_z	15	stimuli_distractor_diamondtriangles.svg	stimuli_target_trianglecircles.svg	29	yes	44	1	458
6.6.1	win	2022-12-14	13:39:52	13:48:45	531050	62b0a213241d25b7185f43a4	356963807	1	main_z	11	advance_on_keypress_ZEE	16	stimuli_distractor_diamondtriangles.svg	stimuli_target_trianglecircles.svg	29	yes	57	0	798
6.6.1	win	2022-12-14	13:39:52	13:48:47	533018	62b0a213241d25b7185f43a4	356963807	1	main_z	11	main_z	17	stimuli_distractor_diamondtriangles.svg	stimuli_target_squarediamonds.svg	16	yes	44	1	524
6.6.1	win	2022-12-14	13:39:52	13:48:47	533018	62b0a213241d25b7185f43a4	356963807	1	main_z	11	advance_on_keypress_ZEE	18	stimuli_distractor_diamondtriangles.svg	stimuli_target_squarediamonds.svg	16	yes	57	0	406
6.6.1	win	2022-12-14	13:39:52	13:48:50	536062	62b0a213241d25b7185f43a4	356963807	1	main_z	11	main_z	19	stimuli_distractor_diamondtriangles.svg	stimuli_distractor_diamondtriangles.svg	39	no	0	1	2000
6.6.1	win	2022-12-14	13:39:52	13:48:50	536062	62b0a213241d25b7185f43a4	356963807	1	main_z	11	advance_on_keypress_ZEE	20	stimuli_distractor_diamondtriangles.svg	stimuli_distractor_diamondtriangles.svg	39	no	57	0	15073
6.6.1	win	2022-12-14	13:39:52	13:49:06	552297	62b0a213241d25b7185f43a4	356963807	1	main_z	11	main_z	21	stimuli_distractor_diamondtriangles.svg	stimuli_target_trianglesquares.svg	30	yes	44	1	502
6.6.1	win	2022-12-14	13:39:52	13:49:06	552297	62b0a213241d25b7185f43a4	356963807	1	main_z	11	advance_on_keypress_ZEE	22	stimuli_distractor_diamondtriangles.svg	stimuli_target_trianglesquares.svg	30	yes	57	0	480
6.6.1	win	2022-12-14	13:39:52	13:49:08	553798	62b0a213241d25b7185f43a4	356963807	1	main_z	11	main_z	23	stimuli_distractor_trianglediamonds.svg	stimuli_target_diamondcircles.svg	27	yes	44	1	371
6.6.1	win	2022-12-14	13:39:52	13:49:08	553798	62b0a213241d25b7185f43a4	356963807	1	main_z	11	advance_on_keypress_ZEE	24	stimuli_distractor_trianglediamonds.svg	stimuli_target_diamondcircles.svg	27	yes	57	0	434
6.6.1	win	2022-12-14	13:39:52	13:49:09	555370	62b0a213241d25b7185f43a4	356963807	1	main_z	11	main_z	25	stimuli_target_circlediamonds.svg	stimuli_distractor_trianglediamonds.svg	2	yes	44	1	487
6.6.1	win	2022-12-14	13:39:52	13:49:09	555370	62b0a213241d25b7185f43a4	356963807	1	main_z	11	advance_on_keypress_ZEE	26	stimuli_target_circlediamonds.svg	stimuli_distractor_trianglediamonds.svg	2	yes	57	0	362
6.6.1	win	2022-12-14	13:39:52	13:49:12	558367	62b0a213241d25b7185f43a4	356963807	1	main_z	11	main_z	27	stimuli_distractor_trianglediamonds.svg	stimuli_distractor_diamondtriangles.svg	35	no	0	1	2000
6.6.1	win	2022-12-14	13:39:52	13:49:12	558367	62b0a213241d25b7185f43a4	356963807	1	main_z	11	advance_on_keypress_ZEE	28	stimuli_distractor_trianglediamonds.svg	stimuli_distractor_diamondtriangles.svg	35	no	57	0	391
6.6.1	win	2022-12-14	13:39:52	13:49:14	560634	62b0a213241d25b7185f43a4	356963807	1	main_z	11	main_z	29	stimuli_target_diamondsquares.svg	stimuli_distractor_trianglediamonds.svg	20	yes	44	1	1230
6.6.1	win	2022-12-14	13:39:52	13:49:14	560634	62b0a213241d25b7185f43a4	356963807	1	main_z	11	advance_on_keypress_ZEE	30	stimuli_target_diamondsquares.svg	stimuli_distractor_trianglediamonds.svg	20	yes	57	0	355
6.6.1	win	2022-12-14	13:39:52	13:49:16	562034	62b0a213241d25b7185f43a4	356963807	1	main_z	11	main_z	31	stimuli_target_diamondcircles.svg	stimuli_distractor_diamondtriangles.svg	23	yes	44	1	411
6.6.1	win	2022-12-14	13:39:52	13:49:16	562034	62b0a213241d25b7185f43a4	356963807	1	main_z	11	advance_on_keypress_ZEE	32	stimuli_target_diamondcircles.svg	stimuli_distractor_diamondtriangles.svg	23	yes	57	0	433
6.6.1	win	2022-12-14	13:39:52	13:49:17	563602	62b0a213241d25b7185f43a4	356963807	1	main_z	11	main_z	33	stimuli_target_squaretriangles.svg	stimuli_distractor_diamondtriangles.svg	7	yes	44	1	494
6.6.1	win	2022-12-14	13:39:52	13:49:17	563602	62b0a213241d25b7185f43a4	356963807	1	main_z	11	advance_on_keypress_ZEE	34	stimuli_target_squaretriangles.svg	stimuli_distractor_diamondtriangles.svg	7	yes	57	0	377
6.6.1	win	2022-12-14	13:39:52	13:49:20	566609	62b0a213241d25b7185f43a4	356963807	1	main_z	11	main_z	35	stimuli_distractor_trianglediamonds.svg	stimuli_distractor_trianglediamonds.svg	34	no	0	1	2000
6.6.1	win	2022-12-14	13:39:52	13:49:20	566609	62b0a213241d25b7185f43a4	356963807	1	main_z	11	advance_on_keypress_ZEE	36	stimuli_distractor_trianglediamonds.svg	stimuli_distractor_trianglediamonds.svg	34	no	57	0	294
6.6.1	win	2022-12-14	13:39:52	13:49:22	567946	62b0a213241d25b7185f43a4	356963807	1	main_z	11	main_z	37	stimuli_distractor_trianglediamonds.svg	stimuli_target_squarediamonds.svg	12	yes	44	1	401
6.6.1	win	2022-12-14	13:39:52	13:49:22	567946	62b0a213241d25b7185f43a4	356963807	1	main_z	11	advance_on_keypress_ZEE	38	stimuli_distractor_trianglediamonds.svg	stimuli_target_squarediamonds.svg	12	yes	57	0	399
6.6.1	win	2022-12-14	13:39:52	13:49:24	569778	62b0a213241d25b7185f43a4	356963807	1	main_z	11	main_z	39	stimuli_distractor_trianglediamonds.svg	stimuli_target_trianglesquares.svg	26	yes	44	1	781
6.6.1	win	2022-12-14	13:39:52	13:49:24	569778	62b0a213241d25b7185f43a4	356963807	1	main_z	11	advance_on_keypress_ZEE	40	stimuli_distractor_trianglediamonds.svg	stimuli_target_trianglesquares.svg	26	yes	57	0	276
6.6.1	win	2022-12-14	13:39:52	13:49:25	571154	62b0a213241d25b7185f43a4	356963807	1	main_z	11	main_z	41	stimuli_distractor_diamondtriangles.svg	stimuli_target_squaretriangles.svg	15	yes	44	1	472
6.6.1	win	2022-12-14	13:39:52	13:49:25	571154	62b0a213241d25b7185f43a4	356963807	1	main_z	11	advance_on_keypress_ZEE	42	stimuli_distractor_diamondtriangles.svg	stimuli_target_squaretriangles.svg	15	yes	57	0	364
6.6.1	win	2022-12-14	13:39:52	13:49:28	574150	62b0a213241d25b7185f43a4	356963807	1	main_z	11	main_z	43	stimuli_distractor_diamondtriangles.svg	stimuli_distractor_trianglediamonds.svg	37	no	0	1	2000
6.6.1	win	2022-12-14	13:39:52	13:49:28	574150	62b0a213241d25b7185f43a4	356963807	1	main_z	11	advance_on_keypress_ZEE	44	stimuli_distractor_diamondtriangles.svg	stimuli_distractor_trianglediamonds.svg	37	no	57	0	8073
6.6.1	win	2022-12-14	13:39:52	13:49:37	583482	62b0a213241d25b7185f43a4	356963807	1	main_z	11	main_z	45	stimuli_target_trianglesquares.svg	stimuli_distractor_trianglediamonds.svg	18	yes	44	1	621
6.6.1	win	2022-12-14	13:39:52	13:49:37	583482	62b0a213241d25b7185f43a4	356963807	1	main_z	11	advance_on_keypress_ZEE	46	stimuli_target_trianglesquares.svg	stimuli_distractor_trianglediamonds.svg	18	yes	57	0	379
6.6.1	win	2022-12-14	13:39:52	13:49:39	585013	62b0a213241d25b7185f43a4	356963807	1	main_z	11	main_z	47	stimuli_distractor_diamondtriangles.svg	stimuli_target_diamondcircles.svg	31	yes	44	1	514
6.6.1	win	2022-12-14	13:39:52	13:49:39	585013	62b0a213241d25b7185f43a4	356963807	1	main_z	11	advance_on_keypress_ZEE	48	stimuli_distractor_diamondtriangles.svg	stimuli_target_diamondcircles.svg	31	yes	57	0	292
6.6.1	win	2022-12-14	13:39:52	13:49:40	586426	62b0a213241d25b7185f43a4	356963807	1	main_z	11	main_z	49	stimuli_target_trianglecircles.svg	stimuli_distractor_trianglediamonds.svg	17	yes	44	1	479
6.6.1	win	2022-12-14	13:39:52	13:49:40	586426	62b0a213241d25b7185f43a4	356963807	1	main_z	11	advance_on_keypress_ZEE	50	stimuli_target_trianglecircles.svg	stimuli_distractor_trianglediamonds.svg	17	yes	57	0	314
6.6.1	win	2022-12-14	13:39:52	13:49:43	589382	62b0a213241d25b7185f43a4	356963807	1	main_z	11	main_z	51	stimuli_distractor_diamondtriangles.svg	stimuli_distractor_trianglediamonds.svg	38	no	0	1	2000
6.6.1	win	2022-12-14	13:39:52	13:49:43	589382	62b0a213241d25b7185f43a4	356963807	1	main_z	11	advance_on_keypress_ZEE	52	stimuli_distractor_diamondtriangles.svg	stimuli_distractor_trianglediamonds.svg	38	no	57	0	345
6.6.1	win	2022-12-14	13:39:52	13:49:45	590890	62b0a213241d25b7185f43a4	356963807	1	main_z	11	main_z	53	stimuli_distractor_trianglediamonds.svg	stimuli_target_diamondsquares.svg	28	yes	44	1	522
6.6.1	win	2022-12-14	13:39:52	13:49:45	590890	62b0a213241d25b7185f43a4	356963807	1	main_z	11	advance_on_keypress_ZEE	54	stimuli_distractor_trianglediamonds.svg	stimuli_target_diamondsquares.svg	28	yes	57	0	299
6.6.1	win	2022-12-14	13:39:52	13:49:48	593836	62b0a213241d25b7185f43a4	356963807	1	main_z	11	main_z	55	stimuli_distractor_diamondtriangles.svg	stimuli_distractor_diamondtriangles.svg	40	no	0	1	2000
6.6.1	win	2022-12-14	13:39:52	13:49:48	593836	62b0a213241d25b7185f43a4	356963807	1	main_z	11	advance_on_keypress_ZEE	56	stimuli_distractor_diamondtriangles.svg	stimuli_distractor_diamondtriangles.svg	40	no	57	0	274
6.6.1	win	2022-12-14	13:39:52	13:49:50	596756	62b0a213241d25b7185f43a4	356963807	1	main_z	11	main_z	57	stimuli_distractor_trianglediamonds.svg	stimuli_distractor_trianglediamonds.svg	33	no	0	1	2000
6.6.1	win	2022-12-14	13:39:52	13:49:50	596756	62b0a213241d25b7185f43a4	356963807	1	main_z	11	advance_on_keypress_ZEE	58	stimuli_distractor_trianglediamonds.svg	stimuli_distractor_trianglediamonds.svg	33	no	57	0	347
6.6.1	win	2022-12-14	13:39:52	13:49:52	598146	62b0a213241d25b7185f43a4	356963807	1	main_z	11	main_z	59	stimuli_target_squaretriangles.svg	stimuli_distractor_trianglediamonds.svg	3	yes	44	1	404
6.6.1	win	2022-12-14	13:39:52	13:49:52	598146	62b0a213241d25b7185f43a4	356963807	1	main_z	11	advance_on_keypress_ZEE	60	stimuli_target_squaretriangles.svg	stimuli_distractor_trianglediamonds.svg	3	yes	57	0	466
6.6.1	win	2022-12-14	13:39:52	13:49:53	599570	62b0a213241d25b7185f43a4	356963807	1	main_z	11	main_z	61	stimuli_distractor_trianglediamonds.svg	stimuli_target_squaretriangles.svg	11	yes	44	1	310
6.6.1	win	2022-12-14	13:39:52	13:49:53	599570	62b0a213241d25b7185f43a4	356963807	1	main_z	11	advance_on_keypress_ZEE	62	stimuli_distractor_trianglediamonds.svg	stimuli_target_squaretriangles.svg	11	yes	57	0	328
6.6.1	win	2022-12-14	13:39:52	13:49:55	600922	62b0a213241d25b7185f43a4	356963807	1	main_z	11	main_z	63	stimuli_target_diamondsquares.svg	stimuli_distractor_diamondtriangles.svg	24	yes	44	1	394
6.6.1	win	2022-12-14	13:39:52	13:49:55	600922	62b0a213241d25b7185f43a4	356963807	1	main_z	11	advance_on_keypress_ZEE	64	stimuli_target_diamondsquares.svg	stimuli_distractor_diamondtriangles.svg	24	yes	57	0	465
6.6.1	win	2022-12-14	13:39:52	13:49:56	602705	62b0a213241d25b7185f43a4	356963807	1	main_z	11	main_z	65	stimuli_distractor_diamondtriangles.svg	stimuli_target_diamondsquares.svg	32	yes	44	1	676
6.6.1	win	2022-12-14	13:39:52	13:49:56	602705	62b0a213241d25b7185f43a4	356963807	1	main_z	11	advance_on_keypress_ZEE	66	stimuli_distractor_diamondtriangles.svg	stimuli_target_diamondsquares.svg	32	yes	57	0	304
6.6.1	win	2022-12-14	13:39:52	13:49:58	604322	62b0a213241d25b7185f43a4	356963807	1	main_z	11	main_z	67	stimuli_distractor_diamondtriangles.svg	stimuli_target_circletriangles.svg	13	yes	44	1	674
6.6.1	win	2022-12-14	13:39:52	13:49:58	604322	62b0a213241d25b7185f43a4	356963807	1	main_z	11	advance_on_keypress_ZEE	68	stimuli_distractor_diamondtriangles.svg	stimuli_target_circletriangles.svg	13	yes	57	0	373
6.6.1	win	2022-12-14	13:39:52	13:50:00	605850	62b0a213241d25b7185f43a4	356963807	1	main_z	11	main_z	69	stimuli_distractor_trianglediamonds.svg	stimuli_target_circlediamonds.svg	10	yes	44	1	502
6.6.1	win	2022-12-14	13:39:52	13:50:00	605850	62b0a213241d25b7185f43a4	356963807	1	main_z	11	advance_on_keypress_ZEE	70	stimuli_distractor_trianglediamonds.svg	stimuli_target_circlediamonds.svg	10	yes	57	0	406
6.6.1	win	2022-12-14	13:39:52	13:50:01	607354	62b0a213241d25b7185f43a4	356963807	1	main_z	11	main_z	71	stimuli_target_circletriangles.svg	stimuli_distractor_diamondtriangles.svg	5	yes	44	1	453
6.6.1	win	2022-12-14	13:39:52	13:50:01	607354	62b0a213241d25b7185f43a4	356963807	1	main_z	11	advance_on_keypress_ZEE	72	stimuli_target_circletriangles.svg	stimuli_distractor_diamondtriangles.svg	5	yes	57	0	353
6.6.1	win	2022-12-14	13:39:52	13:50:03	608802	62b0a213241d25b7185f43a4	356963807	1	main_z	11	main_z	73	stimuli_target_diamondcircles.svg	stimuli_distractor_trianglediamonds.svg	19	yes	44	1	449
6.6.1	win	2022-12-14	13:39:52	13:50:03	608802	62b0a213241d25b7185f43a4	356963807	1	main_z	11	advance_on_keypress_ZEE	74	stimuli_target_diamondcircles.svg	stimuli_distractor_trianglediamonds.svg	19	yes	57	0	422
6.6.1	win	2022-12-14	13:39:52	13:50:04	610458	62b0a213241d25b7185f43a4	356963807	1	main_z	11	main_z	75	stimuli_distractor_diamondtriangles.svg	stimuli_target_circlediamonds.svg	14	yes	44	1	587
6.6.1	win	2022-12-14	13:39:52	13:50:04	610458	62b0a213241d25b7185f43a4	356963807	1	main_z	11	advance_on_keypress_ZEE	76	stimuli_distractor_diamondtriangles.svg	stimuli_target_circlediamonds.svg	14	yes	57	0	378
6.6.1	win	2022-12-14	13:39:52	13:50:06	612026	62b0a213241d25b7185f43a4	356963807	1	main_z	11	main_z	77	stimuli_distractor_trianglediamonds.svg	stimuli_target_trianglecircles.svg	25	yes	44	1	554
6.6.1	win	2022-12-14	13:39:52	13:50:06	612026	62b0a213241d25b7185f43a4	356963807	1	main_z	11	advance_on_keypress_ZEE	78	stimuli_distractor_trianglediamonds.svg	stimuli_target_trianglecircles.svg	25	yes	57	0	338
6.6.1	win	2022-12-14	13:39:52	13:50:07	613610	62b0a213241d25b7185f43a4	356963807	1	main_z	11	main_z	79	stimuli_target_squarediamonds.svg	stimuli_distractor_diamondtriangles.svg	8	yes	44	1	603
6.6.1	win	2022-12-14	13:39:52	13:50:07	613610	62b0a213241d25b7185f43a4	356963807	1	main_z	11	advance_on_keypress_ZEE	80	stimuli_target_squarediamonds.svg	stimuli_distractor_diamondtriangles.svg	8	yes	57	0	321
6.6.1	win	2022-12-14	13:39:52	13:50:09	614959	62b0a213241d25b7185f43a4	356963807	1	main_z	11	main_z	81	stimuli_distractor_diamondtriangles.svg	stimuli_target_squaretriangles.svg	15	yes	44	1	370
6.6.1	win	2022-12-14	13:39:52	13:50:09	614959	62b0a213241d25b7185f43a4	356963807	1	main_z	11	advance_on_keypress_ZEE	82	stimuli_distractor_diamondtriangles.svg	stimuli_target_squaretriangles.svg	15	yes	57	0	401
6.6.1	win	2022-12-14	13:39:52	13:50:10	616529	62b0a213241d25b7185f43a4	356963807	1	main_z	11	main_z	83	stimuli_distractor_diamondtriangles.svg	stimuli_target_trianglecircles.svg	29	yes	44	1	520
6.6.1	win	2022-12-14	13:39:52	13:50:10	616529	62b0a213241d25b7185f43a4	356963807	1	main_z	11	advance_on_keypress_ZEE	84	stimuli_distractor_diamondtriangles.svg	stimuli_target_trianglecircles.svg	29	yes	57	0	353
6.6.1	win	2022-12-14	13:39:52	13:50:13	619528	62b0a213241d25b7185f43a4	356963807	1	main_z	11	main_z	85	stimuli_target_diamondsquares.svg	stimuli_distractor_diamondtriangles.svg	24	yes	0	0	2000
6.6.1	win	2022-12-14	13:39:52	13:50:13	619528	62b0a213241d25b7185f43a4	356963807	1	main_z	11	advance_on_keypress_ZEE	86	stimuli_target_diamondsquares.svg	stimuli_distractor_diamondtriangles.svg	24	yes	57	0	503
6.6.1	win	2022-12-14	13:39:52	13:50:15	621163	62b0a213241d25b7185f43a4	356963807	1	main_z	11	main_z	87	stimuli_target_diamondcircles.svg	stimuli_distractor_diamondtriangles.svg	23	yes	44	1	497
6.6.1	win	2022-12-14	13:39:52	13:50:15	621163	62b0a213241d25b7185f43a4	356963807	1	main_z	11	advance_on_keypress_ZEE	88	stimuli_target_diamondcircles.svg	stimuli_distractor_diamondtriangles.svg	23	yes	57	0	339
6.6.1	win	2022-12-14	13:39:52	13:50:18	624150	62b0a213241d25b7185f43a4	356963807	1	main_z	11	main_z	89	stimuli_distractor_trianglediamonds.svg	stimuli_distractor_diamondtriangles.svg	36	no	0	1	2000
6.6.1	win	2022-12-14	13:39:52	13:50:18	624150	62b0a213241d25b7185f43a4	356963807	1	main_z	11	advance_on_keypress_ZEE	90	stimuli_distractor_trianglediamonds.svg	stimuli_distractor_diamondtriangles.svg	36	no	57	0	553
6.6.1	win	2022-12-14	13:39:52	13:50:20	626137	62b0a213241d25b7185f43a4	356963807	1	main_z	11	main_z	91	stimuli_distractor_diamondtriangles.svg	stimuli_target_diamondsquares.svg	32	yes	44	1	785
6.6.1	win	2022-12-14	13:39:52	13:50:20	626137	62b0a213241d25b7185f43a4	356963807	1	main_z	11	advance_on_keypress_ZEE	92	stimuli_distractor_diamondtriangles.svg	stimuli_target_diamondsquares.svg	32	yes	57	0	248
6.6.1	win	2022-12-14	13:39:52	13:50:21	627690	62b0a213241d25b7185f43a4	356963807	1	main_z	11	main_z	93	stimuli_target_circletriangles.svg	stimuli_distractor_diamondtriangles.svg	5	yes	44	1	652
6.6.1	win	2022-12-14	13:39:52	13:50:21	627690	62b0a213241d25b7185f43a4	356963807	1	main_z	11	advance_on_keypress_ZEE	94	stimuli_target_circletriangles.svg	stimuli_distractor_diamondtriangles.svg	5	yes	57	0	256
6.6.1	win	2022-12-14	13:39:52	13:50:23	628978	62b0a213241d25b7185f43a4	356963807	1	main_z	11	main_z	95	stimuli_target_squaretriangles.svg	stimuli_distractor_diamondtriangles.svg	7	yes	44	1	388
6.6.1	win	2022-12-14	13:39:52	13:50:23	628978	62b0a213241d25b7185f43a4	356963807	1	main_z	11	advance_on_keypress_ZEE	96	stimuli_target_squaretriangles.svg	stimuli_distractor_diamondtriangles.svg	7	yes	57	0	339
6.6.1	win	2022-12-14	13:39:52	13:50:25	630866	62b0a213241d25b7185f43a4	356963807	1	main_z	11	main_z	97	stimuli_distractor_trianglediamonds.svg	stimuli_target_diamondsquares.svg	28	yes	44	1	908
6.6.1	win	2022-12-14	13:39:52	13:50:25	630866	62b0a213241d25b7185f43a4	356963807	1	main_z	11	advance_on_keypress_ZEE	98	stimuli_distractor_trianglediamonds.svg	stimuli_target_diamondsquares.svg	28	yes	57	0	222
6.6.1	win	2022-12-14	13:39:52	13:50:27	632858	62b0a213241d25b7185f43a4	356963807	1	main_z	11	main_z	99	stimuli_distractor_diamondtriangles.svg	stimuli_target_trianglesquares.svg	30	yes	44	1	1132
6.6.1	win	2022-12-14	13:39:52	13:50:27	632858	62b0a213241d25b7185f43a4	356963807	1	main_z	11	advance_on_keypress_ZEE	100	stimuli_distractor_diamondtriangles.svg	stimuli_target_trianglesquares.svg	30	yes	57	0	237
6.6.1	win	2022-12-14	13:39:52	13:50:28	634290	62b0a213241d25b7185f43a4	356963807	1	main_z	11	main_z	101	stimuli_target_trianglecircles.svg	stimuli_distractor_trianglediamonds.svg	17	yes	44	1	562
6.6.1	win	2022-12-14	13:39:52	13:50:28	634290	62b0a213241d25b7185f43a4	356963807	1	main_z	11	advance_on_keypress_ZEE	102	stimuli_target_trianglecircles.svg	stimuli_distractor_trianglediamonds.svg	17	yes	57	0	250
6.6.1	win	2022-12-14	13:39:52	13:50:31	637179	62b0a213241d25b7185f43a4	356963807	1	main_z	11	main_z	103	stimuli_distractor_diamondtriangles.svg	stimuli_distractor_diamondtriangles.svg	39	no	0	1	2000
6.6.1	win	2022-12-14	13:39:52	13:50:31	637179	62b0a213241d25b7185f43a4	356963807	1	main_z	11	advance_on_keypress_ZEE	104	stimuli_distractor_diamondtriangles.svg	stimuli_distractor_diamondtriangles.svg	39	no	57	0	459
6.6.1	win	2022-12-14	13:39:52	13:50:33	639162	62b0a213241d25b7185f43a4	356963807	1	main_z	11	main_z	105	stimuli_distractor_diamondtriangles.svg	stimuli_target_circletriangles.svg	13	yes	44	1	880
6.6.1	win	2022-12-14	13:39:52	13:50:33	639162	62b0a213241d25b7185f43a4	356963807	1	main_z	11	advance_on_keypress_ZEE	106	stimuli_distractor_diamondtriangles.svg	stimuli_target_circletriangles.svg	13	yes	57	0	371
6.6.1	win	2022-12-14	13:39:52	13:50:35	641122	62b0a213241d25b7185f43a4	356963807	1	main_z	11	main_z	107	stimuli_distractor_diamondtriangles.svg	stimuli_distractor_trianglediamonds.svg	38	no	44	0	954
6.6.1	win	2022-12-14	13:39:52	13:50:35	641122	62b0a213241d25b7185f43a4	356963807	1	main_z	11	advance_on_keypress_ZEE	108	stimuli_distractor_diamondtriangles.svg	stimuli_distractor_trianglediamonds.svg	38	no	57	0	650
6.6.1	win	2022-12-14	13:39:52	13:50:37	643026	62b0a213241d25b7185f43a4	356963807	1	main_z	11	main_z	109	stimuli_distractor_trianglediamonds.svg	stimuli_target_trianglecircles.svg	25	yes	44	1	606
6.6.1	win	2022-12-14	13:39:52	13:50:37	643026	62b0a213241d25b7185f43a4	356963807	1	main_z	11	advance_on_keypress_ZEE	110	stimuli_distractor_trianglediamonds.svg	stimuli_target_trianglecircles.svg	25	yes	57	0	228
6.6.1	win	2022-12-14	13:39:52	13:50:40	645888	62b0a213241d25b7185f43a4	356963807	1	main_z	11	main_z	111	stimuli_distractor_diamondtriangles.svg	stimuli_distractor_trianglediamonds.svg	37	no	0	1	2000
6.6.1	win	2022-12-14	13:39:52	13:50:40	645888	62b0a213241d25b7185f43a4	356963807	1	main_z	11	advance_on_keypress_ZEE	112	stimuli_distractor_diamondtriangles.svg	stimuli_distractor_trianglediamonds.svg	37	no	57	0	511
6.6.1	win	2022-12-14	13:39:52	13:50:41	647570	62b0a213241d25b7185f43a4	356963807	1	main_z	11	main_z	113	stimuli_distractor_diamondtriangles.svg	stimuli_target_diamondcircles.svg	31	yes	44	1	529
6.6.1	win	2022-12-14	13:39:52	13:50:41	647570	62b0a213241d25b7185f43a4	356963807	1	main_z	11	advance_on_keypress_ZEE	114	stimuli_distractor_diamondtriangles.svg	stimuli_target_diamondcircles.svg	31	yes	57	0	282
6.6.1	win	2022-12-14	13:39:52	13:50:43	649010	62b0a213241d25b7185f43a4	356963807	1	main_z	11	main_z	115	stimuli_distractor_diamondtriangles.svg	stimuli_target_circlediamonds.svg	14	yes	44	1	509
6.6.1	win	2022-12-14	13:39:52	13:50:43	649010	62b0a213241d25b7185f43a4	356963807	1	main_z	11	advance_on_keypress_ZEE	116	stimuli_distractor_diamondtriangles.svg	stimuli_target_circlediamonds.svg	14	yes	57	0	215
6.6.1	win	2022-12-14	13:39:52	13:50:44	650466	62b0a213241d25b7185f43a4	356963807	1	main_z	11	main_z	117	stimuli_target_diamondsquares.svg	stimuli_distractor_trianglediamonds.svg	20	yes	44	1	589
6.6.1	win	2022-12-14	13:39:52	13:50:44	650466	62b0a213241d25b7185f43a4	356963807	1	main_z	11	advance_on_keypress_ZEE	118	stimuli_target_diamondsquares.svg	stimuli_distractor_trianglediamonds.svg	20	yes	57	0	243
6.6.1	win	2022-12-14	13:39:52	13:50:46	651842	62b0a213241d25b7185f43a4	356963807	1	main_z	11	main_z	119	stimuli_target_trianglesquares.svg	stimuli_distractor_trianglediamonds.svg	18	yes	44	1	496
6.6.1	win	2022-12-14	13:39:52	13:50:46	651842	62b0a213241d25b7185f43a4	356963807	1	main_z	11	advance_on_keypress_ZEE	120	stimuli_target_trianglesquares.svg	stimuli_distractor_trianglediamonds.svg	18	yes	57	0	203
6.6.1	win	2022-12-14	13:39:52	13:50:47	653074	62b0a213241d25b7185f43a4	356963807	1	main_z	11	main_z	121	stimuli_target_trianglecircles.svg	stimuli_distractor_diamondtriangles.svg	21	yes	44	1	394
6.6.1	win	2022-12-14	13:39:52	13:50:47	653074	62b0a213241d25b7185f43a4	356963807	1	main_z	11	advance_on_keypress_ZEE	122	stimuli_target_trianglecircles.svg	stimuli_distractor_diamondtriangles.svg	21	yes	57	0	321
6.6.1	win	2022-12-14	13:39:52	13:50:50	656031	62b0a213241d25b7185f43a4	356963807	1	main_z	11	main_z	123	stimuli_distractor_trianglediamonds.svg	stimuli_distractor_diamondtriangles.svg	35	no	0	1	2000
6.6.1	win	2022-12-14	13:39:52	13:50:50	656031	62b0a213241d25b7185f43a4	356963807	1	main_z	11	advance_on_keypress_ZEE	124	stimuli_distractor_trianglediamonds.svg	stimuli_distractor_diamondtriangles.svg	35	no	57	0	432
6.6.1	win	2022-12-14	13:39:52	13:50:51	657466	62b0a213241d25b7185f43a4	356963807	1	main_z	11	main_z	125	stimuli_target_circlediamonds.svg	stimuli_distractor_diamondtriangles.svg	6	yes	44	1	365
6.6.1	win	2022-12-14	13:39:52	13:50:51	657466	62b0a213241d25b7185f43a4	356963807	1	main_z	11	advance_on_keypress_ZEE	126	stimuli_target_circlediamonds.svg	stimuli_distractor_diamondtriangles.svg	6	yes	57	0	325
6.6.1	win	2022-12-14	13:39:52	13:50:53	658986	62b0a213241d25b7185f43a4	356963807	1	main_z	11	main_z	127	stimuli_target_diamondcircles.svg	stimuli_distractor_trianglediamonds.svg	19	yes	44	1	567
6.6.1	win	2022-12-14	13:39:52	13:50:53	658986	62b0a213241d25b7185f43a4	356963807	1	main_z	11	advance_on_keypress_ZEE	128	stimuli_target_diamondcircles.svg	stimuli_distractor_trianglediamonds.svg	19	yes	57	0	222
6.6.1	win	2022-12-14	13:39:52	13:50:54	660378	62b0a213241d25b7185f43a4	356963807	1	main_z	11	main_z	129	stimuli_distractor_trianglediamonds.svg	stimuli_target_trianglesquares.svg	26	yes	44	1	524
6.6.1	win	2022-12-14	13:39:52	13:50:54	660378	62b0a213241d25b7185f43a4	356963807	1	main_z	11	advance_on_keypress_ZEE	130	stimuli_distractor_trianglediamonds.svg	stimuli_target_trianglesquares.svg	26	yes	57	0	174
6.6.1	win	2022-12-14	13:39:52	13:50:55	661634	62b0a213241d25b7185f43a4	356963807	1	main_z	11	main_z	131	stimuli_target_trianglesquares.svg	stimuli_distractor_diamondtriangles.svg	22	yes	44	1	445
6.6.1	win	2022-12-14	13:39:52	13:50:55	661634	62b0a213241d25b7185f43a4	356963807	1	main_z	11	advance_on_keypress_ZEE	132	stimuli_target_trianglesquares.svg	stimuli_distractor_diamondtriangles.svg	22	yes	57	0	266
6.6.1	win	2022-12-14	13:39:52	13:50:57	663026	62b0a213241d25b7185f43a4	356963807	1	main_z	11	main_z	133	stimuli_distractor_trianglediamonds.svg	stimuli_target_circletriangles.svg	9	yes	44	1	486
6.6.1	win	2022-12-14	13:39:52	13:50:57	663026	62b0a213241d25b7185f43a4	356963807	1	main_z	11	advance_on_keypress_ZEE	134	stimuli_distractor_trianglediamonds.svg	stimuli_target_circletriangles.svg	9	yes	57	0	209
6.6.1	win	2022-12-14	13:39:52	13:50:58	664362	62b0a213241d25b7185f43a4	356963807	1	main_z	11	main_z	135	stimuli_target_circlediamonds.svg	stimuli_distractor_trianglediamonds.svg	2	yes	44	1	487
6.6.1	win	2022-12-14	13:39:52	13:50:58	664362	62b0a213241d25b7185f43a4	356963807	1	main_z	11	advance_on_keypress_ZEE	136	stimuli_target_circlediamonds.svg	stimuli_distractor_trianglediamonds.svg	2	yes	57	0	186
6.6.1	win	2022-12-14	13:39:52	13:50:59	665674	62b0a213241d25b7185f43a4	356963807	1	main_z	11	main_z	137	stimuli_target_squaretriangles.svg	stimuli_distractor_trianglediamonds.svg	3	yes	44	1	481
6.6.1	win	2022-12-14	13:39:52	13:50:59	665674	62b0a213241d25b7185f43a4	356963807	1	main_z	11	advance_on_keypress_ZEE	138	stimuli_target_squaretriangles.svg	stimuli_distractor_trianglediamonds.svg	3	yes	57	0	181
6.6.1	win	2022-12-14	13:39:52	13:51:01	666937	62b0a213241d25b7185f43a4	356963807	1	main_z	11	main_z	139	stimuli_target_squarediamonds.svg	stimuli_distractor_trianglediamonds.svg	4	yes	44	1	444
6.6.1	win	2022-12-14	13:39:52	13:51:01	666937	62b0a213241d25b7185f43a4	356963807	1	main_z	11	advance_on_keypress_ZEE	140	stimuli_target_squarediamonds.svg	stimuli_distractor_trianglediamonds.svg	4	yes	57	0	161
6.6.1	win	2022-12-14	13:39:52	13:51:02	668162	62b0a213241d25b7185f43a4	356963807	1	main_z	11	main_z	141	stimuli_distractor_diamondtriangles.svg	stimuli_target_squarediamonds.svg	16	yes	44	1	434
6.6.1	win	2022-12-14	13:39:52	13:51:02	668162	62b0a213241d25b7185f43a4	356963807	1	main_z	11	advance_on_keypress_ZEE	142	stimuli_distractor_diamondtriangles.svg	stimuli_target_squarediamonds.svg	16	yes	57	0	174
6.6.1	win	2022-12-14	13:39:52	13:51:03	669258	62b0a213241d25b7185f43a4	356963807	1	main_z	11	main_z	143	stimuli_distractor_trianglediamonds.svg	stimuli_distractor_trianglediamonds.svg	34	no	44	0	278
6.6.1	win	2022-12-14	13:39:52	13:51:03	669258	62b0a213241d25b7185f43a4	356963807	1	main_z	11	advance_on_keypress_ZEE	144	stimuli_distractor_trianglediamonds.svg	stimuli_distractor_trianglediamonds.svg	34	no	57	0	1106
6.6.1	win	2022-12-14	13:39:52	13:51:06	671929	62b0a213241d25b7185f43a4	356963807	1	main_z	11	main_z	145	stimuli_distractor_trianglediamonds.svg	stimuli_target_squaretriangles.svg	11	yes	44	1	932
6.6.1	win	2022-12-14	13:39:52	13:51:06	671929	62b0a213241d25b7185f43a4	356963807	1	main_z	11	advance_on_keypress_ZEE	146	stimuli_distractor_trianglediamonds.svg	stimuli_target_squaretriangles.svg	11	yes	57	0	181
6.6.1	win	2022-12-14	13:39:52	13:51:07	673170	62b0a213241d25b7185f43a4	356963807	1	main_z	11	main_z	147	stimuli_target_circletriangles.svg	stimuli_distractor_trianglediamonds.svg	1	yes	44	1	437
6.6.1	win	2022-12-14	13:39:52	13:51:07	673170	62b0a213241d25b7185f43a4	356963807	1	main_z	11	advance_on_keypress_ZEE	148	stimuli_target_circletriangles.svg	stimuli_distractor_trianglediamonds.svg	1	yes	57	0	145
6.6.1	win	2022-12-14	13:39:52	13:51:08	674468	62b0a213241d25b7185f43a4	356963807	1	main_z	11	main_z	149	stimuli_target_squarediamonds.svg	stimuli_distractor_diamondtriangles.svg	8	yes	44	1	515
6.6.1	win	2022-12-14	13:39:52	13:51:08	674468	62b0a213241d25b7185f43a4	356963807	1	main_z	11	advance_on_keypress_ZEE	150	stimuli_target_squarediamonds.svg	stimuli_distractor_diamondtriangles.svg	8	yes	57	0	164
6.6.1	win	2022-12-14	13:39:52	13:51:11	677286	62b0a213241d25b7185f43a4	356963807	1	main_z	11	main_z	151	stimuli_distractor_diamondtriangles.svg	stimuli_distractor_diamondtriangles.svg	40	no	0	1	2000
6.6.1	win	2022-12-14	13:39:52	13:51:11	677286	62b0a213241d25b7185f43a4	356963807	1	main_z	11	advance_on_keypress_ZEE	152	stimuli_distractor_diamondtriangles.svg	stimuli_distractor_diamondtriangles.svg	40	no	57	0	337
6.6.1	win	2022-12-14	13:39:52	13:51:12	678656	62b0a213241d25b7185f43a4	356963807	1	main_z	11	main_z	153	stimuli_distractor_trianglediamonds.svg	stimuli_target_circlediamonds.svg	10	yes	44	1	378
6.6.1	win	2022-12-14	13:39:52	13:51:12	678656	62b0a213241d25b7185f43a4	356963807	1	main_z	11	advance_on_keypress_ZEE	154	stimuli_distractor_trianglediamonds.svg	stimuli_target_circlediamonds.svg	10	yes	57	0	193
6.6.1	win	2022-12-14	13:39:52	13:51:14	679874	62b0a213241d25b7185f43a4	356963807	1	main_z	11	main_z	155	stimuli_distractor_trianglediamonds.svg	stimuli_target_diamondcircles.svg	27	yes	44	1	384
6.6.1	win	2022-12-14	13:39:52	13:51:14	679874	62b0a213241d25b7185f43a4	356963807	1	main_z	11	advance_on_keypress_ZEE	156	stimuli_distractor_trianglediamonds.svg	stimuli_target_diamondcircles.svg	27	yes	57	0	167
6.6.1	win	2022-12-14	13:39:52	13:51:16	682691	62b0a213241d25b7185f43a4	356963807	1	main_z	11	main_z	157	stimuli_distractor_trianglediamonds.svg	stimuli_distractor_trianglediamonds.svg	33	no	0	1	2000
6.6.1	win	2022-12-14	13:39:52	13:51:16	682691	62b0a213241d25b7185f43a4	356963807	1	main_z	11	advance_on_keypress_ZEE	158	stimuli_distractor_trianglediamonds.svg	stimuli_distractor_trianglediamonds.svg	33	no	57	0	819
6.6.1	win	2022-12-14	13:39:52	13:51:18	684586	62b0a213241d25b7185f43a4	356963807	1	main_z	11	main_z	159	stimuli_distractor_trianglediamonds.svg	stimuli_target_squarediamonds.svg	12	yes	44	1	424
6.6.1	win	2022-12-14	13:39:52	13:51:18	684586	62b0a213241d25b7185f43a4	356963807	1	main_z	11	advance_on_keypress_ZEE	160	stimuli_distractor_trianglediamonds.svg	stimuli_target_squarediamonds.svg	12	yes	57	0	230