build	computer.platform	date	time	timestamp	time_elapsed_ms	subject	group	session	blockcode	blocknum	trialcode	trialnum	stimulus_left	stimulus_right	stim_index	target_present	response	correct	latency
6.6.1	win	2022-11-07	13:48:00	13:51:22	200544	5d3df9b23bf3780015abf56f	422995485	1	practice_slash	5	practice_slash	1	stimuli_target_squarediamonds.svg	stimuli_distractor_diamondtriangles.svg	2	yes	53	1	749
6.6.1	win	2022-11-07	13:48:00	13:51:22	200544	5d3df9b23bf3780015abf56f	422995485	1	practice_slash	5	advance_on_keypress_SLASH	2	stimuli_target_squarediamonds.svg	stimuli_distractor_diamondtriangles.svg	2	yes	57	0	1729
6.6.1	win	2022-11-07	13:48:00	13:51:27	205774	5d3df9b23bf3780015abf56f	422995485	1	practice_slash	5	practice_slash	3	stimuli_distractor_trianglediamonds.svg	stimuli_target_circlediamonds.svg	10	yes	53	1	1829
6.6.1	win	2022-11-07	13:48:00	13:51:27	205774	5d3df9b23bf3780015abf56f	422995485	1	practice_slash	5	advance_on_keypress_SLASH	4	stimuli_distractor_trianglediamonds.svg	stimuli_target_circlediamonds.svg	10	yes	57	0	613
6.6.1	win	2022-11-07	13:48:00	13:51:31	210044	5d3df9b23bf3780015abf56f	422995485	1	practice_slash	5	practice_slash	5	stimuli_distractor_trianglediamonds.svg	stimuli_distractor_diamondtriangles.svg	16	no	0	1	2000
6.6.1	win	2022-11-07	13:48:00	13:51:31	210044	5d3df9b23bf3780015abf56f	422995485	1	practice_slash	5	advance_on_keypress_SLASH	6	stimuli_distractor_trianglediamonds.svg	stimuli_distractor_diamondtriangles.svg	16	no	57	0	612
6.6.1	win	2022-11-07	13:48:00	13:51:34	213143	5d3df9b23bf3780015abf56f	422995485	1	practice_slash	5	practice_slash	7	stimuli_target_circlediamonds.svg	stimuli_distractor_diamondtriangles.svg	1	yes	53	1	832
6.6.1	win	2022-11-07	13:48:00	13:51:34	213143	5d3df9b23bf3780015abf56f	422995485	1	practice_slash	5	advance_on_keypress_SLASH	8	stimuli_target_circlediamonds.svg	stimuli_distractor_diamondtriangles.svg	1	yes	57	0	665
6.6.1	win	2022-11-07	13:48:00	13:51:38	216515	5d3df9b23bf3780015abf56f	422995485	1	practice_slash	5	practice_slash	9	stimuli_distractor_trianglediamonds.svg	stimuli_target_diamondcircles.svg	12	yes	53	1	1055
6.6.1	win	2022-11-07	13:48:00	13:51:38	216515	5d3df9b23bf3780015abf56f	422995485	1	practice_slash	5	advance_on_keypress_SLASH	10	stimuli_distractor_trianglediamonds.svg	stimuli_target_diamondcircles.svg	12	yes	57	0	632
6.6.1	win	2022-11-07	13:48:00	13:51:41	219630	5d3df9b23bf3780015abf56f	422995485	1	practice_slash	5	practice_slash	11	stimuli_distractor_diamondtriangles.svg	stimuli_target_trianglecircles.svg	9	yes	53	1	836
6.6.1	win	2022-11-07	13:48:00	13:51:41	219630	5d3df9b23bf3780015abf56f	422995485	1	practice_slash	5	advance_on_keypress_SLASH	12	stimuli_distractor_diamondtriangles.svg	stimuli_target_trianglecircles.svg	9	yes	57	0	564
6.6.1	win	2022-11-07	13:48:00	13:51:45	223844	5d3df9b23bf3780015abf56f	422995485	1	practice_slash	5	practice_slash	13	stimuli_distractor_trianglediamonds.svg	stimuli_distractor_trianglediamonds.svg	15	no	0	1	2000
6.6.1	win	2022-11-07	13:48:00	13:51:45	223844	5d3df9b23bf3780015abf56f	422995485	1	practice_slash	5	advance_on_keypress_SLASH	14	stimuli_distractor_trianglediamonds.svg	stimuli_distractor_trianglediamonds.svg	15	no	57	0	544
6.6.1	win	2022-11-07	13:48:00	13:51:49	228043	5d3df9b23bf3780015abf56f	422995485	1	practice_slash	5	practice_slash	15	stimuli_distractor_diamondtriangles.svg	stimuli_distractor_diamondtriangles.svg	13	no	0	1	2000
6.6.1	win	2022-11-07	13:48:00	13:51:49	228043	5d3df9b23bf3780015abf56f	422995485	1	practice_slash	5	advance_on_keypress_SLASH	16	stimuli_distractor_diamondtriangles.svg	stimuli_distractor_diamondtriangles.svg	13	no	57	0	357
6.6.1	win	2022-11-07	13:48:00	13:51:52	230865	5d3df9b23bf3780015abf56f	422995485	1	practice_slash	5	practice_slash	17	stimuli_target_circlediamonds.svg	stimuli_distractor_trianglediamonds.svg	4	yes	53	1	821
6.6.1	win	2022-11-07	13:48:00	13:51:52	230865	5d3df9b23bf3780015abf56f	422995485	1	practice_slash	5	advance_on_keypress_SLASH	18	stimuli_target_circlediamonds.svg	stimuli_distractor_trianglediamonds.svg	4	yes	57	0	523
6.6.1	win	2022-11-07	13:48:00	13:51:55	234038	5d3df9b23bf3780015abf56f	422995485	1	practice_slash	5	practice_slash	19	stimuli_target_squarediamonds.svg	stimuli_distractor_trianglediamonds.svg	5	yes	53	1	1011
6.6.1	win	2022-11-07	13:48:00	13:51:55	234038	5d3df9b23bf3780015abf56f	422995485	1	practice_slash	5	advance_on_keypress_SLASH	20	stimuli_target_squarediamonds.svg	stimuli_distractor_trianglediamonds.svg	5	yes	57	0	506
6.6.1	win	2022-11-07	13:48:00	13:51:59	238193	5d3df9b23bf3780015abf56f	422995485	1	practice_slash	5	practice_slash	21	stimuli_distractor_diamondtriangles.svg	stimuli_distractor_trianglediamonds.svg	14	no	0	1	2000
6.6.1	win	2022-11-07	13:48:00	13:51:59	238193	5d3df9b23bf3780015abf56f	422995485	1	practice_slash	5	advance_on_keypress_SLASH	22	stimuli_distractor_diamondtriangles.svg	stimuli_distractor_trianglediamonds.svg	14	no	57	0	497
6.6.1	win	2022-11-07	13:48:00	13:52:03	241875	5d3df9b23bf3780015abf56f	422995485	1	practice_slash	5	practice_slash	23	stimuli_target_diamondsquares.svg	stimuli_distractor_diamondtriangles.svg	3	yes	53	1	1531
6.6.1	win	2022-11-07	13:48:00	13:52:03	241875	5d3df9b23bf3780015abf56f	422995485	1	practice_slash	5	advance_on_keypress_SLASH	24	stimuli_target_diamondsquares.svg	stimuli_distractor_diamondtriangles.svg	3	yes	57	0	497
6.6.1	win	2022-11-07	13:48:00	13:52:06	244787	5d3df9b23bf3780015abf56f	422995485	1	practice_slash	5	practice_slash	25	stimuli_distractor_diamondtriangles.svg	stimuli_target_diamondcircles.svg	8	yes	53	1	761
6.6.1	win	2022-11-07	13:48:00	13:52:06	244787	5d3df9b23bf3780015abf56f	422995485	1	practice_slash	5	advance_on_keypress_SLASH	26	stimuli_distractor_diamondtriangles.svg	stimuli_target_diamondcircles.svg	8	yes	57	0	480
6.6.1	win	2022-11-07	13:48:00	13:52:10	248926	5d3df9b23bf3780015abf56f	422995485	1	practice_slash	5	practice_slash	27	stimuli_target_diamondsquares.svg	stimuli_distractor_trianglediamonds.svg	6	yes	0	0	2000
6.6.1	win	2022-11-07	13:48:00	13:52:10	248926	5d3df9b23bf3780015abf56f	422995485	1	practice_slash	5	advance_on_keypress_SLASH	28	stimuli_target_diamondsquares.svg	stimuli_distractor_trianglediamonds.svg	6	yes	57	0	563
6.6.1	win	2022-11-07	13:48:00	13:52:14	253142	5d3df9b23bf3780015abf56f	422995485	1	practice_slash	5	practice_slash	29	stimuli_distractor_trianglediamonds.svg	stimuli_target_squarediamonds.svg	11	yes	0	0	2000
6.6.1	win	2022-11-07	13:48:00	13:52:14	253142	5d3df9b23bf3780015abf56f	422995485	1	practice_slash	5	advance_on_keypress_SLASH	30	stimuli_distractor_trianglediamonds.svg	stimuli_target_squarediamonds.svg	11	yes	57	0	510
6.6.1	win	2022-11-07	13:48:00	13:52:19	257309	5d3df9b23bf3780015abf56f	422995485	1	practice_slash	5	practice_slash	31	stimuli_distractor_diamondtriangles.svg	stimuli_target_circletriangles.svg	7	yes	0	0	2000
6.6.1	win	2022-11-07	13:48:00	13:52:19	257309	5d3df9b23bf3780015abf56f	422995485	1	practice_slash	5	advance_on_keypress_SLASH	32	stimuli_distractor_diamondtriangles.svg	stimuli_target_circletriangles.svg	7	yes	57	0	392
6.6.1	win	2022-11-07	13:48:00	13:52:31	269739	5d3df9b23bf3780015abf56f	422995485	1	main_slash	7	main_slash	1	stimuli_target_squarediamonds.svg	stimuli_distractor_diamondtriangles.svg	8	yes	0	0	2000
6.6.1	win	2022-11-07	13:48:00	13:52:31	269739	5d3df9b23bf3780015abf56f	422995485	1	main_slash	7	advance_on_keypress_SLASH	2	stimuli_target_squarediamonds.svg	stimuli_distractor_diamondtriangles.svg	8	yes	57	0	804
6.6.1	win	2022-11-07	13:48:00	13:52:33	271902	5d3df9b23bf3780015abf56f	422995485	1	main_slash	7	main_slash	3	stimuli_target_trianglecircles.svg	stimuli_distractor_diamondtriangles.svg	21	yes	53	1	714
6.6.1	win	2022-11-07	13:48:00	13:52:33	271902	5d3df9b23bf3780015abf56f	422995485	1	main_slash	7	advance_on_keypress_SLASH	4	stimuli_target_trianglecircles.svg	stimuli_distractor_diamondtriangles.svg	21	yes	57	0	656
6.6.1	win	2022-11-07	13:48:00	13:52:35	273790	5d3df9b23bf3780015abf56f	422995485	1	main_slash	7	main_slash	5	stimuli_distractor_diamondtriangles.svg	stimuli_target_trianglecircles.svg	29	yes	53	1	585
6.6.1	win	2022-11-07	13:48:00	13:52:35	273790	5d3df9b23bf3780015abf56f	422995485	1	main_slash	7	advance_on_keypress_SLASH	6	stimuli_distractor_diamondtriangles.svg	stimuli_target_trianglecircles.svg	29	yes	57	0	435
6.6.1	win	2022-11-07	13:48:00	13:52:38	276872	5d3df9b23bf3780015abf56f	422995485	1	main_slash	7	main_slash	7	stimuli_distractor_trianglediamonds.svg	stimuli_target_squarediamonds.svg	12	yes	0	0	2000
6.6.1	win	2022-11-07	13:48:00	13:52:38	276872	5d3df9b23bf3780015abf56f	422995485	1	main_slash	7	advance_on_keypress_SLASH	8	stimuli_distractor_trianglediamonds.svg	stimuli_target_squarediamonds.svg	12	yes	57	0	602
6.6.1	win	2022-11-07	13:48:00	13:52:41	279712	5d3df9b23bf3780015abf56f	422995485	1	main_slash	7	main_slash	9	stimuli_distractor_trianglediamonds.svg	stimuli_target_diamondsquares.svg	28	yes	53	1	1591
6.6.1	win	2022-11-07	13:48:00	13:52:41	279712	5d3df9b23bf3780015abf56f	422995485	1	main_slash	7	advance_on_keypress_SLASH	10	stimuli_distractor_trianglediamonds.svg	stimuli_target_diamondsquares.svg	28	yes	57	0	475
6.6.1	win	2022-11-07	13:48:00	13:52:43	281682	5d3df9b23bf3780015abf56f	422995485	1	main_slash	7	main_slash	11	stimuli_target_squaretriangles.svg	stimuli_distractor_trianglediamonds.svg	3	yes	53	1	844
6.6.1	win	2022-11-07	13:48:00	13:52:43	281682	5d3df9b23bf3780015abf56f	422995485	1	main_slash	7	advance_on_keypress_SLASH	12	stimuli_target_squaretriangles.svg	stimuli_distractor_trianglediamonds.svg	3	yes	57	0	289
6.6.1	win	2022-11-07	13:48:00	13:52:46	284605	5d3df9b23bf3780015abf56f	422995485	1	main_slash	7	main_slash	13	stimuli_distractor_diamondtriangles.svg	stimuli_distractor_trianglediamonds.svg	37	no	0	1	2000
6.6.1	win	2022-11-07	13:48:00	13:52:46	284605	5d3df9b23bf3780015abf56f	422995485	1	main_slash	7	advance_on_keypress_SLASH	14	stimuli_distractor_diamondtriangles.svg	stimuli_distractor_trianglediamonds.svg	37	no	57	0	575
6.6.1	win	2022-11-07	13:48:00	13:52:48	286679	5d3df9b23bf3780015abf56f	422995485	1	main_slash	7	main_slash	15	stimuli_distractor_diamondtriangles.svg	stimuli_target_squarediamonds.svg	16	yes	53	1	859
6.6.1	win	2022-11-07	13:48:00	13:52:48	286679	5d3df9b23bf3780015abf56f	422995485	1	main_slash	7	advance_on_keypress_SLASH	16	stimuli_distractor_diamondtriangles.svg	stimuli_target_squarediamonds.svg	16	yes	57	0	413
6.6.1	win	2022-11-07	13:48:00	13:52:51	289738	5d3df9b23bf3780015abf56f	422995485	1	main_slash	7	main_slash	17	stimuli_target_circletriangles.svg	stimuli_distractor_diamondtriangles.svg	5	yes	0	0	2000
6.6.1	win	2022-11-07	13:48:00	13:52:51	289738	5d3df9b23bf3780015abf56f	422995485	1	main_slash	7	advance_on_keypress_SLASH	18	stimuli_target_circletriangles.svg	stimuli_distractor_diamondtriangles.svg	5	yes	57	0	407
6.6.1	win	2022-11-07	13:48:00	13:52:54	292788	5d3df9b23bf3780015abf56f	422995485	1	main_slash	7	main_slash	19	stimuli_target_squarediamonds.svg	stimuli_distractor_trianglediamonds.svg	4	yes	0	0	2000
6.6.1	win	2022-11-07	13:48:00	13:52:54	292788	5d3df9b23bf3780015abf56f	422995485	1	main_slash	7	advance_on_keypress_SLASH	20	stimuli_target_squarediamonds.svg	stimuli_distractor_trianglediamonds.svg	4	yes	57	0	450
6.6.1	win	2022-11-07	13:48:00	13:52:57	295887	5d3df9b23bf3780015abf56f	422995485	1	main_slash	7	main_slash	21	stimuli_distractor_diamondtriangles.svg	stimuli_target_circlediamonds.svg	14	yes	0	0	2000
6.6.1	win	2022-11-07	13:48:00	13:52:57	295887	5d3df9b23bf3780015abf56f	422995485	1	main_slash	7	advance_on_keypress_SLASH	22	stimuli_distractor_diamondtriangles.svg	stimuli_target_circlediamonds.svg	14	yes	57	0	505
6.6.1	win	2022-11-07	13:48:00	13:52:59	297708	5d3df9b23bf3780015abf56f	422995485	1	main_slash	7	main_slash	23	stimuli_distractor_trianglediamonds.svg	stimuli_target_diamondcircles.svg	27	yes	53	1	670
6.6.1	win	2022-11-07	13:48:00	13:52:59	297708	5d3df9b23bf3780015abf56f	422995485	1	main_slash	7	advance_on_keypress_SLASH	24	stimuli_distractor_trianglediamonds.svg	stimuli_target_diamondcircles.svg	27	yes	57	0	460
6.6.1	win	2022-11-07	13:48:00	13:53:01	299926	5d3df9b23bf3780015abf56f	422995485	1	main_slash	7	main_slash	25	stimuli_target_squaretriangles.svg	stimuli_distractor_diamondtriangles.svg	7	yes	53	1	1122
6.6.1	win	2022-11-07	13:48:00	13:53:01	299926	5d3df9b23bf3780015abf56f	422995485	1	main_slash	7	advance_on_keypress_SLASH	26	stimuli_target_squaretriangles.svg	stimuli_distractor_diamondtriangles.svg	7	yes	57	0	378
6.6.1	win	2022-11-07	13:48:00	13:53:03	301709	5d3df9b23bf3780015abf56f	422995485	1	main_slash	7	main_slash	27	stimuli_target_trianglecircles.svg	stimuli_distractor_trianglediamonds.svg	17	yes	53	1	755
6.6.1	win	2022-11-07	13:48:00	13:53:03	301709	5d3df9b23bf3780015abf56f	422995485	1	main_slash	7	advance_on_keypress_SLASH	28	stimuli_target_trianglecircles.svg	stimuli_distractor_trianglediamonds.svg	17	yes	57	0	302
6.6.1	win	2022-11-07	13:48:00	13:53:05	303524	5d3df9b23bf3780015abf56f	422995485	1	main_slash	7	main_slash	29	stimuli_target_trianglesquares.svg	stimuli_distractor_diamondtriangles.svg	22	yes	53	1	870
6.6.1	win	2022-11-07	13:48:00	13:53:05	303524	5d3df9b23bf3780015abf56f	422995485	1	main_slash	7	advance_on_keypress_SLASH	30	stimuli_target_trianglesquares.svg	stimuli_distractor_diamondtriangles.svg	22	yes	57	0	285
6.6.1	win	2022-11-07	13:48:00	13:53:08	306454	5d3df9b23bf3780015abf56f	422995485	1	main_slash	7	main_slash	31	stimuli_distractor_diamondtriangles.svg	stimuli_distractor_trianglediamonds.svg	38	no	0	1	2000
6.6.1	win	2022-11-07	13:48:00	13:53:08	306454	5d3df9b23bf3780015abf56f	422995485	1	main_slash	7	advance_on_keypress_SLASH	32	stimuli_distractor_diamondtriangles.svg	stimuli_distractor_trianglediamonds.svg	38	no	57	0	1125
6.6.1	win	2022-11-07	13:48:00	13:53:11	310220	5d3df9b23bf3780015abf56f	422995485	1	main_slash	7	main_slash	33	stimuli_distractor_diamondtriangles.svg	stimuli_target_diamondsquares.svg	32	yes	0	0	2000
6.6.1	win	2022-11-07	13:48:00	13:53:11	310220	5d3df9b23bf3780015abf56f	422995485	1	main_slash	7	advance_on_keypress_SLASH	34	stimuli_distractor_diamondtriangles.svg	stimuli_target_diamondsquares.svg	32	yes	57	0	744
6.6.1	win	2022-11-07	13:48:00	13:53:13	312219	5d3df9b23bf3780015abf56f	422995485	1	main_slash	7	main_slash	35	stimuli_target_diamondcircles.svg	stimuli_distractor_trianglediamonds.svg	19	yes	53	1	616
6.6.1	win	2022-11-07	13:48:00	13:53:13	312219	5d3df9b23bf3780015abf56f	422995485	1	main_slash	7	advance_on_keypress_SLASH	36	stimuli_target_diamondcircles.svg	stimuli_distractor_trianglediamonds.svg	19	yes	57	0	1017
6.6.1	win	2022-11-07	13:48:00	13:53:17	315886	5d3df9b23bf3780015abf56f	422995485	1	main_slash	7	main_slash	37	stimuli_distractor_trianglediamonds.svg	stimuli_distractor_trianglediamonds.svg	33	no	0	1	2000
6.6.1	win	2022-11-07	13:48:00	13:53:17	315886	5d3df9b23bf3780015abf56f	422995485	1	main_slash	7	advance_on_keypress_SLASH	38	stimuli_distractor_trianglediamonds.svg	stimuli_distractor_trianglediamonds.svg	33	no	57	0	423
6.6.1	win	2022-11-07	13:48:00	13:53:19	317588	5d3df9b23bf3780015abf56f	422995485	1	main_slash	7	main_slash	39	stimuli_distractor_diamondtriangles.svg	stimuli_target_trianglesquares.svg	30	yes	53	1	635
6.6.1	win	2022-11-07	13:48:00	13:53:19	317588	5d3df9b23bf3780015abf56f	422995485	1	main_slash	7	advance_on_keypress_SLASH	40	stimuli_distractor_diamondtriangles.svg	stimuli_target_trianglesquares.svg	30	yes	57	0	329
6.6.1	win	2022-11-07	13:48:00	13:53:22	320570	5d3df9b23bf3780015abf56f	422995485	1	main_slash	7	main_slash	41	stimuli_distractor_trianglediamonds.svg	stimuli_target_squaretriangles.svg	11	yes	0	0	2000
6.6.1	win	2022-11-07	13:48:00	13:53:22	320570	5d3df9b23bf3780015abf56f	422995485	1	main_slash	7	advance_on_keypress_SLASH	42	stimuli_distractor_trianglediamonds.svg	stimuli_target_squaretriangles.svg	11	yes	57	0	610
6.6.1	win	2022-11-07	13:48:00	13:53:24	322456	5d3df9b23bf3780015abf56f	422995485	1	main_slash	7	main_slash	43	stimuli_distractor_trianglediamonds.svg	stimuli_target_trianglecircles.svg	25	yes	53	1	636
6.6.1	win	2022-11-07	13:48:00	13:53:24	322456	5d3df9b23bf3780015abf56f	422995485	1	main_slash	7	advance_on_keypress_SLASH	44	stimuli_distractor_trianglediamonds.svg	stimuli_target_trianglecircles.svg	25	yes	57	0	395
6.6.1	win	2022-11-07	13:48:00	13:53:27	325503	5d3df9b23bf3780015abf56f	422995485	1	main_slash	7	main_slash	45	stimuli_distractor_trianglediamonds.svg	stimuli_distractor_diamondtriangles.svg	35	no	0	1	2000
6.6.1	win	2022-11-07	13:48:00	13:53:27	325503	5d3df9b23bf3780015abf56f	422995485	1	main_slash	7	advance_on_keypress_SLASH	46	stimuli_distractor_trianglediamonds.svg	stimuli_distractor_diamondtriangles.svg	35	no	57	0	412
6.6.1	win	2022-11-07	13:48:00	13:53:30	328569	5d3df9b23bf3780015abf56f	422995485	1	main_slash	7	main_slash	47	stimuli_distractor_trianglediamonds.svg	stimuli_distractor_trianglediamonds.svg	34	no	0	1	2000
6.6.1	win	2022-11-07	13:48:00	13:53:30	328569	5d3df9b23bf3780015abf56f	422995485	1	main_slash	7	advance_on_keypress_SLASH	48	stimuli_distractor_trianglediamonds.svg	stimuli_distractor_trianglediamonds.svg	34	no	57	0	374
6.6.1	win	2022-11-07	13:48:00	13:53:32	330519	5d3df9b23bf3780015abf56f	422995485	1	main_slash	7	main_slash	49	stimuli_distractor_trianglediamonds.svg	stimuli_target_trianglesquares.svg	26	yes	53	1	933
6.6.1	win	2022-11-07	13:48:00	13:53:32	330519	5d3df9b23bf3780015abf56f	422995485	1	main_slash	7	advance_on_keypress_SLASH	50	stimuli_distractor_trianglediamonds.svg	stimuli_target_trianglesquares.svg	26	yes	57	0	1846
6.6.1	win	2022-11-07	13:48:00	13:53:35	334059	5d3df9b23bf3780015abf56f	422995485	1	main_slash	7	main_slash	51	stimuli_distractor_diamondtriangles.svg	stimuli_target_diamondcircles.svg	31	yes	53	1	1040
6.6.1	win	2022-11-07	13:48:00	13:53:35	334059	5d3df9b23bf3780015abf56f	422995485	1	main_slash	7	advance_on_keypress_SLASH	52	stimuli_distractor_diamondtriangles.svg	stimuli_target_diamondcircles.svg	31	yes	57	0	619
6.6.1	win	2022-11-07	13:48:00	13:53:38	336966	5d3df9b23bf3780015abf56f	422995485	1	main_slash	7	main_slash	53	stimuli_target_trianglesquares.svg	stimuli_distractor_trianglediamonds.svg	18	yes	53	1	1647
6.6.1	win	2022-11-07	13:48:00	13:53:38	336966	5d3df9b23bf3780015abf56f	422995485	1	main_slash	7	advance_on_keypress_SLASH	54	stimuli_target_trianglesquares.svg	stimuli_distractor_trianglediamonds.svg	18	yes	57	0	637
6.6.1	win	2022-11-07	13:48:00	13:53:41	339633	5d3df9b23bf3780015abf56f	422995485	1	main_slash	7	main_slash	55	stimuli_distractor_trianglediamonds.svg	stimuli_target_circlediamonds.svg	10	yes	53	1	1381
6.6.1	win	2022-11-07	13:48:00	13:53:41	339633	5d3df9b23bf3780015abf56f	422995485	1	main_slash	7	advance_on_keypress_SLASH	56	stimuli_distractor_trianglediamonds.svg	stimuli_target_circlediamonds.svg	10	yes	57	0	442
6.6.1	win	2022-11-07	13:48:00	13:53:44	342718	5d3df9b23bf3780015abf56f	422995485	1	main_slash	7	main_slash	57	stimuli_distractor_diamondtriangles.svg	stimuli_distractor_diamondtriangles.svg	40	no	0	1	2000
6.6.1	win	2022-11-07	13:48:00	13:53:44	342718	5d3df9b23bf3780015abf56f	422995485	1	main_slash	7	advance_on_keypress_SLASH	58	stimuli_distractor_diamondtriangles.svg	stimuli_distractor_diamondtriangles.svg	40	no	57	0	651
6.6.1	win	2022-11-07	13:48:00	13:53:46	344776	5d3df9b23bf3780015abf56f	422995485	1	main_slash	7	main_slash	59	stimuli_target_circlediamonds.svg	stimuli_distractor_trianglediamonds.svg	2	yes	53	1	759
6.6.1	win	2022-11-07	13:48:00	13:53:46	344776	5d3df9b23bf3780015abf56f	422995485	1	main_slash	7	advance_on_keypress_SLASH	60	stimuli_target_circlediamonds.svg	stimuli_distractor_trianglediamonds.svg	2	yes	57	0	656
6.6.1	win	2022-11-07	13:48:00	13:53:48	346899	5d3df9b23bf3780015abf56f	422995485	1	main_slash	7	main_slash	61	stimuli_target_circletriangles.svg	stimuli_distractor_trianglediamonds.svg	1	yes	53	1	831
6.6.1	win	2022-11-07	13:48:00	13:53:48	346899	5d3df9b23bf3780015abf56f	422995485	1	main_slash	7	advance_on_keypress_SLASH	62	stimuli_target_circletriangles.svg	stimuli_distractor_trianglediamonds.svg	1	yes	57	0	400
6.6.1	win	2022-11-07	13:48:00	13:53:50	348636	5d3df9b23bf3780015abf56f	422995485	1	main_slash	7	main_slash	63	stimuli_distractor_diamondtriangles.svg	stimuli_target_squaretriangles.svg	15	yes	53	1	684
6.6.1	win	2022-11-07	13:48:00	13:53:50	348636	5d3df9b23bf3780015abf56f	422995485	1	main_slash	7	advance_on_keypress_SLASH	64	stimuli_distractor_diamondtriangles.svg	stimuli_target_squaretriangles.svg	15	yes	57	0	418
6.6.1	win	2022-11-07	13:48:00	13:53:52	350461	5d3df9b23bf3780015abf56f	422995485	1	main_slash	7	main_slash	65	stimuli_distractor_trianglediamonds.svg	stimuli_target_circletriangles.svg	9	yes	53	1	759
6.6.1	win	2022-11-07	13:48:00	13:53:52	350461	5d3df9b23bf3780015abf56f	422995485	1	main_slash	7	advance_on_keypress_SLASH	66	stimuli_distractor_trianglediamonds.svg	stimuli_target_circletriangles.svg	9	yes	57	0	378
6.6.1	win	2022-11-07	13:48:00	13:53:55	353485	5d3df9b23bf3780015abf56f	422995485	1	main_slash	7	main_slash	67	stimuli_target_diamondsquares.svg	stimuli_distractor_diamondtriangles.svg	24	yes	0	0	2000
6.6.1	win	2022-11-07	13:48:00	13:53:55	353485	5d3df9b23bf3780015abf56f	422995485	1	main_slash	7	advance_on_keypress_SLASH	68	stimuli_target_diamondsquares.svg	stimuli_distractor_diamondtriangles.svg	24	yes	57	0	457
6.6.1	win	2022-11-07	13:48:00	13:53:58	356585	5d3df9b23bf3780015abf56f	422995485	1	main_slash	7	main_slash	69	stimuli_target_diamondsquares.svg	stimuli_distractor_trianglediamonds.svg	20	yes	0	0	2000
6.6.1	win	2022-11-07	13:48:00	13:53:58	356585	5d3df9b23bf3780015abf56f	422995485	1	main_slash	7	advance_on_keypress_SLASH	70	stimuli_target_diamondsquares.svg	stimuli_distractor_trianglediamonds.svg	20	yes	57	0	610
6.6.1	win	2022-11-07	13:48:00	13:54:00	358618	5d3df9b23bf3780015abf56f	422995485	1	main_slash	7	main_slash	71	stimuli_target_diamondcircles.svg	stimuli_distractor_diamondtriangles.svg	23	yes	53	1	782
6.6.1	win	2022-11-07	13:48:00	13:54:00	358618	5d3df9b23bf3780015abf56f	422995485	1	main_slash	7	advance_on_keypress_SLASH	72	stimuli_target_diamondcircles.svg	stimuli_distractor_diamondtriangles.svg	23	yes	57	0	430
6.6.1	win	2022-11-07	13:48:00	13:54:03	361701	5d3df9b23bf3780015abf56f	422995485	1	main_slash	7	main_slash	73	stimuli_distractor_trianglediamonds.svg	stimuli_distractor_diamondtriangles.svg	36	no	0	1	2000
6.6.1	win	2022-11-07	13:48:00	13:54:03	361701	5d3df9b23bf3780015abf56f	422995485	1	main_slash	7	advance_on_keypress_SLASH	74	stimuli_distractor_trianglediamonds.svg	stimuli_distractor_diamondtriangles.svg	36	no	57	0	389
6.6.1	win	2022-11-07	13:48:00	13:54:05	363632	5d3df9b23bf3780015abf56f	422995485	1	main_slash	7	main_slash	75	stimuli_target_circlediamonds.svg	stimuli_distractor_diamondtriangles.svg	6	yes	53	1	897
6.6.1	win	2022-11-07	13:48:00	13:54:05	363632	5d3df9b23bf3780015abf56f	422995485	1	main_slash	7	advance_on_keypress_SLASH	76	stimuli_target_circlediamonds.svg	stimuli_distractor_diamondtriangles.svg	6	yes	57	0	458
6.6.1	win	2022-11-07	13:48:00	13:54:07	365462	5d3df9b23bf3780015abf56f	422995485	1	main_slash	7	main_slash	77	stimuli_distractor_diamondtriangles.svg	stimuli_target_circletriangles.svg	13	yes	53	1	729
6.6.1	win	2022-11-07	13:48:00	13:54:07	365462	5d3df9b23bf3780015abf56f	422995485	1	main_slash	7	advance_on_keypress_SLASH	78	stimuli_distractor_diamondtriangles.svg	stimuli_target_circletriangles.svg	13	yes	57	0	348
6.6.1	win	2022-11-07	13:48:00	13:54:10	368467	5d3df9b23bf3780015abf56f	422995485	1	main_slash	7	main_slash	79	stimuli_distractor_diamondtriangles.svg	stimuli_distractor_diamondtriangles.svg	39	no	0	1	2000
6.6.1	win	2022-11-07	13:48:00	13:54:10	368467	5d3df9b23bf3780015abf56f	422995485	1	main_slash	7	advance_on_keypress_SLASH	80	stimuli_distractor_diamondtriangles.svg	stimuli_distractor_diamondtriangles.svg	39	no	57	0	387
6.6.1	win	2022-11-07	13:48:00	13:54:12	370422	5d3df9b23bf3780015abf56f	422995485	1	main_slash	7	main_slash	81	stimuli_target_squarediamonds.svg	stimuli_distractor_trianglediamonds.svg	4	yes	53	1	922
6.6.1	win	2022-11-07	13:48:00	13:54:12	370422	5d3df9b23bf3780015abf56f	422995485	1	main_slash	7	advance_on_keypress_SLASH	82	stimuli_target_squarediamonds.svg	stimuli_distractor_trianglediamonds.svg	4	yes	57	0	490
6.6.1	win	2022-11-07	13:48:00	13:54:14	372386	5d3df9b23bf3780015abf56f	422995485	1	main_slash	7	main_slash	83	stimuli_distractor_trianglediamonds.svg	stimuli_target_squarediamonds.svg	12	yes	53	1	837
6.6.1	win	2022-11-07	13:48:00	13:54:14	372386	5d3df9b23bf3780015abf56f	422995485	1	main_slash	7	advance_on_keypress_SLASH	84	stimuli_distractor_trianglediamonds.svg	stimuli_target_squarediamonds.svg	12	yes	57	0	438
6.6.1	win	2022-11-07	13:48:00	13:54:16	374425	5d3df9b23bf3780015abf56f	422995485	1	main_slash	7	main_slash	85	stimuli_target_trianglecircles.svg	stimuli_distractor_diamondtriangles.svg	21	yes	53	1	958
6.6.1	win	2022-11-07	13:48:00	13:54:16	374425	5d3df9b23bf3780015abf56f	422995485	1	main_slash	7	advance_on_keypress_SLASH	86	stimuli_target_trianglecircles.svg	stimuli_distractor_diamondtriangles.svg	21	yes	57	0	771
6.6.1	win	2022-11-07	13:48:00	13:54:18	376819	5d3df9b23bf3780015abf56f	422995485	1	main_slash	7	main_slash	87	stimuli_target_circletriangles.svg	stimuli_distractor_diamondtriangles.svg	5	yes	53	1	985
6.6.1	win	2022-11-07	13:48:00	13:54:18	376819	5d3df9b23bf3780015abf56f	422995485	1	main_slash	7	advance_on_keypress_SLASH	88	stimuli_target_circletriangles.svg	stimuli_distractor_diamondtriangles.svg	5	yes	57	0	354
6.6.1	win	2022-11-07	13:48:00	13:54:20	378826	5d3df9b23bf3780015abf56f	422995485	1	main_slash	7	main_slash	89	stimuli_target_squarediamonds.svg	stimuli_distractor_diamondtriangles.svg	8	yes	53	1	1010
6.6.1	win	2022-11-07	13:48:00	13:54:20	378826	5d3df9b23bf3780015abf56f	422995485	1	main_slash	7	advance_on_keypress_SLASH	90	stimuli_target_squarediamonds.svg	stimuli_distractor_diamondtriangles.svg	8	yes	57	0	380
6.6.1	win	2022-11-07	13:48:00	13:54:22	380830	5d3df9b23bf3780015abf56f	422995485	1	main_slash	7	main_slash	91	stimuli_distractor_diamondtriangles.svg	stimuli_target_circlediamonds.svg	14	yes	53	1	980
6.6.1	win	2022-11-07	13:48:00	13:54:22	380830	5d3df9b23bf3780015abf56f	422995485	1	main_slash	7	advance_on_keypress_SLASH	92	stimuli_distractor_diamondtriangles.svg	stimuli_target_circlediamonds.svg	14	yes	57	0	354
6.6.1	win	2022-11-07	13:48:00	13:54:25	383833	5d3df9b23bf3780015abf56f	422995485	1	main_slash	7	main_slash	93	stimuli_target_diamondsquares.svg	stimuli_distractor_trianglediamonds.svg	20	yes	0	0	2000
6.6.1	win	2022-11-07	13:48:00	13:54:25	383833	5d3df9b23bf3780015abf56f	422995485	1	main_slash	7	advance_on_keypress_SLASH	94	stimuli_target_diamondsquares.svg	stimuli_distractor_trianglediamonds.svg	20	yes	57	0	345
6.6.1	win	2022-11-07	13:48:00	13:54:27	385734	5d3df9b23bf3780015abf56f	422995485	1	main_slash	7	main_slash	95	stimuli_distractor_trianglediamonds.svg	stimuli_target_circlediamonds.svg	10	yes	53	1	902
6.6.1	win	2022-11-07	13:48:00	13:54:27	385734	5d3df9b23bf3780015abf56f	422995485	1	main_slash	7	advance_on_keypress_SLASH	96	stimuli_distractor_trianglediamonds.svg	stimuli_target_circlediamonds.svg	10	yes	57	0	318
6.6.1	win	2022-11-07	13:48:00	13:54:30	388700	5d3df9b23bf3780015abf56f	422995485	1	main_slash	7	main_slash	97	stimuli_distractor_trianglediamonds.svg	stimuli_target_diamondcircles.svg	27	yes	0	0	2000
6.6.1	win	2022-11-07	13:48:00	13:54:30	388700	5d3df9b23bf3780015abf56f	422995485	1	main_slash	7	advance_on_keypress_SLASH	98	stimuli_distractor_trianglediamonds.svg	stimuli_target_diamondcircles.svg	27	yes	57	0	364
6.6.1	win	2022-11-07	13:48:00	13:54:32	390459	5d3df9b23bf3780015abf56f	422995485	1	main_slash	7	main_slash	99	stimuli_target_squaretriangles.svg	stimuli_distractor_trianglediamonds.svg	3	yes	53	1	743
6.6.1	win	2022-11-07	13:48:00	13:54:32	390459	5d3df9b23bf3780015abf56f	422995485	1	main_slash	7	advance_on_keypress_SLASH	100	stimuli_target_squaretriangles.svg	stimuli_distractor_trianglediamonds.svg	3	yes	57	0	335
6.6.1	win	2022-11-07	13:48:00	13:54:33	392178	5d3df9b23bf3780015abf56f	422995485	1	main_slash	7	main_slash	101	stimuli_distractor_diamondtriangles.svg	stimuli_target_diamondcircles.svg	31	yes	53	1	745
6.6.1	win	2022-11-07	13:48:00	13:54:33	392178	5d3df9b23bf3780015abf56f	422995485	1	main_slash	7	advance_on_keypress_SLASH	102	stimuli_distractor_diamondtriangles.svg	stimuli_target_diamondcircles.svg	31	yes	57	0	345
6.6.1	win	2022-11-07	13:48:00	13:54:36	395182	5d3df9b23bf3780015abf56f	422995485	1	main_slash	7	main_slash	103	stimuli_distractor_trianglediamonds.svg	stimuli_distractor_diamondtriangles.svg	36	no	0	1	2000
6.6.1	win	2022-11-07	13:48:00	13:54:36	395182	5d3df9b23bf3780015abf56f	422995485	1	main_slash	7	advance_on_keypress_SLASH	104	stimuli_distractor_trianglediamonds.svg	stimuli_distractor_diamondtriangles.svg	36	no	57	0	520
6.6.1	win	2022-11-07	13:48:00	13:54:40	398349	5d3df9b23bf3780015abf56f	422995485	1	main_slash	7	main_slash	105	stimuli_distractor_diamondtriangles.svg	stimuli_target_trianglecircles.svg	29	yes	0	0	2000
6.6.1	win	2022-11-07	13:48:00	13:54:40	398349	5d3df9b23bf3780015abf56f	422995485	1	main_slash	7	advance_on_keypress_SLASH	106	stimuli_distractor_diamondtriangles.svg	stimuli_target_trianglecircles.svg	29	yes	57	0	299
6.6.1	win	2022-11-07	13:48:00	13:54:41	400005	5d3df9b23bf3780015abf56f	422995485	1	main_slash	7	main_slash	107	stimuli_target_circlediamonds.svg	stimuli_distractor_trianglediamonds.svg	2	yes	53	1	706
6.6.1	win	2022-11-07	13:48:00	13:54:41	400005	5d3df9b23bf3780015abf56f	422995485	1	main_slash	7	advance_on_keypress_SLASH	108	stimuli_target_circlediamonds.svg	stimuli_distractor_trianglediamonds.svg	2	yes	57	0	257
6.6.1	win	2022-11-07	13:48:00	13:54:43	401620	5d3df9b23bf3780015abf56f	422995485	1	main_slash	7	main_slash	109	stimuli_distractor_trianglediamonds.svg	stimuli_target_circletriangles.svg	9	yes	53	1	721
6.6.1	win	2022-11-07	13:48:00	13:54:43	401620	5d3df9b23bf3780015abf56f	422995485	1	main_slash	7	advance_on_keypress_SLASH	110	stimuli_distractor_trianglediamonds.svg	stimuli_target_circletriangles.svg	9	yes	57	0	280
6.6.1	win	2022-11-07	13:48:00	13:54:46	404549	5d3df9b23bf3780015abf56f	422995485	1	main_slash	7	main_slash	111	stimuli_target_trianglesquares.svg	stimuli_distractor_trianglediamonds.svg	18	yes	0	0	2000
6.6.1	win	2022-11-07	13:48:00	13:54:46	404549	5d3df9b23bf3780015abf56f	422995485	1	main_slash	7	advance_on_keypress_SLASH	112	stimuli_target_trianglesquares.svg	stimuli_distractor_trianglediamonds.svg	18	yes	57	0	432
6.6.1	win	2022-11-07	13:48:00	13:54:48	406385	5d3df9b23bf3780015abf56f	422995485	1	main_slash	7	main_slash	113	stimuli_distractor_diamondtriangles.svg	stimuli_target_squaretriangles.svg	15	yes	53	1	754
6.6.1	win	2022-11-07	13:48:00	13:54:48	406385	5d3df9b23bf3780015abf56f	422995485	1	main_slash	7	advance_on_keypress_SLASH	114	stimuli_distractor_diamondtriangles.svg	stimuli_target_squaretriangles.svg	15	yes	57	0	295
6.6.1	win	2022-11-07	13:48:00	13:54:49	408067	5d3df9b23bf3780015abf56f	422995485	1	main_slash	7	main_slash	115	stimuli_target_squaretriangles.svg	stimuli_distractor_diamondtriangles.svg	7	yes	53	1	736
6.6.1	win	2022-11-07	13:48:00	13:54:49	408067	5d3df9b23bf3780015abf56f	422995485	1	main_slash	7	advance_on_keypress_SLASH	116	stimuli_target_squaretriangles.svg	stimuli_distractor_diamondtriangles.svg	7	yes	57	0	250
6.6.1	win	2022-11-07	13:48:00	13:54:52	410966	5d3df9b23bf3780015abf56f	422995485	1	main_slash	7	main_slash	117	stimuli_distractor_diamondtriangles.svg	stimuli_distractor_diamondtriangles.svg	39	no	0	1	2000
6.6.1	win	2022-11-07	13:48:00	13:54:52	410966	5d3df9b23bf3780015abf56f	422995485	1	main_slash	7	advance_on_keypress_SLASH	118	stimuli_distractor_diamondtriangles.svg	stimuli_distractor_diamondtriangles.svg	39	no	57	0	413
6.6.1	win	2022-11-07	13:48:00	13:54:55	414032	5d3df9b23bf3780015abf56f	422995485	1	main_slash	7	main_slash	119	stimuli_distractor_trianglediamonds.svg	stimuli_distractor_trianglediamonds.svg	34	no	0	1	2000
6.6.1	win	2022-11-07	13:48:00	13:54:55	414032	5d3df9b23bf3780015abf56f	422995485	1	main_slash	7	advance_on_keypress_SLASH	120	stimuli_distractor_trianglediamonds.svg	stimuli_distractor_trianglediamonds.svg	34	no	57	0	326
6.6.1	win	2022-11-07	13:48:00	13:54:57	415918	5d3df9b23bf3780015abf56f	422995485	1	main_slash	7	main_slash	121	stimuli_distractor_diamondtriangles.svg	stimuli_target_squarediamonds.svg	16	yes	53	1	921
6.6.1	win	2022-11-07	13:48:00	13:54:57	415918	5d3df9b23bf3780015abf56f	422995485	1	main_slash	7	advance_on_keypress_SLASH	122	stimuli_distractor_diamondtriangles.svg	stimuli_target_squarediamonds.svg	16	yes	57	0	275
6.6.1	win	2022-11-07	13:48:00	13:55:00	418832	5d3df9b23bf3780015abf56f	422995485	1	main_slash	7	main_slash	123	stimuli_distractor_diamondtriangles.svg	stimuli_target_trianglesquares.svg	30	yes	0	0	2000
6.6.1	win	2022-11-07	13:48:00	13:55:00	418832	5d3df9b23bf3780015abf56f	422995485	1	main_slash	7	advance_on_keypress_SLASH	124	stimuli_distractor_diamondtriangles.svg	stimuli_target_trianglesquares.svg	30	yes	57	0	505
6.6.1	win	2022-11-07	13:48:00	13:55:03	421982	5d3df9b23bf3780015abf56f	422995485	1	main_slash	7	main_slash	125	stimuli_distractor_trianglediamonds.svg	stimuli_distractor_diamondtriangles.svg	35	no	0	1	2000
6.6.1	win	2022-11-07	13:48:00	13:55:03	421982	5d3df9b23bf3780015abf56f	422995485	1	main_slash	7	advance_on_keypress_SLASH	126	stimuli_distractor_trianglediamonds.svg	stimuli_distractor_diamondtriangles.svg	35	no	57	0	315
6.6.1	win	2022-11-07	13:48:00	13:55:05	423732	5d3df9b23bf3780015abf56f	422995485	1	main_slash	7	main_slash	127	stimuli_target_trianglecircles.svg	stimuli_distractor_trianglediamonds.svg	17	yes	53	1	784
6.6.1	win	2022-11-07	13:48:00	13:55:05	423732	5d3df9b23bf3780015abf56f	422995485	1	main_slash	7	advance_on_keypress_SLASH	128	stimuli_target_trianglecircles.svg	stimuli_distractor_trianglediamonds.svg	17	yes	57	0	356
6.6.1	win	2022-11-07	13:48:00	13:55:08	426731	5d3df9b23bf3780015abf56f	422995485	1	main_slash	7	main_slash	129	stimuli_distractor_diamondtriangles.svg	stimuli_distractor_trianglediamonds.svg	38	no	0	1	2000
6.6.1	win	2022-11-07	13:48:00	13:55:08	426731	5d3df9b23bf3780015abf56f	422995485	1	main_slash	7	advance_on_keypress_SLASH	130	stimuli_distractor_diamondtriangles.svg	stimuli_distractor_trianglediamonds.svg	38	no	57	0	832
6.6.1	win	2022-11-07	13:48:00	13:55:10	428971	5d3df9b23bf3780015abf56f	422995485	1	main_slash	7	main_slash	131	stimuli_target_diamondcircles.svg	stimuli_distractor_diamondtriangles.svg	23	yes	53	1	756
6.6.1	win	2022-11-07	13:48:00	13:55:10	428971	5d3df9b23bf3780015abf56f	422995485	1	main_slash	7	advance_on_keypress_SLASH	132	stimuli_target_diamondcircles.svg	stimuli_distractor_diamondtriangles.svg	23	yes	57	0	295
6.6.1	win	2022-11-07	13:48:00	13:55:12	430737	5d3df9b23bf3780015abf56f	422995485	1	main_slash	7	main_slash	133	stimuli_distractor_diamondtriangles.svg	stimuli_target_circletriangles.svg	13	yes	53	1	824
6.6.1	win	2022-11-07	13:48:00	13:55:12	430737	5d3df9b23bf3780015abf56f	422995485	1	main_slash	7	advance_on_keypress_SLASH	134	stimuli_distractor_diamondtriangles.svg	stimuli_target_circletriangles.svg	13	yes	57	0	268
6.6.1	win	2022-11-07	13:48:00	13:55:14	432478	5d3df9b23bf3780015abf56f	422995485	1	main_slash	7	main_slash	135	stimuli_distractor_trianglediamonds.svg	stimuli_target_squaretriangles.svg	11	yes	53	1	831
6.6.1	win	2022-11-07	13:48:00	13:55:14	432478	5d3df9b23bf3780015abf56f	422995485	1	main_slash	7	advance_on_keypress_SLASH	136	stimuli_distractor_trianglediamonds.svg	stimuli_target_squaretriangles.svg	11	yes	57	0	277
6.6.1	win	2022-11-07	13:48:00	13:55:16	434319	5d3df9b23bf3780015abf56f	422995485	1	main_slash	7	main_slash	137	stimuli_distractor_diamondtriangles.svg	stimuli_target_diamondsquares.svg	32	yes	53	1	921
6.6.1	win	2022-11-07	13:48:00	13:55:16	434319	5d3df9b23bf3780015abf56f	422995485	1	main_slash	7	advance_on_keypress_SLASH	138	stimuli_distractor_diamondtriangles.svg	stimuli_target_diamondsquares.svg	32	yes	57	0	736
6.6.1	win	2022-11-07	13:48:00	13:55:18	436490	5d3df9b23bf3780015abf56f	422995485	1	main_slash	7	main_slash	139	stimuli_distractor_trianglediamonds.svg	stimuli_target_trianglecircles.svg	25	yes	53	1	794
6.6.1	win	2022-11-07	13:48:00	13:55:18	436490	5d3df9b23bf3780015abf56f	422995485	1	main_slash	7	advance_on_keypress_SLASH	140	stimuli_distractor_trianglediamonds.svg	stimuli_target_trianglecircles.svg	25	yes	57	0	312
6.6.1	win	2022-11-07	13:48:00	13:55:20	438360	5d3df9b23bf3780015abf56f	422995485	1	main_slash	7	main_slash	141	stimuli_distractor_trianglediamonds.svg	stimuli_target_trianglesquares.svg	26	yes	53	1	913
6.6.1	win	2022-11-07	13:48:00	13:55:20	438360	5d3df9b23bf3780015abf56f	422995485	1	main_slash	7	advance_on_keypress_SLASH	142	stimuli_distractor_trianglediamonds.svg	stimuli_target_trianglesquares.svg	26	yes	57	0	278
6.6.1	win	2022-11-07	13:48:00	13:55:23	441297	5d3df9b23bf3780015abf56f	422995485	1	main_slash	7	main_slash	143	stimuli_distractor_diamondtriangles.svg	stimuli_distractor_trianglediamonds.svg	37	no	0	1	2000
6.6.1	win	2022-11-07	13:48:00	13:55:23	441297	5d3df9b23bf3780015abf56f	422995485	1	main_slash	7	advance_on_keypress_SLASH	144	stimuli_distractor_diamondtriangles.svg	stimuli_distractor_trianglediamonds.svg	37	no	57	0	546
6.6.1	win	2022-11-07	13:48:00	13:55:25	443296	5d3df9b23bf3780015abf56f	422995485	1	main_slash	7	main_slash	145	stimuli_target_diamondcircles.svg	stimuli_distractor_trianglediamonds.svg	19	yes	53	1	800
6.6.1	win	2022-11-07	13:48:00	13:55:25	443296	5d3df9b23bf3780015abf56f	422995485	1	main_slash	7	advance_on_keypress_SLASH	146	stimuli_target_diamondcircles.svg	stimuli_distractor_trianglediamonds.svg	19	yes	57	0	321
6.6.1	win	2022-11-07	13:48:00	13:55:26	445130	5d3df9b23bf3780015abf56f	422995485	1	main_slash	7	main_slash	147	stimuli_target_circletriangles.svg	stimuli_distractor_trianglediamonds.svg	1	yes	53	1	867
6.6.1	win	2022-11-07	13:48:00	13:55:26	445130	5d3df9b23bf3780015abf56f	422995485	1	main_slash	7	advance_on_keypress_SLASH	148	stimuli_target_circletriangles.svg	stimuli_distractor_trianglediamonds.svg	1	yes	57	0	315
6.6.1	win	2022-11-07	13:48:00	13:55:28	447070	5d3df9b23bf3780015abf56f	422995485	1	main_slash	7	main_slash	149	stimuli_target_circlediamonds.svg	stimuli_distractor_diamondtriangles.svg	6	yes	53	1	973
6.6.1	win	2022-11-07	13:48:00	13:55:28	447070	5d3df9b23bf3780015abf56f	422995485	1	main_slash	7	advance_on_keypress_SLASH	150	stimuli_target_circlediamonds.svg	stimuli_distractor_diamondtriangles.svg	6	yes	57	0	264
6.6.1	win	2022-11-07	13:48:00	13:55:30	448817	5d3df9b23bf3780015abf56f	422995485	1	main_slash	7	main_slash	151	stimuli_target_diamondsquares.svg	stimuli_distractor_diamondtriangles.svg	24	yes	53	1	837
6.6.1	win	2022-11-07	13:48:00	13:55:30	448817	5d3df9b23bf3780015abf56f	422995485	1	main_slash	7	advance_on_keypress_SLASH	152	stimuli_target_diamondsquares.svg	stimuli_distractor_diamondtriangles.svg	24	yes	57	0	288
6.6.1	win	2022-11-07	13:48:00	13:55:33	451746	5d3df9b23bf3780015abf56f	422995485	1	main_slash	7	main_slash	153	stimuli_distractor_trianglediamonds.svg	stimuli_distractor_trianglediamonds.svg	33	no	0	1	2000
6.6.1	win	2022-11-07	13:48:00	13:55:33	451746	5d3df9b23bf3780015abf56f	422995485	1	main_slash	7	advance_on_keypress_SLASH	154	stimuli_distractor_trianglediamonds.svg	stimuli_distractor_trianglediamonds.svg	33	no	57	0	580
6.6.1	win	2022-11-07	13:48:00	13:55:35	453833	5d3df9b23bf3780015abf56f	422995485	1	main_slash	7	main_slash	155	stimuli_target_trianglesquares.svg	stimuli_distractor_diamondtriangles.svg	22	yes	53	1	853
6.6.1	win	2022-11-07	13:48:00	13:55:35	453833	5d3df9b23bf3780015abf56f	422995485	1	main_slash	7	advance_on_keypress_SLASH	156	stimuli_target_trianglesquares.svg	stimuli_distractor_diamondtriangles.svg	22	yes	57	0	305
6.6.1	win	2022-11-07	13:48:00	13:55:38	456780	5d3df9b23bf3780015abf56f	422995485	1	main_slash	7	main_slash	157	stimuli_distractor_trianglediamonds.svg	stimuli_target_diamondsquares.svg	28	yes	0	0	2000
6.6.1	win	2022-11-07	13:48:00	13:55:38	456780	5d3df9b23bf3780015abf56f	422995485	1	main_slash	7	advance_on_keypress_SLASH	158	stimuli_distractor_trianglediamonds.svg	stimuli_target_diamondsquares.svg	28	yes	57	0	568
6.6.1	win	2022-11-07	13:48:00	13:55:41	459996	5d3df9b23bf3780015abf56f	422995485	1	main_slash	7	main_slash	159	stimuli_distractor_diamondtriangles.svg	stimuli_distractor_diamondtriangles.svg	40	no	0	1	2000
6.6.1	win	2022-11-07	13:48:00	13:55:41	459996	5d3df9b23bf3780015abf56f	422995485	1	main_slash	7	advance_on_keypress_SLASH	160	stimuli_distractor_diamondtriangles.svg	stimuli_distractor_diamondtriangles.svg	40	no	57	0	240
6.6.1	win	2022-11-07	13:48:00	13:56:05	483832	5d3df9b23bf3780015abf56f	422995485	1	practice_z	9	practice_z	1	stimuli_distractor_trianglediamonds.svg	stimuli_distractor_diamondtriangles.svg	16	no	0	1	2000
6.6.1	win	2022-11-07	13:48:00	13:56:05	483832	5d3df9b23bf3780015abf56f	422995485	1	practice_z	9	advance_on_keypress_ZEE	2	stimuli_distractor_trianglediamonds.svg	stimuli_distractor_diamondtriangles.svg	16	no	57	0	561
6.6.1	win	2022-11-07	13:48:00	13:56:08	486875	5d3df9b23bf3780015abf56f	422995485	1	practice_z	9	practice_z	3	stimuli_distractor_trianglediamonds.svg	stimuli_target_squarediamonds.svg	11	yes	44	1	828
6.6.1	win	2022-11-07	13:48:00	13:56:08	486875	5d3df9b23bf3780015abf56f	422995485	1	practice_z	9	advance_on_keypress_ZEE	4	stimuli_distractor_trianglediamonds.svg	stimuli_target_squarediamonds.svg	11	yes	57	0	365
6.6.1	win	2022-11-07	13:48:00	13:56:11	489531	5d3df9b23bf3780015abf56f	422995485	1	practice_z	9	practice_z	5	stimuli_distractor_diamondtriangles.svg	stimuli_target_circletriangles.svg	7	yes	44	1	634
6.6.1	win	2022-11-07	13:48:00	13:56:11	489531	5d3df9b23bf3780015abf56f	422995485	1	practice_z	9	advance_on_keypress_ZEE	6	stimuli_distractor_diamondtriangles.svg	stimuli_target_circletriangles.svg	7	yes	57	0	360
6.6.1	win	2022-11-07	13:48:00	13:56:14	492334	5d3df9b23bf3780015abf56f	422995485	1	practice_z	9	practice_z	7	stimuli_distractor_diamondtriangles.svg	stimuli_target_diamondcircles.svg	8	yes	44	1	803
6.6.1	win	2022-11-07	13:48:00	13:56:14	492334	5d3df9b23bf3780015abf56f	422995485	1	practice_z	9	advance_on_keypress_ZEE	8	stimuli_distractor_diamondtriangles.svg	stimuli_target_diamondcircles.svg	8	yes	57	0	310
6.6.1	win	2022-11-07	13:48:00	13:56:18	496281	5d3df9b23bf3780015abf56f	422995485	1	practice_z	9	practice_z	9	stimuli_distractor_diamondtriangles.svg	stimuli_distractor_trianglediamonds.svg	14	no	0	1	2000
6.6.1	win	2022-11-07	13:48:00	13:56:18	496281	5d3df9b23bf3780015abf56f	422995485	1	practice_z	9	advance_on_keypress_ZEE	10	stimuli_distractor_diamondtriangles.svg	stimuli_distractor_trianglediamonds.svg	14	no	57	0	470
6.6.1	win	2022-11-07	13:48:00	13:56:22	500397	5d3df9b23bf3780015abf56f	422995485	1	practice_z	9	practice_z	11	stimuli_target_diamondsquares.svg	stimuli_distractor_trianglediamonds.svg	6	yes	0	0	2000
6.6.1	win	2022-11-07	13:48:00	13:56:22	500397	5d3df9b23bf3780015abf56f	422995485	1	practice_z	9	advance_on_keypress_ZEE	12	stimuli_target_diamondsquares.svg	stimuli_distractor_trianglediamonds.svg	6	yes	57	0	551
6.6.1	win	2022-11-07	13:48:00	13:56:26	504597	5d3df9b23bf3780015abf56f	422995485	1	practice_z	9	practice_z	13	stimuli_distractor_trianglediamonds.svg	stimuli_distractor_trianglediamonds.svg	15	no	0	1	2000
6.6.1	win	2022-11-07	13:48:00	13:56:26	504597	5d3df9b23bf3780015abf56f	422995485	1	practice_z	9	advance_on_keypress_ZEE	14	stimuli_distractor_trianglediamonds.svg	stimuli_distractor_trianglediamonds.svg	15	no	57	0	338
6.6.1	win	2022-11-07	13:48:00	13:56:30	508581	5d3df9b23bf3780015abf56f	422995485	1	practice_z	9	practice_z	15	stimuli_distractor_diamondtriangles.svg	stimuli_distractor_diamondtriangles.svg	13	no	0	1	2000
6.6.1	win	2022-11-07	13:48:00	13:56:30	508581	5d3df9b23bf3780015abf56f	422995485	1	practice_z	9	advance_on_keypress_ZEE	16	stimuli_distractor_diamondtriangles.svg	stimuli_distractor_diamondtriangles.svg	13	no	57	0	348
6.6.1	win	2022-11-07	13:48:00	13:56:33	511398	5d3df9b23bf3780015abf56f	422995485	1	practice_z	9	practice_z	17	stimuli_target_diamondsquares.svg	stimuli_distractor_diamondtriangles.svg	3	yes	44	1	818
6.6.1	win	2022-11-07	13:48:00	13:56:33	511398	5d3df9b23bf3780015abf56f	422995485	1	practice_z	9	advance_on_keypress_ZEE	18	stimuli_target_diamondsquares.svg	stimuli_distractor_diamondtriangles.svg	3	yes	57	0	289
6.6.1	win	2022-11-07	13:48:00	13:56:35	514169	5d3df9b23bf3780015abf56f	422995485	1	practice_z	9	practice_z	19	stimuli_distractor_trianglediamonds.svg	stimuli_target_circlediamonds.svg	10	yes	44	1	839
6.6.1	win	2022-11-07	13:48:00	13:56:35	514169	5d3df9b23bf3780015abf56f	422995485	1	practice_z	9	advance_on_keypress_ZEE	20	stimuli_distractor_trianglediamonds.svg	stimuli_target_circlediamonds.svg	10	yes	57	0	438
6.6.1	win	2022-11-07	13:48:00	13:56:38	516837	5d3df9b23bf3780015abf56f	422995485	1	practice_z	9	practice_z	21	stimuli_target_circlediamonds.svg	stimuli_distractor_diamondtriangles.svg	1	yes	44	1	591
6.6.1	win	2022-11-07	13:48:00	13:56:38	516837	5d3df9b23bf3780015abf56f	422995485	1	practice_z	9	advance_on_keypress_ZEE	22	stimuli_target_circlediamonds.svg	stimuli_distractor_diamondtriangles.svg	1	yes	57	0	293
6.6.1	win	2022-11-07	13:48:00	13:56:41	519815	5d3df9b23bf3780015abf56f	422995485	1	practice_z	9	practice_z	23	stimuli_target_squarediamonds.svg	stimuli_distractor_diamondtriangles.svg	2	yes	44	1	1052
6.6.1	win	2022-11-07	13:48:00	13:56:41	519815	5d3df9b23bf3780015abf56f	422995485	1	practice_z	9	advance_on_keypress_ZEE	24	stimuli_target_squarediamonds.svg	stimuli_distractor_diamondtriangles.svg	2	yes	57	0	285
6.6.1	win	2022-11-07	13:48:00	13:56:44	522760	5d3df9b23bf3780015abf56f	422995485	1	practice_z	9	practice_z	25	stimuli_distractor_diamondtriangles.svg	stimuli_target_trianglecircles.svg	9	yes	44	1	1014
6.6.1	win	2022-11-07	13:48:00	13:56:44	522760	5d3df9b23bf3780015abf56f	422995485	1	practice_z	9	advance_on_keypress_ZEE	26	stimuli_distractor_diamondtriangles.svg	stimuli_target_trianglecircles.svg	9	yes	57	0	618
6.6.1	win	2022-11-07	13:48:00	13:56:47	525826	5d3df9b23bf3780015abf56f	422995485	1	practice_z	9	practice_z	27	stimuli_target_circlediamonds.svg	stimuli_distractor_trianglediamonds.svg	4	yes	44	1	797
6.6.1	win	2022-11-07	13:48:00	13:56:47	525826	5d3df9b23bf3780015abf56f	422995485	1	practice_z	9	advance_on_keypress_ZEE	28	stimuli_target_circlediamonds.svg	stimuli_distractor_trianglediamonds.svg	4	yes	57	0	326
6.6.1	win	2022-11-07	13:48:00	13:56:50	528503	5d3df9b23bf3780015abf56f	422995485	1	practice_z	9	practice_z	29	stimuli_target_squarediamonds.svg	stimuli_distractor_trianglediamonds.svg	5	yes	44	1	707
6.6.1	win	2022-11-07	13:48:00	13:56:50	528503	5d3df9b23bf3780015abf56f	422995485	1	practice_z	9	advance_on_keypress_ZEE	30	stimuli_target_squarediamonds.svg	stimuli_distractor_trianglediamonds.svg	5	yes	57	0	383
6.6.1	win	2022-11-07	13:48:00	13:56:54	532529	5d3df9b23bf3780015abf56f	422995485	1	practice_z	9	practice_z	31	stimuli_distractor_trianglediamonds.svg	stimuli_target_diamondcircles.svg	12	yes	0	0	2000
6.6.1	win	2022-11-07	13:48:00	13:56:54	532529	5d3df9b23bf3780015abf56f	422995485	1	practice_z	9	advance_on_keypress_ZEE	32	stimuli_distractor_trianglediamonds.svg	stimuli_target_diamondcircles.svg	12	yes	57	0	462
6.6.1	win	2022-11-07	13:48:00	13:57:00	538960	5d3df9b23bf3780015abf56f	422995485	1	main_z	11	main_z	1	stimuli_distractor_diamondtriangles.svg	stimuli_target_diamondsquares.svg	32	yes	0	0	2000
6.6.1	win	2022-11-07	13:48:00	13:57:00	538960	5d3df9b23bf3780015abf56f	422995485	1	main_z	11	advance_on_keypress_ZEE	2	stimuli_distractor_diamondtriangles.svg	stimuli_target_diamondsquares.svg	32	yes	57	0	399
6.6.1	win	2022-11-07	13:48:00	13:57:02	540671	5d3df9b23bf3780015abf56f	422995485	1	main_z	11	main_z	3	stimuli_target_trianglecircles.svg	stimuli_distractor_trianglediamonds.svg	17	yes	44	1	662
6.6.1	win	2022-11-07	13:48:00	13:57:02	540671	5d3df9b23bf3780015abf56f	422995485	1	main_z	11	advance_on_keypress_ZEE	4	stimuli_target_trianglecircles.svg	stimuli_distractor_trianglediamonds.svg	17	yes	57	0	330
6.6.1	win	2022-11-07	13:48:00	13:57:04	542982	5d3df9b23bf3780015abf56f	422995485	1	main_z	11	main_z	5	stimuli_distractor_trianglediamonds.svg	stimuli_target_squaretriangles.svg	11	yes	44	1	1323
6.6.1	win	2022-11-07	13:48:00	13:57:04	542982	5d3df9b23bf3780015abf56f	422995485	1	main_z	11	advance_on_keypress_ZEE	6	stimuli_distractor_trianglediamonds.svg	stimuli_target_squaretriangles.svg	11	yes	57	0	396
6.6.1	win	2022-11-07	13:48:00	13:57:07	546026	5d3df9b23bf3780015abf56f	422995485	1	main_z	11	main_z	7	stimuli_target_diamondsquares.svg	stimuli_distractor_diamondtriangles.svg	24	yes	0	0	2000
6.6.1	win	2022-11-07	13:48:00	13:57:07	546026	5d3df9b23bf3780015abf56f	422995485	1	main_z	11	advance_on_keypress_ZEE	8	stimuli_target_diamondsquares.svg	stimuli_distractor_diamondtriangles.svg	24	yes	57	0	292
6.6.1	win	2022-11-07	13:48:00	13:57:09	547742	5d3df9b23bf3780015abf56f	422995485	1	main_z	11	main_z	9	stimuli_distractor_diamondtriangles.svg	stimuli_target_squaretriangles.svg	15	yes	44	1	783
6.6.1	win	2022-11-07	13:48:00	13:57:09	547742	5d3df9b23bf3780015abf56f	422995485	1	main_z	11	advance_on_keypress_ZEE	10	stimuli_distractor_diamondtriangles.svg	stimuli_target_squaretriangles.svg	15	yes	57	0	258
6.6.1	win	2022-11-07	13:48:00	13:57:12	550642	5d3df9b23bf3780015abf56f	422995485	1	main_z	11	main_z	11	stimuli_distractor_trianglediamonds.svg	stimuli_distractor_diamondtriangles.svg	36	no	0	1	2000
6.6.1	win	2022-11-07	13:48:00	13:57:12	550642	5d3df9b23bf3780015abf56f	422995485	1	main_z	11	advance_on_keypress_ZEE	12	stimuli_distractor_trianglediamonds.svg	stimuli_distractor_diamondtriangles.svg	36	no	57	0	314
6.6.1	win	2022-11-07	13:48:00	13:57:15	553609	5d3df9b23bf3780015abf56f	422995485	1	main_z	11	main_z	13	stimuli_distractor_trianglediamonds.svg	stimuli_distractor_trianglediamonds.svg	34	no	0	1	2000
6.6.1	win	2022-11-07	13:48:00	13:57:15	553609	5d3df9b23bf3780015abf56f	422995485	1	main_z	11	advance_on_keypress_ZEE	14	stimuli_distractor_trianglediamonds.svg	stimuli_distractor_trianglediamonds.svg	34	no	57	0	293
6.6.1	win	2022-11-07	13:48:00	13:57:17	555464	5d3df9b23bf3780015abf56f	422995485	1	main_z	11	main_z	15	stimuli_distractor_trianglediamonds.svg	stimuli_target_diamondcircles.svg	27	yes	44	1	922
6.6.1	win	2022-11-07	13:48:00	13:57:17	555464	5d3df9b23bf3780015abf56f	422995485	1	main_z	11	advance_on_keypress_ZEE	16	stimuli_distractor_trianglediamonds.svg	stimuli_target_diamondcircles.svg	27	yes	57	0	318
6.6.1	win	2022-11-07	13:48:00	13:57:20	558425	5d3df9b23bf3780015abf56f	422995485	1	main_z	11	main_z	17	stimuli_distractor_trianglediamonds.svg	stimuli_distractor_diamondtriangles.svg	35	no	0	1	2000
6.6.1	win	2022-11-07	13:48:00	13:57:20	558425	5d3df9b23bf3780015abf56f	422995485	1	main_z	11	advance_on_keypress_ZEE	18	stimuli_distractor_trianglediamonds.svg	stimuli_distractor_diamondtriangles.svg	35	no	57	0	327
6.6.1	win	2022-11-07	13:48:00	13:57:21	560024	5d3df9b23bf3780015abf56f	422995485	1	main_z	11	main_z	19	stimuli_target_circlediamonds.svg	stimuli_distractor_trianglediamonds.svg	2	yes	44	1	632
6.6.1	win	2022-11-07	13:48:00	13:57:21	560024	5d3df9b23bf3780015abf56f	422995485	1	main_z	11	advance_on_keypress_ZEE	20	stimuli_target_circlediamonds.svg	stimuli_distractor_trianglediamonds.svg	2	yes	57	0	288
6.6.1	win	2022-11-07	13:48:00	13:57:24	562958	5d3df9b23bf3780015abf56f	422995485	1	main_z	11	main_z	21	stimuli_distractor_trianglediamonds.svg	stimuli_distractor_trianglediamonds.svg	33	no	0	1	2000
6.6.1	win	2022-11-07	13:48:00	13:57:24	562958	5d3df9b23bf3780015abf56f	422995485	1	main_z	11	advance_on_keypress_ZEE	22	stimuli_distractor_trianglediamonds.svg	stimuli_distractor_trianglediamonds.svg	33	no	57	0	530
6.6.1	win	2022-11-07	13:48:00	13:57:26	565012	5d3df9b23bf3780015abf56f	422995485	1	main_z	11	main_z	23	stimuli_distractor_diamondtriangles.svg	stimuli_target_trianglecircles.svg	29	yes	44	1	871
6.6.1	win	2022-11-07	13:48:00	13:57:26	565012	5d3df9b23bf3780015abf56f	422995485	1	main_z	11	advance_on_keypress_ZEE	24	stimuli_distractor_diamondtriangles.svg	stimuli_target_trianglecircles.svg	29	yes	57	0	355
6.6.1	win	2022-11-07	13:48:00	13:57:29	568008	5d3df9b23bf3780015abf56f	422995485	1	main_z	11	main_z	25	stimuli_target_squaretriangles.svg	stimuli_distractor_diamondtriangles.svg	7	yes	0	0	2000
6.6.1	win	2022-11-07	13:48:00	13:57:29	568008	5d3df9b23bf3780015abf56f	422995485	1	main_z	11	advance_on_keypress_ZEE	26	stimuli_target_squaretriangles.svg	stimuli_distractor_diamondtriangles.svg	7	yes	57	0	975
6.6.1	win	2022-11-07	13:48:00	13:57:32	570335	5d3df9b23bf3780015abf56f	422995485	1	main_z	11	main_z	27	stimuli_distractor_trianglediamonds.svg	stimuli_target_diamondsquares.svg	28	yes	44	1	710
6.6.1	win	2022-11-07	13:48:00	13:57:32	570335	5d3df9b23bf3780015abf56f	422995485	1	main_z	11	advance_on_keypress_ZEE	28	stimuli_distractor_trianglediamonds.svg	stimuli_target_diamondsquares.svg	28	yes	57	0	333
6.6.1	win	2022-11-07	13:48:00	13:57:33	572179	5d3df9b23bf3780015abf56f	422995485	1	main_z	11	main_z	29	stimuli_distractor_trianglediamonds.svg	stimuli_target_trianglesquares.svg	26	yes	44	1	871
6.6.1	win	2022-11-07	13:48:00	13:57:33	572179	5d3df9b23bf3780015abf56f	422995485	1	main_z	11	advance_on_keypress_ZEE	30	stimuli_distractor_trianglediamonds.svg	stimuli_target_trianglesquares.svg	26	yes	57	0	241
6.6.1	win	2022-11-07	13:48:00	13:57:35	574117	5d3df9b23bf3780015abf56f	422995485	1	main_z	11	main_z	31	stimuli_distractor_diamondtriangles.svg	stimuli_target_squarediamonds.svg	16	yes	44	1	1059
6.6.1	win	2022-11-07	13:48:00	13:57:35	574117	5d3df9b23bf3780015abf56f	422995485	1	main_z	11	advance_on_keypress_ZEE	32	stimuli_distractor_diamondtriangles.svg	stimuli_target_squarediamonds.svg	16	yes	57	0	227
6.6.1	win	2022-11-07	13:48:00	13:57:38	576974	5d3df9b23bf3780015abf56f	422995485	1	main_z	11	main_z	33	stimuli_distractor_diamondtriangles.svg	stimuli_target_trianglesquares.svg	30	yes	0	0	2000
6.6.1	win	2022-11-07	13:48:00	13:57:38	576974	5d3df9b23bf3780015abf56f	422995485	1	main_z	11	advance_on_keypress_ZEE	34	stimuli_distractor_diamondtriangles.svg	stimuli_target_trianglesquares.svg	30	yes	57	0	705
6.6.1	win	2022-11-07	13:48:00	13:57:40	579118	5d3df9b23bf3780015abf56f	422995485	1	main_z	11	main_z	35	stimuli_target_trianglesquares.svg	stimuli_distractor_trianglediamonds.svg	18	yes	44	1	794
6.6.1	win	2022-11-07	13:48:00	13:57:40	579118	5d3df9b23bf3780015abf56f	422995485	1	main_z	11	advance_on_keypress_ZEE	36	stimuli_target_trianglesquares.svg	stimuli_distractor_trianglediamonds.svg	18	yes	57	0	284
6.6.1	win	2022-11-07	13:48:00	13:57:42	580654	5d3df9b23bf3780015abf56f	422995485	1	main_z	11	main_z	37	stimuli_target_circlediamonds.svg	stimuli_distractor_diamondtriangles.svg	6	yes	44	1	614
6.6.1	win	2022-11-07	13:48:00	13:57:42	580654	5d3df9b23bf3780015abf56f	422995485	1	main_z	11	advance_on_keypress_ZEE	38	stimuli_target_circlediamonds.svg	stimuli_distractor_diamondtriangles.svg	6	yes	57	0	306
6.6.1	win	2022-11-07	13:48:00	13:57:44	582361	5d3df9b23bf3780015abf56f	422995485	1	main_z	11	main_z	39	stimuli_distractor_trianglediamonds.svg	stimuli_target_squarediamonds.svg	12	yes	44	1	754
6.6.1	win	2022-11-07	13:48:00	13:57:44	582361	5d3df9b23bf3780015abf56f	422995485	1	main_z	11	advance_on_keypress_ZEE	40	stimuli_distractor_trianglediamonds.svg	stimuli_target_squarediamonds.svg	12	yes	57	0	227
6.6.1	win	2022-11-07	13:48:00	13:57:45	584214	5d3df9b23bf3780015abf56f	422995485	1	main_z	11	main_z	41	stimuli_target_squaretriangles.svg	stimuli_distractor_trianglediamonds.svg	3	yes	44	1	990
6.6.1	win	2022-11-07	13:48:00	13:57:45	584214	5d3df9b23bf3780015abf56f	422995485	1	main_z	11	advance_on_keypress_ZEE	42	stimuli_target_squaretriangles.svg	stimuli_distractor_trianglediamonds.svg	3	yes	57	0	392
6.6.1	win	2022-11-07	13:48:00	13:57:47	586065	5d3df9b23bf3780015abf56f	422995485	1	main_z	11	main_z	43	stimuli_target_circletriangles.svg	stimuli_distractor_trianglediamonds.svg	1	yes	44	1	825
6.6.1	win	2022-11-07	13:48:00	13:57:47	586065	5d3df9b23bf3780015abf56f	422995485	1	main_z	11	advance_on_keypress_ZEE	44	stimuli_target_circletriangles.svg	stimuli_distractor_trianglediamonds.svg	1	yes	57	0	358
6.6.1	win	2022-11-07	13:48:00	13:57:49	587984	5d3df9b23bf3780015abf56f	422995485	1	main_z	11	main_z	45	stimuli_distractor_diamondtriangles.svg	stimuli_target_circlediamonds.svg	14	yes	44	1	928
6.6.1	win	2022-11-07	13:48:00	13:57:49	587984	5d3df9b23bf3780015abf56f	422995485	1	main_z	11	advance_on_keypress_ZEE	46	stimuli_distractor_diamondtriangles.svg	stimuli_target_circlediamonds.svg	14	yes	57	0	315
6.6.1	win	2022-11-07	13:48:00	13:57:51	589768	5d3df9b23bf3780015abf56f	422995485	1	main_z	11	main_z	47	stimuli_distractor_diamondtriangles.svg	stimuli_target_circletriangles.svg	13	yes	44	1	811
6.6.1	win	2022-11-07	13:48:00	13:57:51	589768	5d3df9b23bf3780015abf56f	422995485	1	main_z	11	advance_on_keypress_ZEE	48	stimuli_distractor_diamondtriangles.svg	stimuli_target_circletriangles.svg	13	yes	57	0	322
6.6.1	win	2022-11-07	13:48:00	13:57:54	592740	5d3df9b23bf3780015abf56f	422995485	1	main_z	11	main_z	49	stimuli_target_diamondcircles.svg	stimuli_distractor_diamondtriangles.svg	23	yes	0	0	2000
6.6.1	win	2022-11-07	13:48:00	13:57:54	592740	5d3df9b23bf3780015abf56f	422995485	1	main_z	11	advance_on_keypress_ZEE	50	stimuli_target_diamondcircles.svg	stimuli_distractor_diamondtriangles.svg	23	yes	57	0	492
6.6.1	win	2022-11-07	13:48:00	13:57:56	594793	5d3df9b23bf3780015abf56f	422995485	1	main_z	11	main_z	51	stimuli_distractor_diamondtriangles.svg	stimuli_target_diamondcircles.svg	31	yes	44	1	920
6.6.1	win	2022-11-07	13:48:00	13:57:56	594793	5d3df9b23bf3780015abf56f	422995485	1	main_z	11	advance_on_keypress_ZEE	52	stimuli_distractor_diamondtriangles.svg	stimuli_target_diamondcircles.svg	31	yes	57	0	273
6.6.1	win	2022-11-07	13:48:00	13:57:58	596762	5d3df9b23bf3780015abf56f	422995485	1	main_z	11	main_z	53	stimuli_target_diamondcircles.svg	stimuli_distractor_trianglediamonds.svg	19	yes	44	1	1056
6.6.1	win	2022-11-07	13:48:00	13:57:58	596762	5d3df9b23bf3780015abf56f	422995485	1	main_z	11	advance_on_keypress_ZEE	54	stimuli_target_diamondcircles.svg	stimuli_distractor_trianglediamonds.svg	19	yes	57	0	281
6.6.1	win	2022-11-07	13:48:00	13:58:00	598521	5d3df9b23bf3780015abf56f	422995485	1	main_z	11	main_z	55	stimuli_target_squarediamonds.svg	stimuli_distractor_trianglediamonds.svg	4	yes	44	1	832
6.6.1	win	2022-11-07	13:48:00	13:58:00	598521	5d3df9b23bf3780015abf56f	422995485	1	main_z	11	advance_on_keypress_ZEE	56	stimuli_target_squarediamonds.svg	stimuli_distractor_trianglediamonds.svg	4	yes	57	0	231
6.6.1	win	2022-11-07	13:48:00	13:58:02	600238	5d3df9b23bf3780015abf56f	422995485	1	main_z	11	main_z	57	stimuli_distractor_trianglediamonds.svg	stimuli_target_trianglecircles.svg	25	yes	44	1	833
6.6.1	win	2022-11-07	13:48:00	13:58:02	600238	5d3df9b23bf3780015abf56f	422995485	1	main_z	11	advance_on_keypress_ZEE	58	stimuli_distractor_trianglediamonds.svg	stimuli_target_trianglecircles.svg	25	yes	57	0	276
6.6.1	win	2022-11-07	13:48:00	13:58:03	602011	5d3df9b23bf3780015abf56f	422995485	1	main_z	11	main_z	59	stimuli_target_diamondsquares.svg	stimuli_distractor_trianglediamonds.svg	20	yes	44	1	855
6.6.1	win	2022-11-07	13:48:00	13:58:03	602011	5d3df9b23bf3780015abf56f	422995485	1	main_z	11	advance_on_keypress_ZEE	60	stimuli_target_diamondsquares.svg	stimuli_distractor_trianglediamonds.svg	20	yes	57	0	217
6.6.1	win	2022-11-07	13:48:00	13:58:06	604777	5d3df9b23bf3780015abf56f	422995485	1	main_z	11	main_z	61	stimuli_target_squarediamonds.svg	stimuli_distractor_diamondtriangles.svg	8	yes	44	1	1905
6.6.1	win	2022-11-07	13:48:00	13:58:06	604777	5d3df9b23bf3780015abf56f	422995485	1	main_z	11	advance_on_keypress_ZEE	62	stimuli_target_squarediamonds.svg	stimuli_distractor_diamondtriangles.svg	8	yes	57	0	204
6.6.1	win	2022-11-07	13:48:00	13:58:09	607623	5d3df9b23bf3780015abf56f	422995485	1	main_z	11	main_z	63	stimuli_distractor_diamondtriangles.svg	stimuli_distractor_trianglediamonds.svg	37	no	0	1	2000
6.6.1	win	2022-11-07	13:48:00	13:58:09	607623	5d3df9b23bf3780015abf56f	422995485	1	main_z	11	advance_on_keypress_ZEE	64	stimuli_distractor_diamondtriangles.svg	stimuli_distractor_trianglediamonds.svg	37	no	57	0	463
6.6.1	win	2022-11-07	13:48:00	13:58:11	609411	5d3df9b23bf3780015abf56f	422995485	1	main_z	11	main_z	65	stimuli_distractor_trianglediamonds.svg	stimuli_target_circletriangles.svg	9	yes	44	1	672
6.6.1	win	2022-11-07	13:48:00	13:58:11	609411	5d3df9b23bf3780015abf56f	422995485	1	main_z	11	advance_on_keypress_ZEE	66	stimuli_distractor_trianglediamonds.svg	stimuli_target_circletriangles.svg	9	yes	57	0	330
6.6.1	win	2022-11-07	13:48:00	13:58:12	611126	5d3df9b23bf3780015abf56f	422995485	1	main_z	11	main_z	67	stimuli_target_trianglesquares.svg	stimuli_distractor_diamondtriangles.svg	22	yes	44	1	737
6.6.1	win	2022-11-07	13:48:00	13:58:12	611126	5d3df9b23bf3780015abf56f	422995485	1	main_z	11	advance_on_keypress_ZEE	68	stimuli_target_trianglesquares.svg	stimuli_distractor_diamondtriangles.svg	22	yes	57	0	217
6.6.1	win	2022-11-07	13:48:00	13:58:15	613989	5d3df9b23bf3780015abf56f	422995485	1	main_z	11	main_z	69	stimuli_distractor_diamondtriangles.svg	stimuli_distractor_trianglediamonds.svg	38	no	0	1	2000
6.6.1	win	2022-11-07	13:48:00	13:58:15	613989	5d3df9b23bf3780015abf56f	422995485	1	main_z	11	advance_on_keypress_ZEE	70	stimuli_distractor_diamondtriangles.svg	stimuli_distractor_trianglediamonds.svg	38	no	57	0	358
6.6.1	win	2022-11-07	13:48:00	13:58:18	616989	5d3df9b23bf3780015abf56f	422995485	1	main_z	11	main_z	71	stimuli_distractor_diamondtriangles.svg	stimuli_distractor_diamondtriangles.svg	39	no	0	1	2000
6.6.1	win	2022-11-07	13:48:00	13:58:18	616989	5d3df9b23bf3780015abf56f	422995485	1	main_z	11	advance_on_keypress_ZEE	72	stimuli_distractor_diamondtriangles.svg	stimuli_distractor_diamondtriangles.svg	39	no	57	0	333
6.6.1	win	2022-11-07	13:48:00	13:58:20	618985	5d3df9b23bf3780015abf56f	422995485	1	main_z	11	main_z	73	stimuli_distractor_trianglediamonds.svg	stimuli_target_circlediamonds.svg	10	yes	44	1	1013
6.6.1	win	2022-11-07	13:48:00	13:58:20	618985	5d3df9b23bf3780015abf56f	422995485	1	main_z	11	advance_on_keypress_ZEE	74	stimuli_distractor_trianglediamonds.svg	stimuli_target_circlediamonds.svg	10	yes	57	0	633
6.6.1	win	2022-11-07	13:48:00	13:58:24	622272	5d3df9b23bf3780015abf56f	422995485	1	main_z	11	main_z	75	stimuli_distractor_diamondtriangles.svg	stimuli_distractor_diamondtriangles.svg	40	no	0	1	2000
6.6.1	win	2022-11-07	13:48:00	13:58:24	622272	5d3df9b23bf3780015abf56f	422995485	1	main_z	11	advance_on_keypress_ZEE	76	stimuli_distractor_diamondtriangles.svg	stimuli_distractor_diamondtriangles.svg	40	no	57	0	645
6.6.1	win	2022-11-07	13:48:00	13:58:27	625571	5d3df9b23bf3780015abf56f	422995485	1	main_z	11	main_z	77	stimuli_target_trianglecircles.svg	stimuli_distractor_diamondtriangles.svg	21	yes	0	0	2000
6.6.1	win	2022-11-07	13:48:00	13:58:27	625571	5d3df9b23bf3780015abf56f	422995485	1	main_z	11	advance_on_keypress_ZEE	78	stimuli_target_trianglecircles.svg	stimuli_distractor_diamondtriangles.svg	21	yes	57	0	384
6.6.1	win	2022-11-07	13:48:00	13:58:29	627442	5d3df9b23bf3780015abf56f	422995485	1	main_z	11	main_z	79	stimuli_target_circletriangles.svg	stimuli_distractor_diamondtriangles.svg	5	yes	44	1	837
6.6.1	win	2022-11-07	13:48:00	13:58:29	627442	5d3df9b23bf3780015abf56f	422995485	1	main_z	11	advance_on_keypress_ZEE	80	stimuli_target_circletriangles.svg	stimuli_distractor_diamondtriangles.svg	5	yes	57	0	310
6.6.1	win	2022-11-07	13:48:00	13:58:31	629227	5d3df9b23bf3780015abf56f	422995485	1	main_z	11	main_z	81	stimuli_distractor_trianglediamonds.svg	stimuli_target_circletriangles.svg	9	yes	44	1	840
6.6.1	win	2022-11-07	13:48:00	13:58:31	629227	5d3df9b23bf3780015abf56f	422995485	1	main_z	11	advance_on_keypress_ZEE	82	stimuli_distractor_trianglediamonds.svg	stimuli_target_circletriangles.svg	9	yes	57	0	292
6.6.1	win	2022-11-07	13:48:00	13:58:32	631096	5d3df9b23bf3780015abf56f	422995485	1	main_z	11	main_z	83	stimuli_distractor_diamondtriangles.svg	stimuli_target_squarediamonds.svg	16	yes	44	1	941
6.6.1	win	2022-11-07	13:48:00	13:58:32	631096	5d3df9b23bf3780015abf56f	422995485	1	main_z	11	advance_on_keypress_ZEE	84	stimuli_distractor_diamondtriangles.svg	stimuli_target_squarediamonds.svg	16	yes	57	0	229
6.6.1	win	2022-11-07	13:48:00	13:58:34	632890	5d3df9b23bf3780015abf56f	422995485	1	main_z	11	main_z	85	stimuli_distractor_trianglediamonds.svg	stimuli_target_trianglecircles.svg	25	yes	44	1	918
6.6.1	win	2022-11-07	13:48:00	13:58:34	632890	5d3df9b23bf3780015abf56f	422995485	1	main_z	11	advance_on_keypress_ZEE	86	stimuli_distractor_trianglediamonds.svg	stimuli_target_trianglecircles.svg	25	yes	57	0	289
6.6.1	win	2022-11-07	13:48:00	13:58:37	635821	5d3df9b23bf3780015abf56f	422995485	1	main_z	11	main_z	87	stimuli_distractor_trianglediamonds.svg	stimuli_distractor_diamondtriangles.svg	35	no	0	1	2000
6.6.1	win	2022-11-07	13:48:00	13:58:37	635821	5d3df9b23bf3780015abf56f	422995485	1	main_z	11	advance_on_keypress_ZEE	88	stimuli_distractor_trianglediamonds.svg	stimuli_distractor_diamondtriangles.svg	35	no	57	0	315
6.6.1	win	2022-11-07	13:48:00	13:58:39	637681	5d3df9b23bf3780015abf56f	422995485	1	main_z	11	main_z	89	stimuli_target_squaretriangles.svg	stimuli_distractor_diamondtriangles.svg	7	yes	44	1	893
6.6.1	win	2022-11-07	13:48:00	13:58:39	637681	5d3df9b23bf3780015abf56f	422995485	1	main_z	11	advance_on_keypress_ZEE	90	stimuli_target_squaretriangles.svg	stimuli_distractor_diamondtriangles.svg	7	yes	57	0	254
6.6.1	win	2022-11-07	13:48:00	13:58:41	639447	5d3df9b23bf3780015abf56f	422995485	1	main_z	11	main_z	91	stimuli_distractor_diamondtriangles.svg	stimuli_target_trianglesquares.svg	30	yes	44	1	876
6.6.1	win	2022-11-07	13:48:00	13:58:41	639447	5d3df9b23bf3780015abf56f	422995485	1	main_z	11	advance_on_keypress_ZEE	92	stimuli_distractor_diamondtriangles.svg	stimuli_target_trianglesquares.svg	30	yes	57	0	306
6.6.1	win	2022-11-07	13:48:00	13:58:44	642388	5d3df9b23bf3780015abf56f	422995485	1	main_z	11	main_z	93	stimuli_distractor_trianglediamonds.svg	stimuli_distractor_trianglediamonds.svg	34	no	0	1	2000
6.6.1	win	2022-11-07	13:48:00	13:58:44	642388	5d3df9b23bf3780015abf56f	422995485	1	main_z	11	advance_on_keypress_ZEE	94	stimuli_distractor_trianglediamonds.svg	stimuli_distractor_trianglediamonds.svg	34	no	57	0	577
6.6.1	win	2022-11-07	13:48:00	13:58:46	644300	5d3df9b23bf3780015abf56f	422995485	1	main_z	11	main_z	95	stimuli_target_circletriangles.svg	stimuli_distractor_diamondtriangles.svg	5	yes	44	1	695
6.6.1	win	2022-11-07	13:48:00	13:58:46	644300	5d3df9b23bf3780015abf56f	422995485	1	main_z	11	advance_on_keypress_ZEE	96	stimuli_target_circletriangles.svg	stimuli_distractor_diamondtriangles.svg	5	yes	57	0	281
6.6.1	win	2022-11-07	13:48:00	13:58:49	647237	5d3df9b23bf3780015abf56f	422995485	1	main_z	11	main_z	97	stimuli_distractor_diamondtriangles.svg	stimuli_distractor_diamondtriangles.svg	40	no	0	1	2000
6.6.1	win	2022-11-07	13:48:00	13:58:49	647237	5d3df9b23bf3780015abf56f	422995485	1	main_z	11	advance_on_keypress_ZEE	98	stimuli_distractor_diamondtriangles.svg	stimuli_distractor_diamondtriangles.svg	40	no	57	0	412
6.6.1	win	2022-11-07	13:48:00	13:58:50	649157	5d3df9b23bf3780015abf56f	422995485	1	main_z	11	main_z	99	stimuli_distractor_diamondtriangles.svg	stimuli_target_squaretriangles.svg	15	yes	44	1	854
6.6.1	win	2022-11-07	13:48:00	13:58:50	649157	5d3df9b23bf3780015abf56f	422995485	1	main_z	11	advance_on_keypress_ZEE	100	stimuli_distractor_diamondtriangles.svg	stimuli_target_squaretriangles.svg	15	yes	57	0	728
6.6.1	win	2022-11-07	13:48:00	13:58:53	652099	5d3df9b23bf3780015abf56f	422995485	1	main_z	11	main_z	101	stimuli_target_circlediamonds.svg	stimuli_distractor_diamondtriangles.svg	6	yes	44	1	1561
6.6.1	win	2022-11-07	13:48:00	13:58:53	652099	5d3df9b23bf3780015abf56f	422995485	1	main_z	11	advance_on_keypress_ZEE	102	stimuli_target_circlediamonds.svg	stimuli_distractor_diamondtriangles.svg	6	yes	57	0	1729
6.6.1	win	2022-11-07	13:48:00	13:58:57	655637	5d3df9b23bf3780015abf56f	422995485	1	main_z	11	main_z	103	stimuli_target_squaretriangles.svg	stimuli_distractor_trianglediamonds.svg	3	yes	44	1	1150
6.6.1	win	2022-11-07	13:48:00	13:58:57	655637	5d3df9b23bf3780015abf56f	422995485	1	main_z	11	advance_on_keypress_ZEE	104	stimuli_target_squaretriangles.svg	stimuli_distractor_trianglediamonds.svg	3	yes	57	0	304
6.6.1	win	2022-11-07	13:48:00	13:59:00	658587	5d3df9b23bf3780015abf56f	422995485	1	main_z	11	main_z	105	stimuli_distractor_trianglediamonds.svg	stimuli_distractor_trianglediamonds.svg	33	no	0	1	2000
6.6.1	win	2022-11-07	13:48:00	13:59:00	658587	5d3df9b23bf3780015abf56f	422995485	1	main_z	11	advance_on_keypress_ZEE	106	stimuli_distractor_trianglediamonds.svg	stimuli_distractor_trianglediamonds.svg	33	no	57	0	1779
6.6.1	win	2022-11-07	13:48:00	13:59:04	663020	5d3df9b23bf3780015abf56f	422995485	1	main_z	11	main_z	107	stimuli_target_trianglesquares.svg	stimuli_distractor_diamondtriangles.svg	22	yes	0	0	2000
6.6.1	win	2022-11-07	13:48:00	13:59:04	663020	5d3df9b23bf3780015abf56f	422995485	1	main_z	11	advance_on_keypress_ZEE	108	stimuli_target_trianglesquares.svg	stimuli_distractor_diamondtriangles.svg	22	yes	57	0	546
6.6.1	win	2022-11-07	13:48:00	13:59:07	665724	5d3df9b23bf3780015abf56f	422995485	1	main_z	11	main_z	109	stimuli_target_trianglecircles.svg	stimuli_distractor_diamondtriangles.svg	21	yes	44	1	1504
6.6.1	win	2022-11-07	13:48:00	13:59:07	665724	5d3df9b23bf3780015abf56f	422995485	1	main_z	11	advance_on_keypress_ZEE	110	stimuli_target_trianglecircles.svg	stimuli_distractor_diamondtriangles.svg	21	yes	57	0	596
6.6.1	win	2022-11-07	13:48:00	13:59:09	667995	5d3df9b23bf3780015abf56f	422995485	1	main_z	11	main_z	111	stimuli_distractor_trianglediamonds.svg	stimuli_target_circlediamonds.svg	10	yes	44	1	1025
6.6.1	win	2022-11-07	13:48:00	13:59:09	667995	5d3df9b23bf3780015abf56f	422995485	1	main_z	11	advance_on_keypress_ZEE	112	stimuli_distractor_trianglediamonds.svg	stimuli_target_circlediamonds.svg	10	yes	57	0	280
6.6.1	win	2022-11-07	13:48:00	13:59:11	669599	5d3df9b23bf3780015abf56f	422995485	1	main_z	11	main_z	113	stimuli_distractor_diamondtriangles.svg	stimuli_target_circlediamonds.svg	14	yes	44	1	679
6.6.1	win	2022-11-07	13:48:00	13:59:11	669599	5d3df9b23bf3780015abf56f	422995485	1	main_z	11	advance_on_keypress_ZEE	114	stimuli_distractor_diamondtriangles.svg	stimuli_target_circlediamonds.svg	14	yes	57	0	645
6.6.1	win	2022-11-07	13:48:00	13:59:13	671707	5d3df9b23bf3780015abf56f	422995485	1	main_z	11	main_z	115	stimuli_target_squarediamonds.svg	stimuli_distractor_trianglediamonds.svg	4	yes	44	1	804
6.6.1	win	2022-11-07	13:48:00	13:59:13	671707	5d3df9b23bf3780015abf56f	422995485	1	main_z	11	advance_on_keypress_ZEE	116	stimuli_target_squarediamonds.svg	stimuli_distractor_trianglediamonds.svg	4	yes	57	0	277
6.6.1	win	2022-11-07	13:48:00	13:59:15	673495	5d3df9b23bf3780015abf56f	422995485	1	main_z	11	main_z	117	stimuli_distractor_trianglediamonds.svg	stimuli_target_squarediamonds.svg	12	yes	44	1	874
6.6.1	win	2022-11-07	13:48:00	13:59:15	673495	5d3df9b23bf3780015abf56f	422995485	1	main_z	11	advance_on_keypress_ZEE	118	stimuli_distractor_trianglediamonds.svg	stimuli_target_squarediamonds.svg	12	yes	57	0	324
6.6.1	win	2022-11-07	13:48:00	13:59:18	676452	5d3df9b23bf3780015abf56f	422995485	1	main_z	11	main_z	119	stimuli_distractor_diamondtriangles.svg	stimuli_distractor_diamondtriangles.svg	39	no	0	1	2000
6.6.1	win	2022-11-07	13:48:00	13:59:18	676452	5d3df9b23bf3780015abf56f	422995485	1	main_z	11	advance_on_keypress_ZEE	120	stimuli_distractor_diamondtriangles.svg	stimuli_distractor_diamondtriangles.svg	39	no	57	0	356
6.6.1	win	2022-11-07	13:48:00	13:59:21	679452	5d3df9b23bf3780015abf56f	422995485	1	main_z	11	main_z	121	stimuli_distractor_diamondtriangles.svg	stimuli_target_diamondsquares.svg	32	yes	0	0	2000
6.6.1	win	2022-11-07	13:48:00	13:59:21	679452	5d3df9b23bf3780015abf56f	422995485	1	main_z	11	advance_on_keypress_ZEE	122	stimuli_distractor_diamondtriangles.svg	stimuli_target_diamondsquares.svg	32	yes	57	0	640
6.6.1	win	2022-11-07	13:48:00	13:59:24	682736	5d3df9b23bf3780015abf56f	422995485	1	main_z	11	main_z	123	stimuli_target_diamondsquares.svg	stimuli_distractor_diamondtriangles.svg	24	yes	0	0	2000
6.6.1	win	2022-11-07	13:48:00	13:59:24	682736	5d3df9b23bf3780015abf56f	422995485	1	main_z	11	advance_on_keypress_ZEE	124	stimuli_target_diamondsquares.svg	stimuli_distractor_diamondtriangles.svg	24	yes	57	0	277
6.6.1	win	2022-11-07	13:48:00	13:59:26	684636	5d3df9b23bf3780015abf56f	422995485	1	main_z	11	main_z	125	stimuli_target_squarediamonds.svg	stimuli_distractor_diamondtriangles.svg	8	yes	44	1	984
6.6.1	win	2022-11-07	13:48:00	13:59:26	684636	5d3df9b23bf3780015abf56f	422995485	1	main_z	11	advance_on_keypress_ZEE	126	stimuli_target_squarediamonds.svg	stimuli_distractor_diamondtriangles.svg	8	yes	57	0	203
6.6.1	win	2022-11-07	13:48:00	13:59:28	686301	5d3df9b23bf3780015abf56f	422995485	1	main_z	11	main_z	127	stimuli_distractor_trianglediamonds.svg	stimuli_target_squaretriangles.svg	11	yes	44	1	815
6.6.1	win	2022-11-07	13:48:00	13:59:28	686301	5d3df9b23bf3780015abf56f	422995485	1	main_z	11	advance_on_keypress_ZEE	128	stimuli_distractor_trianglediamonds.svg	stimuli_target_squaretriangles.svg	11	yes	57	0	250
6.6.1	win	2022-11-07	13:48:00	13:59:30	689202	5d3df9b23bf3780015abf56f	422995485	1	main_z	11	main_z	129	stimuli_target_diamondcircles.svg	stimuli_distractor_trianglediamonds.svg	19	yes	0	0	2000
6.6.1	win	2022-11-07	13:48:00	13:59:30	689202	5d3df9b23bf3780015abf56f	422995485	1	main_z	11	advance_on_keypress_ZEE	130	stimuli_target_diamondcircles.svg	stimuli_distractor_trianglediamonds.svg	19	yes	57	0	328
6.6.1	win	2022-11-07	13:48:00	13:59:33	692185	5d3df9b23bf3780015abf56f	422995485	1	main_z	11	main_z	131	stimuli_distractor_trianglediamonds.svg	stimuli_distractor_diamondtriangles.svg	36	no	0	1	2000
6.6.1	win	2022-11-07	13:48:00	13:59:33	692185	5d3df9b23bf3780015abf56f	422995485	1	main_z	11	advance_on_keypress_ZEE	132	stimuli_distractor_trianglediamonds.svg	stimuli_distractor_diamondtriangles.svg	36	no	57	0	246
6.6.1	win	2022-11-07	13:48:00	13:59:35	694019	5d3df9b23bf3780015abf56f	422995485	1	main_z	11	main_z	133	stimuli_distractor_trianglediamonds.svg	stimuli_target_diamondsquares.svg	28	yes	44	1	934
6.6.1	win	2022-11-07	13:48:00	13:59:35	694019	5d3df9b23bf3780015abf56f	422995485	1	main_z	11	advance_on_keypress_ZEE	134	stimuli_distractor_trianglediamonds.svg	stimuli_target_diamondsquares.svg	28	yes	57	0	210
6.6.1	win	2022-11-07	13:48:00	13:59:38	696868	5d3df9b23bf3780015abf56f	422995485	1	main_z	11	main_z	135	stimuli_distractor_diamondtriangles.svg	stimuli_distractor_trianglediamonds.svg	37	no	0	1	2000
6.6.1	win	2022-11-07	13:48:00	13:59:38	696868	5d3df9b23bf3780015abf56f	422995485	1	main_z	11	advance_on_keypress_ZEE	136	stimuli_distractor_diamondtriangles.svg	stimuli_distractor_trianglediamonds.svg	37	no	57	0	287
6.6.1	win	2022-11-07	13:48:00	13:59:40	698668	5d3df9b23bf3780015abf56f	422995485	1	main_z	11	main_z	137	stimuli_distractor_diamondtriangles.svg	stimuli_target_circletriangles.svg	13	yes	44	1	866
6.6.1	win	2022-11-07	13:48:00	13:59:40	698668	5d3df9b23bf3780015abf56f	422995485	1	main_z	11	advance_on_keypress_ZEE	138	stimuli_distractor_diamondtriangles.svg	stimuli_target_circletriangles.svg	13	yes	57	0	214
6.6.1	win	2022-11-07	13:48:00	13:59:42	700787	5d3df9b23bf3780015abf56f	422995485	1	main_z	11	main_z	139	stimuli_distractor_trianglediamonds.svg	stimuli_target_diamondcircles.svg	27	yes	44	1	1253
6.6.1	win	2022-11-07	13:48:00	13:59:42	700787	5d3df9b23bf3780015abf56f	422995485	1	main_z	11	advance_on_keypress_ZEE	140	stimuli_distractor_trianglediamonds.svg	stimuli_target_diamondcircles.svg	27	yes	57	0	162
6.6.1	win	2022-11-07	13:48:00	13:59:44	702743	5d3df9b23bf3780015abf56f	422995485	1	main_z	11	main_z	141	stimuli_target_diamondcircles.svg	stimuli_distractor_diamondtriangles.svg	23	yes	44	1	1141
6.6.1	win	2022-11-07	13:48:00	13:59:44	702743	5d3df9b23bf3780015abf56f	422995485	1	main_z	11	advance_on_keypress_ZEE	142	stimuli_target_diamondcircles.svg	stimuli_distractor_diamondtriangles.svg	23	yes	57	0	205
6.6.1	win	2022-11-07	13:48:00	13:59:47	705584	5d3df9b23bf3780015abf56f	422995485	1	main_z	11	main_z	143	stimuli_distractor_diamondtriangles.svg	stimuli_distractor_trianglediamonds.svg	38	no	0	1	2000
6.6.1	win	2022-11-07	13:48:00	13:59:47	705584	5d3df9b23bf3780015abf56f	422995485	1	main_z	11	advance_on_keypress_ZEE	144	stimuli_distractor_diamondtriangles.svg	stimuli_distractor_trianglediamonds.svg	38	no	57	0	461
6.6.1	win	2022-11-07	13:48:00	13:59:49	707727	5d3df9b23bf3780015abf56f	422995485	1	main_z	11	main_z	145	stimuli_distractor_trianglediamonds.svg	stimuli_target_trianglesquares.svg	26	yes	44	1	1027
6.6.1	win	2022-11-07	13:48:00	13:59:49	707727	5d3df9b23bf3780015abf56f	422995485	1	main_z	11	advance_on_keypress_ZEE	146	stimuli_distractor_trianglediamonds.svg	stimuli_target_trianglesquares.svg	26	yes	57	0	114
6.6.1	win	2022-11-07	13:48:00	13:59:51	709313	5d3df9b23bf3780015abf56f	422995485	1	main_z	11	main_z	147	stimuli_distractor_diamondtriangles.svg	stimuli_target_diamondcircles.svg	31	yes	44	1	828
6.6.1	win	2022-11-07	13:48:00	13:59:51	709313	5d3df9b23bf3780015abf56f	422995485	1	main_z	11	advance_on_keypress_ZEE	148	stimuli_distractor_diamondtriangles.svg	stimuli_target_diamondcircles.svg	31	yes	57	0	241
6.6.1	win	2022-11-07	13:48:00	13:59:52	711007	5d3df9b23bf3780015abf56f	422995485	1	main_z	11	main_z	149	stimuli_target_trianglecircles.svg	stimuli_distractor_trianglediamonds.svg	17	yes	44	1	806
6.6.1	win	2022-11-07	13:48:00	13:59:52	711007	5d3df9b23bf3780015abf56f	422995485	1	main_z	11	advance_on_keypress_ZEE	150	stimuli_target_trianglecircles.svg	stimuli_distractor_trianglediamonds.svg	17	yes	57	0	159
6.6.1	win	2022-11-07	13:48:00	13:59:54	712632	5d3df9b23bf3780015abf56f	422995485	1	main_z	11	main_z	151	stimuli_target_diamondsquares.svg	stimuli_distractor_trianglediamonds.svg	20	yes	44	1	831
6.6.1	win	2022-11-07	13:48:00	13:59:54	712632	5d3df9b23bf3780015abf56f	422995485	1	main_z	11	advance_on_keypress_ZEE	152	stimuli_target_diamondsquares.svg	stimuli_distractor_trianglediamonds.svg	20	yes	57	0	126
6.6.1	win	2022-11-07	13:48:00	13:59:55	714179	5d3df9b23bf3780015abf56f	422995485	1	main_z	11	main_z	153	stimuli_target_trianglesquares.svg	stimuli_distractor_trianglediamonds.svg	18	yes	44	1	779
6.6.1	win	2022-11-07	13:48:00	13:59:55	714179	5d3df9b23bf3780015abf56f	422995485	1	main_z	11	advance_on_keypress_ZEE	154	stimuli_target_trianglesquares.svg	stimuli_distractor_trianglediamonds.svg	18	yes	57	0	93
6.6.1	win	2022-11-07	13:48:00	13:59:57	715712	5d3df9b23bf3780015abf56f	422995485	1	main_z	11	main_z	155	stimuli_distractor_diamondtriangles.svg	stimuli_target_trianglecircles.svg	29	yes	44	1	795
6.6.1	win	2022-11-07	13:48:00	13:59:57	715712	5d3df9b23bf3780015abf56f	422995485	1	main_z	11	advance_on_keypress_ZEE	156	stimuli_distractor_diamondtriangles.svg	stimuli_target_trianglecircles.svg	29	yes	57	0	92
6.6.1	win	2022-11-07	13:48:00	13:59:59	717310	5d3df9b23bf3780015abf56f	422995485	1	main_z	11	main_z	157	stimuli_target_circletriangles.svg	stimuli_distractor_trianglediamonds.svg	1	yes	44	1	859
6.6.1	win	2022-11-07	13:48:00	13:59:59	717310	5d3df9b23bf3780015abf56f	422995485	1	main_z	11	advance_on_keypress_ZEE	158	stimuli_target_circletriangles.svg	stimuli_distractor_trianglediamonds.svg	1	yes	57	0	101
6.6.1	win	2022-11-07	13:48:00	14:00:00	718832	5d3df9b23bf3780015abf56f	422995485	1	main_z	11	main_z	159	stimuli_target_circlediamonds.svg	stimuli_distractor_trianglediamonds.svg	2	yes	44	1	781
6.6.1	win	2022-11-07	13:48:00	14:00:00	718832	5d3df9b23bf3780015abf56f	422995485	1	main_z	11	advance_on_keypress_ZEE	160	stimuli_target_circlediamonds.svg	stimuli_distractor_trianglediamonds.svg	2	yes	57	0	84