build	computer.platform	date	time	timestamp	time_elapsed_ms	subject	group	session	blockcode	blocknum	trialcode	trialnum	stimulus_left	stimulus_right	stim_index	target_present	response	correct	latency
6.6.1	win	2022-12-14	13:53:29	13:55:22	112032	5ba854ed7c0ebe0001272f2d	972899042	1	practice_z	5	practice_z	1	stimuli_target_diamondsquares.svg	stimuli_distractor_diamondtriangles.svg	3	yes	0	0	2000
6.6.1	win	2022-12-14	13:53:29	13:55:22	112032	5ba854ed7c0ebe0001272f2d	972899042	1	practice_z	5	advance_on_keypress_ZEE	2	stimuli_target_diamondsquares.svg	stimuli_distractor_diamondtriangles.svg	3	yes	57	0	848
6.6.1	win	2022-12-14	13:53:29	13:55:27	116545	5ba854ed7c0ebe0001272f2d	972899042	1	practice_z	5	practice_z	3	stimuli_distractor_trianglediamonds.svg	stimuli_target_squarediamonds.svg	11	yes	0	0	2000
6.6.1	win	2022-12-14	13:53:29	13:55:27	116545	5ba854ed7c0ebe0001272f2d	972899042	1	practice_z	5	advance_on_keypress_ZEE	4	stimuli_distractor_trianglediamonds.svg	stimuli_target_squarediamonds.svg	11	yes	57	0	1011
6.6.1	win	2022-12-14	13:53:29	13:55:30	119901	5ba854ed7c0ebe0001272f2d	972899042	1	practice_z	5	practice_z	5	stimuli_distractor_diamondtriangles.svg	stimuli_target_trianglecircles.svg	9	yes	44	1	693
6.6.1	win	2022-12-14	13:53:29	13:55:30	119901	5ba854ed7c0ebe0001272f2d	972899042	1	practice_z	5	advance_on_keypress_ZEE	6	stimuli_distractor_diamondtriangles.svg	stimuli_target_trianglecircles.svg	9	yes	57	0	954
6.6.1	win	2022-12-14	13:53:29	13:55:34	123602	5ba854ed7c0ebe0001272f2d	972899042	1	practice_z	5	practice_z	7	stimuli_target_squarediamonds.svg	stimuli_distractor_diamondtriangles.svg	2	yes	44	1	1112
6.6.1	win	2022-12-14	13:53:29	13:55:34	123602	5ba854ed7c0ebe0001272f2d	972899042	1	practice_z	5	advance_on_keypress_ZEE	8	stimuli_target_squarediamonds.svg	stimuli_distractor_diamondtriangles.svg	2	yes	57	0	998
6.6.1	win	2022-12-14	13:53:29	13:55:37	127071	5ba854ed7c0ebe0001272f2d	972899042	1	practice_z	5	practice_z	9	stimuli_target_diamondsquares.svg	stimuli_distractor_trianglediamonds.svg	6	yes	44	1	818
6.6.1	win	2022-12-14	13:53:29	13:55:37	127071	5ba854ed7c0ebe0001272f2d	972899042	1	practice_z	5	advance_on_keypress_ZEE	10	stimuli_target_diamondsquares.svg	stimuli_distractor_trianglediamonds.svg	6	yes	57	0	572
6.6.1	win	2022-12-14	13:53:29	13:55:41	130336	5ba854ed7c0ebe0001272f2d	972899042	1	practice_z	5	practice_z	11	stimuli_target_squarediamonds.svg	stimuli_distractor_trianglediamonds.svg	5	yes	44	1	1052
6.6.1	win	2022-12-14	13:53:29	13:55:41	130336	5ba854ed7c0ebe0001272f2d	972899042	1	practice_z	5	advance_on_keypress_ZEE	12	stimuli_target_squarediamonds.svg	stimuli_distractor_trianglediamonds.svg	5	yes	57	0	394
6.6.1	win	2022-12-14	13:53:29	13:55:44	133375	5ba854ed7c0ebe0001272f2d	972899042	1	practice_z	5	practice_z	13	stimuli_distractor_trianglediamonds.svg	stimuli_target_circlediamonds.svg	10	yes	44	1	993
6.6.1	win	2022-12-14	13:53:29	13:55:44	133375	5ba854ed7c0ebe0001272f2d	972899042	1	practice_z	5	advance_on_keypress_ZEE	14	stimuli_distractor_trianglediamonds.svg	stimuli_target_circlediamonds.svg	10	yes	57	0	279
6.6.1	win	2022-12-14	13:53:29	13:55:46	136074	5ba854ed7c0ebe0001272f2d	972899042	1	practice_z	5	practice_z	15	stimuli_target_circlediamonds.svg	stimuli_distractor_diamondtriangles.svg	1	yes	44	1	761
6.6.1	win	2022-12-14	13:53:29	13:55:46	136074	5ba854ed7c0ebe0001272f2d	972899042	1	practice_z	5	advance_on_keypress_ZEE	16	stimuli_target_circlediamonds.svg	stimuli_distractor_diamondtriangles.svg	1	yes	57	0	480
6.6.1	win	2022-12-14	13:53:29	13:55:51	140211	5ba854ed7c0ebe0001272f2d	972899042	1	practice_z	5	practice_z	17	stimuli_distractor_diamondtriangles.svg	stimuli_target_diamondcircles.svg	8	yes	0	0	2000
6.6.1	win	2022-12-14	13:53:29	13:55:51	140211	5ba854ed7c0ebe0001272f2d	972899042	1	practice_z	5	advance_on_keypress_ZEE	18	stimuli_distractor_diamondtriangles.svg	stimuli_target_diamondcircles.svg	8	yes	57	0	449
6.6.1	win	2022-12-14	13:53:29	13:55:55	144308	5ba854ed7c0ebe0001272f2d	972899042	1	practice_z	5	practice_z	19	stimuli_distractor_diamondtriangles.svg	stimuli_distractor_trianglediamonds.svg	14	no	0	1	2000
6.6.1	win	2022-12-14	13:53:29	13:55:55	144308	5ba854ed7c0ebe0001272f2d	972899042	1	practice_z	5	advance_on_keypress_ZEE	20	stimuli_distractor_diamondtriangles.svg	stimuli_distractor_trianglediamonds.svg	14	no	57	0	311
6.6.1	win	2022-12-14	13:53:29	13:55:59	148255	5ba854ed7c0ebe0001272f2d	972899042	1	practice_z	5	practice_z	21	stimuli_distractor_diamondtriangles.svg	stimuli_distractor_diamondtriangles.svg	13	no	0	1	2000
6.6.1	win	2022-12-14	13:53:29	13:55:59	148255	5ba854ed7c0ebe0001272f2d	972899042	1	practice_z	5	advance_on_keypress_ZEE	22	stimuli_distractor_diamondtriangles.svg	stimuli_distractor_diamondtriangles.svg	13	no	57	0	254
6.6.1	win	2022-12-14	13:53:29	13:56:01	150969	5ba854ed7c0ebe0001272f2d	972899042	1	practice_z	5	practice_z	23	stimuli_target_circlediamonds.svg	stimuli_distractor_trianglediamonds.svg	4	yes	44	1	816
6.6.1	win	2022-12-14	13:53:29	13:56:01	150969	5ba854ed7c0ebe0001272f2d	972899042	1	practice_z	5	advance_on_keypress_ZEE	24	stimuli_target_circlediamonds.svg	stimuli_distractor_trianglediamonds.svg	4	yes	57	0	514
6.6.1	win	2022-12-14	13:53:29	13:56:05	154146	5ba854ed7c0ebe0001272f2d	972899042	1	practice_z	5	practice_z	25	stimuli_distractor_trianglediamonds.svg	stimuli_target_diamondcircles.svg	12	yes	44	1	1013
6.6.1	win	2022-12-14	13:53:29	13:56:05	154146	5ba854ed7c0ebe0001272f2d	972899042	1	practice_z	5	advance_on_keypress_ZEE	26	stimuli_distractor_trianglediamonds.svg	stimuli_target_diamondcircles.svg	12	yes	57	0	412
6.6.1	win	2022-12-14	13:53:29	13:56:08	157852	5ba854ed7c0ebe0001272f2d	972899042	1	practice_z	5	practice_z	27	stimuli_distractor_diamondtriangles.svg	stimuli_target_circletriangles.svg	7	yes	44	1	1638
6.6.1	win	2022-12-14	13:53:29	13:56:08	157852	5ba854ed7c0ebe0001272f2d	972899042	1	practice_z	5	advance_on_keypress_ZEE	28	stimuli_distractor_diamondtriangles.svg	stimuli_target_circletriangles.svg	7	yes	57	0	310
6.6.1	win	2022-12-14	13:53:29	13:56:12	161795	5ba854ed7c0ebe0001272f2d	972899042	1	practice_z	5	practice_z	29	stimuli_distractor_trianglediamonds.svg	stimuli_distractor_diamondtriangles.svg	16	no	0	1	2000
6.6.1	win	2022-12-14	13:53:29	13:56:12	161795	5ba854ed7c0ebe0001272f2d	972899042	1	practice_z	5	advance_on_keypress_ZEE	30	stimuli_distractor_trianglediamonds.svg	stimuli_distractor_diamondtriangles.svg	16	no	57	0	283
6.6.1	win	2022-12-14	13:53:29	13:56:16	165725	5ba854ed7c0ebe0001272f2d	972899042	1	practice_z	5	practice_z	31	stimuli_distractor_trianglediamonds.svg	stimuli_distractor_trianglediamonds.svg	15	no	0	1	2000
6.6.1	win	2022-12-14	13:53:29	13:56:16	165725	5ba854ed7c0ebe0001272f2d	972899042	1	practice_z	5	advance_on_keypress_ZEE	32	stimuli_distractor_trianglediamonds.svg	stimuli_distractor_trianglediamonds.svg	15	no	57	0	263
6.6.1	win	2022-12-14	13:53:29	13:56:24	173280	5ba854ed7c0ebe0001272f2d	972899042	1	main_z	7	main_z	1	stimuli_target_circletriangles.svg	stimuli_distractor_trianglediamonds.svg	1	yes	44	1	664
6.6.1	win	2022-12-14	13:53:29	13:56:24	173280	5ba854ed7c0ebe0001272f2d	972899042	1	main_z	7	advance_on_keypress_ZEE	2	stimuli_target_circletriangles.svg	stimuli_distractor_trianglediamonds.svg	1	yes	57	0	1558
6.6.1	win	2022-12-14	13:53:29	13:56:27	176544	5ba854ed7c0ebe0001272f2d	972899042	1	main_z	7	main_z	3	stimuli_distractor_diamondtriangles.svg	stimuli_target_diamondcircles.svg	31	yes	44	1	1064
6.6.1	win	2022-12-14	13:53:29	13:56:27	176544	5ba854ed7c0ebe0001272f2d	972899042	1	main_z	7	advance_on_keypress_ZEE	4	stimuli_distractor_diamondtriangles.svg	stimuli_target_diamondcircles.svg	31	yes	57	0	741
6.6.1	win	2022-12-14	13:53:29	13:56:29	178901	5ba854ed7c0ebe0001272f2d	972899042	1	main_z	7	main_z	5	stimuli_target_squarediamonds.svg	stimuli_distractor_trianglediamonds.svg	4	yes	44	1	973
6.6.1	win	2022-12-14	13:53:29	13:56:29	178901	5ba854ed7c0ebe0001272f2d	972899042	1	main_z	7	advance_on_keypress_ZEE	6	stimuli_target_squarediamonds.svg	stimuli_distractor_trianglediamonds.svg	4	yes	57	0	796
6.6.1	win	2022-12-14	13:53:29	13:56:32	181374	5ba854ed7c0ebe0001272f2d	972899042	1	main_z	7	main_z	7	stimuli_distractor_trianglediamonds.svg	stimuli_target_circlediamonds.svg	10	yes	44	1	1031
6.6.1	win	2022-12-14	13:53:29	13:56:32	181374	5ba854ed7c0ebe0001272f2d	972899042	1	main_z	7	advance_on_keypress_ZEE	8	stimuli_distractor_trianglediamonds.svg	stimuli_target_circlediamonds.svg	10	yes	57	0	708
6.6.1	win	2022-12-14	13:53:29	13:56:34	183648	5ba854ed7c0ebe0001272f2d	972899042	1	main_z	7	main_z	9	stimuli_distractor_diamondtriangles.svg	stimuli_target_squaretriangles.svg	15	yes	44	1	924
6.6.1	win	2022-12-14	13:53:29	13:56:34	183648	5ba854ed7c0ebe0001272f2d	972899042	1	main_z	7	advance_on_keypress_ZEE	10	stimuli_distractor_diamondtriangles.svg	stimuli_target_squaretriangles.svg	15	yes	57	0	752
6.6.1	win	2022-12-14	13:53:29	13:56:36	186104	5ba854ed7c0ebe0001272f2d	972899042	1	main_z	7	main_z	11	stimuli_distractor_diamondtriangles.svg	stimuli_target_squarediamonds.svg	16	yes	44	1	1065
6.6.1	win	2022-12-14	13:53:29	13:56:36	186104	5ba854ed7c0ebe0001272f2d	972899042	1	main_z	7	advance_on_keypress_ZEE	12	stimuli_distractor_diamondtriangles.svg	stimuli_target_squarediamonds.svg	16	yes	57	0	714
6.6.1	win	2022-12-14	13:53:29	13:56:39	188551	5ba854ed7c0ebe0001272f2d	972899042	1	main_z	7	main_z	13	stimuli_distractor_diamondtriangles.svg	stimuli_target_circletriangles.svg	13	yes	44	1	1079
6.6.1	win	2022-12-14	13:53:29	13:56:39	188551	5ba854ed7c0ebe0001272f2d	972899042	1	main_z	7	advance_on_keypress_ZEE	14	stimuli_distractor_diamondtriangles.svg	stimuli_target_circletriangles.svg	13	yes	57	0	592
6.6.1	win	2022-12-14	13:53:29	13:56:41	190824	5ba854ed7c0ebe0001272f2d	972899042	1	main_z	7	main_z	15	stimuli_target_squaretriangles.svg	stimuli_distractor_diamondtriangles.svg	7	yes	44	1	1038
6.6.1	win	2022-12-14	13:53:29	13:56:41	190824	5ba854ed7c0ebe0001272f2d	972899042	1	main_z	7	advance_on_keypress_ZEE	16	stimuli_target_squaretriangles.svg	stimuli_distractor_diamondtriangles.svg	7	yes	57	0	622
6.6.1	win	2022-12-14	13:53:29	13:56:44	194084	5ba854ed7c0ebe0001272f2d	972899042	1	main_z	7	main_z	17	stimuli_distractor_trianglediamonds.svg	stimuli_distractor_diamondtriangles.svg	36	no	0	1	2000
6.6.1	win	2022-12-14	13:53:29	13:56:44	194084	5ba854ed7c0ebe0001272f2d	972899042	1	main_z	7	advance_on_keypress_ZEE	18	stimuli_distractor_trianglediamonds.svg	stimuli_distractor_diamondtriangles.svg	36	no	57	0	327
6.6.1	win	2022-12-14	13:53:29	13:56:47	197049	5ba854ed7c0ebe0001272f2d	972899042	1	main_z	7	main_z	19	stimuli_target_diamondsquares.svg	stimuli_distractor_trianglediamonds.svg	20	yes	0	0	2000
6.6.1	win	2022-12-14	13:53:29	13:56:47	197049	5ba854ed7c0ebe0001272f2d	972899042	1	main_z	7	advance_on_keypress_ZEE	20	stimuli_target_diamondsquares.svg	stimuli_distractor_trianglediamonds.svg	20	yes	57	0	242
6.6.1	win	2022-12-14	13:53:29	13:56:49	198871	5ba854ed7c0ebe0001272f2d	972899042	1	main_z	7	main_z	21	stimuli_target_circlediamonds.svg	stimuli_distractor_trianglediamonds.svg	2	yes	44	1	941
6.6.1	win	2022-12-14	13:53:29	13:56:49	198871	5ba854ed7c0ebe0001272f2d	972899042	1	main_z	7	advance_on_keypress_ZEE	22	stimuli_target_circlediamonds.svg	stimuli_distractor_trianglediamonds.svg	2	yes	57	0	634
6.6.1	win	2022-12-14	13:53:29	13:56:52	201358	5ba854ed7c0ebe0001272f2d	972899042	1	main_z	7	main_z	23	stimuli_distractor_trianglediamonds.svg	stimuli_target_trianglecircles.svg	25	yes	44	1	1212
6.6.1	win	2022-12-14	13:53:29	13:56:52	201358	5ba854ed7c0ebe0001272f2d	972899042	1	main_z	7	advance_on_keypress_ZEE	24	stimuli_distractor_trianglediamonds.svg	stimuli_target_trianglecircles.svg	25	yes	57	0	515
6.6.1	win	2022-12-14	13:53:29	13:56:55	204527	5ba854ed7c0ebe0001272f2d	972899042	1	main_z	7	main_z	25	stimuli_distractor_diamondtriangles.svg	stimuli_target_diamondsquares.svg	32	yes	0	0	2000
6.6.1	win	2022-12-14	13:53:29	13:56:55	204527	5ba854ed7c0ebe0001272f2d	972899042	1	main_z	7	advance_on_keypress_ZEE	26	stimuli_distractor_diamondtriangles.svg	stimuli_target_diamondsquares.svg	32	yes	57	0	432
6.6.1	win	2022-12-14	13:53:29	13:56:57	206422	5ba854ed7c0ebe0001272f2d	972899042	1	main_z	7	main_z	27	stimuli_distractor_diamondtriangles.svg	stimuli_target_circlediamonds.svg	14	yes	44	1	815
6.6.1	win	2022-12-14	13:53:29	13:56:57	206422	5ba854ed7c0ebe0001272f2d	972899042	1	main_z	7	advance_on_keypress_ZEE	28	stimuli_distractor_diamondtriangles.svg	stimuli_target_circlediamonds.svg	14	yes	57	0	685
6.6.1	win	2022-12-14	13:53:29	13:57:00	209756	5ba854ed7c0ebe0001272f2d	972899042	1	main_z	7	main_z	29	stimuli_distractor_trianglediamonds.svg	stimuli_distractor_trianglediamonds.svg	34	no	0	1	2000
6.6.1	win	2022-12-14	13:53:29	13:57:00	209756	5ba854ed7c0ebe0001272f2d	972899042	1	main_z	7	advance_on_keypress_ZEE	30	stimuli_distractor_trianglediamonds.svg	stimuli_distractor_trianglediamonds.svg	34	no	57	0	373
6.6.1	win	2022-12-14	13:53:29	13:57:02	211934	5ba854ed7c0ebe0001272f2d	972899042	1	main_z	7	main_z	31	stimuli_target_circlediamonds.svg	stimuli_distractor_diamondtriangles.svg	6	yes	44	1	1164
6.6.1	win	2022-12-14	13:53:29	13:57:02	211934	5ba854ed7c0ebe0001272f2d	972899042	1	main_z	7	advance_on_keypress_ZEE	32	stimuli_target_circlediamonds.svg	stimuli_distractor_diamondtriangles.svg	6	yes	57	0	642
6.6.1	win	2022-12-14	13:53:29	13:57:05	214731	5ba854ed7c0ebe0001272f2d	972899042	1	main_z	7	main_z	33	stimuli_target_squarediamonds.svg	stimuli_distractor_diamondtriangles.svg	8	yes	44	1	1512
6.6.1	win	2022-12-14	13:53:29	13:57:05	214731	5ba854ed7c0ebe0001272f2d	972899042	1	main_z	7	advance_on_keypress_ZEE	34	stimuli_target_squarediamonds.svg	stimuli_distractor_diamondtriangles.svg	8	yes	57	0	685
6.6.1	win	2022-12-14	13:53:29	13:57:08	218066	5ba854ed7c0ebe0001272f2d	972899042	1	main_z	7	main_z	35	stimuli_distractor_trianglediamonds.svg	stimuli_distractor_diamondtriangles.svg	35	no	0	1	2000
6.6.1	win	2022-12-14	13:53:29	13:57:08	218066	5ba854ed7c0ebe0001272f2d	972899042	1	main_z	7	advance_on_keypress_ZEE	36	stimuli_distractor_trianglediamonds.svg	stimuli_distractor_diamondtriangles.svg	35	no	57	0	426
6.6.1	win	2022-12-14	13:53:29	13:57:12	221131	5ba854ed7c0ebe0001272f2d	972899042	1	main_z	7	main_z	37	stimuli_distractor_diamondtriangles.svg	stimuli_distractor_diamondtriangles.svg	40	no	0	1	2000
6.6.1	win	2022-12-14	13:53:29	13:57:12	221131	5ba854ed7c0ebe0001272f2d	972899042	1	main_z	7	advance_on_keypress_ZEE	38	stimuli_distractor_diamondtriangles.svg	stimuli_distractor_diamondtriangles.svg	40	no	57	0	330
6.6.1	win	2022-12-14	13:53:29	13:57:14	223139	5ba854ed7c0ebe0001272f2d	972899042	1	main_z	7	main_z	39	stimuli_target_diamondcircles.svg	stimuli_distractor_diamondtriangles.svg	23	yes	44	1	1026
6.6.1	win	2022-12-14	13:53:29	13:57:14	223139	5ba854ed7c0ebe0001272f2d	972899042	1	main_z	7	advance_on_keypress_ZEE	40	stimuli_target_diamondcircles.svg	stimuli_distractor_diamondtriangles.svg	23	yes	57	0	514
6.6.1	win	2022-12-14	13:53:29	13:57:17	226293	5ba854ed7c0ebe0001272f2d	972899042	1	main_z	7	main_z	41	stimuli_distractor_diamondtriangles.svg	stimuli_distractor_trianglediamonds.svg	38	no	0	1	2000
6.6.1	win	2022-12-14	13:53:29	13:57:17	226293	5ba854ed7c0ebe0001272f2d	972899042	1	main_z	7	advance_on_keypress_ZEE	42	stimuli_distractor_diamondtriangles.svg	stimuli_distractor_trianglediamonds.svg	38	no	57	0	291
6.6.1	win	2022-12-14	13:53:29	13:57:19	228136	5ba854ed7c0ebe0001272f2d	972899042	1	main_z	7	main_z	43	stimuli_target_squaretriangles.svg	stimuli_distractor_trianglediamonds.svg	3	yes	44	1	912
6.6.1	win	2022-12-14	13:53:29	13:57:19	228136	5ba854ed7c0ebe0001272f2d	972899042	1	main_z	7	advance_on_keypress_ZEE	44	stimuli_target_squaretriangles.svg	stimuli_distractor_trianglediamonds.svg	3	yes	57	0	525
6.6.1	win	2022-12-14	13:53:29	13:57:22	231290	5ba854ed7c0ebe0001272f2d	972899042	1	main_z	7	main_z	45	stimuli_distractor_trianglediamonds.svg	stimuli_distractor_trianglediamonds.svg	33	no	0	1	2000
6.6.1	win	2022-12-14	13:53:29	13:57:22	231290	5ba854ed7c0ebe0001272f2d	972899042	1	main_z	7	advance_on_keypress_ZEE	46	stimuli_distractor_trianglediamonds.svg	stimuli_distractor_trianglediamonds.svg	33	no	57	0	346
6.6.1	win	2022-12-14	13:53:29	13:57:24	233324	5ba854ed7c0ebe0001272f2d	972899042	1	main_z	7	main_z	47	stimuli_target_circletriangles.svg	stimuli_distractor_diamondtriangles.svg	5	yes	44	1	1037
6.6.1	win	2022-12-14	13:53:29	13:57:24	233324	5ba854ed7c0ebe0001272f2d	972899042	1	main_z	7	advance_on_keypress_ZEE	48	stimuli_target_circletriangles.svg	stimuli_distractor_diamondtriangles.svg	5	yes	57	0	729
6.6.1	win	2022-12-14	13:53:29	13:57:27	236702	5ba854ed7c0ebe0001272f2d	972899042	1	main_z	7	main_z	49	stimuli_target_trianglesquares.svg	stimuli_distractor_trianglediamonds.svg	18	yes	0	0	2000
6.6.1	win	2022-12-14	13:53:29	13:57:27	236702	5ba854ed7c0ebe0001272f2d	972899042	1	main_z	7	advance_on_keypress_ZEE	50	stimuli_target_trianglesquares.svg	stimuli_distractor_trianglediamonds.svg	18	yes	57	0	382
6.6.1	win	2022-12-14	13:53:29	13:57:29	239013	5ba854ed7c0ebe0001272f2d	972899042	1	main_z	7	main_z	51	stimuli_target_trianglecircles.svg	stimuli_distractor_diamondtriangles.svg	21	yes	44	1	1280
6.6.1	win	2022-12-14	13:53:29	13:57:29	239013	5ba854ed7c0ebe0001272f2d	972899042	1	main_z	7	advance_on_keypress_ZEE	52	stimuli_target_trianglecircles.svg	stimuli_distractor_diamondtriangles.svg	21	yes	57	0	415
6.6.1	win	2022-12-14	13:53:29	13:57:32	242082	5ba854ed7c0ebe0001272f2d	972899042	1	main_z	7	main_z	53	stimuli_distractor_diamondtriangles.svg	stimuli_distractor_trianglediamonds.svg	37	no	0	1	2000
6.6.1	win	2022-12-14	13:53:29	13:57:32	242082	5ba854ed7c0ebe0001272f2d	972899042	1	main_z	7	advance_on_keypress_ZEE	54	stimuli_distractor_diamondtriangles.svg	stimuli_distractor_trianglediamonds.svg	37	no	57	0	415
6.6.1	win	2022-12-14	13:53:29	13:57:35	244272	5ba854ed7c0ebe0001272f2d	972899042	1	main_z	7	main_z	55	stimuli_distractor_diamondtriangles.svg	stimuli_target_trianglecircles.svg	29	yes	44	1	1126
6.6.1	win	2022-12-14	13:53:29	13:57:35	244272	5ba854ed7c0ebe0001272f2d	972899042	1	main_z	7	advance_on_keypress_ZEE	56	stimuli_distractor_diamondtriangles.svg	stimuli_target_trianglecircles.svg	29	yes	57	0	427
6.6.1	win	2022-12-14	13:53:29	13:57:37	246471	5ba854ed7c0ebe0001272f2d	972899042	1	main_z	7	main_z	57	stimuli_target_diamondcircles.svg	stimuli_distractor_trianglediamonds.svg	19	yes	44	1	1144
6.6.1	win	2022-12-14	13:53:29	13:57:37	246471	5ba854ed7c0ebe0001272f2d	972899042	1	main_z	7	advance_on_keypress_ZEE	58	stimuli_target_diamondcircles.svg	stimuli_distractor_trianglediamonds.svg	19	yes	57	0	432
6.6.1	win	2022-12-14	13:53:29	13:57:40	249543	5ba854ed7c0ebe0001272f2d	972899042	1	main_z	7	main_z	59	stimuli_distractor_diamondtriangles.svg	stimuli_distractor_diamondtriangles.svg	39	no	0	1	2000
6.6.1	win	2022-12-14	13:53:29	13:57:40	249543	5ba854ed7c0ebe0001272f2d	972899042	1	main_z	7	advance_on_keypress_ZEE	60	stimuli_distractor_diamondtriangles.svg	stimuli_distractor_diamondtriangles.svg	39	no	57	0	557
6.6.1	win	2022-12-14	13:53:29	13:57:42	251768	5ba854ed7c0ebe0001272f2d	972899042	1	main_z	7	main_z	61	stimuli_target_diamondsquares.svg	stimuli_distractor_diamondtriangles.svg	24	yes	44	1	1028
6.6.1	win	2022-12-14	13:53:29	13:57:42	251768	5ba854ed7c0ebe0001272f2d	972899042	1	main_z	7	advance_on_keypress_ZEE	62	stimuli_target_diamondsquares.svg	stimuli_distractor_diamondtriangles.svg	24	yes	57	0	478
6.6.1	win	2022-12-14	13:53:29	13:57:45	254112	5ba854ed7c0ebe0001272f2d	972899042	1	main_z	7	main_z	63	stimuli_distractor_diamondtriangles.svg	stimuli_target_trianglesquares.svg	30	yes	44	1	1240
6.6.1	win	2022-12-14	13:53:29	13:57:45	254112	5ba854ed7c0ebe0001272f2d	972899042	1	main_z	7	advance_on_keypress_ZEE	64	stimuli_distractor_diamondtriangles.svg	stimuli_target_trianglesquares.svg	30	yes	57	0	421
6.6.1	win	2022-12-14	13:53:29	13:57:47	256317	5ba854ed7c0ebe0001272f2d	972899042	1	main_z	7	main_z	65	stimuli_distractor_trianglediamonds.svg	stimuli_target_diamondsquares.svg	28	yes	44	1	1147
6.6.1	win	2022-12-14	13:53:29	13:57:47	256317	5ba854ed7c0ebe0001272f2d	972899042	1	main_z	7	advance_on_keypress_ZEE	66	stimuli_distractor_trianglediamonds.svg	stimuli_target_diamondsquares.svg	28	yes	57	0	581
6.6.1	win	2022-12-14	13:53:29	13:57:50	259186	5ba854ed7c0ebe0001272f2d	972899042	1	main_z	7	main_z	67	stimuli_distractor_trianglediamonds.svg	stimuli_target_squaretriangles.svg	11	yes	44	1	1634
6.6.1	win	2022-12-14	13:53:29	13:57:50	259186	5ba854ed7c0ebe0001272f2d	972899042	1	main_z	7	advance_on_keypress_ZEE	68	stimuli_distractor_trianglediamonds.svg	stimuli_target_squaretriangles.svg	11	yes	57	0	361
6.6.1	win	2022-12-14	13:53:29	13:57:52	261454	5ba854ed7c0ebe0001272f2d	972899042	1	main_z	7	main_z	69	stimuli_distractor_trianglediamonds.svg	stimuli_target_diamondcircles.svg	27	yes	44	1	1271
6.6.1	win	2022-12-14	13:53:29	13:57:52	261454	5ba854ed7c0ebe0001272f2d	972899042	1	main_z	7	advance_on_keypress_ZEE	70	stimuli_distractor_trianglediamonds.svg	stimuli_target_diamondcircles.svg	27	yes	57	0	426
6.6.1	win	2022-12-14	13:53:29	13:57:54	263526	5ba854ed7c0ebe0001272f2d	972899042	1	main_z	7	main_z	71	stimuli_target_trianglecircles.svg	stimuli_distractor_trianglediamonds.svg	17	yes	44	1	1011
6.6.1	win	2022-12-14	13:53:29	13:57:54	263526	5ba854ed7c0ebe0001272f2d	972899042	1	main_z	7	advance_on_keypress_ZEE	72	stimuli_target_trianglecircles.svg	stimuli_distractor_trianglediamonds.svg	17	yes	57	0	484
6.6.1	win	2022-12-14	13:53:29	13:57:56	265805	5ba854ed7c0ebe0001272f2d	972899042	1	main_z	7	main_z	73	stimuli_distractor_trianglediamonds.svg	stimuli_target_circletriangles.svg	9	yes	44	1	1159
6.6.1	win	2022-12-14	13:53:29	13:57:56	265805	5ba854ed7c0ebe0001272f2d	972899042	1	main_z	7	advance_on_keypress_ZEE	74	stimuli_distractor_trianglediamonds.svg	stimuli_target_circletriangles.svg	9	yes	57	0	478
6.6.1	win	2022-12-14	13:53:29	13:57:59	268911	5ba854ed7c0ebe0001272f2d	972899042	1	main_z	7	main_z	75	stimuli_target_trianglesquares.svg	stimuli_distractor_diamondtriangles.svg	22	yes	0	0	2000
6.6.1	win	2022-12-14	13:53:29	13:57:59	268911	5ba854ed7c0ebe0001272f2d	972899042	1	main_z	7	advance_on_keypress_ZEE	76	stimuli_target_trianglesquares.svg	stimuli_distractor_diamondtriangles.svg	22	yes	57	0	907
6.6.1	win	2022-12-14	13:53:29	13:58:02	271250	5ba854ed7c0ebe0001272f2d	972899042	1	main_z	7	main_z	77	stimuli_distractor_trianglediamonds.svg	stimuli_target_squarediamonds.svg	12	yes	44	1	790
6.6.1	win	2022-12-14	13:53:29	13:58:02	271250	5ba854ed7c0ebe0001272f2d	972899042	1	main_z	7	advance_on_keypress_ZEE	78	stimuli_distractor_trianglediamonds.svg	stimuli_target_squarediamonds.svg	12	yes	57	0	489
6.6.1	win	2022-12-14	13:53:29	13:58:04	273420	5ba854ed7c0ebe0001272f2d	972899042	1	main_z	7	main_z	79	stimuli_distractor_trianglediamonds.svg	stimuli_target_trianglesquares.svg	26	yes	44	1	1046
6.6.1	win	2022-12-14	13:53:29	13:58:04	273420	5ba854ed7c0ebe0001272f2d	972899042	1	main_z	7	advance_on_keypress_ZEE	80	stimuli_distractor_trianglediamonds.svg	stimuli_target_trianglesquares.svg	26	yes	57	0	405
6.6.1	win	2022-12-14	13:53:29	13:58:06	275585	5ba854ed7c0ebe0001272f2d	972899042	1	main_z	7	main_z	81	stimuli_distractor_diamondtriangles.svg	stimuli_target_trianglesquares.svg	30	yes	44	1	1113
6.6.1	win	2022-12-14	13:53:29	13:58:06	275585	5ba854ed7c0ebe0001272f2d	972899042	1	main_z	7	advance_on_keypress_ZEE	82	stimuli_distractor_diamondtriangles.svg	stimuli_target_trianglesquares.svg	30	yes	57	0	368
6.6.1	win	2022-12-14	13:53:29	13:58:09	278604	5ba854ed7c0ebe0001272f2d	972899042	1	main_z	7	main_z	83	stimuli_target_trianglesquares.svg	stimuli_distractor_diamondtriangles.svg	22	yes	0	0	2000
6.6.1	win	2022-12-14	13:53:29	13:58:09	278604	5ba854ed7c0ebe0001272f2d	972899042	1	main_z	7	advance_on_keypress_ZEE	84	stimuli_target_trianglesquares.svg	stimuli_distractor_diamondtriangles.svg	22	yes	57	0	499
6.6.1	win	2022-12-14	13:53:29	13:58:11	280705	5ba854ed7c0ebe0001272f2d	972899042	1	main_z	7	main_z	85	stimuli_distractor_trianglediamonds.svg	stimuli_target_trianglecircles.svg	25	yes	44	1	953
6.6.1	win	2022-12-14	13:53:29	13:58:11	280705	5ba854ed7c0ebe0001272f2d	972899042	1	main_z	7	advance_on_keypress_ZEE	86	stimuli_distractor_trianglediamonds.svg	stimuli_target_trianglecircles.svg	25	yes	57	0	375
6.6.1	win	2022-12-14	13:53:29	13:58:13	282781	5ba854ed7c0ebe0001272f2d	972899042	1	main_z	7	main_z	87	stimuli_distractor_trianglediamonds.svg	stimuli_distractor_trianglediamonds.svg	33	no	44	0	1064
6.6.1	win	2022-12-14	13:53:29	13:58:13	282781	5ba854ed7c0ebe0001272f2d	972899042	1	main_z	7	advance_on_keypress_ZEE	88	stimuli_distractor_trianglediamonds.svg	stimuli_distractor_trianglediamonds.svg	33	no	57	0	364
6.6.1	win	2022-12-14	13:53:29	13:58:15	284803	5ba854ed7c0ebe0001272f2d	972899042	1	main_z	7	main_z	89	stimuli_target_squaretriangles.svg	stimuli_distractor_diamondtriangles.svg	7	yes	44	1	1005
6.6.1	win	2022-12-14	13:53:29	13:58:15	284803	5ba854ed7c0ebe0001272f2d	972899042	1	main_z	7	advance_on_keypress_ZEE	90	stimuli_target_squaretriangles.svg	stimuli_distractor_diamondtriangles.svg	7	yes	57	0	379
6.6.1	win	2022-12-14	13:53:29	13:58:18	287831	5ba854ed7c0ebe0001272f2d	972899042	1	main_z	7	main_z	91	stimuli_distractor_diamondtriangles.svg	stimuli_distractor_trianglediamonds.svg	37	no	0	1	2000
6.6.1	win	2022-12-14	13:53:29	13:58:18	287831	5ba854ed7c0ebe0001272f2d	972899042	1	main_z	7	advance_on_keypress_ZEE	92	stimuli_distractor_diamondtriangles.svg	stimuli_distractor_trianglediamonds.svg	37	no	57	0	590
6.6.1	win	2022-12-14	13:53:29	13:58:20	289936	5ba854ed7c0ebe0001272f2d	972899042	1	main_z	7	main_z	93	stimuli_target_diamondcircles.svg	stimuli_distractor_diamondtriangles.svg	23	yes	44	1	874
6.6.1	win	2022-12-14	13:53:29	13:58:20	289936	5ba854ed7c0ebe0001272f2d	972899042	1	main_z	7	advance_on_keypress_ZEE	94	stimuli_target_diamondcircles.svg	stimuli_distractor_diamondtriangles.svg	23	yes	57	0	390
6.6.1	win	2022-12-14	13:53:29	13:58:22	291813	5ba854ed7c0ebe0001272f2d	972899042	1	main_z	7	main_z	95	stimuli_target_squaretriangles.svg	stimuli_distractor_trianglediamonds.svg	3	yes	44	1	852
6.6.1	win	2022-12-14	13:53:29	13:58:22	291813	5ba854ed7c0ebe0001272f2d	972899042	1	main_z	7	advance_on_keypress_ZEE	96	stimuli_target_squaretriangles.svg	stimuli_distractor_trianglediamonds.svg	3	yes	57	0	352
6.6.1	win	2022-12-14	13:53:29	13:58:24	293738	5ba854ed7c0ebe0001272f2d	972899042	1	main_z	7	main_z	97	stimuli_distractor_trianglediamonds.svg	stimuli_target_squarediamonds.svg	12	yes	44	1	930
6.6.1	win	2022-12-14	13:53:29	13:58:24	293738	5ba854ed7c0ebe0001272f2d	972899042	1	main_z	7	advance_on_keypress_ZEE	98	stimuli_distractor_trianglediamonds.svg	stimuli_target_squarediamonds.svg	12	yes	57	0	354
6.6.1	win	2022-12-14	13:53:29	13:58:27	296741	5ba854ed7c0ebe0001272f2d	972899042	1	main_z	7	main_z	99	stimuli_distractor_diamondtriangles.svg	stimuli_distractor_diamondtriangles.svg	39	no	0	1	2000
6.6.1	win	2022-12-14	13:53:29	13:58:27	296741	5ba854ed7c0ebe0001272f2d	972899042	1	main_z	7	advance_on_keypress_ZEE	100	stimuli_distractor_diamondtriangles.svg	stimuli_distractor_diamondtriangles.svg	39	no	57	0	334
6.6.1	win	2022-12-14	13:53:29	13:58:29	298670	5ba854ed7c0ebe0001272f2d	972899042	1	main_z	7	main_z	101	stimuli_distractor_diamondtriangles.svg	stimuli_target_circlediamonds.svg	14	yes	44	1	949
6.6.1	win	2022-12-14	13:53:29	13:58:29	298670	5ba854ed7c0ebe0001272f2d	972899042	1	main_z	7	advance_on_keypress_ZEE	102	stimuli_distractor_diamondtriangles.svg	stimuli_target_circlediamonds.svg	14	yes	57	0	368
6.6.1	win	2022-12-14	13:53:29	13:58:31	300791	5ba854ed7c0ebe0001272f2d	972899042	1	main_z	7	main_z	103	stimuli_target_diamondsquares.svg	stimuli_distractor_trianglediamonds.svg	20	yes	44	1	1104
6.6.1	win	2022-12-14	13:53:29	13:58:31	300791	5ba854ed7c0ebe0001272f2d	972899042	1	main_z	7	advance_on_keypress_ZEE	104	stimuli_target_diamondsquares.svg	stimuli_distractor_trianglediamonds.svg	20	yes	57	0	384
6.6.1	win	2022-12-14	13:53:29	13:58:33	302932	5ba854ed7c0ebe0001272f2d	972899042	1	main_z	7	main_z	105	stimuli_distractor_diamondtriangles.svg	stimuli_target_diamondcircles.svg	31	yes	44	1	1114
6.6.1	win	2022-12-14	13:53:29	13:58:33	302932	5ba854ed7c0ebe0001272f2d	972899042	1	main_z	7	advance_on_keypress_ZEE	106	stimuli_distractor_diamondtriangles.svg	stimuli_target_diamondcircles.svg	31	yes	57	0	443
6.6.1	win	2022-12-14	13:53:29	13:58:36	305323	5ba854ed7c0ebe0001272f2d	972899042	1	main_z	7	main_z	107	stimuli_distractor_trianglediamonds.svg	stimuli_target_trianglesquares.svg	26	yes	44	1	1305
6.6.1	win	2022-12-14	13:53:29	13:58:36	305323	5ba854ed7c0ebe0001272f2d	972899042	1	main_z	7	advance_on_keypress_ZEE	108	stimuli_distractor_trianglediamonds.svg	stimuli_target_trianglesquares.svg	26	yes	57	0	463
6.6.1	win	2022-12-14	13:53:29	13:58:38	307678	5ba854ed7c0ebe0001272f2d	972899042	1	main_z	7	main_z	109	stimuli_distractor_trianglediamonds.svg	stimuli_target_circletriangles.svg	9	yes	44	1	1246
6.6.1	win	2022-12-14	13:53:29	13:58:38	307678	5ba854ed7c0ebe0001272f2d	972899042	1	main_z	7	advance_on_keypress_ZEE	110	stimuli_distractor_trianglediamonds.svg	stimuli_target_circletriangles.svg	9	yes	57	0	461
6.6.1	win	2022-12-14	13:53:29	13:58:40	310016	5ba854ed7c0ebe0001272f2d	972899042	1	main_z	7	main_z	111	stimuli_target_circletriangles.svg	stimuli_distractor_diamondtriangles.svg	5	yes	44	1	1235
6.6.1	win	2022-12-14	13:53:29	13:58:40	310016	5ba854ed7c0ebe0001272f2d	972899042	1	main_z	7	advance_on_keypress_ZEE	112	stimuli_target_circletriangles.svg	stimuli_distractor_diamondtriangles.svg	5	yes	57	0	463
6.6.1	win	2022-12-14	13:53:29	13:58:43	312414	5ba854ed7c0ebe0001272f2d	972899042	1	main_z	7	main_z	113	stimuli_distractor_diamondtriangles.svg	stimuli_target_squaretriangles.svg	15	yes	44	1	1285
6.6.1	win	2022-12-14	13:53:29	13:58:43	312414	5ba854ed7c0ebe0001272f2d	972899042	1	main_z	7	advance_on_keypress_ZEE	114	stimuli_distractor_diamondtriangles.svg	stimuli_target_squaretriangles.svg	15	yes	57	0	486
6.6.1	win	2022-12-14	13:53:29	13:58:45	314885	5ba854ed7c0ebe0001272f2d	972899042	1	main_z	7	main_z	115	stimuli_target_circletriangles.svg	stimuli_distractor_trianglediamonds.svg	1	yes	44	1	1342
6.6.1	win	2022-12-14	13:53:29	13:58:45	314885	5ba854ed7c0ebe0001272f2d	972899042	1	main_z	7	advance_on_keypress_ZEE	116	stimuli_target_circletriangles.svg	stimuli_distractor_trianglediamonds.svg	1	yes	57	0	498
6.6.1	win	2022-12-14	13:53:29	13:58:48	317140	5ba854ed7c0ebe0001272f2d	972899042	1	main_z	7	main_z	117	stimuli_target_trianglecircles.svg	stimuli_distractor_diamondtriangles.svg	21	yes	44	1	1115
6.6.1	win	2022-12-14	13:53:29	13:58:48	317140	5ba854ed7c0ebe0001272f2d	972899042	1	main_z	7	advance_on_keypress_ZEE	118	stimuli_target_trianglecircles.svg	stimuli_distractor_diamondtriangles.svg	21	yes	57	0	369
6.6.1	win	2022-12-14	13:53:29	13:58:51	320156	5ba854ed7c0ebe0001272f2d	972899042	1	main_z	7	main_z	119	stimuli_target_trianglesquares.svg	stimuli_distractor_trianglediamonds.svg	18	yes	0	0	2000
6.6.1	win	2022-12-14	13:53:29	13:58:51	320156	5ba854ed7c0ebe0001272f2d	972899042	1	main_z	7	advance_on_keypress_ZEE	120	stimuli_target_trianglesquares.svg	stimuli_distractor_trianglediamonds.svg	18	yes	57	0	410
6.6.1	win	2022-12-14	13:53:29	13:58:53	322450	5ba854ed7c0ebe0001272f2d	972899042	1	main_z	7	main_z	121	stimuli_distractor_diamondtriangles.svg	stimuli_target_squarediamonds.svg	16	yes	44	1	1246
6.6.1	win	2022-12-14	13:53:29	13:58:53	322450	5ba854ed7c0ebe0001272f2d	972899042	1	main_z	7	advance_on_keypress_ZEE	122	stimuli_distractor_diamondtriangles.svg	stimuli_target_squarediamonds.svg	16	yes	57	0	432
6.6.1	win	2022-12-14	13:53:29	13:58:55	324629	5ba854ed7c0ebe0001272f2d	972899042	1	main_z	7	main_z	123	stimuli_target_trianglecircles.svg	stimuli_distractor_trianglediamonds.svg	17	yes	44	1	1094
6.6.1	win	2022-12-14	13:53:29	13:58:55	324629	5ba854ed7c0ebe0001272f2d	972899042	1	main_z	7	advance_on_keypress_ZEE	124	stimuli_target_trianglecircles.svg	stimuli_distractor_trianglediamonds.svg	17	yes	57	0	408
6.6.1	win	2022-12-14	13:53:29	13:58:58	327667	5ba854ed7c0ebe0001272f2d	972899042	1	main_z	7	main_z	125	stimuli_distractor_trianglediamonds.svg	stimuli_distractor_diamondtriangles.svg	35	no	0	1	2000
6.6.1	win	2022-12-14	13:53:29	13:58:58	327667	5ba854ed7c0ebe0001272f2d	972899042	1	main_z	7	advance_on_keypress_ZEE	126	stimuli_distractor_trianglediamonds.svg	stimuli_distractor_diamondtriangles.svg	35	no	57	0	573
6.6.1	win	2022-12-14	13:53:29	13:59:01	330881	5ba854ed7c0ebe0001272f2d	972899042	1	main_z	7	main_z	127	stimuli_distractor_trianglediamonds.svg	stimuli_target_diamondsquares.svg	28	yes	0	0	2000
6.6.1	win	2022-12-14	13:53:29	13:59:01	330881	5ba854ed7c0ebe0001272f2d	972899042	1	main_z	7	advance_on_keypress_ZEE	128	stimuli_distractor_trianglediamonds.svg	stimuli_target_diamondsquares.svg	28	yes	57	0	376
6.6.1	win	2022-12-14	13:53:29	13:59:03	332793	5ba854ed7c0ebe0001272f2d	972899042	1	main_z	7	main_z	129	stimuli_target_squarediamonds.svg	stimuli_distractor_diamondtriangles.svg	8	yes	44	1	897
6.6.1	win	2022-12-14	13:53:29	13:59:03	332793	5ba854ed7c0ebe0001272f2d	972899042	1	main_z	7	advance_on_keypress_ZEE	130	stimuli_target_squarediamonds.svg	stimuli_distractor_diamondtriangles.svg	8	yes	57	0	345
6.6.1	win	2022-12-14	13:53:29	13:59:05	334550	5ba854ed7c0ebe0001272f2d	972899042	1	main_z	7	main_z	131	stimuli_distractor_trianglediamonds.svg	stimuli_target_squaretriangles.svg	11	yes	44	1	772
6.6.1	win	2022-12-14	13:53:29	13:59:05	334550	5ba854ed7c0ebe0001272f2d	972899042	1	main_z	7	advance_on_keypress_ZEE	132	stimuli_distractor_trianglediamonds.svg	stimuli_target_squaretriangles.svg	11	yes	57	0	375
6.6.1	win	2022-12-14	13:53:29	13:59:08	337560	5ba854ed7c0ebe0001272f2d	972899042	1	main_z	7	main_z	133	stimuli_distractor_trianglediamonds.svg	stimuli_distractor_diamondtriangles.svg	36	no	0	1	2000
6.6.1	win	2022-12-14	13:53:29	13:59:08	337560	5ba854ed7c0ebe0001272f2d	972899042	1	main_z	7	advance_on_keypress_ZEE	134	stimuli_distractor_trianglediamonds.svg	stimuli_distractor_diamondtriangles.svg	36	no	57	0	306
6.6.1	win	2022-12-14	13:53:29	13:59:10	339272	5ba854ed7c0ebe0001272f2d	972899042	1	main_z	7	main_z	135	stimuli_distractor_diamondtriangles.svg	stimuli_target_trianglecircles.svg	29	yes	44	1	765
6.6.1	win	2022-12-14	13:53:29	13:59:10	339272	5ba854ed7c0ebe0001272f2d	972899042	1	main_z	7	advance_on_keypress_ZEE	136	stimuli_distractor_diamondtriangles.svg	stimuli_target_trianglecircles.svg	29	yes	57	0	376
6.6.1	win	2022-12-14	13:53:29	13:59:12	341285	5ba854ed7c0ebe0001272f2d	972899042	1	main_z	7	main_z	137	stimuli_distractor_trianglediamonds.svg	stimuli_target_diamondcircles.svg	27	yes	44	1	996
6.6.1	win	2022-12-14	13:53:29	13:59:12	341285	5ba854ed7c0ebe0001272f2d	972899042	1	main_z	7	advance_on_keypress_ZEE	138	stimuli_distractor_trianglediamonds.svg	stimuli_target_diamondcircles.svg	27	yes	57	0	375
6.6.1	win	2022-12-14	13:53:29	13:59:14	343367	5ba854ed7c0ebe0001272f2d	972899042	1	main_z	7	main_z	139	stimuli_target_diamondcircles.svg	stimuli_distractor_trianglediamonds.svg	19	yes	44	1	1062
6.6.1	win	2022-12-14	13:53:29	13:59:14	343367	5ba854ed7c0ebe0001272f2d	972899042	1	main_z	7	advance_on_keypress_ZEE	140	stimuli_target_diamondcircles.svg	stimuli_distractor_trianglediamonds.svg	19	yes	57	0	355
6.6.1	win	2022-12-14	13:53:29	13:59:17	346370	5ba854ed7c0ebe0001272f2d	972899042	1	main_z	7	main_z	141	stimuli_distractor_diamondtriangles.svg	stimuli_distractor_diamondtriangles.svg	40	no	0	1	2000
6.6.1	win	2022-12-14	13:53:29	13:59:17	346370	5ba854ed7c0ebe0001272f2d	972899042	1	main_z	7	advance_on_keypress_ZEE	142	stimuli_distractor_diamondtriangles.svg	stimuli_distractor_diamondtriangles.svg	40	no	57	0	756
6.6.1	win	2022-12-14	13:53:29	13:59:19	348527	5ba854ed7c0ebe0001272f2d	972899042	1	main_z	7	main_z	143	stimuli_target_circlediamonds.svg	stimuli_distractor_trianglediamonds.svg	2	yes	44	1	760
6.6.1	win	2022-12-14	13:53:29	13:59:19	348527	5ba854ed7c0ebe0001272f2d	972899042	1	main_z	7	advance_on_keypress_ZEE	144	stimuli_target_circlediamonds.svg	stimuli_distractor_trianglediamonds.svg	2	yes	57	0	387
6.6.1	win	2022-12-14	13:53:29	13:59:22	351549	5ba854ed7c0ebe0001272f2d	972899042	1	main_z	7	main_z	145	stimuli_distractor_trianglediamonds.svg	stimuli_distractor_trianglediamonds.svg	34	no	0	1	2000
6.6.1	win	2022-12-14	13:53:29	13:59:22	351549	5ba854ed7c0ebe0001272f2d	972899042	1	main_z	7	advance_on_keypress_ZEE	146	stimuli_distractor_trianglediamonds.svg	stimuli_distractor_trianglediamonds.svg	34	no	57	0	296
6.6.1	win	2022-12-14	13:53:29	13:59:24	353382	5ba854ed7c0ebe0001272f2d	972899042	1	main_z	7	main_z	147	stimuli_target_circlediamonds.svg	stimuli_distractor_diamondtriangles.svg	6	yes	44	1	885
6.6.1	win	2022-12-14	13:53:29	13:59:24	353382	5ba854ed7c0ebe0001272f2d	972899042	1	main_z	7	advance_on_keypress_ZEE	148	stimuli_target_circlediamonds.svg	stimuli_distractor_diamondtriangles.svg	6	yes	57	0	507
6.6.1	win	2022-12-14	13:53:29	13:59:26	355427	5ba854ed7c0ebe0001272f2d	972899042	1	main_z	7	main_z	149	stimuli_distractor_diamondtriangles.svg	stimuli_target_circletriangles.svg	13	yes	44	1	898
6.6.1	win	2022-12-14	13:53:29	13:59:26	355427	5ba854ed7c0ebe0001272f2d	972899042	1	main_z	7	advance_on_keypress_ZEE	150	stimuli_distractor_diamondtriangles.svg	stimuli_target_circletriangles.svg	13	yes	57	0	422
6.6.1	win	2022-12-14	13:53:29	13:59:28	357452	5ba854ed7c0ebe0001272f2d	972899042	1	main_z	7	main_z	151	stimuli_distractor_diamondtriangles.svg	stimuli_target_diamondsquares.svg	32	yes	44	1	958
6.6.1	win	2022-12-14	13:53:29	13:59:28	357452	5ba854ed7c0ebe0001272f2d	972899042	1	main_z	7	advance_on_keypress_ZEE	152	stimuli_distractor_diamondtriangles.svg	stimuli_target_diamondsquares.svg	32	yes	57	0	323
6.6.1	win	2022-12-14	13:53:29	13:59:31	360409	5ba854ed7c0ebe0001272f2d	972899042	1	main_z	7	main_z	153	stimuli_distractor_diamondtriangles.svg	stimuli_distractor_trianglediamonds.svg	38	no	0	1	2000
6.6.1	win	2022-12-14	13:53:29	13:59:31	360409	5ba854ed7c0ebe0001272f2d	972899042	1	main_z	7	advance_on_keypress_ZEE	154	stimuli_distractor_diamondtriangles.svg	stimuli_distractor_trianglediamonds.svg	38	no	57	0	312
6.6.1	win	2022-12-14	13:53:29	13:59:33	362337	5ba854ed7c0ebe0001272f2d	972899042	1	main_z	7	main_z	155	stimuli_target_squarediamonds.svg	stimuli_distractor_trianglediamonds.svg	4	yes	44	1	980
6.6.1	win	2022-12-14	13:53:29	13:59:33	362337	5ba854ed7c0ebe0001272f2d	972899042	1	main_z	7	advance_on_keypress_ZEE	156	stimuli_target_squarediamonds.svg	stimuli_distractor_trianglediamonds.svg	4	yes	57	0	316
6.6.1	win	2022-12-14	13:53:29	13:59:35	364263	5ba854ed7c0ebe0001272f2d	972899042	1	main_z	7	main_z	157	stimuli_distractor_trianglediamonds.svg	stimuli_target_circlediamonds.svg	10	yes	44	1	958
6.6.1	win	2022-12-14	13:53:29	13:59:35	364263	5ba854ed7c0ebe0001272f2d	972899042	1	main_z	7	advance_on_keypress_ZEE	158	stimuli_distractor_trianglediamonds.svg	stimuli_target_circlediamonds.svg	10	yes	57	0	351
6.6.1	win	2022-12-14	13:53:29	13:59:37	366211	5ba854ed7c0ebe0001272f2d	972899042	1	main_z	7	main_z	159	stimuli_target_diamondsquares.svg	stimuli_distractor_diamondtriangles.svg	24	yes	44	1	957
6.6.1	win	2022-12-14	13:53:29	13:59:37	366211	5ba854ed7c0ebe0001272f2d	972899042	1	main_z	7	advance_on_keypress_ZEE	160	stimuli_target_diamondsquares.svg	stimuli_distractor_diamondtriangles.svg	24	yes	57	0	349
6.6.1	win	2022-12-14	13:53:29	14:00:06	396058	5ba854ed7c0ebe0001272f2d	972899042	1	practice_slash	9	practice_slash	1	stimuli_distractor_diamondtriangles.svg	stimuli_target_trianglecircles.svg	9	yes	53	1	657
6.6.1	win	2022-12-14	13:53:29	14:00:06	396058	5ba854ed7c0ebe0001272f2d	972899042	1	practice_slash	9	advance_on_keypress_SLASH	2	stimuli_distractor_diamondtriangles.svg	stimuli_target_trianglecircles.svg	9	yes	57	0	422
6.6.1	win	2022-12-14	13:53:29	14:00:10	399123	5ba854ed7c0ebe0001272f2d	972899042	1	practice_slash	9	practice_slash	3	stimuli_target_circlediamonds.svg	stimuli_distractor_diamondtriangles.svg	1	yes	53	1	991
6.6.1	win	2022-12-14	13:53:29	14:00:10	399123	5ba854ed7c0ebe0001272f2d	972899042	1	practice_slash	9	advance_on_keypress_SLASH	4	stimuli_target_circlediamonds.svg	stimuli_distractor_diamondtriangles.svg	1	yes	57	0	404
6.6.1	win	2022-12-14	13:53:29	14:00:13	402135	5ba854ed7c0ebe0001272f2d	972899042	1	practice_slash	9	practice_slash	5	stimuli_target_squarediamonds.svg	stimuli_distractor_diamondtriangles.svg	2	yes	53	1	972
6.6.1	win	2022-12-14	13:53:29	14:00:13	402135	5ba854ed7c0ebe0001272f2d	972899042	1	practice_slash	9	advance_on_keypress_SLASH	6	stimuli_target_squarediamonds.svg	stimuli_distractor_diamondtriangles.svg	2	yes	57	0	826
6.6.1	win	2022-12-14	13:53:29	14:00:17	406594	5ba854ed7c0ebe0001272f2d	972899042	1	practice_slash	9	practice_slash	7	stimuli_distractor_trianglediamonds.svg	stimuli_distractor_trianglediamonds.svg	15	no	0	1	2000
6.6.1	win	2022-12-14	13:53:29	14:00:17	406594	5ba854ed7c0ebe0001272f2d	972899042	1	practice_slash	9	advance_on_keypress_SLASH	8	stimuli_distractor_trianglediamonds.svg	stimuli_distractor_trianglediamonds.svg	15	no	57	0	365
6.6.1	win	2022-12-14	13:53:29	14:00:20	409617	5ba854ed7c0ebe0001272f2d	972899042	1	practice_slash	9	practice_slash	9	stimuli_target_diamondsquares.svg	stimuli_distractor_trianglediamonds.svg	6	yes	53	1	1009
6.6.1	win	2022-12-14	13:53:29	14:00:20	409617	5ba854ed7c0ebe0001272f2d	972899042	1	practice_slash	9	advance_on_keypress_SLASH	10	stimuli_target_diamondsquares.svg	stimuli_distractor_trianglediamonds.svg	6	yes	57	0	379
6.6.1	win	2022-12-14	13:53:29	14:00:24	413656	5ba854ed7c0ebe0001272f2d	972899042	1	practice_slash	9	practice_slash	11	stimuli_distractor_diamondtriangles.svg	stimuli_distractor_diamondtriangles.svg	13	no	0	1	2000
6.6.1	win	2022-12-14	13:53:29	14:00:24	413656	5ba854ed7c0ebe0001272f2d	972899042	1	practice_slash	9	advance_on_keypress_SLASH	12	stimuli_distractor_diamondtriangles.svg	stimuli_distractor_diamondtriangles.svg	13	no	57	0	463
6.6.1	win	2022-12-14	13:53:29	14:00:27	416670	5ba854ed7c0ebe0001272f2d	972899042	1	practice_slash	9	practice_slash	13	stimuli_distractor_diamondtriangles.svg	stimuli_target_circletriangles.svg	7	yes	53	1	901
6.6.1	win	2022-12-14	13:53:29	14:00:27	416670	5ba854ed7c0ebe0001272f2d	972899042	1	practice_slash	9	advance_on_keypress_SLASH	14	stimuli_distractor_diamondtriangles.svg	stimuli_target_circletriangles.svg	7	yes	57	0	574
6.6.1	win	2022-12-14	13:53:29	14:00:30	419626	5ba854ed7c0ebe0001272f2d	972899042	1	practice_slash	9	practice_slash	15	stimuli_distractor_trianglediamonds.svg	stimuli_target_diamondcircles.svg	12	yes	53	1	744
6.6.1	win	2022-12-14	13:53:29	14:00:30	419626	5ba854ed7c0ebe0001272f2d	972899042	1	practice_slash	9	advance_on_keypress_SLASH	16	stimuli_distractor_trianglediamonds.svg	stimuli_target_diamondcircles.svg	12	yes	57	0	432
6.6.1	win	2022-12-14	13:53:29	14:00:33	422455	5ba854ed7c0ebe0001272f2d	972899042	1	practice_slash	9	practice_slash	17	stimuli_distractor_trianglediamonds.svg	stimuli_target_circlediamonds.svg	10	yes	53	1	741
6.6.1	win	2022-12-14	13:53:29	14:00:33	422455	5ba854ed7c0ebe0001272f2d	972899042	1	practice_slash	9	advance_on_keypress_SLASH	18	stimuli_distractor_trianglediamonds.svg	stimuli_target_circlediamonds.svg	10	yes	57	0	437
6.6.1	win	2022-12-14	13:53:29	14:00:36	425435	5ba854ed7c0ebe0001272f2d	972899042	1	practice_slash	9	practice_slash	19	stimuli_target_circlediamonds.svg	stimuli_distractor_trianglediamonds.svg	4	yes	53	1	906
6.6.1	win	2022-12-14	13:53:29	14:00:36	425435	5ba854ed7c0ebe0001272f2d	972899042	1	practice_slash	9	advance_on_keypress_SLASH	20	stimuli_target_circlediamonds.svg	stimuli_distractor_trianglediamonds.svg	4	yes	57	0	296
6.6.1	win	2022-12-14	13:53:29	14:00:39	428340	5ba854ed7c0ebe0001272f2d	972899042	1	practice_slash	9	practice_slash	21	stimuli_distractor_diamondtriangles.svg	stimuli_target_diamondcircles.svg	8	yes	53	1	963
6.6.1	win	2022-12-14	13:53:29	14:00:39	428340	5ba854ed7c0ebe0001272f2d	972899042	1	practice_slash	9	advance_on_keypress_SLASH	22	stimuli_distractor_diamondtriangles.svg	stimuli_target_diamondcircles.svg	8	yes	57	0	343
6.6.1	win	2022-12-14	13:53:29	14:00:42	431361	5ba854ed7c0ebe0001272f2d	972899042	1	practice_slash	9	practice_slash	23	stimuli_target_diamondsquares.svg	stimuli_distractor_diamondtriangles.svg	3	yes	53	1	1036
6.6.1	win	2022-12-14	13:53:29	14:00:42	431361	5ba854ed7c0ebe0001272f2d	972899042	1	practice_slash	9	advance_on_keypress_SLASH	24	stimuli_target_diamondsquares.svg	stimuli_distractor_diamondtriangles.svg	3	yes	57	0	285
6.6.1	win	2022-12-14	13:53:29	14:00:45	434134	5ba854ed7c0ebe0001272f2d	972899042	1	practice_slash	9	practice_slash	25	stimuli_distractor_trianglediamonds.svg	stimuli_target_squarediamonds.svg	11	yes	53	1	845
6.6.1	win	2022-12-14	13:53:29	14:00:45	434134	5ba854ed7c0ebe0001272f2d	972899042	1	practice_slash	9	advance_on_keypress_SLASH	26	stimuli_distractor_trianglediamonds.svg	stimuli_target_squarediamonds.svg	11	yes	57	0	299
6.6.1	win	2022-12-14	13:53:29	14:00:48	438087	5ba854ed7c0ebe0001272f2d	972899042	1	practice_slash	9	practice_slash	27	stimuli_distractor_trianglediamonds.svg	stimuli_distractor_diamondtriangles.svg	16	no	0	1	2000
6.6.1	win	2022-12-14	13:53:29	14:00:48	438087	5ba854ed7c0ebe0001272f2d	972899042	1	practice_slash	9	advance_on_keypress_SLASH	28	stimuli_distractor_trianglediamonds.svg	stimuli_distractor_diamondtriangles.svg	16	no	57	0	319
6.6.1	win	2022-12-14	13:53:29	14:00:51	440839	5ba854ed7c0ebe0001272f2d	972899042	1	practice_slash	9	practice_slash	29	stimuli_target_squarediamonds.svg	stimuli_distractor_trianglediamonds.svg	5	yes	53	1	789
6.6.1	win	2022-12-14	13:53:29	14:00:51	440839	5ba854ed7c0ebe0001272f2d	972899042	1	practice_slash	9	advance_on_keypress_SLASH	30	stimuli_target_squarediamonds.svg	stimuli_distractor_trianglediamonds.svg	5	yes	57	0	316
6.6.1	win	2022-12-14	13:53:29	14:00:55	444799	5ba854ed7c0ebe0001272f2d	972899042	1	practice_slash	9	practice_slash	31	stimuli_distractor_diamondtriangles.svg	stimuli_distractor_trianglediamonds.svg	14	no	0	1	2000
6.6.1	win	2022-12-14	13:53:29	14:00:55	444799	5ba854ed7c0ebe0001272f2d	972899042	1	practice_slash	9	advance_on_keypress_SLASH	32	stimuli_distractor_diamondtriangles.svg	stimuli_distractor_trianglediamonds.svg	14	no	57	0	284
6.6.1	win	2022-12-14	13:53:29	14:03:22	591117	5ba854ed7c0ebe0001272f2d	972899042	1	main_slash	11	main_slash	1	stimuli_distractor_diamondtriangles.svg	stimuli_target_circlediamonds.svg	14	yes	53	1	565
6.6.1	win	2022-12-14	13:53:29	14:03:22	591117	5ba854ed7c0ebe0001272f2d	972899042	1	main_slash	11	advance_on_keypress_SLASH	2	stimuli_distractor_diamondtriangles.svg	stimuli_target_circlediamonds.svg	14	yes	57	0	665
6.6.1	win	2022-12-14	13:53:29	14:03:23	593066	5ba854ed7c0ebe0001272f2d	972899042	1	main_slash	11	main_slash	3	stimuli_distractor_trianglediamonds.svg	stimuli_target_squaretriangles.svg	11	yes	53	1	633
6.6.1	win	2022-12-14	13:53:29	14:03:23	593066	5ba854ed7c0ebe0001272f2d	972899042	1	main_slash	11	advance_on_keypress_SLASH	4	stimuli_distractor_trianglediamonds.svg	stimuli_target_squaretriangles.svg	11	yes	57	0	661
6.6.1	win	2022-12-14	13:53:29	14:03:27	596365	5ba854ed7c0ebe0001272f2d	972899042	1	main_slash	11	main_slash	5	stimuli_target_diamondsquares.svg	stimuli_distractor_trianglediamonds.svg	20	yes	0	0	2000
6.6.1	win	2022-12-14	13:53:29	14:03:27	596365	5ba854ed7c0ebe0001272f2d	972899042	1	main_slash	11	advance_on_keypress_SLASH	6	stimuli_target_diamondsquares.svg	stimuli_distractor_trianglediamonds.svg	20	yes	57	0	390
6.6.1	win	2022-12-14	13:53:29	14:03:28	598045	5ba854ed7c0ebe0001272f2d	972899042	1	main_slash	11	main_slash	7	stimuli_distractor_diamondtriangles.svg	stimuli_target_squaretriangles.svg	15	yes	53	1	649
6.6.1	win	2022-12-14	13:53:29	14:03:28	598045	5ba854ed7c0ebe0001272f2d	972899042	1	main_slash	11	advance_on_keypress_SLASH	8	stimuli_distractor_diamondtriangles.svg	stimuli_target_squaretriangles.svg	15	yes	57	0	589
6.6.1	win	2022-12-14	13:53:29	14:03:30	599969	5ba854ed7c0ebe0001272f2d	972899042	1	main_slash	11	main_slash	9	stimuli_distractor_diamondtriangles.svg	stimuli_target_trianglecircles.svg	29	yes	53	1	690
6.6.1	win	2022-12-14	13:53:29	14:03:30	599969	5ba854ed7c0ebe0001272f2d	972899042	1	main_slash	11	advance_on_keypress_SLASH	10	stimuli_distractor_diamondtriangles.svg	stimuli_target_trianglecircles.svg	29	yes	57	0	538
6.6.1	win	2022-12-14	13:53:29	14:03:32	601970	5ba854ed7c0ebe0001272f2d	972899042	1	main_slash	11	main_slash	11	stimuli_distractor_diamondtriangles.svg	stimuli_target_circletriangles.svg	13	yes	53	1	827
6.6.1	win	2022-12-14	13:53:29	14:03:32	601970	5ba854ed7c0ebe0001272f2d	972899042	1	main_slash	11	advance_on_keypress_SLASH	12	stimuli_distractor_diamondtriangles.svg	stimuli_target_circletriangles.svg	13	yes	57	0	486
6.6.1	win	2022-12-14	13:53:29	14:03:34	603904	5ba854ed7c0ebe0001272f2d	972899042	1	main_slash	11	main_slash	13	stimuli_target_diamondsquares.svg	stimuli_distractor_diamondtriangles.svg	24	yes	53	1	811
6.6.1	win	2022-12-14	13:53:29	14:03:34	603904	5ba854ed7c0ebe0001272f2d	972899042	1	main_slash	11	advance_on_keypress_SLASH	14	stimuli_target_diamondsquares.svg	stimuli_distractor_diamondtriangles.svg	24	yes	57	0	499
6.6.1	win	2022-12-14	13:53:29	14:03:36	605814	5ba854ed7c0ebe0001272f2d	972899042	1	main_slash	11	main_slash	15	stimuli_target_circlediamonds.svg	stimuli_distractor_diamondtriangles.svg	6	yes	53	1	774
6.6.1	win	2022-12-14	13:53:29	14:03:36	605814	5ba854ed7c0ebe0001272f2d	972899042	1	main_slash	11	advance_on_keypress_SLASH	16	stimuli_target_circlediamonds.svg	stimuli_distractor_diamondtriangles.svg	6	yes	57	0	485
6.6.1	win	2022-12-14	13:53:29	14:03:39	608939	5ba854ed7c0ebe0001272f2d	972899042	1	main_slash	11	main_slash	17	stimuli_distractor_trianglediamonds.svg	stimuli_distractor_diamondtriangles.svg	36	no	0	1	2000
6.6.1	win	2022-12-14	13:53:29	14:03:39	608939	5ba854ed7c0ebe0001272f2d	972899042	1	main_slash	11	advance_on_keypress_SLASH	18	stimuli_distractor_trianglediamonds.svg	stimuli_distractor_diamondtriangles.svg	36	no	57	0	515
6.6.1	win	2022-12-14	13:53:29	14:03:41	610862	5ba854ed7c0ebe0001272f2d	972899042	1	main_slash	11	main_slash	19	stimuli_distractor_trianglediamonds.svg	stimuli_target_diamondcircles.svg	27	yes	53	1	759
6.6.1	win	2022-12-14	13:53:29	14:03:41	610862	5ba854ed7c0ebe0001272f2d	972899042	1	main_slash	11	advance_on_keypress_SLASH	20	stimuli_distractor_trianglediamonds.svg	stimuli_target_diamondcircles.svg	27	yes	57	0	482
6.6.1	win	2022-12-14	13:53:29	14:03:43	612902	5ba854ed7c0ebe0001272f2d	972899042	1	main_slash	11	main_slash	21	stimuli_distractor_trianglediamonds.svg	stimuli_target_trianglecircles.svg	25	yes	53	1	916
6.6.1	win	2022-12-14	13:53:29	14:03:43	612902	5ba854ed7c0ebe0001272f2d	972899042	1	main_slash	11	advance_on_keypress_SLASH	22	stimuli_distractor_trianglediamonds.svg	stimuli_target_trianglecircles.svg	25	yes	57	0	462
6.6.1	win	2022-12-14	13:53:29	14:03:45	614982	5ba854ed7c0ebe0001272f2d	972899042	1	main_slash	11	main_slash	23	stimuli_distractor_trianglediamonds.svg	stimuli_target_trianglesquares.svg	26	yes	53	1	980
6.6.1	win	2022-12-14	13:53:29	14:03:45	614982	5ba854ed7c0ebe0001272f2d	972899042	1	main_slash	11	advance_on_keypress_SLASH	24	stimuli_distractor_trianglediamonds.svg	stimuli_target_trianglesquares.svg	26	yes	57	0	374
6.6.1	win	2022-12-14	13:53:29	14:03:47	616958	5ba854ed7c0ebe0001272f2d	972899042	1	main_slash	11	main_slash	25	stimuli_target_circlediamonds.svg	stimuli_distractor_trianglediamonds.svg	2	yes	53	1	959
6.6.1	win	2022-12-14	13:53:29	14:03:47	616958	5ba854ed7c0ebe0001272f2d	972899042	1	main_slash	11	advance_on_keypress_SLASH	26	stimuli_target_circlediamonds.svg	stimuli_distractor_trianglediamonds.svg	2	yes	57	0	468
6.6.1	win	2022-12-14	13:53:29	14:03:50	620064	5ba854ed7c0ebe0001272f2d	972899042	1	main_slash	11	main_slash	27	stimuli_distractor_trianglediamonds.svg	stimuli_distractor_diamondtriangles.svg	35	no	0	1	2000
6.6.1	win	2022-12-14	13:53:29	14:03:50	620064	5ba854ed7c0ebe0001272f2d	972899042	1	main_slash	11	advance_on_keypress_SLASH	28	stimuli_distractor_trianglediamonds.svg	stimuli_distractor_diamondtriangles.svg	35	no	57	0	385
6.6.1	win	2022-12-14	13:53:29	14:03:52	622057	5ba854ed7c0ebe0001272f2d	972899042	1	main_slash	11	main_slash	29	stimuli_distractor_trianglediamonds.svg	stimuli_target_diamondsquares.svg	28	yes	53	1	962
6.6.1	win	2022-12-14	13:53:29	14:03:52	622057	5ba854ed7c0ebe0001272f2d	972899042	1	main_slash	11	advance_on_keypress_SLASH	30	stimuli_distractor_trianglediamonds.svg	stimuli_target_diamondsquares.svg	28	yes	57	0	411
6.6.1	win	2022-12-14	13:53:29	14:03:54	624035	5ba854ed7c0ebe0001272f2d	972899042	1	main_slash	11	main_slash	31	stimuli_target_diamondcircles.svg	stimuli_distractor_diamondtriangles.svg	23	yes	53	1	925
6.6.1	win	2022-12-14	13:53:29	14:03:54	624035	5ba854ed7c0ebe0001272f2d	972899042	1	main_slash	11	advance_on_keypress_SLASH	32	stimuli_target_diamondcircles.svg	stimuli_distractor_diamondtriangles.svg	23	yes	57	0	383
6.6.1	win	2022-12-14	13:53:29	14:03:57	627059	5ba854ed7c0ebe0001272f2d	972899042	1	main_slash	11	main_slash	33	stimuli_distractor_trianglediamonds.svg	stimuli_distractor_trianglediamonds.svg	33	no	0	1	2000
6.6.1	win	2022-12-14	13:53:29	14:03:57	627059	5ba854ed7c0ebe0001272f2d	972899042	1	main_slash	11	advance_on_keypress_SLASH	34	stimuli_distractor_trianglediamonds.svg	stimuli_distractor_trianglediamonds.svg	33	no	57	0	313
6.6.1	win	2022-12-14	13:53:29	14:03:59	628916	5ba854ed7c0ebe0001272f2d	972899042	1	main_slash	11	main_slash	35	stimuli_distractor_diamondtriangles.svg	stimuli_target_diamondsquares.svg	32	yes	53	1	893
6.6.1	win	2022-12-14	13:53:29	14:03:59	628916	5ba854ed7c0ebe0001272f2d	972899042	1	main_slash	11	advance_on_keypress_SLASH	36	stimuli_distractor_diamondtriangles.svg	stimuli_target_diamondsquares.svg	32	yes	57	0	368
6.6.1	win	2022-12-14	13:53:29	14:04:01	630807	5ba854ed7c0ebe0001272f2d	972899042	1	main_slash	11	main_slash	37	stimuli_target_trianglecircles.svg	stimuli_distractor_diamondtriangles.svg	21	yes	53	1	885
6.6.1	win	2022-12-14	13:53:29	14:04:01	630807	5ba854ed7c0ebe0001272f2d	972899042	1	main_slash	11	advance_on_keypress_SLASH	38	stimuli_target_trianglecircles.svg	stimuli_distractor_diamondtriangles.svg	21	yes	57	0	405
6.6.1	win	2022-12-14	13:53:29	14:04:03	632821	5ba854ed7c0ebe0001272f2d	972899042	1	main_slash	11	main_slash	39	stimuli_target_circletriangles.svg	stimuli_distractor_trianglediamonds.svg	1	yes	53	1	967
6.6.1	win	2022-12-14	13:53:29	14:04:03	632821	5ba854ed7c0ebe0001272f2d	972899042	1	main_slash	11	advance_on_keypress_SLASH	40	stimuli_target_circletriangles.svg	stimuli_distractor_trianglediamonds.svg	1	yes	57	0	494
6.6.1	win	2022-12-14	13:53:29	14:04:06	635952	5ba854ed7c0ebe0001272f2d	972899042	1	main_slash	11	main_slash	41	stimuli_target_trianglecircles.svg	stimuli_distractor_trianglediamonds.svg	17	yes	0	0	2000
6.6.1	win	2022-12-14	13:53:29	14:04:06	635952	5ba854ed7c0ebe0001272f2d	972899042	1	main_slash	11	advance_on_keypress_SLASH	42	stimuli_target_trianglecircles.svg	stimuli_distractor_trianglediamonds.svg	17	yes	57	0	347
6.6.1	win	2022-12-14	13:53:29	14:04:08	637797	5ba854ed7c0ebe0001272f2d	972899042	1	main_slash	11	main_slash	43	stimuli_distractor_diamondtriangles.svg	stimuli_target_diamondcircles.svg	31	yes	53	1	847
6.6.1	win	2022-12-14	13:53:29	14:04:08	637797	5ba854ed7c0ebe0001272f2d	972899042	1	main_slash	11	advance_on_keypress_SLASH	44	stimuli_distractor_diamondtriangles.svg	stimuli_target_diamondcircles.svg	31	yes	57	0	367
6.6.1	win	2022-12-14	13:53:29	14:04:11	640815	5ba854ed7c0ebe0001272f2d	972899042	1	main_slash	11	main_slash	45	stimuli_distractor_diamondtriangles.svg	stimuli_distractor_diamondtriangles.svg	39	no	0	1	2000
6.6.1	win	2022-12-14	13:53:29	14:04:11	640815	5ba854ed7c0ebe0001272f2d	972899042	1	main_slash	11	advance_on_keypress_SLASH	46	stimuli_distractor_diamondtriangles.svg	stimuli_distractor_diamondtriangles.svg	39	no	57	0	247
6.6.1	win	2022-12-14	13:53:29	14:04:13	642576	5ba854ed7c0ebe0001272f2d	972899042	1	main_slash	11	main_slash	47	stimuli_target_squarediamonds.svg	stimuli_distractor_trianglediamonds.svg	4	yes	53	1	863
6.6.1	win	2022-12-14	13:53:29	14:04:13	642576	5ba854ed7c0ebe0001272f2d	972899042	1	main_slash	11	advance_on_keypress_SLASH	48	stimuli_target_squarediamonds.svg	stimuli_distractor_trianglediamonds.svg	4	yes	57	0	422
6.6.1	win	2022-12-14	13:53:29	14:04:15	644571	5ba854ed7c0ebe0001272f2d	972899042	1	main_slash	11	main_slash	49	stimuli_target_diamondcircles.svg	stimuli_distractor_trianglediamonds.svg	19	yes	53	1	926
6.6.1	win	2022-12-14	13:53:29	14:04:15	644571	5ba854ed7c0ebe0001272f2d	972899042	1	main_slash	11	advance_on_keypress_SLASH	50	stimuli_target_diamondcircles.svg	stimuli_distractor_trianglediamonds.svg	19	yes	57	0	411
6.6.1	win	2022-12-14	13:53:29	14:04:17	646545	5ba854ed7c0ebe0001272f2d	972899042	1	main_slash	11	main_slash	51	stimuli_distractor_diamondtriangles.svg	stimuli_target_squarediamonds.svg	16	yes	53	1	935
6.6.1	win	2022-12-14	13:53:29	14:04:17	646545	5ba854ed7c0ebe0001272f2d	972899042	1	main_slash	11	advance_on_keypress_SLASH	52	stimuli_distractor_diamondtriangles.svg	stimuli_target_squarediamonds.svg	16	yes	57	0	439
6.6.1	win	2022-12-14	13:53:29	14:04:19	648467	5ba854ed7c0ebe0001272f2d	972899042	1	main_slash	11	main_slash	53	stimuli_target_squaretriangles.svg	stimuli_distractor_trianglediamonds.svg	3	yes	53	1	842
6.6.1	win	2022-12-14	13:53:29	14:04:19	648467	5ba854ed7c0ebe0001272f2d	972899042	1	main_slash	11	advance_on_keypress_SLASH	54	stimuli_target_squaretriangles.svg	stimuli_distractor_trianglediamonds.svg	3	yes	57	0	416
6.6.1	win	2022-12-14	13:53:29	14:04:21	650417	5ba854ed7c0ebe0001272f2d	972899042	1	main_slash	11	main_slash	55	stimuli_distractor_trianglediamonds.svg	stimuli_target_squarediamonds.svg	12	yes	53	1	893
6.6.1	win	2022-12-14	13:53:29	14:04:21	650417	5ba854ed7c0ebe0001272f2d	972899042	1	main_slash	11	advance_on_keypress_SLASH	56	stimuli_distractor_trianglediamonds.svg	stimuli_target_squarediamonds.svg	12	yes	57	0	418
6.6.1	win	2022-12-14	13:53:29	14:04:23	652434	5ba854ed7c0ebe0001272f2d	972899042	1	main_slash	11	main_slash	57	stimuli_target_squaretriangles.svg	stimuli_distractor_diamondtriangles.svg	7	yes	53	1	962
6.6.1	win	2022-12-14	13:53:29	14:04:23	652434	5ba854ed7c0ebe0001272f2d	972899042	1	main_slash	11	advance_on_keypress_SLASH	58	stimuli_target_squaretriangles.svg	stimuli_distractor_diamondtriangles.svg	7	yes	57	0	451
6.6.1	win	2022-12-14	13:53:29	14:04:25	654568	5ba854ed7c0ebe0001272f2d	972899042	1	main_slash	11	main_slash	59	stimuli_distractor_diamondtriangles.svg	stimuli_target_trianglesquares.svg	30	yes	53	1	1031
6.6.1	win	2022-12-14	13:53:29	14:04:25	654568	5ba854ed7c0ebe0001272f2d	972899042	1	main_slash	11	advance_on_keypress_SLASH	60	stimuli_distractor_diamondtriangles.svg	stimuli_target_trianglesquares.svg	30	yes	57	0	421
6.6.1	win	2022-12-14	13:53:29	14:04:27	656549	5ba854ed7c0ebe0001272f2d	972899042	1	main_slash	11	main_slash	61	stimuli_target_circletriangles.svg	stimuli_distractor_diamondtriangles.svg	5	yes	53	1	913
6.6.1	win	2022-12-14	13:53:29	14:04:27	656549	5ba854ed7c0ebe0001272f2d	972899042	1	main_slash	11	advance_on_keypress_SLASH	62	stimuli_target_circletriangles.svg	stimuli_distractor_diamondtriangles.svg	5	yes	57	0	346
6.6.1	win	2022-12-14	13:53:29	14:04:29	658388	5ba854ed7c0ebe0001272f2d	972899042	1	main_slash	11	main_slash	63	stimuli_target_squarediamonds.svg	stimuli_distractor_diamondtriangles.svg	8	yes	53	1	837
6.6.1	win	2022-12-14	13:53:29	14:04:29	658388	5ba854ed7c0ebe0001272f2d	972899042	1	main_slash	11	advance_on_keypress_SLASH	64	stimuli_target_squarediamonds.svg	stimuli_distractor_diamondtriangles.svg	8	yes	57	0	361
6.6.1	win	2022-12-14	13:53:29	14:04:32	661383	5ba854ed7c0ebe0001272f2d	972899042	1	main_slash	11	main_slash	65	stimuli_distractor_diamondtriangles.svg	stimuli_distractor_diamondtriangles.svg	40	no	0	1	2000
6.6.1	win	2022-12-14	13:53:29	14:04:32	661383	5ba854ed7c0ebe0001272f2d	972899042	1	main_slash	11	advance_on_keypress_SLASH	66	stimuli_distractor_diamondtriangles.svg	stimuli_distractor_diamondtriangles.svg	40	no	57	0	281
6.6.1	win	2022-12-14	13:53:29	14:04:35	664314	5ba854ed7c0ebe0001272f2d	972899042	1	main_slash	11	main_slash	67	stimuli_distractor_diamondtriangles.svg	stimuli_distractor_trianglediamonds.svg	38	no	0	1	2000
6.6.1	win	2022-12-14	13:53:29	14:04:35	664314	5ba854ed7c0ebe0001272f2d	972899042	1	main_slash	11	advance_on_keypress_SLASH	68	stimuli_distractor_diamondtriangles.svg	stimuli_distractor_trianglediamonds.svg	38	no	57	0	263
6.6.1	win	2022-12-14	13:53:29	14:04:38	667229	5ba854ed7c0ebe0001272f2d	972899042	1	main_slash	11	main_slash	69	stimuli_distractor_trianglediamonds.svg	stimuli_distractor_trianglediamonds.svg	34	no	0	1	2000
6.6.1	win	2022-12-14	13:53:29	14:04:38	667229	5ba854ed7c0ebe0001272f2d	972899042	1	main_slash	11	advance_on_keypress_SLASH	70	stimuli_distractor_trianglediamonds.svg	stimuli_distractor_trianglediamonds.svg	34	no	57	0	233
6.6.1	win	2022-12-14	13:53:29	14:04:39	668994	5ba854ed7c0ebe0001272f2d	972899042	1	main_slash	11	main_slash	71	stimuli_target_trianglesquares.svg	stimuli_distractor_diamondtriangles.svg	22	yes	53	1	884
6.6.1	win	2022-12-14	13:53:29	14:04:39	668994	5ba854ed7c0ebe0001272f2d	972899042	1	main_slash	11	advance_on_keypress_SLASH	72	stimuli_target_trianglesquares.svg	stimuli_distractor_diamondtriangles.svg	22	yes	57	0	386
6.6.1	win	2022-12-14	13:53:29	14:04:41	670897	5ba854ed7c0ebe0001272f2d	972899042	1	main_slash	11	main_slash	73	stimuli_target_trianglesquares.svg	stimuli_distractor_trianglediamonds.svg	18	yes	53	1	871
6.6.1	win	2022-12-14	13:53:29	14:04:41	670897	5ba854ed7c0ebe0001272f2d	972899042	1	main_slash	11	advance_on_keypress_SLASH	74	stimuli_target_trianglesquares.svg	stimuli_distractor_trianglediamonds.svg	18	yes	57	0	353
6.6.1	win	2022-12-14	13:53:29	14:04:43	672792	5ba854ed7c0ebe0001272f2d	972899042	1	main_slash	11	main_slash	75	stimuli_distractor_trianglediamonds.svg	stimuli_target_circletriangles.svg	9	yes	53	1	902
6.6.1	win	2022-12-14	13:53:29	14:04:43	672792	5ba854ed7c0ebe0001272f2d	972899042	1	main_slash	11	advance_on_keypress_SLASH	76	stimuli_distractor_trianglediamonds.svg	stimuli_target_circletriangles.svg	9	yes	57	0	309
6.6.1	win	2022-12-14	13:53:29	14:04:46	675739	5ba854ed7c0ebe0001272f2d	972899042	1	main_slash	11	main_slash	77	stimuli_distractor_diamondtriangles.svg	stimuli_distractor_trianglediamonds.svg	37	no	0	1	2000
6.6.1	win	2022-12-14	13:53:29	14:04:46	675739	5ba854ed7c0ebe0001272f2d	972899042	1	main_slash	11	advance_on_keypress_SLASH	78	stimuli_distractor_diamondtriangles.svg	stimuli_distractor_trianglediamonds.svg	37	no	57	0	274
6.6.1	win	2022-12-14	13:53:29	14:04:48	677526	5ba854ed7c0ebe0001272f2d	972899042	1	main_slash	11	main_slash	79	stimuli_distractor_trianglediamonds.svg	stimuli_target_circlediamonds.svg	10	yes	53	1	873
6.6.1	win	2022-12-14	13:53:29	14:04:48	677526	5ba854ed7c0ebe0001272f2d	972899042	1	main_slash	11	advance_on_keypress_SLASH	80	stimuli_distractor_trianglediamonds.svg	stimuli_target_circlediamonds.svg	10	yes	57	0	421
6.6.1	win	2022-12-14	13:53:29	14:04:50	679467	5ba854ed7c0ebe0001272f2d	972899042	1	main_slash	11	main_slash	81	stimuli_target_diamondcircles.svg	stimuli_distractor_diamondtriangles.svg	23	yes	53	1	881
6.6.1	win	2022-12-14	13:53:29	14:04:50	679467	5ba854ed7c0ebe0001272f2d	972899042	1	main_slash	11	advance_on_keypress_SLASH	82	stimuli_target_diamondcircles.svg	stimuli_distractor_diamondtriangles.svg	23	yes	57	0	358
6.6.1	win	2022-12-14	13:53:29	14:04:52	681402	5ba854ed7c0ebe0001272f2d	972899042	1	main_slash	11	main_slash	83	stimuli_distractor_trianglediamonds.svg	stimuli_target_trianglesquares.svg	26	yes	53	1	935
6.6.1	win	2022-12-14	13:53:29	14:04:52	681402	5ba854ed7c0ebe0001272f2d	972899042	1	main_slash	11	advance_on_keypress_SLASH	84	stimuli_distractor_trianglediamonds.svg	stimuli_target_trianglesquares.svg	26	yes	57	0	343
6.6.1	win	2022-12-14	13:53:29	14:04:55	684382	5ba854ed7c0ebe0001272f2d	972899042	1	main_slash	11	main_slash	85	stimuli_distractor_diamondtriangles.svg	stimuli_distractor_diamondtriangles.svg	40	no	0	1	2000
6.6.1	win	2022-12-14	13:53:29	14:04:55	684382	5ba854ed7c0ebe0001272f2d	972899042	1	main_slash	11	advance_on_keypress_SLASH	86	stimuli_distractor_diamondtriangles.svg	stimuli_distractor_diamondtriangles.svg	40	no	57	0	312
6.6.1	win	2022-12-14	13:53:29	14:04:57	686139	5ba854ed7c0ebe0001272f2d	972899042	1	main_slash	11	main_slash	87	stimuli_target_squaretriangles.svg	stimuli_distractor_diamondtriangles.svg	7	yes	53	1	809
6.6.1	win	2022-12-14	13:53:29	14:04:57	686139	5ba854ed7c0ebe0001272f2d	972899042	1	main_slash	11	advance_on_keypress_SLASH	88	stimuli_target_squaretriangles.svg	stimuli_distractor_diamondtriangles.svg	7	yes	57	0	415
6.6.1	win	2022-12-14	13:53:29	14:05:00	689195	5ba854ed7c0ebe0001272f2d	972899042	1	main_slash	11	main_slash	89	stimuli_distractor_trianglediamonds.svg	stimuli_distractor_trianglediamonds.svg	34	no	0	1	2000
6.6.1	win	2022-12-14	13:53:29	14:05:00	689195	5ba854ed7c0ebe0001272f2d	972899042	1	main_slash	11	advance_on_keypress_SLASH	90	stimuli_distractor_trianglediamonds.svg	stimuli_distractor_trianglediamonds.svg	34	no	57	0	304
6.6.1	win	2022-12-14	13:53:29	14:05:01	690979	5ba854ed7c0ebe0001272f2d	972899042	1	main_slash	11	main_slash	91	stimuli_target_trianglecircles.svg	stimuli_distractor_trianglediamonds.svg	17	yes	53	1	836
6.6.1	win	2022-12-14	13:53:29	14:05:01	690979	5ba854ed7c0ebe0001272f2d	972899042	1	main_slash	11	advance_on_keypress_SLASH	92	stimuli_target_trianglecircles.svg	stimuli_distractor_trianglediamonds.svg	17	yes	57	0	375
6.6.1	win	2022-12-14	13:53:29	14:05:03	692817	5ba854ed7c0ebe0001272f2d	972899042	1	main_slash	11	main_slash	93	stimuli_distractor_trianglediamonds.svg	stimuli_target_diamondcircles.svg	27	yes	53	1	825
6.6.1	win	2022-12-14	13:53:29	14:05:03	692817	5ba854ed7c0ebe0001272f2d	972899042	1	main_slash	11	advance_on_keypress_SLASH	94	stimuli_distractor_trianglediamonds.svg	stimuli_target_diamondcircles.svg	27	yes	57	0	383
6.6.1	win	2022-12-14	13:53:29	14:05:05	694696	5ba854ed7c0ebe0001272f2d	972899042	1	main_slash	11	main_slash	95	stimuli_distractor_trianglediamonds.svg	stimuli_target_trianglecircles.svg	25	yes	53	1	855
6.6.1	win	2022-12-14	13:53:29	14:05:05	694696	5ba854ed7c0ebe0001272f2d	972899042	1	main_slash	11	advance_on_keypress_SLASH	96	stimuli_distractor_trianglediamonds.svg	stimuli_target_trianglecircles.svg	25	yes	57	0	375
6.6.1	win	2022-12-14	13:53:29	14:05:07	696571	5ba854ed7c0ebe0001272f2d	972899042	1	main_slash	11	main_slash	97	stimuli_distractor_trianglediamonds.svg	stimuli_target_circletriangles.svg	9	yes	53	1	864
6.6.1	win	2022-12-14	13:53:29	14:05:07	696571	5ba854ed7c0ebe0001272f2d	972899042	1	main_slash	11	advance_on_keypress_SLASH	98	stimuli_distractor_trianglediamonds.svg	stimuli_target_circletriangles.svg	9	yes	57	0	360
6.6.1	win	2022-12-14	13:53:29	14:05:10	699571	5ba854ed7c0ebe0001272f2d	972899042	1	main_slash	11	main_slash	99	stimuli_distractor_diamondtriangles.svg	stimuli_distractor_trianglediamonds.svg	37	no	0	1	2000
6.6.1	win	2022-12-14	13:53:29	14:05:10	699571	5ba854ed7c0ebe0001272f2d	972899042	1	main_slash	11	advance_on_keypress_SLASH	100	stimuli_distractor_diamondtriangles.svg	stimuli_distractor_trianglediamonds.svg	37	no	57	0	262
6.6.1	win	2022-12-14	13:53:29	14:05:12	701307	5ba854ed7c0ebe0001272f2d	972899042	1	main_slash	11	main_slash	101	stimuli_distractor_diamondtriangles.svg	stimuli_target_trianglecircles.svg	29	yes	53	1	837
6.6.1	win	2022-12-14	13:53:29	14:05:12	701307	5ba854ed7c0ebe0001272f2d	972899042	1	main_slash	11	advance_on_keypress_SLASH	102	stimuli_distractor_diamondtriangles.svg	stimuli_target_trianglecircles.svg	29	yes	57	0	377
6.6.1	win	2022-12-14	13:53:29	14:05:14	703187	5ba854ed7c0ebe0001272f2d	972899042	1	main_slash	11	main_slash	103	stimuli_target_circlediamonds.svg	stimuli_distractor_diamondtriangles.svg	6	yes	53	1	870
6.6.1	win	2022-12-14	13:53:29	14:05:14	703187	5ba854ed7c0ebe0001272f2d	972899042	1	main_slash	11	advance_on_keypress_SLASH	104	stimuli_target_circlediamonds.svg	stimuli_distractor_diamondtriangles.svg	6	yes	57	0	351
6.6.1	win	2022-12-14	13:53:29	14:05:15	704988	5ba854ed7c0ebe0001272f2d	972899042	1	main_slash	11	main_slash	105	stimuli_target_diamondsquares.svg	stimuli_distractor_diamondtriangles.svg	24	yes	53	1	805
6.6.1	win	2022-12-14	13:53:29	14:05:15	704988	5ba854ed7c0ebe0001272f2d	972899042	1	main_slash	11	advance_on_keypress_SLASH	106	stimuli_target_diamondsquares.svg	stimuli_distractor_diamondtriangles.svg	24	yes	57	0	364
6.6.1	win	2022-12-14	13:53:29	14:05:17	706842	5ba854ed7c0ebe0001272f2d	972899042	1	main_slash	11	main_slash	107	stimuli_target_circlediamonds.svg	stimuli_distractor_trianglediamonds.svg	2	yes	53	1	844
6.6.1	win	2022-12-14	13:53:29	14:05:17	706842	5ba854ed7c0ebe0001272f2d	972899042	1	main_slash	11	advance_on_keypress_SLASH	108	stimuli_target_circlediamonds.svg	stimuli_distractor_trianglediamonds.svg	2	yes	57	0	384
6.6.1	win	2022-12-14	13:53:29	14:05:19	708700	5ba854ed7c0ebe0001272f2d	972899042	1	main_slash	11	main_slash	109	stimuli_distractor_diamondtriangles.svg	stimuli_target_circlediamonds.svg	14	yes	53	1	837
6.6.1	win	2022-12-14	13:53:29	14:05:19	708700	5ba854ed7c0ebe0001272f2d	972899042	1	main_slash	11	advance_on_keypress_SLASH	110	stimuli_distractor_diamondtriangles.svg	stimuli_target_circlediamonds.svg	14	yes	57	0	370
6.6.1	win	2022-12-14	13:53:29	14:05:21	710594	5ba854ed7c0ebe0001272f2d	972899042	1	main_slash	11	main_slash	111	stimuli_distractor_diamondtriangles.svg	stimuli_target_circletriangles.svg	13	yes	53	1	882
6.6.1	win	2022-12-14	13:53:29	14:05:21	710594	5ba854ed7c0ebe0001272f2d	972899042	1	main_slash	11	advance_on_keypress_SLASH	112	stimuli_distractor_diamondtriangles.svg	stimuli_target_circletriangles.svg	13	yes	57	0	338
6.6.1	win	2022-12-14	13:53:29	14:05:23	712491	5ba854ed7c0ebe0001272f2d	972899042	1	main_slash	11	main_slash	113	stimuli_distractor_trianglediamonds.svg	stimuli_target_circlediamonds.svg	10	yes	53	1	914
6.6.1	win	2022-12-14	13:53:29	14:05:23	712491	5ba854ed7c0ebe0001272f2d	972899042	1	main_slash	11	advance_on_keypress_SLASH	114	stimuli_distractor_trianglediamonds.svg	stimuli_target_circlediamonds.svg	10	yes	57	0	357
6.6.1	win	2022-12-14	13:53:29	14:05:25	714492	5ba854ed7c0ebe0001272f2d	972899042	1	main_slash	11	main_slash	115	stimuli_target_trianglecircles.svg	stimuli_distractor_diamondtriangles.svg	21	yes	53	1	999
6.6.1	win	2022-12-14	13:53:29	14:05:25	714492	5ba854ed7c0ebe0001272f2d	972899042	1	main_slash	11	advance_on_keypress_SLASH	116	stimuli_target_trianglecircles.svg	stimuli_distractor_diamondtriangles.svg	21	yes	57	0	348
6.6.1	win	2022-12-14	13:53:29	14:05:27	716423	5ba854ed7c0ebe0001272f2d	972899042	1	main_slash	11	main_slash	117	stimuli_target_circletriangles.svg	stimuli_distractor_trianglediamonds.svg	1	yes	53	1	932
6.6.1	win	2022-12-14	13:53:29	14:05:27	716423	5ba854ed7c0ebe0001272f2d	972899042	1	main_slash	11	advance_on_keypress_SLASH	118	stimuli_target_circletriangles.svg	stimuli_distractor_trianglediamonds.svg	1	yes	57	0	349
6.6.1	win	2022-12-14	13:53:29	14:05:29	718290	5ba854ed7c0ebe0001272f2d	972899042	1	main_slash	11	main_slash	119	stimuli_distractor_diamondtriangles.svg	stimuli_target_squaretriangles.svg	15	yes	53	1	867
6.6.1	win	2022-12-14	13:53:29	14:05:29	718290	5ba854ed7c0ebe0001272f2d	972899042	1	main_slash	11	advance_on_keypress_SLASH	120	stimuli_distractor_diamondtriangles.svg	stimuli_target_squaretriangles.svg	15	yes	57	0	318
6.6.1	win	2022-12-14	13:53:29	14:05:30	720089	5ba854ed7c0ebe0001272f2d	972899042	1	main_slash	11	main_slash	121	stimuli_distractor_diamondtriangles.svg	stimuli_target_diamondsquares.svg	32	yes	53	1	834
6.6.1	win	2022-12-14	13:53:29	14:05:30	720089	5ba854ed7c0ebe0001272f2d	972899042	1	main_slash	11	advance_on_keypress_SLASH	122	stimuli_distractor_diamondtriangles.svg	stimuli_target_diamondsquares.svg	32	yes	57	0	327
6.6.1	win	2022-12-14	13:53:29	14:05:32	721922	5ba854ed7c0ebe0001272f2d	972899042	1	main_slash	11	main_slash	123	stimuli_distractor_diamondtriangles.svg	stimuli_target_squarediamonds.svg	16	yes	53	1	869
6.6.1	win	2022-12-14	13:53:29	14:05:32	721922	5ba854ed7c0ebe0001272f2d	972899042	1	main_slash	11	advance_on_keypress_SLASH	124	stimuli_distractor_diamondtriangles.svg	stimuli_target_squarediamonds.svg	16	yes	57	0	315
6.6.1	win	2022-12-14	13:53:29	14:05:34	723687	5ba854ed7c0ebe0001272f2d	972899042	1	main_slash	11	main_slash	125	stimuli_target_trianglesquares.svg	stimuli_distractor_diamondtriangles.svg	22	yes	53	1	802
6.6.1	win	2022-12-14	13:53:29	14:05:34	723687	5ba854ed7c0ebe0001272f2d	972899042	1	main_slash	11	advance_on_keypress_SLASH	126	stimuli_target_trianglesquares.svg	stimuli_distractor_diamondtriangles.svg	22	yes	57	0	333
6.6.1	win	2022-12-14	13:53:29	14:05:36	725571	5ba854ed7c0ebe0001272f2d	972899042	1	main_slash	11	main_slash	127	stimuli_target_diamondcircles.svg	stimuli_distractor_trianglediamonds.svg	19	yes	53	1	904
6.6.1	win	2022-12-14	13:53:29	14:05:36	725571	5ba854ed7c0ebe0001272f2d	972899042	1	main_slash	11	advance_on_keypress_SLASH	128	stimuli_target_diamondcircles.svg	stimuli_distractor_trianglediamonds.svg	19	yes	57	0	443
6.6.1	win	2022-12-14	13:53:29	14:05:38	727751	5ba854ed7c0ebe0001272f2d	972899042	1	main_slash	11	main_slash	129	stimuli_target_diamondsquares.svg	stimuli_distractor_trianglediamonds.svg	20	yes	53	1	1102
6.6.1	win	2022-12-14	13:53:29	14:05:38	727751	5ba854ed7c0ebe0001272f2d	972899042	1	main_slash	11	advance_on_keypress_SLASH	130	stimuli_target_diamondsquares.svg	stimuli_distractor_trianglediamonds.svg	20	yes	57	0	753
6.6.1	win	2022-12-14	13:53:29	14:05:41	730663	5ba854ed7c0ebe0001272f2d	972899042	1	main_slash	11	main_slash	131	stimuli_target_squaretriangles.svg	stimuli_distractor_trianglediamonds.svg	3	yes	53	1	1516
6.6.1	win	2022-12-14	13:53:29	14:05:41	730663	5ba854ed7c0ebe0001272f2d	972899042	1	main_slash	11	advance_on_keypress_SLASH	132	stimuli_target_squaretriangles.svg	stimuli_distractor_trianglediamonds.svg	3	yes	57	0	513
6.6.1	win	2022-12-14	13:53:29	14:05:43	732544	5ba854ed7c0ebe0001272f2d	972899042	1	main_slash	11	main_slash	133	stimuli_target_squarediamonds.svg	stimuli_distractor_trianglediamonds.svg	4	yes	53	1	716
6.6.1	win	2022-12-14	13:53:29	14:05:43	732544	5ba854ed7c0ebe0001272f2d	972899042	1	main_slash	11	advance_on_keypress_SLASH	134	stimuli_target_squarediamonds.svg	stimuli_distractor_trianglediamonds.svg	4	yes	57	0	409
6.6.1	win	2022-12-14	13:53:29	14:05:45	734407	5ba854ed7c0ebe0001272f2d	972899042	1	main_slash	11	main_slash	135	stimuli_target_circletriangles.svg	stimuli_distractor_diamondtriangles.svg	5	yes	53	1	813
6.6.1	win	2022-12-14	13:53:29	14:05:45	734407	5ba854ed7c0ebe0001272f2d	972899042	1	main_slash	11	advance_on_keypress_SLASH	136	stimuli_target_circletriangles.svg	stimuli_distractor_diamondtriangles.svg	5	yes	57	0	357
6.6.1	win	2022-12-14	13:53:29	14:05:47	736339	5ba854ed7c0ebe0001272f2d	972899042	1	main_slash	11	main_slash	137	stimuli_distractor_diamondtriangles.svg	stimuli_target_trianglesquares.svg	30	yes	53	1	930
6.6.1	win	2022-12-14	13:53:29	14:05:47	736339	5ba854ed7c0ebe0001272f2d	972899042	1	main_slash	11	advance_on_keypress_SLASH	138	stimuli_distractor_diamondtriangles.svg	stimuli_target_trianglesquares.svg	30	yes	57	0	429
6.6.1	win	2022-12-14	13:53:29	14:05:50	739424	5ba854ed7c0ebe0001272f2d	972899042	1	main_slash	11	main_slash	139	stimuli_distractor_diamondtriangles.svg	stimuli_distractor_diamondtriangles.svg	39	no	0	1	2000
6.6.1	win	2022-12-14	13:53:29	14:05:50	739424	5ba854ed7c0ebe0001272f2d	972899042	1	main_slash	11	advance_on_keypress_SLASH	140	stimuli_distractor_diamondtriangles.svg	stimuli_distractor_diamondtriangles.svg	39	no	57	0	324
6.6.1	win	2022-12-14	13:53:29	14:05:51	741082	5ba854ed7c0ebe0001272f2d	972899042	1	main_slash	11	main_slash	141	stimuli_distractor_diamondtriangles.svg	stimuli_target_diamondcircles.svg	31	yes	53	1	693
6.6.1	win	2022-12-14	13:53:29	14:05:51	741082	5ba854ed7c0ebe0001272f2d	972899042	1	main_slash	11	advance_on_keypress_SLASH	142	stimuli_distractor_diamondtriangles.svg	stimuli_target_diamondcircles.svg	31	yes	57	0	383
6.6.1	win	2022-12-14	13:53:29	14:05:54	744104	5ba854ed7c0ebe0001272f2d	972899042	1	main_slash	11	main_slash	143	stimuli_distractor_trianglediamonds.svg	stimuli_distractor_trianglediamonds.svg	33	no	0	1	2000
6.6.1	win	2022-12-14	13:53:29	14:05:54	744104	5ba854ed7c0ebe0001272f2d	972899042	1	main_slash	11	advance_on_keypress_SLASH	144	stimuli_distractor_trianglediamonds.svg	stimuli_distractor_trianglediamonds.svg	33	no	57	0	370
6.6.1	win	2022-12-14	13:53:29	14:05:58	747119	5ba854ed7c0ebe0001272f2d	972899042	1	main_slash	11	main_slash	145	stimuli_distractor_diamondtriangles.svg	stimuli_distractor_trianglediamonds.svg	38	no	0	1	2000
6.6.1	win	2022-12-14	13:53:29	14:05:58	747119	5ba854ed7c0ebe0001272f2d	972899042	1	main_slash	11	advance_on_keypress_SLASH	146	stimuli_distractor_diamondtriangles.svg	stimuli_distractor_trianglediamonds.svg	38	no	57	0	324
6.6.1	win	2022-12-14	13:53:29	14:06:00	750083	5ba854ed7c0ebe0001272f2d	972899042	1	main_slash	11	main_slash	147	stimuli_distractor_trianglediamonds.svg	stimuli_distractor_diamondtriangles.svg	36	no	0	1	2000
6.6.1	win	2022-12-14	13:53:29	14:06:00	750083	5ba854ed7c0ebe0001272f2d	972899042	1	main_slash	11	advance_on_keypress_SLASH	148	stimuli_distractor_trianglediamonds.svg	stimuli_distractor_diamondtriangles.svg	36	no	57	0	238
6.6.1	win	2022-12-14	13:53:29	14:06:02	751666	5ba854ed7c0ebe0001272f2d	972899042	1	main_slash	11	main_slash	149	stimuli_distractor_trianglediamonds.svg	stimuli_target_diamondsquares.svg	28	yes	53	1	702
6.6.1	win	2022-12-14	13:53:29	14:06:02	751666	5ba854ed7c0ebe0001272f2d	972899042	1	main_slash	11	advance_on_keypress_SLASH	150	stimuli_distractor_trianglediamonds.svg	stimuli_target_diamondsquares.svg	28	yes	57	0	386
6.6.1	win	2022-12-14	13:53:29	14:06:04	753399	5ba854ed7c0ebe0001272f2d	972899042	1	main_slash	11	main_slash	151	stimuli_target_squarediamonds.svg	stimuli_distractor_diamondtriangles.svg	8	yes	53	1	703
6.6.1	win	2022-12-14	13:53:29	14:06:04	753399	5ba854ed7c0ebe0001272f2d	972899042	1	main_slash	11	advance_on_keypress_SLASH	152	stimuli_target_squarediamonds.svg	stimuli_distractor_diamondtriangles.svg	8	yes	57	0	347
6.6.1	win	2022-12-14	13:53:29	14:06:05	755069	5ba854ed7c0ebe0001272f2d	972899042	1	main_slash	11	main_slash	153	stimuli_distractor_trianglediamonds.svg	stimuli_target_squaretriangles.svg	11	yes	53	1	674
6.6.1	win	2022-12-14	13:53:29	14:06:05	755069	5ba854ed7c0ebe0001272f2d	972899042	1	main_slash	11	advance_on_keypress_SLASH	154	stimuli_distractor_trianglediamonds.svg	stimuli_target_squaretriangles.svg	11	yes	57	0	353
6.6.1	win	2022-12-14	13:53:29	14:06:07	756768	5ba854ed7c0ebe0001272f2d	972899042	1	main_slash	11	main_slash	155	stimuli_target_trianglesquares.svg	stimuli_distractor_trianglediamonds.svg	18	yes	53	1	708
6.6.1	win	2022-12-14	13:53:29	14:06:07	756768	5ba854ed7c0ebe0001272f2d	972899042	1	main_slash	11	advance_on_keypress_SLASH	156	stimuli_target_trianglesquares.svg	stimuli_distractor_trianglediamonds.svg	18	yes	57	0	353
6.6.1	win	2022-12-14	13:53:29	14:06:10	759759	5ba854ed7c0ebe0001272f2d	972899042	1	main_slash	11	main_slash	157	stimuli_distractor_trianglediamonds.svg	stimuli_distractor_diamondtriangles.svg	35	no	0	1	2000
6.6.1	win	2022-12-14	13:53:29	14:06:10	759759	5ba854ed7c0ebe0001272f2d	972899042	1	main_slash	11	advance_on_keypress_SLASH	158	stimuli_distractor_trianglediamonds.svg	stimuli_distractor_diamondtriangles.svg	35	no	57	0	230
6.6.1	win	2022-12-14	13:53:29	14:06:12	761416	5ba854ed7c0ebe0001272f2d	972899042	1	main_slash	11	main_slash	159	stimuli_distractor_trianglediamonds.svg	stimuli_target_squarediamonds.svg	12	yes	53	1	776
6.6.1	win	2022-12-14	13:53:29	14:06:12	761416	5ba854ed7c0ebe0001272f2d	972899042	1	main_slash	11	advance_on_keypress_SLASH	160	stimuli_distractor_trianglediamonds.svg	stimuli_target_squarediamonds.svg	12	yes	57	0	431