build	computer.platform	date	time	timestamp	time_elapsed_ms	subject	group	session	blockcode	blocknum	trialcode	trialnum	stimulus_left	stimulus_right	stim_index	target_present	response	correct	latency
6.6.1	win	2022-12-15	07:59:29	08:00:41	70586	62a885d5b6af18b3d4579e1b	868989903	1	practice_slash	5	practice_slash	1	stimuli_distractor_diamondtriangles.svg	stimuli_distractor_trianglediamonds.svg	14	no	0	1	2000
6.6.1	win	2022-12-15	07:59:29	08:00:41	70586	62a885d5b6af18b3d4579e1b	868989903	1	practice_slash	5	advance_on_keypress_SLASH	2	stimuli_distractor_diamondtriangles.svg	stimuli_distractor_trianglediamonds.svg	14	no	57	0	1206
6.6.1	win	2022-12-15	07:59:29	08:00:46	75437	62a885d5b6af18b3d4579e1b	868989903	1	practice_slash	5	practice_slash	3	stimuli_target_squarediamonds.svg	stimuli_distractor_trianglediamonds.svg	5	yes	0	0	2000
6.6.1	win	2022-12-15	07:59:29	08:00:46	75437	62a885d5b6af18b3d4579e1b	868989903	1	practice_slash	5	advance_on_keypress_SLASH	4	stimuli_target_squarediamonds.svg	stimuli_distractor_trianglediamonds.svg	5	yes	57	0	532
6.6.1	win	2022-12-15	07:59:29	08:00:49	78135	62a885d5b6af18b3d4579e1b	868989903	1	practice_slash	5	practice_slash	5	stimuli_target_circlediamonds.svg	stimuli_distractor_trianglediamonds.svg	4	yes	53	1	509
6.6.1	win	2022-12-15	07:59:29	08:00:49	78135	62a885d5b6af18b3d4579e1b	868989903	1	practice_slash	5	advance_on_keypress_SLASH	6	stimuli_target_circlediamonds.svg	stimuli_distractor_trianglediamonds.svg	4	yes	57	0	608
6.6.1	win	2022-12-15	07:59:29	08:00:51	80913	62a885d5b6af18b3d4579e1b	868989903	1	practice_slash	5	practice_slash	7	stimuli_target_squarediamonds.svg	stimuli_distractor_diamondtriangles.svg	2	yes	53	1	526
6.6.1	win	2022-12-15	07:59:29	08:00:51	80913	62a885d5b6af18b3d4579e1b	868989903	1	practice_slash	5	advance_on_keypress_SLASH	8	stimuli_target_squarediamonds.svg	stimuli_distractor_diamondtriangles.svg	2	yes	57	0	273
6.6.1	win	2022-12-15	07:59:29	08:00:54	83465	62a885d5b6af18b3d4579e1b	868989903	1	practice_slash	5	practice_slash	9	stimuli_distractor_trianglediamonds.svg	stimuli_target_squarediamonds.svg	11	yes	53	1	645
6.6.1	win	2022-12-15	07:59:29	08:00:54	83465	62a885d5b6af18b3d4579e1b	868989903	1	practice_slash	5	advance_on_keypress_SLASH	10	stimuli_distractor_trianglediamonds.svg	stimuli_target_squarediamonds.svg	11	yes	57	0	274
6.6.1	win	2022-12-15	07:59:29	08:00:57	86649	62a885d5b6af18b3d4579e1b	868989903	1	practice_slash	5	practice_slash	11	stimuli_distractor_trianglediamonds.svg	stimuli_target_diamondcircles.svg	12	yes	53	1	1278
6.6.1	win	2022-12-15	07:59:29	08:00:57	86649	62a885d5b6af18b3d4579e1b	868989903	1	practice_slash	5	advance_on_keypress_SLASH	12	stimuli_distractor_trianglediamonds.svg	stimuli_target_diamondcircles.svg	12	yes	57	0	243
6.6.1	win	2022-12-15	07:59:29	08:01:01	90521	62a885d5b6af18b3d4579e1b	868989903	1	practice_slash	5	practice_slash	13	stimuli_target_diamondsquares.svg	stimuli_distractor_trianglediamonds.svg	6	yes	0	0	2000
6.6.1	win	2022-12-15	07:59:29	08:01:01	90521	62a885d5b6af18b3d4579e1b	868989903	1	practice_slash	5	advance_on_keypress_SLASH	14	stimuli_target_diamondsquares.svg	stimuli_distractor_trianglediamonds.svg	6	yes	57	0	303
6.6.1	win	2022-12-15	07:59:29	08:01:04	93137	62a885d5b6af18b3d4579e1b	868989903	1	practice_slash	5	practice_slash	15	stimuli_distractor_trianglediamonds.svg	stimuli_target_circlediamonds.svg	10	yes	53	1	666
6.6.1	win	2022-12-15	07:59:29	08:01:04	93137	62a885d5b6af18b3d4579e1b	868989903	1	practice_slash	5	advance_on_keypress_SLASH	16	stimuli_distractor_trianglediamonds.svg	stimuli_target_circlediamonds.svg	10	yes	57	0	262
6.6.1	win	2022-12-15	07:59:29	08:01:06	96032	62a885d5b6af18b3d4579e1b	868989903	1	practice_slash	5	practice_slash	17	stimuli_distractor_diamondtriangles.svg	stimuli_target_trianglecircles.svg	9	yes	53	1	978
6.6.1	win	2022-12-15	07:59:29	08:01:06	96032	62a885d5b6af18b3d4579e1b	868989903	1	practice_slash	5	advance_on_keypress_SLASH	18	stimuli_distractor_diamondtriangles.svg	stimuli_target_trianglecircles.svg	9	yes	57	0	211
6.6.1	win	2022-12-15	07:59:29	08:01:10	99872	62a885d5b6af18b3d4579e1b	868989903	1	practice_slash	5	practice_slash	19	stimuli_distractor_diamondtriangles.svg	stimuli_distractor_diamondtriangles.svg	13	no	0	1	2000
6.6.1	win	2022-12-15	07:59:29	08:01:10	99872	62a885d5b6af18b3d4579e1b	868989903	1	practice_slash	5	advance_on_keypress_SLASH	20	stimuli_distractor_diamondtriangles.svg	stimuli_distractor_diamondtriangles.svg	13	no	57	0	249
6.6.1	win	2022-12-15	07:59:29	08:01:13	102329	62a885d5b6af18b3d4579e1b	868989903	1	practice_slash	5	practice_slash	21	stimuli_target_diamondsquares.svg	stimuli_distractor_diamondtriangles.svg	3	yes	53	1	557
6.6.1	win	2022-12-15	07:59:29	08:01:13	102329	62a885d5b6af18b3d4579e1b	868989903	1	practice_slash	5	advance_on_keypress_SLASH	22	stimuli_target_diamondsquares.svg	stimuli_distractor_diamondtriangles.svg	3	yes	57	0	366
6.6.1	win	2022-12-15	07:59:29	08:01:17	106339	62a885d5b6af18b3d4579e1b	868989903	1	practice_slash	5	practice_slash	23	stimuli_distractor_trianglediamonds.svg	stimuli_distractor_trianglediamonds.svg	15	no	0	1	2000
6.6.1	win	2022-12-15	07:59:29	08:01:17	106339	62a885d5b6af18b3d4579e1b	868989903	1	practice_slash	5	advance_on_keypress_SLASH	24	stimuli_distractor_trianglediamonds.svg	stimuli_distractor_trianglediamonds.svg	15	no	57	0	229
6.6.1	win	2022-12-15	07:59:29	08:01:19	108809	62a885d5b6af18b3d4579e1b	868989903	1	practice_slash	5	practice_slash	25	stimuli_distractor_diamondtriangles.svg	stimuli_target_circletriangles.svg	7	yes	53	1	587
6.6.1	win	2022-12-15	07:59:29	08:01:19	108809	62a885d5b6af18b3d4579e1b	868989903	1	practice_slash	5	advance_on_keypress_SLASH	26	stimuli_distractor_diamondtriangles.svg	stimuli_target_circletriangles.svg	7	yes	57	0	602
6.6.1	win	2022-12-15	07:59:29	08:01:22	111616	62a885d5b6af18b3d4579e1b	868989903	1	practice_slash	5	practice_slash	27	stimuli_distractor_diamondtriangles.svg	stimuli_target_diamondcircles.svg	8	yes	53	1	561
6.6.1	win	2022-12-15	07:59:29	08:01:22	111616	62a885d5b6af18b3d4579e1b	868989903	1	practice_slash	5	advance_on_keypress_SLASH	28	stimuli_distractor_diamondtriangles.svg	stimuli_target_diamondcircles.svg	8	yes	57	0	522
6.6.1	win	2022-12-15	07:59:29	08:01:26	115773	62a885d5b6af18b3d4579e1b	868989903	1	practice_slash	5	practice_slash	29	stimuli_distractor_trianglediamonds.svg	stimuli_distractor_diamondtriangles.svg	16	no	0	1	2000
6.6.1	win	2022-12-15	07:59:29	08:01:26	115773	62a885d5b6af18b3d4579e1b	868989903	1	practice_slash	5	advance_on_keypress_SLASH	30	stimuli_distractor_trianglediamonds.svg	stimuli_distractor_diamondtriangles.svg	16	no	57	0	483
6.6.1	win	2022-12-15	07:59:29	08:01:29	118513	62a885d5b6af18b3d4579e1b	868989903	1	practice_slash	5	practice_slash	31	stimuli_target_circlediamonds.svg	stimuli_distractor_diamondtriangles.svg	1	yes	53	1	606
6.6.1	win	2022-12-15	07:59:29	08:01:29	118513	62a885d5b6af18b3d4579e1b	868989903	1	practice_slash	5	advance_on_keypress_SLASH	32	stimuli_target_circlediamonds.svg	stimuli_distractor_diamondtriangles.svg	1	yes	57	0	454
6.6.1	win	2022-12-15	07:59:29	08:01:33	122616	62a885d5b6af18b3d4579e1b	868989903	1	main_slash	7	main_slash	1	stimuli_target_circletriangles.svg	stimuli_distractor_trianglediamonds.svg	1	yes	53	1	543
6.6.1	win	2022-12-15	07:59:29	08:01:33	122616	62a885d5b6af18b3d4579e1b	868989903	1	main_slash	7	advance_on_keypress_SLASH	2	stimuli_target_circletriangles.svg	stimuli_distractor_trianglediamonds.svg	1	yes	57	0	577
6.6.1	win	2022-12-15	07:59:29	08:01:35	124360	62a885d5b6af18b3d4579e1b	868989903	1	main_slash	7	main_slash	3	stimuli_target_circlediamonds.svg	stimuli_distractor_diamondtriangles.svg	6	yes	53	1	537
6.6.1	win	2022-12-15	07:59:29	08:01:35	124360	62a885d5b6af18b3d4579e1b	868989903	1	main_slash	7	advance_on_keypress_SLASH	4	stimuli_target_circlediamonds.svg	stimuli_distractor_diamondtriangles.svg	6	yes	57	0	515
6.6.1	win	2022-12-15	07:59:29	08:01:37	126232	62a885d5b6af18b3d4579e1b	868989903	1	main_slash	7	main_slash	5	stimuli_distractor_diamondtriangles.svg	stimuli_target_squarediamonds.svg	16	yes	53	1	709
6.6.1	win	2022-12-15	07:59:29	08:01:37	126232	62a885d5b6af18b3d4579e1b	868989903	1	main_slash	7	advance_on_keypress_SLASH	6	stimuli_distractor_diamondtriangles.svg	stimuli_target_squarediamonds.svg	16	yes	57	0	384
6.6.1	win	2022-12-15	07:59:29	08:01:39	128136	62a885d5b6af18b3d4579e1b	868989903	1	main_slash	7	main_slash	7	stimuli_target_trianglesquares.svg	stimuli_distractor_diamondtriangles.svg	22	yes	53	1	880
6.6.1	win	2022-12-15	07:59:29	08:01:39	128136	62a885d5b6af18b3d4579e1b	868989903	1	main_slash	7	advance_on_keypress_SLASH	8	stimuli_target_trianglesquares.svg	stimuli_distractor_diamondtriangles.svg	22	yes	57	0	324
6.6.1	win	2022-12-15	07:59:29	08:01:40	129864	62a885d5b6af18b3d4579e1b	868989903	1	main_slash	7	main_slash	9	stimuli_target_trianglesquares.svg	stimuli_distractor_trianglediamonds.svg	18	yes	53	1	774
6.6.1	win	2022-12-15	07:59:29	08:01:40	129864	62a885d5b6af18b3d4579e1b	868989903	1	main_slash	7	advance_on_keypress_SLASH	10	stimuli_target_trianglesquares.svg	stimuli_distractor_trianglediamonds.svg	18	yes	57	0	295
6.6.1	win	2022-12-15	07:59:29	08:01:43	132790	62a885d5b6af18b3d4579e1b	868989903	1	main_slash	7	main_slash	11	stimuli_target_squarediamonds.svg	stimuli_distractor_diamondtriangles.svg	8	yes	0	0	2000
6.6.1	win	2022-12-15	07:59:29	08:01:43	132790	62a885d5b6af18b3d4579e1b	868989903	1	main_slash	7	advance_on_keypress_SLASH	12	stimuli_target_squarediamonds.svg	stimuli_distractor_diamondtriangles.svg	8	yes	57	0	257
6.6.1	win	2022-12-15	07:59:29	08:01:45	134376	62a885d5b6af18b3d4579e1b	868989903	1	main_slash	7	main_slash	13	stimuli_target_diamondsquares.svg	stimuli_distractor_trianglediamonds.svg	20	yes	53	1	686
6.6.1	win	2022-12-15	07:59:29	08:01:45	134376	62a885d5b6af18b3d4579e1b	868989903	1	main_slash	7	advance_on_keypress_SLASH	14	stimuli_target_diamondsquares.svg	stimuli_distractor_trianglediamonds.svg	20	yes	57	0	290
6.6.1	win	2022-12-15	07:59:29	08:01:47	136224	62a885d5b6af18b3d4579e1b	868989903	1	main_slash	7	main_slash	15	stimuli_target_diamondcircles.svg	stimuli_distractor_diamondtriangles.svg	23	yes	53	1	917
6.6.1	win	2022-12-15	07:59:29	08:01:47	136224	62a885d5b6af18b3d4579e1b	868989903	1	main_slash	7	advance_on_keypress_SLASH	16	stimuli_target_diamondcircles.svg	stimuli_distractor_diamondtriangles.svg	23	yes	57	0	272
6.6.1	win	2022-12-15	07:59:29	08:01:49	138152	62a885d5b6af18b3d4579e1b	868989903	1	main_slash	7	main_slash	17	stimuli_distractor_diamondtriangles.svg	stimuli_target_circletriangles.svg	13	yes	53	1	1012
6.6.1	win	2022-12-15	07:59:29	08:01:49	138152	62a885d5b6af18b3d4579e1b	868989903	1	main_slash	7	advance_on_keypress_SLASH	18	stimuli_distractor_diamondtriangles.svg	stimuli_target_circletriangles.svg	13	yes	57	0	531
6.6.1	win	2022-12-15	07:59:29	08:01:52	141308	62a885d5b6af18b3d4579e1b	868989903	1	main_slash	7	main_slash	19	stimuli_distractor_trianglediamonds.svg	stimuli_distractor_diamondtriangles.svg	36	no	0	1	2000
6.6.1	win	2022-12-15	07:59:29	08:01:52	141308	62a885d5b6af18b3d4579e1b	868989903	1	main_slash	7	advance_on_keypress_SLASH	20	stimuli_distractor_trianglediamonds.svg	stimuli_distractor_diamondtriangles.svg	36	no	57	0	284
6.6.1	win	2022-12-15	07:59:29	08:01:53	142856	62a885d5b6af18b3d4579e1b	868989903	1	main_slash	7	main_slash	21	stimuli_distractor_diamondtriangles.svg	stimuli_target_trianglecircles.svg	29	yes	53	1	615
6.6.1	win	2022-12-15	07:59:29	08:01:53	142856	62a885d5b6af18b3d4579e1b	868989903	1	main_slash	7	advance_on_keypress_SLASH	22	stimuli_distractor_diamondtriangles.svg	stimuli_target_trianglecircles.svg	29	yes	57	0	270
6.6.1	win	2022-12-15	07:59:29	08:01:55	144208	62a885d5b6af18b3d4579e1b	868989903	1	main_slash	7	main_slash	23	stimuli_distractor_trianglediamonds.svg	stimuli_target_trianglecircles.svg	25	yes	53	1	434
6.6.1	win	2022-12-15	07:59:29	08:01:55	144208	62a885d5b6af18b3d4579e1b	868989903	1	main_slash	7	advance_on_keypress_SLASH	24	stimuli_distractor_trianglediamonds.svg	stimuli_target_trianglecircles.svg	25	yes	57	0	248
6.6.1	win	2022-12-15	07:59:29	08:01:56	145688	62a885d5b6af18b3d4579e1b	868989903	1	main_slash	7	main_slash	25	stimuli_distractor_trianglediamonds.svg	stimuli_target_squarediamonds.svg	12	yes	53	1	597
6.6.1	win	2022-12-15	07:59:29	08:01:56	145688	62a885d5b6af18b3d4579e1b	868989903	1	main_slash	7	advance_on_keypress_SLASH	26	stimuli_distractor_trianglediamonds.svg	stimuli_target_squarediamonds.svg	12	yes	57	0	205
6.6.1	win	2022-12-15	07:59:29	08:01:59	148525	62a885d5b6af18b3d4579e1b	868989903	1	main_slash	7	main_slash	27	stimuli_target_squarediamonds.svg	stimuli_distractor_trianglediamonds.svg	4	yes	0	0	2000
6.6.1	win	2022-12-15	07:59:29	08:01:59	148525	62a885d5b6af18b3d4579e1b	868989903	1	main_slash	7	advance_on_keypress_SLASH	28	stimuli_target_squarediamonds.svg	stimuli_distractor_trianglediamonds.svg	4	yes	57	0	275
6.6.1	win	2022-12-15	07:59:29	08:02:01	150216	62a885d5b6af18b3d4579e1b	868989903	1	main_slash	7	main_slash	29	stimuli_target_squaretriangles.svg	stimuli_distractor_trianglediamonds.svg	3	yes	53	1	767
6.6.1	win	2022-12-15	07:59:29	08:02:01	150216	62a885d5b6af18b3d4579e1b	868989903	1	main_slash	7	advance_on_keypress_SLASH	30	stimuli_target_squaretriangles.svg	stimuli_distractor_trianglediamonds.svg	3	yes	57	0	223
6.6.1	win	2022-12-15	07:59:29	08:02:02	151600	62a885d5b6af18b3d4579e1b	868989903	1	main_slash	7	main_slash	31	stimuli_target_diamondcircles.svg	stimuli_distractor_trianglediamonds.svg	19	yes	53	1	525
6.6.1	win	2022-12-15	07:59:29	08:02:02	151600	62a885d5b6af18b3d4579e1b	868989903	1	main_slash	7	advance_on_keypress_SLASH	32	stimuli_target_diamondcircles.svg	stimuli_distractor_trianglediamonds.svg	19	yes	57	0	216
6.6.1	win	2022-12-15	07:59:29	08:02:05	154459	62a885d5b6af18b3d4579e1b	868989903	1	main_slash	7	main_slash	33	stimuli_distractor_trianglediamonds.svg	stimuli_distractor_trianglediamonds.svg	33	no	0	1	2000
6.6.1	win	2022-12-15	07:59:29	08:02:05	154459	62a885d5b6af18b3d4579e1b	868989903	1	main_slash	7	advance_on_keypress_SLASH	34	stimuli_distractor_trianglediamonds.svg	stimuli_distractor_trianglediamonds.svg	33	no	57	0	245
6.6.1	win	2022-12-15	07:59:29	08:02:08	157342	62a885d5b6af18b3d4579e1b	868989903	1	main_slash	7	main_slash	35	stimuli_distractor_trianglediamonds.svg	stimuli_target_diamondsquares.svg	28	yes	0	0	2000
6.6.1	win	2022-12-15	07:59:29	08:02:08	157342	62a885d5b6af18b3d4579e1b	868989903	1	main_slash	7	advance_on_keypress_SLASH	36	stimuli_distractor_trianglediamonds.svg	stimuli_target_diamondsquares.svg	28	yes	57	0	265
6.6.1	win	2022-12-15	07:59:29	08:02:11	160259	62a885d5b6af18b3d4579e1b	868989903	1	main_slash	7	main_slash	37	stimuli_distractor_trianglediamonds.svg	stimuli_distractor_trianglediamonds.svg	34	no	0	1	2000
6.6.1	win	2022-12-15	07:59:29	08:02:11	160259	62a885d5b6af18b3d4579e1b	868989903	1	main_slash	7	advance_on_keypress_SLASH	38	stimuli_distractor_trianglediamonds.svg	stimuli_distractor_trianglediamonds.svg	34	no	57	0	252
6.6.1	win	2022-12-15	07:59:29	08:02:12	161712	62a885d5b6af18b3d4579e1b	868989903	1	main_slash	7	main_slash	39	stimuli_target_trianglecircles.svg	stimuli_distractor_diamondtriangles.svg	21	yes	53	1	553
6.6.1	win	2022-12-15	07:59:29	08:02:12	161712	62a885d5b6af18b3d4579e1b	868989903	1	main_slash	7	advance_on_keypress_SLASH	40	stimuli_target_trianglecircles.svg	stimuli_distractor_diamondtriangles.svg	21	yes	57	0	162
6.6.1	win	2022-12-15	07:59:29	08:02:14	163120	62a885d5b6af18b3d4579e1b	868989903	1	main_slash	7	main_slash	41	stimuli_distractor_trianglediamonds.svg	stimuli_target_circlediamonds.svg	10	yes	53	1	611
6.6.1	win	2022-12-15	07:59:29	08:02:14	163120	62a885d5b6af18b3d4579e1b	868989903	1	main_slash	7	advance_on_keypress_SLASH	42	stimuli_distractor_trianglediamonds.svg	stimuli_target_circlediamonds.svg	10	yes	57	0	146
6.6.1	win	2022-12-15	07:59:29	08:02:15	164592	62a885d5b6af18b3d4579e1b	868989903	1	main_slash	7	main_slash	43	stimuli_distractor_diamondtriangles.svg	stimuli_target_squaretriangles.svg	15	yes	53	1	700
6.6.1	win	2022-12-15	07:59:29	08:02:15	164592	62a885d5b6af18b3d4579e1b	868989903	1	main_slash	7	advance_on_keypress_SLASH	44	stimuli_distractor_diamondtriangles.svg	stimuli_target_squaretriangles.svg	15	yes	57	0	127
6.6.1	win	2022-12-15	07:59:29	08:02:18	167360	62a885d5b6af18b3d4579e1b	868989903	1	main_slash	7	main_slash	45	stimuli_distractor_trianglediamonds.svg	stimuli_distractor_diamondtriangles.svg	35	no	0	1	2000
6.6.1	win	2022-12-15	07:59:29	08:02:18	167360	62a885d5b6af18b3d4579e1b	868989903	1	main_slash	7	advance_on_keypress_SLASH	46	stimuli_distractor_trianglediamonds.svg	stimuli_distractor_diamondtriangles.svg	35	no	57	0	488
6.6.1	win	2022-12-15	07:59:29	08:02:21	170493	62a885d5b6af18b3d4579e1b	868989903	1	main_slash	7	main_slash	47	stimuli_distractor_diamondtriangles.svg	stimuli_target_diamondsquares.svg	32	yes	0	0	2000
6.6.1	win	2022-12-15	07:59:29	08:02:21	170493	62a885d5b6af18b3d4579e1b	868989903	1	main_slash	7	advance_on_keypress_SLASH	48	stimuli_distractor_diamondtriangles.svg	stimuli_target_diamondsquares.svg	32	yes	57	0	266
6.6.1	win	2022-12-15	07:59:29	08:02:22	171929	62a885d5b6af18b3d4579e1b	868989903	1	main_slash	7	main_slash	49	stimuli_target_circlediamonds.svg	stimuli_distractor_trianglediamonds.svg	2	yes	53	1	518
6.6.1	win	2022-12-15	07:59:29	08:02:22	171929	62a885d5b6af18b3d4579e1b	868989903	1	main_slash	7	advance_on_keypress_SLASH	50	stimuli_target_circlediamonds.svg	stimuli_distractor_trianglediamonds.svg	2	yes	57	0	145
6.6.1	win	2022-12-15	07:59:29	08:02:24	173496	62a885d5b6af18b3d4579e1b	868989903	1	main_slash	7	main_slash	51	stimuli_target_trianglecircles.svg	stimuli_distractor_trianglediamonds.svg	17	yes	53	1	786
6.6.1	win	2022-12-15	07:59:29	08:02:24	173496	62a885d5b6af18b3d4579e1b	868989903	1	main_slash	7	advance_on_keypress_SLASH	52	stimuli_target_trianglecircles.svg	stimuli_distractor_trianglediamonds.svg	17	yes	57	0	210
6.6.1	win	2022-12-15	07:59:29	08:02:27	176344	62a885d5b6af18b3d4579e1b	868989903	1	main_slash	7	main_slash	53	stimuli_distractor_diamondtriangles.svg	stimuli_distractor_trianglediamonds.svg	38	no	0	1	2000
6.6.1	win	2022-12-15	07:59:29	08:02:27	176344	62a885d5b6af18b3d4579e1b	868989903	1	main_slash	7	advance_on_keypress_SLASH	54	stimuli_distractor_diamondtriangles.svg	stimuli_distractor_trianglediamonds.svg	38	no	57	0	600
6.6.1	win	2022-12-15	07:59:29	08:02:29	178088	62a885d5b6af18b3d4579e1b	868989903	1	main_slash	7	main_slash	55	stimuli_distractor_diamondtriangles.svg	stimuli_target_circlediamonds.svg	14	yes	53	1	494
6.6.1	win	2022-12-15	07:59:29	08:02:29	178088	62a885d5b6af18b3d4579e1b	868989903	1	main_slash	7	advance_on_keypress_SLASH	56	stimuli_distractor_diamondtriangles.svg	stimuli_target_circlediamonds.svg	14	yes	57	0	162
6.6.1	win	2022-12-15	07:59:29	08:02:30	180064	62a885d5b6af18b3d4579e1b	868989903	1	main_slash	7	main_slash	57	stimuli_distractor_diamondtriangles.svg	stimuli_target_trianglesquares.svg	30	yes	53	1	1187
6.6.1	win	2022-12-15	07:59:29	08:02:30	180064	62a885d5b6af18b3d4579e1b	868989903	1	main_slash	7	advance_on_keypress_SLASH	58	stimuli_distractor_diamondtriangles.svg	stimuli_target_trianglesquares.svg	30	yes	57	0	139
6.6.1	win	2022-12-15	07:59:29	08:02:33	182844	62a885d5b6af18b3d4579e1b	868989903	1	main_slash	7	main_slash	59	stimuli_distractor_trianglediamonds.svg	stimuli_target_diamondcircles.svg	27	yes	0	0	2000
6.6.1	win	2022-12-15	07:59:29	08:02:33	182844	62a885d5b6af18b3d4579e1b	868989903	1	main_slash	7	advance_on_keypress_SLASH	60	stimuli_distractor_trianglediamonds.svg	stimuli_target_diamondcircles.svg	27	yes	57	0	1011
6.6.1	win	2022-12-15	07:59:29	08:02:35	184848	62a885d5b6af18b3d4579e1b	868989903	1	main_slash	7	main_slash	61	stimuli_distractor_trianglediamonds.svg	stimuli_target_circletriangles.svg	9	yes	53	1	354
6.6.1	win	2022-12-15	07:59:29	08:02:35	184848	62a885d5b6af18b3d4579e1b	868989903	1	main_slash	7	advance_on_keypress_SLASH	62	stimuli_distractor_trianglediamonds.svg	stimuli_target_circletriangles.svg	9	yes	57	0	179
6.6.1	win	2022-12-15	07:59:29	08:02:38	187661	62a885d5b6af18b3d4579e1b	868989903	1	main_slash	7	main_slash	63	stimuli_distractor_diamondtriangles.svg	stimuli_distractor_diamondtriangles.svg	40	no	0	1	2000
6.6.1	win	2022-12-15	07:59:29	08:02:38	187661	62a885d5b6af18b3d4579e1b	868989903	1	main_slash	7	advance_on_keypress_SLASH	64	stimuli_distractor_diamondtriangles.svg	stimuli_distractor_diamondtriangles.svg	40	no	57	0	258
6.6.1	win	2022-12-15	07:59:29	08:02:40	189077	62a885d5b6af18b3d4579e1b	868989903	1	main_slash	7	main_slash	65	stimuli_target_diamondsquares.svg	stimuli_distractor_diamondtriangles.svg	24	yes	53	1	511
6.6.1	win	2022-12-15	07:59:29	08:02:40	189077	62a885d5b6af18b3d4579e1b	868989903	1	main_slash	7	advance_on_keypress_SLASH	66	stimuli_target_diamondsquares.svg	stimuli_distractor_diamondtriangles.svg	24	yes	57	0	177
6.6.1	win	2022-12-15	07:59:29	08:02:41	190480	62a885d5b6af18b3d4579e1b	868989903	1	main_slash	7	main_slash	67	stimuli_target_squaretriangles.svg	stimuli_distractor_diamondtriangles.svg	7	yes	53	1	585
6.6.1	win	2022-12-15	07:59:29	08:02:41	190480	62a885d5b6af18b3d4579e1b	868989903	1	main_slash	7	advance_on_keypress_SLASH	68	stimuli_target_squaretriangles.svg	stimuli_distractor_diamondtriangles.svg	7	yes	57	0	105
6.6.1	win	2022-12-15	07:59:29	08:02:42	191744	62a885d5b6af18b3d4579e1b	868989903	1	main_slash	7	main_slash	69	stimuli_distractor_diamondtriangles.svg	stimuli_target_diamondcircles.svg	31	yes	53	1	516
6.6.1	win	2022-12-15	07:59:29	08:02:42	191744	62a885d5b6af18b3d4579e1b	868989903	1	main_slash	7	advance_on_keypress_SLASH	70	stimuli_distractor_diamondtriangles.svg	stimuli_target_diamondcircles.svg	31	yes	57	0	103
6.6.1	win	2022-12-15	07:59:29	08:02:43	192983	62a885d5b6af18b3d4579e1b	868989903	1	main_slash	7	main_slash	71	stimuli_target_circletriangles.svg	stimuli_distractor_diamondtriangles.svg	5	yes	53	1	489
6.6.1	win	2022-12-15	07:59:29	08:02:43	192983	62a885d5b6af18b3d4579e1b	868989903	1	main_slash	7	advance_on_keypress_SLASH	72	stimuli_target_circletriangles.svg	stimuli_distractor_diamondtriangles.svg	5	yes	57	0	109
6.6.1	win	2022-12-15	07:59:29	08:02:45	195056	62a885d5b6af18b3d4579e1b	868989903	1	main_slash	7	main_slash	73	stimuli_distractor_diamondtriangles.svg	stimuli_distractor_trianglediamonds.svg	37	no	53	0	1328
6.6.1	win	2022-12-15	07:59:29	08:02:45	195056	62a885d5b6af18b3d4579e1b	868989903	1	main_slash	7	advance_on_keypress_SLASH	74	stimuli_distractor_diamondtriangles.svg	stimuli_distractor_trianglediamonds.svg	37	no	57	0	90
6.6.1	win	2022-12-15	07:59:29	08:02:47	196424	62a885d5b6af18b3d4579e1b	868989903	1	main_slash	7	main_slash	75	stimuli_distractor_trianglediamonds.svg	stimuli_target_trianglesquares.svg	26	yes	53	1	646
6.6.1	win	2022-12-15	07:59:29	08:02:47	196424	62a885d5b6af18b3d4579e1b	868989903	1	main_slash	7	advance_on_keypress_SLASH	76	stimuli_distractor_trianglediamonds.svg	stimuli_target_trianglesquares.svg	26	yes	57	0	116
6.6.1	win	2022-12-15	07:59:29	08:02:50	199179	62a885d5b6af18b3d4579e1b	868989903	1	main_slash	7	main_slash	77	stimuli_distractor_diamondtriangles.svg	stimuli_distractor_diamondtriangles.svg	39	no	0	1	2000
6.6.1	win	2022-12-15	07:59:29	08:02:50	199179	62a885d5b6af18b3d4579e1b	868989903	1	main_slash	7	advance_on_keypress_SLASH	78	stimuli_distractor_diamondtriangles.svg	stimuli_distractor_diamondtriangles.svg	39	no	57	0	453
6.6.1	win	2022-12-15	07:59:29	08:02:52	201232	62a885d5b6af18b3d4579e1b	868989903	1	main_slash	7	main_slash	79	stimuli_distractor_trianglediamonds.svg	stimuli_target_squaretriangles.svg	11	yes	53	1	953
6.6.1	win	2022-12-15	07:59:29	08:02:52	201232	62a885d5b6af18b3d4579e1b	868989903	1	main_slash	7	advance_on_keypress_SLASH	80	stimuli_distractor_trianglediamonds.svg	stimuli_target_squaretriangles.svg	11	yes	57	0	131
6.6.1	win	2022-12-15	07:59:29	08:02:53	202560	62a885d5b6af18b3d4579e1b	868989903	1	main_slash	7	main_slash	81	stimuli_target_diamondcircles.svg	stimuli_distractor_trianglediamonds.svg	19	yes	53	1	565
6.6.1	win	2022-12-15	07:59:29	08:02:53	202560	62a885d5b6af18b3d4579e1b	868989903	1	main_slash	7	advance_on_keypress_SLASH	82	stimuli_target_diamondcircles.svg	stimuli_distractor_trianglediamonds.svg	19	yes	57	0	118
6.6.1	win	2022-12-15	07:59:29	08:02:54	203904	62a885d5b6af18b3d4579e1b	868989903	1	main_slash	7	main_slash	83	stimuli_target_trianglesquares.svg	stimuli_distractor_trianglediamonds.svg	18	yes	53	1	592
6.6.1	win	2022-12-15	07:59:29	08:02:54	203904	62a885d5b6af18b3d4579e1b	868989903	1	main_slash	7	advance_on_keypress_SLASH	84	stimuli_target_trianglesquares.svg	stimuli_distractor_trianglediamonds.svg	18	yes	57	0	136
6.6.1	win	2022-12-15	07:59:29	08:02:56	205640	62a885d5b6af18b3d4579e1b	868989903	1	main_slash	7	main_slash	85	stimuli_distractor_diamondtriangles.svg	stimuli_target_squarediamonds.svg	16	yes	53	1	961
6.6.1	win	2022-12-15	07:59:29	08:02:56	205640	62a885d5b6af18b3d4579e1b	868989903	1	main_slash	7	advance_on_keypress_SLASH	86	stimuli_distractor_diamondtriangles.svg	stimuli_target_squarediamonds.svg	16	yes	57	0	170
6.6.1	win	2022-12-15	07:59:29	08:02:57	206962	62a885d5b6af18b3d4579e1b	868989903	1	main_slash	7	main_slash	87	stimuli_distractor_diamondtriangles.svg	stimuli_target_circlediamonds.svg	14	yes	53	1	506
6.6.1	win	2022-12-15	07:59:29	08:02:57	206962	62a885d5b6af18b3d4579e1b	868989903	1	main_slash	7	advance_on_keypress_SLASH	88	stimuli_distractor_diamondtriangles.svg	stimuli_target_circlediamonds.svg	14	yes	57	0	93
6.6.1	win	2022-12-15	07:59:29	08:03:00	209696	62a885d5b6af18b3d4579e1b	868989903	1	main_slash	7	main_slash	89	stimuli_distractor_trianglediamonds.svg	stimuli_distractor_diamondtriangles.svg	35	no	0	1	2000
6.6.1	win	2022-12-15	07:59:29	08:03:00	209696	62a885d5b6af18b3d4579e1b	868989903	1	main_slash	7	advance_on_keypress_SLASH	90	stimuli_distractor_trianglediamonds.svg	stimuli_distractor_diamondtriangles.svg	35	no	57	0	503
6.6.1	win	2022-12-15	07:59:29	08:03:02	211229	62a885d5b6af18b3d4579e1b	868989903	1	main_slash	7	main_slash	91	stimuli_distractor_trianglediamonds.svg	stimuli_target_circlediamonds.svg	10	yes	53	1	378
6.6.1	win	2022-12-15	07:59:29	08:03:02	211229	62a885d5b6af18b3d4579e1b	868989903	1	main_slash	7	advance_on_keypress_SLASH	92	stimuli_distractor_trianglediamonds.svg	stimuli_target_circlediamonds.svg	10	yes	57	0	122
6.6.1	win	2022-12-15	07:59:29	08:03:03	212608	62a885d5b6af18b3d4579e1b	868989903	1	main_slash	7	main_slash	93	stimuli_distractor_diamondtriangles.svg	stimuli_target_trianglesquares.svg	30	yes	53	1	612
6.6.1	win	2022-12-15	07:59:29	08:03:03	212608	62a885d5b6af18b3d4579e1b	868989903	1	main_slash	7	advance_on_keypress_SLASH	94	stimuli_distractor_diamondtriangles.svg	stimuli_target_trianglesquares.svg	30	yes	57	0	115
6.6.1	win	2022-12-15	07:59:29	08:03:06	215364	62a885d5b6af18b3d4579e1b	868989903	1	main_slash	7	main_slash	95	stimuli_distractor_trianglediamonds.svg	stimuli_distractor_diamondtriangles.svg	36	no	0	1	2000
6.6.1	win	2022-12-15	07:59:29	08:03:06	215364	62a885d5b6af18b3d4579e1b	868989903	1	main_slash	7	advance_on_keypress_SLASH	96	stimuli_distractor_trianglediamonds.svg	stimuli_distractor_diamondtriangles.svg	36	no	57	0	404
6.6.1	win	2022-12-15	07:59:29	08:03:07	217048	62a885d5b6af18b3d4579e1b	868989903	1	main_slash	7	main_slash	97	stimuli_distractor_diamondtriangles.svg	stimuli_target_diamondsquares.svg	32	yes	53	1	635
6.6.1	win	2022-12-15	07:59:29	08:03:07	217048	62a885d5b6af18b3d4579e1b	868989903	1	main_slash	7	advance_on_keypress_SLASH	98	stimuli_distractor_diamondtriangles.svg	stimuli_target_diamondsquares.svg	32	yes	57	0	121
6.6.1	win	2022-12-15	07:59:29	08:03:09	218280	62a885d5b6af18b3d4579e1b	868989903	1	main_slash	7	main_slash	99	stimuli_target_diamondsquares.svg	stimuli_distractor_diamondtriangles.svg	24	yes	53	1	467
6.6.1	win	2022-12-15	07:59:29	08:03:09	218280	62a885d5b6af18b3d4579e1b	868989903	1	main_slash	7	advance_on_keypress_SLASH	100	stimuli_target_diamondsquares.svg	stimuli_distractor_diamondtriangles.svg	24	yes	57	0	103
6.6.1	win	2022-12-15	07:59:29	08:03:10	219546	62a885d5b6af18b3d4579e1b	868989903	1	main_slash	7	main_slash	101	stimuli_target_trianglecircles.svg	stimuli_distractor_diamondtriangles.svg	21	yes	53	1	506
6.6.1	win	2022-12-15	07:59:29	08:03:10	219546	62a885d5b6af18b3d4579e1b	868989903	1	main_slash	7	advance_on_keypress_SLASH	102	stimuli_target_trianglecircles.svg	stimuli_distractor_diamondtriangles.svg	21	yes	57	0	84
6.6.1	win	2022-12-15	07:59:29	08:03:11	220796	62a885d5b6af18b3d4579e1b	868989903	1	main_slash	7	main_slash	103	stimuli_target_circletriangles.svg	stimuli_distractor_trianglediamonds.svg	1	yes	53	1	512
6.6.1	win	2022-12-15	07:59:29	08:03:11	220796	62a885d5b6af18b3d4579e1b	868989903	1	main_slash	7	advance_on_keypress_SLASH	104	stimuli_target_circletriangles.svg	stimuli_distractor_trianglediamonds.svg	1	yes	57	0	114
6.6.1	win	2022-12-15	07:59:29	08:03:13	222080	62a885d5b6af18b3d4579e1b	868989903	1	main_slash	7	main_slash	105	stimuli_distractor_diamondtriangles.svg	stimuli_target_diamondcircles.svg	31	yes	53	1	500
6.6.1	win	2022-12-15	07:59:29	08:03:13	222080	62a885d5b6af18b3d4579e1b	868989903	1	main_slash	7	advance_on_keypress_SLASH	106	stimuli_distractor_diamondtriangles.svg	stimuli_target_diamondcircles.svg	31	yes	57	0	79
6.6.1	win	2022-12-15	07:59:29	08:03:14	223313	62a885d5b6af18b3d4579e1b	868989903	1	main_slash	7	main_slash	107	stimuli_target_trianglecircles.svg	stimuli_distractor_trianglediamonds.svg	17	yes	53	1	507
6.6.1	win	2022-12-15	07:59:29	08:03:14	223313	62a885d5b6af18b3d4579e1b	868989903	1	main_slash	7	advance_on_keypress_SLASH	108	stimuli_target_trianglecircles.svg	stimuli_distractor_trianglediamonds.svg	17	yes	57	0	117
6.6.1	win	2022-12-15	07:59:29	08:03:15	224600	62a885d5b6af18b3d4579e1b	868989903	1	main_slash	7	main_slash	109	stimuli_target_squarediamonds.svg	stimuli_distractor_trianglediamonds.svg	4	yes	53	1	519
6.6.1	win	2022-12-15	07:59:29	08:03:15	224600	62a885d5b6af18b3d4579e1b	868989903	1	main_slash	7	advance_on_keypress_SLASH	110	stimuli_target_squarediamonds.svg	stimuli_distractor_trianglediamonds.svg	4	yes	57	0	106
6.6.1	win	2022-12-15	07:59:29	08:03:16	225960	62a885d5b6af18b3d4579e1b	868989903	1	main_slash	7	main_slash	111	stimuli_distractor_trianglediamonds.svg	stimuli_target_trianglecircles.svg	25	yes	53	1	613
6.6.1	win	2022-12-15	07:59:29	08:03:16	225960	62a885d5b6af18b3d4579e1b	868989903	1	main_slash	7	advance_on_keypress_SLASH	112	stimuli_distractor_trianglediamonds.svg	stimuli_target_trianglecircles.svg	25	yes	57	0	92
6.6.1	win	2022-12-15	07:59:29	08:03:18	227128	62a885d5b6af18b3d4579e1b	868989903	1	main_slash	7	main_slash	113	stimuli_target_circlediamonds.svg	stimuli_distractor_diamondtriangles.svg	6	yes	53	1	447
6.6.1	win	2022-12-15	07:59:29	08:03:18	227128	62a885d5b6af18b3d4579e1b	868989903	1	main_slash	7	advance_on_keypress_SLASH	114	stimuli_target_circlediamonds.svg	stimuli_distractor_diamondtriangles.svg	6	yes	57	0	181
6.6.1	win	2022-12-15	07:59:29	08:03:19	228496	62a885d5b6af18b3d4579e1b	868989903	1	main_slash	7	main_slash	115	stimuli_target_trianglesquares.svg	stimuli_distractor_diamondtriangles.svg	22	yes	53	1	548
6.6.1	win	2022-12-15	07:59:29	08:03:19	228496	62a885d5b6af18b3d4579e1b	868989903	1	main_slash	7	advance_on_keypress_SLASH	116	stimuli_target_trianglesquares.svg	stimuli_distractor_diamondtriangles.svg	22	yes	57	0	94
6.6.1	win	2022-12-15	07:59:29	08:03:22	231231	62a885d5b6af18b3d4579e1b	868989903	1	main_slash	7	main_slash	117	stimuli_distractor_trianglediamonds.svg	stimuli_distractor_trianglediamonds.svg	34	no	0	1	2000
6.6.1	win	2022-12-15	07:59:29	08:03:22	231231	62a885d5b6af18b3d4579e1b	868989903	1	main_slash	7	advance_on_keypress_SLASH	118	stimuli_distractor_trianglediamonds.svg	stimuli_distractor_trianglediamonds.svg	34	no	57	0	640
6.6.1	win	2022-12-15	07:59:29	08:03:24	233128	62a885d5b6af18b3d4579e1b	868989903	1	main_slash	7	main_slash	119	stimuli_target_diamondsquares.svg	stimuli_distractor_trianglediamonds.svg	20	yes	53	1	613
6.6.1	win	2022-12-15	07:59:29	08:03:24	233128	62a885d5b6af18b3d4579e1b	868989903	1	main_slash	7	advance_on_keypress_SLASH	120	stimuli_target_diamondsquares.svg	stimuli_distractor_trianglediamonds.svg	20	yes	57	0	117
6.6.1	win	2022-12-15	07:59:29	08:03:26	235882	62a885d5b6af18b3d4579e1b	868989903	1	main_slash	7	main_slash	121	stimuli_distractor_diamondtriangles.svg	stimuli_distractor_diamondtriangles.svg	39	no	0	1	2000
6.6.1	win	2022-12-15	07:59:29	08:03:26	235882	62a885d5b6af18b3d4579e1b	868989903	1	main_slash	7	advance_on_keypress_SLASH	122	stimuli_distractor_diamondtriangles.svg	stimuli_distractor_diamondtriangles.svg	39	no	57	0	174
6.6.1	win	2022-12-15	07:59:29	08:03:28	237272	62a885d5b6af18b3d4579e1b	868989903	1	main_slash	7	main_slash	123	stimuli_distractor_diamondtriangles.svg	stimuli_target_squaretriangles.svg	15	yes	53	1	574
6.6.1	win	2022-12-15	07:59:29	08:03:28	237272	62a885d5b6af18b3d4579e1b	868989903	1	main_slash	7	advance_on_keypress_SLASH	124	stimuli_distractor_diamondtriangles.svg	stimuli_target_squaretriangles.svg	15	yes	57	0	126
6.6.1	win	2022-12-15	07:59:29	08:03:29	239008	62a885d5b6af18b3d4579e1b	868989903	1	main_slash	7	main_slash	125	stimuli_distractor_trianglediamonds.svg	stimuli_target_diamondcircles.svg	27	yes	53	1	976
6.6.1	win	2022-12-15	07:59:29	08:03:29	239008	62a885d5b6af18b3d4579e1b	868989903	1	main_slash	7	advance_on_keypress_SLASH	126	stimuli_distractor_trianglediamonds.svg	stimuli_target_diamondcircles.svg	27	yes	57	0	113
6.6.1	win	2022-12-15	07:59:29	08:03:31	240728	62a885d5b6af18b3d4579e1b	868989903	1	main_slash	7	main_slash	127	stimuli_target_squaretriangles.svg	stimuli_distractor_trianglediamonds.svg	3	yes	53	1	980
6.6.1	win	2022-12-15	07:59:29	08:03:31	240728	62a885d5b6af18b3d4579e1b	868989903	1	main_slash	7	advance_on_keypress_SLASH	128	stimuli_target_squaretriangles.svg	stimuli_distractor_trianglediamonds.svg	3	yes	57	0	284
6.6.1	win	2022-12-15	07:59:29	08:03:33	242224	62a885d5b6af18b3d4579e1b	868989903	1	main_slash	7	main_slash	129	stimuli_target_circlediamonds.svg	stimuli_distractor_trianglediamonds.svg	2	yes	53	1	575
6.6.1	win	2022-12-15	07:59:29	08:03:33	242224	62a885d5b6af18b3d4579e1b	868989903	1	main_slash	7	advance_on_keypress_SLASH	130	stimuli_target_circlediamonds.svg	stimuli_distractor_trianglediamonds.svg	2	yes	57	0	112
6.6.1	win	2022-12-15	07:59:29	08:03:34	243624	62a885d5b6af18b3d4579e1b	868989903	1	main_slash	7	main_slash	131	stimuli_distractor_trianglediamonds.svg	stimuli_target_diamondsquares.svg	28	yes	53	1	659
6.6.1	win	2022-12-15	07:59:29	08:03:34	243624	62a885d5b6af18b3d4579e1b	868989903	1	main_slash	7	advance_on_keypress_SLASH	132	stimuli_distractor_trianglediamonds.svg	stimuli_target_diamondsquares.svg	28	yes	57	0	112
6.6.1	win	2022-12-15	07:59:29	08:03:37	246366	62a885d5b6af18b3d4579e1b	868989903	1	main_slash	7	main_slash	133	stimuli_distractor_diamondtriangles.svg	stimuli_distractor_trianglediamonds.svg	38	no	0	1	2000
6.6.1	win	2022-12-15	07:59:29	08:03:37	246366	62a885d5b6af18b3d4579e1b	868989903	1	main_slash	7	advance_on_keypress_SLASH	134	stimuli_distractor_diamondtriangles.svg	stimuli_distractor_trianglediamonds.svg	38	no	57	0	106
6.6.1	win	2022-12-15	07:59:29	08:03:38	247824	62a885d5b6af18b3d4579e1b	868989903	1	main_slash	7	main_slash	135	stimuli_distractor_trianglediamonds.svg	stimuli_target_trianglesquares.svg	26	yes	53	1	708
6.6.1	win	2022-12-15	07:59:29	08:03:38	247824	62a885d5b6af18b3d4579e1b	868989903	1	main_slash	7	advance_on_keypress_SLASH	136	stimuli_distractor_trianglediamonds.svg	stimuli_target_trianglesquares.svg	26	yes	57	0	159
6.6.1	win	2022-12-15	07:59:29	08:03:40	249240	62a885d5b6af18b3d4579e1b	868989903	1	main_slash	7	main_slash	137	stimuli_distractor_diamondtriangles.svg	stimuli_target_circletriangles.svg	13	yes	53	1	624
6.6.1	win	2022-12-15	07:59:29	08:03:40	249240	62a885d5b6af18b3d4579e1b	868989903	1	main_slash	7	advance_on_keypress_SLASH	138	stimuli_distractor_diamondtriangles.svg	stimuli_target_circletriangles.svg	13	yes	57	0	127
6.6.1	win	2022-12-15	07:59:29	08:03:41	250624	62a885d5b6af18b3d4579e1b	868989903	1	main_slash	7	main_slash	139	stimuli_distractor_trianglediamonds.svg	stimuli_target_squaretriangles.svg	11	yes	53	1	625
6.6.1	win	2022-12-15	07:59:29	08:03:41	250624	62a885d5b6af18b3d4579e1b	868989903	1	main_slash	7	advance_on_keypress_SLASH	140	stimuli_distractor_trianglediamonds.svg	stimuli_target_squaretriangles.svg	11	yes	57	0	151
6.6.1	win	2022-12-15	07:59:29	08:03:44	253417	62a885d5b6af18b3d4579e1b	868989903	1	main_slash	7	main_slash	141	stimuli_distractor_diamondtriangles.svg	stimuli_distractor_trianglediamonds.svg	37	no	0	1	2000
6.6.1	win	2022-12-15	07:59:29	08:03:44	253417	62a885d5b6af18b3d4579e1b	868989903	1	main_slash	7	advance_on_keypress_SLASH	142	stimuli_distractor_diamondtriangles.svg	stimuli_distractor_trianglediamonds.svg	37	no	57	0	7
6.6.1	win	2022-12-15	07:59:29	08:03:45	254744	62a885d5b6af18b3d4579e1b	868989903	1	main_slash	7	main_slash	143	stimuli_target_squarediamonds.svg	stimuli_distractor_diamondtriangles.svg	8	yes	53	1	661
6.6.1	win	2022-12-15	07:59:29	08:03:45	254744	62a885d5b6af18b3d4579e1b	868989903	1	main_slash	7	advance_on_keypress_SLASH	144	stimuli_target_squarediamonds.svg	stimuli_distractor_diamondtriangles.svg	8	yes	57	0	106
6.6.1	win	2022-12-15	07:59:29	08:03:48	257483	62a885d5b6af18b3d4579e1b	868989903	1	main_slash	7	main_slash	145	stimuli_distractor_trianglediamonds.svg	stimuli_distractor_trianglediamonds.svg	33	no	0	1	2000
6.6.1	win	2022-12-15	07:59:29	08:03:48	257483	62a885d5b6af18b3d4579e1b	868989903	1	main_slash	7	advance_on_keypress_SLASH	146	stimuli_distractor_trianglediamonds.svg	stimuli_distractor_trianglediamonds.svg	33	no	57	0	4
6.6.1	win	2022-12-15	07:59:29	08:03:49	258776	62a885d5b6af18b3d4579e1b	868989903	1	main_slash	7	main_slash	147	stimuli_distractor_diamondtriangles.svg	stimuli_target_trianglecircles.svg	29	yes	53	1	626
6.6.1	win	2022-12-15	07:59:29	08:03:49	258776	62a885d5b6af18b3d4579e1b	868989903	1	main_slash	7	advance_on_keypress_SLASH	148	stimuli_distractor_diamondtriangles.svg	stimuli_target_trianglecircles.svg	29	yes	57	0	153
6.6.1	win	2022-12-15	07:59:29	08:03:51	260120	62a885d5b6af18b3d4579e1b	868989903	1	main_slash	7	main_slash	149	stimuli_target_circletriangles.svg	stimuli_distractor_diamondtriangles.svg	5	yes	53	1	553
6.6.1	win	2022-12-15	07:59:29	08:03:51	260120	62a885d5b6af18b3d4579e1b	868989903	1	main_slash	7	advance_on_keypress_SLASH	150	stimuli_target_circletriangles.svg	stimuli_distractor_diamondtriangles.svg	5	yes	57	0	83
6.6.1	win	2022-12-15	07:59:29	08:03:52	261480	62a885d5b6af18b3d4579e1b	868989903	1	main_slash	7	main_slash	151	stimuli_target_diamondcircles.svg	stimuli_distractor_diamondtriangles.svg	23	yes	53	1	630
6.6.1	win	2022-12-15	07:59:29	08:03:52	261480	62a885d5b6af18b3d4579e1b	868989903	1	main_slash	7	advance_on_keypress_SLASH	152	stimuli_target_diamondcircles.svg	stimuli_distractor_diamondtriangles.svg	23	yes	57	0	116
6.6.1	win	2022-12-15	07:59:29	08:03:53	262792	62a885d5b6af18b3d4579e1b	868989903	1	main_slash	7	main_slash	153	stimuli_distractor_trianglediamonds.svg	stimuli_target_circletriangles.svg	9	yes	53	1	558
6.6.1	win	2022-12-15	07:59:29	08:03:53	262792	62a885d5b6af18b3d4579e1b	868989903	1	main_slash	7	advance_on_keypress_SLASH	154	stimuli_distractor_trianglediamonds.svg	stimuli_target_circletriangles.svg	9	yes	57	0	72
6.6.1	win	2022-12-15	07:59:29	08:03:54	264024	62a885d5b6af18b3d4579e1b	868989903	1	main_slash	7	main_slash	155	stimuli_target_squaretriangles.svg	stimuli_distractor_diamondtriangles.svg	7	yes	53	1	524
6.6.1	win	2022-12-15	07:59:29	08:03:54	264024	62a885d5b6af18b3d4579e1b	868989903	1	main_slash	7	advance_on_keypress_SLASH	156	stimuli_target_squaretriangles.svg	stimuli_distractor_diamondtriangles.svg	7	yes	57	0	110
6.6.1	win	2022-12-15	07:59:29	08:03:57	266767	62a885d5b6af18b3d4579e1b	868989903	1	main_slash	7	main_slash	157	stimuli_distractor_diamondtriangles.svg	stimuli_distractor_diamondtriangles.svg	40	no	0	1	2000
6.6.1	win	2022-12-15	07:59:29	08:03:57	266767	62a885d5b6af18b3d4579e1b	868989903	1	main_slash	7	advance_on_keypress_SLASH	158	stimuli_distractor_diamondtriangles.svg	stimuli_distractor_diamondtriangles.svg	40	no	57	0	424
6.6.1	win	2022-12-15	07:59:29	08:03:59	268464	62a885d5b6af18b3d4579e1b	868989903	1	main_slash	7	main_slash	159	stimuli_distractor_trianglediamonds.svg	stimuli_target_squarediamonds.svg	12	yes	53	1	630
6.6.1	win	2022-12-15	07:59:29	08:03:59	268464	62a885d5b6af18b3d4579e1b	868989903	1	main_slash	7	advance_on_keypress_SLASH	160	stimuli_distractor_trianglediamonds.svg	stimuli_target_squarediamonds.svg	12	yes	57	0	157
6.6.1	win	2022-12-15	07:59:29	08:04:09	278569	62a885d5b6af18b3d4579e1b	868989903	1	practice_z	9	practice_z	1	stimuli_target_circlediamonds.svg	stimuli_distractor_diamondtriangles.svg	1	yes	44	1	500
6.6.1	win	2022-12-15	07:59:29	08:04:09	278569	62a885d5b6af18b3d4579e1b	868989903	1	practice_z	9	advance_on_keypress_ZEE	2	stimuli_target_circlediamonds.svg	stimuli_distractor_diamondtriangles.svg	1	yes	57	0	863
6.6.1	win	2022-12-15	07:59:29	08:04:13	283070	62a885d5b6af18b3d4579e1b	868989903	1	practice_z	9	practice_z	3	stimuli_distractor_trianglediamonds.svg	stimuli_distractor_diamondtriangles.svg	16	no	0	1	2000
6.6.1	win	2022-12-15	07:59:29	08:04:13	283070	62a885d5b6af18b3d4579e1b	868989903	1	practice_z	9	advance_on_keypress_ZEE	4	stimuli_distractor_trianglediamonds.svg	stimuli_distractor_diamondtriangles.svg	16	no	57	0	275
6.6.1	win	2022-12-15	07:59:29	08:04:16	285625	62a885d5b6af18b3d4579e1b	868989903	1	practice_z	9	practice_z	5	stimuli_target_circlediamonds.svg	stimuli_distractor_trianglediamonds.svg	4	yes	44	1	639
6.6.1	win	2022-12-15	07:59:29	08:04:16	285625	62a885d5b6af18b3d4579e1b	868989903	1	practice_z	9	advance_on_keypress_ZEE	6	stimuli_target_circlediamonds.svg	stimuli_distractor_trianglediamonds.svg	4	yes	57	0	669
6.6.1	win	2022-12-15	07:59:29	08:04:19	288593	62a885d5b6af18b3d4579e1b	868989903	1	practice_z	9	practice_z	7	stimuli_distractor_diamondtriangles.svg	stimuli_target_circletriangles.svg	7	yes	44	1	656
6.6.1	win	2022-12-15	07:59:29	08:04:19	288593	62a885d5b6af18b3d4579e1b	868989903	1	practice_z	9	advance_on_keypress_ZEE	8	stimuli_distractor_diamondtriangles.svg	stimuli_target_circletriangles.svg	7	yes	57	0	654
6.6.1	win	2022-12-15	07:59:29	08:04:23	292887	62a885d5b6af18b3d4579e1b	868989903	1	practice_z	9	practice_z	9	stimuli_distractor_diamondtriangles.svg	stimuli_distractor_diamondtriangles.svg	13	no	0	1	2000
6.6.1	win	2022-12-15	07:59:29	08:04:23	292887	62a885d5b6af18b3d4579e1b	868989903	1	practice_z	9	advance_on_keypress_ZEE	10	stimuli_distractor_diamondtriangles.svg	stimuli_distractor_diamondtriangles.svg	13	no	57	0	321
6.6.1	win	2022-12-15	07:59:29	08:04:26	295489	62a885d5b6af18b3d4579e1b	868989903	1	practice_z	9	practice_z	11	stimuli_distractor_trianglediamonds.svg	stimuli_target_squarediamonds.svg	11	yes	44	1	635
6.6.1	win	2022-12-15	07:59:29	08:04:26	295489	62a885d5b6af18b3d4579e1b	868989903	1	practice_z	9	advance_on_keypress_ZEE	12	stimuli_distractor_trianglediamonds.svg	stimuli_target_squarediamonds.svg	11	yes	57	0	625
6.6.1	win	2022-12-15	07:59:29	08:04:30	299754	62a885d5b6af18b3d4579e1b	868989903	1	practice_z	9	practice_z	13	stimuli_distractor_diamondtriangles.svg	stimuli_distractor_trianglediamonds.svg	14	no	0	1	2000
6.6.1	win	2022-12-15	07:59:29	08:04:30	299754	62a885d5b6af18b3d4579e1b	868989903	1	practice_z	9	advance_on_keypress_ZEE	14	stimuli_distractor_diamondtriangles.svg	stimuli_distractor_trianglediamonds.svg	14	no	57	0	294
6.6.1	win	2022-12-15	07:59:29	08:04:33	302345	62a885d5b6af18b3d4579e1b	868989903	1	practice_z	9	practice_z	15	stimuli_distractor_diamondtriangles.svg	stimuli_target_trianglecircles.svg	9	yes	44	1	657
6.6.1	win	2022-12-15	07:59:29	08:04:33	302345	62a885d5b6af18b3d4579e1b	868989903	1	practice_z	9	advance_on_keypress_ZEE	16	stimuli_distractor_diamondtriangles.svg	stimuli_target_trianglecircles.svg	9	yes	57	0	575
6.6.1	win	2022-12-15	07:59:29	08:04:36	305465	62a885d5b6af18b3d4579e1b	868989903	1	practice_z	9	practice_z	17	stimuli_target_squarediamonds.svg	stimuli_distractor_diamondtriangles.svg	2	yes	44	1	911
6.6.1	win	2022-12-15	07:59:29	08:04:36	305465	62a885d5b6af18b3d4579e1b	868989903	1	practice_z	9	advance_on_keypress_ZEE	18	stimuli_target_squarediamonds.svg	stimuli_distractor_diamondtriangles.svg	2	yes	57	0	554
6.6.1	win	2022-12-15	07:59:29	08:04:39	308451	62a885d5b6af18b3d4579e1b	868989903	1	practice_z	9	practice_z	19	stimuli_distractor_diamondtriangles.svg	stimuli_target_diamondcircles.svg	8	yes	44	1	794
6.6.1	win	2022-12-15	07:59:29	08:04:39	308451	62a885d5b6af18b3d4579e1b	868989903	1	practice_z	9	advance_on_keypress_ZEE	20	stimuli_distractor_diamondtriangles.svg	stimuli_target_diamondcircles.svg	8	yes	57	0	618
6.6.1	win	2022-12-15	07:59:29	08:04:43	312705	62a885d5b6af18b3d4579e1b	868989903	1	practice_z	9	practice_z	21	stimuli_distractor_trianglediamonds.svg	stimuli_distractor_trianglediamonds.svg	15	no	0	1	2000
6.6.1	win	2022-12-15	07:59:29	08:04:43	312705	62a885d5b6af18b3d4579e1b	868989903	1	practice_z	9	advance_on_keypress_ZEE	22	stimuli_distractor_trianglediamonds.svg	stimuli_distractor_trianglediamonds.svg	15	no	57	0	503
6.6.1	win	2022-12-15	07:59:29	08:04:46	315713	62a885d5b6af18b3d4579e1b	868989903	1	practice_z	9	practice_z	23	stimuli_target_diamondsquares.svg	stimuli_distractor_trianglediamonds.svg	6	yes	44	1	858
6.6.1	win	2022-12-15	07:59:29	08:04:46	315713	62a885d5b6af18b3d4579e1b	868989903	1	practice_z	9	advance_on_keypress_ZEE	24	stimuli_target_diamondsquares.svg	stimuli_distractor_trianglediamonds.svg	6	yes	57	0	519
6.6.1	win	2022-12-15	07:59:29	08:04:49	318689	62a885d5b6af18b3d4579e1b	868989903	1	practice_z	9	practice_z	25	stimuli_distractor_trianglediamonds.svg	stimuli_target_diamondcircles.svg	12	yes	44	1	817
6.6.1	win	2022-12-15	07:59:29	08:04:49	318689	62a885d5b6af18b3d4579e1b	868989903	1	practice_z	9	advance_on_keypress_ZEE	26	stimuli_distractor_trianglediamonds.svg	stimuli_target_diamondcircles.svg	12	yes	57	0	535
6.6.1	win	2022-12-15	07:59:29	08:04:52	321737	62a885d5b6af18b3d4579e1b	868989903	1	practice_z	9	practice_z	27	stimuli_target_squarediamonds.svg	stimuli_distractor_trianglediamonds.svg	5	yes	44	1	865
6.6.1	win	2022-12-15	07:59:29	08:04:52	321737	62a885d5b6af18b3d4579e1b	868989903	1	practice_z	9	advance_on_keypress_ZEE	28	stimuli_target_squarediamonds.svg	stimuli_distractor_trianglediamonds.svg	5	yes	57	0	437
6.6.1	win	2022-12-15	07:59:29	08:04:55	324561	62a885d5b6af18b3d4579e1b	868989903	1	practice_z	9	practice_z	29	stimuli_distractor_trianglediamonds.svg	stimuli_target_circlediamonds.svg	10	yes	44	1	738
6.6.1	win	2022-12-15	07:59:29	08:04:55	324561	62a885d5b6af18b3d4579e1b	868989903	1	practice_z	9	advance_on_keypress_ZEE	30	stimuli_distractor_trianglediamonds.svg	stimuli_target_circlediamonds.svg	10	yes	57	0	540
6.6.1	win	2022-12-15	07:59:29	08:04:58	327569	62a885d5b6af18b3d4579e1b	868989903	1	practice_z	9	practice_z	31	stimuli_target_diamondsquares.svg	stimuli_distractor_diamondtriangles.svg	3	yes	44	1	829
6.6.1	win	2022-12-15	07:59:29	08:04:58	327569	62a885d5b6af18b3d4579e1b	868989903	1	practice_z	9	advance_on_keypress_ZEE	32	stimuli_target_diamondsquares.svg	stimuli_distractor_diamondtriangles.svg	3	yes	57	0	540
6.6.1	win	2022-12-15	07:59:29	08:05:03	332664	62a885d5b6af18b3d4579e1b	868989903	1	main_z	11	main_z	1	stimuli_target_circletriangles.svg	stimuli_distractor_diamondtriangles.svg	5	yes	44	1	592
6.6.1	win	2022-12-15	07:59:29	08:05:03	332664	62a885d5b6af18b3d4579e1b	868989903	1	main_z	11	advance_on_keypress_ZEE	2	stimuli_target_circletriangles.svg	stimuli_distractor_diamondtriangles.svg	5	yes	57	0	272
6.6.1	win	2022-12-15	07:59:29	08:05:05	334416	62a885d5b6af18b3d4579e1b	868989903	1	main_z	11	main_z	3	stimuli_distractor_trianglediamonds.svg	stimuli_target_squarediamonds.svg	12	yes	44	1	843
6.6.1	win	2022-12-15	07:59:29	08:05:05	334416	62a885d5b6af18b3d4579e1b	868989903	1	main_z	11	advance_on_keypress_ZEE	4	stimuli_distractor_trianglediamonds.svg	stimuli_target_squarediamonds.svg	12	yes	57	0	105
6.6.1	win	2022-12-15	07:59:29	08:05:06	335824	62a885d5b6af18b3d4579e1b	868989903	1	main_z	11	main_z	5	stimuli_target_trianglecircles.svg	stimuli_distractor_trianglediamonds.svg	17	yes	44	1	668
6.6.1	win	2022-12-15	07:59:29	08:05:06	335824	62a885d5b6af18b3d4579e1b	868989903	1	main_z	11	advance_on_keypress_ZEE	6	stimuli_target_trianglecircles.svg	stimuli_distractor_trianglediamonds.svg	17	yes	57	0	105
6.6.1	win	2022-12-15	07:59:29	08:05:09	338573	62a885d5b6af18b3d4579e1b	868989903	1	main_z	11	main_z	7	stimuli_target_diamondsquares.svg	stimuli_distractor_trianglediamonds.svg	20	yes	0	0	2000
6.6.1	win	2022-12-15	07:59:29	08:05:09	338573	62a885d5b6af18b3d4579e1b	868989903	1	main_z	11	advance_on_keypress_ZEE	8	stimuli_target_diamondsquares.svg	stimuli_distractor_trianglediamonds.svg	20	yes	57	0	458
6.6.1	win	2022-12-15	07:59:29	08:05:12	341673	62a885d5b6af18b3d4579e1b	868989903	1	main_z	11	main_z	9	stimuli_distractor_diamondtriangles.svg	stimuli_distractor_trianglediamonds.svg	37	no	0	1	2000
6.6.1	win	2022-12-15	07:59:29	08:05:12	341673	62a885d5b6af18b3d4579e1b	868989903	1	main_z	11	advance_on_keypress_ZEE	10	stimuli_distractor_diamondtriangles.svg	stimuli_distractor_trianglediamonds.svg	37	no	57	0	270
6.6.1	win	2022-12-15	07:59:29	08:05:14	343272	62a885d5b6af18b3d4579e1b	868989903	1	main_z	11	main_z	11	stimuli_target_trianglecircles.svg	stimuli_distractor_diamondtriangles.svg	21	yes	44	1	682
6.6.1	win	2022-12-15	07:59:29	08:05:14	343272	62a885d5b6af18b3d4579e1b	868989903	1	main_z	11	advance_on_keypress_ZEE	12	stimuli_target_trianglecircles.svg	stimuli_distractor_diamondtriangles.svg	21	yes	57	0	118
6.6.1	win	2022-12-15	07:59:29	08:05:15	344728	62a885d5b6af18b3d4579e1b	868989903	1	main_z	11	main_z	13	stimuli_distractor_diamondtriangles.svg	stimuli_target_diamondsquares.svg	32	yes	44	1	688
6.6.1	win	2022-12-15	07:59:29	08:05:15	344728	62a885d5b6af18b3d4579e1b	868989903	1	main_z	11	advance_on_keypress_ZEE	14	stimuli_distractor_diamondtriangles.svg	stimuli_target_diamondsquares.svg	32	yes	57	0	140
6.6.1	win	2022-12-15	07:59:29	08:05:17	346120	62a885d5b6af18b3d4579e1b	868989903	1	main_z	11	main_z	15	stimuli_target_squaretriangles.svg	stimuli_distractor_diamondtriangles.svg	7	yes	44	1	613
6.6.1	win	2022-12-15	07:59:29	08:05:17	346120	62a885d5b6af18b3d4579e1b	868989903	1	main_z	11	advance_on_keypress_ZEE	16	stimuli_target_squaretriangles.svg	stimuli_distractor_diamondtriangles.svg	7	yes	57	0	148
6.6.1	win	2022-12-15	07:59:29	08:05:18	347528	62a885d5b6af18b3d4579e1b	868989903	1	main_z	11	main_z	17	stimuli_target_diamondcircles.svg	stimuli_distractor_trianglediamonds.svg	19	yes	44	1	621
6.6.1	win	2022-12-15	07:59:29	08:05:18	347528	62a885d5b6af18b3d4579e1b	868989903	1	main_z	11	advance_on_keypress_ZEE	18	stimuli_target_diamondcircles.svg	stimuli_distractor_trianglediamonds.svg	19	yes	57	0	132
6.6.1	win	2022-12-15	07:59:29	08:05:20	349176	62a885d5b6af18b3d4579e1b	868989903	1	main_z	11	main_z	19	stimuli_distractor_trianglediamonds.svg	stimuli_target_diamondsquares.svg	28	yes	44	1	869
6.6.1	win	2022-12-15	07:59:29	08:05:20	349176	62a885d5b6af18b3d4579e1b	868989903	1	main_z	11	advance_on_keypress_ZEE	20	stimuli_distractor_trianglediamonds.svg	stimuli_target_diamondsquares.svg	28	yes	57	0	106
6.6.1	win	2022-12-15	07:59:29	08:05:21	350552	62a885d5b6af18b3d4579e1b	868989903	1	main_z	11	main_z	21	stimuli_distractor_trianglediamonds.svg	stimuli_target_squaretriangles.svg	11	yes	44	1	628
6.6.1	win	2022-12-15	07:59:29	08:05:21	350552	62a885d5b6af18b3d4579e1b	868989903	1	main_z	11	advance_on_keypress_ZEE	22	stimuli_distractor_trianglediamonds.svg	stimuli_target_squaretriangles.svg	11	yes	57	0	115
6.6.1	win	2022-12-15	07:59:29	08:05:24	353308	62a885d5b6af18b3d4579e1b	868989903	1	main_z	11	main_z	23	stimuli_distractor_diamondtriangles.svg	stimuli_distractor_diamondtriangles.svg	39	no	0	1	2000
6.6.1	win	2022-12-15	07:59:29	08:05:24	353308	62a885d5b6af18b3d4579e1b	868989903	1	main_z	11	advance_on_keypress_ZEE	24	stimuli_distractor_diamondtriangles.svg	stimuli_distractor_diamondtriangles.svg	39	no	57	0	668
6.6.1	win	2022-12-15	07:59:29	08:05:27	356625	62a885d5b6af18b3d4579e1b	868989903	1	main_z	11	main_z	25	stimuli_distractor_diamondtriangles.svg	stimuli_distractor_trianglediamonds.svg	38	no	0	1	2000
6.6.1	win	2022-12-15	07:59:29	08:05:27	356625	62a885d5b6af18b3d4579e1b	868989903	1	main_z	11	advance_on_keypress_ZEE	26	stimuli_distractor_diamondtriangles.svg	stimuli_distractor_trianglediamonds.svg	38	no	57	0	375
6.6.1	win	2022-12-15	07:59:29	08:05:29	358376	62a885d5b6af18b3d4579e1b	868989903	1	main_z	11	main_z	27	stimuli_target_trianglesquares.svg	stimuli_distractor_trianglediamonds.svg	18	yes	44	1	735
6.6.1	win	2022-12-15	07:59:29	08:05:29	358376	62a885d5b6af18b3d4579e1b	868989903	1	main_z	11	advance_on_keypress_ZEE	28	stimuli_target_trianglesquares.svg	stimuli_distractor_trianglediamonds.svg	18	yes	57	0	145
6.6.1	win	2022-12-15	07:59:29	08:05:30	359808	62a885d5b6af18b3d4579e1b	868989903	1	main_z	11	main_z	29	stimuli_distractor_diamondtriangles.svg	stimuli_target_trianglesquares.svg	30	yes	44	1	650
6.6.1	win	2022-12-15	07:59:29	08:05:30	359808	62a885d5b6af18b3d4579e1b	868989903	1	main_z	11	advance_on_keypress_ZEE	30	stimuli_distractor_diamondtriangles.svg	stimuli_target_trianglesquares.svg	30	yes	57	0	159
6.6.1	win	2022-12-15	07:59:29	08:05:32	361248	62a885d5b6af18b3d4579e1b	868989903	1	main_z	11	main_z	31	stimuli_distractor_diamondtriangles.svg	stimuli_target_circletriangles.svg	13	yes	44	1	640
6.6.1	win	2022-12-15	07:59:29	08:05:32	361248	62a885d5b6af18b3d4579e1b	868989903	1	main_z	11	advance_on_keypress_ZEE	32	stimuli_distractor_diamondtriangles.svg	stimuli_target_circletriangles.svg	13	yes	57	0	110
6.6.1	win	2022-12-15	07:59:29	08:05:33	362632	62a885d5b6af18b3d4579e1b	868989903	1	main_z	11	main_z	33	stimuli_target_squarediamonds.svg	stimuli_distractor_trianglediamonds.svg	4	yes	44	1	641
6.6.1	win	2022-12-15	07:59:29	08:05:33	362632	62a885d5b6af18b3d4579e1b	868989903	1	main_z	11	advance_on_keypress_ZEE	34	stimuli_target_squarediamonds.svg	stimuli_distractor_trianglediamonds.svg	4	yes	57	0	111
6.6.1	win	2022-12-15	07:59:29	08:05:36	365375	62a885d5b6af18b3d4579e1b	868989903	1	main_z	11	main_z	35	stimuli_distractor_trianglediamonds.svg	stimuli_distractor_diamondtriangles.svg	35	no	0	1	2000
6.6.1	win	2022-12-15	07:59:29	08:05:36	365375	62a885d5b6af18b3d4579e1b	868989903	1	main_z	11	advance_on_keypress_ZEE	36	stimuli_distractor_trianglediamonds.svg	stimuli_distractor_diamondtriangles.svg	35	no	57	0	344
6.6.1	win	2022-12-15	07:59:29	08:05:37	366968	62a885d5b6af18b3d4579e1b	868989903	1	main_z	11	main_z	37	stimuli_distractor_trianglediamonds.svg	stimuli_target_circlediamonds.svg	10	yes	44	1	610
6.6.1	win	2022-12-15	07:59:29	08:05:37	366968	62a885d5b6af18b3d4579e1b	868989903	1	main_z	11	advance_on_keypress_ZEE	38	stimuli_distractor_trianglediamonds.svg	stimuli_target_circlediamonds.svg	10	yes	57	0	153
6.6.1	win	2022-12-15	07:59:29	08:05:40	369759	62a885d5b6af18b3d4579e1b	868989903	1	main_z	11	main_z	39	stimuli_distractor_trianglediamonds.svg	stimuli_distractor_diamondtriangles.svg	36	no	0	1	2000
6.6.1	win	2022-12-15	07:59:29	08:05:40	369759	62a885d5b6af18b3d4579e1b	868989903	1	main_z	11	advance_on_keypress_ZEE	40	stimuli_distractor_trianglediamonds.svg	stimuli_distractor_diamondtriangles.svg	36	no	57	0	625
6.6.1	win	2022-12-15	07:59:29	08:05:42	371640	62a885d5b6af18b3d4579e1b	868989903	1	main_z	11	main_z	41	stimuli_distractor_diamondtriangles.svg	stimuli_target_trianglecircles.svg	29	yes	44	1	615
6.6.1	win	2022-12-15	07:59:29	08:05:42	371640	62a885d5b6af18b3d4579e1b	868989903	1	main_z	11	advance_on_keypress_ZEE	42	stimuli_distractor_diamondtriangles.svg	stimuli_target_trianglecircles.svg	29	yes	57	0	101
6.6.1	win	2022-12-15	07:59:29	08:05:44	373128	62a885d5b6af18b3d4579e1b	868989903	1	main_z	11	main_z	43	stimuli_distractor_trianglediamonds.svg	stimuli_target_trianglecircles.svg	25	yes	44	1	736
6.6.1	win	2022-12-15	07:59:29	08:05:44	373128	62a885d5b6af18b3d4579e1b	868989903	1	main_z	11	advance_on_keypress_ZEE	44	stimuli_distractor_trianglediamonds.svg	stimuli_target_trianglecircles.svg	25	yes	57	0	106
6.6.1	win	2022-12-15	07:59:29	08:05:45	374552	62a885d5b6af18b3d4579e1b	868989903	1	main_z	11	main_z	45	stimuli_distractor_diamondtriangles.svg	stimuli_target_circlediamonds.svg	14	yes	44	1	676
6.6.1	win	2022-12-15	07:59:29	08:05:45	374552	62a885d5b6af18b3d4579e1b	868989903	1	main_z	11	advance_on_keypress_ZEE	46	stimuli_distractor_diamondtriangles.svg	stimuli_target_circlediamonds.svg	14	yes	57	0	153
6.6.1	win	2022-12-15	07:59:29	08:05:46	376040	62a885d5b6af18b3d4579e1b	868989903	1	main_z	11	main_z	47	stimuli_target_circlediamonds.svg	stimuli_distractor_trianglediamonds.svg	2	yes	44	1	698
6.6.1	win	2022-12-15	07:59:29	08:05:46	376040	62a885d5b6af18b3d4579e1b	868989903	1	main_z	11	advance_on_keypress_ZEE	48	stimuli_target_circlediamonds.svg	stimuli_distractor_trianglediamonds.svg	2	yes	57	0	157
6.6.1	win	2022-12-15	07:59:29	08:05:48	377384	62a885d5b6af18b3d4579e1b	868989903	1	main_z	11	main_z	49	stimuli_distractor_trianglediamonds.svg	stimuli_target_trianglesquares.svg	26	yes	44	1	558
6.6.1	win	2022-12-15	07:59:29	08:05:48	377384	62a885d5b6af18b3d4579e1b	868989903	1	main_z	11	advance_on_keypress_ZEE	50	stimuli_distractor_trianglediamonds.svg	stimuli_target_trianglesquares.svg	26	yes	57	0	87
6.6.1	win	2022-12-15	07:59:29	08:05:51	380110	62a885d5b6af18b3d4579e1b	868989903	1	main_z	11	main_z	51	stimuli_distractor_diamondtriangles.svg	stimuli_distractor_diamondtriangles.svg	40	no	0	1	2000
6.6.1	win	2022-12-15	07:59:29	08:05:51	380110	62a885d5b6af18b3d4579e1b	868989903	1	main_z	11	advance_on_keypress_ZEE	52	stimuli_distractor_diamondtriangles.svg	stimuli_distractor_diamondtriangles.svg	40	no	57	0	394
6.6.1	win	2022-12-15	07:59:29	08:05:52	381816	62a885d5b6af18b3d4579e1b	868989903	1	main_z	11	main_z	53	stimuli_distractor_trianglediamonds.svg	stimuli_target_diamondcircles.svg	27	yes	44	1	673
6.6.1	win	2022-12-15	07:59:29	08:05:52	381816	62a885d5b6af18b3d4579e1b	868989903	1	main_z	11	advance_on_keypress_ZEE	54	stimuli_distractor_trianglediamonds.svg	stimuli_target_diamondcircles.svg	27	yes	57	0	70
6.6.1	win	2022-12-15	07:59:29	08:05:54	383152	62a885d5b6af18b3d4579e1b	868989903	1	main_z	11	main_z	55	stimuli_distractor_trianglediamonds.svg	stimuli_target_circletriangles.svg	9	yes	44	1	626
6.6.1	win	2022-12-15	07:59:29	08:05:54	383152	62a885d5b6af18b3d4579e1b	868989903	1	main_z	11	advance_on_keypress_ZEE	56	stimuli_distractor_trianglediamonds.svg	stimuli_target_circletriangles.svg	9	yes	57	0	72
6.6.1	win	2022-12-15	07:59:29	08:05:56	385860	62a885d5b6af18b3d4579e1b	868989903	1	main_z	11	main_z	57	stimuli_distractor_trianglediamonds.svg	stimuli_distractor_trianglediamonds.svg	33	no	0	1	2000
6.6.1	win	2022-12-15	07:59:29	08:05:56	385860	62a885d5b6af18b3d4579e1b	868989903	1	main_z	11	advance_on_keypress_ZEE	58	stimuli_distractor_trianglediamonds.svg	stimuli_distractor_trianglediamonds.svg	33	no	57	0	435
6.6.1	win	2022-12-15	07:59:29	08:05:58	387920	62a885d5b6af18b3d4579e1b	868989903	1	main_z	11	main_z	59	stimuli_target_diamondsquares.svg	stimuli_distractor_diamondtriangles.svg	24	yes	44	1	977
6.6.1	win	2022-12-15	07:59:29	08:05:58	387920	62a885d5b6af18b3d4579e1b	868989903	1	main_z	11	advance_on_keypress_ZEE	60	stimuli_target_diamondsquares.svg	stimuli_distractor_diamondtriangles.svg	24	yes	57	0	97
6.6.1	win	2022-12-15	07:59:29	08:06:00	389264	62a885d5b6af18b3d4579e1b	868989903	1	main_z	11	main_z	61	stimuli_distractor_diamondtriangles.svg	stimuli_target_diamondcircles.svg	31	yes	44	1	620
6.6.1	win	2022-12-15	07:59:29	08:06:00	389264	62a885d5b6af18b3d4579e1b	868989903	1	main_z	11	advance_on_keypress_ZEE	62	stimuli_distractor_diamondtriangles.svg	stimuli_target_diamondcircles.svg	31	yes	57	0	99
6.6.1	win	2022-12-15	07:59:29	08:06:01	390592	62a885d5b6af18b3d4579e1b	868989903	1	main_z	11	main_z	63	stimuli_target_diamondcircles.svg	stimuli_distractor_diamondtriangles.svg	23	yes	44	1	582
6.6.1	win	2022-12-15	07:59:29	08:06:01	390592	62a885d5b6af18b3d4579e1b	868989903	1	main_z	11	advance_on_keypress_ZEE	64	stimuli_target_diamondcircles.svg	stimuli_distractor_diamondtriangles.svg	23	yes	57	0	62
6.6.1	win	2022-12-15	07:59:29	08:06:02	391888	62a885d5b6af18b3d4579e1b	868989903	1	main_z	11	main_z	65	stimuli_target_circletriangles.svg	stimuli_distractor_trianglediamonds.svg	1	yes	44	1	594
6.6.1	win	2022-12-15	07:59:29	08:06:02	391888	62a885d5b6af18b3d4579e1b	868989903	1	main_z	11	advance_on_keypress_ZEE	66	stimuli_target_circletriangles.svg	stimuli_distractor_trianglediamonds.svg	1	yes	57	0	114
6.6.1	win	2022-12-15	07:59:29	08:06:04	393256	62a885d5b6af18b3d4579e1b	868989903	1	main_z	11	main_z	67	stimuli_distractor_diamondtriangles.svg	stimuli_target_squaretriangles.svg	15	yes	44	1	629
6.6.1	win	2022-12-15	07:59:29	08:06:04	393256	62a885d5b6af18b3d4579e1b	868989903	1	main_z	11	advance_on_keypress_ZEE	68	stimuli_distractor_diamondtriangles.svg	stimuli_target_squaretriangles.svg	15	yes	57	0	91
6.6.1	win	2022-12-15	07:59:29	08:06:05	394552	62a885d5b6af18b3d4579e1b	868989903	1	main_z	11	main_z	69	stimuli_distractor_diamondtriangles.svg	stimuli_target_squarediamonds.svg	16	yes	44	1	575
6.6.1	win	2022-12-15	07:59:29	08:06:05	394552	62a885d5b6af18b3d4579e1b	868989903	1	main_z	11	advance_on_keypress_ZEE	70	stimuli_distractor_diamondtriangles.svg	stimuli_target_squarediamonds.svg	16	yes	57	0	111
6.6.1	win	2022-12-15	07:59:29	08:06:06	395824	62a885d5b6af18b3d4579e1b	868989903	1	main_z	11	main_z	71	stimuli_target_squaretriangles.svg	stimuli_distractor_trianglediamonds.svg	3	yes	44	1	530
6.6.1	win	2022-12-15	07:59:29	08:06:06	395824	62a885d5b6af18b3d4579e1b	868989903	1	main_z	11	advance_on_keypress_ZEE	72	stimuli_target_squaretriangles.svg	stimuli_distractor_trianglediamonds.svg	3	yes	57	0	117
6.6.1	win	2022-12-15	07:59:29	08:06:08	397184	62a885d5b6af18b3d4579e1b	868989903	1	main_z	11	main_z	73	stimuli_target_trianglesquares.svg	stimuli_distractor_diamondtriangles.svg	22	yes	44	1	607
6.6.1	win	2022-12-15	07:59:29	08:06:08	397184	62a885d5b6af18b3d4579e1b	868989903	1	main_z	11	advance_on_keypress_ZEE	74	stimuli_target_trianglesquares.svg	stimuli_distractor_diamondtriangles.svg	22	yes	57	0	70
6.6.1	win	2022-12-15	07:59:29	08:06:10	399895	62a885d5b6af18b3d4579e1b	868989903	1	main_z	11	main_z	75	stimuli_distractor_trianglediamonds.svg	stimuli_distractor_trianglediamonds.svg	34	no	0	1	2000
6.6.1	win	2022-12-15	07:59:29	08:06:10	399895	62a885d5b6af18b3d4579e1b	868989903	1	main_z	11	advance_on_keypress_ZEE	76	stimuli_distractor_trianglediamonds.svg	stimuli_distractor_trianglediamonds.svg	34	no	57	0	649
6.6.1	win	2022-12-15	07:59:29	08:06:12	401832	62a885d5b6af18b3d4579e1b	868989903	1	main_z	11	main_z	77	stimuli_target_circlediamonds.svg	stimuli_distractor_diamondtriangles.svg	6	yes	44	1	638
6.6.1	win	2022-12-15	07:59:29	08:06:12	401832	62a885d5b6af18b3d4579e1b	868989903	1	main_z	11	advance_on_keypress_ZEE	78	stimuli_target_circlediamonds.svg	stimuli_distractor_diamondtriangles.svg	6	yes	57	0	123
6.6.1	win	2022-12-15	07:59:29	08:06:14	403192	62a885d5b6af18b3d4579e1b	868989903	1	main_z	11	main_z	79	stimuli_target_squarediamonds.svg	stimuli_distractor_diamondtriangles.svg	8	yes	44	1	597
6.6.1	win	2022-12-15	07:59:29	08:06:14	403192	62a885d5b6af18b3d4579e1b	868989903	1	main_z	11	advance_on_keypress_ZEE	80	stimuli_target_squarediamonds.svg	stimuli_distractor_diamondtriangles.svg	8	yes	57	0	157
6.6.1	win	2022-12-15	07:59:29	08:06:15	404576	62a885d5b6af18b3d4579e1b	868989903	1	main_z	11	main_z	81	stimuli_target_circletriangles.svg	stimuli_distractor_trianglediamonds.svg	1	yes	44	1	598
6.6.1	win	2022-12-15	07:59:29	08:06:15	404576	62a885d5b6af18b3d4579e1b	868989903	1	main_z	11	advance_on_keypress_ZEE	82	stimuli_target_circletriangles.svg	stimuli_distractor_trianglediamonds.svg	1	yes	57	0	78
6.6.1	win	2022-12-15	07:59:29	08:06:18	407279	62a885d5b6af18b3d4579e1b	868989903	1	main_z	11	main_z	83	stimuli_distractor_trianglediamonds.svg	stimuli_distractor_trianglediamonds.svg	34	no	0	1	2000
6.6.1	win	2022-12-15	07:59:29	08:06:18	407279	62a885d5b6af18b3d4579e1b	868989903	1	main_z	11	advance_on_keypress_ZEE	84	stimuli_distractor_trianglediamonds.svg	stimuli_distractor_trianglediamonds.svg	34	no	57	0	145
6.6.1	win	2022-12-15	07:59:29	08:06:19	408584	62a885d5b6af18b3d4579e1b	868989903	1	main_z	11	main_z	85	stimuli_target_diamondsquares.svg	stimuli_distractor_diamondtriangles.svg	24	yes	44	1	522
6.6.1	win	2022-12-15	07:59:29	08:06:19	408584	62a885d5b6af18b3d4579e1b	868989903	1	main_z	11	advance_on_keypress_ZEE	86	stimuli_target_diamondsquares.svg	stimuli_distractor_diamondtriangles.svg	24	yes	57	0	85
6.6.1	win	2022-12-15	07:59:29	08:06:20	409828	62a885d5b6af18b3d4579e1b	868989903	1	main_z	11	main_z	87	stimuli_distractor_diamondtriangles.svg	stimuli_target_diamondsquares.svg	32	yes	44	1	512
6.6.1	win	2022-12-15	07:59:29	08:06:20	409828	62a885d5b6af18b3d4579e1b	868989903	1	main_z	11	advance_on_keypress_ZEE	88	stimuli_distractor_diamondtriangles.svg	stimuli_target_diamondsquares.svg	32	yes	57	0	99
6.6.1	win	2022-12-15	07:59:29	08:06:22	411136	62a885d5b6af18b3d4579e1b	868989903	1	main_z	11	main_z	89	stimuli_target_diamondcircles.svg	stimuli_distractor_diamondtriangles.svg	23	yes	44	1	557
6.6.1	win	2022-12-15	07:59:29	08:06:22	411136	62a885d5b6af18b3d4579e1b	868989903	1	main_z	11	advance_on_keypress_ZEE	90	stimuli_target_diamondcircles.svg	stimuli_distractor_diamondtriangles.svg	23	yes	57	0	111
6.6.1	win	2022-12-15	07:59:29	08:06:24	413879	62a885d5b6af18b3d4579e1b	868989903	1	main_z	11	main_z	91	stimuli_distractor_diamondtriangles.svg	stimuli_distractor_diamondtriangles.svg	39	no	0	1	2000
6.6.1	win	2022-12-15	07:59:29	08:06:24	413879	62a885d5b6af18b3d4579e1b	868989903	1	main_z	11	advance_on_keypress_ZEE	92	stimuli_distractor_diamondtriangles.svg	stimuli_distractor_diamondtriangles.svg	39	no	57	0	272
6.6.1	win	2022-12-15	07:59:29	08:06:27	416796	62a885d5b6af18b3d4579e1b	868989903	1	main_z	11	main_z	93	stimuli_distractor_trianglediamonds.svg	stimuli_distractor_diamondtriangles.svg	35	no	0	1	2000
6.6.1	win	2022-12-15	07:59:29	08:06:27	416796	62a885d5b6af18b3d4579e1b	868989903	1	main_z	11	advance_on_keypress_ZEE	94	stimuli_distractor_trianglediamonds.svg	stimuli_distractor_diamondtriangles.svg	35	no	57	0	308
6.6.1	win	2022-12-15	07:59:29	08:06:30	419746	62a885d5b6af18b3d4579e1b	868989903	1	main_z	11	main_z	95	stimuli_distractor_diamondtriangles.svg	stimuli_distractor_diamondtriangles.svg	40	no	0	1	2000
6.6.1	win	2022-12-15	07:59:29	08:06:30	419746	62a885d5b6af18b3d4579e1b	868989903	1	main_z	11	advance_on_keypress_ZEE	96	stimuli_distractor_diamondtriangles.svg	stimuli_distractor_diamondtriangles.svg	40	no	57	0	269
6.6.1	win	2022-12-15	07:59:29	08:06:32	421296	62a885d5b6af18b3d4579e1b	868989903	1	main_z	11	main_z	97	stimuli_target_diamondsquares.svg	stimuli_distractor_trianglediamonds.svg	20	yes	44	1	633
6.6.1	win	2022-12-15	07:59:29	08:06:32	421296	62a885d5b6af18b3d4579e1b	868989903	1	main_z	11	advance_on_keypress_ZEE	98	stimuli_target_diamondsquares.svg	stimuli_distractor_trianglediamonds.svg	20	yes	57	0	103
6.6.1	win	2022-12-15	07:59:29	08:06:33	422576	62a885d5b6af18b3d4579e1b	868989903	1	main_z	11	main_z	99	stimuli_distractor_diamondtriangles.svg	stimuli_target_circletriangles.svg	13	yes	44	1	530
6.6.1	win	2022-12-15	07:59:29	08:06:33	422576	62a885d5b6af18b3d4579e1b	868989903	1	main_z	11	advance_on_keypress_ZEE	100	stimuli_distractor_diamondtriangles.svg	stimuli_target_circletriangles.svg	13	yes	57	0	140
6.6.1	win	2022-12-15	07:59:29	08:06:36	425347	62a885d5b6af18b3d4579e1b	868989903	1	main_z	11	main_z	101	stimuli_distractor_diamondtriangles.svg	stimuli_distractor_trianglediamonds.svg	38	no	0	1	2000
6.6.1	win	2022-12-15	07:59:29	08:06:36	425347	62a885d5b6af18b3d4579e1b	868989903	1	main_z	11	advance_on_keypress_ZEE	102	stimuli_distractor_diamondtriangles.svg	stimuli_distractor_trianglediamonds.svg	38	no	57	0	429
6.6.1	win	2022-12-15	07:59:29	08:06:39	428414	62a885d5b6af18b3d4579e1b	868989903	1	main_z	11	main_z	103	stimuli_distractor_trianglediamonds.svg	stimuli_distractor_trianglediamonds.svg	33	no	0	1	2000
6.6.1	win	2022-12-15	07:59:29	08:06:39	428414	62a885d5b6af18b3d4579e1b	868989903	1	main_z	11	advance_on_keypress_ZEE	104	stimuli_distractor_trianglediamonds.svg	stimuli_distractor_trianglediamonds.svg	33	no	57	0	282
6.6.1	win	2022-12-15	07:59:29	08:06:40	430040	62a885d5b6af18b3d4579e1b	868989903	1	main_z	11	main_z	105	stimuli_target_squarediamonds.svg	stimuli_distractor_trianglediamonds.svg	4	yes	44	1	693
6.6.1	win	2022-12-15	07:59:29	08:06:40	430040	62a885d5b6af18b3d4579e1b	868989903	1	main_z	11	advance_on_keypress_ZEE	106	stimuli_target_squarediamonds.svg	stimuli_distractor_trianglediamonds.svg	4	yes	57	0	113
6.6.1	win	2022-12-15	07:59:29	08:06:42	431392	62a885d5b6af18b3d4579e1b	868989903	1	main_z	11	main_z	107	stimuli_distractor_trianglediamonds.svg	stimuli_target_trianglecircles.svg	25	yes	44	1	612
6.6.1	win	2022-12-15	07:59:29	08:06:42	431392	62a885d5b6af18b3d4579e1b	868989903	1	main_z	11	advance_on_keypress_ZEE	108	stimuli_distractor_trianglediamonds.svg	stimuli_target_trianglecircles.svg	25	yes	57	0	59
6.6.1	win	2022-12-15	07:59:29	08:06:43	432712	62a885d5b6af18b3d4579e1b	868989903	1	main_z	11	main_z	109	stimuli_distractor_diamondtriangles.svg	stimuli_target_squaretriangles.svg	15	yes	44	1	632
6.6.1	win	2022-12-15	07:59:29	08:06:43	432712	62a885d5b6af18b3d4579e1b	868989903	1	main_z	11	advance_on_keypress_ZEE	110	stimuli_distractor_diamondtriangles.svg	stimuli_target_squaretriangles.svg	15	yes	57	0	78
6.6.1	win	2022-12-15	07:59:29	08:06:45	434128	62a885d5b6af18b3d4579e1b	868989903	1	main_z	11	main_z	111	stimuli_target_trianglecircles.svg	stimuli_distractor_diamondtriangles.svg	21	yes	44	1	698
6.6.1	win	2022-12-15	07:59:29	08:06:45	434128	62a885d5b6af18b3d4579e1b	868989903	1	main_z	11	advance_on_keypress_ZEE	112	stimuli_target_trianglecircles.svg	stimuli_distractor_diamondtriangles.svg	21	yes	57	0	77
6.6.1	win	2022-12-15	07:59:29	08:06:46	435363	62a885d5b6af18b3d4579e1b	868989903	1	main_z	11	main_z	113	stimuli_distractor_trianglediamonds.svg	stimuli_target_circlediamonds.svg	10	yes	44	1	505
6.6.1	win	2022-12-15	07:59:29	08:06:46	435363	62a885d5b6af18b3d4579e1b	868989903	1	main_z	11	advance_on_keypress_ZEE	114	stimuli_distractor_trianglediamonds.svg	stimuli_target_circlediamonds.svg	10	yes	57	0	51
6.6.1	win	2022-12-15	07:59:29	08:06:47	436664	62a885d5b6af18b3d4579e1b	868989903	1	main_z	11	main_z	115	stimuli_target_trianglesquares.svg	stimuli_distractor_trianglediamonds.svg	18	yes	44	1	600
6.6.1	win	2022-12-15	07:59:29	08:06:47	436664	62a885d5b6af18b3d4579e1b	868989903	1	main_z	11	advance_on_keypress_ZEE	116	stimuli_target_trianglesquares.svg	stimuli_distractor_trianglediamonds.svg	18	yes	57	0	87
6.6.1	win	2022-12-15	07:59:29	08:06:48	437872	62a885d5b6af18b3d4579e1b	868989903	1	main_z	11	main_z	117	stimuli_target_trianglesquares.svg	stimuli_distractor_diamondtriangles.svg	22	yes	44	1	475
6.6.1	win	2022-12-15	07:59:29	08:06:48	437872	62a885d5b6af18b3d4579e1b	868989903	1	main_z	11	advance_on_keypress_ZEE	118	stimuli_target_trianglesquares.svg	stimuli_distractor_diamondtriangles.svg	22	yes	57	0	87
6.6.1	win	2022-12-15	07:59:29	08:06:50	439120	62a885d5b6af18b3d4579e1b	868989903	1	main_z	11	main_z	119	stimuli_target_squaretriangles.svg	stimuli_distractor_diamondtriangles.svg	7	yes	44	1	523
6.6.1	win	2022-12-15	07:59:29	08:06:50	439120	62a885d5b6af18b3d4579e1b	868989903	1	main_z	11	advance_on_keypress_ZEE	120	stimuli_target_squaretriangles.svg	stimuli_distractor_diamondtriangles.svg	7	yes	57	0	45
6.6.1	win	2022-12-15	07:59:29	08:06:51	440464	62a885d5b6af18b3d4579e1b	868989903	1	main_z	11	main_z	121	stimuli_target_diamondcircles.svg	stimuli_distractor_trianglediamonds.svg	19	yes	44	1	666
6.6.1	win	2022-12-15	07:59:29	08:06:51	440464	62a885d5b6af18b3d4579e1b	868989903	1	main_z	11	advance_on_keypress_ZEE	122	stimuli_target_diamondcircles.svg	stimuli_distractor_trianglediamonds.svg	19	yes	57	0	87
6.6.1	win	2022-12-15	07:59:29	08:06:52	441714	62a885d5b6af18b3d4579e1b	868989903	1	main_z	11	main_z	123	stimuli_target_circletriangles.svg	stimuli_distractor_diamondtriangles.svg	5	yes	44	1	506
6.6.1	win	2022-12-15	07:59:29	08:06:52	441714	62a885d5b6af18b3d4579e1b	868989903	1	main_z	11	advance_on_keypress_ZEE	124	stimuli_target_circletriangles.svg	stimuli_distractor_diamondtriangles.svg	5	yes	57	0	53
6.6.1	win	2022-12-15	07:59:29	08:06:53	442840	62a885d5b6af18b3d4579e1b	868989903	1	main_z	11	main_z	125	stimuli_target_circlediamonds.svg	stimuli_distractor_trianglediamonds.svg	2	yes	44	1	426
6.6.1	win	2022-12-15	07:59:29	08:06:53	442840	62a885d5b6af18b3d4579e1b	868989903	1	main_z	11	advance_on_keypress_ZEE	126	stimuli_target_circlediamonds.svg	stimuli_distractor_trianglediamonds.svg	2	yes	57	0	72
6.6.1	win	2022-12-15	07:59:29	08:06:55	444088	62a885d5b6af18b3d4579e1b	868989903	1	main_z	11	main_z	127	stimuli_target_trianglecircles.svg	stimuli_distractor_trianglediamonds.svg	17	yes	44	1	540
6.6.1	win	2022-12-15	07:59:29	08:06:55	444088	62a885d5b6af18b3d4579e1b	868989903	1	main_z	11	advance_on_keypress_ZEE	128	stimuli_target_trianglecircles.svg	stimuli_distractor_trianglediamonds.svg	17	yes	57	0	70
6.6.1	win	2022-12-15	07:59:29	08:06:56	445456	62a885d5b6af18b3d4579e1b	868989903	1	main_z	11	main_z	129	stimuli_distractor_trianglediamonds.svg	stimuli_target_diamondsquares.svg	28	yes	44	1	658
6.6.1	win	2022-12-15	07:59:29	08:06:56	445456	62a885d5b6af18b3d4579e1b	868989903	1	main_z	11	advance_on_keypress_ZEE	130	stimuli_distractor_trianglediamonds.svg	stimuli_target_diamondsquares.svg	28	yes	57	0	7
6.6.1	win	2022-12-15	07:59:29	08:06:57	446634	62a885d5b6af18b3d4579e1b	868989903	1	main_z	11	main_z	131	stimuli_target_squarediamonds.svg	stimuli_distractor_diamondtriangles.svg	8	yes	44	1	517
6.6.1	win	2022-12-15	07:59:29	08:06:57	446634	62a885d5b6af18b3d4579e1b	868989903	1	main_z	11	advance_on_keypress_ZEE	132	stimuli_target_squarediamonds.svg	stimuli_distractor_diamondtriangles.svg	8	yes	57	0	80
6.6.1	win	2022-12-15	07:59:29	08:06:58	447832	62a885d5b6af18b3d4579e1b	868989903	1	main_z	11	main_z	133	stimuli_distractor_diamondtriangles.svg	stimuli_target_squarediamonds.svg	16	yes	44	1	484
6.6.1	win	2022-12-15	07:59:29	08:06:58	447832	62a885d5b6af18b3d4579e1b	868989903	1	main_z	11	advance_on_keypress_ZEE	134	stimuli_distractor_diamondtriangles.svg	stimuli_target_squarediamonds.svg	16	yes	57	0	80
6.6.1	win	2022-12-15	07:59:29	08:06:59	449048	62a885d5b6af18b3d4579e1b	868989903	1	main_z	11	main_z	135	stimuli_target_circlediamonds.svg	stimuli_distractor_diamondtriangles.svg	6	yes	44	1	500
6.6.1	win	2022-12-15	07:59:29	08:06:59	449048	62a885d5b6af18b3d4579e1b	868989903	1	main_z	11	advance_on_keypress_ZEE	136	stimuli_target_circlediamonds.svg	stimuli_distractor_diamondtriangles.svg	6	yes	57	0	79
6.6.1	win	2022-12-15	07:59:29	08:07:01	450256	62a885d5b6af18b3d4579e1b	868989903	1	main_z	11	main_z	137	stimuli_target_squaretriangles.svg	stimuli_distractor_trianglediamonds.svg	3	yes	44	1	474
6.6.1	win	2022-12-15	07:59:29	08:07:01	450256	62a885d5b6af18b3d4579e1b	868989903	1	main_z	11	advance_on_keypress_ZEE	138	stimuli_target_squaretriangles.svg	stimuli_distractor_trianglediamonds.svg	3	yes	57	0	87
6.6.1	win	2022-12-15	07:59:29	08:07:02	451472	62a885d5b6af18b3d4579e1b	868989903	1	main_z	11	main_z	139	stimuli_distractor_trianglediamonds.svg	stimuli_target_squaretriangles.svg	11	yes	44	1	490
6.6.1	win	2022-12-15	07:59:29	08:07:02	451472	62a885d5b6af18b3d4579e1b	868989903	1	main_z	11	advance_on_keypress_ZEE	140	stimuli_distractor_trianglediamonds.svg	stimuli_target_squaretriangles.svg	11	yes	57	0	86
6.6.1	win	2022-12-15	07:59:29	08:07:05	454199	62a885d5b6af18b3d4579e1b	868989903	1	main_z	11	main_z	141	stimuli_distractor_trianglediamonds.svg	stimuli_distractor_diamondtriangles.svg	36	no	0	1	2000
6.6.1	win	2022-12-15	07:59:29	08:07:05	454199	62a885d5b6af18b3d4579e1b	868989903	1	main_z	11	advance_on_keypress_ZEE	142	stimuli_distractor_trianglediamonds.svg	stimuli_distractor_diamondtriangles.svg	36	no	57	0	545
6.6.1	win	2022-12-15	07:59:29	08:07:06	456072	62a885d5b6af18b3d4579e1b	868989903	1	main_z	11	main_z	143	stimuli_distractor_trianglediamonds.svg	stimuli_target_trianglesquares.svg	26	yes	44	1	690
6.6.1	win	2022-12-15	07:59:29	08:07:06	456072	62a885d5b6af18b3d4579e1b	868989903	1	main_z	11	advance_on_keypress_ZEE	144	stimuli_distractor_trianglediamonds.svg	stimuli_target_trianglesquares.svg	26	yes	57	0	86
6.6.1	win	2022-12-15	07:59:29	08:07:08	457216	62a885d5b6af18b3d4579e1b	868989903	1	main_z	11	main_z	145	stimuli_distractor_trianglediamonds.svg	stimuli_target_diamondcircles.svg	27	yes	44	1	417
6.6.1	win	2022-12-15	07:59:29	08:07:08	457216	62a885d5b6af18b3d4579e1b	868989903	1	main_z	11	advance_on_keypress_ZEE	146	stimuli_distractor_trianglediamonds.svg	stimuli_target_diamondcircles.svg	27	yes	57	0	64
6.6.1	win	2022-12-15	07:59:29	08:07:09	458368	62a885d5b6af18b3d4579e1b	868989903	1	main_z	11	main_z	147	stimuli_distractor_diamondtriangles.svg	stimuli_target_circlediamonds.svg	14	yes	44	1	452
6.6.1	win	2022-12-15	07:59:29	08:07:09	458368	62a885d5b6af18b3d4579e1b	868989903	1	main_z	11	advance_on_keypress_ZEE	148	stimuli_distractor_diamondtriangles.svg	stimuli_target_circlediamonds.svg	14	yes	57	0	82
6.6.1	win	2022-12-15	07:59:29	08:07:10	459712	62a885d5b6af18b3d4579e1b	868989903	1	main_z	11	main_z	149	stimuli_distractor_diamondtriangles.svg	stimuli_target_diamondcircles.svg	31	yes	44	1	613
6.6.1	win	2022-12-15	07:59:29	08:07:10	459712	62a885d5b6af18b3d4579e1b	868989903	1	main_z	11	advance_on_keypress_ZEE	150	stimuli_distractor_diamondtriangles.svg	stimuli_target_diamondcircles.svg	31	yes	57	0	100
6.6.1	win	2022-12-15	07:59:29	08:07:11	460896	62a885d5b6af18b3d4579e1b	868989903	1	main_z	11	main_z	151	stimuli_distractor_trianglediamonds.svg	stimuli_target_circletriangles.svg	9	yes	44	1	447
6.6.1	win	2022-12-15	07:59:29	08:07:11	460896	62a885d5b6af18b3d4579e1b	868989903	1	main_z	11	advance_on_keypress_ZEE	152	stimuli_distractor_trianglediamonds.svg	stimuli_target_circletriangles.svg	9	yes	57	0	93
6.6.1	win	2022-12-15	07:59:29	08:07:14	463616	62a885d5b6af18b3d4579e1b	868989903	1	main_z	11	main_z	153	stimuli_distractor_diamondtriangles.svg	stimuli_distractor_trianglediamonds.svg	37	no	0	1	2000
6.6.1	win	2022-12-15	07:59:29	08:07:14	463616	62a885d5b6af18b3d4579e1b	868989903	1	main_z	11	advance_on_keypress_ZEE	154	stimuli_distractor_diamondtriangles.svg	stimuli_distractor_trianglediamonds.svg	37	no	57	0	655
6.6.1	win	2022-12-15	07:59:29	08:07:16	465384	62a885d5b6af18b3d4579e1b	868989903	1	main_z	11	main_z	155	stimuli_distractor_diamondtriangles.svg	stimuli_target_trianglecircles.svg	29	yes	44	1	468
6.6.1	win	2022-12-15	07:59:29	08:07:16	465384	62a885d5b6af18b3d4579e1b	868989903	1	main_z	11	advance_on_keypress_ZEE	156	stimuli_distractor_diamondtriangles.svg	stimuli_target_trianglecircles.svg	29	yes	57	0	80
6.6.1	win	2022-12-15	07:59:29	08:07:17	466552	62a885d5b6af18b3d4579e1b	868989903	1	main_z	11	main_z	157	stimuli_distractor_diamondtriangles.svg	stimuli_target_trianglesquares.svg	30	yes	44	1	452
6.6.1	win	2022-12-15	07:59:29	08:07:17	466552	62a885d5b6af18b3d4579e1b	868989903	1	main_z	11	advance_on_keypress_ZEE	158	stimuli_distractor_diamondtriangles.svg	stimuli_target_trianglesquares.svg	30	yes	57	0	90
6.6.1	win	2022-12-15	07:59:29	08:07:18	467680	62a885d5b6af18b3d4579e1b	868989903	1	main_z	11	main_z	159	stimuli_distractor_trianglediamonds.svg	stimuli_target_squarediamonds.svg	12	yes	44	1	397
6.6.1	win	2022-12-15	07:59:29	08:07:18	467680	62a885d5b6af18b3d4579e1b	868989903	1	main_z	11	advance_on_keypress_ZEE	160	stimuli_distractor_trianglediamonds.svg	stimuli_target_squarediamonds.svg	12	yes	57	0	93