build	computer.platform	date	time	timestamp	time_elapsed_ms	subject	group	session	blockcode	blocknum	trialcode	trialnum	stimulus_left	stimulus_right	stim_index	target_present	response	correct	latency
6.6.1	win	2022-12-14	15:00:38	15:03:11	149749	5ed85fbefd7ffe37615b73a4	973138344	1	practice_z	5	practice_z	1	stimuli_target_diamondsquares.svg	stimuli_distractor_diamondtriangles.svg	3	yes	0	0	2000
6.6.1	win	2022-12-14	15:00:38	15:03:11	149749	5ed85fbefd7ffe37615b73a4	973138344	1	practice_z	5	advance_on_keypress_ZEE	2	stimuli_target_diamondsquares.svg	stimuli_distractor_diamondtriangles.svg	3	yes	57	0	1977
6.6.1	win	2022-12-14	15:00:38	15:03:16	155382	5ed85fbefd7ffe37615b73a4	973138344	1	practice_z	5	practice_z	3	stimuli_distractor_trianglediamonds.svg	stimuli_distractor_trianglediamonds.svg	15	no	0	1	2000
6.6.1	win	2022-12-14	15:00:38	15:03:16	155382	5ed85fbefd7ffe37615b73a4	973138344	1	practice_z	5	advance_on_keypress_ZEE	4	stimuli_distractor_trianglediamonds.svg	stimuli_distractor_trianglediamonds.svg	15	no	57	0	728
6.6.1	win	2022-12-14	15:00:38	15:03:20	158539	5ed85fbefd7ffe37615b73a4	973138344	1	practice_z	5	practice_z	5	stimuli_target_squarediamonds.svg	stimuli_distractor_trianglediamonds.svg	5	yes	44	1	773
6.6.1	win	2022-12-14	15:00:38	15:03:20	158539	5ed85fbefd7ffe37615b73a4	973138344	1	practice_z	5	advance_on_keypress_ZEE	6	stimuli_target_squarediamonds.svg	stimuli_distractor_trianglediamonds.svg	5	yes	57	0	602
6.6.1	win	2022-12-14	15:00:38	15:03:24	162783	5ed85fbefd7ffe37615b73a4	973138344	1	practice_z	5	practice_z	7	stimuli_distractor_diamondtriangles.svg	stimuli_distractor_trianglediamonds.svg	14	no	0	1	2000
6.6.1	win	2022-12-14	15:00:38	15:03:24	162783	5ed85fbefd7ffe37615b73a4	973138344	1	practice_z	5	advance_on_keypress_ZEE	8	stimuli_distractor_diamondtriangles.svg	stimuli_distractor_trianglediamonds.svg	14	no	57	0	572
6.6.1	win	2022-12-14	15:00:38	15:03:28	166999	5ed85fbefd7ffe37615b73a4	973138344	1	practice_z	5	practice_z	9	stimuli_distractor_trianglediamonds.svg	stimuli_distractor_diamondtriangles.svg	16	no	0	1	2000
6.6.1	win	2022-12-14	15:00:38	15:03:28	166999	5ed85fbefd7ffe37615b73a4	973138344	1	practice_z	5	advance_on_keypress_ZEE	10	stimuli_distractor_trianglediamonds.svg	stimuli_distractor_diamondtriangles.svg	16	no	57	0	563
6.6.1	win	2022-12-14	15:00:38	15:03:31	170171	5ed85fbefd7ffe37615b73a4	973138344	1	practice_z	5	practice_z	11	stimuli_distractor_trianglediamonds.svg	stimuli_target_squarediamonds.svg	11	yes	44	1	955
6.6.1	win	2022-12-14	15:00:38	15:03:31	170171	5ed85fbefd7ffe37615b73a4	973138344	1	practice_z	5	advance_on_keypress_ZEE	12	stimuli_distractor_trianglediamonds.svg	stimuli_target_squarediamonds.svg	11	yes	57	0	584
6.6.1	win	2022-12-14	15:00:38	15:03:35	174399	5ed85fbefd7ffe37615b73a4	973138344	1	practice_z	5	practice_z	13	stimuli_distractor_diamondtriangles.svg	stimuli_distractor_diamondtriangles.svg	13	no	0	1	2000
6.6.1	win	2022-12-14	15:00:38	15:03:35	174399	5ed85fbefd7ffe37615b73a4	973138344	1	practice_z	5	advance_on_keypress_ZEE	14	stimuli_distractor_diamondtriangles.svg	stimuli_distractor_diamondtriangles.svg	13	no	57	0	459
6.6.1	win	2022-12-14	15:00:38	15:03:39	177463	5ed85fbefd7ffe37615b73a4	973138344	1	practice_z	5	practice_z	15	stimuli_distractor_diamondtriangles.svg	stimuli_target_circletriangles.svg	7	yes	44	1	947
6.6.1	win	2022-12-14	15:00:38	15:03:39	177463	5ed85fbefd7ffe37615b73a4	973138344	1	practice_z	5	advance_on_keypress_ZEE	16	stimuli_distractor_diamondtriangles.svg	stimuli_target_circletriangles.svg	7	yes	57	0	420
6.6.1	win	2022-12-14	15:00:38	15:03:42	180574	5ed85fbefd7ffe37615b73a4	973138344	1	practice_z	5	practice_z	17	stimuli_distractor_trianglediamonds.svg	stimuli_target_circlediamonds.svg	10	yes	44	1	1042
6.6.1	win	2022-12-14	15:00:38	15:03:42	180574	5ed85fbefd7ffe37615b73a4	973138344	1	practice_z	5	advance_on_keypress_ZEE	18	stimuli_distractor_trianglediamonds.svg	stimuli_target_circlediamonds.svg	10	yes	57	0	400
6.6.1	win	2022-12-14	15:00:38	15:03:45	183567	5ed85fbefd7ffe37615b73a4	973138344	1	practice_z	5	practice_z	19	stimuli_target_circlediamonds.svg	stimuli_distractor_trianglediamonds.svg	4	yes	44	1	951
6.6.1	win	2022-12-14	15:00:38	15:03:45	183567	5ed85fbefd7ffe37615b73a4	973138344	1	practice_z	5	advance_on_keypress_ZEE	20	stimuli_target_circlediamonds.svg	stimuli_distractor_trianglediamonds.svg	4	yes	57	0	360
6.6.1	win	2022-12-14	15:00:38	15:03:48	186818	5ed85fbefd7ffe37615b73a4	973138344	1	practice_z	5	practice_z	21	stimuli_distractor_diamondtriangles.svg	stimuli_target_diamondcircles.svg	8	yes	44	1	1236
6.6.1	win	2022-12-14	15:00:38	15:03:48	186818	5ed85fbefd7ffe37615b73a4	973138344	1	practice_z	5	advance_on_keypress_ZEE	22	stimuli_distractor_diamondtriangles.svg	stimuli_target_diamondcircles.svg	8	yes	57	0	410
6.6.1	win	2022-12-14	15:00:38	15:03:51	189839	5ed85fbefd7ffe37615b73a4	973138344	1	practice_z	5	practice_z	23	stimuli_distractor_trianglediamonds.svg	stimuli_target_diamondcircles.svg	12	yes	44	1	973
6.6.1	win	2022-12-14	15:00:38	15:03:51	189839	5ed85fbefd7ffe37615b73a4	973138344	1	practice_z	5	advance_on_keypress_ZEE	24	stimuli_distractor_trianglediamonds.svg	stimuli_target_diamondcircles.svg	12	yes	57	0	422
6.6.1	win	2022-12-14	15:00:38	15:03:55	193899	5ed85fbefd7ffe37615b73a4	973138344	1	practice_z	5	practice_z	25	stimuli_target_diamondsquares.svg	stimuli_distractor_trianglediamonds.svg	6	yes	0	0	2000
6.6.1	win	2022-12-14	15:00:38	15:03:55	193899	5ed85fbefd7ffe37615b73a4	973138344	1	practice_z	5	advance_on_keypress_ZEE	26	stimuli_target_diamondsquares.svg	stimuli_distractor_trianglediamonds.svg	6	yes	57	0	1011
6.6.1	win	2022-12-14	15:00:38	15:03:59	197427	5ed85fbefd7ffe37615b73a4	973138344	1	practice_z	5	practice_z	27	stimuli_distractor_diamondtriangles.svg	stimuli_target_trianglecircles.svg	9	yes	44	1	861
6.6.1	win	2022-12-14	15:00:38	15:03:59	197427	5ed85fbefd7ffe37615b73a4	973138344	1	practice_z	5	advance_on_keypress_ZEE	28	stimuli_distractor_diamondtriangles.svg	stimuli_target_trianglecircles.svg	9	yes	57	0	442
6.6.1	win	2022-12-14	15:00:38	15:04:02	200559	5ed85fbefd7ffe37615b73a4	973138344	1	practice_z	5	practice_z	29	stimuli_target_circlediamonds.svg	stimuli_distractor_diamondtriangles.svg	1	yes	44	1	1043
6.6.1	win	2022-12-14	15:00:38	15:04:02	200559	5ed85fbefd7ffe37615b73a4	973138344	1	practice_z	5	advance_on_keypress_ZEE	30	stimuli_target_circlediamonds.svg	stimuli_distractor_diamondtriangles.svg	1	yes	57	0	373
6.6.1	win	2022-12-14	15:00:38	15:04:05	203455	5ed85fbefd7ffe37615b73a4	973138344	1	practice_z	5	practice_z	31	stimuli_target_squarediamonds.svg	stimuli_distractor_diamondtriangles.svg	2	yes	44	1	889
6.6.1	win	2022-12-14	15:00:38	15:04:05	203455	5ed85fbefd7ffe37615b73a4	973138344	1	practice_z	5	advance_on_keypress_ZEE	32	stimuli_target_squarediamonds.svg	stimuli_distractor_diamondtriangles.svg	2	yes	57	0	433
6.6.1	win	2022-12-14	15:00:38	15:04:15	214400	5ed85fbefd7ffe37615b73a4	973138344	1	main_z	7	main_z	1	stimuli_distractor_diamondtriangles.svg	stimuli_target_squaretriangles.svg	15	yes	44	1	953
6.6.1	win	2022-12-14	15:00:38	15:04:15	214400	5ed85fbefd7ffe37615b73a4	973138344	1	main_z	7	advance_on_keypress_ZEE	2	stimuli_distractor_diamondtriangles.svg	stimuli_target_squaretriangles.svg	15	yes	57	0	715
6.6.1	win	2022-12-14	15:00:38	15:04:19	217764	5ed85fbefd7ffe37615b73a4	973138344	1	main_z	7	main_z	3	stimuli_distractor_trianglediamonds.svg	stimuli_distractor_diamondtriangles.svg	35	no	0	1	2000
6.6.1	win	2022-12-14	15:00:38	15:04:19	217764	5ed85fbefd7ffe37615b73a4	973138344	1	main_z	7	advance_on_keypress_ZEE	4	stimuli_distractor_trianglediamonds.svg	stimuli_distractor_diamondtriangles.svg	35	no	57	0	368
6.6.1	win	2022-12-14	15:00:38	15:04:22	220780	5ed85fbefd7ffe37615b73a4	973138344	1	main_z	7	main_z	5	stimuli_distractor_diamondtriangles.svg	stimuli_distractor_trianglediamonds.svg	37	no	0	1	2000
6.6.1	win	2022-12-14	15:00:38	15:04:22	220780	5ed85fbefd7ffe37615b73a4	973138344	1	main_z	7	advance_on_keypress_ZEE	6	stimuli_distractor_diamondtriangles.svg	stimuli_distractor_trianglediamonds.svg	37	no	57	0	688
6.6.1	win	2022-12-14	15:00:38	15:04:24	222680	5ed85fbefd7ffe37615b73a4	973138344	1	main_z	7	main_z	7	stimuli_target_squaretriangles.svg	stimuli_distractor_diamondtriangles.svg	7	yes	44	1	567
6.6.1	win	2022-12-14	15:00:38	15:04:24	222680	5ed85fbefd7ffe37615b73a4	973138344	1	main_z	7	advance_on_keypress_ZEE	8	stimuli_target_squaretriangles.svg	stimuli_distractor_diamondtriangles.svg	7	yes	57	0	788
6.6.1	win	2022-12-14	15:00:38	15:04:26	225232	5ed85fbefd7ffe37615b73a4	973138344	1	main_z	7	main_z	9	stimuli_distractor_trianglediamonds.svg	stimuli_target_diamondsquares.svg	28	yes	44	1	1119
6.6.1	win	2022-12-14	15:00:38	15:04:26	225232	5ed85fbefd7ffe37615b73a4	973138344	1	main_z	7	advance_on_keypress_ZEE	10	stimuli_distractor_trianglediamonds.svg	stimuli_target_diamondsquares.svg	28	yes	57	0	614
6.6.1	win	2022-12-14	15:00:38	15:04:28	227312	5ed85fbefd7ffe37615b73a4	973138344	1	main_z	7	main_z	11	stimuli_distractor_diamondtriangles.svg	stimuli_target_trianglecircles.svg	29	yes	44	1	816
6.6.1	win	2022-12-14	15:00:38	15:04:28	227312	5ed85fbefd7ffe37615b73a4	973138344	1	main_z	7	advance_on_keypress_ZEE	12	stimuli_distractor_diamondtriangles.svg	stimuli_target_trianglecircles.svg	29	yes	57	0	514
6.6.1	win	2022-12-14	15:00:38	15:04:31	229888	5ed85fbefd7ffe37615b73a4	973138344	1	main_z	7	main_z	13	stimuli_distractor_diamondtriangles.svg	stimuli_target_squarediamonds.svg	16	yes	44	1	1408
6.6.1	win	2022-12-14	15:00:38	15:04:31	229888	5ed85fbefd7ffe37615b73a4	973138344	1	main_z	7	advance_on_keypress_ZEE	14	stimuli_distractor_diamondtriangles.svg	stimuli_target_squarediamonds.svg	16	yes	57	0	628
6.6.1	win	2022-12-14	15:00:38	15:04:34	233147	5ed85fbefd7ffe37615b73a4	973138344	1	main_z	7	main_z	15	stimuli_target_diamondsquares.svg	stimuli_distractor_trianglediamonds.svg	20	yes	0	0	2000
6.6.1	win	2022-12-14	15:00:38	15:04:34	233147	5ed85fbefd7ffe37615b73a4	973138344	1	main_z	7	advance_on_keypress_ZEE	16	stimuli_target_diamondsquares.svg	stimuli_distractor_trianglediamonds.svg	20	yes	57	0	521
6.6.1	win	2022-12-14	15:00:38	15:04:37	235880	5ed85fbefd7ffe37615b73a4	973138344	1	main_z	7	main_z	17	stimuli_target_trianglesquares.svg	stimuli_distractor_trianglediamonds.svg	18	yes	44	1	1567
6.6.1	win	2022-12-14	15:00:38	15:04:37	235880	5ed85fbefd7ffe37615b73a4	973138344	1	main_z	7	advance_on_keypress_ZEE	18	stimuli_target_trianglesquares.svg	stimuli_distractor_trianglediamonds.svg	18	yes	57	0	688
6.6.1	win	2022-12-14	15:00:38	15:04:39	238156	5ed85fbefd7ffe37615b73a4	973138344	1	main_z	7	main_z	19	stimuli_distractor_diamondtriangles.svg	stimuli_target_circlediamonds.svg	14	yes	44	1	943
6.6.1	win	2022-12-14	15:00:38	15:04:39	238156	5ed85fbefd7ffe37615b73a4	973138344	1	main_z	7	advance_on_keypress_ZEE	20	stimuli_distractor_diamondtriangles.svg	stimuli_target_circlediamonds.svg	14	yes	57	0	581
6.6.1	win	2022-12-14	15:00:38	15:04:42	241380	5ed85fbefd7ffe37615b73a4	973138344	1	main_z	7	main_z	21	stimuli_distractor_trianglediamonds.svg	stimuli_distractor_diamondtriangles.svg	36	no	0	1	2000
6.6.1	win	2022-12-14	15:00:38	15:04:42	241380	5ed85fbefd7ffe37615b73a4	973138344	1	main_z	7	advance_on_keypress_ZEE	22	stimuli_distractor_trianglediamonds.svg	stimuli_distractor_diamondtriangles.svg	36	no	57	0	504
6.6.1	win	2022-12-14	15:00:38	15:04:44	243180	5ed85fbefd7ffe37615b73a4	973138344	1	main_z	7	main_z	23	stimuli_target_squarediamonds.svg	stimuli_distractor_diamondtriangles.svg	8	yes	44	1	650
6.6.1	win	2022-12-14	15:00:38	15:04:44	243180	5ed85fbefd7ffe37615b73a4	973138344	1	main_z	7	advance_on_keypress_ZEE	24	stimuli_target_squarediamonds.svg	stimuli_distractor_diamondtriangles.svg	8	yes	57	0	540
6.6.1	win	2022-12-14	15:00:38	15:04:46	245141	5ed85fbefd7ffe37615b73a4	973138344	1	main_z	7	main_z	25	stimuli_target_trianglecircles.svg	stimuli_distractor_diamondtriangles.svg	21	yes	44	1	777
6.6.1	win	2022-12-14	15:00:38	15:04:46	245141	5ed85fbefd7ffe37615b73a4	973138344	1	main_z	7	advance_on_keypress_ZEE	26	stimuli_target_trianglecircles.svg	stimuli_distractor_diamondtriangles.svg	21	yes	57	0	673
6.6.1	win	2022-12-14	15:00:38	15:04:48	247313	5ed85fbefd7ffe37615b73a4	973138344	1	main_z	7	main_z	27	stimuli_target_squarediamonds.svg	stimuli_distractor_trianglediamonds.svg	4	yes	44	1	866
6.6.1	win	2022-12-14	15:00:38	15:04:48	247313	5ed85fbefd7ffe37615b73a4	973138344	1	main_z	7	advance_on_keypress_ZEE	28	stimuli_target_squarediamonds.svg	stimuli_distractor_trianglediamonds.svg	4	yes	57	0	438
6.6.1	win	2022-12-14	15:00:38	15:04:51	249900	5ed85fbefd7ffe37615b73a4	973138344	1	main_z	7	main_z	29	stimuli_distractor_diamondtriangles.svg	stimuli_target_trianglesquares.svg	30	yes	44	1	1504
6.6.1	win	2022-12-14	15:00:38	15:04:51	249900	5ed85fbefd7ffe37615b73a4	973138344	1	main_z	7	advance_on_keypress_ZEE	30	stimuli_distractor_diamondtriangles.svg	stimuli_target_trianglesquares.svg	30	yes	57	0	535
6.6.1	win	2022-12-14	15:00:38	15:04:53	251980	5ed85fbefd7ffe37615b73a4	973138344	1	main_z	7	main_z	31	stimuli_distractor_trianglediamonds.svg	stimuli_target_squarediamonds.svg	12	yes	44	1	900
6.6.1	win	2022-12-14	15:00:38	15:04:53	251980	5ed85fbefd7ffe37615b73a4	973138344	1	main_z	7	advance_on_keypress_ZEE	32	stimuli_distractor_trianglediamonds.svg	stimuli_target_squarediamonds.svg	12	yes	57	0	436
6.6.1	win	2022-12-14	15:00:38	15:04:55	254308	5ed85fbefd7ffe37615b73a4	973138344	1	main_z	7	main_z	33	stimuli_distractor_trianglediamonds.svg	stimuli_target_trianglesquares.svg	26	yes	44	1	1245
6.6.1	win	2022-12-14	15:00:38	15:04:55	254308	5ed85fbefd7ffe37615b73a4	973138344	1	main_z	7	advance_on_keypress_ZEE	34	stimuli_distractor_trianglediamonds.svg	stimuli_target_trianglesquares.svg	26	yes	57	0	431
6.6.1	win	2022-12-14	15:00:38	15:04:58	257380	5ed85fbefd7ffe37615b73a4	973138344	1	main_z	7	main_z	35	stimuli_distractor_trianglediamonds.svg	stimuli_target_squaretriangles.svg	11	yes	0	0	2000
6.6.1	win	2022-12-14	15:00:38	15:04:58	257380	5ed85fbefd7ffe37615b73a4	973138344	1	main_z	7	advance_on_keypress_ZEE	36	stimuli_distractor_trianglediamonds.svg	stimuli_target_squaretriangles.svg	11	yes	57	0	668
6.6.1	win	2022-12-14	15:00:38	15:05:02	260697	5ed85fbefd7ffe37615b73a4	973138344	1	main_z	7	main_z	37	stimuli_distractor_diamondtriangles.svg	stimuli_distractor_trianglediamonds.svg	38	no	0	1	2000
6.6.1	win	2022-12-14	15:00:38	15:05:02	260697	5ed85fbefd7ffe37615b73a4	973138344	1	main_z	7	advance_on_keypress_ZEE	38	stimuli_distractor_diamondtriangles.svg	stimuli_distractor_trianglediamonds.svg	38	no	57	0	347
6.6.1	win	2022-12-14	15:00:38	15:05:05	263697	5ed85fbefd7ffe37615b73a4	973138344	1	main_z	7	main_z	39	stimuli_distractor_trianglediamonds.svg	stimuli_distractor_trianglediamonds.svg	33	no	0	1	2000
6.6.1	win	2022-12-14	15:00:38	15:05:05	263697	5ed85fbefd7ffe37615b73a4	973138344	1	main_z	7	advance_on_keypress_ZEE	40	stimuli_distractor_trianglediamonds.svg	stimuli_distractor_trianglediamonds.svg	33	no	57	0	583
6.6.1	win	2022-12-14	15:00:38	15:05:07	265988	5ed85fbefd7ffe37615b73a4	973138344	1	main_z	7	main_z	41	stimuli_distractor_diamondtriangles.svg	stimuli_target_circletriangles.svg	13	yes	44	1	1058
6.6.1	win	2022-12-14	15:00:38	15:05:07	265988	5ed85fbefd7ffe37615b73a4	973138344	1	main_z	7	advance_on_keypress_ZEE	42	stimuli_distractor_diamondtriangles.svg	stimuli_target_circletriangles.svg	13	yes	57	0	800
6.6.1	win	2022-12-14	15:00:38	15:05:11	269430	5ed85fbefd7ffe37615b73a4	973138344	1	main_z	7	main_z	43	stimuli_distractor_diamondtriangles.svg	stimuli_target_diamondsquares.svg	32	yes	0	0	2000
6.6.1	win	2022-12-14	15:00:38	15:05:11	269430	5ed85fbefd7ffe37615b73a4	973138344	1	main_z	7	advance_on_keypress_ZEE	44	stimuli_distractor_diamondtriangles.svg	stimuli_target_diamondsquares.svg	32	yes	57	0	454
6.6.1	win	2022-12-14	15:00:38	15:05:12	271192	5ed85fbefd7ffe37615b73a4	973138344	1	main_z	7	main_z	45	stimuli_distractor_trianglediamonds.svg	stimuli_target_diamondcircles.svg	27	yes	44	1	662
6.6.1	win	2022-12-14	15:00:38	15:05:12	271192	5ed85fbefd7ffe37615b73a4	973138344	1	main_z	7	advance_on_keypress_ZEE	46	stimuli_distractor_trianglediamonds.svg	stimuli_target_diamondcircles.svg	27	yes	57	0	936
6.6.1	win	2022-12-14	15:00:38	15:05:16	274764	5ed85fbefd7ffe37615b73a4	973138344	1	main_z	7	main_z	47	stimuli_distractor_trianglediamonds.svg	stimuli_target_circletriangles.svg	9	yes	0	0	2000
6.6.1	win	2022-12-14	15:00:38	15:05:16	274764	5ed85fbefd7ffe37615b73a4	973138344	1	main_z	7	advance_on_keypress_ZEE	48	stimuli_distractor_trianglediamonds.svg	stimuli_target_circletriangles.svg	9	yes	57	0	580
6.6.1	win	2022-12-14	15:00:38	15:05:19	277997	5ed85fbefd7ffe37615b73a4	973138344	1	main_z	7	main_z	49	stimuli_distractor_trianglediamonds.svg	stimuli_distractor_trianglediamonds.svg	34	no	0	1	2000
6.6.1	win	2022-12-14	15:00:38	15:05:19	277997	5ed85fbefd7ffe37615b73a4	973138344	1	main_z	7	advance_on_keypress_ZEE	50	stimuli_distractor_trianglediamonds.svg	stimuli_distractor_trianglediamonds.svg	34	no	57	0	335
6.6.1	win	2022-12-14	15:00:38	15:05:21	279748	5ed85fbefd7ffe37615b73a4	973138344	1	main_z	7	main_z	51	stimuli_distractor_trianglediamonds.svg	stimuli_target_circlediamonds.svg	10	yes	44	1	768
6.6.1	win	2022-12-14	15:00:38	15:05:21	279748	5ed85fbefd7ffe37615b73a4	973138344	1	main_z	7	advance_on_keypress_ZEE	52	stimuli_distractor_trianglediamonds.svg	stimuli_target_circlediamonds.svg	10	yes	57	0	537
6.6.1	win	2022-12-14	15:00:38	15:05:23	281556	5ed85fbefd7ffe37615b73a4	973138344	1	main_z	7	main_z	53	stimuli_target_trianglecircles.svg	stimuli_distractor_trianglediamonds.svg	17	yes	44	1	626
6.6.1	win	2022-12-14	15:00:38	15:05:23	281556	5ed85fbefd7ffe37615b73a4	973138344	1	main_z	7	advance_on_keypress_ZEE	54	stimuli_target_trianglecircles.svg	stimuli_distractor_trianglediamonds.svg	17	yes	57	0	461
6.6.1	win	2022-12-14	15:00:38	15:05:24	283228	5ed85fbefd7ffe37615b73a4	973138344	1	main_z	7	main_z	55	stimuli_target_trianglesquares.svg	stimuli_distractor_diamondtriangles.svg	22	yes	44	1	582
6.6.1	win	2022-12-14	15:00:38	15:05:24	283228	5ed85fbefd7ffe37615b73a4	973138344	1	main_z	7	advance_on_keypress_ZEE	56	stimuli_target_trianglesquares.svg	stimuli_distractor_diamondtriangles.svg	22	yes	57	0	478
6.6.1	win	2022-12-14	15:00:38	15:05:26	284888	5ed85fbefd7ffe37615b73a4	973138344	1	main_z	7	main_z	57	stimuli_target_diamondcircles.svg	stimuli_distractor_diamondtriangles.svg	23	yes	44	1	541
6.6.1	win	2022-12-14	15:00:38	15:05:26	284888	5ed85fbefd7ffe37615b73a4	973138344	1	main_z	7	advance_on_keypress_ZEE	58	stimuli_target_diamondcircles.svg	stimuli_distractor_diamondtriangles.svg	23	yes	57	0	408
6.6.1	win	2022-12-14	15:00:38	15:05:28	287116	5ed85fbefd7ffe37615b73a4	973138344	1	main_z	7	main_z	59	stimuli_target_circlediamonds.svg	stimuli_distractor_diamondtriangles.svg	6	yes	44	1	1186
6.6.1	win	2022-12-14	15:00:38	15:05:28	287116	5ed85fbefd7ffe37615b73a4	973138344	1	main_z	7	advance_on_keypress_ZEE	60	stimuli_target_circlediamonds.svg	stimuli_distractor_diamondtriangles.svg	6	yes	57	0	498
6.6.1	win	2022-12-14	15:00:38	15:05:30	288940	5ed85fbefd7ffe37615b73a4	973138344	1	main_z	7	main_z	61	stimuli_target_circletriangles.svg	stimuli_distractor_trianglediamonds.svg	1	yes	44	1	677
6.6.1	win	2022-12-14	15:00:38	15:05:30	288940	5ed85fbefd7ffe37615b73a4	973138344	1	main_z	7	advance_on_keypress_ZEE	62	stimuli_target_circletriangles.svg	stimuli_distractor_trianglediamonds.svg	1	yes	57	0	474
6.6.1	win	2022-12-14	15:00:38	15:05:33	292047	5ed85fbefd7ffe37615b73a4	973138344	1	main_z	7	main_z	63	stimuli_distractor_diamondtriangles.svg	stimuli_distractor_diamondtriangles.svg	39	no	0	1	2000
6.6.1	win	2022-12-14	15:00:38	15:05:33	292047	5ed85fbefd7ffe37615b73a4	973138344	1	main_z	7	advance_on_keypress_ZEE	64	stimuli_distractor_diamondtriangles.svg	stimuli_distractor_diamondtriangles.svg	39	no	57	0	433
6.6.1	win	2022-12-14	15:00:38	15:05:35	293856	5ed85fbefd7ffe37615b73a4	973138344	1	main_z	7	main_z	65	stimuli_target_circlediamonds.svg	stimuli_distractor_trianglediamonds.svg	2	yes	44	1	726
6.6.1	win	2022-12-14	15:00:38	15:05:35	293856	5ed85fbefd7ffe37615b73a4	973138344	1	main_z	7	advance_on_keypress_ZEE	66	stimuli_target_circlediamonds.svg	stimuli_distractor_trianglediamonds.svg	2	yes	57	0	497
6.6.1	win	2022-12-14	15:00:38	15:05:37	295673	5ed85fbefd7ffe37615b73a4	973138344	1	main_z	7	main_z	67	stimuli_target_diamondcircles.svg	stimuli_distractor_trianglediamonds.svg	19	yes	44	1	676
6.6.1	win	2022-12-14	15:00:38	15:05:37	295673	5ed85fbefd7ffe37615b73a4	973138344	1	main_z	7	advance_on_keypress_ZEE	68	stimuli_target_diamondcircles.svg	stimuli_distractor_trianglediamonds.svg	19	yes	57	0	444
6.6.1	win	2022-12-14	15:00:38	15:05:39	297576	5ed85fbefd7ffe37615b73a4	973138344	1	main_z	7	main_z	69	stimuli_distractor_diamondtriangles.svg	stimuli_target_diamondcircles.svg	31	yes	44	1	829
6.6.1	win	2022-12-14	15:00:38	15:05:39	297576	5ed85fbefd7ffe37615b73a4	973138344	1	main_z	7	advance_on_keypress_ZEE	70	stimuli_distractor_diamondtriangles.svg	stimuli_target_diamondcircles.svg	31	yes	57	0	440
6.6.1	win	2022-12-14	15:00:38	15:05:42	300664	5ed85fbefd7ffe37615b73a4	973138344	1	main_z	7	main_z	71	stimuli_distractor_diamondtriangles.svg	stimuli_distractor_diamondtriangles.svg	40	no	0	1	2000
6.6.1	win	2022-12-14	15:00:38	15:05:42	300664	5ed85fbefd7ffe37615b73a4	973138344	1	main_z	7	advance_on_keypress_ZEE	72	stimuli_distractor_diamondtriangles.svg	stimuli_distractor_diamondtriangles.svg	40	no	57	0	311
6.6.1	win	2022-12-14	15:00:38	15:05:44	302500	5ed85fbefd7ffe37615b73a4	973138344	1	main_z	7	main_z	73	stimuli_target_squaretriangles.svg	stimuli_distractor_trianglediamonds.svg	3	yes	44	1	886
6.6.1	win	2022-12-14	15:00:38	15:05:44	302500	5ed85fbefd7ffe37615b73a4	973138344	1	main_z	7	advance_on_keypress_ZEE	74	stimuli_target_squaretriangles.svg	stimuli_distractor_trianglediamonds.svg	3	yes	57	0	463
6.6.1	win	2022-12-14	15:00:38	15:05:46	304452	5ed85fbefd7ffe37615b73a4	973138344	1	main_z	7	main_z	75	stimuli_target_circletriangles.svg	stimuli_distractor_diamondtriangles.svg	5	yes	44	1	839
6.6.1	win	2022-12-14	15:00:38	15:05:46	304452	5ed85fbefd7ffe37615b73a4	973138344	1	main_z	7	advance_on_keypress_ZEE	76	stimuli_target_circletriangles.svg	stimuli_distractor_diamondtriangles.svg	5	yes	57	0	429
6.6.1	win	2022-12-14	15:00:38	15:05:48	306440	5ed85fbefd7ffe37615b73a4	973138344	1	main_z	7	main_z	77	stimuli_distractor_trianglediamonds.svg	stimuli_target_trianglecircles.svg	25	yes	44	1	927
6.6.1	win	2022-12-14	15:00:38	15:05:48	306440	5ed85fbefd7ffe37615b73a4	973138344	1	main_z	7	advance_on_keypress_ZEE	78	stimuli_distractor_trianglediamonds.svg	stimuli_target_trianglecircles.svg	25	yes	57	0	385
6.6.1	win	2022-12-14	15:00:38	15:05:51	309463	5ed85fbefd7ffe37615b73a4	973138344	1	main_z	7	main_z	79	stimuli_target_diamondsquares.svg	stimuli_distractor_diamondtriangles.svg	24	yes	0	0	2000
6.6.1	win	2022-12-14	15:00:38	15:05:51	309463	5ed85fbefd7ffe37615b73a4	973138344	1	main_z	7	advance_on_keypress_ZEE	80	stimuli_target_diamondsquares.svg	stimuli_distractor_diamondtriangles.svg	24	yes	57	0	340
6.6.1	win	2022-12-14	15:00:38	15:05:53	311696	5ed85fbefd7ffe37615b73a4	973138344	1	main_z	7	main_z	81	stimuli_distractor_trianglediamonds.svg	stimuli_target_diamondsquares.svg	28	yes	44	1	1250
6.6.1	win	2022-12-14	15:00:38	15:05:53	311696	5ed85fbefd7ffe37615b73a4	973138344	1	main_z	7	advance_on_keypress_ZEE	82	stimuli_distractor_trianglediamonds.svg	stimuli_target_diamondsquares.svg	28	yes	57	0	434
6.6.1	win	2022-12-14	15:00:38	15:05:56	314780	5ed85fbefd7ffe37615b73a4	973138344	1	main_z	7	main_z	83	stimuli_distractor_diamondtriangles.svg	stimuli_distractor_trianglediamonds.svg	37	no	0	1	2000
6.6.1	win	2022-12-14	15:00:38	15:05:56	314780	5ed85fbefd7ffe37615b73a4	973138344	1	main_z	7	advance_on_keypress_ZEE	84	stimuli_distractor_diamondtriangles.svg	stimuli_distractor_trianglediamonds.svg	37	no	57	0	327
6.6.1	win	2022-12-14	15:00:38	15:05:58	316708	5ed85fbefd7ffe37615b73a4	973138344	1	main_z	7	main_z	85	stimuli_distractor_trianglediamonds.svg	stimuli_target_squarediamonds.svg	12	yes	44	1	962
6.6.1	win	2022-12-14	15:00:38	15:05:58	316708	5ed85fbefd7ffe37615b73a4	973138344	1	main_z	7	advance_on_keypress_ZEE	86	stimuli_distractor_trianglediamonds.svg	stimuli_target_squarediamonds.svg	12	yes	57	0	475
6.6.1	win	2022-12-14	15:00:38	15:06:00	318732	5ed85fbefd7ffe37615b73a4	973138344	1	main_z	7	main_z	87	stimuli_distractor_diamondtriangles.svg	stimuli_target_squaretriangles.svg	15	yes	44	1	919
6.6.1	win	2022-12-14	15:00:38	15:06:00	318732	5ed85fbefd7ffe37615b73a4	973138344	1	main_z	7	advance_on_keypress_ZEE	88	stimuli_distractor_diamondtriangles.svg	stimuli_target_squaretriangles.svg	15	yes	57	0	393
6.6.1	win	2022-12-14	15:00:38	15:06:03	321764	5ed85fbefd7ffe37615b73a4	973138344	1	main_z	7	main_z	89	stimuli_distractor_diamondtriangles.svg	stimuli_distractor_trianglediamonds.svg	38	no	0	1	2000
6.6.1	win	2022-12-14	15:00:38	15:06:03	321764	5ed85fbefd7ffe37615b73a4	973138344	1	main_z	7	advance_on_keypress_ZEE	90	stimuli_distractor_diamondtriangles.svg	stimuli_distractor_trianglediamonds.svg	38	no	57	0	391
6.6.1	win	2022-12-14	15:00:38	15:06:05	323512	5ed85fbefd7ffe37615b73a4	973138344	1	main_z	7	main_z	91	stimuli_target_squaretriangles.svg	stimuli_distractor_diamondtriangles.svg	7	yes	44	1	715
6.6.1	win	2022-12-14	15:00:38	15:06:05	323512	5ed85fbefd7ffe37615b73a4	973138344	1	main_z	7	advance_on_keypress_ZEE	92	stimuli_target_squaretriangles.svg	stimuli_distractor_diamondtriangles.svg	7	yes	57	0	469
6.6.1	win	2022-12-14	15:00:38	15:06:06	325360	5ed85fbefd7ffe37615b73a4	973138344	1	main_z	7	main_z	93	stimuli_target_circlediamonds.svg	stimuli_distractor_trianglediamonds.svg	2	yes	44	1	730
6.6.1	win	2022-12-14	15:00:38	15:06:06	325360	5ed85fbefd7ffe37615b73a4	973138344	1	main_z	7	advance_on_keypress_ZEE	94	stimuli_target_circlediamonds.svg	stimuli_distractor_trianglediamonds.svg	2	yes	57	0	464
6.6.1	win	2022-12-14	15:00:38	15:06:08	327276	5ed85fbefd7ffe37615b73a4	973138344	1	main_z	7	main_z	95	stimuli_target_trianglecircles.svg	stimuli_distractor_diamondtriangles.svg	21	yes	44	1	796
6.6.1	win	2022-12-14	15:00:38	15:06:08	327276	5ed85fbefd7ffe37615b73a4	973138344	1	main_z	7	advance_on_keypress_ZEE	96	stimuli_target_trianglecircles.svg	stimuli_distractor_diamondtriangles.svg	21	yes	57	0	404
6.6.1	win	2022-12-14	15:00:38	15:06:10	329200	5ed85fbefd7ffe37615b73a4	973138344	1	main_z	7	main_z	97	stimuli_distractor_diamondtriangles.svg	stimuli_target_trianglesquares.svg	30	yes	44	1	870
6.6.1	win	2022-12-14	15:00:38	15:06:10	329200	5ed85fbefd7ffe37615b73a4	973138344	1	main_z	7	advance_on_keypress_ZEE	98	stimuli_distractor_diamondtriangles.svg	stimuli_target_trianglesquares.svg	30	yes	57	0	442
6.6.1	win	2022-12-14	15:00:38	15:06:12	331200	5ed85fbefd7ffe37615b73a4	973138344	1	main_z	7	main_z	99	stimuli_target_circletriangles.svg	stimuli_distractor_trianglediamonds.svg	1	yes	44	1	920
6.6.1	win	2022-12-14	15:00:38	15:06:12	331200	5ed85fbefd7ffe37615b73a4	973138344	1	main_z	7	advance_on_keypress_ZEE	100	stimuli_target_circletriangles.svg	stimuli_distractor_trianglediamonds.svg	1	yes	57	0	427
6.6.1	win	2022-12-14	15:00:38	15:06:14	332997	5ed85fbefd7ffe37615b73a4	973138344	1	main_z	7	main_z	101	stimuli_distractor_trianglediamonds.svg	stimuli_target_circletriangles.svg	9	yes	44	1	728
6.6.1	win	2022-12-14	15:00:38	15:06:14	332997	5ed85fbefd7ffe37615b73a4	973138344	1	main_z	7	advance_on_keypress_ZEE	102	stimuli_distractor_trianglediamonds.svg	stimuli_target_circletriangles.svg	9	yes	57	0	454
6.6.1	win	2022-12-14	15:00:38	15:06:16	334693	5ed85fbefd7ffe37615b73a4	973138344	1	main_z	7	main_z	103	stimuli_target_squaretriangles.svg	stimuli_distractor_trianglediamonds.svg	3	yes	44	1	595
6.6.1	win	2022-12-14	15:00:38	15:06:16	334693	5ed85fbefd7ffe37615b73a4	973138344	1	main_z	7	advance_on_keypress_ZEE	104	stimuli_target_squaretriangles.svg	stimuli_distractor_trianglediamonds.svg	3	yes	57	0	362
6.6.1	win	2022-12-14	15:00:38	15:06:17	336156	5ed85fbefd7ffe37615b73a4	973138344	1	main_z	7	main_z	105	stimuli_target_trianglecircles.svg	stimuli_distractor_trianglediamonds.svg	17	yes	44	1	442
6.6.1	win	2022-12-14	15:00:38	15:06:17	336156	5ed85fbefd7ffe37615b73a4	973138344	1	main_z	7	advance_on_keypress_ZEE	106	stimuli_target_trianglecircles.svg	stimuli_distractor_trianglediamonds.svg	17	yes	57	0	437
6.6.1	win	2022-12-14	15:00:38	15:06:19	337676	5ed85fbefd7ffe37615b73a4	973138344	1	main_z	7	main_z	107	stimuli_target_trianglesquares.svg	stimuli_distractor_diamondtriangles.svg	22	yes	44	1	446
6.6.1	win	2022-12-14	15:00:38	15:06:19	337676	5ed85fbefd7ffe37615b73a4	973138344	1	main_z	7	advance_on_keypress_ZEE	108	stimuli_target_trianglesquares.svg	stimuli_distractor_diamondtriangles.svg	22	yes	57	0	387
6.6.1	win	2022-12-14	15:00:38	15:06:21	339768	5ed85fbefd7ffe37615b73a4	973138344	1	main_z	7	main_z	109	stimuli_distractor_diamondtriangles.svg	stimuli_target_diamondcircles.svg	31	yes	44	1	1054
6.6.1	win	2022-12-14	15:00:38	15:06:21	339768	5ed85fbefd7ffe37615b73a4	973138344	1	main_z	7	advance_on_keypress_ZEE	110	stimuli_distractor_diamondtriangles.svg	stimuli_target_diamondcircles.svg	31	yes	57	0	432
6.6.1	win	2022-12-14	15:00:38	15:06:24	342847	5ed85fbefd7ffe37615b73a4	973138344	1	main_z	7	main_z	111	stimuli_distractor_trianglediamonds.svg	stimuli_distractor_trianglediamonds.svg	34	no	0	1	2000
6.6.1	win	2022-12-14	15:00:38	15:06:24	342847	5ed85fbefd7ffe37615b73a4	973138344	1	main_z	7	advance_on_keypress_ZEE	112	stimuli_distractor_trianglediamonds.svg	stimuli_distractor_trianglediamonds.svg	34	no	57	0	301
6.6.1	win	2022-12-14	15:00:38	15:06:26	344472	5ed85fbefd7ffe37615b73a4	973138344	1	main_z	7	main_z	113	stimuli_target_diamondcircles.svg	stimuli_distractor_trianglediamonds.svg	19	yes	44	1	676
6.6.1	win	2022-12-14	15:00:38	15:06:26	344472	5ed85fbefd7ffe37615b73a4	973138344	1	main_z	7	advance_on_keypress_ZEE	114	stimuli_target_diamondcircles.svg	stimuli_distractor_trianglediamonds.svg	19	yes	57	0	456
6.6.1	win	2022-12-14	15:00:38	15:06:28	346720	5ed85fbefd7ffe37615b73a4	973138344	1	main_z	7	main_z	115	stimuli_distractor_diamondtriangles.svg	stimuli_target_squarediamonds.svg	16	yes	44	1	1156
6.6.1	win	2022-12-14	15:00:38	15:06:28	346720	5ed85fbefd7ffe37615b73a4	973138344	1	main_z	7	advance_on_keypress_ZEE	116	stimuli_distractor_diamondtriangles.svg	stimuli_target_squarediamonds.svg	16	yes	57	0	230
6.6.1	win	2022-12-14	15:00:38	15:06:31	349597	5ed85fbefd7ffe37615b73a4	973138344	1	main_z	7	main_z	117	stimuli_distractor_trianglediamonds.svg	stimuli_distractor_trianglediamonds.svg	33	no	0	1	2000
6.6.1	win	2022-12-14	15:00:38	15:06:31	349597	5ed85fbefd7ffe37615b73a4	973138344	1	main_z	7	advance_on_keypress_ZEE	118	stimuli_distractor_trianglediamonds.svg	stimuli_distractor_trianglediamonds.svg	33	no	57	0	367
6.6.1	win	2022-12-14	15:00:38	15:06:34	352614	5ed85fbefd7ffe37615b73a4	973138344	1	main_z	7	main_z	119	stimuli_distractor_trianglediamonds.svg	stimuli_distractor_diamondtriangles.svg	36	no	0	1	2000
6.6.1	win	2022-12-14	15:00:38	15:06:34	352614	5ed85fbefd7ffe37615b73a4	973138344	1	main_z	7	advance_on_keypress_ZEE	120	stimuli_distractor_trianglediamonds.svg	stimuli_distractor_diamondtriangles.svg	36	no	57	0	290
6.6.1	win	2022-12-14	15:00:38	15:06:37	355547	5ed85fbefd7ffe37615b73a4	973138344	1	main_z	7	main_z	121	stimuli_distractor_diamondtriangles.svg	stimuli_distractor_diamondtriangles.svg	39	no	0	1	2000
6.6.1	win	2022-12-14	15:00:38	15:06:37	355547	5ed85fbefd7ffe37615b73a4	973138344	1	main_z	7	advance_on_keypress_ZEE	122	stimuli_distractor_diamondtriangles.svg	stimuli_distractor_diamondtriangles.svg	39	no	57	0	505
6.6.1	win	2022-12-14	15:00:38	15:06:38	357276	5ed85fbefd7ffe37615b73a4	973138344	1	main_z	7	main_z	123	stimuli_target_diamondcircles.svg	stimuli_distractor_diamondtriangles.svg	23	yes	44	1	579
6.6.1	win	2022-12-14	15:00:38	15:06:38	357276	5ed85fbefd7ffe37615b73a4	973138344	1	main_z	7	advance_on_keypress_ZEE	124	stimuli_target_diamondcircles.svg	stimuli_distractor_diamondtriangles.svg	23	yes	57	0	495
6.6.1	win	2022-12-14	15:00:38	15:06:40	358946	5ed85fbefd7ffe37615b73a4	973138344	1	main_z	7	main_z	125	stimuli_distractor_trianglediamonds.svg	stimuli_target_diamondcircles.svg	27	yes	44	1	503
6.6.1	win	2022-12-14	15:00:38	15:06:40	358946	5ed85fbefd7ffe37615b73a4	973138344	1	main_z	7	advance_on_keypress_ZEE	126	stimuli_distractor_trianglediamonds.svg	stimuli_target_diamondcircles.svg	27	yes	57	0	480
6.6.1	win	2022-12-14	15:00:38	15:06:42	360804	5ed85fbefd7ffe37615b73a4	973138344	1	main_z	7	main_z	127	stimuli_target_trianglesquares.svg	stimuli_distractor_trianglediamonds.svg	18	yes	44	1	724
6.6.1	win	2022-12-14	15:00:38	15:06:42	360804	5ed85fbefd7ffe37615b73a4	973138344	1	main_z	7	advance_on_keypress_ZEE	128	stimuli_target_trianglesquares.svg	stimuli_distractor_trianglediamonds.svg	18	yes	57	0	486
6.6.1	win	2022-12-14	15:00:38	15:06:45	363930	5ed85fbefd7ffe37615b73a4	973138344	1	main_z	7	main_z	129	stimuli_target_squarediamonds.svg	stimuli_distractor_diamondtriangles.svg	8	yes	0	0	2000
6.6.1	win	2022-12-14	15:00:38	15:06:45	363930	5ed85fbefd7ffe37615b73a4	973138344	1	main_z	7	advance_on_keypress_ZEE	130	stimuli_target_squarediamonds.svg	stimuli_distractor_diamondtriangles.svg	8	yes	57	0	370
6.6.1	win	2022-12-14	15:00:38	15:06:47	365592	5ed85fbefd7ffe37615b73a4	973138344	1	main_z	7	main_z	131	stimuli_distractor_diamondtriangles.svg	stimuli_target_circletriangles.svg	13	yes	44	1	646
6.6.1	win	2022-12-14	15:00:38	15:06:47	365592	5ed85fbefd7ffe37615b73a4	973138344	1	main_z	7	advance_on_keypress_ZEE	132	stimuli_distractor_diamondtriangles.svg	stimuli_target_circletriangles.svg	13	yes	57	0	496
6.6.1	win	2022-12-14	15:00:38	15:06:49	367516	5ed85fbefd7ffe37615b73a4	973138344	1	main_z	7	main_z	133	stimuli_target_circlediamonds.svg	stimuli_distractor_diamondtriangles.svg	6	yes	44	1	786
6.6.1	win	2022-12-14	15:00:38	15:06:49	367516	5ed85fbefd7ffe37615b73a4	973138344	1	main_z	7	advance_on_keypress_ZEE	134	stimuli_target_circlediamonds.svg	stimuli_distractor_diamondtriangles.svg	6	yes	57	0	366
6.6.1	win	2022-12-14	15:00:38	15:06:50	369172	5ed85fbefd7ffe37615b73a4	973138344	1	main_z	7	main_z	135	stimuli_distractor_trianglediamonds.svg	stimuli_target_circlediamonds.svg	10	yes	44	1	641
6.6.1	win	2022-12-14	15:00:38	15:06:50	369172	5ed85fbefd7ffe37615b73a4	973138344	1	main_z	7	advance_on_keypress_ZEE	136	stimuli_distractor_trianglediamonds.svg	stimuli_target_circlediamonds.svg	10	yes	57	0	395
6.6.1	win	2022-12-14	15:00:38	15:06:52	370612	5ed85fbefd7ffe37615b73a4	973138344	1	main_z	7	main_z	137	stimuli_distractor_trianglediamonds.svg	stimuli_target_squaretriangles.svg	11	yes	44	1	398
6.6.1	win	2022-12-14	15:00:38	15:06:52	370612	5ed85fbefd7ffe37615b73a4	973138344	1	main_z	7	advance_on_keypress_ZEE	138	stimuli_distractor_trianglediamonds.svg	stimuli_target_squaretriangles.svg	11	yes	57	0	406
6.6.1	win	2022-12-14	15:00:38	15:06:53	372240	5ed85fbefd7ffe37615b73a4	973138344	1	main_z	7	main_z	139	stimuli_distractor_diamondtriangles.svg	stimuli_target_trianglecircles.svg	29	yes	44	1	576
6.6.1	win	2022-12-14	15:00:38	15:06:53	372240	5ed85fbefd7ffe37615b73a4	973138344	1	main_z	7	advance_on_keypress_ZEE	140	stimuli_distractor_diamondtriangles.svg	stimuli_target_trianglecircles.svg	29	yes	57	0	397
6.6.1	win	2022-12-14	15:00:38	15:06:56	375280	5ed85fbefd7ffe37615b73a4	973138344	1	main_z	7	main_z	141	stimuli_target_diamondsquares.svg	stimuli_distractor_diamondtriangles.svg	24	yes	0	0	2000
6.6.1	win	2022-12-14	15:00:38	15:06:56	375280	5ed85fbefd7ffe37615b73a4	973138344	1	main_z	7	advance_on_keypress_ZEE	142	stimuli_target_diamondsquares.svg	stimuli_distractor_diamondtriangles.svg	24	yes	57	0	348
6.6.1	win	2022-12-14	15:00:38	15:06:58	377084	5ed85fbefd7ffe37615b73a4	973138344	1	main_z	7	main_z	143	stimuli_target_diamondsquares.svg	stimuli_distractor_trianglediamonds.svg	20	yes	44	1	804
6.6.1	win	2022-12-14	15:00:38	15:06:58	377084	5ed85fbefd7ffe37615b73a4	973138344	1	main_z	7	advance_on_keypress_ZEE	144	stimuli_target_diamondsquares.svg	stimuli_distractor_trianglediamonds.svg	20	yes	57	0	411
6.6.1	win	2022-12-14	15:00:38	15:07:00	379020	5ed85fbefd7ffe37615b73a4	973138344	1	main_z	7	main_z	145	stimuli_distractor_diamondtriangles.svg	stimuli_target_circlediamonds.svg	14	yes	44	1	889
6.6.1	win	2022-12-14	15:00:38	15:07:00	379020	5ed85fbefd7ffe37615b73a4	973138344	1	main_z	7	advance_on_keypress_ZEE	146	stimuli_distractor_diamondtriangles.svg	stimuli_target_circlediamonds.svg	14	yes	57	0	489
6.6.1	win	2022-12-14	15:00:38	15:07:02	380984	5ed85fbefd7ffe37615b73a4	973138344	1	main_z	7	main_z	147	stimuli_target_squarediamonds.svg	stimuli_distractor_trianglediamonds.svg	4	yes	44	1	838
6.6.1	win	2022-12-14	15:00:38	15:07:02	380984	5ed85fbefd7ffe37615b73a4	973138344	1	main_z	7	advance_on_keypress_ZEE	148	stimuli_target_squarediamonds.svg	stimuli_distractor_trianglediamonds.svg	4	yes	57	0	455
6.6.1	win	2022-12-14	15:00:38	15:07:04	382808	5ed85fbefd7ffe37615b73a4	973138344	1	main_z	7	main_z	149	stimuli_distractor_trianglediamonds.svg	stimuli_target_trianglecircles.svg	25	yes	44	1	728
6.6.1	win	2022-12-14	15:00:38	15:07:04	382808	5ed85fbefd7ffe37615b73a4	973138344	1	main_z	7	advance_on_keypress_ZEE	150	stimuli_distractor_trianglediamonds.svg	stimuli_target_trianglecircles.svg	25	yes	57	0	463
6.6.1	win	2022-12-14	15:00:38	15:07:07	385914	5ed85fbefd7ffe37615b73a4	973138344	1	main_z	7	main_z	151	stimuli_target_circletriangles.svg	stimuli_distractor_diamondtriangles.svg	5	yes	0	0	2000
6.6.1	win	2022-12-14	15:00:38	15:07:07	385914	5ed85fbefd7ffe37615b73a4	973138344	1	main_z	7	advance_on_keypress_ZEE	152	stimuli_target_circletriangles.svg	stimuli_distractor_diamondtriangles.svg	5	yes	57	0	441
6.6.1	win	2022-12-14	15:00:38	15:07:09	387748	5ed85fbefd7ffe37615b73a4	973138344	1	main_z	7	main_z	153	stimuli_distractor_trianglediamonds.svg	stimuli_target_trianglesquares.svg	26	yes	44	1	751
6.6.1	win	2022-12-14	15:00:38	15:07:09	387748	5ed85fbefd7ffe37615b73a4	973138344	1	main_z	7	advance_on_keypress_ZEE	154	stimuli_distractor_trianglediamonds.svg	stimuli_target_trianglesquares.svg	26	yes	57	0	356
6.6.1	win	2022-12-14	15:00:38	15:07:12	390747	5ed85fbefd7ffe37615b73a4	973138344	1	main_z	7	main_z	155	stimuli_distractor_trianglediamonds.svg	stimuli_distractor_diamondtriangles.svg	35	no	0	1	2000
6.6.1	win	2022-12-14	15:00:38	15:07:12	390747	5ed85fbefd7ffe37615b73a4	973138344	1	main_z	7	advance_on_keypress_ZEE	156	stimuli_distractor_trianglediamonds.svg	stimuli_distractor_diamondtriangles.svg	35	no	57	0	417
6.6.1	win	2022-12-14	15:00:38	15:07:15	393814	5ed85fbefd7ffe37615b73a4	973138344	1	main_z	7	main_z	157	stimuli_distractor_diamondtriangles.svg	stimuli_distractor_diamondtriangles.svg	40	no	0	1	2000
6.6.1	win	2022-12-14	15:00:38	15:07:15	393814	5ed85fbefd7ffe37615b73a4	973138344	1	main_z	7	advance_on_keypress_ZEE	158	stimuli_distractor_diamondtriangles.svg	stimuli_distractor_diamondtriangles.svg	40	no	57	0	417
6.6.1	win	2022-12-14	15:00:38	15:07:17	395624	5ed85fbefd7ffe37615b73a4	973138344	1	main_z	7	main_z	159	stimuli_distractor_diamondtriangles.svg	stimuli_target_diamondsquares.svg	32	yes	44	1	744
6.6.1	win	2022-12-14	15:00:38	15:07:17	395624	5ed85fbefd7ffe37615b73a4	973138344	1	main_z	7	advance_on_keypress_ZEE	160	stimuli_distractor_diamondtriangles.svg	stimuli_target_diamondsquares.svg	32	yes	57	0	477
6.6.1	win	2022-12-14	15:00:38	15:07:34	413274	5ed85fbefd7ffe37615b73a4	973138344	1	practice_slash	9	practice_slash	1	stimuli_target_squarediamonds.svg	stimuli_distractor_trianglediamonds.svg	5	yes	53	1	692
6.6.1	win	2022-12-14	15:00:38	15:07:34	413274	5ed85fbefd7ffe37615b73a4	973138344	1	practice_slash	9	advance_on_keypress_SLASH	2	stimuli_target_squarediamonds.svg	stimuli_distractor_trianglediamonds.svg	5	yes	57	0	531
6.6.1	win	2022-12-14	15:00:38	15:07:37	416058	5ed85fbefd7ffe37615b73a4	973138344	1	practice_slash	9	practice_slash	3	stimuli_distractor_diamondtriangles.svg	stimuli_target_circletriangles.svg	7	yes	53	1	592
6.6.1	win	2022-12-14	15:00:38	15:07:37	416058	5ed85fbefd7ffe37615b73a4	973138344	1	practice_slash	9	advance_on_keypress_SLASH	4	stimuli_distractor_diamondtriangles.svg	stimuli_target_circletriangles.svg	7	yes	57	0	849
6.6.1	win	2022-12-14	15:00:38	15:07:40	419122	5ed85fbefd7ffe37615b73a4	973138344	1	practice_slash	9	practice_slash	5	stimuli_distractor_trianglediamonds.svg	stimuli_target_squarediamonds.svg	11	yes	53	1	573
6.6.1	win	2022-12-14	15:00:38	15:07:40	419122	5ed85fbefd7ffe37615b73a4	973138344	1	practice_slash	9	advance_on_keypress_SLASH	6	stimuli_distractor_trianglediamonds.svg	stimuli_target_squarediamonds.svg	11	yes	57	0	414
6.6.1	win	2022-12-14	15:00:38	15:07:43	421794	5ed85fbefd7ffe37615b73a4	973138344	1	practice_slash	9	practice_slash	7	stimuli_distractor_diamondtriangles.svg	stimuli_target_diamondcircles.svg	8	yes	53	1	612
6.6.1	win	2022-12-14	15:00:38	15:07:43	421794	5ed85fbefd7ffe37615b73a4	973138344	1	practice_slash	9	advance_on_keypress_SLASH	8	stimuli_distractor_diamondtriangles.svg	stimuli_target_diamondcircles.svg	8	yes	57	0	371
6.6.1	win	2022-12-14	15:00:38	15:07:46	424455	5ed85fbefd7ffe37615b73a4	973138344	1	practice_slash	9	practice_slash	9	stimuli_distractor_diamondtriangles.svg	stimuli_target_trianglecircles.svg	9	yes	53	1	638
6.6.1	win	2022-12-14	15:00:38	15:07:46	424455	5ed85fbefd7ffe37615b73a4	973138344	1	practice_slash	9	advance_on_keypress_SLASH	10	stimuli_distractor_diamondtriangles.svg	stimuli_target_trianglecircles.svg	9	yes	57	0	544
6.6.1	win	2022-12-14	15:00:38	15:07:50	428649	5ed85fbefd7ffe37615b73a4	973138344	1	practice_slash	9	practice_slash	11	stimuli_distractor_trianglediamonds.svg	stimuli_distractor_diamondtriangles.svg	16	no	0	1	2000
6.6.1	win	2022-12-14	15:00:38	15:07:50	428649	5ed85fbefd7ffe37615b73a4	973138344	1	practice_slash	9	advance_on_keypress_SLASH	12	stimuli_distractor_trianglediamonds.svg	stimuli_distractor_diamondtriangles.svg	16	no	57	0	600
6.6.1	win	2022-12-14	15:00:38	15:07:53	431814	5ed85fbefd7ffe37615b73a4	973138344	1	practice_slash	9	practice_slash	13	stimuli_target_squarediamonds.svg	stimuli_distractor_diamondtriangles.svg	2	yes	53	1	915
6.6.1	win	2022-12-14	15:00:38	15:07:53	431814	5ed85fbefd7ffe37615b73a4	973138344	1	practice_slash	9	advance_on_keypress_SLASH	14	stimuli_target_squarediamonds.svg	stimuli_distractor_diamondtriangles.svg	2	yes	57	0	425
6.6.1	win	2022-12-14	15:00:38	15:07:56	434810	5ed85fbefd7ffe37615b73a4	973138344	1	practice_slash	9	practice_slash	15	stimuli_target_diamondsquares.svg	stimuli_distractor_diamondtriangles.svg	3	yes	53	1	927
6.6.1	win	2022-12-14	15:00:38	15:07:56	434810	5ed85fbefd7ffe37615b73a4	973138344	1	practice_slash	9	advance_on_keypress_SLASH	16	stimuli_target_diamondsquares.svg	stimuli_distractor_diamondtriangles.svg	3	yes	57	0	441
6.6.1	win	2022-12-14	15:00:38	15:08:00	438899	5ed85fbefd7ffe37615b73a4	973138344	1	practice_slash	9	practice_slash	17	stimuli_distractor_trianglediamonds.svg	stimuli_distractor_trianglediamonds.svg	15	no	0	1	2000
6.6.1	win	2022-12-14	15:00:38	15:08:00	438899	5ed85fbefd7ffe37615b73a4	973138344	1	practice_slash	9	advance_on_keypress_SLASH	18	stimuli_distractor_trianglediamonds.svg	stimuli_distractor_trianglediamonds.svg	15	no	57	0	367
6.6.1	win	2022-12-14	15:00:38	15:08:03	441750	5ed85fbefd7ffe37615b73a4	973138344	1	practice_slash	9	practice_slash	19	stimuli_target_circlediamonds.svg	stimuli_distractor_trianglediamonds.svg	4	yes	53	1	834
6.6.1	win	2022-12-14	15:00:38	15:08:03	441750	5ed85fbefd7ffe37615b73a4	973138344	1	practice_slash	9	advance_on_keypress_SLASH	20	stimuli_target_circlediamonds.svg	stimuli_distractor_trianglediamonds.svg	4	yes	57	0	440
6.6.1	win	2022-12-14	15:00:38	15:08:06	444634	5ed85fbefd7ffe37615b73a4	973138344	1	practice_slash	9	practice_slash	21	stimuli_distractor_trianglediamonds.svg	stimuli_target_circlediamonds.svg	10	yes	53	1	802
6.6.1	win	2022-12-14	15:00:38	15:08:06	444634	5ed85fbefd7ffe37615b73a4	973138344	1	practice_slash	9	advance_on_keypress_SLASH	22	stimuli_distractor_trianglediamonds.svg	stimuli_target_circlediamonds.svg	10	yes	57	0	381
6.6.1	win	2022-12-14	15:00:38	15:08:10	448666	5ed85fbefd7ffe37615b73a4	973138344	1	practice_slash	9	practice_slash	23	stimuli_distractor_diamondtriangles.svg	stimuli_distractor_diamondtriangles.svg	13	no	0	1	2000
6.6.1	win	2022-12-14	15:00:38	15:08:10	448666	5ed85fbefd7ffe37615b73a4	973138344	1	practice_slash	9	advance_on_keypress_SLASH	24	stimuli_distractor_diamondtriangles.svg	stimuli_distractor_diamondtriangles.svg	13	no	57	0	291
6.6.1	win	2022-12-14	15:00:38	15:08:12	451278	5ed85fbefd7ffe37615b73a4	973138344	1	practice_slash	9	practice_slash	25	stimuli_target_circlediamonds.svg	stimuli_distractor_diamondtriangles.svg	1	yes	53	1	679
6.6.1	win	2022-12-14	15:00:38	15:08:12	451278	5ed85fbefd7ffe37615b73a4	973138344	1	practice_slash	9	advance_on_keypress_SLASH	26	stimuli_target_circlediamonds.svg	stimuli_distractor_diamondtriangles.svg	1	yes	57	0	460
6.6.1	win	2022-12-14	15:00:38	15:08:16	455382	5ed85fbefd7ffe37615b73a4	973138344	1	practice_slash	9	practice_slash	27	stimuli_distractor_diamondtriangles.svg	stimuli_distractor_trianglediamonds.svg	14	no	0	1	2000
6.6.1	win	2022-12-14	15:00:38	15:08:16	455382	5ed85fbefd7ffe37615b73a4	973138344	1	practice_slash	9	advance_on_keypress_SLASH	28	stimuli_distractor_diamondtriangles.svg	stimuli_distractor_trianglediamonds.svg	14	no	57	0	232
6.6.1	win	2022-12-14	15:00:38	15:08:19	458035	5ed85fbefd7ffe37615b73a4	973138344	1	practice_slash	9	practice_slash	29	stimuli_distractor_trianglediamonds.svg	stimuli_target_diamondcircles.svg	12	yes	53	1	769
6.6.1	win	2022-12-14	15:00:38	15:08:19	458035	5ed85fbefd7ffe37615b73a4	973138344	1	practice_slash	9	advance_on_keypress_SLASH	30	stimuli_distractor_trianglediamonds.svg	stimuli_target_diamondcircles.svg	12	yes	57	0	405
6.6.1	win	2022-12-14	15:00:38	15:08:22	460554	5ed85fbefd7ffe37615b73a4	973138344	1	practice_slash	9	practice_slash	31	stimuli_target_diamondsquares.svg	stimuli_distractor_trianglediamonds.svg	6	yes	53	1	471
6.6.1	win	2022-12-14	15:00:38	15:08:22	460554	5ed85fbefd7ffe37615b73a4	973138344	1	practice_slash	9	advance_on_keypress_SLASH	32	stimuli_target_diamondsquares.svg	stimuli_distractor_trianglediamonds.svg	6	yes	57	0	456
6.6.1	win	2022-12-14	15:00:38	15:08:32	471397	5ed85fbefd7ffe37615b73a4	973138344	1	main_slash	11	main_slash	1	stimuli_distractor_diamondtriangles.svg	stimuli_target_squarediamonds.svg	16	yes	0	0	2000
6.6.1	win	2022-12-14	15:00:38	15:08:32	471397	5ed85fbefd7ffe37615b73a4	973138344	1	main_slash	11	advance_on_keypress_SLASH	2	stimuli_distractor_diamondtriangles.svg	stimuli_target_squarediamonds.svg	16	yes	57	0	518
6.6.1	win	2022-12-14	15:00:38	15:08:34	473100	5ed85fbefd7ffe37615b73a4	973138344	1	main_slash	11	main_slash	3	stimuli_target_diamondcircles.svg	stimuli_distractor_diamondtriangles.svg	23	yes	53	1	536
6.6.1	win	2022-12-14	15:00:38	15:08:34	473100	5ed85fbefd7ffe37615b73a4	973138344	1	main_slash	11	advance_on_keypress_SLASH	4	stimuli_target_diamondcircles.svg	stimuli_distractor_diamondtriangles.svg	23	yes	57	0	458
6.6.1	win	2022-12-14	15:00:38	15:08:36	474684	5ed85fbefd7ffe37615b73a4	973138344	1	main_slash	11	main_slash	5	stimuli_distractor_diamondtriangles.svg	stimuli_target_circlediamonds.svg	14	yes	53	1	487
6.6.1	win	2022-12-14	15:00:38	15:08:36	474684	5ed85fbefd7ffe37615b73a4	973138344	1	main_slash	11	advance_on_keypress_SLASH	6	stimuli_distractor_diamondtriangles.svg	stimuli_target_circlediamonds.svg	14	yes	57	0	291
6.6.1	win	2022-12-14	15:00:38	15:08:37	476024	5ed85fbefd7ffe37615b73a4	973138344	1	main_slash	11	main_slash	7	stimuli_target_squarediamonds.svg	stimuli_distractor_diamondtriangles.svg	8	yes	53	1	410
6.6.1	win	2022-12-14	15:00:38	15:08:37	476024	5ed85fbefd7ffe37615b73a4	973138344	1	main_slash	11	advance_on_keypress_SLASH	8	stimuli_target_squarediamonds.svg	stimuli_distractor_diamondtriangles.svg	8	yes	57	0	269
6.6.1	win	2022-12-14	15:00:38	15:08:38	477276	5ed85fbefd7ffe37615b73a4	973138344	1	main_slash	11	main_slash	9	stimuli_distractor_diamondtriangles.svg	stimuli_target_trianglesquares.svg	30	yes	53	1	345
6.6.1	win	2022-12-14	15:00:38	15:08:38	477276	5ed85fbefd7ffe37615b73a4	973138344	1	main_slash	11	advance_on_keypress_SLASH	10	stimuli_distractor_diamondtriangles.svg	stimuli_target_trianglesquares.svg	30	yes	57	0	279
6.6.1	win	2022-12-14	15:00:38	15:08:40	478512	5ed85fbefd7ffe37615b73a4	973138344	1	main_slash	11	main_slash	11	stimuli_target_trianglecircles.svg	stimuli_distractor_diamondtriangles.svg	21	yes	53	1	298
6.6.1	win	2022-12-14	15:00:38	15:08:40	478512	5ed85fbefd7ffe37615b73a4	973138344	1	main_slash	11	advance_on_keypress_SLASH	12	stimuli_target_trianglecircles.svg	stimuli_distractor_diamondtriangles.svg	21	yes	57	0	269
6.6.1	win	2022-12-14	15:00:38	15:08:41	479756	5ed85fbefd7ffe37615b73a4	973138344	1	main_slash	11	main_slash	13	stimuli_distractor_trianglediamonds.svg	stimuli_target_trianglecircles.svg	25	yes	53	1	325
6.6.1	win	2022-12-14	15:00:38	15:08:41	479756	5ed85fbefd7ffe37615b73a4	973138344	1	main_slash	11	advance_on_keypress_SLASH	14	stimuli_distractor_trianglediamonds.svg	stimuli_target_trianglecircles.svg	25	yes	57	0	292
6.6.1	win	2022-12-14	15:00:38	15:08:42	480968	5ed85fbefd7ffe37615b73a4	973138344	1	main_slash	11	main_slash	15	stimuli_distractor_trianglediamonds.svg	stimuli_target_diamondsquares.svg	28	yes	53	1	287
6.6.1	win	2022-12-14	15:00:38	15:08:42	480968	5ed85fbefd7ffe37615b73a4	973138344	1	main_slash	11	advance_on_keypress_SLASH	16	stimuli_distractor_trianglediamonds.svg	stimuli_target_diamondsquares.svg	28	yes	57	0	327
6.6.1	win	2022-12-14	15:00:38	15:08:45	483930	5ed85fbefd7ffe37615b73a4	973138344	1	main_slash	11	main_slash	17	stimuli_distractor_trianglediamonds.svg	stimuli_distractor_diamondtriangles.svg	35	no	0	1	2000
6.6.1	win	2022-12-14	15:00:38	15:08:45	483930	5ed85fbefd7ffe37615b73a4	973138344	1	main_slash	11	advance_on_keypress_SLASH	18	stimuli_distractor_trianglediamonds.svg	stimuli_distractor_diamondtriangles.svg	35	no	57	0	489
6.6.1	win	2022-12-14	15:00:38	15:08:48	487064	5ed85fbefd7ffe37615b73a4	973138344	1	main_slash	11	main_slash	19	stimuli_distractor_trianglediamonds.svg	stimuli_distractor_diamondtriangles.svg	36	no	0	1	2000
6.6.1	win	2022-12-14	15:00:38	15:08:48	487064	5ed85fbefd7ffe37615b73a4	973138344	1	main_slash	11	advance_on_keypress_SLASH	20	stimuli_distractor_trianglediamonds.svg	stimuli_distractor_diamondtriangles.svg	36	no	57	0	428
6.6.1	win	2022-12-14	15:00:38	15:08:50	488828	5ed85fbefd7ffe37615b73a4	973138344	1	main_slash	11	main_slash	21	stimuli_target_circletriangles.svg	stimuli_distractor_diamondtriangles.svg	5	yes	53	1	697
6.6.1	win	2022-12-14	15:00:38	15:08:50	488828	5ed85fbefd7ffe37615b73a4	973138344	1	main_slash	11	advance_on_keypress_SLASH	22	stimuli_target_circletriangles.svg	stimuli_distractor_diamondtriangles.svg	5	yes	57	0	301
6.6.1	win	2022-12-14	15:00:38	15:08:52	490788	5ed85fbefd7ffe37615b73a4	973138344	1	main_slash	11	main_slash	23	stimuli_target_diamondsquares.svg	stimuli_distractor_trianglediamonds.svg	20	yes	53	1	1007
6.6.1	win	2022-12-14	15:00:38	15:08:52	490788	5ed85fbefd7ffe37615b73a4	973138344	1	main_slash	11	advance_on_keypress_SLASH	24	stimuli_target_diamondsquares.svg	stimuli_distractor_trianglediamonds.svg	20	yes	57	0	263
6.6.1	win	2022-12-14	15:00:38	15:08:53	492248	5ed85fbefd7ffe37615b73a4	973138344	1	main_slash	11	main_slash	25	stimuli_distractor_diamondtriangles.svg	stimuli_target_diamondsquares.svg	32	yes	53	1	551
6.6.1	win	2022-12-14	15:00:38	15:08:53	492248	5ed85fbefd7ffe37615b73a4	973138344	1	main_slash	11	advance_on_keypress_SLASH	26	stimuli_distractor_diamondtriangles.svg	stimuli_target_diamondsquares.svg	32	yes	57	0	268
6.6.1	win	2022-12-14	15:00:38	15:08:55	493784	5ed85fbefd7ffe37615b73a4	973138344	1	main_slash	11	main_slash	27	stimuli_target_trianglesquares.svg	stimuli_distractor_trianglediamonds.svg	18	yes	53	1	620
6.6.1	win	2022-12-14	15:00:38	15:08:55	493784	5ed85fbefd7ffe37615b73a4	973138344	1	main_slash	11	advance_on_keypress_SLASH	28	stimuli_target_trianglesquares.svg	stimuli_distractor_trianglediamonds.svg	18	yes	57	0	243
6.6.1	win	2022-12-14	15:00:38	15:08:58	496664	5ed85fbefd7ffe37615b73a4	973138344	1	main_slash	11	main_slash	29	stimuli_distractor_trianglediamonds.svg	stimuli_target_squarediamonds.svg	12	yes	0	0	2000
6.6.1	win	2022-12-14	15:00:38	15:08:58	496664	5ed85fbefd7ffe37615b73a4	973138344	1	main_slash	11	advance_on_keypress_SLASH	30	stimuli_distractor_trianglediamonds.svg	stimuli_target_squarediamonds.svg	12	yes	57	0	452
6.6.1	win	2022-12-14	15:00:38	15:08:59	498281	5ed85fbefd7ffe37615b73a4	973138344	1	main_slash	11	main_slash	31	stimuli_target_squaretriangles.svg	stimuli_distractor_trianglediamonds.svg	3	yes	53	1	516
6.6.1	win	2022-12-14	15:00:38	15:08:59	498281	5ed85fbefd7ffe37615b73a4	973138344	1	main_slash	11	advance_on_keypress_SLASH	32	stimuli_target_squaretriangles.svg	stimuli_distractor_trianglediamonds.svg	3	yes	57	0	271
6.6.1	win	2022-12-14	15:00:38	15:09:01	500136	5ed85fbefd7ffe37615b73a4	973138344	1	main_slash	11	main_slash	33	stimuli_distractor_trianglediamonds.svg	stimuli_target_diamondcircles.svg	27	yes	53	1	939
6.6.1	win	2022-12-14	15:00:38	15:09:01	500136	5ed85fbefd7ffe37615b73a4	973138344	1	main_slash	11	advance_on_keypress_SLASH	34	stimuli_distractor_trianglediamonds.svg	stimuli_target_diamondcircles.svg	27	yes	57	0	245
6.6.1	win	2022-12-14	15:00:38	15:09:04	503030	5ed85fbefd7ffe37615b73a4	973138344	1	main_slash	11	main_slash	35	stimuli_distractor_diamondtriangles.svg	stimuli_distractor_diamondtriangles.svg	40	no	0	1	2000
6.6.1	win	2022-12-14	15:00:38	15:09:04	503030	5ed85fbefd7ffe37615b73a4	973138344	1	main_slash	11	advance_on_keypress_SLASH	36	stimuli_distractor_diamondtriangles.svg	stimuli_distractor_diamondtriangles.svg	40	no	57	0	373
6.6.1	win	2022-12-14	15:00:38	15:09:06	504440	5ed85fbefd7ffe37615b73a4	973138344	1	main_slash	11	main_slash	37	stimuli_target_squaretriangles.svg	stimuli_distractor_diamondtriangles.svg	7	yes	53	1	394
6.6.1	win	2022-12-14	15:00:38	15:09:06	504440	5ed85fbefd7ffe37615b73a4	973138344	1	main_slash	11	advance_on_keypress_SLASH	38	stimuli_target_squaretriangles.svg	stimuli_distractor_diamondtriangles.svg	7	yes	57	0	312
6.6.1	win	2022-12-14	15:00:38	15:09:08	507397	5ed85fbefd7ffe37615b73a4	973138344	1	main_slash	11	main_slash	39	stimuli_distractor_trianglediamonds.svg	stimuli_distractor_trianglediamonds.svg	34	no	0	1	2000
6.6.1	win	2022-12-14	15:00:38	15:09:08	507397	5ed85fbefd7ffe37615b73a4	973138344	1	main_slash	11	advance_on_keypress_SLASH	40	stimuli_distractor_trianglediamonds.svg	stimuli_distractor_trianglediamonds.svg	34	no	57	0	522
6.6.1	win	2022-12-14	15:00:38	15:09:12	510563	5ed85fbefd7ffe37615b73a4	973138344	1	main_slash	11	main_slash	41	stimuli_distractor_diamondtriangles.svg	stimuli_distractor_trianglediamonds.svg	38	no	0	1	2000
6.6.1	win	2022-12-14	15:00:38	15:09:12	510563	5ed85fbefd7ffe37615b73a4	973138344	1	main_slash	11	advance_on_keypress_SLASH	42	stimuli_distractor_diamondtriangles.svg	stimuli_distractor_trianglediamonds.svg	38	no	57	0	327
6.6.1	win	2022-12-14	15:00:38	15:09:13	512096	5ed85fbefd7ffe37615b73a4	973138344	1	main_slash	11	main_slash	43	stimuli_target_circlediamonds.svg	stimuli_distractor_trianglediamonds.svg	2	yes	53	1	565
6.6.1	win	2022-12-14	15:00:38	15:09:13	512096	5ed85fbefd7ffe37615b73a4	973138344	1	main_slash	11	advance_on_keypress_SLASH	44	stimuli_target_circlediamonds.svg	stimuli_distractor_trianglediamonds.svg	2	yes	57	0	326
6.6.1	win	2022-12-14	15:00:38	15:09:15	513656	5ed85fbefd7ffe37615b73a4	973138344	1	main_slash	11	main_slash	45	stimuli_target_trianglecircles.svg	stimuli_distractor_trianglediamonds.svg	17	yes	53	1	592
6.6.1	win	2022-12-14	15:00:38	15:09:15	513656	5ed85fbefd7ffe37615b73a4	973138344	1	main_slash	11	advance_on_keypress_SLASH	46	stimuli_target_trianglecircles.svg	stimuli_distractor_trianglediamonds.svg	17	yes	57	0	464
6.6.1	win	2022-12-14	15:00:38	15:09:16	515208	5ed85fbefd7ffe37615b73a4	973138344	1	main_slash	11	main_slash	47	stimuli_distractor_diamondtriangles.svg	stimuli_target_squaretriangles.svg	15	yes	53	1	444
6.6.1	win	2022-12-14	15:00:38	15:09:16	515208	5ed85fbefd7ffe37615b73a4	973138344	1	main_slash	11	advance_on_keypress_SLASH	48	stimuli_distractor_diamondtriangles.svg	stimuli_target_squaretriangles.svg	15	yes	57	0	402
6.6.1	win	2022-12-14	15:00:38	15:09:18	516676	5ed85fbefd7ffe37615b73a4	973138344	1	main_slash	11	main_slash	49	stimuli_distractor_trianglediamonds.svg	stimuli_target_circlediamonds.svg	10	yes	53	1	429
6.6.1	win	2022-12-14	15:00:38	15:09:18	516676	5ed85fbefd7ffe37615b73a4	973138344	1	main_slash	11	advance_on_keypress_SLASH	50	stimuli_distractor_trianglediamonds.svg	stimuli_target_circlediamonds.svg	10	yes	57	0	351
6.6.1	win	2022-12-14	15:00:38	15:09:21	519680	5ed85fbefd7ffe37615b73a4	973138344	1	main_slash	11	main_slash	51	stimuli_distractor_diamondtriangles.svg	stimuli_distractor_diamondtriangles.svg	39	no	0	1	2000
6.6.1	win	2022-12-14	15:00:38	15:09:21	519680	5ed85fbefd7ffe37615b73a4	973138344	1	main_slash	11	advance_on_keypress_SLASH	52	stimuli_distractor_diamondtriangles.svg	stimuli_distractor_diamondtriangles.svg	39	no	57	0	531
6.6.1	win	2022-12-14	15:00:38	15:09:22	521324	5ed85fbefd7ffe37615b73a4	973138344	1	main_slash	11	main_slash	53	stimuli_target_circletriangles.svg	stimuli_distractor_trianglediamonds.svg	1	yes	53	1	460
6.6.1	win	2022-12-14	15:00:38	15:09:22	521324	5ed85fbefd7ffe37615b73a4	973138344	1	main_slash	11	advance_on_keypress_SLASH	54	stimuli_target_circletriangles.svg	stimuli_distractor_trianglediamonds.svg	1	yes	57	0	349
6.6.1	win	2022-12-14	15:00:38	15:09:24	522829	5ed85fbefd7ffe37615b73a4	973138344	1	main_slash	11	main_slash	55	stimuli_target_trianglesquares.svg	stimuli_distractor_diamondtriangles.svg	22	yes	53	1	503
6.6.1	win	2022-12-14	15:00:38	15:09:24	522829	5ed85fbefd7ffe37615b73a4	973138344	1	main_slash	11	advance_on_keypress_SLASH	56	stimuli_target_trianglesquares.svg	stimuli_distractor_diamondtriangles.svg	22	yes	57	0	449
6.6.1	win	2022-12-14	15:00:38	15:09:26	524445	5ed85fbefd7ffe37615b73a4	973138344	1	main_slash	11	main_slash	57	stimuli_distractor_diamondtriangles.svg	stimuli_target_trianglecircles.svg	29	yes	53	1	509
6.6.1	win	2022-12-14	15:00:38	15:09:26	524445	5ed85fbefd7ffe37615b73a4	973138344	1	main_slash	11	advance_on_keypress_SLASH	58	stimuli_distractor_diamondtriangles.svg	stimuli_target_trianglecircles.svg	29	yes	57	0	425
6.6.1	win	2022-12-14	15:00:38	15:09:27	525897	5ed85fbefd7ffe37615b73a4	973138344	1	main_slash	11	main_slash	59	stimuli_distractor_diamondtriangles.svg	stimuli_target_diamondcircles.svg	31	yes	53	1	382
6.6.1	win	2022-12-14	15:00:38	15:09:27	525897	5ed85fbefd7ffe37615b73a4	973138344	1	main_slash	11	advance_on_keypress_SLASH	60	stimuli_distractor_diamondtriangles.svg	stimuli_target_diamondcircles.svg	31	yes	57	0	490
6.6.1	win	2022-12-14	15:00:38	15:09:30	529030	5ed85fbefd7ffe37615b73a4	973138344	1	main_slash	11	main_slash	61	stimuli_distractor_diamondtriangles.svg	stimuli_distractor_trianglediamonds.svg	37	no	0	1	2000
6.6.1	win	2022-12-14	15:00:38	15:09:30	529030	5ed85fbefd7ffe37615b73a4	973138344	1	main_slash	11	advance_on_keypress_SLASH	62	stimuli_distractor_diamondtriangles.svg	stimuli_distractor_trianglediamonds.svg	37	no	57	0	333
6.6.1	win	2022-12-14	15:00:38	15:09:33	532013	5ed85fbefd7ffe37615b73a4	973138344	1	main_slash	11	main_slash	63	stimuli_distractor_trianglediamonds.svg	stimuli_distractor_trianglediamonds.svg	33	no	0	1	2000
6.6.1	win	2022-12-14	15:00:38	15:09:33	532013	5ed85fbefd7ffe37615b73a4	973138344	1	main_slash	11	advance_on_keypress_SLASH	64	stimuli_distractor_trianglediamonds.svg	stimuli_distractor_trianglediamonds.svg	33	no	57	0	89
6.6.1	win	2022-12-14	15:00:38	15:09:34	533261	5ed85fbefd7ffe37615b73a4	973138344	1	main_slash	11	main_slash	65	stimuli_distractor_trianglediamonds.svg	stimuli_target_squaretriangles.svg	11	yes	53	1	505
6.6.1	win	2022-12-14	15:00:38	15:09:34	533261	5ed85fbefd7ffe37615b73a4	973138344	1	main_slash	11	advance_on_keypress_SLASH	66	stimuli_distractor_trianglediamonds.svg	stimuli_target_squaretriangles.svg	11	yes	57	0	579
6.6.1	win	2022-12-14	15:00:38	15:09:36	534892	5ed85fbefd7ffe37615b73a4	973138344	1	main_slash	11	main_slash	67	stimuli_target_circlediamonds.svg	stimuli_distractor_diamondtriangles.svg	6	yes	53	1	395
6.6.1	win	2022-12-14	15:00:38	15:09:36	534892	5ed85fbefd7ffe37615b73a4	973138344	1	main_slash	11	advance_on_keypress_SLASH	68	stimuli_target_circlediamonds.svg	stimuli_distractor_diamondtriangles.svg	6	yes	57	0	390
6.6.1	win	2022-12-14	15:00:38	15:09:37	536348	5ed85fbefd7ffe37615b73a4	973138344	1	main_slash	11	main_slash	69	stimuli_distractor_trianglediamonds.svg	stimuli_target_trianglesquares.svg	26	yes	53	1	417
6.6.1	win	2022-12-14	15:00:38	15:09:37	536348	5ed85fbefd7ffe37615b73a4	973138344	1	main_slash	11	advance_on_keypress_SLASH	70	stimuli_distractor_trianglediamonds.svg	stimuli_target_trianglesquares.svg	26	yes	57	0	500
6.6.1	win	2022-12-14	15:00:38	15:09:39	538280	5ed85fbefd7ffe37615b73a4	973138344	1	main_slash	11	main_slash	71	stimuli_target_squarediamonds.svg	stimuli_distractor_trianglediamonds.svg	4	yes	53	1	783
6.6.1	win	2022-12-14	15:00:38	15:09:39	538280	5ed85fbefd7ffe37615b73a4	973138344	1	main_slash	11	advance_on_keypress_SLASH	72	stimuli_target_squarediamonds.svg	stimuli_distractor_trianglediamonds.svg	4	yes	57	0	491
6.6.1	win	2022-12-14	15:00:38	15:09:41	540036	5ed85fbefd7ffe37615b73a4	973138344	1	main_slash	11	main_slash	73	stimuli_target_diamondsquares.svg	stimuli_distractor_diamondtriangles.svg	24	yes	53	1	622
6.6.1	win	2022-12-14	15:00:38	15:09:41	540036	5ed85fbefd7ffe37615b73a4	973138344	1	main_slash	11	advance_on_keypress_SLASH	74	stimuli_target_diamondsquares.svg	stimuli_distractor_diamondtriangles.svg	24	yes	57	0	329
6.6.1	win	2022-12-14	15:00:38	15:09:43	541620	5ed85fbefd7ffe37615b73a4	973138344	1	main_slash	11	main_slash	75	stimuli_distractor_diamondtriangles.svg	stimuli_target_circletriangles.svg	13	yes	53	1	606
6.6.1	win	2022-12-14	15:00:38	15:09:43	541620	5ed85fbefd7ffe37615b73a4	973138344	1	main_slash	11	advance_on_keypress_SLASH	76	stimuli_distractor_diamondtriangles.svg	stimuli_target_circletriangles.svg	13	yes	57	0	369
6.6.1	win	2022-12-14	15:00:38	15:09:45	543500	5ed85fbefd7ffe37615b73a4	973138344	1	main_slash	11	main_slash	77	stimuli_target_diamondcircles.svg	stimuli_distractor_trianglediamonds.svg	19	yes	53	1	869
6.6.1	win	2022-12-14	15:00:38	15:09:45	543500	5ed85fbefd7ffe37615b73a4	973138344	1	main_slash	11	advance_on_keypress_SLASH	78	stimuli_target_diamondcircles.svg	stimuli_distractor_trianglediamonds.svg	19	yes	57	0	334
6.6.1	win	2022-12-14	15:00:38	15:09:46	545032	5ed85fbefd7ffe37615b73a4	973138344	1	main_slash	11	main_slash	79	stimuli_distractor_trianglediamonds.svg	stimuli_target_circletriangles.svg	9	yes	53	1	551
6.6.1	win	2022-12-14	15:00:38	15:09:46	545032	5ed85fbefd7ffe37615b73a4	973138344	1	main_slash	11	advance_on_keypress_SLASH	80	stimuli_distractor_trianglediamonds.svg	stimuli_target_circletriangles.svg	9	yes	57	0	357
6.6.1	win	2022-12-14	15:00:38	15:09:48	546508	5ed85fbefd7ffe37615b73a4	973138344	1	main_slash	11	main_slash	81	stimuli_distractor_diamondtriangles.svg	stimuli_target_diamondcircles.svg	31	yes	53	1	477
6.6.1	win	2022-12-14	15:00:38	15:09:48	546508	5ed85fbefd7ffe37615b73a4	973138344	1	main_slash	11	advance_on_keypress_SLASH	82	stimuli_distractor_diamondtriangles.svg	stimuli_target_diamondcircles.svg	31	yes	57	0	362
6.6.1	win	2022-12-14	15:00:38	15:09:51	549514	5ed85fbefd7ffe37615b73a4	973138344	1	main_slash	11	main_slash	83	stimuli_distractor_trianglediamonds.svg	stimuli_distractor_trianglediamonds.svg	33	no	0	1	2000
6.6.1	win	2022-12-14	15:00:38	15:09:51	549514	5ed85fbefd7ffe37615b73a4	973138344	1	main_slash	11	advance_on_keypress_SLASH	84	stimuli_distractor_trianglediamonds.svg	stimuli_distractor_trianglediamonds.svg	33	no	57	0	321
6.6.1	win	2022-12-14	15:00:38	15:09:52	550976	5ed85fbefd7ffe37615b73a4	973138344	1	main_slash	11	main_slash	85	stimuli_distractor_trianglediamonds.svg	stimuli_target_circletriangles.svg	9	yes	53	1	495
6.6.1	win	2022-12-14	15:00:38	15:09:52	550976	5ed85fbefd7ffe37615b73a4	973138344	1	main_slash	11	advance_on_keypress_SLASH	86	stimuli_distractor_trianglediamonds.svg	stimuli_target_circletriangles.svg	9	yes	57	0	379
6.6.1	win	2022-12-14	15:00:38	15:09:54	552672	5ed85fbefd7ffe37615b73a4	973138344	1	main_slash	11	main_slash	87	stimuli_distractor_diamondtriangles.svg	stimuli_target_diamondsquares.svg	32	yes	53	1	658
6.6.1	win	2022-12-14	15:00:38	15:09:54	552672	5ed85fbefd7ffe37615b73a4	973138344	1	main_slash	11	advance_on_keypress_SLASH	88	stimuli_distractor_diamondtriangles.svg	stimuli_target_diamondsquares.svg	32	yes	57	0	395
6.6.1	win	2022-12-14	15:00:38	15:09:55	554200	5ed85fbefd7ffe37615b73a4	973138344	1	main_slash	11	main_slash	89	stimuli_distractor_diamondtriangles.svg	stimuli_target_circletriangles.svg	13	yes	53	1	486
6.6.1	win	2022-12-14	15:00:38	15:09:55	554200	5ed85fbefd7ffe37615b73a4	973138344	1	main_slash	11	advance_on_keypress_SLASH	90	stimuli_distractor_diamondtriangles.svg	stimuli_target_circletriangles.svg	13	yes	57	0	418
6.6.1	win	2022-12-14	15:00:38	15:09:57	555660	5ed85fbefd7ffe37615b73a4	973138344	1	main_slash	11	main_slash	91	stimuli_distractor_diamondtriangles.svg	stimuli_target_trianglecircles.svg	29	yes	53	1	396
6.6.1	win	2022-12-14	15:00:38	15:09:57	555660	5ed85fbefd7ffe37615b73a4	973138344	1	main_slash	11	advance_on_keypress_SLASH	92	stimuli_distractor_diamondtriangles.svg	stimuli_target_trianglecircles.svg	29	yes	57	0	427
6.6.1	win	2022-12-14	15:00:38	15:09:58	557160	5ed85fbefd7ffe37615b73a4	973138344	1	main_slash	11	main_slash	93	stimuli_target_squaretriangles.svg	stimuli_distractor_trianglediamonds.svg	3	yes	53	1	429
6.6.1	win	2022-12-14	15:00:38	15:09:58	557160	5ed85fbefd7ffe37615b73a4	973138344	1	main_slash	11	advance_on_keypress_SLASH	94	stimuli_target_squaretriangles.svg	stimuli_distractor_trianglediamonds.svg	3	yes	57	0	391
6.6.1	win	2022-12-14	15:00:38	15:10:00	558592	5ed85fbefd7ffe37615b73a4	973138344	1	main_slash	11	main_slash	95	stimuli_target_diamondcircles.svg	stimuli_distractor_trianglediamonds.svg	19	yes	53	1	395
6.6.1	win	2022-12-14	15:00:38	15:10:00	558592	5ed85fbefd7ffe37615b73a4	973138344	1	main_slash	11	advance_on_keypress_SLASH	96	stimuli_target_diamondcircles.svg	stimuli_distractor_trianglediamonds.svg	19	yes	57	0	395
6.6.1	win	2022-12-14	15:00:38	15:10:01	559964	5ed85fbefd7ffe37615b73a4	973138344	1	main_slash	11	main_slash	97	stimuli_target_squaretriangles.svg	stimuli_distractor_diamondtriangles.svg	7	yes	53	1	350
6.6.1	win	2022-12-14	15:00:38	15:10:01	559964	5ed85fbefd7ffe37615b73a4	973138344	1	main_slash	11	advance_on_keypress_SLASH	98	stimuli_target_squaretriangles.svg	stimuli_distractor_diamondtriangles.svg	7	yes	57	0	403
6.6.1	win	2022-12-14	15:00:38	15:10:02	561398	5ed85fbefd7ffe37615b73a4	973138344	1	main_slash	11	main_slash	99	stimuli_target_circletriangles.svg	stimuli_distractor_diamondtriangles.svg	5	yes	53	1	382
6.6.1	win	2022-12-14	15:00:38	15:10:02	561398	5ed85fbefd7ffe37615b73a4	973138344	1	main_slash	11	advance_on_keypress_SLASH	100	stimuli_target_circletriangles.svg	stimuli_distractor_diamondtriangles.svg	5	yes	57	0	334
6.6.1	win	2022-12-14	15:00:38	15:10:04	562728	5ed85fbefd7ffe37615b73a4	973138344	1	main_slash	11	main_slash	101	stimuli_distractor_diamondtriangles.svg	stimuli_distractor_trianglediamonds.svg	38	no	53	0	347
6.6.1	win	2022-12-14	15:00:38	15:10:04	562728	5ed85fbefd7ffe37615b73a4	973138344	1	main_slash	11	advance_on_keypress_SLASH	102	stimuli_distractor_diamondtriangles.svg	stimuli_distractor_trianglediamonds.svg	38	no	57	0	801
6.6.1	win	2022-12-14	15:00:38	15:10:06	564784	5ed85fbefd7ffe37615b73a4	973138344	1	main_slash	11	main_slash	103	stimuli_distractor_diamondtriangles.svg	stimuli_target_squaretriangles.svg	15	yes	53	1	603
6.6.1	win	2022-12-14	15:00:38	15:10:06	564784	5ed85fbefd7ffe37615b73a4	973138344	1	main_slash	11	advance_on_keypress_SLASH	104	stimuli_distractor_diamondtriangles.svg	stimuli_target_squaretriangles.svg	15	yes	57	0	395
6.6.1	win	2022-12-14	15:00:38	15:10:08	566452	5ed85fbefd7ffe37615b73a4	973138344	1	main_slash	11	main_slash	105	stimuli_distractor_trianglediamonds.svg	stimuli_target_diamondcircles.svg	27	yes	53	1	638
6.6.1	win	2022-12-14	15:00:38	15:10:08	566452	5ed85fbefd7ffe37615b73a4	973138344	1	main_slash	11	advance_on_keypress_SLASH	106	stimuli_distractor_trianglediamonds.svg	stimuli_target_diamondcircles.svg	27	yes	57	0	364
6.6.1	win	2022-12-14	15:00:38	15:10:09	568076	5ed85fbefd7ffe37615b73a4	973138344	1	main_slash	11	main_slash	107	stimuli_distractor_diamondtriangles.svg	stimuli_target_squarediamonds.svg	16	yes	53	1	612
6.6.1	win	2022-12-14	15:00:38	15:10:09	568076	5ed85fbefd7ffe37615b73a4	973138344	1	main_slash	11	advance_on_keypress_SLASH	108	stimuli_distractor_diamondtriangles.svg	stimuli_target_squarediamonds.svg	16	yes	57	0	380
6.6.1	win	2022-12-14	15:00:38	15:10:11	569828	5ed85fbefd7ffe37615b73a4	973138344	1	main_slash	11	main_slash	109	stimuli_target_diamondcircles.svg	stimuli_distractor_diamondtriangles.svg	23	yes	53	1	731
6.6.1	win	2022-12-14	15:00:38	15:10:11	569828	5ed85fbefd7ffe37615b73a4	973138344	1	main_slash	11	advance_on_keypress_SLASH	110	stimuli_target_diamondcircles.svg	stimuli_distractor_diamondtriangles.svg	23	yes	57	0	361
6.6.1	win	2022-12-14	15:00:38	15:10:12	571268	5ed85fbefd7ffe37615b73a4	973138344	1	main_slash	11	main_slash	111	stimuli_target_trianglesquares.svg	stimuli_distractor_diamondtriangles.svg	22	yes	53	1	437
6.6.1	win	2022-12-14	15:00:38	15:10:12	571268	5ed85fbefd7ffe37615b73a4	973138344	1	main_slash	11	advance_on_keypress_SLASH	112	stimuli_target_trianglesquares.svg	stimuli_distractor_diamondtriangles.svg	22	yes	57	0	467
6.6.1	win	2022-12-14	15:00:38	15:10:15	574380	5ed85fbefd7ffe37615b73a4	973138344	1	main_slash	11	main_slash	113	stimuli_distractor_diamondtriangles.svg	stimuli_distractor_diamondtriangles.svg	39	no	0	1	2000
6.6.1	win	2022-12-14	15:00:38	15:10:15	574380	5ed85fbefd7ffe37615b73a4	973138344	1	main_slash	11	advance_on_keypress_SLASH	114	stimuli_distractor_diamondtriangles.svg	stimuli_distractor_diamondtriangles.svg	39	no	57	0	323
6.6.1	win	2022-12-14	15:00:38	15:10:18	577347	5ed85fbefd7ffe37615b73a4	973138344	1	main_slash	11	main_slash	115	stimuli_distractor_diamondtriangles.svg	stimuli_distractor_diamondtriangles.svg	40	no	0	1	2000
6.6.1	win	2022-12-14	15:00:38	15:10:18	577347	5ed85fbefd7ffe37615b73a4	973138344	1	main_slash	11	advance_on_keypress_SLASH	116	stimuli_distractor_diamondtriangles.svg	stimuli_distractor_diamondtriangles.svg	40	no	57	0	708
6.6.1	win	2022-12-14	15:00:38	15:10:20	579148	5ed85fbefd7ffe37615b73a4	973138344	1	main_slash	11	main_slash	117	stimuli_distractor_trianglediamonds.svg	stimuli_target_circlediamonds.svg	10	yes	53	1	451
6.6.1	win	2022-12-14	15:00:38	15:10:20	579148	5ed85fbefd7ffe37615b73a4	973138344	1	main_slash	11	advance_on_keypress_SLASH	118	stimuli_distractor_trianglediamonds.svg	stimuli_target_circlediamonds.svg	10	yes	57	0	280
6.6.1	win	2022-12-14	15:00:38	15:10:22	580548	5ed85fbefd7ffe37615b73a4	973138344	1	main_slash	11	main_slash	119	stimuli_target_circlediamonds.svg	stimuli_distractor_diamondtriangles.svg	6	yes	53	1	467
6.6.1	win	2022-12-14	15:00:38	15:10:22	580548	5ed85fbefd7ffe37615b73a4	973138344	1	main_slash	11	advance_on_keypress_SLASH	120	stimuli_target_circlediamonds.svg	stimuli_distractor_diamondtriangles.svg	6	yes	57	0	372
6.6.1	win	2022-12-14	15:00:38	15:10:23	582060	5ed85fbefd7ffe37615b73a4	973138344	1	main_slash	11	main_slash	121	stimuli_target_trianglecircles.svg	stimuli_distractor_trianglediamonds.svg	17	yes	53	1	496
6.6.1	win	2022-12-14	15:00:38	15:10:23	582060	5ed85fbefd7ffe37615b73a4	973138344	1	main_slash	11	advance_on_keypress_SLASH	122	stimuli_target_trianglecircles.svg	stimuli_distractor_trianglediamonds.svg	17	yes	57	0	271
6.6.1	win	2022-12-14	15:00:38	15:10:25	583560	5ed85fbefd7ffe37615b73a4	973138344	1	main_slash	11	main_slash	123	stimuli_distractor_trianglediamonds.svg	stimuli_target_trianglecircles.svg	25	yes	53	1	579
6.6.1	win	2022-12-14	15:00:38	15:10:25	583560	5ed85fbefd7ffe37615b73a4	973138344	1	main_slash	11	advance_on_keypress_SLASH	124	stimuli_distractor_trianglediamonds.svg	stimuli_target_trianglecircles.svg	25	yes	57	0	279
6.6.1	win	2022-12-14	15:00:38	15:10:26	584796	5ed85fbefd7ffe37615b73a4	973138344	1	main_slash	11	main_slash	125	stimuli_distractor_trianglediamonds.svg	stimuli_target_squarediamonds.svg	12	yes	53	1	299
6.6.1	win	2022-12-14	15:00:38	15:10:26	584796	5ed85fbefd7ffe37615b73a4	973138344	1	main_slash	11	advance_on_keypress_SLASH	126	stimuli_distractor_trianglediamonds.svg	stimuli_target_squarediamonds.svg	12	yes	57	0	390
6.6.1	win	2022-12-14	15:00:38	15:10:27	586132	5ed85fbefd7ffe37615b73a4	973138344	1	main_slash	11	main_slash	127	stimuli_target_diamondsquares.svg	stimuli_distractor_trianglediamonds.svg	20	yes	53	1	301
6.6.1	win	2022-12-14	15:00:38	15:10:27	586132	5ed85fbefd7ffe37615b73a4	973138344	1	main_slash	11	advance_on_keypress_SLASH	128	stimuli_target_diamondsquares.svg	stimuli_distractor_trianglediamonds.svg	20	yes	57	0	357
6.6.1	win	2022-12-14	15:00:38	15:10:30	589130	5ed85fbefd7ffe37615b73a4	973138344	1	main_slash	11	main_slash	129	stimuli_distractor_trianglediamonds.svg	stimuli_distractor_trianglediamonds.svg	34	no	0	1	2000
6.6.1	win	2022-12-14	15:00:38	15:10:30	589130	5ed85fbefd7ffe37615b73a4	973138344	1	main_slash	11	advance_on_keypress_SLASH	130	stimuli_distractor_trianglediamonds.svg	stimuli_distractor_trianglediamonds.svg	34	no	57	0	325
6.6.1	win	2022-12-14	15:00:38	15:10:32	590548	5ed85fbefd7ffe37615b73a4	973138344	1	main_slash	11	main_slash	131	stimuli_target_trianglecircles.svg	stimuli_distractor_diamondtriangles.svg	21	yes	53	1	451
6.6.1	win	2022-12-14	15:00:38	15:10:32	590548	5ed85fbefd7ffe37615b73a4	973138344	1	main_slash	11	advance_on_keypress_SLASH	132	stimuli_target_trianglecircles.svg	stimuli_distractor_diamondtriangles.svg	21	yes	57	0	444
6.6.1	win	2022-12-14	15:00:38	15:10:35	593630	5ed85fbefd7ffe37615b73a4	973138344	1	main_slash	11	main_slash	133	stimuli_distractor_diamondtriangles.svg	stimuli_distractor_trianglediamonds.svg	37	no	0	1	2000
6.6.1	win	2022-12-14	15:00:38	15:10:35	593630	5ed85fbefd7ffe37615b73a4	973138344	1	main_slash	11	advance_on_keypress_SLASH	134	stimuli_distractor_diamondtriangles.svg	stimuli_distractor_trianglediamonds.svg	37	no	57	0	413
6.6.1	win	2022-12-14	15:00:38	15:10:38	596697	5ed85fbefd7ffe37615b73a4	973138344	1	main_slash	11	main_slash	135	stimuli_distractor_trianglediamonds.svg	stimuli_distractor_diamondtriangles.svg	36	no	0	1	2000
6.6.1	win	2022-12-14	15:00:38	15:10:38	596697	5ed85fbefd7ffe37615b73a4	973138344	1	main_slash	11	advance_on_keypress_SLASH	136	stimuli_distractor_trianglediamonds.svg	stimuli_distractor_diamondtriangles.svg	36	no	57	0	422
6.6.1	win	2022-12-14	15:00:38	15:10:39	598200	5ed85fbefd7ffe37615b73a4	973138344	1	main_slash	11	main_slash	137	stimuli_distractor_trianglediamonds.svg	stimuli_target_squaretriangles.svg	11	yes	53	1	436
6.6.1	win	2022-12-14	15:00:38	15:10:39	598200	5ed85fbefd7ffe37615b73a4	973138344	1	main_slash	11	advance_on_keypress_SLASH	138	stimuli_distractor_trianglediamonds.svg	stimuli_target_squaretriangles.svg	11	yes	57	0	422
6.6.1	win	2022-12-14	15:00:38	15:10:41	599704	5ed85fbefd7ffe37615b73a4	973138344	1	main_slash	11	main_slash	139	stimuli_target_squarediamonds.svg	stimuli_distractor_diamondtriangles.svg	8	yes	53	1	440
6.6.1	win	2022-12-14	15:00:38	15:10:41	599704	5ed85fbefd7ffe37615b73a4	973138344	1	main_slash	11	advance_on_keypress_SLASH	140	stimuli_target_squarediamonds.svg	stimuli_distractor_diamondtriangles.svg	8	yes	57	0	350
6.6.1	win	2022-12-14	15:00:38	15:10:42	601096	5ed85fbefd7ffe37615b73a4	973138344	1	main_slash	11	main_slash	141	stimuli_target_circletriangles.svg	stimuli_distractor_trianglediamonds.svg	1	yes	53	1	399
6.6.1	win	2022-12-14	15:00:38	15:10:42	601096	5ed85fbefd7ffe37615b73a4	973138344	1	main_slash	11	advance_on_keypress_SLASH	142	stimuli_target_circletriangles.svg	stimuli_distractor_trianglediamonds.svg	1	yes	57	0	346
6.6.1	win	2022-12-14	15:00:38	15:10:44	602768	5ed85fbefd7ffe37615b73a4	973138344	1	main_slash	11	main_slash	143	stimuli_distractor_diamondtriangles.svg	stimuli_target_circlediamonds.svg	14	yes	53	1	671
6.6.1	win	2022-12-14	15:00:38	15:10:44	602768	5ed85fbefd7ffe37615b73a4	973138344	1	main_slash	11	advance_on_keypress_SLASH	144	stimuli_distractor_diamondtriangles.svg	stimuli_target_circlediamonds.svg	14	yes	57	0	491
6.6.1	win	2022-12-14	15:00:38	15:10:47	605897	5ed85fbefd7ffe37615b73a4	973138344	1	main_slash	11	main_slash	145	stimuli_distractor_trianglediamonds.svg	stimuli_distractor_diamondtriangles.svg	35	no	0	1	2000
6.6.1	win	2022-12-14	15:00:38	15:10:47	605897	5ed85fbefd7ffe37615b73a4	973138344	1	main_slash	11	advance_on_keypress_SLASH	146	stimuli_distractor_trianglediamonds.svg	stimuli_distractor_diamondtriangles.svg	35	no	57	0	342
6.6.1	win	2022-12-14	15:00:38	15:10:48	607408	5ed85fbefd7ffe37615b73a4	973138344	1	main_slash	11	main_slash	147	stimuli_distractor_trianglediamonds.svg	stimuli_target_trianglesquares.svg	26	yes	53	1	527
6.6.1	win	2022-12-14	15:00:38	15:10:48	607408	5ed85fbefd7ffe37615b73a4	973138344	1	main_slash	11	advance_on_keypress_SLASH	148	stimuli_distractor_trianglediamonds.svg	stimuli_target_trianglesquares.svg	26	yes	57	0	402
6.6.1	win	2022-12-14	15:00:38	15:10:50	608936	5ed85fbefd7ffe37615b73a4	973138344	1	main_slash	11	main_slash	149	stimuli_distractor_trianglediamonds.svg	stimuli_target_diamondsquares.svg	28	yes	53	1	489
6.6.1	win	2022-12-14	15:00:38	15:10:50	608936	5ed85fbefd7ffe37615b73a4	973138344	1	main_slash	11	advance_on_keypress_SLASH	150	stimuli_distractor_trianglediamonds.svg	stimuli_target_diamondsquares.svg	28	yes	57	0	405
6.6.1	win	2022-12-14	15:00:38	15:10:52	610952	5ed85fbefd7ffe37615b73a4	973138344	1	main_slash	11	main_slash	151	stimuli_target_diamondsquares.svg	stimuli_distractor_diamondtriangles.svg	24	yes	53	1	971
6.6.1	win	2022-12-14	15:00:38	15:10:52	610952	5ed85fbefd7ffe37615b73a4	973138344	1	main_slash	11	advance_on_keypress_SLASH	152	stimuli_target_diamondsquares.svg	stimuli_distractor_diamondtriangles.svg	24	yes	57	0	448
6.6.1	win	2022-12-14	15:00:38	15:10:54	612568	5ed85fbefd7ffe37615b73a4	973138344	1	main_slash	11	main_slash	153	stimuli_target_circlediamonds.svg	stimuli_distractor_trianglediamonds.svg	2	yes	53	1	521
6.6.1	win	2022-12-14	15:00:38	15:10:54	612568	5ed85fbefd7ffe37615b73a4	973138344	1	main_slash	11	advance_on_keypress_SLASH	154	stimuli_target_circlediamonds.svg	stimuli_distractor_trianglediamonds.svg	2	yes	57	0	355
6.6.1	win	2022-12-14	15:00:38	15:10:55	614032	5ed85fbefd7ffe37615b73a4	973138344	1	main_slash	11	main_slash	155	stimuli_target_trianglesquares.svg	stimuli_distractor_trianglediamonds.svg	18	yes	53	1	468
6.6.1	win	2022-12-14	15:00:38	15:10:55	614032	5ed85fbefd7ffe37615b73a4	973138344	1	main_slash	11	advance_on_keypress_SLASH	156	stimuli_target_trianglesquares.svg	stimuli_distractor_trianglediamonds.svg	18	yes	57	0	413
6.6.1	win	2022-12-14	15:00:38	15:10:57	615616	5ed85fbefd7ffe37615b73a4	973138344	1	main_slash	11	main_slash	157	stimuli_distractor_diamondtriangles.svg	stimuli_target_trianglesquares.svg	30	yes	53	1	519
6.6.1	win	2022-12-14	15:00:38	15:10:57	615616	5ed85fbefd7ffe37615b73a4	973138344	1	main_slash	11	advance_on_keypress_SLASH	158	stimuli_distractor_diamondtriangles.svg	stimuli_target_trianglesquares.svg	30	yes	57	0	413
6.6.1	win	2022-12-14	15:00:38	15:10:58	617244	5ed85fbefd7ffe37615b73a4	973138344	1	main_slash	11	main_slash	159	stimuli_target_squarediamonds.svg	stimuli_distractor_trianglediamonds.svg	4	yes	53	1	563
6.6.1	win	2022-12-14	15:00:38	15:10:58	617244	5ed85fbefd7ffe37615b73a4	973138344	1	main_slash	11	advance_on_keypress_SLASH	160	stimuli_target_squarediamonds.svg	stimuli_distractor_trianglediamonds.svg	4	yes	57	0	464