build	computer.platform	date	time	timestamp	time_elapsed_ms	subject	group	session	blockcode	blocknum	trialcode	trialnum	stimulus_left	stimulus_right	stim_index	target_present	response	correct	latency
6.6.1	win	2022-11-07	13:43:46	13:47:17	209346	630345dd92f26599c777a5fc	800580031	1	practice_slash	5	practice_slash	1	stimuli_target_squarediamonds.svg	stimuli_distractor_trianglediamonds.svg	5	yes	0	0	2000
6.6.1	win	2022-11-07	13:43:46	13:47:17	209346	630345dd92f26599c777a5fc	800580031	1	practice_slash	5	advance_on_keypress_SLASH	2	stimuli_target_squarediamonds.svg	stimuli_distractor_trianglediamonds.svg	5	yes	57	0	4959
6.6.1	win	2022-11-07	13:43:46	13:47:24	216298	630345dd92f26599c777a5fc	800580031	1	practice_slash	5	practice_slash	3	stimuli_distractor_diamondtriangles.svg	stimuli_target_circletriangles.svg	7	yes	53	1	335
6.6.1	win	2022-11-07	13:43:46	13:47:24	216298	630345dd92f26599c777a5fc	800580031	1	practice_slash	5	advance_on_keypress_SLASH	4	stimuli_distractor_diamondtriangles.svg	stimuli_target_circletriangles.svg	7	yes	57	0	1281
6.6.1	win	2022-11-07	13:43:46	13:47:27	219530	630345dd92f26599c777a5fc	800580031	1	practice_slash	5	practice_slash	5	stimuli_target_diamondsquares.svg	stimuli_distractor_diamondtriangles.svg	3	yes	53	1	301
6.6.1	win	2022-11-07	13:43:46	13:47:27	219530	630345dd92f26599c777a5fc	800580031	1	practice_slash	5	advance_on_keypress_SLASH	6	stimuli_target_diamondsquares.svg	stimuli_distractor_diamondtriangles.svg	3	yes	57	0	3392
6.6.1	win	2022-11-07	13:43:46	13:47:34	226562	630345dd92f26599c777a5fc	800580031	1	practice_slash	5	practice_slash	7	stimuli_distractor_diamondtriangles.svg	stimuli_distractor_trianglediamonds.svg	14	no	0	1	2000
6.6.1	win	2022-11-07	13:43:46	13:47:34	226562	630345dd92f26599c777a5fc	800580031	1	practice_slash	5	advance_on_keypress_SLASH	8	stimuli_distractor_diamondtriangles.svg	stimuli_distractor_trianglediamonds.svg	14	no	57	0	1135
6.6.1	win	2022-11-07	13:43:46	13:47:38	229801	630345dd92f26599c777a5fc	800580031	1	practice_slash	5	practice_slash	9	stimuli_distractor_trianglediamonds.svg	stimuli_target_diamondcircles.svg	12	yes	53	1	456
6.6.1	win	2022-11-07	13:43:46	13:47:38	229801	630345dd92f26599c777a5fc	800580031	1	practice_slash	5	advance_on_keypress_SLASH	10	stimuli_distractor_trianglediamonds.svg	stimuli_target_diamondcircles.svg	12	yes	57	0	1597
6.6.1	win	2022-11-07	13:43:46	13:47:41	233714	630345dd92f26599c777a5fc	800580031	1	practice_slash	5	practice_slash	11	stimuli_target_squarediamonds.svg	stimuli_distractor_diamondtriangles.svg	2	yes	53	1	685
6.6.1	win	2022-11-07	13:43:46	13:47:41	233714	630345dd92f26599c777a5fc	800580031	1	practice_slash	5	advance_on_keypress_SLASH	12	stimuli_target_squarediamonds.svg	stimuli_distractor_diamondtriangles.svg	2	yes	57	0	1185
6.6.1	win	2022-11-07	13:43:46	13:47:45	236881	630345dd92f26599c777a5fc	800580031	1	practice_slash	5	practice_slash	13	stimuli_distractor_diamondtriangles.svg	stimuli_target_diamondcircles.svg	8	yes	53	1	336
6.6.1	win	2022-11-07	13:43:46	13:47:45	236881	630345dd92f26599c777a5fc	800580031	1	practice_slash	5	advance_on_keypress_SLASH	14	stimuli_distractor_diamondtriangles.svg	stimuli_target_diamondcircles.svg	8	yes	57	0	1674
6.6.1	win	2022-11-07	13:43:46	13:47:50	242195	630345dd92f26599c777a5fc	800580031	1	practice_slash	5	practice_slash	15	stimuli_distractor_diamondtriangles.svg	stimuli_distractor_diamondtriangles.svg	13	no	0	1	2000
6.6.1	win	2022-11-07	13:43:46	13:47:50	242195	630345dd92f26599c777a5fc	800580031	1	practice_slash	5	advance_on_keypress_SLASH	16	stimuli_distractor_diamondtriangles.svg	stimuli_distractor_diamondtriangles.svg	13	no	57	0	742
6.6.1	win	2022-11-07	13:43:46	13:47:53	244977	630345dd92f26599c777a5fc	800580031	1	practice_slash	5	practice_slash	17	stimuli_distractor_trianglediamonds.svg	stimuli_target_circlediamonds.svg	10	yes	53	1	399
6.6.1	win	2022-11-07	13:43:46	13:47:53	244977	630345dd92f26599c777a5fc	800580031	1	practice_slash	5	advance_on_keypress_SLASH	18	stimuli_distractor_trianglediamonds.svg	stimuli_target_circlediamonds.svg	10	yes	57	0	2670
6.6.1	win	2022-11-07	13:43:46	13:47:59	251295	630345dd92f26599c777a5fc	800580031	1	practice_slash	5	practice_slash	19	stimuli_distractor_trianglediamonds.svg	stimuli_distractor_trianglediamonds.svg	15	no	0	1	2000
6.6.1	win	2022-11-07	13:43:46	13:47:59	251295	630345dd92f26599c777a5fc	800580031	1	practice_slash	5	advance_on_keypress_SLASH	20	stimuli_distractor_trianglediamonds.svg	stimuli_distractor_trianglediamonds.svg	15	no	57	0	2177
6.6.1	win	2022-11-07	13:43:46	13:48:03	255545	630345dd92f26599c777a5fc	800580031	1	practice_slash	5	practice_slash	21	stimuli_target_circlediamonds.svg	stimuli_distractor_diamondtriangles.svg	1	yes	53	1	433
6.6.1	win	2022-11-07	13:43:46	13:48:03	255545	630345dd92f26599c777a5fc	800580031	1	practice_slash	5	advance_on_keypress_SLASH	22	stimuli_target_circlediamonds.svg	stimuli_distractor_diamondtriangles.svg	1	yes	57	0	1231
6.6.1	win	2022-11-07	13:43:46	13:48:08	260411	630345dd92f26599c777a5fc	800580031	1	practice_slash	5	practice_slash	23	stimuli_distractor_trianglediamonds.svg	stimuli_distractor_diamondtriangles.svg	16	no	0	1	2000
6.6.1	win	2022-11-07	13:43:46	13:48:08	260411	630345dd92f26599c777a5fc	800580031	1	practice_slash	5	advance_on_keypress_SLASH	24	stimuli_distractor_trianglediamonds.svg	stimuli_distractor_diamondtriangles.svg	16	no	57	0	932
6.6.1	win	2022-11-07	13:43:46	13:48:11	263313	630345dd92f26599c777a5fc	800580031	1	practice_slash	5	practice_slash	25	stimuli_distractor_diamondtriangles.svg	stimuli_target_trianglecircles.svg	9	yes	53	1	318
6.6.1	win	2022-11-07	13:43:46	13:48:11	263313	630345dd92f26599c777a5fc	800580031	1	practice_slash	5	advance_on_keypress_SLASH	26	stimuli_distractor_diamondtriangles.svg	stimuli_target_trianglecircles.svg	9	yes	57	0	912
6.6.1	win	2022-11-07	13:43:46	13:48:14	266378	630345dd92f26599c777a5fc	800580031	1	practice_slash	5	practice_slash	27	stimuli_distractor_trianglediamonds.svg	stimuli_target_squarediamonds.svg	11	yes	53	1	507
6.6.1	win	2022-11-07	13:43:46	13:48:14	266378	630345dd92f26599c777a5fc	800580031	1	practice_slash	5	advance_on_keypress_SLASH	28	stimuli_distractor_trianglediamonds.svg	stimuli_target_squarediamonds.svg	11	yes	57	0	838
6.6.1	win	2022-11-07	13:43:46	13:48:17	269384	630345dd92f26599c777a5fc	800580031	1	practice_slash	5	practice_slash	29	stimuli_target_circlediamonds.svg	stimuli_distractor_trianglediamonds.svg	4	yes	53	1	523
6.6.1	win	2022-11-07	13:43:46	13:48:17	269384	630345dd92f26599c777a5fc	800580031	1	practice_slash	5	advance_on_keypress_SLASH	30	stimuli_target_circlediamonds.svg	stimuli_distractor_trianglediamonds.svg	4	yes	57	0	526
6.6.1	win	2022-11-07	13:43:46	13:48:21	273545	630345dd92f26599c777a5fc	800580031	1	practice_slash	5	practice_slash	31	stimuli_target_diamondsquares.svg	stimuli_distractor_trianglediamonds.svg	6	yes	0	0	2000
6.6.1	win	2022-11-07	13:43:46	13:48:21	273545	630345dd92f26599c777a5fc	800580031	1	practice_slash	5	advance_on_keypress_SLASH	32	stimuli_target_diamondsquares.svg	stimuli_distractor_trianglediamonds.svg	6	yes	57	0	1719
6.6.1	win	2022-11-07	13:43:46	13:48:37	289384	630345dd92f26599c777a5fc	800580031	1	main_slash	7	main_slash	1	stimuli_target_squaretriangles.svg	stimuli_distractor_diamondtriangles.svg	7	yes	53	1	440
6.6.1	win	2022-11-07	13:43:46	13:48:37	289384	630345dd92f26599c777a5fc	800580031	1	main_slash	7	advance_on_keypress_SLASH	2	stimuli_target_squaretriangles.svg	stimuli_distractor_diamondtriangles.svg	7	yes	57	0	1454
6.6.1	win	2022-11-07	13:43:46	13:48:40	291960	630345dd92f26599c777a5fc	800580031	1	main_slash	7	main_slash	3	stimuli_distractor_trianglediamonds.svg	stimuli_target_circlediamonds.svg	10	yes	53	1	483
6.6.1	win	2022-11-07	13:43:46	13:48:40	291960	630345dd92f26599c777a5fc	800580031	1	main_slash	7	advance_on_keypress_SLASH	4	stimuli_distractor_trianglediamonds.svg	stimuli_target_circlediamonds.svg	10	yes	57	0	1031
6.6.1	win	2022-11-07	13:43:46	13:48:43	295628	630345dd92f26599c777a5fc	800580031	1	main_slash	7	main_slash	5	stimuli_target_diamondsquares.svg	stimuli_distractor_trianglediamonds.svg	20	yes	0	0	2000
6.6.1	win	2022-11-07	13:43:46	13:48:43	295628	630345dd92f26599c777a5fc	800580031	1	main_slash	7	advance_on_keypress_SLASH	6	stimuli_target_diamondsquares.svg	stimuli_distractor_trianglediamonds.svg	20	yes	57	0	923
6.6.1	win	2022-11-07	13:43:46	13:48:45	297639	630345dd92f26599c777a5fc	800580031	1	main_slash	7	main_slash	7	stimuli_distractor_trianglediamonds.svg	stimuli_target_circletriangles.svg	9	yes	53	1	445
6.6.1	win	2022-11-07	13:43:46	13:48:45	297639	630345dd92f26599c777a5fc	800580031	1	main_slash	7	advance_on_keypress_SLASH	8	stimuli_distractor_trianglediamonds.svg	stimuli_target_circletriangles.svg	9	yes	57	0	1139
6.6.1	win	2022-11-07	13:43:46	13:48:48	299975	630345dd92f26599c777a5fc	800580031	1	main_slash	7	main_slash	9	stimuli_distractor_diamondtriangles.svg	stimuli_target_diamondcircles.svg	31	yes	53	1	564
6.6.1	win	2022-11-07	13:43:46	13:48:48	299975	630345dd92f26599c777a5fc	800580031	1	main_slash	7	advance_on_keypress_SLASH	10	stimuli_distractor_diamondtriangles.svg	stimuli_target_diamondcircles.svg	31	yes	57	0	974
6.6.1	win	2022-11-07	13:43:46	13:48:51	303577	630345dd92f26599c777a5fc	800580031	1	main_slash	7	main_slash	11	stimuli_distractor_trianglediamonds.svg	stimuli_distractor_diamondtriangles.svg	36	no	0	1	2000
6.6.1	win	2022-11-07	13:43:46	13:48:51	303577	630345dd92f26599c777a5fc	800580031	1	main_slash	7	advance_on_keypress_SLASH	12	stimuli_distractor_trianglediamonds.svg	stimuli_distractor_diamondtriangles.svg	36	no	57	0	853
6.6.1	win	2022-11-07	13:43:46	13:48:55	307078	630345dd92f26599c777a5fc	800580031	1	main_slash	7	main_slash	13	stimuli_target_diamondsquares.svg	stimuli_distractor_diamondtriangles.svg	24	yes	0	0	2000
6.6.1	win	2022-11-07	13:43:46	13:48:55	307078	630345dd92f26599c777a5fc	800580031	1	main_slash	7	advance_on_keypress_SLASH	14	stimuli_target_diamondsquares.svg	stimuli_distractor_diamondtriangles.svg	24	yes	57	0	1065
6.6.1	win	2022-11-07	13:43:46	13:48:59	310794	630345dd92f26599c777a5fc	800580031	1	main_slash	7	main_slash	15	stimuli_distractor_diamondtriangles.svg	stimuli_distractor_trianglediamonds.svg	38	no	0	1	2000
6.6.1	win	2022-11-07	13:43:46	13:48:59	310794	630345dd92f26599c777a5fc	800580031	1	main_slash	7	advance_on_keypress_SLASH	16	stimuli_distractor_diamondtriangles.svg	stimuli_distractor_trianglediamonds.svg	38	no	57	0	964
6.6.1	win	2022-11-07	13:43:46	13:49:01	312983	630345dd92f26599c777a5fc	800580031	1	main_slash	7	main_slash	17	stimuli_distractor_diamondtriangles.svg	stimuli_target_diamondsquares.svg	32	yes	53	1	589
6.6.1	win	2022-11-07	13:43:46	13:49:01	312983	630345dd92f26599c777a5fc	800580031	1	main_slash	7	advance_on_keypress_SLASH	18	stimuli_distractor_diamondtriangles.svg	stimuli_target_diamondsquares.svg	32	yes	57	0	1037
6.6.1	win	2022-11-07	13:43:46	13:49:04	316661	630345dd92f26599c777a5fc	800580031	1	main_slash	7	main_slash	19	stimuli_distractor_trianglediamonds.svg	stimuli_distractor_trianglediamonds.svg	33	no	0	1	2000
6.6.1	win	2022-11-07	13:43:46	13:49:04	316661	630345dd92f26599c777a5fc	800580031	1	main_slash	7	advance_on_keypress_SLASH	20	stimuli_distractor_trianglediamonds.svg	stimuli_distractor_trianglediamonds.svg	33	no	57	0	930
6.6.1	win	2022-11-07	13:43:46	13:49:07	318743	630345dd92f26599c777a5fc	800580031	1	main_slash	7	main_slash	21	stimuli_distractor_diamondtriangles.svg	stimuli_target_squaretriangles.svg	15	yes	53	1	516
6.6.1	win	2022-11-07	13:43:46	13:49:07	318743	630345dd92f26599c777a5fc	800580031	1	main_slash	7	advance_on_keypress_SLASH	22	stimuli_distractor_diamondtriangles.svg	stimuli_target_squaretriangles.svg	15	yes	57	0	1151
6.6.1	win	2022-11-07	13:43:46	13:49:09	321135	630345dd92f26599c777a5fc	800580031	1	main_slash	7	main_slash	23	stimuli_target_trianglesquares.svg	stimuli_distractor_trianglediamonds.svg	18	yes	53	1	591
6.6.1	win	2022-11-07	13:43:46	13:49:09	321135	630345dd92f26599c777a5fc	800580031	1	main_slash	7	advance_on_keypress_SLASH	24	stimuli_target_trianglesquares.svg	stimuli_distractor_trianglediamonds.svg	18	yes	57	0	1087
6.6.1	win	2022-11-07	13:43:46	13:49:11	323303	630345dd92f26599c777a5fc	800580031	1	main_slash	7	main_slash	25	stimuli_distractor_trianglediamonds.svg	stimuli_target_trianglesquares.svg	26	yes	53	1	443
6.6.1	win	2022-11-07	13:43:46	13:49:11	323303	630345dd92f26599c777a5fc	800580031	1	main_slash	7	advance_on_keypress_SLASH	26	stimuli_distractor_trianglediamonds.svg	stimuli_target_trianglesquares.svg	26	yes	57	0	961
6.6.1	win	2022-11-07	13:43:46	13:49:13	325367	630345dd92f26599c777a5fc	800580031	1	main_slash	7	main_slash	27	stimuli_distractor_diamondtriangles.svg	stimuli_target_trianglesquares.svg	30	yes	53	1	473
6.6.1	win	2022-11-07	13:43:46	13:49:13	325367	630345dd92f26599c777a5fc	800580031	1	main_slash	7	advance_on_keypress_SLASH	28	stimuli_distractor_diamondtriangles.svg	stimuli_target_trianglesquares.svg	30	yes	57	0	846
6.6.1	win	2022-11-07	13:43:46	13:49:15	327455	630345dd92f26599c777a5fc	800580031	1	main_slash	7	main_slash	29	stimuli_target_trianglesquares.svg	stimuli_distractor_diamondtriangles.svg	22	yes	53	1	611
6.6.1	win	2022-11-07	13:43:46	13:49:15	327455	630345dd92f26599c777a5fc	800580031	1	main_slash	7	advance_on_keypress_SLASH	30	stimuli_target_trianglesquares.svg	stimuli_distractor_diamondtriangles.svg	22	yes	57	0	987
6.6.1	win	2022-11-07	13:43:46	13:49:17	329519	630345dd92f26599c777a5fc	800580031	1	main_slash	7	main_slash	31	stimuli_target_diamondcircles.svg	stimuli_distractor_diamondtriangles.svg	23	yes	53	1	442
6.6.1	win	2022-11-07	13:43:46	13:49:17	329519	630345dd92f26599c777a5fc	800580031	1	main_slash	7	advance_on_keypress_SLASH	32	stimuli_target_diamondcircles.svg	stimuli_distractor_diamondtriangles.svg	23	yes	57	0	944
6.6.1	win	2022-11-07	13:43:46	13:49:19	331487	630345dd92f26599c777a5fc	800580031	1	main_slash	7	main_slash	33	stimuli_distractor_trianglediamonds.svg	stimuli_target_diamondcircles.svg	27	yes	53	1	393
6.6.1	win	2022-11-07	13:43:46	13:49:19	331487	630345dd92f26599c777a5fc	800580031	1	main_slash	7	advance_on_keypress_SLASH	34	stimuli_distractor_trianglediamonds.svg	stimuli_target_diamondcircles.svg	27	yes	57	0	985
6.6.1	win	2022-11-07	13:43:46	13:49:21	333551	630345dd92f26599c777a5fc	800580031	1	main_slash	7	main_slash	35	stimuli_target_circletriangles.svg	stimuli_distractor_trianglediamonds.svg	1	yes	53	1	441
6.6.1	win	2022-11-07	13:43:46	13:49:21	333551	630345dd92f26599c777a5fc	800580031	1	main_slash	7	advance_on_keypress_SLASH	36	stimuli_target_circletriangles.svg	stimuli_distractor_trianglediamonds.svg	1	yes	57	0	1023
6.6.1	win	2022-11-07	13:43:46	13:49:23	335638	630345dd92f26599c777a5fc	800580031	1	main_slash	7	main_slash	37	stimuli_target_squarediamonds.svg	stimuli_distractor_trianglediamonds.svg	4	yes	53	1	429
6.6.1	win	2022-11-07	13:43:46	13:49:23	335638	630345dd92f26599c777a5fc	800580031	1	main_slash	7	advance_on_keypress_SLASH	38	stimuli_target_squarediamonds.svg	stimuli_distractor_trianglediamonds.svg	4	yes	57	0	962
6.6.1	win	2022-11-07	13:43:46	13:49:25	337646	630345dd92f26599c777a5fc	800580031	1	main_slash	7	main_slash	39	stimuli_distractor_diamondtriangles.svg	stimuli_target_trianglecircles.svg	29	yes	53	1	419
6.6.1	win	2022-11-07	13:43:46	13:49:25	337646	630345dd92f26599c777a5fc	800580031	1	main_slash	7	advance_on_keypress_SLASH	40	stimuli_distractor_diamondtriangles.svg	stimuli_target_trianglecircles.svg	29	yes	57	0	994
6.6.1	win	2022-11-07	13:43:46	13:49:29	341277	630345dd92f26599c777a5fc	800580031	1	main_slash	7	main_slash	41	stimuli_distractor_trianglediamonds.svg	stimuli_distractor_diamondtriangles.svg	35	no	0	1	2000
6.6.1	win	2022-11-07	13:43:46	13:49:29	341277	630345dd92f26599c777a5fc	800580031	1	main_slash	7	advance_on_keypress_SLASH	42	stimuli_distractor_trianglediamonds.svg	stimuli_distractor_diamondtriangles.svg	35	no	57	0	825
6.6.1	win	2022-11-07	13:43:46	13:49:31	343166	630345dd92f26599c777a5fc	800580031	1	main_slash	7	main_slash	43	stimuli_target_squarediamonds.svg	stimuli_distractor_diamondtriangles.svg	8	yes	53	1	423
6.6.1	win	2022-11-07	13:43:46	13:49:31	343166	630345dd92f26599c777a5fc	800580031	1	main_slash	7	advance_on_keypress_SLASH	44	stimuli_target_squarediamonds.svg	stimuli_distractor_diamondtriangles.svg	8	yes	57	0	821
6.6.1	win	2022-11-07	13:43:46	13:49:33	345038	630345dd92f26599c777a5fc	800580031	1	main_slash	7	main_slash	45	stimuli_target_trianglecircles.svg	stimuli_distractor_trianglediamonds.svg	17	yes	53	1	411
6.6.1	win	2022-11-07	13:43:46	13:49:33	345038	630345dd92f26599c777a5fc	800580031	1	main_slash	7	advance_on_keypress_SLASH	46	stimuli_target_trianglecircles.svg	stimuli_distractor_trianglediamonds.svg	17	yes	57	0	891
6.6.1	win	2022-11-07	13:43:46	13:49:35	347006	630345dd92f26599c777a5fc	800580031	1	main_slash	7	main_slash	47	stimuli_distractor_trianglediamonds.svg	stimuli_target_squaretriangles.svg	11	yes	53	1	446
6.6.1	win	2022-11-07	13:43:46	13:49:35	347006	630345dd92f26599c777a5fc	800580031	1	main_slash	7	advance_on_keypress_SLASH	48	stimuli_distractor_trianglediamonds.svg	stimuli_target_squaretriangles.svg	11	yes	57	0	916
6.6.1	win	2022-11-07	13:43:46	13:49:37	349246	630345dd92f26599c777a5fc	800580031	1	main_slash	7	main_slash	49	stimuli_distractor_diamondtriangles.svg	stimuli_target_circletriangles.svg	13	yes	53	1	686
6.6.1	win	2022-11-07	13:43:46	13:49:37	349246	630345dd92f26599c777a5fc	800580031	1	main_slash	7	advance_on_keypress_SLASH	50	stimuli_distractor_diamondtriangles.svg	stimuli_target_circletriangles.svg	13	yes	57	0	882
6.6.1	win	2022-11-07	13:43:46	13:49:39	351160	630345dd92f26599c777a5fc	800580031	1	main_slash	7	main_slash	51	stimuli_target_circlediamonds.svg	stimuli_distractor_diamondtriangles.svg	6	yes	53	1	381
6.6.1	win	2022-11-07	13:43:46	13:49:39	351160	630345dd92f26599c777a5fc	800580031	1	main_slash	7	advance_on_keypress_SLASH	52	stimuli_target_circlediamonds.svg	stimuli_distractor_diamondtriangles.svg	6	yes	57	0	933
6.6.1	win	2022-11-07	13:43:46	13:49:41	353182	630345dd92f26599c777a5fc	800580031	1	main_slash	7	main_slash	53	stimuli_target_squaretriangles.svg	stimuli_distractor_trianglediamonds.svg	3	yes	53	1	439
6.6.1	win	2022-11-07	13:43:46	13:49:41	353182	630345dd92f26599c777a5fc	800580031	1	main_slash	7	advance_on_keypress_SLASH	54	stimuli_target_squaretriangles.svg	stimuli_distractor_trianglediamonds.svg	3	yes	57	0	925
6.6.1	win	2022-11-07	13:43:46	13:49:43	355230	630345dd92f26599c777a5fc	800580031	1	main_slash	7	main_slash	55	stimuli_target_diamondcircles.svg	stimuli_distractor_trianglediamonds.svg	19	yes	53	1	487
6.6.1	win	2022-11-07	13:43:46	13:49:43	355230	630345dd92f26599c777a5fc	800580031	1	main_slash	7	advance_on_keypress_SLASH	56	stimuli_target_diamondcircles.svg	stimuli_distractor_trianglediamonds.svg	19	yes	57	0	923
6.6.1	win	2022-11-07	13:43:46	13:49:45	357262	630345dd92f26599c777a5fc	800580031	1	main_slash	7	main_slash	57	stimuli_distractor_diamondtriangles.svg	stimuli_target_circlediamonds.svg	14	yes	53	1	469
6.6.1	win	2022-11-07	13:43:46	13:49:45	357262	630345dd92f26599c777a5fc	800580031	1	main_slash	7	advance_on_keypress_SLASH	58	stimuli_distractor_diamondtriangles.svg	stimuli_target_circlediamonds.svg	14	yes	57	0	921
6.6.1	win	2022-11-07	13:43:46	13:49:47	359246	630345dd92f26599c777a5fc	800580031	1	main_slash	7	main_slash	59	stimuli_target_circletriangles.svg	stimuli_distractor_diamondtriangles.svg	5	yes	53	1	419
6.6.1	win	2022-11-07	13:43:46	13:49:47	359246	630345dd92f26599c777a5fc	800580031	1	main_slash	7	advance_on_keypress_SLASH	60	stimuli_target_circletriangles.svg	stimuli_distractor_diamondtriangles.svg	5	yes	57	0	922
6.6.1	win	2022-11-07	13:43:46	13:49:49	361254	630345dd92f26599c777a5fc	800580031	1	main_slash	7	main_slash	61	stimuli_distractor_diamondtriangles.svg	stimuli_target_squarediamonds.svg	16	yes	53	1	444
6.6.1	win	2022-11-07	13:43:46	13:49:49	361254	630345dd92f26599c777a5fc	800580031	1	main_slash	7	advance_on_keypress_SLASH	62	stimuli_distractor_diamondtriangles.svg	stimuli_target_squarediamonds.svg	16	yes	57	0	946
6.6.1	win	2022-11-07	13:43:46	13:49:51	363438	630345dd92f26599c777a5fc	800580031	1	main_slash	7	main_slash	63	stimuli_distractor_trianglediamonds.svg	stimuli_target_diamondsquares.svg	28	yes	53	1	611
6.6.1	win	2022-11-07	13:43:46	13:49:51	363438	630345dd92f26599c777a5fc	800580031	1	main_slash	7	advance_on_keypress_SLASH	64	stimuli_distractor_trianglediamonds.svg	stimuli_target_diamondsquares.svg	28	yes	57	0	947
6.6.1	win	2022-11-07	13:43:46	13:49:53	365542	630345dd92f26599c777a5fc	800580031	1	main_slash	7	main_slash	65	stimuli_distractor_trianglediamonds.svg	stimuli_target_squarediamonds.svg	12	yes	53	1	532
6.6.1	win	2022-11-07	13:43:46	13:49:53	365542	630345dd92f26599c777a5fc	800580031	1	main_slash	7	advance_on_keypress_SLASH	66	stimuli_distractor_trianglediamonds.svg	stimuli_target_squarediamonds.svg	12	yes	57	0	991
6.6.1	win	2022-11-07	13:43:46	13:49:57	369160	630345dd92f26599c777a5fc	800580031	1	main_slash	7	main_slash	67	stimuli_distractor_diamondtriangles.svg	stimuli_distractor_diamondtriangles.svg	39	no	0	1	2000
6.6.1	win	2022-11-07	13:43:46	13:49:57	369160	630345dd92f26599c777a5fc	800580031	1	main_slash	7	advance_on_keypress_SLASH	68	stimuli_distractor_diamondtriangles.svg	stimuli_distractor_diamondtriangles.svg	39	no	57	0	662
6.6.1	win	2022-11-07	13:43:46	13:49:59	371102	630345dd92f26599c777a5fc	800580031	1	main_slash	7	main_slash	69	stimuli_target_trianglecircles.svg	stimuli_distractor_diamondtriangles.svg	21	yes	53	1	642
6.6.1	win	2022-11-07	13:43:46	13:49:59	371102	630345dd92f26599c777a5fc	800580031	1	main_slash	7	advance_on_keypress_SLASH	70	stimuli_target_trianglecircles.svg	stimuli_distractor_diamondtriangles.svg	21	yes	57	0	1048
6.6.1	win	2022-11-07	13:43:46	13:50:01	373190	630345dd92f26599c777a5fc	800580031	1	main_slash	7	main_slash	71	stimuli_distractor_trianglediamonds.svg	stimuli_target_trianglecircles.svg	25	yes	53	1	414
6.6.1	win	2022-11-07	13:43:46	13:50:01	373190	630345dd92f26599c777a5fc	800580031	1	main_slash	7	advance_on_keypress_SLASH	72	stimuli_distractor_trianglediamonds.svg	stimuli_target_trianglecircles.svg	25	yes	57	0	1013
6.6.1	win	2022-11-07	13:43:46	13:50:03	375414	630345dd92f26599c777a5fc	800580031	1	main_slash	7	main_slash	73	stimuli_distractor_diamondtriangles.svg	stimuli_distractor_trianglediamonds.svg	37	no	53	0	588
6.6.1	win	2022-11-07	13:43:46	13:50:03	375414	630345dd92f26599c777a5fc	800580031	1	main_slash	7	advance_on_keypress_SLASH	74	stimuli_distractor_diamondtriangles.svg	stimuli_distractor_trianglediamonds.svg	37	no	57	0	2244
6.6.1	win	2022-11-07	13:43:46	13:50:07	378877	630345dd92f26599c777a5fc	800580031	1	main_slash	7	main_slash	75	stimuli_distractor_diamondtriangles.svg	stimuli_distractor_diamondtriangles.svg	40	no	53	0	585
6.6.1	win	2022-11-07	13:43:46	13:50:07	378877	630345dd92f26599c777a5fc	800580031	1	main_slash	7	advance_on_keypress_SLASH	76	stimuli_distractor_diamondtriangles.svg	stimuli_distractor_diamondtriangles.svg	40	no	57	0	1112
6.6.1	win	2022-11-07	13:43:46	13:50:09	381077	630345dd92f26599c777a5fc	800580031	1	main_slash	7	main_slash	77	stimuli_target_circlediamonds.svg	stimuli_distractor_trianglediamonds.svg	2	yes	53	1	451
6.6.1	win	2022-11-07	13:43:46	13:50:09	381077	630345dd92f26599c777a5fc	800580031	1	main_slash	7	advance_on_keypress_SLASH	78	stimuli_target_circlediamonds.svg	stimuli_distractor_trianglediamonds.svg	2	yes	57	0	744
6.6.1	win	2022-11-07	13:43:46	13:50:12	384460	630345dd92f26599c777a5fc	800580031	1	main_slash	7	main_slash	79	stimuli_distractor_trianglediamonds.svg	stimuli_distractor_trianglediamonds.svg	34	no	0	1	2000
6.6.1	win	2022-11-07	13:43:46	13:50:12	384460	630345dd92f26599c777a5fc	800580031	1	main_slash	7	advance_on_keypress_SLASH	80	stimuli_distractor_trianglediamonds.svg	stimuli_distractor_trianglediamonds.svg	34	no	57	0	817
6.6.1	win	2022-11-07	13:43:46	13:50:14	386333	630345dd92f26599c777a5fc	800580031	1	main_slash	7	main_slash	81	stimuli_distractor_trianglediamonds.svg	stimuli_target_trianglesquares.svg	26	yes	53	1	407
6.6.1	win	2022-11-07	13:43:46	13:50:14	386333	630345dd92f26599c777a5fc	800580031	1	main_slash	7	advance_on_keypress_SLASH	82	stimuli_distractor_trianglediamonds.svg	stimuli_target_trianglesquares.svg	26	yes	57	0	710
6.6.1	win	2022-11-07	13:43:46	13:50:16	388549	630345dd92f26599c777a5fc	800580031	1	main_slash	7	main_slash	83	stimuli_target_diamondcircles.svg	stimuli_distractor_trianglediamonds.svg	19	yes	53	1	873
6.6.1	win	2022-11-07	13:43:46	13:50:16	388549	630345dd92f26599c777a5fc	800580031	1	main_slash	7	advance_on_keypress_SLASH	84	stimuli_target_diamondcircles.svg	stimuli_distractor_trianglediamonds.svg	19	yes	57	0	949
6.6.1	win	2022-11-07	13:43:46	13:50:18	390613	630345dd92f26599c777a5fc	800580031	1	main_slash	7	main_slash	85	stimuli_target_trianglecircles.svg	stimuli_distractor_diamondtriangles.svg	21	yes	53	1	470
6.6.1	win	2022-11-07	13:43:46	13:50:18	390613	630345dd92f26599c777a5fc	800580031	1	main_slash	7	advance_on_keypress_SLASH	86	stimuli_target_trianglecircles.svg	stimuli_distractor_diamondtriangles.svg	21	yes	57	0	867
6.6.1	win	2022-11-07	13:43:46	13:50:20	392565	630345dd92f26599c777a5fc	800580031	1	main_slash	7	main_slash	87	stimuli_distractor_diamondtriangles.svg	stimuli_target_diamondcircles.svg	31	yes	53	1	439
6.6.1	win	2022-11-07	13:43:46	13:50:20	392565	630345dd92f26599c777a5fc	800580031	1	main_slash	7	advance_on_keypress_SLASH	88	stimuli_distractor_diamondtriangles.svg	stimuli_target_diamondcircles.svg	31	yes	57	0	789
6.6.1	win	2022-11-07	13:43:46	13:50:24	395993	630345dd92f26599c777a5fc	800580031	1	main_slash	7	main_slash	89	stimuli_distractor_trianglediamonds.svg	stimuli_distractor_trianglediamonds.svg	34	no	0	1	2000
6.6.1	win	2022-11-07	13:43:46	13:50:24	395993	630345dd92f26599c777a5fc	800580031	1	main_slash	7	advance_on_keypress_SLASH	90	stimuli_distractor_trianglediamonds.svg	stimuli_distractor_trianglediamonds.svg	34	no	57	0	588
6.6.1	win	2022-11-07	13:43:46	13:50:25	397685	630345dd92f26599c777a5fc	800580031	1	main_slash	7	main_slash	91	stimuli_distractor_diamondtriangles.svg	stimuli_target_squarediamonds.svg	16	yes	53	1	459
6.6.1	win	2022-11-07	13:43:46	13:50:25	397685	630345dd92f26599c777a5fc	800580031	1	main_slash	7	advance_on_keypress_SLASH	92	stimuli_distractor_diamondtriangles.svg	stimuli_target_squarediamonds.svg	16	yes	57	0	832
6.6.1	win	2022-11-07	13:43:46	13:50:27	399597	630345dd92f26599c777a5fc	800580031	1	main_slash	7	main_slash	93	stimuli_distractor_trianglediamonds.svg	stimuli_target_squarediamonds.svg	12	yes	53	1	438
6.6.1	win	2022-11-07	13:43:46	13:50:27	399597	630345dd92f26599c777a5fc	800580031	1	main_slash	7	advance_on_keypress_SLASH	94	stimuli_distractor_trianglediamonds.svg	stimuli_target_squarediamonds.svg	12	yes	57	0	828
6.6.1	win	2022-11-07	13:43:46	13:50:29	401525	630345dd92f26599c777a5fc	800580031	1	main_slash	7	main_slash	95	stimuli_target_circlediamonds.svg	stimuli_distractor_trianglediamonds.svg	2	yes	53	1	466
6.6.1	win	2022-11-07	13:43:46	13:50:29	401525	630345dd92f26599c777a5fc	800580031	1	main_slash	7	advance_on_keypress_SLASH	96	stimuli_target_circlediamonds.svg	stimuli_distractor_trianglediamonds.svg	2	yes	57	0	878
6.6.1	win	2022-11-07	13:43:46	13:50:31	403426	630345dd92f26599c777a5fc	800580031	1	main_slash	7	main_slash	97	stimuli_distractor_diamondtriangles.svg	stimuli_target_squaretriangles.svg	15	yes	53	1	370
6.6.1	win	2022-11-07	13:43:46	13:50:31	403426	630345dd92f26599c777a5fc	800580031	1	main_slash	7	advance_on_keypress_SLASH	98	stimuli_distractor_diamondtriangles.svg	stimuli_target_squaretriangles.svg	15	yes	57	0	930
6.6.1	win	2022-11-07	13:43:46	13:50:33	405421	630345dd92f26599c777a5fc	800580031	1	main_slash	7	main_slash	99	stimuli_distractor_diamondtriangles.svg	stimuli_target_trianglesquares.svg	30	yes	53	1	428
6.6.1	win	2022-11-07	13:43:46	13:50:33	405421	630345dd92f26599c777a5fc	800580031	1	main_slash	7	advance_on_keypress_SLASH	100	stimuli_distractor_diamondtriangles.svg	stimuli_target_trianglesquares.svg	30	yes	57	0	875
6.6.1	win	2022-11-07	13:43:46	13:50:35	407317	630345dd92f26599c777a5fc	800580031	1	main_slash	7	main_slash	101	stimuli_distractor_trianglediamonds.svg	stimuli_target_trianglecircles.svg	25	yes	53	1	391
6.6.1	win	2022-11-07	13:43:46	13:50:35	407317	630345dd92f26599c777a5fc	800580031	1	main_slash	7	advance_on_keypress_SLASH	102	stimuli_distractor_trianglediamonds.svg	stimuli_target_trianglecircles.svg	25	yes	57	0	943
6.6.1	win	2022-11-07	13:43:46	13:50:37	409325	630345dd92f26599c777a5fc	800580031	1	main_slash	7	main_slash	103	stimuli_target_squaretriangles.svg	stimuli_distractor_trianglediamonds.svg	3	yes	53	1	432
6.6.1	win	2022-11-07	13:43:46	13:50:37	409325	630345dd92f26599c777a5fc	800580031	1	main_slash	7	advance_on_keypress_SLASH	104	stimuli_target_squaretriangles.svg	stimuli_distractor_trianglediamonds.svg	3	yes	57	0	902
6.6.1	win	2022-11-07	13:43:46	13:50:41	412876	630345dd92f26599c777a5fc	800580031	1	main_slash	7	main_slash	105	stimuli_distractor_diamondtriangles.svg	stimuli_distractor_diamondtriangles.svg	40	no	0	1	2000
6.6.1	win	2022-11-07	13:43:46	13:50:41	412876	630345dd92f26599c777a5fc	800580031	1	main_slash	7	advance_on_keypress_SLASH	106	stimuli_distractor_diamondtriangles.svg	stimuli_distractor_diamondtriangles.svg	40	no	57	0	944
6.6.1	win	2022-11-07	13:43:46	13:50:43	414842	630345dd92f26599c777a5fc	800580031	1	main_slash	7	main_slash	107	stimuli_distractor_trianglediamonds.svg	stimuli_target_circlediamonds.svg	10	yes	53	1	370
6.6.1	win	2022-11-07	13:43:46	13:50:43	414842	630345dd92f26599c777a5fc	800580031	1	main_slash	7	advance_on_keypress_SLASH	108	stimuli_distractor_trianglediamonds.svg	stimuli_target_circlediamonds.svg	10	yes	57	0	826
6.6.1	win	2022-11-07	13:43:46	13:50:46	418309	630345dd92f26599c777a5fc	800580031	1	main_slash	7	main_slash	109	stimuli_distractor_trianglediamonds.svg	stimuli_distractor_trianglediamonds.svg	33	no	0	1	2000
6.6.1	win	2022-11-07	13:43:46	13:50:46	418309	630345dd92f26599c777a5fc	800580031	1	main_slash	7	advance_on_keypress_SLASH	110	stimuli_distractor_trianglediamonds.svg	stimuli_distractor_trianglediamonds.svg	33	no	57	0	767
6.6.1	win	2022-11-07	13:43:46	13:50:48	420301	630345dd92f26599c777a5fc	800580031	1	main_slash	7	main_slash	111	stimuli_target_diamondsquares.svg	stimuli_distractor_diamondtriangles.svg	24	yes	53	1	575
6.6.1	win	2022-11-07	13:43:46	13:50:48	420301	630345dd92f26599c777a5fc	800580031	1	main_slash	7	advance_on_keypress_SLASH	112	stimuli_target_diamondsquares.svg	stimuli_distractor_diamondtriangles.svg	24	yes	57	0	712
6.6.1	win	2022-11-07	13:43:46	13:50:50	422159	630345dd92f26599c777a5fc	800580031	1	main_slash	7	main_slash	113	stimuli_distractor_diamondtriangles.svg	stimuli_target_diamondsquares.svg	32	yes	53	1	505
6.6.1	win	2022-11-07	13:43:46	13:50:50	422159	630345dd92f26599c777a5fc	800580031	1	main_slash	7	advance_on_keypress_SLASH	114	stimuli_distractor_diamondtriangles.svg	stimuli_target_diamondsquares.svg	32	yes	57	0	756
6.6.1	win	2022-11-07	13:43:46	13:50:53	425559	630345dd92f26599c777a5fc	800580031	1	main_slash	7	main_slash	115	stimuli_distractor_diamondtriangles.svg	stimuli_distractor_trianglediamonds.svg	38	no	0	1	2000
6.6.1	win	2022-11-07	13:43:46	13:50:53	425559	630345dd92f26599c777a5fc	800580031	1	main_slash	7	advance_on_keypress_SLASH	116	stimuli_distractor_diamondtriangles.svg	stimuli_distractor_trianglediamonds.svg	38	no	57	0	484
6.6.1	win	2022-11-07	13:43:46	13:50:56	428693	630345dd92f26599c777a5fc	800580031	1	main_slash	7	main_slash	117	stimuli_distractor_diamondtriangles.svg	stimuli_distractor_trianglediamonds.svg	37	no	0	1	2000
6.6.1	win	2022-11-07	13:43:46	13:50:56	428693	630345dd92f26599c777a5fc	800580031	1	main_slash	7	advance_on_keypress_SLASH	118	stimuli_distractor_diamondtriangles.svg	stimuli_distractor_trianglediamonds.svg	37	no	57	0	495
6.6.1	win	2022-11-07	13:43:46	13:50:58	430276	630345dd92f26599c777a5fc	800580031	1	main_slash	7	main_slash	119	stimuli_distractor_trianglediamonds.svg	stimuli_target_squaretriangles.svg	11	yes	53	1	450
6.6.1	win	2022-11-07	13:43:46	13:50:58	430276	630345dd92f26599c777a5fc	800580031	1	main_slash	7	advance_on_keypress_SLASH	120	stimuli_distractor_trianglediamonds.svg	stimuli_target_squaretriangles.svg	11	yes	57	0	632
6.6.1	win	2022-11-07	13:43:46	13:51:01	433559	630345dd92f26599c777a5fc	800580031	1	main_slash	7	main_slash	121	stimuli_distractor_trianglediamonds.svg	stimuli_distractor_diamondtriangles.svg	36	no	0	1	2000
6.6.1	win	2022-11-07	13:43:46	13:51:01	433559	630345dd92f26599c777a5fc	800580031	1	main_slash	7	advance_on_keypress_SLASH	122	stimuli_distractor_trianglediamonds.svg	stimuli_distractor_diamondtriangles.svg	36	no	57	0	788
6.6.1	win	2022-11-07	13:43:46	13:51:03	435356	630345dd92f26599c777a5fc	800580031	1	main_slash	7	main_slash	123	stimuli_distractor_diamondtriangles.svg	stimuli_target_circletriangles.svg	13	yes	53	1	364
6.6.1	win	2022-11-07	13:43:46	13:51:03	435356	630345dd92f26599c777a5fc	800580031	1	main_slash	7	advance_on_keypress_SLASH	124	stimuli_distractor_diamondtriangles.svg	stimuli_target_circletriangles.svg	13	yes	57	0	917
6.6.1	win	2022-11-07	13:43:46	13:51:05	437308	630345dd92f26599c777a5fc	800580031	1	main_slash	7	main_slash	125	stimuli_target_circlediamonds.svg	stimuli_distractor_diamondtriangles.svg	6	yes	53	1	399
6.6.1	win	2022-11-07	13:43:46	13:51:05	437308	630345dd92f26599c777a5fc	800580031	1	main_slash	7	advance_on_keypress_SLASH	126	stimuli_target_circlediamonds.svg	stimuli_distractor_diamondtriangles.svg	6	yes	57	0	894
6.6.1	win	2022-11-07	13:43:46	13:51:07	439292	630345dd92f26599c777a5fc	800580031	1	main_slash	7	main_slash	127	stimuli_distractor_diamondtriangles.svg	stimuli_target_trianglecircles.svg	29	yes	53	1	450
6.6.1	win	2022-11-07	13:43:46	13:51:07	439292	630345dd92f26599c777a5fc	800580031	1	main_slash	7	advance_on_keypress_SLASH	128	stimuli_distractor_diamondtriangles.svg	stimuli_target_trianglecircles.svg	29	yes	57	0	879
6.6.1	win	2022-11-07	13:43:46	13:51:09	441260	630345dd92f26599c777a5fc	800580031	1	main_slash	7	main_slash	129	stimuli_target_squarediamonds.svg	stimuli_distractor_trianglediamonds.svg	4	yes	53	1	451
6.6.1	win	2022-11-07	13:43:46	13:51:09	441260	630345dd92f26599c777a5fc	800580031	1	main_slash	7	advance_on_keypress_SLASH	130	stimuli_target_squarediamonds.svg	stimuli_distractor_trianglediamonds.svg	4	yes	57	0	752
6.6.1	win	2022-11-07	13:43:46	13:51:11	443060	630345dd92f26599c777a5fc	800580031	1	main_slash	7	main_slash	131	stimuli_target_squarediamonds.svg	stimuli_distractor_diamondtriangles.svg	8	yes	53	1	401
6.6.1	win	2022-11-07	13:43:46	13:51:11	443060	630345dd92f26599c777a5fc	800580031	1	main_slash	7	advance_on_keypress_SLASH	132	stimuli_target_squarediamonds.svg	stimuli_distractor_diamondtriangles.svg	8	yes	57	0	1016
6.6.1	win	2022-11-07	13:43:46	13:51:13	445332	630345dd92f26599c777a5fc	800580031	1	main_slash	7	main_slash	133	stimuli_target_diamondsquares.svg	stimuli_distractor_trianglediamonds.svg	20	yes	53	1	606
6.6.1	win	2022-11-07	13:43:46	13:51:13	445332	630345dd92f26599c777a5fc	800580031	1	main_slash	7	advance_on_keypress_SLASH	134	stimuli_target_diamondsquares.svg	stimuli_distractor_trianglediamonds.svg	20	yes	57	0	894
6.6.1	win	2022-11-07	13:43:46	13:51:15	447516	630345dd92f26599c777a5fc	800580031	1	main_slash	7	main_slash	135	stimuli_target_trianglesquares.svg	stimuli_distractor_diamondtriangles.svg	22	yes	53	1	657
6.6.1	win	2022-11-07	13:43:46	13:51:15	447516	630345dd92f26599c777a5fc	800580031	1	main_slash	7	advance_on_keypress_SLASH	136	stimuli_target_trianglesquares.svg	stimuli_distractor_diamondtriangles.svg	22	yes	57	0	870
6.6.1	win	2022-11-07	13:43:46	13:51:19	451026	630345dd92f26599c777a5fc	800580031	1	main_slash	7	main_slash	137	stimuli_distractor_trianglediamonds.svg	stimuli_distractor_diamondtriangles.svg	35	no	0	1	2000
6.6.1	win	2022-11-07	13:43:46	13:51:19	451026	630345dd92f26599c777a5fc	800580031	1	main_slash	7	advance_on_keypress_SLASH	138	stimuli_distractor_trianglediamonds.svg	stimuli_distractor_diamondtriangles.svg	35	no	57	0	674
6.6.1	win	2022-11-07	13:43:46	13:51:22	454342	630345dd92f26599c777a5fc	800580031	1	main_slash	7	main_slash	139	stimuli_distractor_diamondtriangles.svg	stimuli_distractor_diamondtriangles.svg	39	no	0	1	2000
6.6.1	win	2022-11-07	13:43:46	13:51:22	454342	630345dd92f26599c777a5fc	800580031	1	main_slash	7	advance_on_keypress_SLASH	140	stimuli_distractor_diamondtriangles.svg	stimuli_distractor_diamondtriangles.svg	39	no	57	0	1093
6.6.1	win	2022-11-07	13:43:46	13:51:24	456484	630345dd92f26599c777a5fc	800580031	1	main_slash	7	main_slash	141	stimuli_target_trianglecircles.svg	stimuli_distractor_trianglediamonds.svg	17	yes	53	1	409
6.6.1	win	2022-11-07	13:43:46	13:51:24	456484	630345dd92f26599c777a5fc	800580031	1	main_slash	7	advance_on_keypress_SLASH	142	stimuli_target_trianglecircles.svg	stimuli_distractor_trianglediamonds.svg	17	yes	57	0	1120
6.6.1	win	2022-11-07	13:43:46	13:51:26	458628	630345dd92f26599c777a5fc	800580031	1	main_slash	7	main_slash	143	stimuli_target_squaretriangles.svg	stimuli_distractor_diamondtriangles.svg	7	yes	53	1	386
6.6.1	win	2022-11-07	13:43:46	13:51:26	458628	630345dd92f26599c777a5fc	800580031	1	main_slash	7	advance_on_keypress_SLASH	144	stimuli_target_squaretriangles.svg	stimuli_distractor_diamondtriangles.svg	7	yes	57	0	746
6.6.1	win	2022-11-07	13:43:46	13:51:28	460596	630345dd92f26599c777a5fc	800580031	1	main_slash	7	main_slash	145	stimuli_distractor_trianglediamonds.svg	stimuli_target_circletriangles.svg	9	yes	53	1	587
6.6.1	win	2022-11-07	13:43:46	13:51:28	460596	630345dd92f26599c777a5fc	800580031	1	main_slash	7	advance_on_keypress_SLASH	146	stimuli_distractor_trianglediamonds.svg	stimuli_target_circletriangles.svg	9	yes	57	0	803
6.6.1	win	2022-11-07	13:43:46	13:51:30	462404	630345dd92f26599c777a5fc	800580031	1	main_slash	7	main_slash	147	stimuli_distractor_diamondtriangles.svg	stimuli_target_circlediamonds.svg	14	yes	53	1	362
6.6.1	win	2022-11-07	13:43:46	13:51:30	462404	630345dd92f26599c777a5fc	800580031	1	main_slash	7	advance_on_keypress_SLASH	148	stimuli_distractor_diamondtriangles.svg	stimuli_target_circlediamonds.svg	14	yes	57	0	835
6.6.1	win	2022-11-07	13:43:46	13:51:32	464548	630345dd92f26599c777a5fc	800580031	1	main_slash	7	main_slash	149	stimuli_target_diamondcircles.svg	stimuli_distractor_diamondtriangles.svg	23	yes	53	1	673
6.6.1	win	2022-11-07	13:43:46	13:51:32	464548	630345dd92f26599c777a5fc	800580031	1	main_slash	7	advance_on_keypress_SLASH	150	stimuli_target_diamondcircles.svg	stimuli_distractor_diamondtriangles.svg	23	yes	57	0	868
6.6.1	win	2022-11-07	13:43:46	13:51:34	466515	630345dd92f26599c777a5fc	800580031	1	main_slash	7	main_slash	151	stimuli_target_circletriangles.svg	stimuli_distractor_diamondtriangles.svg	5	yes	53	1	456
6.6.1	win	2022-11-07	13:43:46	13:51:34	466515	630345dd92f26599c777a5fc	800580031	1	main_slash	7	advance_on_keypress_SLASH	152	stimuli_target_circletriangles.svg	stimuli_distractor_diamondtriangles.svg	5	yes	57	0	750
6.6.1	win	2022-11-07	13:43:46	13:51:36	468425	630345dd92f26599c777a5fc	800580031	1	main_slash	7	main_slash	153	stimuli_distractor_trianglediamonds.svg	stimuli_target_diamondcircles.svg	27	yes	53	1	502
6.6.1	win	2022-11-07	13:43:46	13:51:36	468425	630345dd92f26599c777a5fc	800580031	1	main_slash	7	advance_on_keypress_SLASH	154	stimuli_distractor_trianglediamonds.svg	stimuli_target_diamondcircles.svg	27	yes	57	0	785
6.6.1	win	2022-11-07	13:43:46	13:51:38	470275	630345dd92f26599c777a5fc	800580031	1	main_slash	7	main_slash	155	stimuli_target_circletriangles.svg	stimuli_distractor_trianglediamonds.svg	1	yes	53	1	416
6.6.1	win	2022-11-07	13:43:46	13:51:38	470275	630345dd92f26599c777a5fc	800580031	1	main_slash	7	advance_on_keypress_SLASH	156	stimuli_target_circletriangles.svg	stimuli_distractor_trianglediamonds.svg	1	yes	57	0	807
6.6.1	win	2022-11-07	13:43:46	13:51:40	472323	630345dd92f26599c777a5fc	800580031	1	main_slash	7	main_slash	157	stimuli_target_trianglesquares.svg	stimuli_distractor_trianglediamonds.svg	18	yes	53	1	598
6.6.1	win	2022-11-07	13:43:46	13:51:40	472323	630345dd92f26599c777a5fc	800580031	1	main_slash	7	advance_on_keypress_SLASH	158	stimuli_target_trianglesquares.svg	stimuli_distractor_trianglediamonds.svg	18	yes	57	0	862
6.6.1	win	2022-11-07	13:43:46	13:51:42	474251	630345dd92f26599c777a5fc	800580031	1	main_slash	7	main_slash	159	stimuli_distractor_trianglediamonds.svg	stimuli_target_diamondsquares.svg	28	yes	53	1	442
6.6.1	win	2022-11-07	13:43:46	13:51:42	474251	630345dd92f26599c777a5fc	800580031	1	main_slash	7	advance_on_keypress_SLASH	160	stimuli_distractor_trianglediamonds.svg	stimuli_target_diamondsquares.svg	28	yes	57	0	896
6.6.1	win	2022-11-07	13:43:46	13:52:16	507883	630345dd92f26599c777a5fc	800580031	1	practice_z	9	practice_z	1	stimuli_target_diamondsquares.svg	stimuli_distractor_diamondtriangles.svg	3	yes	44	1	558
6.6.1	win	2022-11-07	13:43:46	13:52:16	507883	630345dd92f26599c777a5fc	800580031	1	practice_z	9	advance_on_keypress_ZEE	2	stimuli_target_diamondsquares.svg	stimuli_distractor_diamondtriangles.svg	3	yes	57	0	712
6.6.1	win	2022-11-07	13:43:46	13:52:18	510635	630345dd92f26599c777a5fc	800580031	1	practice_z	9	practice_z	3	stimuli_distractor_diamondtriangles.svg	stimuli_distractor_trianglediamonds.svg	14	no	44	0	409
6.6.1	win	2022-11-07	13:43:46	13:52:18	510635	630345dd92f26599c777a5fc	800580031	1	practice_z	9	advance_on_keypress_ZEE	4	stimuli_distractor_diamondtriangles.svg	stimuli_distractor_trianglediamonds.svg	14	no	57	0	473
6.6.1	win	2022-11-07	13:43:46	13:52:21	513099	630345dd92f26599c777a5fc	800580031	1	practice_z	9	practice_z	5	stimuli_target_squarediamonds.svg	stimuli_distractor_trianglediamonds.svg	5	yes	44	1	357
6.6.1	win	2022-11-07	13:43:46	13:52:21	513099	630345dd92f26599c777a5fc	800580031	1	practice_z	9	advance_on_keypress_ZEE	6	stimuli_target_squarediamonds.svg	stimuli_distractor_trianglediamonds.svg	5	yes	57	0	534
6.6.1	win	2022-11-07	13:43:46	13:52:25	517275	630345dd92f26599c777a5fc	800580031	1	practice_z	9	practice_z	7	stimuli_distractor_diamondtriangles.svg	stimuli_distractor_diamondtriangles.svg	13	no	0	1	2000
6.6.1	win	2022-11-07	13:43:46	13:52:25	517275	630345dd92f26599c777a5fc	800580031	1	practice_z	9	advance_on_keypress_ZEE	8	stimuli_distractor_diamondtriangles.svg	stimuli_distractor_diamondtriangles.svg	13	no	57	0	679
6.6.1	win	2022-11-07	13:43:46	13:52:28	520139	630345dd92f26599c777a5fc	800580031	1	practice_z	9	practice_z	9	stimuli_distractor_diamondtriangles.svg	stimuli_target_diamondcircles.svg	8	yes	44	1	547
6.6.1	win	2022-11-07	13:43:46	13:52:28	520139	630345dd92f26599c777a5fc	800580031	1	practice_z	9	advance_on_keypress_ZEE	10	stimuli_distractor_diamondtriangles.svg	stimuli_target_diamondcircles.svg	8	yes	57	0	613
6.6.1	win	2022-11-07	13:43:46	13:52:31	522786	630345dd92f26599c777a5fc	800580031	1	practice_z	9	practice_z	11	stimuli_target_circlediamonds.svg	stimuli_distractor_diamondtriangles.svg	1	yes	44	1	411
6.6.1	win	2022-11-07	13:43:46	13:52:31	522786	630345dd92f26599c777a5fc	800580031	1	practice_z	9	advance_on_keypress_ZEE	12	stimuli_target_circlediamonds.svg	stimuli_distractor_diamondtriangles.svg	1	yes	57	0	539
6.6.1	win	2022-11-07	13:43:46	13:52:33	525346	630345dd92f26599c777a5fc	800580031	1	practice_z	9	practice_z	13	stimuli_distractor_trianglediamonds.svg	stimuli_target_squarediamonds.svg	11	yes	44	1	388
6.6.1	win	2022-11-07	13:43:46	13:52:33	525346	630345dd92f26599c777a5fc	800580031	1	practice_z	9	advance_on_keypress_ZEE	14	stimuli_distractor_trianglediamonds.svg	stimuli_target_squarediamonds.svg	11	yes	57	0	396
6.6.1	win	2022-11-07	13:43:46	13:52:36	527963	630345dd92f26599c777a5fc	800580031	1	practice_z	9	practice_z	15	stimuli_target_diamondsquares.svg	stimuli_distractor_trianglediamonds.svg	6	yes	44	1	587
6.6.1	win	2022-11-07	13:43:46	13:52:36	527963	630345dd92f26599c777a5fc	800580031	1	practice_z	9	advance_on_keypress_ZEE	16	stimuli_target_diamondsquares.svg	stimuli_distractor_trianglediamonds.svg	6	yes	57	0	1387
6.6.1	win	2022-11-07	13:43:46	13:52:41	532991	630345dd92f26599c777a5fc	800580031	1	practice_z	9	practice_z	17	stimuli_distractor_trianglediamonds.svg	stimuli_distractor_diamondtriangles.svg	16	no	0	1	2000
6.6.1	win	2022-11-07	13:43:46	13:52:41	532991	630345dd92f26599c777a5fc	800580031	1	practice_z	9	advance_on_keypress_ZEE	18	stimuli_distractor_trianglediamonds.svg	stimuli_distractor_diamondtriangles.svg	16	no	57	0	626
6.6.1	win	2022-11-07	13:43:46	13:52:43	535642	630345dd92f26599c777a5fc	800580031	1	practice_z	9	practice_z	19	stimuli_distractor_trianglediamonds.svg	stimuli_target_circlediamonds.svg	10	yes	44	1	384
6.6.1	win	2022-11-07	13:43:46	13:52:43	535642	630345dd92f26599c777a5fc	800580031	1	practice_z	9	advance_on_keypress_ZEE	20	stimuli_distractor_trianglediamonds.svg	stimuli_target_circlediamonds.svg	10	yes	57	0	464
6.6.1	win	2022-11-07	13:43:46	13:52:46	538138	630345dd92f26599c777a5fc	800580031	1	practice_z	9	practice_z	21	stimuli_distractor_diamondtriangles.svg	stimuli_target_circletriangles.svg	7	yes	44	1	397
6.6.1	win	2022-11-07	13:43:46	13:52:46	538138	630345dd92f26599c777a5fc	800580031	1	practice_z	9	advance_on_keypress_ZEE	22	stimuli_distractor_diamondtriangles.svg	stimuli_target_circletriangles.svg	7	yes	57	0	437
6.6.1	win	2022-11-07	13:43:46	13:52:48	540650	630345dd92f26599c777a5fc	800580031	1	practice_z	9	practice_z	23	stimuli_target_circlediamonds.svg	stimuli_distractor_trianglediamonds.svg	4	yes	44	1	442
6.6.1	win	2022-11-07	13:43:46	13:52:48	540650	630345dd92f26599c777a5fc	800580031	1	practice_z	9	advance_on_keypress_ZEE	24	stimuli_target_circlediamonds.svg	stimuli_distractor_trianglediamonds.svg	4	yes	57	0	416
6.6.1	win	2022-11-07	13:43:46	13:52:51	543146	630345dd92f26599c777a5fc	800580031	1	practice_z	9	practice_z	25	stimuli_distractor_diamondtriangles.svg	stimuli_target_trianglecircles.svg	9	yes	44	1	438
6.6.1	win	2022-11-07	13:43:46	13:52:51	543146	630345dd92f26599c777a5fc	800580031	1	practice_z	9	advance_on_keypress_ZEE	26	stimuli_distractor_diamondtriangles.svg	stimuli_target_trianglecircles.svg	9	yes	57	0	468
6.6.1	win	2022-11-07	13:43:46	13:52:53	545698	630345dd92f26599c777a5fc	800580031	1	practice_z	9	practice_z	27	stimuli_distractor_trianglediamonds.svg	stimuli_target_diamondcircles.svg	12	yes	44	1	440
6.6.1	win	2022-11-07	13:43:46	13:52:53	545698	630345dd92f26599c777a5fc	800580031	1	practice_z	9	advance_on_keypress_ZEE	28	stimuli_distractor_trianglediamonds.svg	stimuli_target_diamondcircles.svg	12	yes	57	0	470
6.6.1	win	2022-11-07	13:43:46	13:52:58	549808	630345dd92f26599c777a5fc	800580031	1	practice_z	9	practice_z	29	stimuli_distractor_trianglediamonds.svg	stimuli_distractor_trianglediamonds.svg	15	no	0	1	2000
6.6.1	win	2022-11-07	13:43:46	13:52:58	549808	630345dd92f26599c777a5fc	800580031	1	practice_z	9	advance_on_keypress_ZEE	30	stimuli_distractor_trianglediamonds.svg	stimuli_distractor_trianglediamonds.svg	15	no	57	0	506
6.6.1	win	2022-11-07	13:43:46	13:53:00	552370	630345dd92f26599c777a5fc	800580031	1	practice_z	9	practice_z	31	stimuli_target_squarediamonds.svg	stimuli_distractor_diamondtriangles.svg	2	yes	44	1	411
6.6.1	win	2022-11-07	13:43:46	13:53:00	552370	630345dd92f26599c777a5fc	800580031	1	practice_z	9	advance_on_keypress_ZEE	32	stimuli_target_squarediamonds.svg	stimuli_distractor_diamondtriangles.svg	2	yes	57	0	667
6.6.1	win	2022-11-07	13:43:46	13:53:06	557993	630345dd92f26599c777a5fc	800580031	1	main_z	11	main_z	1	stimuli_distractor_trianglediamonds.svg	stimuli_target_squaretriangles.svg	11	yes	44	1	352
6.6.1	win	2022-11-07	13:43:46	13:53:06	557993	630345dd92f26599c777a5fc	800580031	1	main_z	11	advance_on_keypress_ZEE	2	stimuli_distractor_trianglediamonds.svg	stimuli_target_squaretriangles.svg	11	yes	57	0	825
6.6.1	win	2022-11-07	13:43:46	13:53:08	559889	630345dd92f26599c777a5fc	800580031	1	main_z	11	main_z	3	stimuli_target_circletriangles.svg	stimuli_distractor_trianglediamonds.svg	1	yes	44	1	431
6.6.1	win	2022-11-07	13:43:46	13:53:08	559889	630345dd92f26599c777a5fc	800580031	1	main_z	11	advance_on_keypress_ZEE	4	stimuli_target_circletriangles.svg	stimuli_distractor_trianglediamonds.svg	1	yes	57	0	870
6.6.1	win	2022-11-07	13:43:46	13:53:10	561817	630345dd92f26599c777a5fc	800580031	1	main_z	11	main_z	5	stimuli_distractor_diamondtriangles.svg	stimuli_target_circlediamonds.svg	14	yes	44	1	426
6.6.1	win	2022-11-07	13:43:46	13:53:10	561817	630345dd92f26599c777a5fc	800580031	1	main_z	11	advance_on_keypress_ZEE	6	stimuli_distractor_diamondtriangles.svg	stimuli_target_circlediamonds.svg	14	yes	57	0	833
6.6.1	win	2022-11-07	13:43:46	13:53:13	565291	630345dd92f26599c777a5fc	800580031	1	main_z	11	main_z	7	stimuli_distractor_diamondtriangles.svg	stimuli_distractor_diamondtriangles.svg	39	no	0	1	2000
6.6.1	win	2022-11-07	13:43:46	13:53:13	565291	630345dd92f26599c777a5fc	800580031	1	main_z	11	advance_on_keypress_ZEE	8	stimuli_distractor_diamondtriangles.svg	stimuli_distractor_diamondtriangles.svg	39	no	57	0	750
6.6.1	win	2022-11-07	13:43:46	13:53:15	567185	630345dd92f26599c777a5fc	800580031	1	main_z	11	main_z	9	stimuli_distractor_trianglediamonds.svg	stimuli_distractor_diamondtriangles.svg	35	no	44	0	494
6.6.1	win	2022-11-07	13:43:46	13:53:15	567185	630345dd92f26599c777a5fc	800580031	1	main_z	11	advance_on_keypress_ZEE	10	stimuli_distractor_trianglediamonds.svg	stimuli_distractor_diamondtriangles.svg	35	no	57	0	1594
6.6.1	win	2022-11-07	13:43:46	13:53:18	569889	630345dd92f26599c777a5fc	800580031	1	main_z	11	main_z	11	stimuli_distractor_trianglediamonds.svg	stimuli_distractor_trianglediamonds.svg	34	no	44	0	482
6.6.1	win	2022-11-07	13:43:46	13:53:18	569889	630345dd92f26599c777a5fc	800580031	1	main_z	11	advance_on_keypress_ZEE	12	stimuli_distractor_trianglediamonds.svg	stimuli_distractor_trianglediamonds.svg	34	no	57	0	782
6.6.1	win	2022-11-07	13:43:46	13:53:20	571769	630345dd92f26599c777a5fc	800580031	1	main_z	11	main_z	13	stimuli_distractor_diamondtriangles.svg	stimuli_target_trianglecircles.svg	29	yes	44	1	462
6.6.1	win	2022-11-07	13:43:46	13:53:20	571769	630345dd92f26599c777a5fc	800580031	1	main_z	11	advance_on_keypress_ZEE	14	stimuli_distractor_diamondtriangles.svg	stimuli_target_trianglecircles.svg	29	yes	57	0	1243
6.6.1	win	2022-11-07	13:43:46	13:53:23	575641	630345dd92f26599c777a5fc	800580031	1	main_z	11	main_z	15	stimuli_distractor_trianglediamonds.svg	stimuli_distractor_trianglediamonds.svg	33	no	0	1	2000
6.6.1	win	2022-11-07	13:43:46	13:53:23	575641	630345dd92f26599c777a5fc	800580031	1	main_z	11	advance_on_keypress_ZEE	16	stimuli_distractor_trianglediamonds.svg	stimuli_distractor_trianglediamonds.svg	33	no	57	0	600
6.6.1	win	2022-11-07	13:43:46	13:53:25	577297	630345dd92f26599c777a5fc	800580031	1	main_z	11	main_z	17	stimuli_distractor_trianglediamonds.svg	stimuli_target_circlediamonds.svg	10	yes	44	1	406
6.6.1	win	2022-11-07	13:43:46	13:53:25	577297	630345dd92f26599c777a5fc	800580031	1	main_z	11	advance_on_keypress_ZEE	18	stimuli_distractor_trianglediamonds.svg	stimuli_target_circlediamonds.svg	10	yes	57	0	878
6.6.1	win	2022-11-07	13:43:46	13:53:27	579385	630345dd92f26599c777a5fc	800580031	1	main_z	11	main_z	19	stimuli_target_trianglecircles.svg	stimuli_distractor_trianglediamonds.svg	17	yes	44	1	578
6.6.1	win	2022-11-07	13:43:46	13:53:27	579385	630345dd92f26599c777a5fc	800580031	1	main_z	11	advance_on_keypress_ZEE	20	stimuli_target_trianglecircles.svg	stimuli_distractor_trianglediamonds.svg	17	yes	57	0	802
6.6.1	win	2022-11-07	13:43:46	13:53:29	581265	630345dd92f26599c777a5fc	800580031	1	main_z	11	main_z	21	stimuli_target_trianglesquares.svg	stimuli_distractor_diamondtriangles.svg	22	yes	44	1	441
6.6.1	win	2022-11-07	13:43:46	13:53:29	581265	630345dd92f26599c777a5fc	800580031	1	main_z	11	advance_on_keypress_ZEE	22	stimuli_target_trianglesquares.svg	stimuli_distractor_diamondtriangles.svg	22	yes	57	0	767
6.6.1	win	2022-11-07	13:43:46	13:53:31	583145	630345dd92f26599c777a5fc	800580031	1	main_z	11	main_z	23	stimuli_distractor_diamondtriangles.svg	stimuli_target_diamondcircles.svg	31	yes	44	1	471
6.6.1	win	2022-11-07	13:43:46	13:53:31	583145	630345dd92f26599c777a5fc	800580031	1	main_z	11	advance_on_keypress_ZEE	24	stimuli_distractor_diamondtriangles.svg	stimuli_target_diamondcircles.svg	31	yes	57	0	716
6.6.1	win	2022-11-07	13:43:46	13:53:33	584897	630345dd92f26599c777a5fc	800580031	1	main_z	11	main_z	25	stimuli_distractor_trianglediamonds.svg	stimuli_target_diamondcircles.svg	27	yes	44	1	390
6.6.1	win	2022-11-07	13:43:46	13:53:33	584897	630345dd92f26599c777a5fc	800580031	1	main_z	11	advance_on_keypress_ZEE	26	stimuli_distractor_trianglediamonds.svg	stimuli_target_diamondcircles.svg	27	yes	57	0	734
6.6.1	win	2022-11-07	13:43:46	13:53:34	586705	630345dd92f26599c777a5fc	800580031	1	main_z	11	main_z	27	stimuli_target_circlediamonds.svg	stimuli_distractor_diamondtriangles.svg	6	yes	44	1	431
6.6.1	win	2022-11-07	13:43:46	13:53:34	586705	630345dd92f26599c777a5fc	800580031	1	main_z	11	advance_on_keypress_ZEE	28	stimuli_target_circlediamonds.svg	stimuli_distractor_diamondtriangles.svg	6	yes	57	0	758
6.6.1	win	2022-11-07	13:43:46	13:53:36	588489	630345dd92f26599c777a5fc	800580031	1	main_z	11	main_z	29	stimuli_target_squarediamonds.svg	stimuli_distractor_trianglediamonds.svg	4	yes	44	1	399
6.6.1	win	2022-11-07	13:43:46	13:53:36	588489	630345dd92f26599c777a5fc	800580031	1	main_z	11	advance_on_keypress_ZEE	30	stimuli_target_squarediamonds.svg	stimuli_distractor_trianglediamonds.svg	4	yes	57	0	831
6.6.1	win	2022-11-07	13:43:46	13:53:40	591941	630345dd92f26599c777a5fc	800580031	1	main_z	11	main_z	31	stimuli_distractor_diamondtriangles.svg	stimuli_distractor_trianglediamonds.svg	37	no	0	1	2000
6.6.1	win	2022-11-07	13:43:46	13:53:40	591941	630345dd92f26599c777a5fc	800580031	1	main_z	11	advance_on_keypress_ZEE	32	stimuli_distractor_diamondtriangles.svg	stimuli_distractor_trianglediamonds.svg	37	no	57	0	388
6.6.1	win	2022-11-07	13:43:46	13:53:41	593577	630345dd92f26599c777a5fc	800580031	1	main_z	11	main_z	33	stimuli_target_trianglesquares.svg	stimuli_distractor_trianglediamonds.svg	18	yes	44	1	603
6.6.1	win	2022-11-07	13:43:46	13:53:41	593577	630345dd92f26599c777a5fc	800580031	1	main_z	11	advance_on_keypress_ZEE	34	stimuli_target_trianglesquares.svg	stimuli_distractor_trianglediamonds.svg	18	yes	57	0	763
6.6.1	win	2022-11-07	13:43:46	13:53:45	596974	630345dd92f26599c777a5fc	800580031	1	main_z	11	main_z	35	stimuli_distractor_diamondtriangles.svg	stimuli_distractor_trianglediamonds.svg	38	no	0	1	2000
6.6.1	win	2022-11-07	13:43:46	13:53:45	596974	630345dd92f26599c777a5fc	800580031	1	main_z	11	advance_on_keypress_ZEE	36	stimuli_distractor_diamondtriangles.svg	stimuli_distractor_trianglediamonds.svg	38	no	57	0	418
6.6.1	win	2022-11-07	13:43:46	13:53:46	598440	630345dd92f26599c777a5fc	800580031	1	main_z	11	main_z	37	stimuli_distractor_trianglediamonds.svg	stimuli_target_trianglesquares.svg	26	yes	44	1	400
6.6.1	win	2022-11-07	13:43:46	13:53:46	598440	630345dd92f26599c777a5fc	800580031	1	main_z	11	advance_on_keypress_ZEE	38	stimuli_distractor_trianglediamonds.svg	stimuli_target_trianglesquares.svg	26	yes	57	0	823
6.6.1	win	2022-11-07	13:43:46	13:53:48	600384	630345dd92f26599c777a5fc	800580031	1	main_z	11	main_z	39	stimuli_target_circletriangles.svg	stimuli_distractor_diamondtriangles.svg	5	yes	44	1	477
6.6.1	win	2022-11-07	13:43:46	13:53:48	600384	630345dd92f26599c777a5fc	800580031	1	main_z	11	advance_on_keypress_ZEE	40	stimuli_target_circletriangles.svg	stimuli_distractor_diamondtriangles.svg	5	yes	57	0	874
6.6.1	win	2022-11-07	13:43:46	13:53:50	602336	630345dd92f26599c777a5fc	800580031	1	main_z	11	main_z	41	stimuli_distractor_diamondtriangles.svg	stimuli_target_diamondsquares.svg	32	yes	44	1	446
6.6.1	win	2022-11-07	13:43:46	13:53:50	602336	630345dd92f26599c777a5fc	800580031	1	main_z	11	advance_on_keypress_ZEE	42	stimuli_distractor_diamondtriangles.svg	stimuli_target_diamondsquares.svg	32	yes	57	0	812
6.6.1	win	2022-11-07	13:43:46	13:53:52	604192	630345dd92f26599c777a5fc	800580031	1	main_z	11	main_z	43	stimuli_target_squarediamonds.svg	stimuli_distractor_diamondtriangles.svg	8	yes	44	1	418
6.6.1	win	2022-11-07	13:43:46	13:53:52	604192	630345dd92f26599c777a5fc	800580031	1	main_z	11	advance_on_keypress_ZEE	44	stimuli_target_squarediamonds.svg	stimuli_distractor_diamondtriangles.svg	8	yes	57	0	913
6.6.1	win	2022-11-07	13:43:46	13:53:54	606232	630345dd92f26599c777a5fc	800580031	1	main_z	11	main_z	45	stimuli_distractor_trianglediamonds.svg	stimuli_target_circletriangles.svg	9	yes	44	1	492
6.6.1	win	2022-11-07	13:43:46	13:53:54	606232	630345dd92f26599c777a5fc	800580031	1	main_z	11	advance_on_keypress_ZEE	46	stimuli_distractor_trianglediamonds.svg	stimuli_target_circletriangles.svg	9	yes	57	0	752
6.6.1	win	2022-11-07	13:43:46	13:53:56	608632	630345dd92f26599c777a5fc	800580031	1	main_z	11	main_z	47	stimuli_distractor_trianglediamonds.svg	stimuli_target_squarediamonds.svg	12	yes	44	1	1008
6.6.1	win	2022-11-07	13:43:46	13:53:56	608632	630345dd92f26599c777a5fc	800580031	1	main_z	11	advance_on_keypress_ZEE	48	stimuli_distractor_trianglediamonds.svg	stimuli_target_squarediamonds.svg	12	yes	57	0	864
6.6.1	win	2022-11-07	13:43:46	13:53:58	610616	630345dd92f26599c777a5fc	800580031	1	main_z	11	main_z	49	stimuli_distractor_trianglediamonds.svg	stimuli_target_trianglecircles.svg	25	yes	44	1	492
6.6.1	win	2022-11-07	13:43:46	13:53:58	610616	630345dd92f26599c777a5fc	800580031	1	main_z	11	advance_on_keypress_ZEE	50	stimuli_distractor_trianglediamonds.svg	stimuli_target_trianglecircles.svg	25	yes	57	0	872
6.6.1	win	2022-11-07	13:43:46	13:54:00	612664	630345dd92f26599c777a5fc	800580031	1	main_z	11	main_z	51	stimuli_distractor_diamondtriangles.svg	stimuli_target_circletriangles.svg	13	yes	44	1	540
6.6.1	win	2022-11-07	13:43:46	13:54:00	612664	630345dd92f26599c777a5fc	800580031	1	main_z	11	advance_on_keypress_ZEE	52	stimuli_distractor_diamondtriangles.svg	stimuli_target_circletriangles.svg	13	yes	57	0	790
6.6.1	win	2022-11-07	13:43:46	13:54:02	614512	630345dd92f26599c777a5fc	800580031	1	main_z	11	main_z	53	stimuli_distractor_diamondtriangles.svg	stimuli_target_squaretriangles.svg	15	yes	44	1	422
6.6.1	win	2022-11-07	13:43:46	13:54:02	614512	630345dd92f26599c777a5fc	800580031	1	main_z	11	advance_on_keypress_ZEE	54	stimuli_distractor_diamondtriangles.svg	stimuli_target_squaretriangles.svg	15	yes	57	0	733
6.6.1	win	2022-11-07	13:43:46	13:54:04	616368	630345dd92f26599c777a5fc	800580031	1	main_z	11	main_z	55	stimuli_target_trianglecircles.svg	stimuli_distractor_diamondtriangles.svg	21	yes	44	1	478
6.6.1	win	2022-11-07	13:43:46	13:54:04	616368	630345dd92f26599c777a5fc	800580031	1	main_z	11	advance_on_keypress_ZEE	56	stimuli_target_trianglecircles.svg	stimuli_distractor_diamondtriangles.svg	21	yes	57	0	643
6.6.1	win	2022-11-07	13:43:46	13:54:06	618664	630345dd92f26599c777a5fc	800580031	1	main_z	11	main_z	57	stimuli_target_diamondsquares.svg	stimuli_distractor_diamondtriangles.svg	24	yes	44	1	1024
6.6.1	win	2022-11-07	13:43:46	13:54:06	618664	630345dd92f26599c777a5fc	800580031	1	main_z	11	advance_on_keypress_ZEE	58	stimuli_target_diamondsquares.svg	stimuli_distractor_diamondtriangles.svg	24	yes	57	0	695
6.6.1	win	2022-11-07	13:43:46	13:54:08	620480	630345dd92f26599c777a5fc	800580031	1	main_z	11	main_z	59	stimuli_target_squaretriangles.svg	stimuli_distractor_trianglediamonds.svg	3	yes	44	1	490
6.6.1	win	2022-11-07	13:43:46	13:54:08	620480	630345dd92f26599c777a5fc	800580031	1	main_z	11	advance_on_keypress_ZEE	60	stimuli_target_squaretriangles.svg	stimuli_distractor_trianglediamonds.svg	3	yes	57	0	670
6.6.1	win	2022-11-07	13:43:46	13:54:10	622272	630345dd92f26599c777a5fc	800580031	1	main_z	11	main_z	61	stimuli_target_squaretriangles.svg	stimuli_distractor_diamondtriangles.svg	7	yes	44	1	482
6.6.1	win	2022-11-07	13:43:46	13:54:10	622272	630345dd92f26599c777a5fc	800580031	1	main_z	11	advance_on_keypress_ZEE	62	stimuli_target_squaretriangles.svg	stimuli_distractor_diamondtriangles.svg	7	yes	57	0	806
6.6.1	win	2022-11-07	13:43:46	13:54:12	624320	630345dd92f26599c777a5fc	800580031	1	main_z	11	main_z	63	stimuli_target_diamondcircles.svg	stimuli_distractor_diamondtriangles.svg	23	yes	44	1	597
6.6.1	win	2022-11-07	13:43:46	13:54:12	624320	630345dd92f26599c777a5fc	800580031	1	main_z	11	advance_on_keypress_ZEE	64	stimuli_target_diamondcircles.svg	stimuli_distractor_diamondtriangles.svg	23	yes	57	0	645
6.6.1	win	2022-11-07	13:43:46	13:54:15	627590	630345dd92f26599c777a5fc	800580031	1	main_z	11	main_z	65	stimuli_distractor_diamondtriangles.svg	stimuli_distractor_diamondtriangles.svg	40	no	0	1	2000
6.6.1	win	2022-11-07	13:43:46	13:54:15	627590	630345dd92f26599c777a5fc	800580031	1	main_z	11	advance_on_keypress_ZEE	66	stimuli_distractor_diamondtriangles.svg	stimuli_distractor_diamondtriangles.svg	40	no	57	0	545
6.6.1	win	2022-11-07	13:43:46	13:54:17	629184	630345dd92f26599c777a5fc	800580031	1	main_z	11	main_z	67	stimuli_target_circlediamonds.svg	stimuli_distractor_trianglediamonds.svg	2	yes	44	1	411
6.6.1	win	2022-11-07	13:43:46	13:54:17	629184	630345dd92f26599c777a5fc	800580031	1	main_z	11	advance_on_keypress_ZEE	68	stimuli_target_circlediamonds.svg	stimuli_distractor_trianglediamonds.svg	2	yes	57	0	682
6.6.1	win	2022-11-07	13:43:46	13:54:19	631006	630345dd92f26599c777a5fc	800580031	1	main_z	11	main_z	69	stimuli_distractor_trianglediamonds.svg	stimuli_target_diamondsquares.svg	28	yes	44	1	510
6.6.1	win	2022-11-07	13:43:46	13:54:19	631006	630345dd92f26599c777a5fc	800580031	1	main_z	11	advance_on_keypress_ZEE	70	stimuli_distractor_trianglediamonds.svg	stimuli_target_diamondsquares.svg	28	yes	57	0	777
6.6.1	win	2022-11-07	13:43:46	13:54:21	632872	630345dd92f26599c777a5fc	800580031	1	main_z	11	main_z	71	stimuli_distractor_diamondtriangles.svg	stimuli_target_squarediamonds.svg	16	yes	44	1	449
6.6.1	win	2022-11-07	13:43:46	13:54:21	632872	630345dd92f26599c777a5fc	800580031	1	main_z	11	advance_on_keypress_ZEE	72	stimuli_distractor_diamondtriangles.svg	stimuli_target_squarediamonds.svg	16	yes	57	0	743
6.6.1	win	2022-11-07	13:43:46	13:54:24	636240	630345dd92f26599c777a5fc	800580031	1	main_z	11	main_z	73	stimuli_distractor_trianglediamonds.svg	stimuli_distractor_diamondtriangles.svg	36	no	0	1	2000
6.6.1	win	2022-11-07	13:43:46	13:54:24	636240	630345dd92f26599c777a5fc	800580031	1	main_z	11	advance_on_keypress_ZEE	74	stimuli_distractor_trianglediamonds.svg	stimuli_distractor_diamondtriangles.svg	36	no	57	0	487
6.6.1	win	2022-11-07	13:43:46	13:54:26	637831	630345dd92f26599c777a5fc	800580031	1	main_z	11	main_z	75	stimuli_target_diamondsquares.svg	stimuli_distractor_trianglediamonds.svg	20	yes	44	1	458
6.6.1	win	2022-11-07	13:43:46	13:54:26	637831	630345dd92f26599c777a5fc	800580031	1	main_z	11	advance_on_keypress_ZEE	76	stimuli_target_diamondsquares.svg	stimuli_distractor_trianglediamonds.svg	20	yes	57	0	719
6.6.1	win	2022-11-07	13:43:46	13:54:27	639631	630345dd92f26599c777a5fc	800580031	1	main_z	11	main_z	77	stimuli_target_diamondcircles.svg	stimuli_distractor_trianglediamonds.svg	19	yes	44	1	441
6.6.1	win	2022-11-07	13:43:46	13:54:27	639631	630345dd92f26599c777a5fc	800580031	1	main_z	11	advance_on_keypress_ZEE	78	stimuli_target_diamondcircles.svg	stimuli_distractor_trianglediamonds.svg	19	yes	57	0	615
6.6.1	win	2022-11-07	13:43:46	13:54:29	641359	630345dd92f26599c777a5fc	800580031	1	main_z	11	main_z	79	stimuli_distractor_diamondtriangles.svg	stimuli_target_trianglesquares.svg	30	yes	44	1	469
6.6.1	win	2022-11-07	13:43:46	13:54:29	641359	630345dd92f26599c777a5fc	800580031	1	main_z	11	advance_on_keypress_ZEE	80	stimuli_distractor_diamondtriangles.svg	stimuli_target_trianglesquares.svg	30	yes	57	0	690
6.6.1	win	2022-11-07	13:43:46	13:54:31	643175	630345dd92f26599c777a5fc	800580031	1	main_z	11	main_z	81	stimuli_target_circletriangles.svg	stimuli_distractor_trianglediamonds.svg	1	yes	44	1	485
6.6.1	win	2022-11-07	13:43:46	13:54:31	643175	630345dd92f26599c777a5fc	800580031	1	main_z	11	advance_on_keypress_ZEE	82	stimuli_target_circletriangles.svg	stimuli_distractor_trianglediamonds.svg	1	yes	57	0	593
6.6.1	win	2022-11-07	13:43:46	13:54:33	644935	630345dd92f26599c777a5fc	800580031	1	main_z	11	main_z	83	stimuli_distractor_trianglediamonds.svg	stimuli_target_diamondcircles.svg	27	yes	44	1	529
6.6.1	win	2022-11-07	13:43:46	13:54:33	644935	630345dd92f26599c777a5fc	800580031	1	main_z	11	advance_on_keypress_ZEE	84	stimuli_distractor_trianglediamonds.svg	stimuli_target_diamondcircles.svg	27	yes	57	0	659
6.6.1	win	2022-11-07	13:43:46	13:54:35	646783	630345dd92f26599c777a5fc	800580031	1	main_z	11	main_z	85	stimuli_distractor_diamondtriangles.svg	stimuli_target_circlediamonds.svg	14	yes	44	1	560
6.6.1	win	2022-11-07	13:43:46	13:54:35	646783	630345dd92f26599c777a5fc	800580031	1	main_z	11	advance_on_keypress_ZEE	86	stimuli_distractor_diamondtriangles.svg	stimuli_target_circlediamonds.svg	14	yes	57	0	833
6.6.1	win	2022-11-07	13:43:46	13:54:37	648751	630345dd92f26599c777a5fc	800580031	1	main_z	11	main_z	87	stimuli_target_trianglesquares.svg	stimuli_distractor_diamondtriangles.svg	22	yes	44	1	495
6.6.1	win	2022-11-07	13:43:46	13:54:37	648751	630345dd92f26599c777a5fc	800580031	1	main_z	11	advance_on_keypress_ZEE	88	stimuli_target_trianglesquares.svg	stimuli_distractor_diamondtriangles.svg	22	yes	57	0	699
6.6.1	win	2022-11-07	13:43:46	13:54:40	652090	630345dd92f26599c777a5fc	800580031	1	main_z	11	main_z	89	stimuli_distractor_diamondtriangles.svg	stimuli_distractor_diamondtriangles.svg	39	no	0	1	2000
6.6.1	win	2022-11-07	13:43:46	13:54:40	652090	630345dd92f26599c777a5fc	800580031	1	main_z	11	advance_on_keypress_ZEE	90	stimuli_distractor_diamondtriangles.svg	stimuli_distractor_diamondtriangles.svg	39	no	57	0	557
6.6.1	win	2022-11-07	13:43:46	13:54:42	653806	630345dd92f26599c777a5fc	800580031	1	main_z	11	main_z	91	stimuli_distractor_diamondtriangles.svg	stimuli_target_circletriangles.svg	13	yes	44	1	501
6.6.1	win	2022-11-07	13:43:46	13:54:42	653806	630345dd92f26599c777a5fc	800580031	1	main_z	11	advance_on_keypress_ZEE	92	stimuli_distractor_diamondtriangles.svg	stimuli_target_circletriangles.svg	13	yes	57	0	656
6.6.1	win	2022-11-07	13:43:46	13:54:43	655559	630345dd92f26599c777a5fc	800580031	1	main_z	11	main_z	93	stimuli_distractor_trianglediamonds.svg	stimuli_distractor_diamondtriangles.svg	35	no	44	0	453
6.6.1	win	2022-11-07	13:43:46	13:54:43	655559	630345dd92f26599c777a5fc	800580031	1	main_z	11	advance_on_keypress_ZEE	94	stimuli_distractor_trianglediamonds.svg	stimuli_distractor_diamondtriangles.svg	35	no	57	0	1530
6.6.1	win	2022-11-07	13:43:46	13:54:46	658111	630345dd92f26599c777a5fc	800580031	1	main_z	11	main_z	95	stimuli_target_squaretriangles.svg	stimuli_distractor_diamondtriangles.svg	7	yes	44	1	388
6.6.1	win	2022-11-07	13:43:46	13:54:46	658111	630345dd92f26599c777a5fc	800580031	1	main_z	11	advance_on_keypress_ZEE	96	stimuli_target_squaretriangles.svg	stimuli_distractor_diamondtriangles.svg	7	yes	57	0	812
6.6.1	win	2022-11-07	13:43:46	13:54:48	659975	630345dd92f26599c777a5fc	800580031	1	main_z	11	main_z	97	stimuli_distractor_trianglediamonds.svg	stimuli_target_squaretriangles.svg	11	yes	44	1	419
6.6.1	win	2022-11-07	13:43:46	13:54:48	659975	630345dd92f26599c777a5fc	800580031	1	main_z	11	advance_on_keypress_ZEE	98	stimuli_distractor_trianglediamonds.svg	stimuli_target_squaretriangles.svg	11	yes	57	0	689
6.6.1	win	2022-11-07	13:43:46	13:54:50	661951	630345dd92f26599c777a5fc	800580031	1	main_z	11	main_z	99	stimuli_target_diamondsquares.svg	stimuli_distractor_trianglediamonds.svg	20	yes	44	1	645
6.6.1	win	2022-11-07	13:43:46	13:54:50	661951	630345dd92f26599c777a5fc	800580031	1	main_z	11	advance_on_keypress_ZEE	100	stimuli_target_diamondsquares.svg	stimuli_distractor_trianglediamonds.svg	20	yes	57	0	579
6.6.1	win	2022-11-07	13:43:46	13:54:53	665156	630345dd92f26599c777a5fc	800580031	1	main_z	11	main_z	101	stimuli_distractor_trianglediamonds.svg	stimuli_distractor_trianglediamonds.svg	33	no	0	1	2000
6.6.1	win	2022-11-07	13:43:46	13:54:53	665156	630345dd92f26599c777a5fc	800580031	1	main_z	11	advance_on_keypress_ZEE	102	stimuli_distractor_trianglediamonds.svg	stimuli_distractor_trianglediamonds.svg	33	no	57	0	562
6.6.1	win	2022-11-07	13:43:46	13:54:55	666751	630345dd92f26599c777a5fc	800580031	1	main_z	11	main_z	103	stimuli_distractor_trianglediamonds.svg	stimuli_target_diamondsquares.svg	28	yes	44	1	395
6.6.1	win	2022-11-07	13:43:46	13:54:55	666751	630345dd92f26599c777a5fc	800580031	1	main_z	11	advance_on_keypress_ZEE	104	stimuli_distractor_trianglediamonds.svg	stimuli_target_diamondsquares.svg	28	yes	57	0	683
6.6.1	win	2022-11-07	13:43:46	13:54:56	668567	630345dd92f26599c777a5fc	800580031	1	main_z	11	main_z	105	stimuli_target_squarediamonds.svg	stimuli_distractor_diamondtriangles.svg	8	yes	44	1	494
6.6.1	win	2022-11-07	13:43:46	13:54:56	668567	630345dd92f26599c777a5fc	800580031	1	main_z	11	advance_on_keypress_ZEE	106	stimuli_target_squarediamonds.svg	stimuli_distractor_diamondtriangles.svg	8	yes	57	0	674
6.6.1	win	2022-11-07	13:43:46	13:54:58	670303	630345dd92f26599c777a5fc	800580031	1	main_z	11	main_z	107	stimuli_target_circlediamonds.svg	stimuli_distractor_trianglediamonds.svg	2	yes	44	1	430
6.6.1	win	2022-11-07	13:43:46	13:54:58	670303	630345dd92f26599c777a5fc	800580031	1	main_z	11	advance_on_keypress_ZEE	108	stimuli_target_circlediamonds.svg	stimuli_distractor_trianglediamonds.svg	2	yes	57	0	541
6.6.1	win	2022-11-07	13:43:46	13:55:00	671879	630345dd92f26599c777a5fc	800580031	1	main_z	11	main_z	109	stimuli_distractor_trianglediamonds.svg	stimuli_target_circlediamonds.svg	10	yes	44	1	406
6.6.1	win	2022-11-07	13:43:46	13:55:00	671879	630345dd92f26599c777a5fc	800580031	1	main_z	11	advance_on_keypress_ZEE	110	stimuli_distractor_trianglediamonds.svg	stimuli_target_circlediamonds.svg	10	yes	57	0	518
6.6.1	win	2022-11-07	13:43:46	13:55:01	673615	630345dd92f26599c777a5fc	800580031	1	main_z	11	main_z	111	stimuli_target_trianglecircles.svg	stimuli_distractor_diamondtriangles.svg	21	yes	44	1	576
6.6.1	win	2022-11-07	13:43:46	13:55:01	673615	630345dd92f26599c777a5fc	800580031	1	main_z	11	advance_on_keypress_ZEE	112	stimuli_target_trianglecircles.svg	stimuli_distractor_diamondtriangles.svg	21	yes	57	0	504
6.6.1	win	2022-11-07	13:43:46	13:55:03	675159	630345dd92f26599c777a5fc	800580031	1	main_z	11	main_z	113	stimuli_distractor_diamondtriangles.svg	stimuli_target_diamondcircles.svg	31	yes	44	1	403
6.6.1	win	2022-11-07	13:43:46	13:55:03	675159	630345dd92f26599c777a5fc	800580031	1	main_z	11	advance_on_keypress_ZEE	114	stimuli_distractor_diamondtriangles.svg	stimuli_target_diamondcircles.svg	31	yes	57	0	514
6.6.1	win	2022-11-07	13:43:46	13:55:06	678306	630345dd92f26599c777a5fc	800580031	1	main_z	11	main_z	115	stimuli_distractor_diamondtriangles.svg	stimuli_distractor_diamondtriangles.svg	40	no	0	1	2000
6.6.1	win	2022-11-07	13:43:46	13:55:06	678306	630345dd92f26599c777a5fc	800580031	1	main_z	11	advance_on_keypress_ZEE	116	stimuli_distractor_diamondtriangles.svg	stimuli_distractor_diamondtriangles.svg	40	no	57	0	356
6.6.1	win	2022-11-07	13:43:46	13:55:07	679694	630345dd92f26599c777a5fc	800580031	1	main_z	11	main_z	117	stimuli_target_diamondcircles.svg	stimuli_distractor_diamondtriangles.svg	23	yes	44	1	388
6.6.1	win	2022-11-07	13:43:46	13:55:07	679694	630345dd92f26599c777a5fc	800580031	1	main_z	11	advance_on_keypress_ZEE	118	stimuli_target_diamondcircles.svg	stimuli_distractor_diamondtriangles.svg	23	yes	57	0	596
6.6.1	win	2022-11-07	13:43:46	13:55:09	681374	630345dd92f26599c777a5fc	800580031	1	main_z	11	main_z	119	stimuli_distractor_diamondtriangles.svg	stimuli_target_squarediamonds.svg	16	yes	44	1	451
6.6.1	win	2022-11-07	13:43:46	13:55:09	681374	630345dd92f26599c777a5fc	800580031	1	main_z	11	advance_on_keypress_ZEE	120	stimuli_distractor_diamondtriangles.svg	stimuli_target_squarediamonds.svg	16	yes	57	0	609
6.6.1	win	2022-11-07	13:43:46	13:55:11	683046	630345dd92f26599c777a5fc	800580031	1	main_z	11	main_z	121	stimuli_target_squaretriangles.svg	stimuli_distractor_trianglediamonds.svg	3	yes	44	1	423
6.6.1	win	2022-11-07	13:43:46	13:55:11	683046	630345dd92f26599c777a5fc	800580031	1	main_z	11	advance_on_keypress_ZEE	122	stimuli_target_squaretriangles.svg	stimuli_distractor_trianglediamonds.svg	3	yes	57	0	638
6.6.1	win	2022-11-07	13:43:46	13:55:13	684742	630345dd92f26599c777a5fc	800580031	1	main_z	11	main_z	123	stimuli_distractor_diamondtriangles.svg	stimuli_target_trianglesquares.svg	30	yes	44	1	419
6.6.1	win	2022-11-07	13:43:46	13:55:13	684742	630345dd92f26599c777a5fc	800580031	1	main_z	11	advance_on_keypress_ZEE	124	stimuli_distractor_diamondtriangles.svg	stimuli_target_trianglesquares.svg	30	yes	57	0	594
6.6.1	win	2022-11-07	13:43:46	13:55:14	686542	630345dd92f26599c777a5fc	800580031	1	main_z	11	main_z	125	stimuli_target_diamondcircles.svg	stimuli_distractor_trianglediamonds.svg	19	yes	44	1	569
6.6.1	win	2022-11-07	13:43:46	13:55:14	686542	630345dd92f26599c777a5fc	800580031	1	main_z	11	advance_on_keypress_ZEE	126	stimuli_target_diamondcircles.svg	stimuli_distractor_trianglediamonds.svg	19	yes	57	0	530
6.6.1	win	2022-11-07	13:43:46	13:55:16	688566	630345dd92f26599c777a5fc	800580031	1	main_z	11	main_z	127	stimuli_target_trianglesquares.svg	stimuli_distractor_trianglediamonds.svg	18	yes	44	1	860
6.6.1	win	2022-11-07	13:43:46	13:55:16	688566	630345dd92f26599c777a5fc	800580031	1	main_z	11	advance_on_keypress_ZEE	128	stimuli_target_trianglesquares.svg	stimuli_distractor_trianglediamonds.svg	18	yes	57	0	617
6.6.1	win	2022-11-07	13:43:46	13:55:18	690342	630345dd92f26599c777a5fc	800580031	1	main_z	11	main_z	129	stimuli_distractor_trianglediamonds.svg	stimuli_target_trianglesquares.svg	26	yes	44	1	519
6.6.1	win	2022-11-07	13:43:46	13:55:18	690342	630345dd92f26599c777a5fc	800580031	1	main_z	11	advance_on_keypress_ZEE	130	stimuli_distractor_trianglediamonds.svg	stimuli_target_trianglesquares.svg	26	yes	57	0	626
6.6.1	win	2022-11-07	13:43:46	13:55:20	692214	630345dd92f26599c777a5fc	800580031	1	main_z	11	main_z	131	stimuli_distractor_diamondtriangles.svg	stimuli_target_trianglecircles.svg	29	yes	44	1	608
6.6.1	win	2022-11-07	13:43:46	13:55:20	692214	630345dd92f26599c777a5fc	800580031	1	main_z	11	advance_on_keypress_ZEE	132	stimuli_distractor_diamondtriangles.svg	stimuli_target_trianglecircles.svg	29	yes	57	0	631
6.6.1	win	2022-11-07	13:43:46	13:55:22	693966	630345dd92f26599c777a5fc	800580031	1	main_z	11	main_z	133	stimuli_target_diamondsquares.svg	stimuli_distractor_diamondtriangles.svg	24	yes	44	1	477
6.6.1	win	2022-11-07	13:43:46	13:55:22	693966	630345dd92f26599c777a5fc	800580031	1	main_z	11	advance_on_keypress_ZEE	134	stimuli_target_diamondsquares.svg	stimuli_distractor_diamondtriangles.svg	24	yes	57	0	729
6.6.1	win	2022-11-07	13:43:46	13:55:24	695806	630345dd92f26599c777a5fc	800580031	1	main_z	11	main_z	135	stimuli_target_circletriangles.svg	stimuli_distractor_diamondtriangles.svg	5	yes	44	1	483
6.6.1	win	2022-11-07	13:43:46	13:55:24	695806	630345dd92f26599c777a5fc	800580031	1	main_z	11	advance_on_keypress_ZEE	136	stimuli_target_circletriangles.svg	stimuli_distractor_diamondtriangles.svg	5	yes	57	0	648
6.6.1	win	2022-11-07	13:43:46	13:55:27	699089	630345dd92f26599c777a5fc	800580031	1	main_z	11	main_z	137	stimuli_distractor_diamondtriangles.svg	stimuli_distractor_trianglediamonds.svg	37	no	0	1	2000
6.6.1	win	2022-11-07	13:43:46	13:55:27	699089	630345dd92f26599c777a5fc	800580031	1	main_z	11	advance_on_keypress_ZEE	138	stimuli_distractor_diamondtriangles.svg	stimuli_distractor_trianglediamonds.svg	37	no	57	0	420
6.6.1	win	2022-11-07	13:43:46	13:55:28	700542	630345dd92f26599c777a5fc	800580031	1	main_z	11	main_z	139	stimuli_target_squarediamonds.svg	stimuli_distractor_trianglediamonds.svg	4	yes	44	1	386
6.6.1	win	2022-11-07	13:43:46	13:55:28	700542	630345dd92f26599c777a5fc	800580031	1	main_z	11	advance_on_keypress_ZEE	140	stimuli_target_squarediamonds.svg	stimuli_distractor_trianglediamonds.svg	4	yes	57	0	610
6.6.1	win	2022-11-07	13:43:46	13:55:32	703789	630345dd92f26599c777a5fc	800580031	1	main_z	11	main_z	141	stimuli_distractor_diamondtriangles.svg	stimuli_distractor_trianglediamonds.svg	38	no	0	1	2000
6.6.1	win	2022-11-07	13:43:46	13:55:32	703789	630345dd92f26599c777a5fc	800580031	1	main_z	11	advance_on_keypress_ZEE	142	stimuli_distractor_diamondtriangles.svg	stimuli_distractor_trianglediamonds.svg	38	no	57	0	392
6.6.1	win	2022-11-07	13:43:46	13:55:33	705206	630345dd92f26599c777a5fc	800580031	1	main_z	11	main_z	143	stimuli_target_trianglecircles.svg	stimuli_distractor_trianglediamonds.svg	17	yes	44	1	384
6.6.1	win	2022-11-07	13:43:46	13:55:33	705206	630345dd92f26599c777a5fc	800580031	1	main_z	11	advance_on_keypress_ZEE	144	stimuli_target_trianglecircles.svg	stimuli_distractor_trianglediamonds.svg	17	yes	57	0	496
6.6.1	win	2022-11-07	13:43:46	13:55:35	706855	630345dd92f26599c777a5fc	800580031	1	main_z	11	main_z	145	stimuli_distractor_trianglediamonds.svg	stimuli_target_circletriangles.svg	9	yes	44	1	507
6.6.1	win	2022-11-07	13:43:46	13:55:35	706855	630345dd92f26599c777a5fc	800580031	1	main_z	11	advance_on_keypress_ZEE	146	stimuli_distractor_trianglediamonds.svg	stimuli_target_circletriangles.svg	9	yes	57	0	598
6.6.1	win	2022-11-07	13:43:46	13:55:36	708486	630345dd92f26599c777a5fc	800580031	1	main_z	11	main_z	147	stimuli_distractor_diamondtriangles.svg	stimuli_target_squaretriangles.svg	15	yes	44	1	397
6.6.1	win	2022-11-07	13:43:46	13:55:36	708486	630345dd92f26599c777a5fc	800580031	1	main_z	11	advance_on_keypress_ZEE	148	stimuli_distractor_diamondtriangles.svg	stimuli_target_squaretriangles.svg	15	yes	57	0	645
6.6.1	win	2022-11-07	13:43:46	13:55:38	710272	630345dd92f26599c777a5fc	800580031	1	main_z	11	main_z	149	stimuli_distractor_diamondtriangles.svg	stimuli_target_diamondsquares.svg	32	yes	44	1	506
6.6.1	win	2022-11-07	13:43:46	13:55:38	710272	630345dd92f26599c777a5fc	800580031	1	main_z	11	advance_on_keypress_ZEE	150	stimuli_distractor_diamondtriangles.svg	stimuli_target_diamondsquares.svg	32	yes	57	0	565
6.6.1	win	2022-11-07	13:43:46	13:55:40	711958	630345dd92f26599c777a5fc	800580031	1	main_z	11	main_z	151	stimuli_distractor_trianglediamonds.svg	stimuli_target_trianglecircles.svg	25	yes	44	1	486
6.6.1	win	2022-11-07	13:43:46	13:55:40	711958	630345dd92f26599c777a5fc	800580031	1	main_z	11	advance_on_keypress_ZEE	152	stimuli_distractor_trianglediamonds.svg	stimuli_target_trianglecircles.svg	25	yes	57	0	594
6.6.1	win	2022-11-07	13:43:46	13:55:43	715189	630345dd92f26599c777a5fc	800580031	1	main_z	11	main_z	153	stimuli_distractor_trianglediamonds.svg	stimuli_distractor_diamondtriangles.svg	36	no	0	1	2000
6.6.1	win	2022-11-07	13:43:46	13:55:43	715189	630345dd92f26599c777a5fc	800580031	1	main_z	11	advance_on_keypress_ZEE	154	stimuli_distractor_trianglediamonds.svg	stimuli_distractor_diamondtriangles.svg	36	no	57	0	392
6.6.1	win	2022-11-07	13:43:46	13:55:44	716614	630345dd92f26599c777a5fc	800580031	1	main_z	11	main_z	155	stimuli_target_circlediamonds.svg	stimuli_distractor_diamondtriangles.svg	6	yes	44	1	392
6.6.1	win	2022-11-07	13:43:46	13:55:44	716614	630345dd92f26599c777a5fc	800580031	1	main_z	11	advance_on_keypress_ZEE	156	stimuli_target_circlediamonds.svg	stimuli_distractor_diamondtriangles.svg	6	yes	57	0	672
6.6.1	win	2022-11-07	13:43:46	13:55:46	718350	630345dd92f26599c777a5fc	800580031	1	main_z	11	main_z	157	stimuli_distractor_trianglediamonds.svg	stimuli_target_squarediamonds.svg	12	yes	44	1	428
6.6.1	win	2022-11-07	13:43:46	13:55:46	718350	630345dd92f26599c777a5fc	800580031	1	main_z	11	advance_on_keypress_ZEE	158	stimuli_distractor_trianglediamonds.svg	stimuli_target_squarediamonds.svg	12	yes	57	0	602
6.6.1	win	2022-11-07	13:43:46	13:55:49	721589	630345dd92f26599c777a5fc	800580031	1	main_z	11	main_z	159	stimuli_distractor_trianglediamonds.svg	stimuli_distractor_trianglediamonds.svg	34	no	0	1	2000
6.6.1	win	2022-11-07	13:43:46	13:55:49	721589	630345dd92f26599c777a5fc	800580031	1	main_z	11	advance_on_keypress_ZEE	160	stimuli_distractor_trianglediamonds.svg	stimuli_distractor_trianglediamonds.svg	34	no	57	0	672