build	computer.platform	date	time	timestamp	time_elapsed_ms	subject	group	session	blockcode	blocknum	trialcode	trialnum	stimulus_left	stimulus_right	stim_index	target_present	response	correct	latency
6.6.1	win	2022-12-14	14:55:29	14:57:26	116102	615cee2b2f844e72c397977a	525592128	1	practice_z	5	practice_z	1	stimuli_distractor_trianglediamonds.svg	stimuli_target_squarediamonds.svg	11	yes	44	1	1983
6.6.1	win	2022-12-14	14:55:29	14:57:26	116102	615cee2b2f844e72c397977a	525592128	1	practice_z	5	advance_on_keypress_ZEE	2	stimuli_distractor_trianglediamonds.svg	stimuli_target_squarediamonds.svg	11	yes	57	0	6327
6.6.1	win	2022-12-14	14:55:29	14:57:35	125339	615cee2b2f844e72c397977a	525592128	1	practice_z	5	practice_z	3	stimuli_distractor_diamondtriangles.svg	stimuli_target_diamondcircles.svg	8	yes	44	1	1272
6.6.1	win	2022-12-14	14:55:29	14:57:35	125339	615cee2b2f844e72c397977a	525592128	1	practice_z	5	advance_on_keypress_ZEE	4	stimuli_distractor_diamondtriangles.svg	stimuli_target_diamondcircles.svg	8	yes	57	0	1481
6.6.1	win	2022-12-14	14:55:29	14:57:40	129457	615cee2b2f844e72c397977a	525592128	1	practice_z	5	practice_z	5	stimuli_target_diamondsquares.svg	stimuli_distractor_diamondtriangles.svg	3	yes	44	1	990
6.6.1	win	2022-12-14	14:55:29	14:57:40	129457	615cee2b2f844e72c397977a	525592128	1	practice_z	5	advance_on_keypress_ZEE	6	stimuli_target_diamondsquares.svg	stimuli_distractor_diamondtriangles.svg	3	yes	57	0	936
6.6.1	win	2022-12-14	14:55:29	14:57:44	134034	615cee2b2f844e72c397977a	525592128	1	practice_z	5	practice_z	7	stimuli_distractor_diamondtriangles.svg	stimuli_distractor_diamondtriangles.svg	13	no	0	1	2000
6.6.1	win	2022-12-14	14:55:29	14:57:44	134034	615cee2b2f844e72c397977a	525592128	1	practice_z	5	advance_on_keypress_ZEE	8	stimuli_distractor_diamondtriangles.svg	stimuli_distractor_diamondtriangles.svg	13	no	57	0	571
6.6.1	win	2022-12-14	14:55:29	14:57:47	137129	615cee2b2f844e72c397977a	525592128	1	practice_z	5	practice_z	9	stimuli_distractor_diamondtriangles.svg	stimuli_target_trianglecircles.svg	9	yes	44	1	879
6.6.1	win	2022-12-14	14:55:29	14:57:47	137129	615cee2b2f844e72c397977a	525592128	1	practice_z	5	advance_on_keypress_ZEE	10	stimuli_distractor_diamondtriangles.svg	stimuli_target_trianglecircles.svg	9	yes	57	0	672
6.6.1	win	2022-12-14	14:55:29	14:57:51	140740	615cee2b2f844e72c397977a	525592128	1	practice_z	5	practice_z	11	stimuli_distractor_diamondtriangles.svg	stimuli_distractor_trianglediamonds.svg	14	no	44	0	1291
6.6.1	win	2022-12-14	14:55:29	14:57:51	140740	615cee2b2f844e72c397977a	525592128	1	practice_z	5	advance_on_keypress_ZEE	12	stimuli_distractor_diamondtriangles.svg	stimuli_distractor_trianglediamonds.svg	14	no	57	0	726
6.6.1	win	2022-12-14	14:55:29	14:57:54	144271	615cee2b2f844e72c397977a	525592128	1	practice_z	5	practice_z	13	stimuli_distractor_trianglediamonds.svg	stimuli_target_diamondcircles.svg	12	yes	44	1	1173
6.6.1	win	2022-12-14	14:55:29	14:57:54	144271	615cee2b2f844e72c397977a	525592128	1	practice_z	5	advance_on_keypress_ZEE	14	stimuli_distractor_trianglediamonds.svg	stimuli_target_diamondcircles.svg	12	yes	57	0	743
6.6.1	win	2022-12-14	14:55:29	14:57:58	147780	615cee2b2f844e72c397977a	525592128	1	practice_z	5	practice_z	15	stimuli_distractor_diamondtriangles.svg	stimuli_target_circletriangles.svg	7	yes	44	1	1132
6.6.1	win	2022-12-14	14:55:29	14:57:58	147780	615cee2b2f844e72c397977a	525592128	1	practice_z	5	advance_on_keypress_ZEE	16	stimuli_distractor_diamondtriangles.svg	stimuli_target_circletriangles.svg	7	yes	57	0	481
6.6.1	win	2022-12-14	14:55:29	14:58:01	150782	615cee2b2f844e72c397977a	525592128	1	practice_z	5	practice_z	17	stimuli_distractor_trianglediamonds.svg	stimuli_target_circlediamonds.svg	10	yes	44	1	867
6.6.1	win	2022-12-14	14:55:29	14:58:01	150782	615cee2b2f844e72c397977a	525592128	1	practice_z	5	advance_on_keypress_ZEE	18	stimuli_distractor_trianglediamonds.svg	stimuli_target_circlediamonds.svg	10	yes	57	0	552
6.6.1	win	2022-12-14	14:55:29	14:58:05	154981	615cee2b2f844e72c397977a	525592128	1	practice_z	5	practice_z	19	stimuli_distractor_trianglediamonds.svg	stimuli_distractor_diamondtriangles.svg	16	no	0	1	2000
6.6.1	win	2022-12-14	14:55:29	14:58:05	154981	615cee2b2f844e72c397977a	525592128	1	practice_z	5	advance_on_keypress_ZEE	20	stimuli_distractor_trianglediamonds.svg	stimuli_distractor_diamondtriangles.svg	16	no	57	0	351
6.6.1	win	2022-12-14	14:55:29	14:58:08	157890	615cee2b2f844e72c397977a	525592128	1	practice_z	5	practice_z	21	stimuli_target_squarediamonds.svg	stimuli_distractor_trianglediamonds.svg	5	yes	44	1	909
6.6.1	win	2022-12-14	14:55:29	14:58:08	157890	615cee2b2f844e72c397977a	525592128	1	practice_z	5	advance_on_keypress_ZEE	22	stimuli_target_squarediamonds.svg	stimuli_distractor_trianglediamonds.svg	5	yes	57	0	375
6.6.1	win	2022-12-14	14:55:29	14:58:11	160793	615cee2b2f844e72c397977a	525592128	1	practice_z	5	practice_z	23	stimuli_target_circlediamonds.svg	stimuli_distractor_trianglediamonds.svg	4	yes	44	1	897
6.6.1	win	2022-12-14	14:55:29	14:58:11	160793	615cee2b2f844e72c397977a	525592128	1	practice_z	5	advance_on_keypress_ZEE	24	stimuli_target_circlediamonds.svg	stimuli_distractor_trianglediamonds.svg	4	yes	57	0	602
6.6.1	win	2022-12-14	14:55:29	14:58:14	163972	615cee2b2f844e72c397977a	525592128	1	practice_z	5	practice_z	25	stimuli_target_circlediamonds.svg	stimuli_distractor_diamondtriangles.svg	1	yes	44	1	925
6.6.1	win	2022-12-14	14:55:29	14:58:14	163972	615cee2b2f844e72c397977a	525592128	1	practice_z	5	advance_on_keypress_ZEE	26	stimuli_target_circlediamonds.svg	stimuli_distractor_diamondtriangles.svg	1	yes	57	0	456
6.6.1	win	2022-12-14	14:55:29	14:58:17	166955	615cee2b2f844e72c397977a	525592128	1	practice_z	5	practice_z	27	stimuli_target_squarediamonds.svg	stimuli_distractor_diamondtriangles.svg	2	yes	44	1	893
6.6.1	win	2022-12-14	14:55:29	14:58:17	166955	615cee2b2f844e72c397977a	525592128	1	practice_z	5	advance_on_keypress_ZEE	28	stimuli_target_squarediamonds.svg	stimuli_distractor_diamondtriangles.svg	2	yes	57	0	4109
6.6.1	win	2022-12-14	14:55:29	14:58:25	174694	615cee2b2f844e72c397977a	525592128	1	practice_z	5	practice_z	29	stimuli_distractor_trianglediamonds.svg	stimuli_distractor_trianglediamonds.svg	15	no	0	1	2000
6.6.1	win	2022-12-14	14:55:29	14:58:25	174694	615cee2b2f844e72c397977a	525592128	1	practice_z	5	advance_on_keypress_ZEE	30	stimuli_distractor_trianglediamonds.svg	stimuli_distractor_trianglediamonds.svg	15	no	57	0	524
6.6.1	win	2022-12-14	14:55:29	14:58:29	178860	615cee2b2f844e72c397977a	525592128	1	practice_z	5	practice_z	31	stimuli_target_diamondsquares.svg	stimuli_distractor_trianglediamonds.svg	6	yes	0	0	2000
6.6.1	win	2022-12-14	14:55:29	14:58:29	178860	615cee2b2f844e72c397977a	525592128	1	practice_z	5	advance_on_keypress_ZEE	32	stimuli_target_diamondsquares.svg	stimuli_distractor_trianglediamonds.svg	6	yes	57	0	448
6.6.1	win	2022-12-14	14:55:29	14:58:39	189178	615cee2b2f844e72c397977a	525592128	1	main_z	7	main_z	1	stimuli_distractor_trianglediamonds.svg	stimuli_target_trianglesquares.svg	26	yes	44	1	1037
6.6.1	win	2022-12-14	14:55:29	14:58:39	189178	615cee2b2f844e72c397977a	525592128	1	main_z	7	advance_on_keypress_ZEE	2	stimuli_distractor_trianglediamonds.svg	stimuli_target_trianglesquares.svg	26	yes	57	0	1310
6.6.1	win	2022-12-14	14:55:29	14:58:42	192148	615cee2b2f844e72c397977a	525592128	1	main_z	7	main_z	3	stimuli_target_squarediamonds.svg	stimuli_distractor_diamondtriangles.svg	8	yes	44	1	1024
6.6.1	win	2022-12-14	14:55:29	14:58:42	192148	615cee2b2f844e72c397977a	525592128	1	main_z	7	advance_on_keypress_ZEE	4	stimuli_target_squarediamonds.svg	stimuli_distractor_diamondtriangles.svg	8	yes	57	0	1025
6.6.1	win	2022-12-14	14:55:29	14:58:45	194789	615cee2b2f844e72c397977a	525592128	1	main_z	7	main_z	5	stimuli_target_squarediamonds.svg	stimuli_distractor_trianglediamonds.svg	4	yes	44	1	982
6.6.1	win	2022-12-14	14:55:29	14:58:45	194789	615cee2b2f844e72c397977a	525592128	1	main_z	7	advance_on_keypress_ZEE	6	stimuli_target_squarediamonds.svg	stimuli_distractor_trianglediamonds.svg	4	yes	57	0	875
6.6.1	win	2022-12-14	14:55:29	14:58:47	197204	615cee2b2f844e72c397977a	525592128	1	main_z	7	main_z	7	stimuli_distractor_diamondtriangles.svg	stimuli_target_diamondcircles.svg	31	yes	44	1	898
6.6.1	win	2022-12-14	14:55:29	14:58:47	197204	615cee2b2f844e72c397977a	525592128	1	main_z	7	advance_on_keypress_ZEE	8	stimuli_distractor_diamondtriangles.svg	stimuli_target_diamondcircles.svg	31	yes	57	0	785
6.6.1	win	2022-12-14	14:55:29	14:58:50	199507	615cee2b2f844e72c397977a	525592128	1	main_z	7	main_z	9	stimuli_distractor_diamondtriangles.svg	stimuli_target_circletriangles.svg	13	yes	44	1	867
6.6.1	win	2022-12-14	14:55:29	14:58:50	199507	615cee2b2f844e72c397977a	525592128	1	main_z	7	advance_on_keypress_ZEE	10	stimuli_distractor_diamondtriangles.svg	stimuli_target_circletriangles.svg	13	yes	57	0	800
6.6.1	win	2022-12-14	14:55:29	14:58:52	201864	615cee2b2f844e72c397977a	525592128	1	main_z	7	main_z	11	stimuli_distractor_diamondtriangles.svg	stimuli_target_squarediamonds.svg	16	yes	44	1	908
6.6.1	win	2022-12-14	14:55:29	14:58:52	201864	615cee2b2f844e72c397977a	525592128	1	main_z	7	advance_on_keypress_ZEE	12	stimuli_distractor_diamondtriangles.svg	stimuli_target_squarediamonds.svg	16	yes	57	0	858
6.6.1	win	2022-12-14	14:55:29	14:58:54	204246	615cee2b2f844e72c397977a	525592128	1	main_z	7	main_z	13	stimuli_distractor_trianglediamonds.svg	stimuli_target_circletriangles.svg	9	yes	44	1	890
6.6.1	win	2022-12-14	14:55:29	14:58:54	204246	615cee2b2f844e72c397977a	525592128	1	main_z	7	advance_on_keypress_ZEE	14	stimuli_distractor_trianglediamonds.svg	stimuli_target_circletriangles.svg	9	yes	57	0	784
6.6.1	win	2022-12-14	14:55:29	14:58:58	207672	615cee2b2f844e72c397977a	525592128	1	main_z	7	main_z	15	stimuli_distractor_diamondtriangles.svg	stimuli_distractor_diamondtriangles.svg	40	no	0	1	2000
6.6.1	win	2022-12-14	14:55:29	14:58:58	207672	615cee2b2f844e72c397977a	525592128	1	main_z	7	advance_on_keypress_ZEE	16	stimuli_distractor_diamondtriangles.svg	stimuli_distractor_diamondtriangles.svg	40	no	57	0	425
6.6.1	win	2022-12-14	14:55:29	14:59:00	209637	615cee2b2f844e72c397977a	525592128	1	main_z	7	main_z	17	stimuli_distractor_trianglediamonds.svg	stimuli_target_squaretriangles.svg	11	yes	44	1	899
6.6.1	win	2022-12-14	14:55:29	14:59:00	209637	615cee2b2f844e72c397977a	525592128	1	main_z	7	advance_on_keypress_ZEE	18	stimuli_distractor_trianglediamonds.svg	stimuli_target_squaretriangles.svg	11	yes	57	0	765
6.6.1	win	2022-12-14	14:55:29	14:59:03	213055	615cee2b2f844e72c397977a	525592128	1	main_z	7	main_z	19	stimuli_distractor_diamondtriangles.svg	stimuli_distractor_trianglediamonds.svg	37	no	0	1	2000
6.6.1	win	2022-12-14	14:55:29	14:59:03	213055	615cee2b2f844e72c397977a	525592128	1	main_z	7	advance_on_keypress_ZEE	20	stimuli_distractor_diamondtriangles.svg	stimuli_distractor_trianglediamonds.svg	37	no	57	0	649
6.6.1	win	2022-12-14	14:55:29	14:59:05	215248	615cee2b2f844e72c397977a	525592128	1	main_z	7	main_z	21	stimuli_distractor_trianglediamonds.svg	stimuli_target_trianglecircles.svg	25	yes	44	1	893
6.6.1	win	2022-12-14	14:55:29	14:59:05	215248	615cee2b2f844e72c397977a	525592128	1	main_z	7	advance_on_keypress_ZEE	22	stimuli_distractor_trianglediamonds.svg	stimuli_target_trianglecircles.svg	25	yes	57	0	579
6.6.1	win	2022-12-14	14:55:29	14:59:09	218454	615cee2b2f844e72c397977a	525592128	1	main_z	7	main_z	23	stimuli_distractor_diamondtriangles.svg	stimuli_distractor_trianglediamonds.svg	38	no	0	1	2000
6.6.1	win	2022-12-14	14:55:29	14:59:09	218454	615cee2b2f844e72c397977a	525592128	1	main_z	7	advance_on_keypress_ZEE	24	stimuli_distractor_diamondtriangles.svg	stimuli_distractor_trianglediamonds.svg	38	no	57	0	669
6.6.1	win	2022-12-14	14:55:29	14:59:11	220941	615cee2b2f844e72c397977a	525592128	1	main_z	7	main_z	25	stimuli_distractor_trianglediamonds.svg	stimuli_target_diamondcircles.svg	27	yes	44	1	1171
6.6.1	win	2022-12-14	14:55:29	14:59:11	220941	615cee2b2f844e72c397977a	525592128	1	main_z	7	advance_on_keypress_ZEE	26	stimuli_distractor_trianglediamonds.svg	stimuli_target_diamondcircles.svg	27	yes	57	0	526
6.6.1	win	2022-12-14	14:55:29	14:59:13	223034	615cee2b2f844e72c397977a	525592128	1	main_z	7	main_z	27	stimuli_target_circletriangles.svg	stimuli_distractor_trianglediamonds.svg	1	yes	44	1	931
6.6.1	win	2022-12-14	14:55:29	14:59:13	223034	615cee2b2f844e72c397977a	525592128	1	main_z	7	advance_on_keypress_ZEE	28	stimuli_target_circletriangles.svg	stimuli_distractor_trianglediamonds.svg	1	yes	57	0	496
6.6.1	win	2022-12-14	14:55:29	14:59:15	225071	615cee2b2f844e72c397977a	525592128	1	main_z	7	main_z	29	stimuli_target_squaretriangles.svg	stimuli_distractor_diamondtriangles.svg	7	yes	44	1	901
6.6.1	win	2022-12-14	14:55:29	14:59:15	225071	615cee2b2f844e72c397977a	525592128	1	main_z	7	advance_on_keypress_ZEE	30	stimuli_target_squaretriangles.svg	stimuli_distractor_diamondtriangles.svg	7	yes	57	0	735
6.6.1	win	2022-12-14	14:55:29	14:59:18	228345	615cee2b2f844e72c397977a	525592128	1	main_z	7	main_z	31	stimuli_target_trianglesquares.svg	stimuli_distractor_trianglediamonds.svg	18	yes	44	1	1892
6.6.1	win	2022-12-14	14:55:29	14:59:18	228345	615cee2b2f844e72c397977a	525592128	1	main_z	7	advance_on_keypress_ZEE	32	stimuli_target_trianglesquares.svg	stimuli_distractor_trianglediamonds.svg	18	yes	57	0	530
6.6.1	win	2022-12-14	14:55:29	14:59:22	231519	615cee2b2f844e72c397977a	525592128	1	main_z	7	main_z	33	stimuli_distractor_trianglediamonds.svg	stimuli_distractor_diamondtriangles.svg	36	no	0	1	2000
6.6.1	win	2022-12-14	14:55:29	14:59:22	231519	615cee2b2f844e72c397977a	525592128	1	main_z	7	advance_on_keypress_ZEE	34	stimuli_distractor_trianglediamonds.svg	stimuli_distractor_diamondtriangles.svg	36	no	57	0	338
6.6.1	win	2022-12-14	14:55:29	14:59:24	233644	615cee2b2f844e72c397977a	525592128	1	main_z	7	main_z	35	stimuli_target_diamondcircles.svg	stimuli_distractor_diamondtriangles.svg	23	yes	44	1	1142
6.6.1	win	2022-12-14	14:55:29	14:59:24	233644	615cee2b2f844e72c397977a	525592128	1	main_z	7	advance_on_keypress_ZEE	36	stimuli_target_diamondcircles.svg	stimuli_distractor_diamondtriangles.svg	23	yes	57	0	469
6.6.1	win	2022-12-14	14:55:29	14:59:27	236752	615cee2b2f844e72c397977a	525592128	1	main_z	7	main_z	37	stimuli_distractor_diamondtriangles.svg	stimuli_distractor_diamondtriangles.svg	39	no	0	1	2000
6.6.1	win	2022-12-14	14:55:29	14:59:27	236752	615cee2b2f844e72c397977a	525592128	1	main_z	7	advance_on_keypress_ZEE	38	stimuli_distractor_diamondtriangles.svg	stimuli_distractor_diamondtriangles.svg	39	no	57	0	1221
6.6.1	win	2022-12-14	14:55:29	14:59:30	239499	615cee2b2f844e72c397977a	525592128	1	main_z	7	main_z	39	stimuli_distractor_diamondtriangles.svg	stimuli_target_squaretriangles.svg	15	yes	44	1	881
6.6.1	win	2022-12-14	14:55:29	14:59:30	239499	615cee2b2f844e72c397977a	525592128	1	main_z	7	advance_on_keypress_ZEE	40	stimuli_distractor_diamondtriangles.svg	stimuli_target_squaretriangles.svg	15	yes	57	0	504
6.6.1	win	2022-12-14	14:55:29	14:59:32	241530	615cee2b2f844e72c397977a	525592128	1	main_z	7	main_z	41	stimuli_target_circlediamonds.svg	stimuli_distractor_trianglediamonds.svg	2	yes	44	1	879
6.6.1	win	2022-12-14	14:55:29	14:59:32	241530	615cee2b2f844e72c397977a	525592128	1	main_z	7	advance_on_keypress_ZEE	42	stimuli_target_circlediamonds.svg	stimuli_distractor_trianglediamonds.svg	2	yes	57	0	592
6.6.1	win	2022-12-14	14:55:29	14:59:34	243598	615cee2b2f844e72c397977a	525592128	1	main_z	7	main_z	43	stimuli_distractor_diamondtriangles.svg	stimuli_target_trianglecircles.svg	29	yes	44	1	848
6.6.1	win	2022-12-14	14:55:29	14:59:34	243598	615cee2b2f844e72c397977a	525592128	1	main_z	7	advance_on_keypress_ZEE	44	stimuli_distractor_diamondtriangles.svg	stimuli_target_trianglecircles.svg	29	yes	57	0	505
6.6.1	win	2022-12-14	14:55:29	14:59:36	245665	615cee2b2f844e72c397977a	525592128	1	main_z	7	main_z	45	stimuli_target_diamondcircles.svg	stimuli_distractor_trianglediamonds.svg	19	yes	44	1	915
6.6.1	win	2022-12-14	14:55:29	14:59:36	245665	615cee2b2f844e72c397977a	525592128	1	main_z	7	advance_on_keypress_ZEE	46	stimuli_target_diamondcircles.svg	stimuli_distractor_trianglediamonds.svg	19	yes	57	0	561
6.6.1	win	2022-12-14	14:55:29	14:59:38	247799	615cee2b2f844e72c397977a	525592128	1	main_z	7	main_z	47	stimuli_target_diamondsquares.svg	stimuli_distractor_diamondtriangles.svg	24	yes	44	1	932
6.6.1	win	2022-12-14	14:55:29	14:59:38	247799	615cee2b2f844e72c397977a	525592128	1	main_z	7	advance_on_keypress_ZEE	48	stimuli_target_diamondsquares.svg	stimuli_distractor_diamondtriangles.svg	24	yes	57	0	555
6.6.1	win	2022-12-14	14:55:29	14:59:40	249916	615cee2b2f844e72c397977a	525592128	1	main_z	7	main_z	49	stimuli_target_circletriangles.svg	stimuli_distractor_diamondtriangles.svg	5	yes	44	1	916
6.6.1	win	2022-12-14	14:55:29	14:59:40	249916	615cee2b2f844e72c397977a	525592128	1	main_z	7	advance_on_keypress_ZEE	50	stimuli_target_circletriangles.svg	stimuli_distractor_diamondtriangles.svg	5	yes	57	0	591
6.6.1	win	2022-12-14	14:55:29	14:59:42	251951	615cee2b2f844e72c397977a	525592128	1	main_z	7	main_z	51	stimuli_target_trianglecircles.svg	stimuli_distractor_trianglediamonds.svg	17	yes	44	1	801
6.6.1	win	2022-12-14	14:55:29	14:59:42	251951	615cee2b2f844e72c397977a	525592128	1	main_z	7	advance_on_keypress_ZEE	52	stimuli_target_trianglecircles.svg	stimuli_distractor_trianglediamonds.svg	17	yes	57	0	636
6.6.1	win	2022-12-14	14:55:29	14:59:45	254545	615cee2b2f844e72c397977a	525592128	1	main_z	7	main_z	53	stimuli_target_trianglesquares.svg	stimuli_distractor_diamondtriangles.svg	22	yes	44	1	1312
6.6.1	win	2022-12-14	14:55:29	14:59:45	254545	615cee2b2f844e72c397977a	525592128	1	main_z	7	advance_on_keypress_ZEE	54	stimuli_target_trianglesquares.svg	stimuli_distractor_diamondtriangles.svg	22	yes	57	0	475
6.6.1	win	2022-12-14	14:55:29	14:59:47	256562	615cee2b2f844e72c397977a	525592128	1	main_z	7	main_z	55	stimuli_distractor_trianglediamonds.svg	stimuli_target_diamondsquares.svg	28	yes	44	1	913
6.6.1	win	2022-12-14	14:55:29	14:59:47	256562	615cee2b2f844e72c397977a	525592128	1	main_z	7	advance_on_keypress_ZEE	56	stimuli_distractor_trianglediamonds.svg	stimuli_target_diamondsquares.svg	28	yes	57	0	619
6.6.1	win	2022-12-14	14:55:29	14:59:49	258668	615cee2b2f844e72c397977a	525592128	1	main_z	7	main_z	57	stimuli_target_trianglecircles.svg	stimuli_distractor_diamondtriangles.svg	21	yes	44	1	853
6.6.1	win	2022-12-14	14:55:29	14:59:49	258668	615cee2b2f844e72c397977a	525592128	1	main_z	7	advance_on_keypress_ZEE	58	stimuli_target_trianglecircles.svg	stimuli_distractor_diamondtriangles.svg	21	yes	57	0	593
6.6.1	win	2022-12-14	14:55:29	14:59:51	260703	615cee2b2f844e72c397977a	525592128	1	main_z	7	main_z	59	stimuli_target_squaretriangles.svg	stimuli_distractor_trianglediamonds.svg	3	yes	44	1	804
6.6.1	win	2022-12-14	14:55:29	14:59:51	260703	615cee2b2f844e72c397977a	525592128	1	main_z	7	advance_on_keypress_ZEE	60	stimuli_target_squaretriangles.svg	stimuli_distractor_trianglediamonds.svg	3	yes	57	0	553
6.6.1	win	2022-12-14	14:55:29	14:59:53	262811	615cee2b2f844e72c397977a	525592128	1	main_z	7	main_z	61	stimuli_distractor_diamondtriangles.svg	stimuli_target_trianglesquares.svg	30	yes	44	1	913
6.6.1	win	2022-12-14	14:55:29	14:59:53	262811	615cee2b2f844e72c397977a	525592128	1	main_z	7	advance_on_keypress_ZEE	62	stimuli_distractor_diamondtriangles.svg	stimuli_target_trianglesquares.svg	30	yes	57	0	640
6.6.1	win	2022-12-14	14:55:29	14:59:56	266081	615cee2b2f844e72c397977a	525592128	1	main_z	7	main_z	63	stimuli_distractor_trianglediamonds.svg	stimuli_distractor_trianglediamonds.svg	34	no	0	1	2000
6.6.1	win	2022-12-14	14:55:29	14:59:56	266081	615cee2b2f844e72c397977a	525592128	1	main_z	7	advance_on_keypress_ZEE	64	stimuli_distractor_trianglediamonds.svg	stimuli_distractor_trianglediamonds.svg	34	no	57	0	274
6.6.1	win	2022-12-14	14:55:29	14:59:58	268265	615cee2b2f844e72c397977a	525592128	1	main_z	7	main_z	65	stimuli_distractor_diamondtriangles.svg	stimuli_target_diamondsquares.svg	32	yes	44	1	1268
6.6.1	win	2022-12-14	14:55:29	14:59:58	268265	615cee2b2f844e72c397977a	525592128	1	main_z	7	advance_on_keypress_ZEE	66	stimuli_distractor_diamondtriangles.svg	stimuli_target_diamondsquares.svg	32	yes	57	0	435
6.6.1	win	2022-12-14	14:55:29	15:00:01	271347	615cee2b2f844e72c397977a	525592128	1	main_z	7	main_z	67	stimuli_distractor_trianglediamonds.svg	stimuli_distractor_diamondtriangles.svg	35	no	0	1	2000
6.6.1	win	2022-12-14	14:55:29	15:00:01	271347	615cee2b2f844e72c397977a	525592128	1	main_z	7	advance_on_keypress_ZEE	68	stimuli_distractor_trianglediamonds.svg	stimuli_distractor_diamondtriangles.svg	35	no	57	0	453
6.6.1	win	2022-12-14	14:55:29	15:00:03	273350	615cee2b2f844e72c397977a	525592128	1	main_z	7	main_z	69	stimuli_target_circlediamonds.svg	stimuli_distractor_diamondtriangles.svg	6	yes	44	1	903
6.6.1	win	2022-12-14	14:55:29	15:00:03	273350	615cee2b2f844e72c397977a	525592128	1	main_z	7	advance_on_keypress_ZEE	70	stimuli_target_circlediamonds.svg	stimuli_distractor_diamondtriangles.svg	6	yes	57	0	377
6.6.1	win	2022-12-14	14:55:29	15:00:05	275237	615cee2b2f844e72c397977a	525592128	1	main_z	7	main_z	71	stimuli_distractor_diamondtriangles.svg	stimuli_target_circlediamonds.svg	14	yes	44	1	874
6.6.1	win	2022-12-14	14:55:29	15:00:05	275237	615cee2b2f844e72c397977a	525592128	1	main_z	7	advance_on_keypress_ZEE	72	stimuli_distractor_diamondtriangles.svg	stimuli_target_circlediamonds.svg	14	yes	57	0	371
6.6.1	win	2022-12-14	14:55:29	15:00:07	277184	615cee2b2f844e72c397977a	525592128	1	main_z	7	main_z	73	stimuli_target_diamondsquares.svg	stimuli_distractor_trianglediamonds.svg	20	yes	44	1	938
6.6.1	win	2022-12-14	14:55:29	15:00:07	277184	615cee2b2f844e72c397977a	525592128	1	main_z	7	advance_on_keypress_ZEE	74	stimuli_target_diamondsquares.svg	stimuli_distractor_trianglediamonds.svg	20	yes	57	0	353
6.6.1	win	2022-12-14	14:55:29	15:00:09	279023	615cee2b2f844e72c397977a	525592128	1	main_z	7	main_z	75	stimuli_distractor_trianglediamonds.svg	stimuli_target_circlediamonds.svg	10	yes	44	1	844
6.6.1	win	2022-12-14	14:55:29	15:00:09	279023	615cee2b2f844e72c397977a	525592128	1	main_z	7	advance_on_keypress_ZEE	76	stimuli_distractor_trianglediamonds.svg	stimuli_target_circlediamonds.svg	10	yes	57	0	380
6.6.1	win	2022-12-14	14:55:29	15:00:12	282029	615cee2b2f844e72c397977a	525592128	1	main_z	7	main_z	77	stimuli_distractor_trianglediamonds.svg	stimuli_distractor_trianglediamonds.svg	33	no	0	1	2000
6.6.1	win	2022-12-14	14:55:29	15:00:12	282029	615cee2b2f844e72c397977a	525592128	1	main_z	7	advance_on_keypress_ZEE	78	stimuli_distractor_trianglediamonds.svg	stimuli_distractor_trianglediamonds.svg	33	no	57	0	324
6.6.1	win	2022-12-14	14:55:29	15:00:15	284995	615cee2b2f844e72c397977a	525592128	1	main_z	7	main_z	79	stimuli_distractor_trianglediamonds.svg	stimuli_target_squarediamonds.svg	12	yes	0	0	2000
6.6.1	win	2022-12-14	14:55:29	15:00:15	284995	615cee2b2f844e72c397977a	525592128	1	main_z	7	advance_on_keypress_ZEE	80	stimuli_distractor_trianglediamonds.svg	stimuli_target_squarediamonds.svg	12	yes	57	0	746
6.6.1	win	2022-12-14	14:55:29	15:00:17	287302	615cee2b2f844e72c397977a	525592128	1	main_z	7	main_z	81	stimuli_distractor_trianglediamonds.svg	stimuli_target_trianglesquares.svg	26	yes	44	1	924
6.6.1	win	2022-12-14	14:55:29	15:00:17	287302	615cee2b2f844e72c397977a	525592128	1	main_z	7	advance_on_keypress_ZEE	82	stimuli_distractor_trianglediamonds.svg	stimuli_target_trianglesquares.svg	26	yes	57	0	315
6.6.1	win	2022-12-14	14:55:29	15:00:19	289156	615cee2b2f844e72c397977a	525592128	1	main_z	7	main_z	83	stimuli_target_circlediamonds.svg	stimuli_distractor_diamondtriangles.svg	6	yes	44	1	896
6.6.1	win	2022-12-14	14:55:29	15:00:19	289156	615cee2b2f844e72c397977a	525592128	1	main_z	7	advance_on_keypress_ZEE	84	stimuli_target_circlediamonds.svg	stimuli_distractor_diamondtriangles.svg	6	yes	57	0	322
6.6.1	win	2022-12-14	14:55:29	15:00:22	292111	615cee2b2f844e72c397977a	525592128	1	main_z	7	main_z	85	stimuli_target_squarediamonds.svg	stimuli_distractor_diamondtriangles.svg	8	yes	0	0	2000
6.6.1	win	2022-12-14	14:55:29	15:00:22	292111	615cee2b2f844e72c397977a	525592128	1	main_z	7	advance_on_keypress_ZEE	86	stimuli_target_squarediamonds.svg	stimuli_distractor_diamondtriangles.svg	8	yes	57	0	313
6.6.1	win	2022-12-14	14:55:29	15:00:24	293968	615cee2b2f844e72c397977a	525592128	1	main_z	7	main_z	87	stimuli_target_circlediamonds.svg	stimuli_distractor_trianglediamonds.svg	2	yes	44	1	908
6.6.1	win	2022-12-14	14:55:29	15:00:24	293968	615cee2b2f844e72c397977a	525592128	1	main_z	7	advance_on_keypress_ZEE	88	stimuli_target_circlediamonds.svg	stimuli_distractor_trianglediamonds.svg	2	yes	57	0	309
6.6.1	win	2022-12-14	14:55:29	15:00:26	295884	615cee2b2f844e72c397977a	525592128	1	main_z	7	main_z	89	stimuli_target_circletriangles.svg	stimuli_distractor_trianglediamonds.svg	1	yes	44	1	975
6.6.1	win	2022-12-14	14:55:29	15:00:26	295884	615cee2b2f844e72c397977a	525592128	1	main_z	7	advance_on_keypress_ZEE	90	stimuli_target_circletriangles.svg	stimuli_distractor_trianglediamonds.svg	1	yes	57	0	302
6.6.1	win	2022-12-14	14:55:29	15:00:28	297721	615cee2b2f844e72c397977a	525592128	1	main_z	7	main_z	91	stimuli_distractor_trianglediamonds.svg	stimuli_target_circletriangles.svg	9	yes	44	1	894
6.6.1	win	2022-12-14	14:55:29	15:00:28	297721	615cee2b2f844e72c397977a	525592128	1	main_z	7	advance_on_keypress_ZEE	92	stimuli_distractor_trianglediamonds.svg	stimuli_target_circletriangles.svg	9	yes	57	0	305
6.6.1	win	2022-12-14	14:55:29	15:00:30	299539	615cee2b2f844e72c397977a	525592128	1	main_z	7	main_z	93	stimuli_target_trianglecircles.svg	stimuli_distractor_diamondtriangles.svg	21	yes	44	1	879
6.6.1	win	2022-12-14	14:55:29	15:00:30	299539	615cee2b2f844e72c397977a	525592128	1	main_z	7	advance_on_keypress_ZEE	94	stimuli_target_trianglecircles.svg	stimuli_distractor_diamondtriangles.svg	21	yes	57	0	323
6.6.1	win	2022-12-14	14:55:29	15:00:32	301474	615cee2b2f844e72c397977a	525592128	1	main_z	7	main_z	95	stimuli_target_trianglesquares.svg	stimuli_distractor_diamondtriangles.svg	22	yes	44	1	981
6.6.1	win	2022-12-14	14:55:29	15:00:32	301474	615cee2b2f844e72c397977a	525592128	1	main_z	7	advance_on_keypress_ZEE	96	stimuli_target_trianglesquares.svg	stimuli_distractor_diamondtriangles.svg	22	yes	57	0	337
6.6.1	win	2022-12-14	14:55:29	15:00:35	304459	615cee2b2f844e72c397977a	525592128	1	main_z	7	main_z	97	stimuli_distractor_trianglediamonds.svg	stimuli_distractor_trianglediamonds.svg	34	no	0	1	2000
6.6.1	win	2022-12-14	14:55:29	15:00:35	304459	615cee2b2f844e72c397977a	525592128	1	main_z	7	advance_on_keypress_ZEE	98	stimuli_distractor_trianglediamonds.svg	stimuli_distractor_trianglediamonds.svg	34	no	57	0	314
6.6.1	win	2022-12-14	14:55:29	15:00:36	306355	615cee2b2f844e72c397977a	525592128	1	main_z	7	main_z	99	stimuli_distractor_trianglediamonds.svg	stimuli_target_diamondcircles.svg	27	yes	44	1	930
6.6.1	win	2022-12-14	14:55:29	15:00:36	306355	615cee2b2f844e72c397977a	525592128	1	main_z	7	advance_on_keypress_ZEE	100	stimuli_distractor_trianglediamonds.svg	stimuli_target_diamondcircles.svg	27	yes	57	0	291
6.6.1	win	2022-12-14	14:55:29	15:00:38	308379	615cee2b2f844e72c397977a	525592128	1	main_z	7	main_z	101	stimuli_target_squaretriangles.svg	stimuli_distractor_trianglediamonds.svg	3	yes	44	1	1103
6.6.1	win	2022-12-14	14:55:29	15:00:38	308379	615cee2b2f844e72c397977a	525592128	1	main_z	7	advance_on_keypress_ZEE	102	stimuli_target_squaretriangles.svg	stimuli_distractor_trianglediamonds.svg	3	yes	57	0	301
6.6.1	win	2022-12-14	14:55:29	15:00:40	310250	615cee2b2f844e72c397977a	525592128	1	main_z	7	main_z	103	stimuli_distractor_trianglediamonds.svg	stimuli_target_trianglecircles.svg	25	yes	44	1	925
6.6.1	win	2022-12-14	14:55:29	15:00:40	310250	615cee2b2f844e72c397977a	525592128	1	main_z	7	advance_on_keypress_ZEE	104	stimuli_distractor_trianglediamonds.svg	stimuli_target_trianglecircles.svg	25	yes	57	0	329
6.6.1	win	2022-12-14	14:55:29	15:00:42	312180	615cee2b2f844e72c397977a	525592128	1	main_z	7	main_z	105	stimuli_distractor_diamondtriangles.svg	stimuli_target_trianglecircles.svg	29	yes	44	1	972
6.6.1	win	2022-12-14	14:55:29	15:00:42	312180	615cee2b2f844e72c397977a	525592128	1	main_z	7	advance_on_keypress_ZEE	106	stimuli_distractor_diamondtriangles.svg	stimuli_target_trianglecircles.svg	29	yes	57	0	346
6.6.1	win	2022-12-14	14:55:29	15:00:45	315158	615cee2b2f844e72c397977a	525592128	1	main_z	7	main_z	107	stimuli_distractor_trianglediamonds.svg	stimuli_distractor_diamondtriangles.svg	35	no	0	1	2000
6.6.1	win	2022-12-14	14:55:29	15:00:45	315158	615cee2b2f844e72c397977a	525592128	1	main_z	7	advance_on_keypress_ZEE	108	stimuli_distractor_trianglediamonds.svg	stimuli_distractor_diamondtriangles.svg	35	no	57	0	777
6.6.1	win	2022-12-14	14:55:29	15:00:49	318574	615cee2b2f844e72c397977a	525592128	1	main_z	7	main_z	109	stimuli_distractor_diamondtriangles.svg	stimuli_distractor_diamondtriangles.svg	40	no	0	1	2000
6.6.1	win	2022-12-14	14:55:29	15:00:49	318574	615cee2b2f844e72c397977a	525592128	1	main_z	7	advance_on_keypress_ZEE	110	stimuli_distractor_diamondtriangles.svg	stimuli_distractor_diamondtriangles.svg	40	no	57	0	400
6.6.1	win	2022-12-14	14:55:29	15:00:51	320535	615cee2b2f844e72c397977a	525592128	1	main_z	7	main_z	111	stimuli_target_diamondsquares.svg	stimuli_distractor_trianglediamonds.svg	20	yes	44	1	911
6.6.1	win	2022-12-14	14:55:29	15:00:51	320535	615cee2b2f844e72c397977a	525592128	1	main_z	7	advance_on_keypress_ZEE	112	stimuli_target_diamondsquares.svg	stimuli_distractor_trianglediamonds.svg	20	yes	57	0	288
6.6.1	win	2022-12-14	14:55:29	15:00:52	322307	615cee2b2f844e72c397977a	525592128	1	main_z	7	main_z	113	stimuli_target_trianglesquares.svg	stimuli_distractor_trianglediamonds.svg	18	yes	44	1	849
6.6.1	win	2022-12-14	14:55:29	15:00:52	322307	615cee2b2f844e72c397977a	525592128	1	main_z	7	advance_on_keypress_ZEE	114	stimuli_target_trianglesquares.svg	stimuli_distractor_trianglediamonds.svg	18	yes	57	0	288
6.6.1	win	2022-12-14	14:55:29	15:00:55	325240	615cee2b2f844e72c397977a	525592128	1	main_z	7	main_z	115	stimuli_distractor_trianglediamonds.svg	stimuli_distractor_trianglediamonds.svg	33	no	0	1	2000
6.6.1	win	2022-12-14	14:55:29	15:00:55	325240	615cee2b2f844e72c397977a	525592128	1	main_z	7	advance_on_keypress_ZEE	116	stimuli_distractor_trianglediamonds.svg	stimuli_distractor_trianglediamonds.svg	33	no	57	0	477
6.6.1	win	2022-12-14	14:55:29	15:00:57	327238	615cee2b2f844e72c397977a	525592128	1	main_z	7	main_z	117	stimuli_distractor_trianglediamonds.svg	stimuli_target_squaretriangles.svg	11	yes	44	1	882
6.6.1	win	2022-12-14	14:55:29	15:00:57	327238	615cee2b2f844e72c397977a	525592128	1	main_z	7	advance_on_keypress_ZEE	118	stimuli_distractor_trianglediamonds.svg	stimuli_target_squaretriangles.svg	11	yes	57	0	244
6.6.1	win	2022-12-14	14:55:29	15:00:59	328973	615cee2b2f844e72c397977a	525592128	1	main_z	7	main_z	119	stimuli_target_squaretriangles.svg	stimuli_distractor_diamondtriangles.svg	7	yes	44	1	851
6.6.1	win	2022-12-14	14:55:29	15:00:59	328973	615cee2b2f844e72c397977a	525592128	1	main_z	7	advance_on_keypress_ZEE	120	stimuli_target_squaretriangles.svg	stimuli_distractor_diamondtriangles.svg	7	yes	57	0	291
6.6.1	win	2022-12-14	14:55:29	15:01:01	330711	615cee2b2f844e72c397977a	525592128	1	main_z	7	main_z	121	stimuli_distractor_trianglediamonds.svg	stimuli_target_diamondsquares.svg	28	yes	44	1	805
6.6.1	win	2022-12-14	14:55:29	15:01:01	330711	615cee2b2f844e72c397977a	525592128	1	main_z	7	advance_on_keypress_ZEE	122	stimuli_distractor_trianglediamonds.svg	stimuli_target_diamondsquares.svg	28	yes	57	0	303
6.6.1	win	2022-12-14	14:55:29	15:01:03	332599	615cee2b2f844e72c397977a	525592128	1	main_z	7	main_z	123	stimuli_target_diamondsquares.svg	stimuli_distractor_diamondtriangles.svg	24	yes	44	1	944
6.6.1	win	2022-12-14	14:55:29	15:01:03	332599	615cee2b2f844e72c397977a	525592128	1	main_z	7	advance_on_keypress_ZEE	124	stimuli_target_diamondsquares.svg	stimuli_distractor_diamondtriangles.svg	24	yes	57	0	329
6.6.1	win	2022-12-14	14:55:29	15:01:05	334990	615cee2b2f844e72c397977a	525592128	1	main_z	7	main_z	125	stimuli_distractor_diamondtriangles.svg	stimuli_target_circlediamonds.svg	14	yes	44	1	1435
6.6.1	win	2022-12-14	14:55:29	15:01:05	334990	615cee2b2f844e72c397977a	525592128	1	main_z	7	advance_on_keypress_ZEE	126	stimuli_distractor_diamondtriangles.svg	stimuli_target_circlediamonds.svg	14	yes	57	0	273
6.6.1	win	2022-12-14	14:55:29	15:01:08	337905	615cee2b2f844e72c397977a	525592128	1	main_z	7	main_z	127	stimuli_distractor_trianglediamonds.svg	stimuli_target_squarediamonds.svg	12	yes	0	0	2000
6.6.1	win	2022-12-14	14:55:29	15:01:08	337905	615cee2b2f844e72c397977a	525592128	1	main_z	7	advance_on_keypress_ZEE	128	stimuli_distractor_trianglediamonds.svg	stimuli_target_squarediamonds.svg	12	yes	57	0	334
6.6.1	win	2022-12-14	14:55:29	15:01:10	339777	615cee2b2f844e72c397977a	525592128	1	main_z	7	main_z	129	stimuli_distractor_diamondtriangles.svg	stimuli_target_diamondcircles.svg	31	yes	44	1	890
6.6.1	win	2022-12-14	14:55:29	15:01:10	339777	615cee2b2f844e72c397977a	525592128	1	main_z	7	advance_on_keypress_ZEE	130	stimuli_distractor_diamondtriangles.svg	stimuli_target_diamondcircles.svg	31	yes	57	0	276
6.6.1	win	2022-12-14	14:55:29	15:01:12	341577	615cee2b2f844e72c397977a	525592128	1	main_z	7	main_z	131	stimuli_distractor_diamondtriangles.svg	stimuli_target_squarediamonds.svg	16	yes	44	1	890
6.6.1	win	2022-12-14	14:55:29	15:01:12	341577	615cee2b2f844e72c397977a	525592128	1	main_z	7	advance_on_keypress_ZEE	132	stimuli_distractor_diamondtriangles.svg	stimuli_target_squarediamonds.svg	16	yes	57	0	281
6.6.1	win	2022-12-14	14:55:29	15:01:15	344504	615cee2b2f844e72c397977a	525592128	1	main_z	7	main_z	133	stimuli_distractor_diamondtriangles.svg	stimuli_distractor_diamondtriangles.svg	39	no	0	1	2000
6.6.1	win	2022-12-14	14:55:29	15:01:15	344504	615cee2b2f844e72c397977a	525592128	1	main_z	7	advance_on_keypress_ZEE	134	stimuli_distractor_diamondtriangles.svg	stimuli_distractor_diamondtriangles.svg	39	no	57	0	318
6.6.1	win	2022-12-14	14:55:29	15:01:16	346365	615cee2b2f844e72c397977a	525592128	1	main_z	7	main_z	135	stimuli_target_diamondcircles.svg	stimuli_distractor_trianglediamonds.svg	19	yes	44	1	894
6.6.1	win	2022-12-14	14:55:29	15:01:16	346365	615cee2b2f844e72c397977a	525592128	1	main_z	7	advance_on_keypress_ZEE	136	stimuli_target_diamondcircles.svg	stimuli_distractor_trianglediamonds.svg	19	yes	57	0	269
6.6.1	win	2022-12-14	14:55:29	15:01:18	348117	615cee2b2f844e72c397977a	525592128	1	main_z	7	main_z	137	stimuli_target_squarediamonds.svg	stimuli_distractor_trianglediamonds.svg	4	yes	44	1	847
6.6.1	win	2022-12-14	14:55:29	15:01:18	348117	615cee2b2f844e72c397977a	525592128	1	main_z	7	advance_on_keypress_ZEE	138	stimuli_target_squarediamonds.svg	stimuli_distractor_trianglediamonds.svg	4	yes	57	0	286
6.6.1	win	2022-12-14	14:55:29	15:01:20	349895	615cee2b2f844e72c397977a	525592128	1	main_z	7	main_z	139	stimuli_target_diamondcircles.svg	stimuli_distractor_diamondtriangles.svg	23	yes	44	1	843
6.6.1	win	2022-12-14	14:55:29	15:01:20	349895	615cee2b2f844e72c397977a	525592128	1	main_z	7	advance_on_keypress_ZEE	140	stimuli_target_diamondcircles.svg	stimuli_distractor_diamondtriangles.svg	23	yes	57	0	268
6.6.1	win	2022-12-14	14:55:29	15:01:22	351605	615cee2b2f844e72c397977a	525592128	1	main_z	7	main_z	141	stimuli_target_circletriangles.svg	stimuli_distractor_diamondtriangles.svg	5	yes	44	1	802
6.6.1	win	2022-12-14	14:55:29	15:01:22	351605	615cee2b2f844e72c397977a	525592128	1	main_z	7	advance_on_keypress_ZEE	142	stimuli_target_circletriangles.svg	stimuli_distractor_diamondtriangles.svg	5	yes	57	0	273
6.6.1	win	2022-12-14	14:55:29	15:01:25	354519	615cee2b2f844e72c397977a	525592128	1	main_z	7	main_z	143	stimuli_distractor_trianglediamonds.svg	stimuli_distractor_diamondtriangles.svg	36	no	0	1	2000
6.6.1	win	2022-12-14	14:55:29	15:01:25	354519	615cee2b2f844e72c397977a	525592128	1	main_z	7	advance_on_keypress_ZEE	144	stimuli_distractor_trianglediamonds.svg	stimuli_distractor_diamondtriangles.svg	36	no	57	0	472
6.6.1	win	2022-12-14	14:55:29	15:01:28	357636	615cee2b2f844e72c397977a	525592128	1	main_z	7	main_z	145	stimuli_distractor_diamondtriangles.svg	stimuli_distractor_trianglediamonds.svg	38	no	0	1	2000
6.6.1	win	2022-12-14	14:55:29	15:01:28	357636	615cee2b2f844e72c397977a	525592128	1	main_z	7	advance_on_keypress_ZEE	146	stimuli_distractor_diamondtriangles.svg	stimuli_distractor_trianglediamonds.svg	38	no	57	0	299
6.6.1	win	2022-12-14	14:55:29	15:01:30	359477	615cee2b2f844e72c397977a	525592128	1	main_z	7	main_z	147	stimuli_distractor_diamondtriangles.svg	stimuli_target_circletriangles.svg	13	yes	44	1	891
6.6.1	win	2022-12-14	14:55:29	15:01:30	359477	615cee2b2f844e72c397977a	525592128	1	main_z	7	advance_on_keypress_ZEE	148	stimuli_distractor_diamondtriangles.svg	stimuli_target_circletriangles.svg	13	yes	57	0	265
6.6.1	win	2022-12-14	14:55:29	15:01:32	362385	615cee2b2f844e72c397977a	525592128	1	main_z	7	main_z	149	stimuli_distractor_diamondtriangles.svg	stimuli_distractor_trianglediamonds.svg	37	no	0	1	2000
6.6.1	win	2022-12-14	14:55:29	15:01:32	362385	615cee2b2f844e72c397977a	525592128	1	main_z	7	advance_on_keypress_ZEE	150	stimuli_distractor_diamondtriangles.svg	stimuli_distractor_trianglediamonds.svg	37	no	57	0	472
6.6.1	win	2022-12-14	14:55:29	15:01:34	364352	615cee2b2f844e72c397977a	525592128	1	main_z	7	main_z	151	stimuli_distractor_diamondtriangles.svg	stimuli_target_squaretriangles.svg	15	yes	44	1	851
6.6.1	win	2022-12-14	14:55:29	15:01:34	364352	615cee2b2f844e72c397977a	525592128	1	main_z	7	advance_on_keypress_ZEE	152	stimuli_distractor_diamondtriangles.svg	stimuli_target_squaretriangles.svg	15	yes	57	0	230
6.6.1	win	2022-12-14	14:55:29	15:01:36	366004	615cee2b2f844e72c397977a	525592128	1	main_z	7	main_z	153	stimuli_target_trianglecircles.svg	stimuli_distractor_trianglediamonds.svg	17	yes	44	1	769
6.6.1	win	2022-12-14	14:55:29	15:01:36	366004	615cee2b2f844e72c397977a	525592128	1	main_z	7	advance_on_keypress_ZEE	154	stimuli_target_trianglecircles.svg	stimuli_distractor_trianglediamonds.svg	17	yes	57	0	311
6.6.1	win	2022-12-14	14:55:29	15:01:38	367882	615cee2b2f844e72c397977a	525592128	1	main_z	7	main_z	155	stimuli_distractor_diamondtriangles.svg	stimuli_target_trianglesquares.svg	30	yes	44	1	931
6.6.1	win	2022-12-14	14:55:29	15:01:38	367882	615cee2b2f844e72c397977a	525592128	1	main_z	7	advance_on_keypress_ZEE	156	stimuli_distractor_diamondtriangles.svg	stimuli_target_trianglesquares.svg	30	yes	57	0	278
6.6.1	win	2022-12-14	14:55:29	15:01:40	369578	615cee2b2f844e72c397977a	525592128	1	main_z	7	main_z	157	stimuli_distractor_trianglediamonds.svg	stimuli_target_circlediamonds.svg	10	yes	44	1	777
6.6.1	win	2022-12-14	14:55:29	15:01:40	369578	615cee2b2f844e72c397977a	525592128	1	main_z	7	advance_on_keypress_ZEE	158	stimuli_distractor_trianglediamonds.svg	stimuli_target_circlediamonds.svg	10	yes	57	0	310
6.6.1	win	2022-12-14	14:55:29	15:01:42	371463	615cee2b2f844e72c397977a	525592128	1	main_z	7	main_z	159	stimuli_distractor_diamondtriangles.svg	stimuli_target_diamondsquares.svg	32	yes	44	1	946
6.6.1	win	2022-12-14	14:55:29	15:01:42	371463	615cee2b2f844e72c397977a	525592128	1	main_z	7	advance_on_keypress_ZEE	160	stimuli_distractor_diamondtriangles.svg	stimuli_target_diamondsquares.svg	32	yes	57	0	261
6.6.1	win	2022-12-14	14:55:29	15:02:08	398182	615cee2b2f844e72c397977a	525592128	1	practice_slash	9	practice_slash	1	stimuli_distractor_diamondtriangles.svg	stimuli_distractor_diamondtriangles.svg	13	no	0	1	2000
6.6.1	win	2022-12-14	14:55:29	15:02:08	398182	615cee2b2f844e72c397977a	525592128	1	practice_slash	9	advance_on_keypress_SLASH	2	stimuli_distractor_diamondtriangles.svg	stimuli_distractor_diamondtriangles.svg	13	no	57	0	646
6.6.1	win	2022-12-14	14:55:29	15:02:12	401407	615cee2b2f844e72c397977a	525592128	1	practice_slash	9	practice_slash	3	stimuli_target_circlediamonds.svg	stimuli_distractor_diamondtriangles.svg	1	yes	53	1	926
6.6.1	win	2022-12-14	14:55:29	15:02:12	401407	615cee2b2f844e72c397977a	525592128	1	practice_slash	9	advance_on_keypress_SLASH	4	stimuli_target_circlediamonds.svg	stimuli_distractor_diamondtriangles.svg	1	yes	57	0	516
6.6.1	win	2022-12-14	14:55:29	15:02:16	405564	615cee2b2f844e72c397977a	525592128	1	practice_slash	9	practice_slash	5	stimuli_target_diamondsquares.svg	stimuli_distractor_trianglediamonds.svg	6	yes	0	0	2000
6.6.1	win	2022-12-14	14:55:29	15:02:16	405564	615cee2b2f844e72c397977a	525592128	1	practice_slash	9	advance_on_keypress_SLASH	6	stimuli_target_diamondsquares.svg	stimuli_distractor_trianglediamonds.svg	6	yes	57	0	576
6.6.1	win	2022-12-14	14:55:29	15:02:20	409781	615cee2b2f844e72c397977a	525592128	1	practice_slash	9	practice_slash	7	stimuli_distractor_diamondtriangles.svg	stimuli_distractor_trianglediamonds.svg	14	no	0	1	2000
6.6.1	win	2022-12-14	14:55:29	15:02:20	409781	615cee2b2f844e72c397977a	525592128	1	practice_slash	9	advance_on_keypress_SLASH	8	stimuli_distractor_diamondtriangles.svg	stimuli_distractor_trianglediamonds.svg	14	no	57	0	801
6.6.1	win	2022-12-14	14:55:29	15:02:23	412920	615cee2b2f844e72c397977a	525592128	1	practice_slash	9	practice_slash	9	stimuli_target_diamondsquares.svg	stimuli_distractor_diamondtriangles.svg	3	yes	53	1	690
6.6.1	win	2022-12-14	14:55:29	15:02:23	412920	615cee2b2f844e72c397977a	525592128	1	practice_slash	9	advance_on_keypress_SLASH	10	stimuli_target_diamondsquares.svg	stimuli_distractor_diamondtriangles.svg	3	yes	57	0	1324
6.6.1	win	2022-12-14	14:55:29	15:02:27	416684	615cee2b2f844e72c397977a	525592128	1	practice_slash	9	practice_slash	11	stimuli_distractor_trianglediamonds.svg	stimuli_target_circlediamonds.svg	10	yes	53	1	805
6.6.1	win	2022-12-14	14:55:29	15:02:27	416684	615cee2b2f844e72c397977a	525592128	1	practice_slash	9	advance_on_keypress_SLASH	12	stimuli_distractor_trianglediamonds.svg	stimuli_target_circlediamonds.svg	10	yes	57	0	479
6.6.1	win	2022-12-14	14:55:29	15:02:30	419594	615cee2b2f844e72c397977a	525592128	1	practice_slash	9	practice_slash	13	stimuli_target_squarediamonds.svg	stimuli_distractor_diamondtriangles.svg	2	yes	53	1	799
6.6.1	win	2022-12-14	14:55:29	15:02:30	419594	615cee2b2f844e72c397977a	525592128	1	practice_slash	9	advance_on_keypress_SLASH	14	stimuli_target_squarediamonds.svg	stimuli_distractor_diamondtriangles.svg	2	yes	57	0	438
6.6.1	win	2022-12-14	14:55:29	15:02:33	422477	615cee2b2f844e72c397977a	525592128	1	practice_slash	9	practice_slash	15	stimuli_distractor_diamondtriangles.svg	stimuli_target_circletriangles.svg	7	yes	53	1	798
6.6.1	win	2022-12-14	14:55:29	15:02:33	422477	615cee2b2f844e72c397977a	525592128	1	practice_slash	9	advance_on_keypress_SLASH	16	stimuli_distractor_diamondtriangles.svg	stimuli_target_circletriangles.svg	7	yes	57	0	436
6.6.1	win	2022-12-14	14:55:29	15:02:35	425316	615cee2b2f844e72c397977a	525592128	1	practice_slash	9	practice_slash	17	stimuli_target_circlediamonds.svg	stimuli_distractor_trianglediamonds.svg	4	yes	53	1	755
6.6.1	win	2022-12-14	14:55:29	15:02:35	425316	615cee2b2f844e72c397977a	525592128	1	practice_slash	9	advance_on_keypress_SLASH	18	stimuli_target_circlediamonds.svg	stimuli_distractor_trianglediamonds.svg	4	yes	57	0	507
6.6.1	win	2022-12-14	14:55:29	15:02:38	428246	615cee2b2f844e72c397977a	525592128	1	practice_slash	9	practice_slash	19	stimuli_distractor_diamondtriangles.svg	stimuli_target_trianglecircles.svg	9	yes	53	1	785
6.6.1	win	2022-12-14	14:55:29	15:02:38	428246	615cee2b2f844e72c397977a	525592128	1	practice_slash	9	advance_on_keypress_SLASH	20	stimuli_distractor_diamondtriangles.svg	stimuli_target_trianglecircles.svg	9	yes	57	0	540
6.6.1	win	2022-12-14	14:55:29	15:02:43	432427	615cee2b2f844e72c397977a	525592128	1	practice_slash	9	practice_slash	21	stimuli_distractor_trianglediamonds.svg	stimuli_distractor_trianglediamonds.svg	15	no	0	1	2000
6.6.1	win	2022-12-14	14:55:29	15:02:43	432427	615cee2b2f844e72c397977a	525592128	1	practice_slash	9	advance_on_keypress_SLASH	22	stimuli_distractor_trianglediamonds.svg	stimuli_distractor_trianglediamonds.svg	15	no	57	0	498
6.6.1	win	2022-12-14	14:55:29	15:02:46	435477	615cee2b2f844e72c397977a	525592128	1	practice_slash	9	practice_slash	23	stimuli_distractor_trianglediamonds.svg	stimuli_target_diamondcircles.svg	12	yes	53	1	900
6.6.1	win	2022-12-14	14:55:29	15:02:46	435477	615cee2b2f844e72c397977a	525592128	1	practice_slash	9	advance_on_keypress_SLASH	24	stimuli_distractor_trianglediamonds.svg	stimuli_target_diamondcircles.svg	12	yes	57	0	813
6.6.1	win	2022-12-14	14:55:29	15:02:49	438858	615cee2b2f844e72c397977a	525592128	1	practice_slash	9	practice_slash	25	stimuli_distractor_diamondtriangles.svg	stimuli_target_diamondcircles.svg	8	yes	53	1	914
6.6.1	win	2022-12-14	14:55:29	15:02:49	438858	615cee2b2f844e72c397977a	525592128	1	practice_slash	9	advance_on_keypress_SLASH	26	stimuli_distractor_diamondtriangles.svg	stimuli_target_diamondcircles.svg	8	yes	57	0	933
6.6.1	win	2022-12-14	14:55:29	15:02:54	443442	615cee2b2f844e72c397977a	525592128	1	practice_slash	9	practice_slash	27	stimuli_distractor_trianglediamonds.svg	stimuli_distractor_diamondtriangles.svg	16	no	0	1	2000
6.6.1	win	2022-12-14	14:55:29	15:02:54	443442	615cee2b2f844e72c397977a	525592128	1	practice_slash	9	advance_on_keypress_SLASH	28	stimuli_distractor_trianglediamonds.svg	stimuli_distractor_diamondtriangles.svg	16	no	57	0	575
6.6.1	win	2022-12-14	14:55:29	15:02:56	446341	615cee2b2f844e72c397977a	525592128	1	practice_slash	9	practice_slash	29	stimuli_target_squarediamonds.svg	stimuli_distractor_trianglediamonds.svg	5	yes	53	1	683
6.6.1	win	2022-12-14	14:55:29	15:02:56	446341	615cee2b2f844e72c397977a	525592128	1	practice_slash	9	advance_on_keypress_SLASH	30	stimuli_target_squarediamonds.svg	stimuli_distractor_trianglediamonds.svg	5	yes	57	0	308
6.6.1	win	2022-12-14	14:55:29	15:02:59	449137	615cee2b2f844e72c397977a	525592128	1	practice_slash	9	practice_slash	31	stimuli_distractor_trianglediamonds.svg	stimuli_target_squarediamonds.svg	11	yes	53	1	846
6.6.1	win	2022-12-14	14:55:29	15:02:59	449137	615cee2b2f844e72c397977a	525592128	1	practice_slash	9	advance_on_keypress_SLASH	32	stimuli_distractor_trianglediamonds.svg	stimuli_target_squarediamonds.svg	11	yes	57	0	369
6.6.1	win	2022-12-14	14:55:29	15:03:14	463613	615cee2b2f844e72c397977a	525592128	1	main_slash	11	main_slash	1	stimuli_target_circlediamonds.svg	stimuli_distractor_trianglediamonds.svg	2	yes	53	1	658
6.6.1	win	2022-12-14	14:55:29	15:03:14	463613	615cee2b2f844e72c397977a	525592128	1	main_slash	11	advance_on_keypress_SLASH	2	stimuli_target_circlediamonds.svg	stimuli_distractor_trianglediamonds.svg	2	yes	57	0	892
6.6.1	win	2022-12-14	14:55:29	15:03:16	466026	615cee2b2f844e72c397977a	525592128	1	main_slash	11	main_slash	3	stimuli_distractor_trianglediamonds.svg	stimuli_target_diamondsquares.svg	28	yes	53	1	888
6.6.1	win	2022-12-14	14:55:29	15:03:16	466026	615cee2b2f844e72c397977a	525592128	1	main_slash	11	advance_on_keypress_SLASH	4	stimuli_distractor_trianglediamonds.svg	stimuli_target_diamondsquares.svg	28	yes	57	0	572
6.6.1	win	2022-12-14	14:55:29	15:03:18	467899	615cee2b2f844e72c397977a	525592128	1	main_slash	11	main_slash	5	stimuli_target_circletriangles.svg	stimuli_distractor_diamondtriangles.svg	5	yes	53	1	662
6.6.1	win	2022-12-14	14:55:29	15:03:18	467899	615cee2b2f844e72c397977a	525592128	1	main_slash	11	advance_on_keypress_SLASH	6	stimuli_target_circletriangles.svg	stimuli_distractor_diamondtriangles.svg	5	yes	57	0	438
6.6.1	win	2022-12-14	14:55:29	15:03:21	470971	615cee2b2f844e72c397977a	525592128	1	main_slash	11	main_slash	7	stimuli_distractor_diamondtriangles.svg	stimuli_distractor_trianglediamonds.svg	37	no	0	1	2000
6.6.1	win	2022-12-14	14:55:29	15:03:21	470971	615cee2b2f844e72c397977a	525592128	1	main_slash	11	advance_on_keypress_SLASH	8	stimuli_distractor_diamondtriangles.svg	stimuli_distractor_trianglediamonds.svg	37	no	57	0	258
6.6.1	win	2022-12-14	14:55:29	15:03:23	472842	615cee2b2f844e72c397977a	525592128	1	main_slash	11	main_slash	9	stimuli_target_diamondcircles.svg	stimuli_distractor_diamondtriangles.svg	23	yes	53	1	971
6.6.1	win	2022-12-14	14:55:29	15:03:23	472842	615cee2b2f844e72c397977a	525592128	1	main_slash	11	advance_on_keypress_SLASH	10	stimuli_target_diamondcircles.svg	stimuli_distractor_diamondtriangles.svg	23	yes	57	0	568
6.6.1	win	2022-12-14	14:55:29	15:03:25	474843	615cee2b2f844e72c397977a	525592128	1	main_slash	11	main_slash	11	stimuli_target_trianglesquares.svg	stimuli_distractor_diamondtriangles.svg	22	yes	53	1	789
6.6.1	win	2022-12-14	14:55:29	15:03:25	474843	615cee2b2f844e72c397977a	525592128	1	main_slash	11	advance_on_keypress_SLASH	12	stimuli_target_trianglesquares.svg	stimuli_distractor_diamondtriangles.svg	22	yes	57	0	594
6.6.1	win	2022-12-14	14:55:29	15:03:27	476536	615cee2b2f844e72c397977a	525592128	1	main_slash	11	main_slash	13	stimuli_distractor_diamondtriangles.svg	stimuli_target_diamondsquares.svg	32	yes	53	1	466
6.6.1	win	2022-12-14	14:55:29	15:03:27	476536	615cee2b2f844e72c397977a	525592128	1	main_slash	11	advance_on_keypress_SLASH	14	stimuli_distractor_diamondtriangles.svg	stimuli_target_diamondsquares.svg	32	yes	57	0	534
6.6.1	win	2022-12-14	14:55:29	15:03:28	478244	615cee2b2f844e72c397977a	525592128	1	main_slash	11	main_slash	15	stimuli_target_squarediamonds.svg	stimuli_distractor_trianglediamonds.svg	4	yes	53	1	525
6.6.1	win	2022-12-14	14:55:29	15:03:28	478244	615cee2b2f844e72c397977a	525592128	1	main_slash	11	advance_on_keypress_SLASH	16	stimuli_target_squarediamonds.svg	stimuli_distractor_trianglediamonds.svg	4	yes	57	0	498
6.6.1	win	2022-12-14	14:55:29	15:03:30	479783	615cee2b2f844e72c397977a	525592128	1	main_slash	11	main_slash	17	stimuli_distractor_diamondtriangles.svg	stimuli_target_squarediamonds.svg	16	yes	53	1	397
6.6.1	win	2022-12-14	14:55:29	15:03:30	479783	615cee2b2f844e72c397977a	525592128	1	main_slash	11	advance_on_keypress_SLASH	18	stimuli_distractor_diamondtriangles.svg	stimuli_target_squarediamonds.svg	16	yes	57	0	448
6.6.1	win	2022-12-14	14:55:29	15:03:31	481276	615cee2b2f844e72c397977a	525592128	1	main_slash	11	main_slash	19	stimuli_distractor_trianglediamonds.svg	stimuli_target_trianglecircles.svg	25	yes	53	1	391
6.6.1	win	2022-12-14	14:55:29	15:03:31	481276	615cee2b2f844e72c397977a	525592128	1	main_slash	11	advance_on_keypress_SLASH	20	stimuli_distractor_trianglediamonds.svg	stimuli_target_trianglecircles.svg	25	yes	57	0	423
6.6.1	win	2022-12-14	14:55:29	15:03:34	484164	615cee2b2f844e72c397977a	525592128	1	main_slash	11	main_slash	21	stimuli_distractor_diamondtriangles.svg	stimuli_target_circletriangles.svg	13	yes	53	1	1828
6.6.1	win	2022-12-14	14:55:29	15:03:34	484164	615cee2b2f844e72c397977a	525592128	1	main_slash	11	advance_on_keypress_SLASH	22	stimuli_distractor_diamondtriangles.svg	stimuli_target_circletriangles.svg	13	yes	57	0	416
6.6.1	win	2022-12-14	14:55:29	15:03:36	485666	615cee2b2f844e72c397977a	525592128	1	main_slash	11	main_slash	23	stimuli_target_circletriangles.svg	stimuli_distractor_trianglediamonds.svg	1	yes	53	1	447
6.6.1	win	2022-12-14	14:55:29	15:03:36	485666	615cee2b2f844e72c397977a	525592128	1	main_slash	11	advance_on_keypress_SLASH	24	stimuli_target_circletriangles.svg	stimuli_distractor_trianglediamonds.svg	1	yes	57	0	444
6.6.1	win	2022-12-14	14:55:29	15:03:37	487156	615cee2b2f844e72c397977a	525592128	1	main_slash	11	main_slash	25	stimuli_distractor_trianglediamonds.svg	stimuli_target_squarediamonds.svg	12	yes	53	1	405
6.6.1	win	2022-12-14	14:55:29	15:03:37	487156	615cee2b2f844e72c397977a	525592128	1	main_slash	11	advance_on_keypress_SLASH	26	stimuli_distractor_trianglediamonds.svg	stimuli_target_squarediamonds.svg	12	yes	57	0	465
6.6.1	win	2022-12-14	14:55:29	15:03:39	488583	615cee2b2f844e72c397977a	525592128	1	main_slash	11	main_slash	27	stimuli_distractor_trianglediamonds.svg	stimuli_target_circletriangles.svg	9	yes	53	1	315
6.6.1	win	2022-12-14	14:55:29	15:03:39	488583	615cee2b2f844e72c397977a	525592128	1	main_slash	11	advance_on_keypress_SLASH	28	stimuli_distractor_trianglediamonds.svg	stimuli_target_circletriangles.svg	9	yes	57	0	409
6.6.1	win	2022-12-14	14:55:29	15:03:40	490080	615cee2b2f844e72c397977a	525592128	1	main_slash	11	main_slash	29	stimuli_target_trianglecircles.svg	stimuli_distractor_trianglediamonds.svg	17	yes	53	1	445
6.6.1	win	2022-12-14	14:55:29	15:03:40	490080	615cee2b2f844e72c397977a	525592128	1	main_slash	11	advance_on_keypress_SLASH	30	stimuli_target_trianglecircles.svg	stimuli_distractor_trianglediamonds.svg	17	yes	57	0	511
6.6.1	win	2022-12-14	14:55:29	15:03:43	493218	615cee2b2f844e72c397977a	525592128	1	main_slash	11	main_slash	31	stimuli_distractor_trianglediamonds.svg	stimuli_distractor_trianglediamonds.svg	33	no	0	1	2000
6.6.1	win	2022-12-14	14:55:29	15:03:43	493218	615cee2b2f844e72c397977a	525592128	1	main_slash	11	advance_on_keypress_SLASH	32	stimuli_distractor_trianglediamonds.svg	stimuli_distractor_trianglediamonds.svg	33	no	57	0	350
6.6.1	win	2022-12-14	14:55:29	15:03:46	496218	615cee2b2f844e72c397977a	525592128	1	main_slash	11	main_slash	33	stimuli_distractor_diamondtriangles.svg	stimuli_distractor_diamondtriangles.svg	39	no	0	1	2000
6.6.1	win	2022-12-14	14:55:29	15:03:46	496218	615cee2b2f844e72c397977a	525592128	1	main_slash	11	advance_on_keypress_SLASH	34	stimuli_distractor_diamondtriangles.svg	stimuli_distractor_diamondtriangles.svg	39	no	57	0	461
6.6.1	win	2022-12-14	14:55:29	15:03:49	498670	615cee2b2f844e72c397977a	525592128	1	main_slash	11	main_slash	35	stimuli_distractor_trianglediamonds.svg	stimuli_target_diamondcircles.svg	27	yes	53	1	1354
6.6.1	win	2022-12-14	14:55:29	15:03:49	498670	615cee2b2f844e72c397977a	525592128	1	main_slash	11	advance_on_keypress_SLASH	36	stimuli_distractor_trianglediamonds.svg	stimuli_target_diamondcircles.svg	27	yes	57	0	368
6.6.1	win	2022-12-14	14:55:29	15:03:50	500341	615cee2b2f844e72c397977a	525592128	1	main_slash	11	main_slash	37	stimuli_distractor_trianglediamonds.svg	stimuli_target_squaretriangles.svg	11	yes	53	1	657
6.6.1	win	2022-12-14	14:55:29	15:03:50	500341	615cee2b2f844e72c397977a	525592128	1	main_slash	11	advance_on_keypress_SLASH	38	stimuli_distractor_trianglediamonds.svg	stimuli_target_squaretriangles.svg	11	yes	57	0	449
6.6.1	win	2022-12-14	14:55:29	15:03:52	502003	615cee2b2f844e72c397977a	525592128	1	main_slash	11	main_slash	39	stimuli_target_diamondsquares.svg	stimuli_distractor_diamondtriangles.svg	24	yes	53	1	570
6.6.1	win	2022-12-14	14:55:29	15:03:52	502003	615cee2b2f844e72c397977a	525592128	1	main_slash	11	advance_on_keypress_SLASH	40	stimuli_target_diamondsquares.svg	stimuli_distractor_diamondtriangles.svg	24	yes	57	0	410
6.6.1	win	2022-12-14	14:55:29	15:03:54	503433	615cee2b2f844e72c397977a	525592128	1	main_slash	11	main_slash	41	stimuli_distractor_trianglediamonds.svg	stimuli_target_circlediamonds.svg	10	yes	53	1	384
6.6.1	win	2022-12-14	14:55:29	15:03:54	503433	615cee2b2f844e72c397977a	525592128	1	main_slash	11	advance_on_keypress_SLASH	42	stimuli_distractor_trianglediamonds.svg	stimuli_target_circlediamonds.svg	10	yes	57	0	464
6.6.1	win	2022-12-14	14:55:29	15:03:55	504901	615cee2b2f844e72c397977a	525592128	1	main_slash	11	main_slash	43	stimuli_distractor_trianglediamonds.svg	stimuli_target_trianglesquares.svg	26	yes	53	1	352
6.6.1	win	2022-12-14	14:55:29	15:03:55	504901	615cee2b2f844e72c397977a	525592128	1	main_slash	11	advance_on_keypress_SLASH	44	stimuli_distractor_trianglediamonds.svg	stimuli_target_trianglesquares.svg	26	yes	57	0	450
6.6.1	win	2022-12-14	14:55:29	15:03:56	506349	615cee2b2f844e72c397977a	525592128	1	main_slash	11	main_slash	45	stimuli_distractor_diamondtriangles.svg	stimuli_target_diamondcircles.svg	31	yes	53	1	351
6.6.1	win	2022-12-14	14:55:29	15:03:56	506349	615cee2b2f844e72c397977a	525592128	1	main_slash	11	advance_on_keypress_SLASH	46	stimuli_distractor_diamondtriangles.svg	stimuli_target_diamondcircles.svg	31	yes	57	0	415
6.6.1	win	2022-12-14	14:55:29	15:04:00	509416	615cee2b2f844e72c397977a	525592128	1	main_slash	11	main_slash	47	stimuli_distractor_diamondtriangles.svg	stimuli_distractor_trianglediamonds.svg	38	no	0	1	2000
6.6.1	win	2022-12-14	14:55:29	15:04:00	509416	615cee2b2f844e72c397977a	525592128	1	main_slash	11	advance_on_keypress_SLASH	48	stimuli_distractor_diamondtriangles.svg	stimuli_distractor_trianglediamonds.svg	38	no	57	0	621
6.6.1	win	2022-12-14	14:55:29	15:04:01	511276	615cee2b2f844e72c397977a	525592128	1	main_slash	11	main_slash	49	stimuli_target_trianglesquares.svg	stimuli_distractor_trianglediamonds.svg	18	yes	53	1	595
6.6.1	win	2022-12-14	14:55:29	15:04:01	511276	615cee2b2f844e72c397977a	525592128	1	main_slash	11	advance_on_keypress_SLASH	50	stimuli_target_trianglesquares.svg	stimuli_distractor_trianglediamonds.svg	18	yes	57	0	417
6.6.1	win	2022-12-14	14:55:29	15:04:03	512932	615cee2b2f844e72c397977a	525592128	1	main_slash	11	main_slash	51	stimuli_target_squaretriangles.svg	stimuli_distractor_diamondtriangles.svg	7	yes	53	1	601
6.6.1	win	2022-12-14	14:55:29	15:04:03	512932	615cee2b2f844e72c397977a	525592128	1	main_slash	11	advance_on_keypress_SLASH	52	stimuli_target_squaretriangles.svg	stimuli_distractor_diamondtriangles.svg	7	yes	57	0	401
6.6.1	win	2022-12-14	14:55:29	15:04:04	514363	615cee2b2f844e72c397977a	525592128	1	main_slash	11	main_slash	53	stimuli_distractor_diamondtriangles.svg	stimuli_target_trianglesquares.svg	30	yes	53	1	379
6.6.1	win	2022-12-14	14:55:29	15:04:04	514363	615cee2b2f844e72c397977a	525592128	1	main_slash	11	advance_on_keypress_SLASH	54	stimuli_distractor_diamondtriangles.svg	stimuli_target_trianglesquares.svg	30	yes	57	0	382
6.6.1	win	2022-12-14	14:55:29	15:04:07	517398	615cee2b2f844e72c397977a	525592128	1	main_slash	11	main_slash	55	stimuli_distractor_diamondtriangles.svg	stimuli_distractor_diamondtriangles.svg	40	no	0	1	2000
6.6.1	win	2022-12-14	14:55:29	15:04:07	517398	615cee2b2f844e72c397977a	525592128	1	main_slash	11	advance_on_keypress_SLASH	56	stimuli_distractor_diamondtriangles.svg	stimuli_distractor_diamondtriangles.svg	40	no	57	0	598
6.6.1	win	2022-12-14	14:55:29	15:04:09	519326	615cee2b2f844e72c397977a	525592128	1	main_slash	11	main_slash	57	stimuli_target_squaretriangles.svg	stimuli_distractor_trianglediamonds.svg	3	yes	53	1	678
6.6.1	win	2022-12-14	14:55:29	15:04:09	519326	615cee2b2f844e72c397977a	525592128	1	main_slash	11	advance_on_keypress_SLASH	58	stimuli_target_squaretriangles.svg	stimuli_distractor_trianglediamonds.svg	3	yes	57	0	409
6.6.1	win	2022-12-14	14:55:29	15:04:11	520834	615cee2b2f844e72c397977a	525592128	1	main_slash	11	main_slash	59	stimuli_target_diamondcircles.svg	stimuli_distractor_trianglediamonds.svg	19	yes	53	1	470
6.6.1	win	2022-12-14	14:55:29	15:04:11	520834	615cee2b2f844e72c397977a	525592128	1	main_slash	11	advance_on_keypress_SLASH	60	stimuli_target_diamondcircles.svg	stimuli_distractor_trianglediamonds.svg	19	yes	57	0	373
6.6.1	win	2022-12-14	14:55:29	15:04:12	522293	615cee2b2f844e72c397977a	525592128	1	main_slash	11	main_slash	61	stimuli_target_squarediamonds.svg	stimuli_distractor_diamondtriangles.svg	8	yes	53	1	447
6.6.1	win	2022-12-14	14:55:29	15:04:12	522293	615cee2b2f844e72c397977a	525592128	1	main_slash	11	advance_on_keypress_SLASH	62	stimuli_target_squarediamonds.svg	stimuli_distractor_diamondtriangles.svg	8	yes	57	0	367
6.6.1	win	2022-12-14	14:55:29	15:04:14	523774	615cee2b2f844e72c397977a	525592128	1	main_slash	11	main_slash	63	stimuli_target_circlediamonds.svg	stimuli_distractor_diamondtriangles.svg	6	yes	53	1	478
6.6.1	win	2022-12-14	14:55:29	15:04:14	523774	615cee2b2f844e72c397977a	525592128	1	main_slash	11	advance_on_keypress_SLASH	64	stimuli_target_circlediamonds.svg	stimuli_distractor_diamondtriangles.svg	6	yes	57	0	388
6.6.1	win	2022-12-14	14:55:29	15:04:17	526797	615cee2b2f844e72c397977a	525592128	1	main_slash	11	main_slash	65	stimuli_distractor_trianglediamonds.svg	stimuli_distractor_diamondtriangles.svg	35	no	0	1	2000
6.6.1	win	2022-12-14	14:55:29	15:04:17	526797	615cee2b2f844e72c397977a	525592128	1	main_slash	11	advance_on_keypress_SLASH	66	stimuli_distractor_trianglediamonds.svg	stimuli_distractor_diamondtriangles.svg	35	no	57	0	667
6.6.1	win	2022-12-14	14:55:29	15:04:20	530113	615cee2b2f844e72c397977a	525592128	1	main_slash	11	main_slash	67	stimuli_distractor_trianglediamonds.svg	stimuli_distractor_diamondtriangles.svg	36	no	0	1	2000
6.6.1	win	2022-12-14	14:55:29	15:04:20	530113	615cee2b2f844e72c397977a	525592128	1	main_slash	11	advance_on_keypress_SLASH	68	stimuli_distractor_trianglediamonds.svg	stimuli_distractor_diamondtriangles.svg	36	no	57	0	304
6.6.1	win	2022-12-14	14:55:29	15:04:22	531539	615cee2b2f844e72c397977a	525592128	1	main_slash	11	main_slash	69	stimuli_target_trianglecircles.svg	stimuli_distractor_diamondtriangles.svg	21	yes	53	1	476
6.6.1	win	2022-12-14	14:55:29	15:04:22	531539	615cee2b2f844e72c397977a	525592128	1	main_slash	11	advance_on_keypress_SLASH	70	stimuli_target_trianglecircles.svg	stimuli_distractor_diamondtriangles.svg	21	yes	57	0	338
6.6.1	win	2022-12-14	14:55:29	15:04:23	532845	615cee2b2f844e72c397977a	525592128	1	main_slash	11	main_slash	71	stimuli_distractor_diamondtriangles.svg	stimuli_target_squaretriangles.svg	15	yes	53	1	332
6.6.1	win	2022-12-14	14:55:29	15:04:23	532845	615cee2b2f844e72c397977a	525592128	1	main_slash	11	advance_on_keypress_SLASH	72	stimuli_distractor_diamondtriangles.svg	stimuli_target_squaretriangles.svg	15	yes	57	0	332
6.6.1	win	2022-12-14	14:55:29	15:04:24	534149	615cee2b2f844e72c397977a	525592128	1	main_slash	11	main_slash	73	stimuli_distractor_trianglediamonds.svg	stimuli_distractor_trianglediamonds.svg	34	no	53	0	321
6.6.1	win	2022-12-14	14:55:29	15:04:24	534149	615cee2b2f844e72c397977a	525592128	1	main_slash	11	advance_on_keypress_SLASH	74	stimuli_distractor_trianglediamonds.svg	stimuli_distractor_trianglediamonds.svg	34	no	57	0	931
6.6.1	win	2022-12-14	14:55:29	15:04:26	536189	615cee2b2f844e72c397977a	525592128	1	main_slash	11	main_slash	75	stimuli_distractor_diamondtriangles.svg	stimuli_target_trianglecircles.svg	29	yes	53	1	460
6.6.1	win	2022-12-14	14:55:29	15:04:26	536189	615cee2b2f844e72c397977a	525592128	1	main_slash	11	advance_on_keypress_SLASH	76	stimuli_distractor_diamondtriangles.svg	stimuli_target_trianglecircles.svg	29	yes	57	0	340
6.6.1	win	2022-12-14	14:55:29	15:04:28	537749	615cee2b2f844e72c397977a	525592128	1	main_slash	11	main_slash	77	stimuli_distractor_diamondtriangles.svg	stimuli_target_circlediamonds.svg	14	yes	53	1	587
6.6.1	win	2022-12-14	14:55:29	15:04:28	537749	615cee2b2f844e72c397977a	525592128	1	main_slash	11	advance_on_keypress_SLASH	78	stimuli_distractor_diamondtriangles.svg	stimuli_target_circlediamonds.svg	14	yes	57	0	300
6.6.1	win	2022-12-14	14:55:29	15:04:29	539266	615cee2b2f844e72c397977a	525592128	1	main_slash	11	main_slash	79	stimuli_target_diamondsquares.svg	stimuli_distractor_trianglediamonds.svg	20	yes	53	1	572
6.6.1	win	2022-12-14	14:55:29	15:04:29	539266	615cee2b2f844e72c397977a	525592128	1	main_slash	11	advance_on_keypress_SLASH	80	stimuli_target_diamondsquares.svg	stimuli_distractor_trianglediamonds.svg	20	yes	57	0	385
6.6.1	win	2022-12-14	14:55:29	15:04:31	540598	615cee2b2f844e72c397977a	525592128	1	main_slash	11	main_slash	81	stimuli_distractor_diamondtriangles.svg	stimuli_target_diamondsquares.svg	32	yes	53	1	304
6.6.1	win	2022-12-14	14:55:29	15:04:31	540598	615cee2b2f844e72c397977a	525592128	1	main_slash	11	advance_on_keypress_SLASH	82	stimuli_distractor_diamondtriangles.svg	stimuli_target_diamondsquares.svg	32	yes	57	0	396
6.6.1	win	2022-12-14	14:55:29	15:04:32	542095	615cee2b2f844e72c397977a	525592128	1	main_slash	11	main_slash	83	stimuli_target_diamondsquares.svg	stimuli_distractor_diamondtriangles.svg	24	yes	53	1	467
6.6.1	win	2022-12-14	14:55:29	15:04:32	542095	615cee2b2f844e72c397977a	525592128	1	main_slash	11	advance_on_keypress_SLASH	84	stimuli_target_diamondsquares.svg	stimuli_distractor_diamondtriangles.svg	24	yes	57	0	354
6.6.1	win	2022-12-14	14:55:29	15:04:34	543610	615cee2b2f844e72c397977a	525592128	1	main_slash	11	main_slash	85	stimuli_target_circlediamonds.svg	stimuli_distractor_diamondtriangles.svg	6	yes	53	1	505
6.6.1	win	2022-12-14	14:55:29	15:04:34	543610	615cee2b2f844e72c397977a	525592128	1	main_slash	11	advance_on_keypress_SLASH	86	stimuli_target_circlediamonds.svg	stimuli_distractor_diamondtriangles.svg	6	yes	57	0	383
6.6.1	win	2022-12-14	14:55:29	15:04:37	546644	615cee2b2f844e72c397977a	525592128	1	main_slash	11	main_slash	87	stimuli_distractor_trianglediamonds.svg	stimuli_distractor_diamondtriangles.svg	36	no	0	1	2000
6.6.1	win	2022-12-14	14:55:29	15:04:37	546644	615cee2b2f844e72c397977a	525592128	1	main_slash	11	advance_on_keypress_SLASH	88	stimuli_distractor_trianglediamonds.svg	stimuli_distractor_diamondtriangles.svg	36	no	57	0	320
6.6.1	win	2022-12-14	14:55:29	15:04:38	548186	615cee2b2f844e72c397977a	525592128	1	main_slash	11	main_slash	89	stimuli_distractor_trianglediamonds.svg	stimuli_target_circlediamonds.svg	10	yes	53	1	575
6.6.1	win	2022-12-14	14:55:29	15:04:38	548186	615cee2b2f844e72c397977a	525592128	1	main_slash	11	advance_on_keypress_SLASH	90	stimuli_distractor_trianglediamonds.svg	stimuli_target_circlediamonds.svg	10	yes	57	0	374
6.6.1	win	2022-12-14	14:55:29	15:04:40	549624	615cee2b2f844e72c397977a	525592128	1	main_slash	11	main_slash	91	stimuli_target_squaretriangles.svg	stimuli_distractor_diamondtriangles.svg	7	yes	53	1	431
6.6.1	win	2022-12-14	14:55:29	15:04:40	549624	615cee2b2f844e72c397977a	525592128	1	main_slash	11	advance_on_keypress_SLASH	92	stimuli_target_squaretriangles.svg	stimuli_distractor_diamondtriangles.svg	7	yes	57	0	361
6.6.1	win	2022-12-14	14:55:29	15:04:41	551059	615cee2b2f844e72c397977a	525592128	1	main_slash	11	main_slash	93	stimuli_distractor_trianglediamonds.svg	stimuli_distractor_trianglediamonds.svg	34	no	53	0	432
6.6.1	win	2022-12-14	14:55:29	15:04:41	551059	615cee2b2f844e72c397977a	525592128	1	main_slash	11	advance_on_keypress_SLASH	94	stimuli_distractor_trianglediamonds.svg	stimuli_distractor_trianglediamonds.svg	34	no	57	0	648
6.6.1	win	2022-12-14	14:55:29	15:04:43	552828	615cee2b2f844e72c397977a	525592128	1	main_slash	11	main_slash	95	stimuli_target_squarediamonds.svg	stimuli_distractor_trianglediamonds.svg	4	yes	53	1	468
6.6.1	win	2022-12-14	14:55:29	15:04:43	552828	615cee2b2f844e72c397977a	525592128	1	main_slash	11	advance_on_keypress_SLASH	96	stimuli_target_squarediamonds.svg	stimuli_distractor_trianglediamonds.svg	4	yes	57	0	414
6.6.1	win	2022-12-14	14:55:29	15:04:44	554280	615cee2b2f844e72c397977a	525592128	1	main_slash	11	main_slash	97	stimuli_distractor_trianglediamonds.svg	stimuli_target_squarediamonds.svg	12	yes	53	1	388
6.6.1	win	2022-12-14	14:55:29	15:04:44	554280	615cee2b2f844e72c397977a	525592128	1	main_slash	11	advance_on_keypress_SLASH	98	stimuli_distractor_trianglediamonds.svg	stimuli_target_squarediamonds.svg	12	yes	57	0	344
6.6.1	win	2022-12-14	14:55:29	15:04:46	555641	615cee2b2f844e72c397977a	525592128	1	main_slash	11	main_slash	99	stimuli_target_circletriangles.svg	stimuli_distractor_trianglediamonds.svg	1	yes	53	1	371
6.6.1	win	2022-12-14	14:55:29	15:04:46	555641	615cee2b2f844e72c397977a	525592128	1	main_slash	11	advance_on_keypress_SLASH	100	stimuli_target_circletriangles.svg	stimuli_distractor_trianglediamonds.svg	1	yes	57	0	382
6.6.1	win	2022-12-14	14:55:29	15:04:47	557011	615cee2b2f844e72c397977a	525592128	1	main_slash	11	main_slash	101	stimuli_distractor_diamondtriangles.svg	stimuli_target_trianglesquares.svg	30	yes	53	1	335
6.6.1	win	2022-12-14	14:55:29	15:04:47	557011	615cee2b2f844e72c397977a	525592128	1	main_slash	11	advance_on_keypress_SLASH	102	stimuli_distractor_diamondtriangles.svg	stimuli_target_trianglesquares.svg	30	yes	57	0	520
6.6.1	win	2022-12-14	14:55:29	15:04:50	560175	615cee2b2f844e72c397977a	525592128	1	main_slash	11	main_slash	103	stimuli_distractor_diamondtriangles.svg	stimuli_distractor_diamondtriangles.svg	39	no	0	1	2000
6.6.1	win	2022-12-14	14:55:29	15:04:50	560175	615cee2b2f844e72c397977a	525592128	1	main_slash	11	advance_on_keypress_SLASH	104	stimuli_distractor_diamondtriangles.svg	stimuli_distractor_diamondtriangles.svg	39	no	57	0	507
6.6.1	win	2022-12-14	14:55:29	15:04:52	562246	615cee2b2f844e72c397977a	525592128	1	main_slash	11	main_slash	105	stimuli_target_trianglesquares.svg	stimuli_distractor_trianglediamonds.svg	18	yes	53	1	920
6.6.1	win	2022-12-14	14:55:29	15:04:52	562246	615cee2b2f844e72c397977a	525592128	1	main_slash	11	advance_on_keypress_SLASH	106	stimuli_target_trianglesquares.svg	stimuli_distractor_trianglediamonds.svg	18	yes	57	0	483
6.6.1	win	2022-12-14	14:55:29	15:04:54	563857	615cee2b2f844e72c397977a	525592128	1	main_slash	11	main_slash	107	stimuli_target_squaretriangles.svg	stimuli_distractor_trianglediamonds.svg	3	yes	53	1	482
6.6.1	win	2022-12-14	14:55:29	15:04:54	563857	615cee2b2f844e72c397977a	525592128	1	main_slash	11	advance_on_keypress_SLASH	108	stimuli_target_squaretriangles.svg	stimuli_distractor_trianglediamonds.svg	3	yes	57	0	361
6.6.1	win	2022-12-14	14:55:29	15:04:55	565161	615cee2b2f844e72c397977a	525592128	1	main_slash	11	main_slash	109	stimuli_distractor_diamondtriangles.svg	stimuli_target_circlediamonds.svg	14	yes	53	1	304
6.6.1	win	2022-12-14	14:55:29	15:04:55	565161	615cee2b2f844e72c397977a	525592128	1	main_slash	11	advance_on_keypress_SLASH	110	stimuli_distractor_diamondtriangles.svg	stimuli_target_circlediamonds.svg	14	yes	57	0	354
6.6.1	win	2022-12-14	14:55:29	15:04:58	568158	615cee2b2f844e72c397977a	525592128	1	main_slash	11	main_slash	111	stimuli_distractor_diamondtriangles.svg	stimuli_distractor_diamondtriangles.svg	40	no	0	1	2000
6.6.1	win	2022-12-14	14:55:29	15:04:58	568158	615cee2b2f844e72c397977a	525592128	1	main_slash	11	advance_on_keypress_SLASH	112	stimuli_distractor_diamondtriangles.svg	stimuli_distractor_diamondtriangles.svg	40	no	57	0	367
6.6.1	win	2022-12-14	14:55:29	15:05:00	569573	615cee2b2f844e72c397977a	525592128	1	main_slash	11	main_slash	113	stimuli_distractor_trianglediamonds.svg	stimuli_target_diamondcircles.svg	27	yes	53	1	398
6.6.1	win	2022-12-14	14:55:29	15:05:00	569573	615cee2b2f844e72c397977a	525592128	1	main_slash	11	advance_on_keypress_SLASH	114	stimuli_distractor_trianglediamonds.svg	stimuli_target_diamondcircles.svg	27	yes	57	0	487
6.6.1	win	2022-12-14	14:55:29	15:05:01	571089	615cee2b2f844e72c397977a	525592128	1	main_slash	11	main_slash	115	stimuli_distractor_diamondtriangles.svg	stimuli_target_diamondcircles.svg	31	yes	53	1	378
6.6.1	win	2022-12-14	14:55:29	15:05:01	571089	615cee2b2f844e72c397977a	525592128	1	main_slash	11	advance_on_keypress_SLASH	116	stimuli_distractor_diamondtriangles.svg	stimuli_target_diamondcircles.svg	31	yes	57	0	412
6.6.1	win	2022-12-14	14:55:29	15:05:03	572729	615cee2b2f844e72c397977a	525592128	1	main_slash	11	main_slash	117	stimuli_distractor_diamondtriangles.svg	stimuli_target_squaretriangles.svg	15	yes	53	1	588
6.6.1	win	2022-12-14	14:55:29	15:05:03	572729	615cee2b2f844e72c397977a	525592128	1	main_slash	11	advance_on_keypress_SLASH	118	stimuli_distractor_diamondtriangles.svg	stimuli_target_squaretriangles.svg	15	yes	57	0	446
6.6.1	win	2022-12-14	14:55:29	15:05:04	574269	615cee2b2f844e72c397977a	525592128	1	main_slash	11	main_slash	119	stimuli_target_trianglecircles.svg	stimuli_distractor_diamondtriangles.svg	21	yes	53	1	462
6.6.1	win	2022-12-14	14:55:29	15:05:04	574269	615cee2b2f844e72c397977a	525592128	1	main_slash	11	advance_on_keypress_SLASH	120	stimuli_target_trianglecircles.svg	stimuli_distractor_diamondtriangles.svg	21	yes	57	0	632
6.6.1	win	2022-12-14	14:55:29	15:05:06	575861	615cee2b2f844e72c397977a	525592128	1	main_slash	11	main_slash	121	stimuli_distractor_trianglediamonds.svg	stimuli_target_diamondsquares.svg	28	yes	53	1	322
6.6.1	win	2022-12-14	14:55:29	15:05:06	575861	615cee2b2f844e72c397977a	525592128	1	main_slash	11	advance_on_keypress_SLASH	122	stimuli_distractor_trianglediamonds.svg	stimuli_target_diamondsquares.svg	28	yes	57	0	452
6.6.1	win	2022-12-14	14:55:29	15:05:08	577403	615cee2b2f844e72c397977a	525592128	1	main_slash	11	main_slash	123	stimuli_target_trianglesquares.svg	stimuli_distractor_diamondtriangles.svg	22	yes	53	1	446
6.6.1	win	2022-12-14	14:55:29	15:05:08	577403	615cee2b2f844e72c397977a	525592128	1	main_slash	11	advance_on_keypress_SLASH	124	stimuli_target_trianglesquares.svg	stimuli_distractor_diamondtriangles.svg	22	yes	57	0	651
6.6.1	win	2022-12-14	14:55:29	15:05:09	579072	615cee2b2f844e72c397977a	525592128	1	main_slash	11	main_slash	125	stimuli_distractor_diamondtriangles.svg	stimuli_target_trianglecircles.svg	29	yes	53	1	383
6.6.1	win	2022-12-14	14:55:29	15:05:09	579072	615cee2b2f844e72c397977a	525592128	1	main_slash	11	advance_on_keypress_SLASH	126	stimuli_distractor_diamondtriangles.svg	stimuli_target_trianglecircles.svg	29	yes	57	0	444
6.6.1	win	2022-12-14	14:55:29	15:05:11	580548	615cee2b2f844e72c397977a	525592128	1	main_slash	11	main_slash	127	stimuli_distractor_diamondtriangles.svg	stimuli_target_squarediamonds.svg	16	yes	53	1	393
6.6.1	win	2022-12-14	14:55:29	15:05:11	580548	615cee2b2f844e72c397977a	525592128	1	main_slash	11	advance_on_keypress_SLASH	128	stimuli_distractor_diamondtriangles.svg	stimuli_target_squarediamonds.svg	16	yes	57	0	459
6.6.1	win	2022-12-14	14:55:29	15:05:12	581916	615cee2b2f844e72c397977a	525592128	1	main_slash	11	main_slash	129	stimuli_target_diamondcircles.svg	stimuli_distractor_trianglediamonds.svg	19	yes	53	1	276
6.6.1	win	2022-12-14	14:55:29	15:05:12	581916	615cee2b2f844e72c397977a	525592128	1	main_slash	11	advance_on_keypress_SLASH	130	stimuli_target_diamondcircles.svg	stimuli_distractor_trianglediamonds.svg	19	yes	57	0	502
6.6.1	win	2022-12-14	14:55:29	15:05:14	583924	615cee2b2f844e72c397977a	525592128	1	main_slash	11	main_slash	131	stimuli_target_squarediamonds.svg	stimuli_distractor_diamondtriangles.svg	8	yes	53	1	869
6.6.1	win	2022-12-14	14:55:29	15:05:14	583924	615cee2b2f844e72c397977a	525592128	1	main_slash	11	advance_on_keypress_SLASH	132	stimuli_target_squarediamonds.svg	stimuli_distractor_diamondtriangles.svg	8	yes	57	0	481
6.6.1	win	2022-12-14	14:55:29	15:05:15	585382	615cee2b2f844e72c397977a	525592128	1	main_slash	11	main_slash	133	stimuli_distractor_trianglediamonds.svg	stimuli_distractor_diamondtriangles.svg	35	no	53	0	327
6.6.1	win	2022-12-14	14:55:29	15:05:15	585382	615cee2b2f844e72c397977a	525592128	1	main_slash	11	advance_on_keypress_SLASH	134	stimuli_distractor_trianglediamonds.svg	stimuli_distractor_diamondtriangles.svg	35	no	57	0	744
6.6.1	win	2022-12-14	14:55:29	15:05:17	587179	615cee2b2f844e72c397977a	525592128	1	main_slash	11	main_slash	135	stimuli_distractor_diamondtriangles.svg	stimuli_target_circletriangles.svg	13	yes	53	1	423
6.6.1	win	2022-12-14	14:55:29	15:05:17	587179	615cee2b2f844e72c397977a	525592128	1	main_slash	11	advance_on_keypress_SLASH	136	stimuli_distractor_diamondtriangles.svg	stimuli_target_circletriangles.svg	13	yes	57	0	475
6.6.1	win	2022-12-14	14:55:29	15:05:19	588670	615cee2b2f844e72c397977a	525592128	1	main_slash	11	main_slash	137	stimuli_distractor_trianglediamonds.svg	stimuli_target_squaretriangles.svg	11	yes	53	1	375
6.6.1	win	2022-12-14	14:55:29	15:05:19	588670	615cee2b2f844e72c397977a	525592128	1	main_slash	11	advance_on_keypress_SLASH	138	stimuli_distractor_trianglediamonds.svg	stimuli_target_squaretriangles.svg	11	yes	57	0	442
6.6.1	win	2022-12-14	14:55:29	15:05:20	590157	615cee2b2f844e72c397977a	525592128	1	main_slash	11	main_slash	139	stimuli_distractor_trianglediamonds.svg	stimuli_target_trianglecircles.svg	25	yes	53	1	402
6.6.1	win	2022-12-14	14:55:29	15:05:20	590157	615cee2b2f844e72c397977a	525592128	1	main_slash	11	advance_on_keypress_SLASH	140	stimuli_distractor_trianglediamonds.svg	stimuli_target_trianglecircles.svg	25	yes	57	0	385
6.6.1	win	2022-12-14	14:55:29	15:05:22	591435	615cee2b2f844e72c397977a	525592128	1	main_slash	11	main_slash	141	stimuli_target_diamondsquares.svg	stimuli_distractor_trianglediamonds.svg	20	yes	53	1	247
6.6.1	win	2022-12-14	14:55:29	15:05:22	591435	615cee2b2f844e72c397977a	525592128	1	main_slash	11	advance_on_keypress_SLASH	142	stimuli_target_diamondsquares.svg	stimuli_distractor_trianglediamonds.svg	20	yes	57	0	619
6.6.1	win	2022-12-14	14:55:29	15:05:23	593171	615cee2b2f844e72c397977a	525592128	1	main_slash	11	main_slash	143	stimuli_target_circlediamonds.svg	stimuli_distractor_trianglediamonds.svg	2	yes	53	1	467
6.6.1	win	2022-12-14	14:55:29	15:05:23	593171	615cee2b2f844e72c397977a	525592128	1	main_slash	11	advance_on_keypress_SLASH	144	stimuli_target_circlediamonds.svg	stimuli_distractor_trianglediamonds.svg	2	yes	57	0	492
6.6.1	win	2022-12-14	14:55:29	15:05:25	594595	615cee2b2f844e72c397977a	525592128	1	main_slash	11	main_slash	145	stimuli_distractor_trianglediamonds.svg	stimuli_target_circletriangles.svg	9	yes	53	1	290
6.6.1	win	2022-12-14	14:55:29	15:05:25	594595	615cee2b2f844e72c397977a	525592128	1	main_slash	11	advance_on_keypress_SLASH	146	stimuli_distractor_trianglediamonds.svg	stimuli_target_circletriangles.svg	9	yes	57	0	507
6.6.1	win	2022-12-14	14:55:29	15:05:26	596021	615cee2b2f844e72c397977a	525592128	1	main_slash	11	main_slash	147	stimuli_distractor_diamondtriangles.svg	stimuli_distractor_trianglediamonds.svg	38	no	53	0	284
6.6.1	win	2022-12-14	14:55:29	15:05:26	596021	615cee2b2f844e72c397977a	525592128	1	main_slash	11	advance_on_keypress_SLASH	148	stimuli_distractor_diamondtriangles.svg	stimuli_distractor_trianglediamonds.svg	38	no	57	0	743
6.6.1	win	2022-12-14	14:55:29	15:05:28	597873	615cee2b2f844e72c397977a	525592128	1	main_slash	11	main_slash	149	stimuli_target_trianglecircles.svg	stimuli_distractor_trianglediamonds.svg	17	yes	53	1	470
6.6.1	win	2022-12-14	14:55:29	15:05:28	597873	615cee2b2f844e72c397977a	525592128	1	main_slash	11	advance_on_keypress_SLASH	150	stimuli_target_trianglecircles.svg	stimuli_distractor_trianglediamonds.svg	17	yes	57	0	555
6.6.1	win	2022-12-14	14:55:29	15:05:30	599586	615cee2b2f844e72c397977a	525592128	1	main_slash	11	main_slash	151	stimuli_target_circletriangles.svg	stimuli_distractor_diamondtriangles.svg	5	yes	53	1	509
6.6.1	win	2022-12-14	14:55:29	15:05:30	599586	615cee2b2f844e72c397977a	525592128	1	main_slash	11	advance_on_keypress_SLASH	152	stimuli_target_circletriangles.svg	stimuli_distractor_diamondtriangles.svg	5	yes	57	0	393
6.6.1	win	2022-12-14	14:55:29	15:05:33	602620	615cee2b2f844e72c397977a	525592128	1	main_slash	11	main_slash	153	stimuli_distractor_diamondtriangles.svg	stimuli_distractor_trianglediamonds.svg	37	no	0	1	2000
6.6.1	win	2022-12-14	14:55:29	15:05:33	602620	615cee2b2f844e72c397977a	525592128	1	main_slash	11	advance_on_keypress_SLASH	154	stimuli_distractor_diamondtriangles.svg	stimuli_distractor_trianglediamonds.svg	37	no	57	0	121
6.6.1	win	2022-12-14	14:55:29	15:05:34	603873	615cee2b2f844e72c397977a	525592128	1	main_slash	11	main_slash	155	stimuli_distractor_trianglediamonds.svg	stimuli_target_trianglesquares.svg	26	yes	53	1	486
6.6.1	win	2022-12-14	14:55:29	15:05:34	603873	615cee2b2f844e72c397977a	525592128	1	main_slash	11	advance_on_keypress_SLASH	156	stimuli_distractor_trianglediamonds.svg	stimuli_target_trianglesquares.svg	26	yes	57	0	430
6.6.1	win	2022-12-14	14:55:29	15:05:36	605581	615cee2b2f844e72c397977a	525592128	1	main_slash	11	main_slash	157	stimuli_target_diamondcircles.svg	stimuli_distractor_diamondtriangles.svg	23	yes	53	1	628
6.6.1	win	2022-12-14	14:55:29	15:05:36	605581	615cee2b2f844e72c397977a	525592128	1	main_slash	11	advance_on_keypress_SLASH	158	stimuli_target_diamondcircles.svg	stimuli_distractor_diamondtriangles.svg	23	yes	57	0	577
6.6.1	win	2022-12-14	14:55:29	15:05:39	608786	615cee2b2f844e72c397977a	525592128	1	main_slash	11	main_slash	159	stimuli_distractor_trianglediamonds.svg	stimuli_distractor_trianglediamonds.svg	33	no	0	1	2000
6.6.1	win	2022-12-14	14:55:29	15:05:39	608786	615cee2b2f844e72c397977a	525592128	1	main_slash	11	advance_on_keypress_SLASH	160	stimuli_distractor_trianglediamonds.svg	stimuli_distractor_trianglediamonds.svg	33	no	57	0	334