build	computer.platform	date	time	timestamp	time_elapsed_ms	subject	group	session	blockcode	blocknum	trialcode	trialnum	stimulus_left	stimulus_right	stim_index	target_present	response	correct	latency
6.6.1	mac	2022-12-23	09:26:19	09:28:58	157235	61383bdc065ccb1d5a65e09a	78798260	1	practice_z	5	practice_z	1	stimuli_distractor_trianglediamonds.svg	stimuli_distractor_diamondtriangles.svg	16	no	0	1	2000
6.6.1	mac	2022-12-23	09:26:19	09:28:58	157235	61383bdc065ccb1d5a65e09a	78798260	1	practice_z	5	advance_on_keypress_ZEE	2	stimuli_distractor_trianglediamonds.svg	stimuli_distractor_diamondtriangles.svg	16	no	57	0	910
6.6.1	mac	2022-12-23	09:26:19	09:29:02	160329	61383bdc065ccb1d5a65e09a	78798260	1	practice_z	5	practice_z	3	stimuli_distractor_trianglediamonds.svg	stimuli_target_circlediamonds.svg	10	yes	44	1	545
6.6.1	mac	2022-12-23	09:26:19	09:29:02	160329	61383bdc065ccb1d5a65e09a	78798260	1	practice_z	5	advance_on_keypress_ZEE	4	stimuli_distractor_trianglediamonds.svg	stimuli_target_circlediamonds.svg	10	yes	57	0	803
6.6.1	mac	2022-12-23	09:26:19	09:29:05	163432	61383bdc065ccb1d5a65e09a	78798260	1	practice_z	5	practice_z	5	stimuli_distractor_trianglediamonds.svg	stimuli_target_squarediamonds.svg	11	yes	44	1	612
6.6.1	mac	2022-12-23	09:26:19	09:29:05	163432	61383bdc065ccb1d5a65e09a	78798260	1	practice_z	5	advance_on_keypress_ZEE	6	stimuli_distractor_trianglediamonds.svg	stimuli_target_squarediamonds.svg	11	yes	57	0	604
6.6.1	mac	2022-12-23	09:26:19	09:29:09	167664	61383bdc065ccb1d5a65e09a	78798260	1	practice_z	5	practice_z	7	stimuli_distractor_diamondtriangles.svg	stimuli_distractor_diamondtriangles.svg	13	no	0	1	2000
6.6.1	mac	2022-12-23	09:26:19	09:29:09	167664	61383bdc065ccb1d5a65e09a	78798260	1	practice_z	5	advance_on_keypress_ZEE	8	stimuli_distractor_diamondtriangles.svg	stimuli_distractor_diamondtriangles.svg	13	no	57	0	552
6.6.1	mac	2022-12-23	09:26:19	09:29:12	170451	61383bdc065ccb1d5a65e09a	78798260	1	practice_z	5	practice_z	9	stimuli_target_circlediamonds.svg	stimuli_distractor_trianglediamonds.svg	4	yes	44	1	543
6.6.1	mac	2022-12-23	09:26:19	09:29:12	170451	61383bdc065ccb1d5a65e09a	78798260	1	practice_z	5	advance_on_keypress_ZEE	10	stimuli_target_circlediamonds.svg	stimuli_distractor_trianglediamonds.svg	4	yes	57	0	543
6.6.1	mac	2022-12-23	09:26:19	09:29:15	173378	61383bdc065ccb1d5a65e09a	78798260	1	practice_z	5	practice_z	11	stimuli_distractor_diamondtriangles.svg	stimuli_target_trianglecircles.svg	9	yes	44	1	745
6.6.1	mac	2022-12-23	09:26:19	09:29:15	173378	61383bdc065ccb1d5a65e09a	78798260	1	practice_z	5	advance_on_keypress_ZEE	12	stimuli_distractor_diamondtriangles.svg	stimuli_target_trianglecircles.svg	9	yes	57	0	1030
6.6.1	mac	2022-12-23	09:26:19	09:29:18	176502	61383bdc065ccb1d5a65e09a	78798260	1	practice_z	5	practice_z	13	stimuli_distractor_diamondtriangles.svg	stimuli_target_circletriangles.svg	7	yes	44	1	435
6.6.1	mac	2022-12-23	09:26:19	09:29:18	176502	61383bdc065ccb1d5a65e09a	78798260	1	practice_z	5	advance_on_keypress_ZEE	14	stimuli_distractor_diamondtriangles.svg	stimuli_target_circletriangles.svg	7	yes	57	0	1259
6.6.1	mac	2022-12-23	09:26:19	09:29:22	180593	61383bdc065ccb1d5a65e09a	78798260	1	practice_z	5	practice_z	15	stimuli_distractor_trianglediamonds.svg	stimuli_target_diamondcircles.svg	12	yes	44	1	1205
6.6.1	mac	2022-12-23	09:26:19	09:29:22	180593	61383bdc065ccb1d5a65e09a	78798260	1	practice_z	5	advance_on_keypress_ZEE	16	stimuli_distractor_trianglediamonds.svg	stimuli_target_diamondcircles.svg	12	yes	57	0	766
6.6.1	mac	2022-12-23	09:26:19	09:29:25	183611	61383bdc065ccb1d5a65e09a	78798260	1	practice_z	5	practice_z	17	stimuli_target_circlediamonds.svg	stimuli_distractor_diamondtriangles.svg	1	yes	44	1	554
6.6.1	mac	2022-12-23	09:26:19	09:29:25	183611	61383bdc065ccb1d5a65e09a	78798260	1	practice_z	5	advance_on_keypress_ZEE	18	stimuli_target_circlediamonds.svg	stimuli_distractor_diamondtriangles.svg	1	yes	57	0	844
6.6.1	mac	2022-12-23	09:26:19	09:29:29	187377	61383bdc065ccb1d5a65e09a	78798260	1	practice_z	5	practice_z	19	stimuli_target_diamondsquares.svg	stimuli_distractor_diamondtriangles.svg	3	yes	44	1	1273
6.6.1	mac	2022-12-23	09:26:19	09:29:29	187377	61383bdc065ccb1d5a65e09a	78798260	1	practice_z	5	advance_on_keypress_ZEE	20	stimuli_target_diamondsquares.svg	stimuli_distractor_diamondtriangles.svg	3	yes	57	0	1286
6.6.1	mac	2022-12-23	09:26:19	09:29:33	191339	61383bdc065ccb1d5a65e09a	78798260	1	practice_z	5	practice_z	21	stimuli_target_diamondsquares.svg	stimuli_distractor_trianglediamonds.svg	6	yes	44	1	977
6.6.1	mac	2022-12-23	09:26:19	09:29:33	191339	61383bdc065ccb1d5a65e09a	78798260	1	practice_z	5	advance_on_keypress_ZEE	22	stimuli_target_diamondsquares.svg	stimuli_distractor_trianglediamonds.svg	6	yes	57	0	784
6.6.1	mac	2022-12-23	09:26:19	09:29:37	195758	61383bdc065ccb1d5a65e09a	78798260	1	practice_z	5	practice_z	23	stimuli_distractor_trianglediamonds.svg	stimuli_distractor_trianglediamonds.svg	15	no	0	1	2000
6.6.1	mac	2022-12-23	09:26:19	09:29:37	195758	61383bdc065ccb1d5a65e09a	78798260	1	practice_z	5	advance_on_keypress_ZEE	24	stimuli_distractor_trianglediamonds.svg	stimuli_distractor_trianglediamonds.svg	15	no	57	0	858
6.6.1	mac	2022-12-23	09:26:19	09:29:41	200248	61383bdc065ccb1d5a65e09a	78798260	1	practice_z	5	practice_z	25	stimuli_distractor_diamondtriangles.svg	stimuli_distractor_trianglediamonds.svg	14	no	0	1	2000
6.6.1	mac	2022-12-23	09:26:19	09:29:41	200248	61383bdc065ccb1d5a65e09a	78798260	1	practice_z	5	advance_on_keypress_ZEE	26	stimuli_distractor_diamondtriangles.svg	stimuli_distractor_trianglediamonds.svg	14	no	57	0	811
6.6.1	mac	2022-12-23	09:26:19	09:29:45	203534	61383bdc065ccb1d5a65e09a	78798260	1	practice_z	5	practice_z	27	stimuli_target_squarediamonds.svg	stimuli_distractor_trianglediamonds.svg	5	yes	44	1	772
6.6.1	mac	2022-12-23	09:26:19	09:29:45	203534	61383bdc065ccb1d5a65e09a	78798260	1	practice_z	5	advance_on_keypress_ZEE	28	stimuli_target_squarediamonds.svg	stimuli_distractor_trianglediamonds.svg	5	yes	57	0	471
6.6.1	mac	2022-12-23	09:26:19	09:29:48	206411	61383bdc065ccb1d5a65e09a	78798260	1	practice_z	5	practice_z	29	stimuli_target_squarediamonds.svg	stimuli_distractor_diamondtriangles.svg	2	yes	44	1	774
6.6.1	mac	2022-12-23	09:26:19	09:29:48	206411	61383bdc065ccb1d5a65e09a	78798260	1	practice_z	5	advance_on_keypress_ZEE	30	stimuli_target_squarediamonds.svg	stimuli_distractor_diamondtriangles.svg	2	yes	57	0	499
6.6.1	mac	2022-12-23	09:26:19	09:29:51	209522	61383bdc065ccb1d5a65e09a	78798260	1	practice_z	5	practice_z	31	stimuli_distractor_diamondtriangles.svg	stimuli_target_diamondcircles.svg	8	yes	44	1	973
6.6.1	mac	2022-12-23	09:26:19	09:29:51	209522	61383bdc065ccb1d5a65e09a	78798260	1	practice_z	5	advance_on_keypress_ZEE	32	stimuli_distractor_diamondtriangles.svg	stimuli_target_diamondcircles.svg	8	yes	57	0	460
6.6.1	mac	2022-12-23	09:26:19	09:30:01	219864	61383bdc065ccb1d5a65e09a	78798260	1	main_z	7	main_z	1	stimuli_distractor_diamondtriangles.svg	stimuli_target_trianglecircles.svg	29	yes	44	1	485
6.6.1	mac	2022-12-23	09:26:19	09:30:01	219864	61383bdc065ccb1d5a65e09a	78798260	1	main_z	7	advance_on_keypress_ZEE	2	stimuli_distractor_diamondtriangles.svg	stimuli_target_trianglecircles.svg	29	yes	57	0	1042
6.6.1	mac	2022-12-23	09:26:19	09:30:03	222107	61383bdc065ccb1d5a65e09a	78798260	1	main_z	7	main_z	3	stimuli_target_circletriangles.svg	stimuli_distractor_diamondtriangles.svg	5	yes	44	1	546
6.6.1	mac	2022-12-23	09:26:19	09:30:03	222107	61383bdc065ccb1d5a65e09a	78798260	1	main_z	7	advance_on_keypress_ZEE	4	stimuli_target_circletriangles.svg	stimuli_distractor_diamondtriangles.svg	5	yes	57	0	812
6.6.1	mac	2022-12-23	09:26:19	09:30:05	224040	61383bdc065ccb1d5a65e09a	78798260	1	main_z	7	main_z	5	stimuli_target_trianglecircles.svg	stimuli_distractor_trianglediamonds.svg	17	yes	44	1	466
6.6.1	mac	2022-12-23	09:26:19	09:30:05	224040	61383bdc065ccb1d5a65e09a	78798260	1	main_z	7	advance_on_keypress_ZEE	6	stimuli_target_trianglecircles.svg	stimuli_distractor_trianglediamonds.svg	17	yes	57	0	549
6.6.1	mac	2022-12-23	09:26:19	09:30:07	225637	61383bdc065ccb1d5a65e09a	78798260	1	main_z	7	main_z	7	stimuli_target_trianglecircles.svg	stimuli_distractor_diamondtriangles.svg	21	yes	44	1	398
6.6.1	mac	2022-12-23	09:26:19	09:30:07	225637	61383bdc065ccb1d5a65e09a	78798260	1	main_z	7	advance_on_keypress_ZEE	8	stimuli_target_trianglecircles.svg	stimuli_distractor_diamondtriangles.svg	21	yes	57	0	757
6.6.1	mac	2022-12-23	09:26:19	09:30:09	227476	61383bdc065ccb1d5a65e09a	78798260	1	main_z	7	main_z	9	stimuli_distractor_trianglediamonds.svg	stimuli_distractor_diamondtriangles.svg	36	no	44	0	409
6.6.1	mac	2022-12-23	09:26:19	09:30:09	227476	61383bdc065ccb1d5a65e09a	78798260	1	main_z	7	advance_on_keypress_ZEE	10	stimuli_distractor_trianglediamonds.svg	stimuli_distractor_diamondtriangles.svg	36	no	57	0	667
6.6.1	mac	2022-12-23	09:26:19	09:30:12	230786	61383bdc065ccb1d5a65e09a	78798260	1	main_z	7	main_z	11	stimuli_distractor_trianglediamonds.svg	stimuli_distractor_diamondtriangles.svg	35	no	0	1	2000
6.6.1	mac	2022-12-23	09:26:19	09:30:12	230786	61383bdc065ccb1d5a65e09a	78798260	1	main_z	7	advance_on_keypress_ZEE	12	stimuli_distractor_trianglediamonds.svg	stimuli_distractor_diamondtriangles.svg	35	no	57	0	727
6.6.1	mac	2022-12-23	09:26:19	09:30:14	232691	61383bdc065ccb1d5a65e09a	78798260	1	main_z	7	main_z	13	stimuli_target_diamondcircles.svg	stimuli_distractor_trianglediamonds.svg	19	yes	44	1	543
6.6.1	mac	2022-12-23	09:26:19	09:30:14	232691	61383bdc065ccb1d5a65e09a	78798260	1	main_z	7	advance_on_keypress_ZEE	14	stimuli_target_diamondcircles.svg	stimuli_distractor_trianglediamonds.svg	19	yes	57	0	936
6.6.1	mac	2022-12-23	09:26:19	09:30:16	235005	61383bdc065ccb1d5a65e09a	78798260	1	main_z	7	main_z	15	stimuli_target_diamondsquares.svg	stimuli_distractor_diamondtriangles.svg	24	yes	44	1	743
6.6.1	mac	2022-12-23	09:26:19	09:30:16	235005	61383bdc065ccb1d5a65e09a	78798260	1	main_z	7	advance_on_keypress_ZEE	16	stimuli_target_diamondsquares.svg	stimuli_distractor_diamondtriangles.svg	24	yes	57	0	741
6.6.1	mac	2022-12-23	09:26:19	09:30:18	236925	61383bdc065ccb1d5a65e09a	78798260	1	main_z	7	main_z	17	stimuli_distractor_trianglediamonds.svg	stimuli_target_circlediamonds.svg	10	yes	44	1	491
6.6.1	mac	2022-12-23	09:26:19	09:30:18	236925	61383bdc065ccb1d5a65e09a	78798260	1	main_z	7	advance_on_keypress_ZEE	18	stimuli_distractor_trianglediamonds.svg	stimuli_target_circlediamonds.svg	10	yes	57	0	470
6.6.1	mac	2022-12-23	09:26:19	09:30:20	239225	61383bdc065ccb1d5a65e09a	78798260	1	main_z	7	main_z	19	stimuli_distractor_trianglediamonds.svg	stimuli_distractor_trianglediamonds.svg	34	no	44	0	1187
6.6.1	mac	2022-12-23	09:26:19	09:30:20	239225	61383bdc065ccb1d5a65e09a	78798260	1	main_z	7	advance_on_keypress_ZEE	20	stimuli_distractor_trianglediamonds.svg	stimuli_distractor_trianglediamonds.svg	34	no	57	0	663
6.6.1	mac	2022-12-23	09:26:19	09:30:22	241164	61383bdc065ccb1d5a65e09a	78798260	1	main_z	7	main_z	21	stimuli_distractor_diamondtriangles.svg	stimuli_target_circletriangles.svg	13	yes	44	1	637
6.6.1	mac	2022-12-23	09:26:19	09:30:22	241164	61383bdc065ccb1d5a65e09a	78798260	1	main_z	7	advance_on_keypress_ZEE	22	stimuli_distractor_diamondtriangles.svg	stimuli_target_circletriangles.svg	13	yes	57	0	459
6.6.1	mac	2022-12-23	09:26:19	09:30:24	243140	61383bdc065ccb1d5a65e09a	78798260	1	main_z	7	main_z	23	stimuli_target_trianglesquares.svg	stimuli_distractor_trianglediamonds.svg	18	yes	44	1	878
6.6.1	mac	2022-12-23	09:26:19	09:30:24	243140	61383bdc065ccb1d5a65e09a	78798260	1	main_z	7	advance_on_keypress_ZEE	24	stimuli_target_trianglesquares.svg	stimuli_distractor_trianglediamonds.svg	18	yes	57	0	451
6.6.1	mac	2022-12-23	09:26:19	09:30:26	244740	61383bdc065ccb1d5a65e09a	78798260	1	main_z	7	main_z	25	stimuli_target_squarediamonds.svg	stimuli_distractor_trianglediamonds.svg	4	yes	44	1	401
6.6.1	mac	2022-12-23	09:26:19	09:30:26	244740	61383bdc065ccb1d5a65e09a	78798260	1	main_z	7	advance_on_keypress_ZEE	26	stimuli_target_squarediamonds.svg	stimuli_distractor_trianglediamonds.svg	4	yes	57	0	403
6.6.1	mac	2022-12-23	09:26:19	09:30:28	246533	61383bdc065ccb1d5a65e09a	78798260	1	main_z	7	main_z	27	stimuli_target_trianglesquares.svg	stimuli_distractor_diamondtriangles.svg	22	yes	44	1	746
6.6.1	mac	2022-12-23	09:26:19	09:30:28	246533	61383bdc065ccb1d5a65e09a	78798260	1	main_z	7	advance_on_keypress_ZEE	28	stimuli_target_trianglesquares.svg	stimuli_distractor_diamondtriangles.svg	22	yes	57	0	410
6.6.1	mac	2022-12-23	09:26:19	09:30:29	248072	61383bdc065ccb1d5a65e09a	78798260	1	main_z	7	main_z	29	stimuli_distractor_diamondtriangles.svg	stimuli_target_diamondsquares.svg	32	yes	44	1	449
6.6.1	mac	2022-12-23	09:26:19	09:30:29	248072	61383bdc065ccb1d5a65e09a	78798260	1	main_z	7	advance_on_keypress_ZEE	30	stimuli_distractor_diamondtriangles.svg	stimuli_target_diamondsquares.svg	32	yes	57	0	460
6.6.1	mac	2022-12-23	09:26:19	09:30:31	249580	61383bdc065ccb1d5a65e09a	78798260	1	main_z	7	main_z	31	stimuli_distractor_trianglediamonds.svg	stimuli_target_diamondsquares.svg	28	yes	44	1	419
6.6.1	mac	2022-12-23	09:26:19	09:30:31	249580	61383bdc065ccb1d5a65e09a	78798260	1	main_z	7	advance_on_keypress_ZEE	32	stimuli_distractor_trianglediamonds.svg	stimuli_target_diamondsquares.svg	28	yes	57	0	387
6.6.1	mac	2022-12-23	09:26:19	09:30:32	251107	61383bdc065ccb1d5a65e09a	78798260	1	main_z	7	main_z	33	stimuli_distractor_diamondtriangles.svg	stimuli_target_squarediamonds.svg	16	yes	44	1	498
6.6.1	mac	2022-12-23	09:26:19	09:30:32	251107	61383bdc065ccb1d5a65e09a	78798260	1	main_z	7	advance_on_keypress_ZEE	34	stimuli_distractor_diamondtriangles.svg	stimuli_target_squarediamonds.svg	16	yes	57	0	457
6.6.1	mac	2022-12-23	09:26:19	09:30:34	252635	61383bdc065ccb1d5a65e09a	78798260	1	main_z	7	main_z	35	stimuli_distractor_diamondtriangles.svg	stimuli_target_circlediamonds.svg	14	yes	44	1	444
6.6.1	mac	2022-12-23	09:26:19	09:30:34	252635	61383bdc065ccb1d5a65e09a	78798260	1	main_z	7	advance_on_keypress_ZEE	36	stimuli_distractor_diamondtriangles.svg	stimuli_target_circlediamonds.svg	14	yes	57	0	357
6.6.1	mac	2022-12-23	09:26:19	09:30:35	253979	61383bdc065ccb1d5a65e09a	78798260	1	main_z	7	main_z	37	stimuli_distractor_diamondtriangles.svg	stimuli_distractor_trianglediamonds.svg	38	no	44	0	352
6.6.1	mac	2022-12-23	09:26:19	09:30:35	253979	61383bdc065ccb1d5a65e09a	78798260	1	main_z	7	advance_on_keypress_ZEE	38	stimuli_distractor_diamondtriangles.svg	stimuli_distractor_trianglediamonds.svg	38	no	57	0	434
6.6.1	mac	2022-12-23	09:26:19	09:30:38	257053	61383bdc065ccb1d5a65e09a	78798260	1	main_z	7	main_z	39	stimuli_distractor_trianglediamonds.svg	stimuli_distractor_trianglediamonds.svg	33	no	0	1	2000
6.6.1	mac	2022-12-23	09:26:19	09:30:38	257053	61383bdc065ccb1d5a65e09a	78798260	1	main_z	7	advance_on_keypress_ZEE	40	stimuli_distractor_trianglediamonds.svg	stimuli_distractor_trianglediamonds.svg	33	no	57	0	508
6.6.1	mac	2022-12-23	09:26:19	09:30:40	258646	61383bdc065ccb1d5a65e09a	78798260	1	main_z	7	main_z	41	stimuli_target_squaretriangles.svg	stimuli_distractor_trianglediamonds.svg	3	yes	44	1	416
6.6.1	mac	2022-12-23	09:26:19	09:30:40	258646	61383bdc065ccb1d5a65e09a	78798260	1	main_z	7	advance_on_keypress_ZEE	42	stimuli_target_squaretriangles.svg	stimuli_distractor_trianglediamonds.svg	3	yes	57	0	372
6.6.1	mac	2022-12-23	09:26:19	09:30:41	260084	61383bdc065ccb1d5a65e09a	78798260	1	main_z	7	main_z	43	stimuli_target_diamondsquares.svg	stimuli_distractor_trianglediamonds.svg	20	yes	44	1	425
6.6.1	mac	2022-12-23	09:26:19	09:30:41	260084	61383bdc065ccb1d5a65e09a	78798260	1	main_z	7	advance_on_keypress_ZEE	44	stimuli_target_diamondsquares.svg	stimuli_distractor_trianglediamonds.svg	20	yes	57	0	356
6.6.1	mac	2022-12-23	09:26:19	09:30:43	261451	61383bdc065ccb1d5a65e09a	78798260	1	main_z	7	main_z	45	stimuli_distractor_diamondtriangles.svg	stimuli_distractor_diamondtriangles.svg	39	no	44	0	376
6.6.1	mac	2022-12-23	09:26:19	09:30:43	261451	61383bdc065ccb1d5a65e09a	78798260	1	main_z	7	advance_on_keypress_ZEE	46	stimuli_distractor_diamondtriangles.svg	stimuli_distractor_diamondtriangles.svg	39	no	57	0	403
6.6.1	mac	2022-12-23	09:26:19	09:30:46	264372	61383bdc065ccb1d5a65e09a	78798260	1	main_z	7	main_z	47	stimuli_target_squaretriangles.svg	stimuli_distractor_diamondtriangles.svg	7	yes	44	1	1885
6.6.1	mac	2022-12-23	09:26:19	09:30:46	264372	61383bdc065ccb1d5a65e09a	78798260	1	main_z	7	advance_on_keypress_ZEE	48	stimuli_target_squaretriangles.svg	stimuli_distractor_diamondtriangles.svg	7	yes	57	0	534
6.6.1	mac	2022-12-23	09:26:19	09:30:49	267584	61383bdc065ccb1d5a65e09a	78798260	1	main_z	7	main_z	49	stimuli_distractor_diamondtriangles.svg	stimuli_distractor_diamondtriangles.svg	40	no	0	1	2000
6.6.1	mac	2022-12-23	09:26:19	09:30:49	267584	61383bdc065ccb1d5a65e09a	78798260	1	main_z	7	advance_on_keypress_ZEE	50	stimuli_distractor_diamondtriangles.svg	stimuli_distractor_diamondtriangles.svg	40	no	57	0	338
6.6.1	mac	2022-12-23	09:26:19	09:30:50	269092	61383bdc065ccb1d5a65e09a	78798260	1	main_z	7	main_z	51	stimuli_distractor_trianglediamonds.svg	stimuli_target_circletriangles.svg	9	yes	44	1	490
6.6.1	mac	2022-12-23	09:26:19	09:30:50	269092	61383bdc065ccb1d5a65e09a	78798260	1	main_z	7	advance_on_keypress_ZEE	52	stimuli_distractor_trianglediamonds.svg	stimuli_target_circletriangles.svg	9	yes	57	0	498
6.6.1	mac	2022-12-23	09:26:19	09:30:52	270819	61383bdc065ccb1d5a65e09a	78798260	1	main_z	7	main_z	53	stimuli_distractor_diamondtriangles.svg	stimuli_target_diamondcircles.svg	31	yes	44	1	600
6.6.1	mac	2022-12-23	09:26:19	09:30:52	270819	61383bdc065ccb1d5a65e09a	78798260	1	main_z	7	advance_on_keypress_ZEE	54	stimuli_distractor_diamondtriangles.svg	stimuli_target_diamondcircles.svg	31	yes	57	0	533
6.6.1	mac	2022-12-23	09:26:19	09:30:54	272496	61383bdc065ccb1d5a65e09a	78798260	1	main_z	7	main_z	55	stimuli_distractor_trianglediamonds.svg	stimuli_target_diamondcircles.svg	27	yes	44	1	512
6.6.1	mac	2022-12-23	09:26:19	09:30:54	272496	61383bdc065ccb1d5a65e09a	78798260	1	main_z	7	advance_on_keypress_ZEE	56	stimuli_distractor_trianglediamonds.svg	stimuli_target_diamondcircles.svg	27	yes	57	0	469
6.6.1	mac	2022-12-23	09:26:19	09:30:55	274011	61383bdc065ccb1d5a65e09a	78798260	1	main_z	7	main_z	57	stimuli_distractor_diamondtriangles.svg	stimuli_distractor_trianglediamonds.svg	37	no	44	0	407
6.6.1	mac	2022-12-23	09:26:19	09:30:55	274011	61383bdc065ccb1d5a65e09a	78798260	1	main_z	7	advance_on_keypress_ZEE	58	stimuli_distractor_diamondtriangles.svg	stimuli_distractor_trianglediamonds.svg	37	no	57	0	511
6.6.1	mac	2022-12-23	09:26:19	09:30:58	276561	61383bdc065ccb1d5a65e09a	78798260	1	main_z	7	main_z	59	stimuli_distractor_trianglediamonds.svg	stimuli_target_squarediamonds.svg	12	yes	44	1	1405
6.6.1	mac	2022-12-23	09:26:19	09:30:58	276561	61383bdc065ccb1d5a65e09a	78798260	1	main_z	7	advance_on_keypress_ZEE	60	stimuli_distractor_trianglediamonds.svg	stimuli_target_squarediamonds.svg	12	yes	57	0	675
6.6.1	mac	2022-12-23	09:26:19	09:31:00	278430	61383bdc065ccb1d5a65e09a	78798260	1	main_z	7	main_z	61	stimuli_target_diamondcircles.svg	stimuli_distractor_diamondtriangles.svg	23	yes	44	1	568
6.6.1	mac	2022-12-23	09:26:19	09:31:00	278430	61383bdc065ccb1d5a65e09a	78798260	1	main_z	7	advance_on_keypress_ZEE	62	stimuli_target_diamondcircles.svg	stimuli_distractor_diamondtriangles.svg	23	yes	57	0	442
6.6.1	mac	2022-12-23	09:26:19	09:31:01	279951	61383bdc065ccb1d5a65e09a	78798260	1	main_z	7	main_z	63	stimuli_target_circletriangles.svg	stimuli_distractor_trianglediamonds.svg	1	yes	44	1	427
6.6.1	mac	2022-12-23	09:26:19	09:31:01	279951	61383bdc065ccb1d5a65e09a	78798260	1	main_z	7	advance_on_keypress_ZEE	64	stimuli_target_circletriangles.svg	stimuli_distractor_trianglediamonds.svg	1	yes	57	0	672
6.6.1	mac	2022-12-23	09:26:19	09:31:03	281834	61383bdc065ccb1d5a65e09a	78798260	1	main_z	7	main_z	65	stimuli_distractor_diamondtriangles.svg	stimuli_target_trianglesquares.svg	30	yes	44	1	582
6.6.1	mac	2022-12-23	09:26:19	09:31:03	281834	61383bdc065ccb1d5a65e09a	78798260	1	main_z	7	advance_on_keypress_ZEE	66	stimuli_distractor_diamondtriangles.svg	stimuli_target_trianglesquares.svg	30	yes	57	0	441
6.6.1	mac	2022-12-23	09:26:19	09:31:05	283326	61383bdc065ccb1d5a65e09a	78798260	1	main_z	7	main_z	67	stimuli_distractor_trianglediamonds.svg	stimuli_target_squaretriangles.svg	11	yes	44	1	414
6.6.1	mac	2022-12-23	09:26:19	09:31:05	283326	61383bdc065ccb1d5a65e09a	78798260	1	main_z	7	advance_on_keypress_ZEE	68	stimuli_distractor_trianglediamonds.svg	stimuli_target_squaretriangles.svg	11	yes	57	0	393
6.6.1	mac	2022-12-23	09:26:19	09:31:06	284718	61383bdc065ccb1d5a65e09a	78798260	1	main_z	7	main_z	69	stimuli_distractor_diamondtriangles.svg	stimuli_target_squaretriangles.svg	15	yes	44	1	360
6.6.1	mac	2022-12-23	09:26:19	09:31:06	284718	61383bdc065ccb1d5a65e09a	78798260	1	main_z	7	advance_on_keypress_ZEE	70	stimuli_distractor_diamondtriangles.svg	stimuli_target_squaretriangles.svg	15	yes	57	0	523
6.6.1	mac	2022-12-23	09:26:19	09:31:08	286345	61383bdc065ccb1d5a65e09a	78798260	1	main_z	7	main_z	71	stimuli_target_circlediamonds.svg	stimuli_distractor_diamondtriangles.svg	6	yes	44	1	474
6.6.1	mac	2022-12-23	09:26:19	09:31:08	286345	61383bdc065ccb1d5a65e09a	78798260	1	main_z	7	advance_on_keypress_ZEE	72	stimuli_target_circlediamonds.svg	stimuli_distractor_diamondtriangles.svg	6	yes	57	0	418
6.6.1	mac	2022-12-23	09:26:19	09:31:09	287754	61383bdc065ccb1d5a65e09a	78798260	1	main_z	7	main_z	73	stimuli_distractor_trianglediamonds.svg	stimuli_target_trianglesquares.svg	26	yes	44	1	354
6.6.1	mac	2022-12-23	09:26:19	09:31:09	287754	61383bdc065ccb1d5a65e09a	78798260	1	main_z	7	advance_on_keypress_ZEE	74	stimuli_distractor_trianglediamonds.svg	stimuli_target_trianglesquares.svg	26	yes	57	0	618
6.6.1	mac	2022-12-23	09:26:19	09:31:12	291006	61383bdc065ccb1d5a65e09a	78798260	1	main_z	7	main_z	75	stimuli_target_circlediamonds.svg	stimuli_distractor_trianglediamonds.svg	2	yes	0	0	2000
6.6.1	mac	2022-12-23	09:26:19	09:31:12	291006	61383bdc065ccb1d5a65e09a	78798260	1	main_z	7	advance_on_keypress_ZEE	76	stimuli_target_circlediamonds.svg	stimuli_distractor_trianglediamonds.svg	2	yes	57	0	393
6.6.1	mac	2022-12-23	09:26:19	09:31:14	292677	61383bdc065ccb1d5a65e09a	78798260	1	main_z	7	main_z	77	stimuli_target_squarediamonds.svg	stimuli_distractor_diamondtriangles.svg	8	yes	44	1	643
6.6.1	mac	2022-12-23	09:26:19	09:31:14	292677	61383bdc065ccb1d5a65e09a	78798260	1	main_z	7	advance_on_keypress_ZEE	78	stimuli_target_squarediamonds.svg	stimuli_distractor_diamondtriangles.svg	8	yes	57	0	384
6.6.1	mac	2022-12-23	09:26:19	09:31:15	294160	61383bdc065ccb1d5a65e09a	78798260	1	main_z	7	main_z	79	stimuli_distractor_trianglediamonds.svg	stimuli_target_trianglecircles.svg	25	yes	44	1	463
6.6.1	mac	2022-12-23	09:26:19	09:31:15	294160	61383bdc065ccb1d5a65e09a	78798260	1	main_z	7	advance_on_keypress_ZEE	80	stimuli_distractor_trianglediamonds.svg	stimuli_target_trianglecircles.svg	25	yes	57	0	510
6.6.1	mac	2022-12-23	09:26:19	09:31:19	297293	61383bdc065ccb1d5a65e09a	78798260	1	main_z	7	main_z	81	stimuli_distractor_diamondtriangles.svg	stimuli_distractor_diamondtriangles.svg	39	no	0	1	2000
6.6.1	mac	2022-12-23	09:26:19	09:31:19	297293	61383bdc065ccb1d5a65e09a	78798260	1	main_z	7	advance_on_keypress_ZEE	82	stimuli_distractor_diamondtriangles.svg	stimuli_distractor_diamondtriangles.svg	39	no	57	0	370
6.6.1	mac	2022-12-23	09:26:19	09:31:22	300345	61383bdc065ccb1d5a65e09a	78798260	1	main_z	7	main_z	83	stimuli_distractor_trianglediamonds.svg	stimuli_distractor_trianglediamonds.svg	34	no	0	1	2000
6.6.1	mac	2022-12-23	09:26:19	09:31:22	300345	61383bdc065ccb1d5a65e09a	78798260	1	main_z	7	advance_on_keypress_ZEE	84	stimuli_distractor_trianglediamonds.svg	stimuli_distractor_trianglediamonds.svg	34	no	57	0	451
6.6.1	mac	2022-12-23	09:26:19	09:31:25	303420	61383bdc065ccb1d5a65e09a	78798260	1	main_z	7	main_z	85	stimuli_distractor_trianglediamonds.svg	stimuli_distractor_trianglediamonds.svg	33	no	0	1	2000
6.6.1	mac	2022-12-23	09:26:19	09:31:25	303420	61383bdc065ccb1d5a65e09a	78798260	1	main_z	7	advance_on_keypress_ZEE	86	stimuli_distractor_trianglediamonds.svg	stimuli_distractor_trianglediamonds.svg	33	no	57	0	341
6.6.1	mac	2022-12-23	09:26:19	09:31:26	304957	61383bdc065ccb1d5a65e09a	78798260	1	main_z	7	main_z	87	stimuli_target_circletriangles.svg	stimuli_distractor_trianglediamonds.svg	1	yes	44	1	492
6.6.1	mac	2022-12-23	09:26:19	09:31:26	304957	61383bdc065ccb1d5a65e09a	78798260	1	main_z	7	advance_on_keypress_ZEE	88	stimuli_target_circletriangles.svg	stimuli_distractor_trianglediamonds.svg	1	yes	57	0	776
6.6.1	mac	2022-12-23	09:26:19	09:31:28	306836	61383bdc065ccb1d5a65e09a	78798260	1	main_z	7	main_z	89	stimuli_distractor_trianglediamonds.svg	stimuli_target_squaretriangles.svg	11	yes	44	1	465
6.6.1	mac	2022-12-23	09:26:19	09:31:28	306836	61383bdc065ccb1d5a65e09a	78798260	1	main_z	7	advance_on_keypress_ZEE	90	stimuli_distractor_trianglediamonds.svg	stimuli_target_squaretriangles.svg	11	yes	57	0	660
6.6.1	mac	2022-12-23	09:26:19	09:31:30	308589	61383bdc065ccb1d5a65e09a	78798260	1	main_z	7	main_z	91	stimuli_distractor_trianglediamonds.svg	stimuli_target_circletriangles.svg	9	yes	44	1	470
6.6.1	mac	2022-12-23	09:26:19	09:31:30	308589	61383bdc065ccb1d5a65e09a	78798260	1	main_z	7	advance_on_keypress_ZEE	92	stimuli_distractor_trianglediamonds.svg	stimuli_target_circletriangles.svg	9	yes	57	0	705
6.6.1	mac	2022-12-23	09:26:19	09:31:32	310377	61383bdc065ccb1d5a65e09a	78798260	1	main_z	7	main_z	93	stimuli_distractor_trianglediamonds.svg	stimuli_target_trianglecircles.svg	25	yes	44	1	422
6.6.1	mac	2022-12-23	09:26:19	09:31:32	310377	61383bdc065ccb1d5a65e09a	78798260	1	main_z	7	advance_on_keypress_ZEE	94	stimuli_distractor_trianglediamonds.svg	stimuli_target_trianglecircles.svg	25	yes	57	0	581
6.6.1	mac	2022-12-23	09:26:19	09:31:34	312449	61383bdc065ccb1d5a65e09a	78798260	1	main_z	7	main_z	95	stimuli_distractor_trianglediamonds.svg	stimuli_target_squarediamonds.svg	12	yes	44	1	858
6.6.1	mac	2022-12-23	09:26:19	09:31:34	312449	61383bdc065ccb1d5a65e09a	78798260	1	main_z	7	advance_on_keypress_ZEE	96	stimuli_distractor_trianglediamonds.svg	stimuli_target_squarediamonds.svg	12	yes	57	0	456
6.6.1	mac	2022-12-23	09:26:19	09:31:35	313997	61383bdc065ccb1d5a65e09a	78798260	1	main_z	7	main_z	97	stimuli_target_squaretriangles.svg	stimuli_distractor_diamondtriangles.svg	7	yes	44	1	405
6.6.1	mac	2022-12-23	09:26:19	09:31:35	313997	61383bdc065ccb1d5a65e09a	78798260	1	main_z	7	advance_on_keypress_ZEE	98	stimuli_target_squaretriangles.svg	stimuli_distractor_diamondtriangles.svg	7	yes	57	0	603
6.6.1	mac	2022-12-23	09:26:19	09:31:37	315777	61383bdc065ccb1d5a65e09a	78798260	1	main_z	7	main_z	99	stimuli_distractor_diamondtriangles.svg	stimuli_target_squaretriangles.svg	15	yes	44	1	534
6.6.1	mac	2022-12-23	09:26:19	09:31:37	315777	61383bdc065ccb1d5a65e09a	78798260	1	main_z	7	advance_on_keypress_ZEE	100	stimuli_distractor_diamondtriangles.svg	stimuli_target_squaretriangles.svg	15	yes	57	0	450
6.6.1	mac	2022-12-23	09:26:19	09:31:40	318852	61383bdc065ccb1d5a65e09a	78798260	1	main_z	7	main_z	101	stimuli_distractor_trianglediamonds.svg	stimuli_distractor_diamondtriangles.svg	35	no	0	1	2000
6.6.1	mac	2022-12-23	09:26:19	09:31:40	318852	61383bdc065ccb1d5a65e09a	78798260	1	main_z	7	advance_on_keypress_ZEE	102	stimuli_distractor_trianglediamonds.svg	stimuli_distractor_diamondtriangles.svg	35	no	57	0	282
6.6.1	mac	2022-12-23	09:26:19	09:31:43	321828	61383bdc065ccb1d5a65e09a	78798260	1	main_z	7	main_z	103	stimuli_distractor_diamondtriangles.svg	stimuli_distractor_trianglediamonds.svg	37	no	0	1	2000
6.6.1	mac	2022-12-23	09:26:19	09:31:43	321828	61383bdc065ccb1d5a65e09a	78798260	1	main_z	7	advance_on_keypress_ZEE	104	stimuli_distractor_diamondtriangles.svg	stimuli_distractor_trianglediamonds.svg	37	no	57	0	432
6.6.1	mac	2022-12-23	09:26:19	09:31:45	323503	61383bdc065ccb1d5a65e09a	78798260	1	main_z	7	main_z	105	stimuli_distractor_diamondtriangles.svg	stimuli_target_circletriangles.svg	13	yes	44	1	556
6.6.1	mac	2022-12-23	09:26:19	09:31:45	323503	61383bdc065ccb1d5a65e09a	78798260	1	main_z	7	advance_on_keypress_ZEE	106	stimuli_distractor_diamondtriangles.svg	stimuli_target_circletriangles.svg	13	yes	57	0	483
6.6.1	mac	2022-12-23	09:26:19	09:31:47	325378	61383bdc065ccb1d5a65e09a	78798260	1	main_z	7	main_z	107	stimuli_distractor_trianglediamonds.svg	stimuli_target_diamondcircles.svg	27	yes	44	1	748
6.6.1	mac	2022-12-23	09:26:19	09:31:47	325378	61383bdc065ccb1d5a65e09a	78798260	1	main_z	7	advance_on_keypress_ZEE	108	stimuli_distractor_trianglediamonds.svg	stimuli_target_diamondcircles.svg	27	yes	57	0	496
6.6.1	mac	2022-12-23	09:26:19	09:31:49	327274	61383bdc065ccb1d5a65e09a	78798260	1	main_z	7	main_z	109	stimuli_target_squarediamonds.svg	stimuli_distractor_trianglediamonds.svg	4	yes	44	1	760
6.6.1	mac	2022-12-23	09:26:19	09:31:49	327274	61383bdc065ccb1d5a65e09a	78798260	1	main_z	7	advance_on_keypress_ZEE	110	stimuli_target_squarediamonds.svg	stimuli_distractor_trianglediamonds.svg	4	yes	57	0	653
6.6.1	mac	2022-12-23	09:26:19	09:31:51	329286	61383bdc065ccb1d5a65e09a	78798260	1	main_z	7	main_z	111	stimuli_target_circlediamonds.svg	stimuli_distractor_diamondtriangles.svg	6	yes	44	1	729
6.6.1	mac	2022-12-23	09:26:19	09:31:51	329286	61383bdc065ccb1d5a65e09a	78798260	1	main_z	7	advance_on_keypress_ZEE	112	stimuli_target_circlediamonds.svg	stimuli_distractor_diamondtriangles.svg	6	yes	57	0	575
6.6.1	mac	2022-12-23	09:26:19	09:31:52	330979	61383bdc065ccb1d5a65e09a	78798260	1	main_z	7	main_z	113	stimuli_target_circletriangles.svg	stimuli_distractor_diamondtriangles.svg	5	yes	44	1	480
6.6.1	mac	2022-12-23	09:26:19	09:31:52	330979	61383bdc065ccb1d5a65e09a	78798260	1	main_z	7	advance_on_keypress_ZEE	114	stimuli_target_circletriangles.svg	stimuli_distractor_diamondtriangles.svg	5	yes	57	0	668
6.6.1	mac	2022-12-23	09:26:19	09:31:54	332738	61383bdc065ccb1d5a65e09a	78798260	1	main_z	7	main_z	115	stimuli_target_trianglecircles.svg	stimuli_distractor_trianglediamonds.svg	17	yes	44	1	456
6.6.1	mac	2022-12-23	09:26:19	09:31:54	332738	61383bdc065ccb1d5a65e09a	78798260	1	main_z	7	advance_on_keypress_ZEE	116	stimuli_target_trianglecircles.svg	stimuli_distractor_trianglediamonds.svg	17	yes	57	0	585
6.6.1	mac	2022-12-23	09:26:19	09:31:56	334854	61383bdc065ccb1d5a65e09a	78798260	1	main_z	7	main_z	117	stimuli_distractor_trianglediamonds.svg	stimuli_distractor_diamondtriangles.svg	36	no	44	0	898
6.6.1	mac	2022-12-23	09:26:19	09:31:56	334854	61383bdc065ccb1d5a65e09a	78798260	1	main_z	7	advance_on_keypress_ZEE	118	stimuli_distractor_trianglediamonds.svg	stimuli_distractor_diamondtriangles.svg	36	no	57	0	437
6.6.1	mac	2022-12-23	09:26:19	09:31:58	336653	61383bdc065ccb1d5a65e09a	78798260	1	main_z	7	main_z	119	stimuli_target_trianglesquares.svg	stimuli_distractor_trianglediamonds.svg	18	yes	44	1	665
6.6.1	mac	2022-12-23	09:26:19	09:31:58	336653	61383bdc065ccb1d5a65e09a	78798260	1	main_z	7	advance_on_keypress_ZEE	120	stimuli_target_trianglesquares.svg	stimuli_distractor_trianglediamonds.svg	18	yes	57	0	548
6.6.1	mac	2022-12-23	09:26:19	09:32:00	338526	61383bdc065ccb1d5a65e09a	78798260	1	main_z	7	main_z	121	stimuli_distractor_diamondtriangles.svg	stimuli_target_trianglesquares.svg	30	yes	44	1	688
6.6.1	mac	2022-12-23	09:26:19	09:32:00	338526	61383bdc065ccb1d5a65e09a	78798260	1	main_z	7	advance_on_keypress_ZEE	122	stimuli_distractor_diamondtriangles.svg	stimuli_target_trianglesquares.svg	30	yes	57	0	544
6.6.1	mac	2022-12-23	09:26:19	09:32:01	340214	61383bdc065ccb1d5a65e09a	78798260	1	main_z	7	main_z	123	stimuli_target_trianglesquares.svg	stimuli_distractor_diamondtriangles.svg	22	yes	44	1	507
6.6.1	mac	2022-12-23	09:26:19	09:32:01	340214	61383bdc065ccb1d5a65e09a	78798260	1	main_z	7	advance_on_keypress_ZEE	124	stimuli_target_trianglesquares.svg	stimuli_distractor_diamondtriangles.svg	22	yes	57	0	439
6.6.1	mac	2022-12-23	09:26:19	09:32:03	341950	61383bdc065ccb1d5a65e09a	78798260	1	main_z	7	main_z	125	stimuli_target_diamondsquares.svg	stimuli_distractor_trianglediamonds.svg	20	yes	44	1	666
6.6.1	mac	2022-12-23	09:26:19	09:32:03	341950	61383bdc065ccb1d5a65e09a	78798260	1	main_z	7	advance_on_keypress_ZEE	126	stimuli_target_diamondsquares.svg	stimuli_distractor_trianglediamonds.svg	20	yes	57	0	453
6.6.1	mac	2022-12-23	09:26:19	09:32:05	343548	61383bdc065ccb1d5a65e09a	78798260	1	main_z	7	main_z	127	stimuli_distractor_diamondtriangles.svg	stimuli_target_trianglecircles.svg	29	yes	44	1	513
6.6.1	mac	2022-12-23	09:26:19	09:32:05	343548	61383bdc065ccb1d5a65e09a	78798260	1	main_z	7	advance_on_keypress_ZEE	128	stimuli_distractor_diamondtriangles.svg	stimuli_target_trianglecircles.svg	29	yes	57	0	559
6.6.1	mac	2022-12-23	09:26:19	09:32:07	345356	61383bdc065ccb1d5a65e09a	78798260	1	main_z	7	main_z	129	stimuli_target_circlediamonds.svg	stimuli_distractor_trianglediamonds.svg	2	yes	44	1	608
6.6.1	mac	2022-12-23	09:26:19	09:32:07	345356	61383bdc065ccb1d5a65e09a	78798260	1	main_z	7	advance_on_keypress_ZEE	130	stimuli_target_circlediamonds.svg	stimuli_distractor_trianglediamonds.svg	2	yes	57	0	478
6.6.1	mac	2022-12-23	09:26:19	09:32:08	347016	61383bdc065ccb1d5a65e09a	78798260	1	main_z	7	main_z	131	stimuli_distractor_diamondtriangles.svg	stimuli_target_circlediamonds.svg	14	yes	44	1	543
6.6.1	mac	2022-12-23	09:26:19	09:32:08	347016	61383bdc065ccb1d5a65e09a	78798260	1	main_z	7	advance_on_keypress_ZEE	132	stimuli_distractor_diamondtriangles.svg	stimuli_target_circlediamonds.svg	14	yes	57	0	404
6.6.1	mac	2022-12-23	09:26:19	09:32:10	348586	61383bdc065ccb1d5a65e09a	78798260	1	main_z	7	main_z	133	stimuli_target_squaretriangles.svg	stimuli_distractor_trianglediamonds.svg	3	yes	44	1	529
6.6.1	mac	2022-12-23	09:26:19	09:32:10	348586	61383bdc065ccb1d5a65e09a	78798260	1	main_z	7	advance_on_keypress_ZEE	134	stimuli_target_squaretriangles.svg	stimuli_distractor_trianglediamonds.svg	3	yes	57	0	420
6.6.1	mac	2022-12-23	09:26:19	09:32:12	350359	61383bdc065ccb1d5a65e09a	78798260	1	main_z	7	main_z	135	stimuli_target_diamondsquares.svg	stimuli_distractor_diamondtriangles.svg	24	yes	44	1	719
6.6.1	mac	2022-12-23	09:26:19	09:32:12	350359	61383bdc065ccb1d5a65e09a	78798260	1	main_z	7	advance_on_keypress_ZEE	136	stimuli_target_diamondsquares.svg	stimuli_distractor_diamondtriangles.svg	24	yes	57	0	410
6.6.1	mac	2022-12-23	09:26:19	09:32:13	352061	61383bdc065ccb1d5a65e09a	78798260	1	main_z	7	main_z	137	stimuli_target_diamondcircles.svg	stimuli_distractor_diamondtriangles.svg	23	yes	44	1	670
6.6.1	mac	2022-12-23	09:26:19	09:32:13	352061	61383bdc065ccb1d5a65e09a	78798260	1	main_z	7	advance_on_keypress_ZEE	138	stimuli_target_diamondcircles.svg	stimuli_distractor_diamondtriangles.svg	23	yes	57	0	453
6.6.1	mac	2022-12-23	09:26:19	09:32:15	353744	61383bdc065ccb1d5a65e09a	78798260	1	main_z	7	main_z	139	stimuli_target_diamondcircles.svg	stimuli_distractor_trianglediamonds.svg	19	yes	44	1	597
6.6.1	mac	2022-12-23	09:26:19	09:32:15	353744	61383bdc065ccb1d5a65e09a	78798260	1	main_z	7	advance_on_keypress_ZEE	140	stimuli_target_diamondcircles.svg	stimuli_distractor_trianglediamonds.svg	19	yes	57	0	495
6.6.1	mac	2022-12-23	09:26:19	09:32:17	355460	61383bdc065ccb1d5a65e09a	78798260	1	main_z	7	main_z	141	stimuli_distractor_diamondtriangles.svg	stimuli_distractor_diamondtriangles.svg	40	no	44	0	595
6.6.1	mac	2022-12-23	09:26:19	09:32:17	355460	61383bdc065ccb1d5a65e09a	78798260	1	main_z	7	advance_on_keypress_ZEE	142	stimuli_distractor_diamondtriangles.svg	stimuli_distractor_diamondtriangles.svg	40	no	57	0	1615
6.6.1	mac	2022-12-23	09:26:19	09:32:20	358381	61383bdc065ccb1d5a65e09a	78798260	1	main_z	7	main_z	143	stimuli_distractor_trianglediamonds.svg	stimuli_target_trianglesquares.svg	26	yes	44	1	665
6.6.1	mac	2022-12-23	09:26:19	09:32:20	358381	61383bdc065ccb1d5a65e09a	78798260	1	main_z	7	advance_on_keypress_ZEE	144	stimuli_distractor_trianglediamonds.svg	stimuli_target_trianglesquares.svg	26	yes	57	0	446
6.6.1	mac	2022-12-23	09:26:19	09:32:21	360191	61383bdc065ccb1d5a65e09a	78798260	1	main_z	7	main_z	145	stimuli_target_squarediamonds.svg	stimuli_distractor_diamondtriangles.svg	8	yes	44	1	742
6.6.1	mac	2022-12-23	09:26:19	09:32:21	360191	61383bdc065ccb1d5a65e09a	78798260	1	main_z	7	advance_on_keypress_ZEE	146	stimuli_target_squarediamonds.svg	stimuli_distractor_diamondtriangles.svg	8	yes	57	0	430
6.6.1	mac	2022-12-23	09:26:19	09:32:23	362078	61383bdc065ccb1d5a65e09a	78798260	1	main_z	7	main_z	147	stimuli_distractor_trianglediamonds.svg	stimuli_target_diamondsquares.svg	28	yes	44	1	758
6.6.1	mac	2022-12-23	09:26:19	09:32:23	362078	61383bdc065ccb1d5a65e09a	78798260	1	main_z	7	advance_on_keypress_ZEE	148	stimuli_distractor_trianglediamonds.svg	stimuli_target_diamondsquares.svg	28	yes	57	0	411
6.6.1	mac	2022-12-23	09:26:19	09:32:25	363887	61383bdc065ccb1d5a65e09a	78798260	1	main_z	7	main_z	149	stimuli_distractor_diamondtriangles.svg	stimuli_target_diamondcircles.svg	31	yes	44	1	711
6.6.1	mac	2022-12-23	09:26:19	09:32:25	363887	61383bdc065ccb1d5a65e09a	78798260	1	main_z	7	advance_on_keypress_ZEE	150	stimuli_distractor_diamondtriangles.svg	stimuli_target_diamondcircles.svg	31	yes	57	0	448
6.6.1	mac	2022-12-23	09:26:19	09:32:28	366977	61383bdc065ccb1d5a65e09a	78798260	1	main_z	7	main_z	151	stimuli_distractor_diamondtriangles.svg	stimuli_distractor_trianglediamonds.svg	38	no	0	1	2000
6.6.1	mac	2022-12-23	09:26:19	09:32:28	366977	61383bdc065ccb1d5a65e09a	78798260	1	main_z	7	advance_on_keypress_ZEE	152	stimuli_distractor_diamondtriangles.svg	stimuli_distractor_trianglediamonds.svg	38	no	57	0	385
6.6.1	mac	2022-12-23	09:26:19	09:32:30	368553	61383bdc065ccb1d5a65e09a	78798260	1	main_z	7	main_z	153	stimuli_distractor_diamondtriangles.svg	stimuli_target_diamondsquares.svg	32	yes	44	1	559
6.6.1	mac	2022-12-23	09:26:19	09:32:30	368553	61383bdc065ccb1d5a65e09a	78798260	1	main_z	7	advance_on_keypress_ZEE	154	stimuli_distractor_diamondtriangles.svg	stimuli_target_diamondsquares.svg	32	yes	57	0	456
6.6.1	mac	2022-12-23	09:26:19	09:32:31	370143	61383bdc065ccb1d5a65e09a	78798260	1	main_z	7	main_z	155	stimuli_target_trianglecircles.svg	stimuli_distractor_diamondtriangles.svg	21	yes	44	1	501
6.6.1	mac	2022-12-23	09:26:19	09:32:31	370143	61383bdc065ccb1d5a65e09a	78798260	1	main_z	7	advance_on_keypress_ZEE	156	stimuli_target_trianglecircles.svg	stimuli_distractor_diamondtriangles.svg	21	yes	57	0	365
6.6.1	mac	2022-12-23	09:26:19	09:32:34	373138	61383bdc065ccb1d5a65e09a	78798260	1	main_z	7	main_z	157	stimuli_distractor_diamondtriangles.svg	stimuli_target_squarediamonds.svg	16	yes	0	0	2000
6.6.1	mac	2022-12-23	09:26:19	09:32:34	373138	61383bdc065ccb1d5a65e09a	78798260	1	main_z	7	advance_on_keypress_ZEE	158	stimuli_distractor_diamondtriangles.svg	stimuli_target_squarediamonds.svg	16	yes	57	0	428
6.6.1	mac	2022-12-23	09:26:19	09:32:36	374802	61383bdc065ccb1d5a65e09a	78798260	1	main_z	7	main_z	159	stimuli_distractor_trianglediamonds.svg	stimuli_target_circlediamonds.svg	10	yes	44	1	559
6.6.1	mac	2022-12-23	09:26:19	09:32:36	374802	61383bdc065ccb1d5a65e09a	78798260	1	main_z	7	advance_on_keypress_ZEE	160	stimuli_distractor_trianglediamonds.svg	stimuli_target_circlediamonds.svg	10	yes	57	0	493
6.6.1	mac	2022-12-23	09:26:19	09:32:54	392604	61383bdc065ccb1d5a65e09a	78798260	1	practice_slash	9	practice_slash	1	stimuli_distractor_trianglediamonds.svg	stimuli_target_squarediamonds.svg	11	yes	53	1	716
6.6.1	mac	2022-12-23	09:26:19	09:32:54	392604	61383bdc065ccb1d5a65e09a	78798260	1	practice_slash	9	advance_on_keypress_SLASH	2	stimuli_distractor_trianglediamonds.svg	stimuli_target_squarediamonds.svg	11	yes	57	0	1015
6.6.1	mac	2022-12-23	09:26:19	09:32:57	395809	61383bdc065ccb1d5a65e09a	78798260	1	practice_slash	9	practice_slash	3	stimuli_distractor_diamondtriangles.svg	stimuli_target_diamondcircles.svg	8	yes	53	1	483
6.6.1	mac	2022-12-23	09:26:19	09:32:57	395809	61383bdc065ccb1d5a65e09a	78798260	1	practice_slash	9	advance_on_keypress_SLASH	4	stimuli_distractor_diamondtriangles.svg	stimuli_target_diamondcircles.svg	8	yes	57	0	637
6.6.1	mac	2022-12-23	09:26:19	09:33:00	398615	61383bdc065ccb1d5a65e09a	78798260	1	practice_slash	9	practice_slash	5	stimuli_distractor_diamondtriangles.svg	stimuli_target_trianglecircles.svg	9	yes	53	1	531
6.6.1	mac	2022-12-23	09:26:19	09:33:00	398615	61383bdc065ccb1d5a65e09a	78798260	1	practice_slash	9	advance_on_keypress_SLASH	6	stimuli_distractor_diamondtriangles.svg	stimuli_target_trianglecircles.svg	9	yes	57	0	620
6.6.1	mac	2022-12-23	09:26:19	09:33:04	402870	61383bdc065ccb1d5a65e09a	78798260	1	practice_slash	9	practice_slash	7	stimuli_distractor_diamondtriangles.svg	stimuli_distractor_trianglediamonds.svg	14	no	0	1	2000
6.6.1	mac	2022-12-23	09:26:19	09:33:04	402870	61383bdc065ccb1d5a65e09a	78798260	1	practice_slash	9	advance_on_keypress_SLASH	8	stimuli_distractor_diamondtriangles.svg	stimuli_distractor_trianglediamonds.svg	14	no	57	0	383
6.6.1	mac	2022-12-23	09:26:19	09:33:07	405523	61383bdc065ccb1d5a65e09a	78798260	1	practice_slash	9	practice_slash	9	stimuli_distractor_trianglediamonds.svg	stimuli_target_circlediamonds.svg	10	yes	53	1	577
6.6.1	mac	2022-12-23	09:26:19	09:33:07	405523	61383bdc065ccb1d5a65e09a	78798260	1	practice_slash	9	advance_on_keypress_SLASH	10	stimuli_distractor_trianglediamonds.svg	stimuli_target_circlediamonds.svg	10	yes	57	0	553
6.6.1	mac	2022-12-23	09:26:19	09:33:10	408571	61383bdc065ccb1d5a65e09a	78798260	1	practice_slash	9	practice_slash	11	stimuli_distractor_diamondtriangles.svg	stimuli_target_circletriangles.svg	7	yes	53	1	780
6.6.1	mac	2022-12-23	09:26:19	09:33:10	408571	61383bdc065ccb1d5a65e09a	78798260	1	practice_slash	9	advance_on_keypress_SLASH	12	stimuli_distractor_diamondtriangles.svg	stimuli_target_circletriangles.svg	7	yes	57	0	588
6.6.1	mac	2022-12-23	09:26:19	09:33:13	411280	61383bdc065ccb1d5a65e09a	78798260	1	practice_slash	9	practice_slash	13	stimuli_target_circlediamonds.svg	stimuli_distractor_diamondtriangles.svg	1	yes	53	1	488
6.6.1	mac	2022-12-23	09:26:19	09:33:13	411280	61383bdc065ccb1d5a65e09a	78798260	1	practice_slash	9	advance_on_keypress_SLASH	14	stimuli_target_circlediamonds.svg	stimuli_distractor_diamondtriangles.svg	1	yes	57	0	506
6.6.1	mac	2022-12-23	09:26:19	09:33:15	413917	61383bdc065ccb1d5a65e09a	78798260	1	practice_slash	9	practice_slash	15	stimuli_distractor_trianglediamonds.svg	stimuli_target_diamondcircles.svg	12	yes	53	1	495
6.6.1	mac	2022-12-23	09:26:19	09:33:15	413917	61383bdc065ccb1d5a65e09a	78798260	1	practice_slash	9	advance_on_keypress_SLASH	16	stimuli_distractor_trianglediamonds.svg	stimuli_target_diamondcircles.svg	12	yes	57	0	658
6.6.1	mac	2022-12-23	09:26:19	09:33:18	417058	61383bdc065ccb1d5a65e09a	78798260	1	practice_slash	9	practice_slash	17	stimuli_target_squarediamonds.svg	stimuli_distractor_diamondtriangles.svg	2	yes	53	1	840
6.6.1	mac	2022-12-23	09:26:19	09:33:18	417058	61383bdc065ccb1d5a65e09a	78798260	1	practice_slash	9	advance_on_keypress_SLASH	18	stimuli_target_squarediamonds.svg	stimuli_distractor_diamondtriangles.svg	2	yes	57	0	725
6.6.1	mac	2022-12-23	09:26:19	09:33:21	419992	61383bdc065ccb1d5a65e09a	78798260	1	practice_slash	9	practice_slash	19	stimuli_target_circlediamonds.svg	stimuli_distractor_trianglediamonds.svg	4	yes	53	1	500
6.6.1	mac	2022-12-23	09:26:19	09:33:21	419992	61383bdc065ccb1d5a65e09a	78798260	1	practice_slash	9	advance_on_keypress_SLASH	20	stimuli_target_circlediamonds.svg	stimuli_distractor_trianglediamonds.svg	4	yes	57	0	624
6.6.1	mac	2022-12-23	09:26:19	09:33:24	422833	61383bdc065ccb1d5a65e09a	78798260	1	practice_slash	9	practice_slash	21	stimuli_distractor_trianglediamonds.svg	stimuli_distractor_diamondtriangles.svg	16	no	53	0	533
6.6.1	mac	2022-12-23	09:26:19	09:33:24	422833	61383bdc065ccb1d5a65e09a	78798260	1	practice_slash	9	advance_on_keypress_SLASH	22	stimuli_distractor_trianglediamonds.svg	stimuli_distractor_diamondtriangles.svg	16	no	57	0	639
6.6.1	mac	2022-12-23	09:26:19	09:33:28	427112	61383bdc065ccb1d5a65e09a	78798260	1	practice_slash	9	practice_slash	23	stimuli_distractor_trianglediamonds.svg	stimuli_distractor_trianglediamonds.svg	15	no	0	1	2000
6.6.1	mac	2022-12-23	09:26:19	09:33:28	427112	61383bdc065ccb1d5a65e09a	78798260	1	practice_slash	9	advance_on_keypress_SLASH	24	stimuli_distractor_trianglediamonds.svg	stimuli_distractor_trianglediamonds.svg	15	no	57	0	643
6.6.1	mac	2022-12-23	09:26:19	09:33:33	431436	61383bdc065ccb1d5a65e09a	78798260	1	practice_slash	9	practice_slash	25	stimuli_target_diamondsquares.svg	stimuli_distractor_trianglediamonds.svg	6	yes	0	0	2000
6.6.1	mac	2022-12-23	09:26:19	09:33:33	431436	61383bdc065ccb1d5a65e09a	78798260	1	practice_slash	9	advance_on_keypress_SLASH	26	stimuli_target_diamondsquares.svg	stimuli_distractor_trianglediamonds.svg	6	yes	57	0	541
6.6.1	mac	2022-12-23	09:26:19	09:33:37	435606	61383bdc065ccb1d5a65e09a	78798260	1	practice_slash	9	practice_slash	27	stimuli_distractor_diamondtriangles.svg	stimuli_distractor_diamondtriangles.svg	13	no	0	1	2000
6.6.1	mac	2022-12-23	09:26:19	09:33:37	435606	61383bdc065ccb1d5a65e09a	78798260	1	practice_slash	9	advance_on_keypress_SLASH	28	stimuli_distractor_diamondtriangles.svg	stimuli_distractor_diamondtriangles.svg	13	no	57	0	605
6.6.1	mac	2022-12-23	09:26:19	09:33:40	438454	61383bdc065ccb1d5a65e09a	78798260	1	practice_slash	9	practice_slash	29	stimuli_target_squarediamonds.svg	stimuli_distractor_trianglediamonds.svg	5	yes	53	1	547
6.6.1	mac	2022-12-23	09:26:19	09:33:40	438454	61383bdc065ccb1d5a65e09a	78798260	1	practice_slash	9	advance_on_keypress_SLASH	30	stimuli_target_squarediamonds.svg	stimuli_distractor_trianglediamonds.svg	5	yes	57	0	521
6.6.1	mac	2022-12-23	09:26:19	09:33:43	441453	61383bdc065ccb1d5a65e09a	78798260	1	practice_slash	9	practice_slash	31	stimuli_target_diamondsquares.svg	stimuli_distractor_diamondtriangles.svg	3	yes	53	1	840
6.6.1	mac	2022-12-23	09:26:19	09:33:43	441453	61383bdc065ccb1d5a65e09a	78798260	1	practice_slash	9	advance_on_keypress_SLASH	32	stimuli_target_diamondsquares.svg	stimuli_distractor_diamondtriangles.svg	3	yes	57	0	526
6.6.1	mac	2022-12-23	09:26:19	09:33:47	445636	61383bdc065ccb1d5a65e09a	78798260	1	main_slash	11	main_slash	1	stimuli_target_squaretriangles.svg	stimuli_distractor_diamondtriangles.svg	7	yes	53	1	540
6.6.1	mac	2022-12-23	09:26:19	09:33:47	445636	61383bdc065ccb1d5a65e09a	78798260	1	main_slash	11	advance_on_keypress_SLASH	2	stimuli_target_squaretriangles.svg	stimuli_distractor_diamondtriangles.svg	7	yes	57	0	813
6.6.1	mac	2022-12-23	09:26:19	09:33:49	447837	61383bdc065ccb1d5a65e09a	78798260	1	main_slash	11	main_slash	3	stimuli_target_diamondsquares.svg	stimuli_distractor_diamondtriangles.svg	24	yes	53	1	740
6.6.1	mac	2022-12-23	09:26:19	09:33:49	447837	61383bdc065ccb1d5a65e09a	78798260	1	main_slash	11	advance_on_keypress_SLASH	4	stimuli_target_diamondsquares.svg	stimuli_distractor_diamondtriangles.svg	24	yes	57	0	508
6.6.1	mac	2022-12-23	09:26:19	09:33:52	451042	61383bdc065ccb1d5a65e09a	78798260	1	main_slash	11	main_slash	5	stimuli_distractor_trianglediamonds.svg	stimuli_distractor_trianglediamonds.svg	33	no	0	1	2000
6.6.1	mac	2022-12-23	09:26:19	09:33:52	451042	61383bdc065ccb1d5a65e09a	78798260	1	main_slash	11	advance_on_keypress_SLASH	6	stimuli_distractor_trianglediamonds.svg	stimuli_distractor_trianglediamonds.svg	33	no	57	0	322
6.6.1	mac	2022-12-23	09:26:19	09:33:54	452586	61383bdc065ccb1d5a65e09a	78798260	1	main_slash	11	main_slash	7	stimuli_target_diamondcircles.svg	stimuli_distractor_diamondtriangles.svg	23	yes	53	1	542
6.6.1	mac	2022-12-23	09:26:19	09:33:54	452586	61383bdc065ccb1d5a65e09a	78798260	1	main_slash	11	advance_on_keypress_SLASH	8	stimuli_target_diamondcircles.svg	stimuli_distractor_diamondtriangles.svg	23	yes	57	0	546
6.6.1	mac	2022-12-23	09:26:19	09:33:55	454225	61383bdc065ccb1d5a65e09a	78798260	1	main_slash	11	main_slash	9	stimuli_distractor_diamondtriangles.svg	stimuli_distractor_trianglediamonds.svg	37	no	53	0	402
6.6.1	mac	2022-12-23	09:26:19	09:33:55	454225	61383bdc065ccb1d5a65e09a	78798260	1	main_slash	11	advance_on_keypress_SLASH	10	stimuli_distractor_diamondtriangles.svg	stimuli_distractor_trianglediamonds.svg	37	no	57	0	724
6.6.1	mac	2022-12-23	09:26:19	09:33:59	457590	61383bdc065ccb1d5a65e09a	78798260	1	main_slash	11	main_slash	11	stimuli_distractor_diamondtriangles.svg	stimuli_distractor_diamondtriangles.svg	39	no	0	1	2000
6.6.1	mac	2022-12-23	09:26:19	09:33:59	457590	61383bdc065ccb1d5a65e09a	78798260	1	main_slash	11	advance_on_keypress_SLASH	12	stimuli_distractor_diamondtriangles.svg	stimuli_distractor_diamondtriangles.svg	39	no	57	0	366
6.6.1	mac	2022-12-23	09:26:19	09:34:00	459150	61383bdc065ccb1d5a65e09a	78798260	1	main_slash	11	main_slash	13	stimuli_distractor_diamondtriangles.svg	stimuli_target_circletriangles.svg	13	yes	53	1	506
6.6.1	mac	2022-12-23	09:26:19	09:34:00	459150	61383bdc065ccb1d5a65e09a	78798260	1	main_slash	11	advance_on_keypress_SLASH	14	stimuli_distractor_diamondtriangles.svg	stimuli_target_circletriangles.svg	13	yes	57	0	467
6.6.1	mac	2022-12-23	09:26:19	09:34:02	460773	61383bdc065ccb1d5a65e09a	78798260	1	main_slash	11	main_slash	15	stimuli_distractor_diamondtriangles.svg	stimuli_target_trianglesquares.svg	30	yes	53	1	521
6.6.1	mac	2022-12-23	09:26:19	09:34:02	460773	61383bdc065ccb1d5a65e09a	78798260	1	main_slash	11	advance_on_keypress_SLASH	16	stimuli_distractor_diamondtriangles.svg	stimuli_target_trianglesquares.svg	30	yes	57	0	425
6.6.1	mac	2022-12-23	09:26:19	09:34:04	462460	61383bdc065ccb1d5a65e09a	78798260	1	main_slash	11	main_slash	17	stimuli_target_diamondsquares.svg	stimuli_distractor_trianglediamonds.svg	20	yes	53	1	623
6.6.1	mac	2022-12-23	09:26:19	09:34:04	462460	61383bdc065ccb1d5a65e09a	78798260	1	main_slash	11	advance_on_keypress_SLASH	18	stimuli_target_diamondsquares.svg	stimuli_distractor_trianglediamonds.svg	20	yes	57	0	412
6.6.1	mac	2022-12-23	09:26:19	09:34:07	465518	61383bdc065ccb1d5a65e09a	78798260	1	main_slash	11	main_slash	19	stimuli_distractor_diamondtriangles.svg	stimuli_distractor_diamondtriangles.svg	40	no	0	1	2000
6.6.1	mac	2022-12-23	09:26:19	09:34:07	465518	61383bdc065ccb1d5a65e09a	78798260	1	main_slash	11	advance_on_keypress_SLASH	20	stimuli_distractor_diamondtriangles.svg	stimuli_distractor_diamondtriangles.svg	40	no	57	0	328
6.6.1	mac	2022-12-23	09:26:19	09:34:08	467019	61383bdc065ccb1d5a65e09a	78798260	1	main_slash	11	main_slash	21	stimuli_target_circlediamonds.svg	stimuli_distractor_diamondtriangles.svg	6	yes	53	1	494
6.6.1	mac	2022-12-23	09:26:19	09:34:08	467019	61383bdc065ccb1d5a65e09a	78798260	1	main_slash	11	advance_on_keypress_SLASH	22	stimuli_target_circlediamonds.svg	stimuli_distractor_diamondtriangles.svg	6	yes	57	0	492
6.6.1	mac	2022-12-23	09:26:19	09:34:10	468565	61383bdc065ccb1d5a65e09a	78798260	1	main_slash	11	main_slash	23	stimuli_target_circletriangles.svg	stimuli_distractor_trianglediamonds.svg	1	yes	53	1	428
6.6.1	mac	2022-12-23	09:26:19	09:34:10	468565	61383bdc065ccb1d5a65e09a	78798260	1	main_slash	11	advance_on_keypress_SLASH	24	stimuli_target_circletriangles.svg	stimuli_distractor_trianglediamonds.svg	1	yes	57	0	499
6.6.1	mac	2022-12-23	09:26:19	09:34:11	470168	61383bdc065ccb1d5a65e09a	78798260	1	main_slash	11	main_slash	25	stimuli_distractor_trianglediamonds.svg	stimuli_distractor_diamondtriangles.svg	36	no	53	0	467
6.6.1	mac	2022-12-23	09:26:19	09:34:11	470168	61383bdc065ccb1d5a65e09a	78798260	1	main_slash	11	advance_on_keypress_SLASH	26	stimuli_distractor_trianglediamonds.svg	stimuli_distractor_diamondtriangles.svg	36	no	57	0	646
6.6.1	mac	2022-12-23	09:26:19	09:34:15	473448	61383bdc065ccb1d5a65e09a	78798260	1	main_slash	11	main_slash	27	stimuli_distractor_diamondtriangles.svg	stimuli_target_squarediamonds.svg	16	yes	0	0	2000
6.6.1	mac	2022-12-23	09:26:19	09:34:15	473448	61383bdc065ccb1d5a65e09a	78798260	1	main_slash	11	advance_on_keypress_SLASH	28	stimuli_distractor_diamondtriangles.svg	stimuli_target_squarediamonds.svg	16	yes	57	0	428
6.6.1	mac	2022-12-23	09:26:19	09:34:16	475120	61383bdc065ccb1d5a65e09a	78798260	1	main_slash	11	main_slash	29	stimuli_distractor_trianglediamonds.svg	stimuli_target_trianglesquares.svg	26	yes	53	1	560
6.6.1	mac	2022-12-23	09:26:19	09:34:16	475120	61383bdc065ccb1d5a65e09a	78798260	1	main_slash	11	advance_on_keypress_SLASH	30	stimuli_distractor_trianglediamonds.svg	stimuli_target_trianglesquares.svg	26	yes	57	0	374
6.6.1	mac	2022-12-23	09:26:19	09:34:18	476710	61383bdc065ccb1d5a65e09a	78798260	1	main_slash	11	main_slash	31	stimuli_target_trianglesquares.svg	stimuli_distractor_trianglediamonds.svg	18	yes	53	1	573
6.6.1	mac	2022-12-23	09:26:19	09:34:18	476710	61383bdc065ccb1d5a65e09a	78798260	1	main_slash	11	advance_on_keypress_SLASH	32	stimuli_target_trianglesquares.svg	stimuli_distractor_trianglediamonds.svg	18	yes	57	0	385
6.6.1	mac	2022-12-23	09:26:19	09:34:19	478222	61383bdc065ccb1d5a65e09a	78798260	1	main_slash	11	main_slash	33	stimuli_distractor_trianglediamonds.svg	stimuli_target_squaretriangles.svg	11	yes	53	1	484
6.6.1	mac	2022-12-23	09:26:19	09:34:19	478222	61383bdc065ccb1d5a65e09a	78798260	1	main_slash	11	advance_on_keypress_SLASH	34	stimuli_distractor_trianglediamonds.svg	stimuli_target_squaretriangles.svg	11	yes	57	0	541
6.6.1	mac	2022-12-23	09:26:19	09:34:22	480276	61383bdc065ccb1d5a65e09a	78798260	1	main_slash	11	main_slash	35	stimuli_distractor_diamondtriangles.svg	stimuli_target_diamondsquares.svg	32	yes	53	1	872
6.6.1	mac	2022-12-23	09:26:19	09:34:22	480276	61383bdc065ccb1d5a65e09a	78798260	1	main_slash	11	advance_on_keypress_SLASH	36	stimuli_distractor_diamondtriangles.svg	stimuli_target_diamondsquares.svg	32	yes	57	0	365
6.6.1	mac	2022-12-23	09:26:19	09:34:23	481812	61383bdc065ccb1d5a65e09a	78798260	1	main_slash	11	main_slash	37	stimuli_distractor_trianglediamonds.svg	stimuli_distractor_trianglediamonds.svg	34	no	53	0	491
6.6.1	mac	2022-12-23	09:26:19	09:34:23	481812	61383bdc065ccb1d5a65e09a	78798260	1	main_slash	11	advance_on_keypress_SLASH	38	stimuli_distractor_trianglediamonds.svg	stimuli_distractor_trianglediamonds.svg	34	no	57	0	1002
6.6.1	mac	2022-12-23	09:26:19	09:34:25	483959	61383bdc065ccb1d5a65e09a	78798260	1	main_slash	11	main_slash	39	stimuli_distractor_trianglediamonds.svg	stimuli_target_trianglecircles.svg	25	yes	53	1	499
6.6.1	mac	2022-12-23	09:26:19	09:34:25	483959	61383bdc065ccb1d5a65e09a	78798260	1	main_slash	11	advance_on_keypress_SLASH	40	stimuli_distractor_trianglediamonds.svg	stimuli_target_trianglecircles.svg	25	yes	57	0	339
6.6.1	mac	2022-12-23	09:26:19	09:34:27	485499	61383bdc065ccb1d5a65e09a	78798260	1	main_slash	11	main_slash	41	stimuli_target_trianglecircles.svg	stimuli_distractor_trianglediamonds.svg	17	yes	53	1	558
6.6.1	mac	2022-12-23	09:26:19	09:34:27	485499	61383bdc065ccb1d5a65e09a	78798260	1	main_slash	11	advance_on_keypress_SLASH	42	stimuli_target_trianglecircles.svg	stimuli_distractor_trianglediamonds.svg	17	yes	57	0	422
6.6.1	mac	2022-12-23	09:26:19	09:34:28	487013	61383bdc065ccb1d5a65e09a	78798260	1	main_slash	11	main_slash	43	stimuli_target_circletriangles.svg	stimuli_distractor_diamondtriangles.svg	5	yes	53	1	455
6.6.1	mac	2022-12-23	09:26:19	09:34:28	487013	61383bdc065ccb1d5a65e09a	78798260	1	main_slash	11	advance_on_keypress_SLASH	44	stimuli_target_circletriangles.svg	stimuli_distractor_diamondtriangles.svg	5	yes	57	0	420
6.6.1	mac	2022-12-23	09:26:19	09:34:31	489627	61383bdc065ccb1d5a65e09a	78798260	1	main_slash	11	main_slash	45	stimuli_distractor_trianglediamonds.svg	stimuli_target_circlediamonds.svg	10	yes	53	1	1553
6.6.1	mac	2022-12-23	09:26:19	09:34:31	489627	61383bdc065ccb1d5a65e09a	78798260	1	main_slash	11	advance_on_keypress_SLASH	46	stimuli_distractor_trianglediamonds.svg	stimuli_target_circlediamonds.svg	10	yes	57	0	540
6.6.1	mac	2022-12-23	09:26:19	09:34:33	491575	61383bdc065ccb1d5a65e09a	78798260	1	main_slash	11	main_slash	47	stimuli_target_squarediamonds.svg	stimuli_distractor_diamondtriangles.svg	8	yes	53	1	720
6.6.1	mac	2022-12-23	09:26:19	09:34:33	491575	61383bdc065ccb1d5a65e09a	78798260	1	main_slash	11	advance_on_keypress_SLASH	48	stimuli_target_squarediamonds.svg	stimuli_distractor_diamondtriangles.svg	8	yes	57	0	334
6.6.1	mac	2022-12-23	09:26:19	09:34:34	493068	61383bdc065ccb1d5a65e09a	78798260	1	main_slash	11	main_slash	49	stimuli_target_squarediamonds.svg	stimuli_distractor_trianglediamonds.svg	4	yes	53	1	479
6.6.1	mac	2022-12-23	09:26:19	09:34:34	493068	61383bdc065ccb1d5a65e09a	78798260	1	main_slash	11	advance_on_keypress_SLASH	50	stimuli_target_squarediamonds.svg	stimuli_distractor_trianglediamonds.svg	4	yes	57	0	321
6.6.1	mac	2022-12-23	09:26:19	09:34:36	494563	61383bdc065ccb1d5a65e09a	78798260	1	main_slash	11	main_slash	51	stimuli_target_circlediamonds.svg	stimuli_distractor_trianglediamonds.svg	2	yes	53	1	542
6.6.1	mac	2022-12-23	09:26:19	09:34:36	494563	61383bdc065ccb1d5a65e09a	78798260	1	main_slash	11	advance_on_keypress_SLASH	52	stimuli_target_circlediamonds.svg	stimuli_distractor_trianglediamonds.svg	2	yes	57	0	302
6.6.1	mac	2022-12-23	09:26:19	09:34:39	497512	61383bdc065ccb1d5a65e09a	78798260	1	main_slash	11	main_slash	53	stimuli_distractor_trianglediamonds.svg	stimuli_target_diamondcircles.svg	27	yes	0	0	2000
6.6.1	mac	2022-12-23	09:26:19	09:34:39	497512	61383bdc065ccb1d5a65e09a	78798260	1	main_slash	11	advance_on_keypress_SLASH	54	stimuli_distractor_trianglediamonds.svg	stimuli_target_diamondcircles.svg	27	yes	57	0	523
6.6.1	mac	2022-12-23	09:26:19	09:34:41	499627	61383bdc065ccb1d5a65e09a	78798260	1	main_slash	11	main_slash	55	stimuli_distractor_diamondtriangles.svg	stimuli_target_squaretriangles.svg	15	yes	53	1	964
6.6.1	mac	2022-12-23	09:26:19	09:34:41	499627	61383bdc065ccb1d5a65e09a	78798260	1	main_slash	11	advance_on_keypress_SLASH	56	stimuli_distractor_diamondtriangles.svg	stimuli_target_squaretriangles.svg	15	yes	57	0	364
6.6.1	mac	2022-12-23	09:26:19	09:34:42	501134	61383bdc065ccb1d5a65e09a	78798260	1	main_slash	11	main_slash	57	stimuli_target_squaretriangles.svg	stimuli_distractor_trianglediamonds.svg	3	yes	53	1	506
6.6.1	mac	2022-12-23	09:26:19	09:34:42	501134	61383bdc065ccb1d5a65e09a	78798260	1	main_slash	11	advance_on_keypress_SLASH	58	stimuli_target_squaretriangles.svg	stimuli_distractor_trianglediamonds.svg	3	yes	57	0	332
6.6.1	mac	2022-12-23	09:26:19	09:34:44	503135	61383bdc065ccb1d5a65e09a	78798260	1	main_slash	11	main_slash	59	stimuli_distractor_diamondtriangles.svg	stimuli_target_trianglecircles.svg	29	yes	53	1	1025
6.6.1	mac	2022-12-23	09:26:19	09:34:44	503135	61383bdc065ccb1d5a65e09a	78798260	1	main_slash	11	advance_on_keypress_SLASH	60	stimuli_distractor_diamondtriangles.svg	stimuli_target_trianglecircles.svg	29	yes	57	0	263
6.6.1	mac	2022-12-23	09:26:19	09:34:46	504699	61383bdc065ccb1d5a65e09a	78798260	1	main_slash	11	main_slash	61	stimuli_distractor_diamondtriangles.svg	stimuli_target_diamondcircles.svg	31	yes	53	1	617
6.6.1	mac	2022-12-23	09:26:19	09:34:46	504699	61383bdc065ccb1d5a65e09a	78798260	1	main_slash	11	advance_on_keypress_SLASH	62	stimuli_distractor_diamondtriangles.svg	stimuli_target_diamondcircles.svg	31	yes	57	0	286
6.6.1	mac	2022-12-23	09:26:19	09:34:49	507616	61383bdc065ccb1d5a65e09a	78798260	1	main_slash	11	main_slash	63	stimuli_distractor_trianglediamonds.svg	stimuli_distractor_diamondtriangles.svg	35	no	0	1	2000
6.6.1	mac	2022-12-23	09:26:19	09:34:49	507616	61383bdc065ccb1d5a65e09a	78798260	1	main_slash	11	advance_on_keypress_SLASH	64	stimuli_distractor_trianglediamonds.svg	stimuli_distractor_diamondtriangles.svg	35	no	57	0	359
6.6.1	mac	2022-12-23	09:26:19	09:34:51	509326	61383bdc065ccb1d5a65e09a	78798260	1	main_slash	11	main_slash	65	stimuli_distractor_diamondtriangles.svg	stimuli_target_circlediamonds.svg	14	yes	53	1	609
6.6.1	mac	2022-12-23	09:26:19	09:34:51	509326	61383bdc065ccb1d5a65e09a	78798260	1	main_slash	11	advance_on_keypress_SLASH	66	stimuli_distractor_diamondtriangles.svg	stimuli_target_circlediamonds.svg	14	yes	57	0	323
6.6.1	mac	2022-12-23	09:26:19	09:34:52	510979	61383bdc065ccb1d5a65e09a	78798260	1	main_slash	11	main_slash	67	stimuli_distractor_trianglediamonds.svg	stimuli_target_diamondsquares.svg	28	yes	53	1	695
6.6.1	mac	2022-12-23	09:26:19	09:34:52	510979	61383bdc065ccb1d5a65e09a	78798260	1	main_slash	11	advance_on_keypress_SLASH	68	stimuli_distractor_trianglediamonds.svg	stimuli_target_diamondsquares.svg	28	yes	57	0	277
6.6.1	mac	2022-12-23	09:26:19	09:34:54	513126	61383bdc065ccb1d5a65e09a	78798260	1	main_slash	11	main_slash	69	stimuli_target_trianglesquares.svg	stimuli_distractor_diamondtriangles.svg	22	yes	53	1	1242
6.6.1	mac	2022-12-23	09:26:19	09:34:54	513126	61383bdc065ccb1d5a65e09a	78798260	1	main_slash	11	advance_on_keypress_SLASH	70	stimuli_target_trianglesquares.svg	stimuli_distractor_diamondtriangles.svg	22	yes	57	0	377
6.6.1	mac	2022-12-23	09:26:19	09:34:57	516124	61383bdc065ccb1d5a65e09a	78798260	1	main_slash	11	main_slash	71	stimuli_distractor_diamondtriangles.svg	stimuli_distractor_trianglediamonds.svg	38	no	0	1	2000
6.6.1	mac	2022-12-23	09:26:19	09:34:57	516124	61383bdc065ccb1d5a65e09a	78798260	1	main_slash	11	advance_on_keypress_SLASH	72	stimuli_distractor_diamondtriangles.svg	stimuli_distractor_trianglediamonds.svg	38	no	57	0	352
6.6.1	mac	2022-12-23	09:26:19	09:34:59	517707	61383bdc065ccb1d5a65e09a	78798260	1	main_slash	11	main_slash	73	stimuli_distractor_trianglediamonds.svg	stimuli_target_squarediamonds.svg	12	yes	53	1	530
6.6.1	mac	2022-12-23	09:26:19	09:34:59	517707	61383bdc065ccb1d5a65e09a	78798260	1	main_slash	11	advance_on_keypress_SLASH	74	stimuli_distractor_trianglediamonds.svg	stimuli_target_squarediamonds.svg	12	yes	57	0	414
6.6.1	mac	2022-12-23	09:26:19	09:35:01	519309	61383bdc065ccb1d5a65e09a	78798260	1	main_slash	11	main_slash	75	stimuli_target_trianglecircles.svg	stimuli_distractor_diamondtriangles.svg	21	yes	53	1	543
6.6.1	mac	2022-12-23	09:26:19	09:35:01	519309	61383bdc065ccb1d5a65e09a	78798260	1	main_slash	11	advance_on_keypress_SLASH	76	stimuli_target_trianglecircles.svg	stimuli_distractor_diamondtriangles.svg	21	yes	57	0	388
6.6.1	mac	2022-12-23	09:26:19	09:35:02	520766	61383bdc065ccb1d5a65e09a	78798260	1	main_slash	11	main_slash	77	stimuli_target_diamondcircles.svg	stimuli_distractor_trianglediamonds.svg	19	yes	53	1	432
6.6.1	mac	2022-12-23	09:26:19	09:35:02	520766	61383bdc065ccb1d5a65e09a	78798260	1	main_slash	11	advance_on_keypress_SLASH	78	stimuli_target_diamondcircles.svg	stimuli_distractor_trianglediamonds.svg	19	yes	57	0	297
6.6.1	mac	2022-12-23	09:26:19	09:35:04	522640	61383bdc065ccb1d5a65e09a	78798260	1	main_slash	11	main_slash	79	stimuli_distractor_trianglediamonds.svg	stimuli_target_circletriangles.svg	9	yes	53	1	942
6.6.1	mac	2022-12-23	09:26:19	09:35:04	522640	61383bdc065ccb1d5a65e09a	78798260	1	main_slash	11	advance_on_keypress_SLASH	80	stimuli_distractor_trianglediamonds.svg	stimuli_target_circletriangles.svg	9	yes	57	0	438
6.6.1	mac	2022-12-23	09:26:19	09:35:05	524171	61383bdc065ccb1d5a65e09a	78798260	1	main_slash	11	main_slash	81	stimuli_target_squarediamonds.svg	stimuli_distractor_diamondtriangles.svg	8	yes	53	1	470
6.6.1	mac	2022-12-23	09:26:19	09:35:05	524171	61383bdc065ccb1d5a65e09a	78798260	1	main_slash	11	advance_on_keypress_SLASH	82	stimuli_target_squarediamonds.svg	stimuli_distractor_diamondtriangles.svg	8	yes	57	0	354
6.6.1	mac	2022-12-23	09:26:19	09:35:07	525627	61383bdc065ccb1d5a65e09a	78798260	1	main_slash	11	main_slash	83	stimuli_target_squaretriangles.svg	stimuli_distractor_trianglediamonds.svg	3	yes	53	1	464
6.6.1	mac	2022-12-23	09:26:19	09:35:07	525627	61383bdc065ccb1d5a65e09a	78798260	1	main_slash	11	advance_on_keypress_SLASH	84	stimuli_target_squaretriangles.svg	stimuli_distractor_trianglediamonds.svg	3	yes	57	0	319
6.6.1	mac	2022-12-23	09:26:19	09:35:08	527045	61383bdc065ccb1d5a65e09a	78798260	1	main_slash	11	main_slash	85	stimuli_distractor_trianglediamonds.svg	stimuli_target_diamondcircles.svg	27	yes	53	1	467
6.6.1	mac	2022-12-23	09:26:19	09:35:08	527045	61383bdc065ccb1d5a65e09a	78798260	1	main_slash	11	advance_on_keypress_SLASH	86	stimuli_distractor_trianglediamonds.svg	stimuli_target_diamondcircles.svg	27	yes	57	0	772
6.6.1	mac	2022-12-23	09:26:19	09:35:10	529069	61383bdc065ccb1d5a65e09a	78798260	1	main_slash	11	main_slash	87	stimuli_target_diamondsquares.svg	stimuli_distractor_diamondtriangles.svg	24	yes	53	1	612
6.6.1	mac	2022-12-23	09:26:19	09:35:10	529069	61383bdc065ccb1d5a65e09a	78798260	1	main_slash	11	advance_on_keypress_SLASH	88	stimuli_target_diamondsquares.svg	stimuli_distractor_diamondtriangles.svg	24	yes	57	0	366
6.6.1	mac	2022-12-23	09:26:19	09:35:12	530505	61383bdc065ccb1d5a65e09a	78798260	1	main_slash	11	main_slash	89	stimuli_target_squaretriangles.svg	stimuli_distractor_diamondtriangles.svg	7	yes	53	1	432
6.6.1	mac	2022-12-23	09:26:19	09:35:12	530505	61383bdc065ccb1d5a65e09a	78798260	1	main_slash	11	advance_on_keypress_SLASH	90	stimuli_target_squaretriangles.svg	stimuli_distractor_diamondtriangles.svg	7	yes	57	0	533
6.6.1	mac	2022-12-23	09:26:19	09:35:14	532436	61383bdc065ccb1d5a65e09a	78798260	1	main_slash	11	main_slash	91	stimuli_target_squarediamonds.svg	stimuli_distractor_trianglediamonds.svg	4	yes	53	1	762
6.6.1	mac	2022-12-23	09:26:19	09:35:14	532436	61383bdc065ccb1d5a65e09a	78798260	1	main_slash	11	advance_on_keypress_SLASH	92	stimuli_target_squarediamonds.svg	stimuli_distractor_trianglediamonds.svg	4	yes	57	0	352
6.6.1	mac	2022-12-23	09:26:19	09:35:15	533969	61383bdc065ccb1d5a65e09a	78798260	1	main_slash	11	main_slash	93	stimuli_target_trianglecircles.svg	stimuli_distractor_trianglediamonds.svg	17	yes	53	1	538
6.6.1	mac	2022-12-23	09:26:19	09:35:15	533969	61383bdc065ccb1d5a65e09a	78798260	1	main_slash	11	advance_on_keypress_SLASH	94	stimuli_target_trianglecircles.svg	stimuli_distractor_trianglediamonds.svg	17	yes	57	0	311
6.6.1	mac	2022-12-23	09:26:19	09:35:18	536927	61383bdc065ccb1d5a65e09a	78798260	1	main_slash	11	main_slash	95	stimuli_distractor_trianglediamonds.svg	stimuli_distractor_trianglediamonds.svg	34	no	0	1	2000
6.6.1	mac	2022-12-23	09:26:19	09:35:18	536927	61383bdc065ccb1d5a65e09a	78798260	1	main_slash	11	advance_on_keypress_SLASH	96	stimuli_distractor_trianglediamonds.svg	stimuli_distractor_trianglediamonds.svg	34	no	57	0	339
6.6.1	mac	2022-12-23	09:26:19	09:35:21	539895	61383bdc065ccb1d5a65e09a	78798260	1	main_slash	11	main_slash	97	stimuli_distractor_diamondtriangles.svg	stimuli_distractor_diamondtriangles.svg	39	no	0	1	2000
6.6.1	mac	2022-12-23	09:26:19	09:35:21	539895	61383bdc065ccb1d5a65e09a	78798260	1	main_slash	11	advance_on_keypress_SLASH	98	stimuli_distractor_diamondtriangles.svg	stimuli_distractor_diamondtriangles.svg	39	no	57	0	276
6.6.1	mac	2022-12-23	09:26:19	09:35:23	541722	61383bdc065ccb1d5a65e09a	78798260	1	main_slash	11	main_slash	99	stimuli_target_trianglesquares.svg	stimuli_distractor_diamondtriangles.svg	22	yes	53	1	862
6.6.1	mac	2022-12-23	09:26:19	09:35:23	541722	61383bdc065ccb1d5a65e09a	78798260	1	main_slash	11	advance_on_keypress_SLASH	100	stimuli_target_trianglesquares.svg	stimuli_distractor_diamondtriangles.svg	22	yes	57	0	425
6.6.1	mac	2022-12-23	09:26:19	09:35:26	544335	61383bdc065ccb1d5a65e09a	78798260	1	main_slash	11	main_slash	101	stimuli_distractor_trianglediamonds.svg	stimuli_target_squaretriangles.svg	11	yes	53	1	1563
6.6.1	mac	2022-12-23	09:26:19	09:35:26	544335	61383bdc065ccb1d5a65e09a	78798260	1	main_slash	11	advance_on_keypress_SLASH	102	stimuli_distractor_trianglediamonds.svg	stimuli_target_squaretriangles.svg	11	yes	57	0	458
6.6.1	mac	2022-12-23	09:26:19	09:35:27	546103	61383bdc065ccb1d5a65e09a	78798260	1	main_slash	11	main_slash	103	stimuli_target_diamondsquares.svg	stimuli_distractor_trianglediamonds.svg	20	yes	53	1	628
6.6.1	mac	2022-12-23	09:26:19	09:35:27	546103	61383bdc065ccb1d5a65e09a	78798260	1	main_slash	11	advance_on_keypress_SLASH	104	stimuli_target_diamondsquares.svg	stimuli_distractor_trianglediamonds.svg	20	yes	57	0	425
6.6.1	mac	2022-12-23	09:26:19	09:35:29	547870	61383bdc065ccb1d5a65e09a	78798260	1	main_slash	11	main_slash	105	stimuli_distractor_trianglediamonds.svg	stimuli_target_diamondsquares.svg	28	yes	53	1	716
6.6.1	mac	2022-12-23	09:26:19	09:35:29	547870	61383bdc065ccb1d5a65e09a	78798260	1	main_slash	11	advance_on_keypress_SLASH	106	stimuli_distractor_trianglediamonds.svg	stimuli_target_diamondsquares.svg	28	yes	57	0	404
6.6.1	mac	2022-12-23	09:26:19	09:35:32	550906	61383bdc065ccb1d5a65e09a	78798260	1	main_slash	11	main_slash	107	stimuli_distractor_diamondtriangles.svg	stimuli_target_squarediamonds.svg	16	yes	0	0	2000
6.6.1	mac	2022-12-23	09:26:19	09:35:32	550906	61383bdc065ccb1d5a65e09a	78798260	1	main_slash	11	advance_on_keypress_SLASH	108	stimuli_distractor_diamondtriangles.svg	stimuli_target_squarediamonds.svg	16	yes	57	0	301
6.6.1	mac	2022-12-23	09:26:19	09:35:34	552526	61383bdc065ccb1d5a65e09a	78798260	1	main_slash	11	main_slash	109	stimuli_distractor_diamondtriangles.svg	stimuli_target_diamondsquares.svg	32	yes	53	1	631
6.6.1	mac	2022-12-23	09:26:19	09:35:34	552526	61383bdc065ccb1d5a65e09a	78798260	1	main_slash	11	advance_on_keypress_SLASH	110	stimuli_distractor_diamondtriangles.svg	stimuli_target_diamondsquares.svg	32	yes	57	0	383
6.6.1	mac	2022-12-23	09:26:19	09:35:36	555045	61383bdc065ccb1d5a65e09a	78798260	1	main_slash	11	main_slash	111	stimuli_target_circletriangles.svg	stimuli_distractor_diamondtriangles.svg	5	yes	53	1	1489
6.6.1	mac	2022-12-23	09:26:19	09:35:36	555045	61383bdc065ccb1d5a65e09a	78798260	1	main_slash	11	advance_on_keypress_SLASH	112	stimuli_target_circletriangles.svg	stimuli_distractor_diamondtriangles.svg	5	yes	57	0	381
6.6.1	mac	2022-12-23	09:26:19	09:35:39	558112	61383bdc065ccb1d5a65e09a	78798260	1	main_slash	11	main_slash	113	stimuli_distractor_trianglediamonds.svg	stimuli_distractor_diamondtriangles.svg	35	no	0	1	2000
6.6.1	mac	2022-12-23	09:26:19	09:35:39	558112	61383bdc065ccb1d5a65e09a	78798260	1	main_slash	11	advance_on_keypress_SLASH	114	stimuli_distractor_trianglediamonds.svg	stimuli_distractor_diamondtriangles.svg	35	no	57	0	274
6.6.1	mac	2022-12-23	09:26:19	09:35:42	561064	61383bdc065ccb1d5a65e09a	78798260	1	main_slash	11	main_slash	115	stimuli_distractor_diamondtriangles.svg	stimuli_distractor_trianglediamonds.svg	38	no	0	1	2000
6.6.1	mac	2022-12-23	09:26:19	09:35:42	561064	61383bdc065ccb1d5a65e09a	78798260	1	main_slash	11	advance_on_keypress_SLASH	116	stimuli_distractor_diamondtriangles.svg	stimuli_distractor_trianglediamonds.svg	38	no	57	0	244
6.6.1	mac	2022-12-23	09:26:19	09:35:44	562486	61383bdc065ccb1d5a65e09a	78798260	1	main_slash	11	main_slash	117	stimuli_distractor_diamondtriangles.svg	stimuli_target_trianglecircles.svg	29	yes	53	1	493
6.6.1	mac	2022-12-23	09:26:19	09:35:44	562486	61383bdc065ccb1d5a65e09a	78798260	1	main_slash	11	advance_on_keypress_SLASH	118	stimuli_distractor_diamondtriangles.svg	stimuli_target_trianglecircles.svg	29	yes	57	0	499
6.6.1	mac	2022-12-23	09:26:19	09:35:47	565615	61383bdc065ccb1d5a65e09a	78798260	1	main_slash	11	main_slash	119	stimuli_distractor_diamondtriangles.svg	stimuli_target_squaretriangles.svg	15	yes	0	0	2000
6.6.1	mac	2022-12-23	09:26:19	09:35:47	565615	61383bdc065ccb1d5a65e09a	78798260	1	main_slash	11	advance_on_keypress_SLASH	120	stimuli_distractor_diamondtriangles.svg	stimuli_target_squaretriangles.svg	15	yes	57	0	225
6.6.1	mac	2022-12-23	09:26:19	09:35:50	568458	61383bdc065ccb1d5a65e09a	78798260	1	main_slash	11	main_slash	121	stimuli_distractor_diamondtriangles.svg	stimuli_distractor_trianglediamonds.svg	37	no	0	1	2000
6.6.1	mac	2022-12-23	09:26:19	09:35:50	568458	61383bdc065ccb1d5a65e09a	78798260	1	main_slash	11	advance_on_keypress_SLASH	122	stimuli_distractor_diamondtriangles.svg	stimuli_distractor_trianglediamonds.svg	37	no	57	0	325
6.6.1	mac	2022-12-23	09:26:19	09:35:51	570008	61383bdc065ccb1d5a65e09a	78798260	1	main_slash	11	main_slash	123	stimuli_distractor_diamondtriangles.svg	stimuli_target_circletriangles.svg	13	yes	53	1	475
6.6.1	mac	2022-12-23	09:26:19	09:35:51	570008	61383bdc065ccb1d5a65e09a	78798260	1	main_slash	11	advance_on_keypress_SLASH	124	stimuli_distractor_diamondtriangles.svg	stimuli_target_circletriangles.svg	13	yes	57	0	423
6.6.1	mac	2022-12-23	09:26:19	09:35:53	571513	61383bdc065ccb1d5a65e09a	78798260	1	main_slash	11	main_slash	125	stimuli_target_circlediamonds.svg	stimuli_distractor_trianglediamonds.svg	2	yes	53	1	447
6.6.1	mac	2022-12-23	09:26:19	09:35:53	571513	61383bdc065ccb1d5a65e09a	78798260	1	main_slash	11	advance_on_keypress_SLASH	126	stimuli_target_circlediamonds.svg	stimuli_distractor_trianglediamonds.svg	2	yes	57	0	674
6.6.1	mac	2022-12-23	09:26:19	09:35:55	573515	61383bdc065ccb1d5a65e09a	78798260	1	main_slash	11	main_slash	127	stimuli_target_diamondcircles.svg	stimuli_distractor_trianglediamonds.svg	19	yes	53	1	700
6.6.1	mac	2022-12-23	09:26:19	09:35:55	573515	61383bdc065ccb1d5a65e09a	78798260	1	main_slash	11	advance_on_keypress_SLASH	128	stimuli_target_diamondcircles.svg	stimuli_distractor_trianglediamonds.svg	19	yes	57	0	365
6.6.1	mac	2022-12-23	09:26:19	09:35:56	575100	61383bdc065ccb1d5a65e09a	78798260	1	main_slash	11	main_slash	129	stimuli_distractor_trianglediamonds.svg	stimuli_target_trianglesquares.svg	26	yes	53	1	583
6.6.1	mac	2022-12-23	09:26:19	09:35:56	575100	61383bdc065ccb1d5a65e09a	78798260	1	main_slash	11	advance_on_keypress_SLASH	130	stimuli_distractor_trianglediamonds.svg	stimuli_target_trianglesquares.svg	26	yes	57	0	363
6.6.1	mac	2022-12-23	09:26:19	09:35:58	576761	61383bdc065ccb1d5a65e09a	78798260	1	main_slash	11	main_slash	131	stimuli_distractor_trianglediamonds.svg	stimuli_target_circletriangles.svg	9	yes	53	1	610
6.6.1	mac	2022-12-23	09:26:19	09:35:58	576761	61383bdc065ccb1d5a65e09a	78798260	1	main_slash	11	advance_on_keypress_SLASH	132	stimuli_distractor_trianglediamonds.svg	stimuli_target_circletriangles.svg	9	yes	57	0	368
6.6.1	mac	2022-12-23	09:26:19	09:36:01	579763	61383bdc065ccb1d5a65e09a	78798260	1	main_slash	11	main_slash	133	stimuli_distractor_trianglediamonds.svg	stimuli_distractor_diamondtriangles.svg	36	no	0	1	2000
6.6.1	mac	2022-12-23	09:26:19	09:36:01	579763	61383bdc065ccb1d5a65e09a	78798260	1	main_slash	11	advance_on_keypress_SLASH	134	stimuli_distractor_trianglediamonds.svg	stimuli_distractor_diamondtriangles.svg	36	no	57	0	304
6.6.1	mac	2022-12-23	09:26:19	09:36:04	582750	61383bdc065ccb1d5a65e09a	78798260	1	main_slash	11	main_slash	135	stimuli_distractor_diamondtriangles.svg	stimuli_distractor_diamondtriangles.svg	40	no	0	1	2000
6.6.1	mac	2022-12-23	09:26:19	09:36:04	582750	61383bdc065ccb1d5a65e09a	78798260	1	main_slash	11	advance_on_keypress_SLASH	136	stimuli_distractor_diamondtriangles.svg	stimuli_distractor_diamondtriangles.svg	40	no	57	0	271
6.6.1	mac	2022-12-23	09:26:19	09:36:05	584260	61383bdc065ccb1d5a65e09a	78798260	1	main_slash	11	main_slash	137	stimuli_distractor_trianglediamonds.svg	stimuli_target_trianglecircles.svg	25	yes	53	1	550
6.6.1	mac	2022-12-23	09:26:19	09:36:05	584260	61383bdc065ccb1d5a65e09a	78798260	1	main_slash	11	advance_on_keypress_SLASH	138	stimuli_distractor_trianglediamonds.svg	stimuli_target_trianglecircles.svg	25	yes	57	0	476
6.6.1	mac	2022-12-23	09:26:19	09:36:09	587373	61383bdc065ccb1d5a65e09a	78798260	1	main_slash	11	main_slash	139	stimuli_distractor_trianglediamonds.svg	stimuli_target_squarediamonds.svg	12	yes	0	0	2000
6.6.1	mac	2022-12-23	09:26:19	09:36:09	587373	61383bdc065ccb1d5a65e09a	78798260	1	main_slash	11	advance_on_keypress_SLASH	140	stimuli_distractor_trianglediamonds.svg	stimuli_target_squarediamonds.svg	12	yes	57	0	341
6.6.1	mac	2022-12-23	09:26:19	09:36:10	588844	61383bdc065ccb1d5a65e09a	78798260	1	main_slash	11	main_slash	141	stimuli_distractor_diamondtriangles.svg	stimuli_target_circlediamonds.svg	14	yes	53	1	505
6.6.1	mac	2022-12-23	09:26:19	09:36:10	588844	61383bdc065ccb1d5a65e09a	78798260	1	main_slash	11	advance_on_keypress_SLASH	142	stimuli_distractor_diamondtriangles.svg	stimuli_target_circlediamonds.svg	14	yes	57	0	374
6.6.1	mac	2022-12-23	09:26:19	09:36:12	590350	61383bdc065ccb1d5a65e09a	78798260	1	main_slash	11	main_slash	143	stimuli_target_circlediamonds.svg	stimuli_distractor_diamondtriangles.svg	6	yes	53	1	501
6.6.1	mac	2022-12-23	09:26:19	09:36:12	590350	61383bdc065ccb1d5a65e09a	78798260	1	main_slash	11	advance_on_keypress_SLASH	144	stimuli_target_circlediamonds.svg	stimuli_distractor_diamondtriangles.svg	6	yes	57	0	382
6.6.1	mac	2022-12-23	09:26:19	09:36:13	591787	61383bdc065ccb1d5a65e09a	78798260	1	main_slash	11	main_slash	145	stimuli_distractor_diamondtriangles.svg	stimuli_target_diamondcircles.svg	31	yes	53	1	408
6.6.1	mac	2022-12-23	09:26:19	09:36:13	591787	61383bdc065ccb1d5a65e09a	78798260	1	main_slash	11	advance_on_keypress_SLASH	146	stimuli_distractor_diamondtriangles.svg	stimuli_target_diamondcircles.svg	31	yes	57	0	619
6.6.1	mac	2022-12-23	09:26:19	09:36:16	594470	61383bdc065ccb1d5a65e09a	78798260	1	main_slash	11	main_slash	147	stimuli_target_circletriangles.svg	stimuli_distractor_trianglediamonds.svg	1	yes	53	1	1418
6.6.1	mac	2022-12-23	09:26:19	09:36:16	594470	61383bdc065ccb1d5a65e09a	78798260	1	main_slash	11	advance_on_keypress_SLASH	148	stimuli_target_circletriangles.svg	stimuli_distractor_trianglediamonds.svg	1	yes	57	0	393
6.6.1	mac	2022-12-23	09:26:19	09:36:18	596621	61383bdc065ccb1d5a65e09a	78798260	1	main_slash	11	main_slash	149	stimuli_distractor_diamondtriangles.svg	stimuli_target_trianglesquares.svg	30	yes	53	1	1001
6.6.1	mac	2022-12-23	09:26:19	09:36:18	596621	61383bdc065ccb1d5a65e09a	78798260	1	main_slash	11	advance_on_keypress_SLASH	150	stimuli_distractor_diamondtriangles.svg	stimuli_target_trianglesquares.svg	30	yes	57	0	344
6.6.1	mac	2022-12-23	09:26:19	09:36:21	599650	61383bdc065ccb1d5a65e09a	78798260	1	main_slash	11	main_slash	151	stimuli_distractor_trianglediamonds.svg	stimuli_distractor_trianglediamonds.svg	33	no	0	1	2000
6.6.1	mac	2022-12-23	09:26:19	09:36:21	599650	61383bdc065ccb1d5a65e09a	78798260	1	main_slash	11	advance_on_keypress_SLASH	152	stimuli_distractor_trianglediamonds.svg	stimuli_distractor_trianglediamonds.svg	33	no	57	0	337
6.6.1	mac	2022-12-23	09:26:19	09:36:22	601179	61383bdc065ccb1d5a65e09a	78798260	1	main_slash	11	main_slash	153	stimuli_target_trianglecircles.svg	stimuli_distractor_diamondtriangles.svg	21	yes	53	1	558
6.6.1	mac	2022-12-23	09:26:19	09:36:22	601179	61383bdc065ccb1d5a65e09a	78798260	1	main_slash	11	advance_on_keypress_SLASH	154	stimuli_target_trianglecircles.svg	stimuli_distractor_diamondtriangles.svg	21	yes	57	0	403
6.6.1	mac	2022-12-23	09:26:19	09:36:24	602703	61383bdc065ccb1d5a65e09a	78798260	1	main_slash	11	main_slash	155	stimuli_target_trianglesquares.svg	stimuli_distractor_trianglediamonds.svg	18	yes	53	1	491
6.6.1	mac	2022-12-23	09:26:19	09:36:24	602703	61383bdc065ccb1d5a65e09a	78798260	1	main_slash	11	advance_on_keypress_SLASH	156	stimuli_target_trianglesquares.svg	stimuli_distractor_trianglediamonds.svg	18	yes	57	0	341
6.6.1	mac	2022-12-23	09:26:19	09:36:25	604149	61383bdc065ccb1d5a65e09a	78798260	1	main_slash	11	main_slash	157	stimuli_distractor_trianglediamonds.svg	stimuli_target_circlediamonds.svg	10	yes	53	1	474
6.6.1	mac	2022-12-23	09:26:19	09:36:25	604149	61383bdc065ccb1d5a65e09a	78798260	1	main_slash	11	advance_on_keypress_SLASH	158	stimuli_distractor_trianglediamonds.svg	stimuli_target_circlediamonds.svg	10	yes	57	0	345
6.6.1	mac	2022-12-23	09:26:19	09:36:27	605606	61383bdc065ccb1d5a65e09a	78798260	1	main_slash	11	main_slash	159	stimuli_target_diamondcircles.svg	stimuli_distractor_diamondtriangles.svg	23	yes	53	1	468
6.6.1	mac	2022-12-23	09:26:19	09:36:27	605606	61383bdc065ccb1d5a65e09a	78798260	1	main_slash	11	advance_on_keypress_SLASH	160	stimuli_target_diamondcircles.svg	stimuli_distractor_diamondtriangles.svg	23	yes	57	0	472