build	computer.platform	date	time	timestamp	time_elapsed_ms	subject	group	session	blockcode	blocknum	trialcode	trialnum	stimulus_left	stimulus_right	stim_index	target_present	response	correct	latency
6.6.1	mac	2022-11-07	14:33:01	14:35:13	131203	5d48fcc5643eb80001fb43fa	233303681	1	practice_slash	5	practice_slash	1	stimuli_distractor_trianglediamonds.svg	stimuli_distractor_diamondtriangles.svg	16	no	53	0	1736
6.6.1	mac	2022-11-07	14:33:01	14:35:13	131203	5d48fcc5643eb80001fb43fa	233303681	1	practice_slash	5	advance_on_keypress_SLASH	2	stimuli_distractor_trianglediamonds.svg	stimuli_distractor_diamondtriangles.svg	16	no	57	0	768
6.6.1	mac	2022-11-07	14:33:01	14:35:18	135599	5d48fcc5643eb80001fb43fa	233303681	1	practice_slash	5	practice_slash	3	stimuli_distractor_trianglediamonds.svg	stimuli_distractor_trianglediamonds.svg	15	no	0	1	2000
6.6.1	mac	2022-11-07	14:33:01	14:35:18	135599	5d48fcc5643eb80001fb43fa	233303681	1	practice_slash	5	advance_on_keypress_SLASH	4	stimuli_distractor_trianglediamonds.svg	stimuli_distractor_trianglediamonds.svg	15	no	57	0	585
6.6.1	mac	2022-11-07	14:33:01	14:35:21	139369	5d48fcc5643eb80001fb43fa	233303681	1	practice_slash	5	practice_slash	5	stimuli_distractor_diamondtriangles.svg	stimuli_target_trianglecircles.svg	9	yes	53	1	1538
6.6.1	mac	2022-11-07	14:33:01	14:35:21	139369	5d48fcc5643eb80001fb43fa	233303681	1	practice_slash	5	advance_on_keypress_SLASH	6	stimuli_distractor_diamondtriangles.svg	stimuli_target_trianglecircles.svg	9	yes	57	0	610
6.6.1	mac	2022-11-07	14:33:01	14:35:25	143234	5d48fcc5643eb80001fb43fa	233303681	1	practice_slash	5	practice_slash	7	stimuli_distractor_trianglediamonds.svg	stimuli_target_circlediamonds.svg	10	yes	53	1	1618
6.6.1	mac	2022-11-07	14:33:01	14:35:25	143234	5d48fcc5643eb80001fb43fa	233303681	1	practice_slash	5	advance_on_keypress_SLASH	8	stimuli_distractor_trianglediamonds.svg	stimuli_target_circlediamonds.svg	10	yes	57	0	463
6.6.1	mac	2022-11-07	14:33:01	14:35:28	146481	5d48fcc5643eb80001fb43fa	233303681	1	practice_slash	5	practice_slash	9	stimuli_target_squarediamonds.svg	stimuli_distractor_diamondtriangles.svg	2	yes	53	1	1150
6.6.1	mac	2022-11-07	14:33:01	14:35:28	146481	5d48fcc5643eb80001fb43fa	233303681	1	practice_slash	5	advance_on_keypress_SLASH	10	stimuli_target_squarediamonds.svg	stimuli_distractor_diamondtriangles.svg	2	yes	57	0	493
6.6.1	mac	2022-11-07	14:33:01	14:35:32	149875	5d48fcc5643eb80001fb43fa	233303681	1	practice_slash	5	practice_slash	11	stimuli_distractor_diamondtriangles.svg	stimuli_target_diamondcircles.svg	8	yes	53	1	1260
6.6.1	mac	2022-11-07	14:33:01	14:35:32	149875	5d48fcc5643eb80001fb43fa	233303681	1	practice_slash	5	advance_on_keypress_SLASH	12	stimuli_distractor_diamondtriangles.svg	stimuli_target_diamondcircles.svg	8	yes	57	0	427
6.6.1	mac	2022-11-07	14:33:01	14:35:36	153915	5d48fcc5643eb80001fb43fa	233303681	1	practice_slash	5	practice_slash	13	stimuli_distractor_diamondtriangles.svg	stimuli_distractor_trianglediamonds.svg	14	no	0	1	2000
6.6.1	mac	2022-11-07	14:33:01	14:35:36	153915	5d48fcc5643eb80001fb43fa	233303681	1	practice_slash	5	advance_on_keypress_SLASH	14	stimuli_distractor_diamondtriangles.svg	stimuli_distractor_trianglediamonds.svg	14	no	57	0	563
6.6.1	mac	2022-11-07	14:33:01	14:35:39	157219	5d48fcc5643eb80001fb43fa	233303681	1	practice_slash	5	practice_slash	15	stimuli_distractor_diamondtriangles.svg	stimuli_target_circletriangles.svg	7	yes	53	1	1104
6.6.1	mac	2022-11-07	14:33:01	14:35:39	157219	5d48fcc5643eb80001fb43fa	233303681	1	practice_slash	5	advance_on_keypress_SLASH	16	stimuli_distractor_diamondtriangles.svg	stimuli_target_circletriangles.svg	7	yes	57	0	480
6.6.1	mac	2022-11-07	14:33:01	14:35:42	160262	5d48fcc5643eb80001fb43fa	233303681	1	practice_slash	5	practice_slash	17	stimuli_target_squarediamonds.svg	stimuli_distractor_trianglediamonds.svg	5	yes	53	1	931
6.6.1	mac	2022-11-07	14:33:01	14:35:42	160262	5d48fcc5643eb80001fb43fa	233303681	1	practice_slash	5	advance_on_keypress_SLASH	18	stimuli_target_squarediamonds.svg	stimuli_distractor_trianglediamonds.svg	5	yes	57	0	527
6.6.1	mac	2022-11-07	14:33:01	14:35:46	164431	5d48fcc5643eb80001fb43fa	233303681	1	practice_slash	5	practice_slash	19	stimuli_target_diamondsquares.svg	stimuli_distractor_trianglediamonds.svg	6	yes	0	0	2000
6.6.1	mac	2022-11-07	14:33:01	14:35:46	164431	5d48fcc5643eb80001fb43fa	233303681	1	practice_slash	5	advance_on_keypress_SLASH	20	stimuli_target_diamondsquares.svg	stimuli_distractor_trianglediamonds.svg	6	yes	57	0	385
6.6.1	mac	2022-11-07	14:33:01	14:35:50	168449	5d48fcc5643eb80001fb43fa	233303681	1	practice_slash	5	practice_slash	21	stimuli_target_diamondsquares.svg	stimuli_distractor_diamondtriangles.svg	3	yes	0	0	2000
6.6.1	mac	2022-11-07	14:33:01	14:35:50	168449	5d48fcc5643eb80001fb43fa	233303681	1	practice_slash	5	advance_on_keypress_SLASH	22	stimuli_target_diamondsquares.svg	stimuli_distractor_diamondtriangles.svg	3	yes	57	0	326
6.6.1	mac	2022-11-07	14:33:01	14:35:53	171483	5d48fcc5643eb80001fb43fa	233303681	1	practice_slash	5	practice_slash	23	stimuli_target_circlediamonds.svg	stimuli_distractor_trianglediamonds.svg	4	yes	53	1	1085
6.6.1	mac	2022-11-07	14:33:01	14:35:53	171483	5d48fcc5643eb80001fb43fa	233303681	1	practice_slash	5	advance_on_keypress_SLASH	24	stimuli_target_circlediamonds.svg	stimuli_distractor_trianglediamonds.svg	4	yes	57	0	380
6.6.1	mac	2022-11-07	14:33:01	14:35:56	174384	5d48fcc5643eb80001fb43fa	233303681	1	practice_slash	5	practice_slash	25	stimuli_target_circlediamonds.svg	stimuli_distractor_diamondtriangles.svg	1	yes	53	1	886
6.6.1	mac	2022-11-07	14:33:01	14:35:56	174384	5d48fcc5643eb80001fb43fa	233303681	1	practice_slash	5	advance_on_keypress_SLASH	26	stimuli_target_circlediamonds.svg	stimuli_distractor_diamondtriangles.svg	1	yes	57	0	417
6.6.1	mac	2022-11-07	14:33:01	14:35:59	177514	5d48fcc5643eb80001fb43fa	233303681	1	practice_slash	5	practice_slash	27	stimuli_distractor_trianglediamonds.svg	stimuli_target_diamondcircles.svg	12	yes	53	1	1082
6.6.1	mac	2022-11-07	14:33:01	14:35:59	177514	5d48fcc5643eb80001fb43fa	233303681	1	practice_slash	5	advance_on_keypress_SLASH	28	stimuli_distractor_trianglediamonds.svg	stimuli_target_diamondcircles.svg	12	yes	57	0	852
6.6.1	mac	2022-11-07	14:33:01	14:36:04	182002	5d48fcc5643eb80001fb43fa	233303681	1	practice_slash	5	practice_slash	29	stimuli_distractor_diamondtriangles.svg	stimuli_distractor_diamondtriangles.svg	13	no	0	1	2000
6.6.1	mac	2022-11-07	14:33:01	14:36:04	182002	5d48fcc5643eb80001fb43fa	233303681	1	practice_slash	5	advance_on_keypress_SLASH	30	stimuli_distractor_diamondtriangles.svg	stimuli_distractor_diamondtriangles.svg	13	no	57	0	394
6.6.1	mac	2022-11-07	14:33:01	14:36:07	184987	5d48fcc5643eb80001fb43fa	233303681	1	practice_slash	5	practice_slash	31	stimuli_distractor_trianglediamonds.svg	stimuli_target_squarediamonds.svg	11	yes	53	1	958
6.6.1	mac	2022-11-07	14:33:01	14:36:07	184987	5d48fcc5643eb80001fb43fa	233303681	1	practice_slash	5	advance_on_keypress_SLASH	32	stimuli_distractor_trianglediamonds.svg	stimuli_target_squarediamonds.svg	11	yes	57	0	404
6.6.1	mac	2022-11-07	14:33:01	14:36:13	191382	5d48fcc5643eb80001fb43fa	233303681	1	main_slash	7	main_slash	1	stimuli_distractor_diamondtriangles.svg	stimuli_distractor_diamondtriangles.svg	39	no	0	1	2000
6.6.1	mac	2022-11-07	14:33:01	14:36:13	191382	5d48fcc5643eb80001fb43fa	233303681	1	main_slash	7	advance_on_keypress_SLASH	2	stimuli_distractor_diamondtriangles.svg	stimuli_distractor_diamondtriangles.svg	39	no	57	0	456
6.6.1	mac	2022-11-07	14:33:01	14:36:15	193253	5d48fcc5643eb80001fb43fa	233303681	1	main_slash	7	main_slash	3	stimuli_target_squaretriangles.svg	stimuli_distractor_trianglediamonds.svg	3	yes	53	1	790
6.6.1	mac	2022-11-07	14:33:01	14:36:15	193253	5d48fcc5643eb80001fb43fa	233303681	1	main_slash	7	advance_on_keypress_SLASH	4	stimuli_target_squaretriangles.svg	stimuli_distractor_trianglediamonds.svg	3	yes	57	0	624
6.6.1	mac	2022-11-07	14:33:01	14:36:18	196497	5d48fcc5643eb80001fb43fa	233303681	1	main_slash	7	main_slash	5	stimuli_target_diamondsquares.svg	stimuli_distractor_trianglediamonds.svg	20	yes	0	0	2000
6.6.1	mac	2022-11-07	14:33:01	14:36:18	196497	5d48fcc5643eb80001fb43fa	233303681	1	main_slash	7	advance_on_keypress_SLASH	6	stimuli_target_diamondsquares.svg	stimuli_distractor_trianglediamonds.svg	20	yes	57	0	490
6.6.1	mac	2022-11-07	14:33:01	14:36:22	199614	5d48fcc5643eb80001fb43fa	233303681	1	main_slash	7	main_slash	7	stimuli_distractor_diamondtriangles.svg	stimuli_distractor_trianglediamonds.svg	38	no	0	1	2000
6.6.1	mac	2022-11-07	14:33:01	14:36:22	199614	5d48fcc5643eb80001fb43fa	233303681	1	main_slash	7	advance_on_keypress_SLASH	8	stimuli_distractor_diamondtriangles.svg	stimuli_distractor_trianglediamonds.svg	38	no	57	0	408
6.6.1	mac	2022-11-07	14:33:01	14:36:24	201614	5d48fcc5643eb80001fb43fa	233303681	1	main_slash	7	main_slash	9	stimuli_target_diamondsquares.svg	stimuli_distractor_diamondtriangles.svg	24	yes	53	1	968
6.6.1	mac	2022-11-07	14:33:01	14:36:24	201614	5d48fcc5643eb80001fb43fa	233303681	1	main_slash	7	advance_on_keypress_SLASH	10	stimuli_target_diamondsquares.svg	stimuli_distractor_diamondtriangles.svg	24	yes	57	0	535
6.6.1	mac	2022-11-07	14:33:01	14:36:26	203639	5d48fcc5643eb80001fb43fa	233303681	1	main_slash	7	main_slash	11	stimuli_distractor_diamondtriangles.svg	stimuli_target_trianglecircles.svg	29	yes	53	1	859
6.6.1	mac	2022-11-07	14:33:01	14:36:26	203639	5d48fcc5643eb80001fb43fa	233303681	1	main_slash	7	advance_on_keypress_SLASH	12	stimuli_distractor_diamondtriangles.svg	stimuli_target_trianglecircles.svg	29	yes	57	0	546
6.6.1	mac	2022-11-07	14:33:01	14:36:28	205637	5d48fcc5643eb80001fb43fa	233303681	1	main_slash	7	main_slash	13	stimuli_target_trianglecircles.svg	stimuli_distractor_trianglediamonds.svg	17	yes	53	1	841
6.6.1	mac	2022-11-07	14:33:01	14:36:28	205637	5d48fcc5643eb80001fb43fa	233303681	1	main_slash	7	advance_on_keypress_SLASH	14	stimuli_target_trianglecircles.svg	stimuli_distractor_trianglediamonds.svg	17	yes	57	0	600
6.6.1	mac	2022-11-07	14:33:01	14:36:30	207692	5d48fcc5643eb80001fb43fa	233303681	1	main_slash	7	main_slash	15	stimuli_distractor_diamondtriangles.svg	stimuli_target_diamondcircles.svg	31	yes	53	1	829
6.6.1	mac	2022-11-07	14:33:01	14:36:30	207692	5d48fcc5643eb80001fb43fa	233303681	1	main_slash	7	advance_on_keypress_SLASH	16	stimuli_distractor_diamondtriangles.svg	stimuli_target_diamondcircles.svg	31	yes	57	0	687
6.6.1	mac	2022-11-07	14:33:01	14:36:32	209838	5d48fcc5643eb80001fb43fa	233303681	1	main_slash	7	main_slash	17	stimuli_distractor_trianglediamonds.svg	stimuli_target_trianglecircles.svg	25	yes	53	1	842
6.6.1	mac	2022-11-07	14:33:01	14:36:32	209838	5d48fcc5643eb80001fb43fa	233303681	1	main_slash	7	advance_on_keypress_SLASH	18	stimuli_distractor_trianglediamonds.svg	stimuli_target_trianglecircles.svg	25	yes	57	0	590
6.6.1	mac	2022-11-07	14:33:01	14:36:34	211925	5d48fcc5643eb80001fb43fa	233303681	1	main_slash	7	main_slash	19	stimuli_target_circletriangles.svg	stimuli_distractor_trianglediamonds.svg	1	yes	53	1	880
6.6.1	mac	2022-11-07	14:33:01	14:36:34	211925	5d48fcc5643eb80001fb43fa	233303681	1	main_slash	7	advance_on_keypress_SLASH	20	stimuli_target_circletriangles.svg	stimuli_distractor_trianglediamonds.svg	1	yes	57	0	656
6.6.1	mac	2022-11-07	14:33:01	14:36:37	215214	5d48fcc5643eb80001fb43fa	233303681	1	main_slash	7	main_slash	21	stimuli_distractor_trianglediamonds.svg	stimuli_distractor_diamondtriangles.svg	36	no	0	1	2000
6.6.1	mac	2022-11-07	14:33:01	14:36:37	215214	5d48fcc5643eb80001fb43fa	233303681	1	main_slash	7	advance_on_keypress_SLASH	22	stimuli_distractor_trianglediamonds.svg	stimuli_distractor_diamondtriangles.svg	36	no	57	0	405
6.6.1	mac	2022-11-07	14:33:01	14:36:39	217479	5d48fcc5643eb80001fb43fa	233303681	1	main_slash	7	main_slash	23	stimuli_target_trianglesquares.svg	stimuli_distractor_trianglediamonds.svg	18	yes	53	1	1232
6.6.1	mac	2022-11-07	14:33:01	14:36:39	217479	5d48fcc5643eb80001fb43fa	233303681	1	main_slash	7	advance_on_keypress_SLASH	24	stimuli_target_trianglesquares.svg	stimuli_distractor_trianglediamonds.svg	18	yes	57	0	445
6.6.1	mac	2022-11-07	14:33:01	14:36:42	220548	5d48fcc5643eb80001fb43fa	233303681	1	main_slash	7	main_slash	25	stimuli_distractor_trianglediamonds.svg	stimuli_distractor_diamondtriangles.svg	35	no	0	1	2000
6.6.1	mac	2022-11-07	14:33:01	14:36:42	220548	5d48fcc5643eb80001fb43fa	233303681	1	main_slash	7	advance_on_keypress_SLASH	26	stimuli_distractor_trianglediamonds.svg	stimuli_distractor_diamondtriangles.svg	35	no	57	0	359
6.6.1	mac	2022-11-07	14:33:01	14:36:44	222407	5d48fcc5643eb80001fb43fa	233303681	1	main_slash	7	main_slash	27	stimuli_distractor_diamondtriangles.svg	stimuli_target_squarediamonds.svg	16	yes	53	1	877
6.6.1	mac	2022-11-07	14:33:01	14:36:44	222407	5d48fcc5643eb80001fb43fa	233303681	1	main_slash	7	advance_on_keypress_SLASH	28	stimuli_distractor_diamondtriangles.svg	stimuli_target_squarediamonds.svg	16	yes	57	0	465
6.6.1	mac	2022-11-07	14:33:01	14:36:47	225498	5d48fcc5643eb80001fb43fa	233303681	1	main_slash	7	main_slash	29	stimuli_distractor_diamondtriangles.svg	stimuli_target_squaretriangles.svg	15	yes	0	0	2000
6.6.1	mac	2022-11-07	14:33:01	14:36:47	225498	5d48fcc5643eb80001fb43fa	233303681	1	main_slash	7	advance_on_keypress_SLASH	30	stimuli_distractor_diamondtriangles.svg	stimuli_target_squaretriangles.svg	15	yes	57	0	252
6.6.1	mac	2022-11-07	14:33:01	14:36:50	228381	5d48fcc5643eb80001fb43fa	233303681	1	main_slash	7	main_slash	31	stimuli_distractor_diamondtriangles.svg	stimuli_distractor_diamondtriangles.svg	40	no	0	1	2000
6.6.1	mac	2022-11-07	14:33:01	14:36:50	228381	5d48fcc5643eb80001fb43fa	233303681	1	main_slash	7	advance_on_keypress_SLASH	32	stimuli_distractor_diamondtriangles.svg	stimuli_distractor_diamondtriangles.svg	40	no	57	0	235
6.6.1	mac	2022-11-07	14:33:01	14:36:52	230021	5d48fcc5643eb80001fb43fa	233303681	1	main_slash	7	main_slash	33	stimuli_target_circlediamonds.svg	stimuli_distractor_diamondtriangles.svg	6	yes	53	1	774
6.6.1	mac	2022-11-07	14:33:01	14:36:52	230021	5d48fcc5643eb80001fb43fa	233303681	1	main_slash	7	advance_on_keypress_SLASH	34	stimuli_target_circlediamonds.svg	stimuli_distractor_diamondtriangles.svg	6	yes	57	0	456
6.6.1	mac	2022-11-07	14:33:01	14:36:54	231913	5d48fcc5643eb80001fb43fa	233303681	1	main_slash	7	main_slash	35	stimuli_target_squarediamonds.svg	stimuli_distractor_trianglediamonds.svg	4	yes	53	1	801
6.6.1	mac	2022-11-07	14:33:01	14:36:54	231913	5d48fcc5643eb80001fb43fa	233303681	1	main_slash	7	advance_on_keypress_SLASH	36	stimuli_target_squarediamonds.svg	stimuli_distractor_trianglediamonds.svg	4	yes	57	0	475
6.6.1	mac	2022-11-07	14:33:01	14:36:56	233828	5d48fcc5643eb80001fb43fa	233303681	1	main_slash	7	main_slash	37	stimuli_distractor_trianglediamonds.svg	stimuli_target_diamondcircles.svg	27	yes	53	1	815
6.6.1	mac	2022-11-07	14:33:01	14:36:56	233828	5d48fcc5643eb80001fb43fa	233303681	1	main_slash	7	advance_on_keypress_SLASH	38	stimuli_distractor_trianglediamonds.svg	stimuli_target_diamondcircles.svg	27	yes	57	0	499
6.6.1	mac	2022-11-07	14:33:01	14:36:58	235829	5d48fcc5643eb80001fb43fa	233303681	1	main_slash	7	main_slash	39	stimuli_target_circlediamonds.svg	stimuli_distractor_trianglediamonds.svg	2	yes	53	1	866
6.6.1	mac	2022-11-07	14:33:01	14:36:58	235829	5d48fcc5643eb80001fb43fa	233303681	1	main_slash	7	advance_on_keypress_SLASH	40	stimuli_target_circlediamonds.svg	stimuli_distractor_trianglediamonds.svg	2	yes	57	0	632
6.6.1	mac	2022-11-07	14:33:01	14:37:00	237972	5d48fcc5643eb80001fb43fa	233303681	1	main_slash	7	main_slash	41	stimuli_distractor_diamondtriangles.svg	stimuli_target_trianglesquares.svg	30	yes	53	1	876
6.6.1	mac	2022-11-07	14:33:01	14:37:00	237972	5d48fcc5643eb80001fb43fa	233303681	1	main_slash	7	advance_on_keypress_SLASH	42	stimuli_distractor_diamondtriangles.svg	stimuli_target_trianglesquares.svg	30	yes	57	0	673
6.6.1	mac	2022-11-07	14:33:01	14:37:02	240081	5d48fcc5643eb80001fb43fa	233303681	1	main_slash	7	main_slash	43	stimuli_target_diamondcircles.svg	stimuli_distractor_trianglediamonds.svg	19	yes	53	1	819
6.6.1	mac	2022-11-07	14:33:01	14:37:02	240081	5d48fcc5643eb80001fb43fa	233303681	1	main_slash	7	advance_on_keypress_SLASH	44	stimuli_target_diamondcircles.svg	stimuli_distractor_trianglediamonds.svg	19	yes	57	0	514
6.6.1	mac	2022-11-07	14:33:01	14:37:04	242139	5d48fcc5643eb80001fb43fa	233303681	1	main_slash	7	main_slash	45	stimuli_distractor_trianglediamonds.svg	stimuli_target_trianglesquares.svg	26	yes	53	1	910
6.6.1	mac	2022-11-07	14:33:01	14:37:04	242139	5d48fcc5643eb80001fb43fa	233303681	1	main_slash	7	advance_on_keypress_SLASH	46	stimuli_distractor_trianglediamonds.svg	stimuli_target_trianglesquares.svg	26	yes	57	0	415
6.6.1	mac	2022-11-07	14:33:01	14:37:06	244205	5d48fcc5643eb80001fb43fa	233303681	1	main_slash	7	main_slash	47	stimuli_distractor_trianglediamonds.svg	stimuli_target_squaretriangles.svg	11	yes	53	1	1025
6.6.1	mac	2022-11-07	14:33:01	14:37:06	244205	5d48fcc5643eb80001fb43fa	233303681	1	main_slash	7	advance_on_keypress_SLASH	48	stimuli_distractor_trianglediamonds.svg	stimuli_target_squaretriangles.svg	11	yes	57	0	399
6.6.1	mac	2022-11-07	14:33:01	14:37:08	246053	5d48fcc5643eb80001fb43fa	233303681	1	main_slash	7	main_slash	49	stimuli_distractor_diamondtriangles.svg	stimuli_target_circlediamonds.svg	14	yes	53	1	823
6.6.1	mac	2022-11-07	14:33:01	14:37:08	246053	5d48fcc5643eb80001fb43fa	233303681	1	main_slash	7	advance_on_keypress_SLASH	50	stimuli_distractor_diamondtriangles.svg	stimuli_target_circlediamonds.svg	14	yes	57	0	432
6.6.1	mac	2022-11-07	14:33:01	14:37:10	248008	5d48fcc5643eb80001fb43fa	233303681	1	main_slash	7	main_slash	51	stimuli_target_trianglecircles.svg	stimuli_distractor_diamondtriangles.svg	21	yes	53	1	895
6.6.1	mac	2022-11-07	14:33:01	14:37:10	248008	5d48fcc5643eb80001fb43fa	233303681	1	main_slash	7	advance_on_keypress_SLASH	52	stimuli_target_trianglecircles.svg	stimuli_distractor_diamondtriangles.svg	21	yes	57	0	468
6.6.1	mac	2022-11-07	14:33:01	14:37:12	249844	5d48fcc5643eb80001fb43fa	233303681	1	main_slash	7	main_slash	53	stimuli_distractor_diamondtriangles.svg	stimuli_target_circletriangles.svg	13	yes	53	1	748
6.6.1	mac	2022-11-07	14:33:01	14:37:12	249844	5d48fcc5643eb80001fb43fa	233303681	1	main_slash	7	advance_on_keypress_SLASH	54	stimuli_distractor_diamondtriangles.svg	stimuli_target_circletriangles.svg	13	yes	57	0	435
6.6.1	mac	2022-11-07	14:33:01	14:37:14	251745	5d48fcc5643eb80001fb43fa	233303681	1	main_slash	7	main_slash	55	stimuli_distractor_trianglediamonds.svg	stimuli_target_circlediamonds.svg	10	yes	53	1	831
6.6.1	mac	2022-11-07	14:33:01	14:37:14	251745	5d48fcc5643eb80001fb43fa	233303681	1	main_slash	7	advance_on_keypress_SLASH	56	stimuli_distractor_trianglediamonds.svg	stimuli_target_circlediamonds.svg	10	yes	57	0	379
6.6.1	mac	2022-11-07	14:33:01	14:37:15	253544	5d48fcc5643eb80001fb43fa	233303681	1	main_slash	7	main_slash	57	stimuli_distractor_trianglediamonds.svg	stimuli_target_squarediamonds.svg	12	yes	53	1	798
6.6.1	mac	2022-11-07	14:33:01	14:37:15	253544	5d48fcc5643eb80001fb43fa	233303681	1	main_slash	7	advance_on_keypress_SLASH	58	stimuli_distractor_trianglediamonds.svg	stimuli_target_squarediamonds.svg	12	yes	57	0	475
6.6.1	mac	2022-11-07	14:33:01	14:37:17	255454	5d48fcc5643eb80001fb43fa	233303681	1	main_slash	7	main_slash	59	stimuli_target_squarediamonds.svg	stimuli_distractor_diamondtriangles.svg	8	yes	53	1	808
6.6.1	mac	2022-11-07	14:33:01	14:37:17	255454	5d48fcc5643eb80001fb43fa	233303681	1	main_slash	7	advance_on_keypress_SLASH	60	stimuli_target_squarediamonds.svg	stimuli_distractor_diamondtriangles.svg	8	yes	57	0	404
6.6.1	mac	2022-11-07	14:33:01	14:37:19	257410	5d48fcc5643eb80001fb43fa	233303681	1	main_slash	7	main_slash	61	stimuli_distractor_trianglediamonds.svg	stimuli_distractor_trianglediamonds.svg	33	no	53	0	914
6.6.1	mac	2022-11-07	14:33:01	14:37:19	257410	5d48fcc5643eb80001fb43fa	233303681	1	main_slash	7	advance_on_keypress_SLASH	62	stimuli_distractor_trianglediamonds.svg	stimuli_distractor_trianglediamonds.svg	33	no	57	0	392
6.6.1	mac	2022-11-07	14:33:01	14:37:21	259466	5d48fcc5643eb80001fb43fa	233303681	1	main_slash	7	main_slash	63	stimuli_target_diamondcircles.svg	stimuli_distractor_diamondtriangles.svg	23	yes	53	1	1036
6.6.1	mac	2022-11-07	14:33:01	14:37:21	259466	5d48fcc5643eb80001fb43fa	233303681	1	main_slash	7	advance_on_keypress_SLASH	64	stimuli_target_diamondcircles.svg	stimuli_distractor_diamondtriangles.svg	23	yes	57	0	435
6.6.1	mac	2022-11-07	14:33:01	14:37:24	261693	5d48fcc5643eb80001fb43fa	233303681	1	main_slash	7	main_slash	65	stimuli_distractor_trianglediamonds.svg	stimuli_target_diamondsquares.svg	28	yes	53	1	1163
6.6.1	mac	2022-11-07	14:33:01	14:37:24	261693	5d48fcc5643eb80001fb43fa	233303681	1	main_slash	7	advance_on_keypress_SLASH	66	stimuli_distractor_trianglediamonds.svg	stimuli_target_diamondsquares.svg	28	yes	57	0	404
6.6.1	mac	2022-11-07	14:33:01	14:37:27	264734	5d48fcc5643eb80001fb43fa	233303681	1	main_slash	7	main_slash	67	stimuli_distractor_trianglediamonds.svg	stimuli_distractor_trianglediamonds.svg	34	no	0	1	2000
6.6.1	mac	2022-11-07	14:33:01	14:37:27	264734	5d48fcc5643eb80001fb43fa	233303681	1	main_slash	7	advance_on_keypress_SLASH	68	stimuli_distractor_trianglediamonds.svg	stimuli_distractor_trianglediamonds.svg	34	no	57	0	392
6.6.1	mac	2022-11-07	14:33:01	14:37:29	266571	5d48fcc5643eb80001fb43fa	233303681	1	main_slash	7	main_slash	69	stimuli_target_squaretriangles.svg	stimuli_distractor_diamondtriangles.svg	7	yes	53	1	826
6.6.1	mac	2022-11-07	14:33:01	14:37:29	266571	5d48fcc5643eb80001fb43fa	233303681	1	main_slash	7	advance_on_keypress_SLASH	70	stimuli_target_squaretriangles.svg	stimuli_distractor_diamondtriangles.svg	7	yes	57	0	336
6.6.1	mac	2022-11-07	14:33:01	14:37:30	268287	5d48fcc5643eb80001fb43fa	233303681	1	main_slash	7	main_slash	71	stimuli_distractor_trianglediamonds.svg	stimuli_target_circletriangles.svg	9	yes	53	1	758
6.6.1	mac	2022-11-07	14:33:01	14:37:30	268287	5d48fcc5643eb80001fb43fa	233303681	1	main_slash	7	advance_on_keypress_SLASH	72	stimuli_distractor_trianglediamonds.svg	stimuli_target_circletriangles.svg	9	yes	57	0	459
6.6.1	mac	2022-11-07	14:33:01	14:37:33	271364	5d48fcc5643eb80001fb43fa	233303681	1	main_slash	7	main_slash	73	stimuli_distractor_diamondtriangles.svg	stimuli_distractor_trianglediamonds.svg	37	no	0	1	2000
6.6.1	mac	2022-11-07	14:33:01	14:37:33	271364	5d48fcc5643eb80001fb43fa	233303681	1	main_slash	7	advance_on_keypress_SLASH	74	stimuli_distractor_diamondtriangles.svg	stimuli_distractor_trianglediamonds.svg	37	no	57	0	267
6.6.1	mac	2022-11-07	14:33:01	14:37:35	273070	5d48fcc5643eb80001fb43fa	233303681	1	main_slash	7	main_slash	75	stimuli_distractor_diamondtriangles.svg	stimuli_target_diamondsquares.svg	32	yes	53	1	806
6.6.1	mac	2022-11-07	14:33:01	14:37:35	273070	5d48fcc5643eb80001fb43fa	233303681	1	main_slash	7	advance_on_keypress_SLASH	76	stimuli_distractor_diamondtriangles.svg	stimuli_target_diamondsquares.svg	32	yes	57	0	379
6.6.1	mac	2022-11-07	14:33:01	14:37:38	275870	5d48fcc5643eb80001fb43fa	233303681	1	main_slash	7	main_slash	77	stimuli_target_circletriangles.svg	stimuli_distractor_diamondtriangles.svg	5	yes	53	1	1805
6.6.1	mac	2022-11-07	14:33:01	14:37:38	275870	5d48fcc5643eb80001fb43fa	233303681	1	main_slash	7	advance_on_keypress_SLASH	78	stimuli_target_circletriangles.svg	stimuli_distractor_diamondtriangles.svg	5	yes	57	0	559
6.6.1	mac	2022-11-07	14:33:01	14:37:40	277930	5d48fcc5643eb80001fb43fa	233303681	1	main_slash	7	main_slash	79	stimuli_target_trianglesquares.svg	stimuli_distractor_diamondtriangles.svg	22	yes	53	1	884
6.6.1	mac	2022-11-07	14:33:01	14:37:40	277930	5d48fcc5643eb80001fb43fa	233303681	1	main_slash	7	advance_on_keypress_SLASH	80	stimuli_target_trianglesquares.svg	stimuli_distractor_diamondtriangles.svg	22	yes	57	0	475
6.6.1	mac	2022-11-07	14:33:01	14:37:42	279963	5d48fcc5643eb80001fb43fa	233303681	1	main_slash	7	main_slash	81	stimuli_distractor_trianglediamonds.svg	stimuli_target_circletriangles.svg	9	yes	53	1	933
6.6.1	mac	2022-11-07	14:33:01	14:37:42	279963	5d48fcc5643eb80001fb43fa	233303681	1	main_slash	7	advance_on_keypress_SLASH	82	stimuli_distractor_trianglediamonds.svg	stimuli_target_circletriangles.svg	9	yes	57	0	425
6.6.1	mac	2022-11-07	14:33:01	14:37:44	281868	5d48fcc5643eb80001fb43fa	233303681	1	main_slash	7	main_slash	83	stimuli_distractor_diamondtriangles.svg	stimuli_target_diamondsquares.svg	32	yes	53	1	855
6.6.1	mac	2022-11-07	14:33:01	14:37:44	281868	5d48fcc5643eb80001fb43fa	233303681	1	main_slash	7	advance_on_keypress_SLASH	84	stimuli_distractor_diamondtriangles.svg	stimuli_target_diamondsquares.svg	32	yes	57	0	398
6.6.1	mac	2022-11-07	14:33:01	14:37:46	283689	5d48fcc5643eb80001fb43fa	233303681	1	main_slash	7	main_slash	85	stimuli_distractor_diamondtriangles.svg	stimuli_target_diamondcircles.svg	31	yes	53	1	793
6.6.1	mac	2022-11-07	14:33:01	14:37:46	283689	5d48fcc5643eb80001fb43fa	233303681	1	main_slash	7	advance_on_keypress_SLASH	86	stimuli_distractor_diamondtriangles.svg	stimuli_target_diamondcircles.svg	31	yes	57	0	391
6.6.1	mac	2022-11-07	14:33:01	14:37:48	285645	5d48fcc5643eb80001fb43fa	233303681	1	main_slash	7	main_slash	87	stimuli_distractor_diamondtriangles.svg	stimuli_target_circletriangles.svg	13	yes	53	1	949
6.6.1	mac	2022-11-07	14:33:01	14:37:48	285645	5d48fcc5643eb80001fb43fa	233303681	1	main_slash	7	advance_on_keypress_SLASH	88	stimuli_distractor_diamondtriangles.svg	stimuli_target_circletriangles.svg	13	yes	57	0	393
6.6.1	mac	2022-11-07	14:33:01	14:37:50	287657	5d48fcc5643eb80001fb43fa	233303681	1	main_slash	7	main_slash	89	stimuli_target_circletriangles.svg	stimuli_distractor_trianglediamonds.svg	1	yes	53	1	993
6.6.1	mac	2022-11-07	14:33:01	14:37:50	287657	5d48fcc5643eb80001fb43fa	233303681	1	main_slash	7	advance_on_keypress_SLASH	90	stimuli_target_circletriangles.svg	stimuli_distractor_trianglediamonds.svg	1	yes	57	0	463
6.6.1	mac	2022-11-07	14:33:01	14:37:52	289636	5d48fcc5643eb80001fb43fa	233303681	1	main_slash	7	main_slash	91	stimuli_target_trianglecircles.svg	stimuli_distractor_diamondtriangles.svg	21	yes	53	1	890
6.6.1	mac	2022-11-07	14:33:01	14:37:52	289636	5d48fcc5643eb80001fb43fa	233303681	1	main_slash	7	advance_on_keypress_SLASH	92	stimuli_target_trianglecircles.svg	stimuli_distractor_diamondtriangles.svg	21	yes	57	0	384
6.6.1	mac	2022-11-07	14:33:01	14:37:54	291597	5d48fcc5643eb80001fb43fa	233303681	1	main_slash	7	main_slash	93	stimuli_distractor_trianglediamonds.svg	stimuli_target_trianglecircles.svg	25	yes	53	1	934
6.6.1	mac	2022-11-07	14:33:01	14:37:54	291597	5d48fcc5643eb80001fb43fa	233303681	1	main_slash	7	advance_on_keypress_SLASH	94	stimuli_distractor_trianglediamonds.svg	stimuli_target_trianglecircles.svg	25	yes	57	0	469
6.6.1	mac	2022-11-07	14:33:01	14:37:56	293704	5d48fcc5643eb80001fb43fa	233303681	1	main_slash	7	main_slash	95	stimuli_target_diamondcircles.svg	stimuli_distractor_diamondtriangles.svg	23	yes	53	1	1008
6.6.1	mac	2022-11-07	14:33:01	14:37:56	293704	5d48fcc5643eb80001fb43fa	233303681	1	main_slash	7	advance_on_keypress_SLASH	96	stimuli_target_diamondcircles.svg	stimuli_distractor_diamondtriangles.svg	23	yes	57	0	473
6.6.1	mac	2022-11-07	14:33:01	14:37:58	295686	5d48fcc5643eb80001fb43fa	233303681	1	main_slash	7	main_slash	97	stimuli_target_squaretriangles.svg	stimuli_distractor_diamondtriangles.svg	7	yes	53	1	890
6.6.1	mac	2022-11-07	14:33:01	14:37:58	295686	5d48fcc5643eb80001fb43fa	233303681	1	main_slash	7	advance_on_keypress_SLASH	98	stimuli_target_squaretriangles.svg	stimuli_distractor_diamondtriangles.svg	7	yes	57	0	627
6.6.1	mac	2022-11-07	14:33:01	14:38:00	297747	5d48fcc5643eb80001fb43fa	233303681	1	main_slash	7	main_slash	99	stimuli_distractor_diamondtriangles.svg	stimuli_target_circlediamonds.svg	14	yes	53	1	817
6.6.1	mac	2022-11-07	14:33:01	14:38:00	297747	5d48fcc5643eb80001fb43fa	233303681	1	main_slash	7	advance_on_keypress_SLASH	100	stimuli_distractor_diamondtriangles.svg	stimuli_target_circlediamonds.svg	14	yes	57	0	448
6.6.1	mac	2022-11-07	14:33:01	14:38:02	299982	5d48fcc5643eb80001fb43fa	233303681	1	main_slash	7	main_slash	101	stimuli_target_circlediamonds.svg	stimuli_distractor_diamondtriangles.svg	6	yes	53	1	1152
6.6.1	mac	2022-11-07	14:33:01	14:38:02	299982	5d48fcc5643eb80001fb43fa	233303681	1	main_slash	7	advance_on_keypress_SLASH	102	stimuli_target_circlediamonds.svg	stimuli_distractor_diamondtriangles.svg	6	yes	57	0	555
6.6.1	mac	2022-11-07	14:33:01	14:38:04	302015	5d48fcc5643eb80001fb43fa	233303681	1	main_slash	7	main_slash	103	stimuli_distractor_diamondtriangles.svg	stimuli_distractor_trianglediamonds.svg	38	no	53	0	853
6.6.1	mac	2022-11-07	14:33:01	14:38:04	302015	5d48fcc5643eb80001fb43fa	233303681	1	main_slash	7	advance_on_keypress_SLASH	104	stimuli_distractor_diamondtriangles.svg	stimuli_distractor_trianglediamonds.svg	38	no	57	0	431
6.6.1	mac	2022-11-07	14:33:01	14:38:06	304358	5d48fcc5643eb80001fb43fa	233303681	1	main_slash	7	main_slash	105	stimuli_distractor_trianglediamonds.svg	stimuli_target_squaretriangles.svg	11	yes	53	1	1278
6.6.1	mac	2022-11-07	14:33:01	14:38:06	304358	5d48fcc5643eb80001fb43fa	233303681	1	main_slash	7	advance_on_keypress_SLASH	106	stimuli_distractor_trianglediamonds.svg	stimuli_target_squaretriangles.svg	11	yes	57	0	566
6.6.1	mac	2022-11-07	14:33:01	14:38:08	306367	5d48fcc5643eb80001fb43fa	233303681	1	main_slash	7	main_slash	107	stimuli_distractor_trianglediamonds.svg	stimuli_target_circlediamonds.svg	10	yes	53	1	822
6.6.1	mac	2022-11-07	14:33:01	14:38:08	306367	5d48fcc5643eb80001fb43fa	233303681	1	main_slash	7	advance_on_keypress_SLASH	108	stimuli_distractor_trianglediamonds.svg	stimuli_target_circlediamonds.svg	10	yes	57	0	397
6.6.1	mac	2022-11-07	14:33:01	14:38:10	308185	5d48fcc5643eb80001fb43fa	233303681	1	main_slash	7	main_slash	109	stimuli_target_diamondcircles.svg	stimuli_distractor_trianglediamonds.svg	19	yes	53	1	789
6.6.1	mac	2022-11-07	14:33:01	14:38:10	308185	5d48fcc5643eb80001fb43fa	233303681	1	main_slash	7	advance_on_keypress_SLASH	110	stimuli_target_diamondcircles.svg	stimuli_distractor_trianglediamonds.svg	19	yes	57	0	416
6.6.1	mac	2022-11-07	14:33:01	14:38:13	311231	5d48fcc5643eb80001fb43fa	233303681	1	main_slash	7	main_slash	111	stimuli_distractor_diamondtriangles.svg	stimuli_distractor_diamondtriangles.svg	39	no	0	1	2000
6.6.1	mac	2022-11-07	14:33:01	14:38:13	311231	5d48fcc5643eb80001fb43fa	233303681	1	main_slash	7	advance_on_keypress_SLASH	112	stimuli_distractor_diamondtriangles.svg	stimuli_distractor_diamondtriangles.svg	39	no	57	0	346
6.6.1	mac	2022-11-07	14:33:01	14:38:15	313005	5d48fcc5643eb80001fb43fa	233303681	1	main_slash	7	main_slash	113	stimuli_distractor_trianglediamonds.svg	stimuli_target_diamondcircles.svg	27	yes	53	1	792
6.6.1	mac	2022-11-07	14:33:01	14:38:15	313005	5d48fcc5643eb80001fb43fa	233303681	1	main_slash	7	advance_on_keypress_SLASH	114	stimuli_distractor_trianglediamonds.svg	stimuli_target_diamondcircles.svg	27	yes	57	0	781
6.6.1	mac	2022-11-07	14:33:01	14:38:17	315163	5d48fcc5643eb80001fb43fa	233303681	1	main_slash	7	main_slash	115	stimuli_distractor_diamondtriangles.svg	stimuli_target_trianglesquares.svg	30	yes	53	1	750
6.6.1	mac	2022-11-07	14:33:01	14:38:17	315163	5d48fcc5643eb80001fb43fa	233303681	1	main_slash	7	advance_on_keypress_SLASH	116	stimuli_distractor_diamondtriangles.svg	stimuli_target_trianglesquares.svg	30	yes	57	0	477
6.6.1	mac	2022-11-07	14:33:01	14:38:19	317424	5d48fcc5643eb80001fb43fa	233303681	1	main_slash	7	main_slash	117	stimuli_target_squarediamonds.svg	stimuli_distractor_trianglediamonds.svg	4	yes	53	1	1160
6.6.1	mac	2022-11-07	14:33:01	14:38:19	317424	5d48fcc5643eb80001fb43fa	233303681	1	main_slash	7	advance_on_keypress_SLASH	118	stimuli_target_squarediamonds.svg	stimuli_distractor_trianglediamonds.svg	4	yes	57	0	396
6.6.1	mac	2022-11-07	14:33:01	14:38:22	320431	5d48fcc5643eb80001fb43fa	233303681	1	main_slash	7	main_slash	119	stimuli_distractor_diamondtriangles.svg	stimuli_distractor_diamondtriangles.svg	40	no	0	1	2000
6.6.1	mac	2022-11-07	14:33:01	14:38:22	320431	5d48fcc5643eb80001fb43fa	233303681	1	main_slash	7	advance_on_keypress_SLASH	120	stimuli_distractor_diamondtriangles.svg	stimuli_distractor_diamondtriangles.svg	40	no	57	0	529
6.6.1	mac	2022-11-07	14:33:01	14:38:26	323581	5d48fcc5643eb80001fb43fa	233303681	1	main_slash	7	main_slash	121	stimuli_distractor_trianglediamonds.svg	stimuli_distractor_diamondtriangles.svg	36	no	0	1	2000
6.6.1	mac	2022-11-07	14:33:01	14:38:26	323581	5d48fcc5643eb80001fb43fa	233303681	1	main_slash	7	advance_on_keypress_SLASH	122	stimuli_distractor_trianglediamonds.svg	stimuli_distractor_diamondtriangles.svg	36	no	57	0	355
6.6.1	mac	2022-11-07	14:33:01	14:38:28	326565	5d48fcc5643eb80001fb43fa	233303681	1	main_slash	7	main_slash	123	stimuli_distractor_trianglediamonds.svg	stimuli_distractor_diamondtriangles.svg	35	no	0	1	2000
6.6.1	mac	2022-11-07	14:33:01	14:38:28	326565	5d48fcc5643eb80001fb43fa	233303681	1	main_slash	7	advance_on_keypress_SLASH	124	stimuli_distractor_trianglediamonds.svg	stimuli_distractor_diamondtriangles.svg	35	no	57	0	325
6.6.1	mac	2022-11-07	14:33:01	14:38:30	328323	5d48fcc5643eb80001fb43fa	233303681	1	main_slash	7	main_slash	125	stimuli_target_squarediamonds.svg	stimuli_distractor_diamondtriangles.svg	8	yes	53	1	811
6.6.1	mac	2022-11-07	14:33:01	14:38:30	328323	5d48fcc5643eb80001fb43fa	233303681	1	main_slash	7	advance_on_keypress_SLASH	126	stimuli_target_squarediamonds.svg	stimuli_distractor_diamondtriangles.svg	8	yes	57	0	595
6.6.1	mac	2022-11-07	14:33:01	14:38:33	330821	5d48fcc5643eb80001fb43fa	233303681	1	main_slash	7	main_slash	127	stimuli_target_diamondsquares.svg	stimuli_distractor_diamondtriangles.svg	24	yes	53	1	1274
6.6.1	mac	2022-11-07	14:33:01	14:38:33	330821	5d48fcc5643eb80001fb43fa	233303681	1	main_slash	7	advance_on_keypress_SLASH	128	stimuli_target_diamondsquares.svg	stimuli_distractor_diamondtriangles.svg	24	yes	57	0	6137
6.6.1	mac	2022-11-07	14:33:01	14:38:41	338580	5d48fcc5643eb80001fb43fa	233303681	1	main_slash	7	main_slash	129	stimuli_target_diamondsquares.svg	stimuli_distractor_trianglediamonds.svg	20	yes	53	1	1001
6.6.1	mac	2022-11-07	14:33:01	14:38:41	338580	5d48fcc5643eb80001fb43fa	233303681	1	main_slash	7	advance_on_keypress_SLASH	130	stimuli_target_diamondsquares.svg	stimuli_distractor_trianglediamonds.svg	20	yes	57	0	1127
6.6.1	mac	2022-11-07	14:33:01	14:38:43	341199	5d48fcc5643eb80001fb43fa	233303681	1	main_slash	7	main_slash	131	stimuli_distractor_diamondtriangles.svg	stimuli_target_trianglecircles.svg	29	yes	53	1	869
6.6.1	mac	2022-11-07	14:33:01	14:38:43	341199	5d48fcc5643eb80001fb43fa	233303681	1	main_slash	7	advance_on_keypress_SLASH	132	stimuli_distractor_diamondtriangles.svg	stimuli_target_trianglecircles.svg	29	yes	57	0	1633
6.6.1	mac	2022-11-07	14:33:01	14:38:47	345464	5d48fcc5643eb80001fb43fa	233303681	1	main_slash	7	main_slash	133	stimuli_distractor_trianglediamonds.svg	stimuli_distractor_trianglediamonds.svg	34	no	0	1	2000
6.6.1	mac	2022-11-07	14:33:01	14:38:47	345464	5d48fcc5643eb80001fb43fa	233303681	1	main_slash	7	advance_on_keypress_SLASH	134	stimuli_distractor_trianglediamonds.svg	stimuli_distractor_trianglediamonds.svg	34	no	57	0	699
6.6.1	mac	2022-11-07	14:33:01	14:38:51	348797	5d48fcc5643eb80001fb43fa	233303681	1	main_slash	7	main_slash	135	stimuli_distractor_trianglediamonds.svg	stimuli_distractor_trianglediamonds.svg	33	no	0	1	2000
6.6.1	mac	2022-11-07	14:33:01	14:38:51	348797	5d48fcc5643eb80001fb43fa	233303681	1	main_slash	7	advance_on_keypress_SLASH	136	stimuli_distractor_trianglediamonds.svg	stimuli_distractor_trianglediamonds.svg	33	no	57	0	644
6.6.1	mac	2022-11-07	14:33:01	14:38:54	352064	5d48fcc5643eb80001fb43fa	233303681	1	main_slash	7	main_slash	137	stimuli_target_trianglesquares.svg	stimuli_distractor_diamondtriangles.svg	22	yes	0	0	2000
6.6.1	mac	2022-11-07	14:33:01	14:38:54	352064	5d48fcc5643eb80001fb43fa	233303681	1	main_slash	7	advance_on_keypress_SLASH	138	stimuli_target_trianglesquares.svg	stimuli_distractor_diamondtriangles.svg	22	yes	57	0	576
6.6.1	mac	2022-11-07	14:33:01	14:38:57	354670	5d48fcc5643eb80001fb43fa	233303681	1	main_slash	7	main_slash	139	stimuli_target_squaretriangles.svg	stimuli_distractor_trianglediamonds.svg	3	yes	53	1	1406
6.6.1	mac	2022-11-07	14:33:01	14:38:57	354670	5d48fcc5643eb80001fb43fa	233303681	1	main_slash	7	advance_on_keypress_SLASH	140	stimuli_target_squaretriangles.svg	stimuli_distractor_trianglediamonds.svg	3	yes	57	0	663
6.6.1	mac	2022-11-07	14:33:01	14:38:59	357164	5d48fcc5643eb80001fb43fa	233303681	1	main_slash	7	main_slash	141	stimuli_distractor_diamondtriangles.svg	stimuli_target_squarediamonds.svg	16	yes	53	1	1217
6.6.1	mac	2022-11-07	14:33:01	14:38:59	357164	5d48fcc5643eb80001fb43fa	233303681	1	main_slash	7	advance_on_keypress_SLASH	142	stimuli_distractor_diamondtriangles.svg	stimuli_target_squarediamonds.svg	16	yes	57	0	618
6.6.1	mac	2022-11-07	14:33:01	14:39:01	359569	5d48fcc5643eb80001fb43fa	233303681	1	main_slash	7	main_slash	143	stimuli_distractor_trianglediamonds.svg	stimuli_target_squarediamonds.svg	12	yes	53	1	1156
6.6.1	mac	2022-11-07	14:33:01	14:39:01	359569	5d48fcc5643eb80001fb43fa	233303681	1	main_slash	7	advance_on_keypress_SLASH	144	stimuli_distractor_trianglediamonds.svg	stimuli_target_squarediamonds.svg	12	yes	57	0	545
6.6.1	mac	2022-11-07	14:33:01	14:39:04	361712	5d48fcc5643eb80001fb43fa	233303681	1	main_slash	7	main_slash	145	stimuli_target_trianglecircles.svg	stimuli_distractor_trianglediamonds.svg	17	yes	53	1	966
6.6.1	mac	2022-11-07	14:33:01	14:39:04	361712	5d48fcc5643eb80001fb43fa	233303681	1	main_slash	7	advance_on_keypress_SLASH	146	stimuli_target_trianglecircles.svg	stimuli_distractor_trianglediamonds.svg	17	yes	57	0	645
6.6.1	mac	2022-11-07	14:33:01	14:39:07	364980	5d48fcc5643eb80001fb43fa	233303681	1	main_slash	7	main_slash	147	stimuli_distractor_diamondtriangles.svg	stimuli_target_squaretriangles.svg	15	yes	0	0	2000
6.6.1	mac	2022-11-07	14:33:01	14:39:07	364980	5d48fcc5643eb80001fb43fa	233303681	1	main_slash	7	advance_on_keypress_SLASH	148	stimuli_distractor_diamondtriangles.svg	stimuli_target_squaretriangles.svg	15	yes	57	0	1316
6.6.1	mac	2022-11-07	14:33:01	14:39:10	367831	5d48fcc5643eb80001fb43fa	233303681	1	main_slash	7	main_slash	149	stimuli_distractor_trianglediamonds.svg	stimuli_target_trianglesquares.svg	26	yes	53	1	901
6.6.1	mac	2022-11-07	14:33:01	14:39:10	367831	5d48fcc5643eb80001fb43fa	233303681	1	main_slash	7	advance_on_keypress_SLASH	150	stimuli_distractor_trianglediamonds.svg	stimuli_target_trianglesquares.svg	26	yes	57	0	680
6.6.1	mac	2022-11-07	14:33:01	14:39:12	370036	5d48fcc5643eb80001fb43fa	233303681	1	main_slash	7	main_slash	151	stimuli_distractor_trianglediamonds.svg	stimuli_target_diamondsquares.svg	28	yes	53	1	890
6.6.1	mac	2022-11-07	14:33:01	14:39:12	370036	5d48fcc5643eb80001fb43fa	233303681	1	main_slash	7	advance_on_keypress_SLASH	152	stimuli_distractor_trianglediamonds.svg	stimuli_target_diamondsquares.svg	28	yes	57	0	504
6.6.1	mac	2022-11-07	14:33:01	14:39:14	372155	5d48fcc5643eb80001fb43fa	233303681	1	main_slash	7	main_slash	153	stimuli_target_circletriangles.svg	stimuli_distractor_diamondtriangles.svg	5	yes	53	1	992
6.6.1	mac	2022-11-07	14:33:01	14:39:14	372155	5d48fcc5643eb80001fb43fa	233303681	1	main_slash	7	advance_on_keypress_SLASH	154	stimuli_target_circletriangles.svg	stimuli_distractor_diamondtriangles.svg	5	yes	57	0	894
6.6.1	mac	2022-11-07	14:33:01	14:39:16	374506	5d48fcc5643eb80001fb43fa	233303681	1	main_slash	7	main_slash	155	stimuli_target_circlediamonds.svg	stimuli_distractor_trianglediamonds.svg	2	yes	53	1	842
6.6.1	mac	2022-11-07	14:33:01	14:39:16	374506	5d48fcc5643eb80001fb43fa	233303681	1	main_slash	7	advance_on_keypress_SLASH	156	stimuli_target_circlediamonds.svg	stimuli_distractor_trianglediamonds.svg	2	yes	57	0	533
6.6.1	mac	2022-11-07	14:33:01	14:39:18	376428	5d48fcc5643eb80001fb43fa	233303681	1	main_slash	7	main_slash	157	stimuli_target_trianglesquares.svg	stimuli_distractor_trianglediamonds.svg	18	yes	53	1	765
6.6.1	mac	2022-11-07	14:33:01	14:39:18	376428	5d48fcc5643eb80001fb43fa	233303681	1	main_slash	7	advance_on_keypress_SLASH	158	stimuli_target_trianglesquares.svg	stimuli_distractor_trianglediamonds.svg	18	yes	57	0	484
6.6.1	mac	2022-11-07	14:33:01	14:39:21	379548	5d48fcc5643eb80001fb43fa	233303681	1	main_slash	7	main_slash	159	stimuli_distractor_diamondtriangles.svg	stimuli_distractor_trianglediamonds.svg	37	no	0	1	2000
6.6.1	mac	2022-11-07	14:33:01	14:39:21	379548	5d48fcc5643eb80001fb43fa	233303681	1	main_slash	7	advance_on_keypress_SLASH	160	stimuli_distractor_diamondtriangles.svg	stimuli_distractor_trianglediamonds.svg	37	no	57	0	209
6.6.1	mac	2022-11-07	14:33:01	14:40:12	429709	5d48fcc5643eb80001fb43fa	233303681	1	practice_z	9	practice_z	1	stimuli_distractor_diamondtriangles.svg	stimuli_target_diamondcircles.svg	8	yes	44	1	911
6.6.1	mac	2022-11-07	14:33:01	14:40:12	429709	5d48fcc5643eb80001fb43fa	233303681	1	practice_z	9	advance_on_keypress_ZEE	2	stimuli_distractor_diamondtriangles.svg	stimuli_target_diamondcircles.svg	8	yes	57	0	387
6.6.1	mac	2022-11-07	14:33:01	14:40:14	432517	5d48fcc5643eb80001fb43fa	233303681	1	practice_z	9	practice_z	3	stimuli_target_circlediamonds.svg	stimuli_distractor_diamondtriangles.svg	1	yes	44	1	785
6.6.1	mac	2022-11-07	14:33:01	14:40:14	432517	5d48fcc5643eb80001fb43fa	233303681	1	practice_z	9	advance_on_keypress_ZEE	4	stimuli_target_circlediamonds.svg	stimuli_distractor_diamondtriangles.svg	1	yes	57	0	357
6.6.1	mac	2022-11-07	14:33:01	14:40:18	436516	5d48fcc5643eb80001fb43fa	233303681	1	practice_z	9	practice_z	5	stimuli_distractor_diamondtriangles.svg	stimuli_distractor_diamondtriangles.svg	13	no	0	1	2000
6.6.1	mac	2022-11-07	14:33:01	14:40:18	436516	5d48fcc5643eb80001fb43fa	233303681	1	practice_z	9	advance_on_keypress_ZEE	6	stimuli_distractor_diamondtriangles.svg	stimuli_distractor_diamondtriangles.svg	13	no	57	0	455
6.6.1	mac	2022-11-07	14:33:01	14:40:23	440599	5d48fcc5643eb80001fb43fa	233303681	1	practice_z	9	practice_z	7	stimuli_distractor_trianglediamonds.svg	stimuli_distractor_diamondtriangles.svg	16	no	0	1	2000
6.6.1	mac	2022-11-07	14:33:01	14:40:23	440599	5d48fcc5643eb80001fb43fa	233303681	1	practice_z	9	advance_on_keypress_ZEE	8	stimuli_distractor_trianglediamonds.svg	stimuli_distractor_diamondtriangles.svg	16	no	57	0	336
6.6.1	mac	2022-11-07	14:33:01	14:40:25	443387	5d48fcc5643eb80001fb43fa	233303681	1	practice_z	9	practice_z	9	stimuli_target_diamondsquares.svg	stimuli_distractor_trianglediamonds.svg	6	yes	44	1	824
6.6.1	mac	2022-11-07	14:33:01	14:40:25	443387	5d48fcc5643eb80001fb43fa	233303681	1	practice_z	9	advance_on_keypress_ZEE	10	stimuli_target_diamondsquares.svg	stimuli_distractor_trianglediamonds.svg	6	yes	57	0	455
6.6.1	mac	2022-11-07	14:33:01	14:40:28	446238	5d48fcc5643eb80001fb43fa	233303681	1	practice_z	9	practice_z	11	stimuli_distractor_trianglediamonds.svg	stimuli_target_circlediamonds.svg	10	yes	44	1	758
6.6.1	mac	2022-11-07	14:33:01	14:40:28	446238	5d48fcc5643eb80001fb43fa	233303681	1	practice_z	9	advance_on_keypress_ZEE	12	stimuli_distractor_trianglediamonds.svg	stimuli_target_circlediamonds.svg	10	yes	57	0	322
6.6.1	mac	2022-11-07	14:33:01	14:40:31	448957	5d48fcc5643eb80001fb43fa	233303681	1	practice_z	9	practice_z	13	stimuli_distractor_trianglediamonds.svg	stimuli_target_diamondcircles.svg	12	yes	44	1	759
6.6.1	mac	2022-11-07	14:33:01	14:40:31	448957	5d48fcc5643eb80001fb43fa	233303681	1	practice_z	9	advance_on_keypress_ZEE	14	stimuli_distractor_trianglediamonds.svg	stimuli_target_diamondcircles.svg	12	yes	57	0	519
6.6.1	mac	2022-11-07	14:33:01	14:40:34	451906	5d48fcc5643eb80001fb43fa	233303681	1	practice_z	9	practice_z	15	stimuli_distractor_diamondtriangles.svg	stimuli_target_circletriangles.svg	7	yes	44	1	809
6.6.1	mac	2022-11-07	14:33:01	14:40:34	451906	5d48fcc5643eb80001fb43fa	233303681	1	practice_z	9	advance_on_keypress_ZEE	16	stimuli_distractor_diamondtriangles.svg	stimuli_target_circletriangles.svg	7	yes	57	0	646
6.6.1	mac	2022-11-07	14:33:01	14:40:37	454976	5d48fcc5643eb80001fb43fa	233303681	1	practice_z	9	practice_z	17	stimuli_target_squarediamonds.svg	stimuli_distractor_diamondtriangles.svg	2	yes	44	1	794
6.6.1	mac	2022-11-07	14:33:01	14:40:37	454976	5d48fcc5643eb80001fb43fa	233303681	1	practice_z	9	advance_on_keypress_ZEE	18	stimuli_target_squarediamonds.svg	stimuli_distractor_diamondtriangles.svg	2	yes	57	0	470
6.6.1	mac	2022-11-07	14:33:01	14:40:41	459086	5d48fcc5643eb80001fb43fa	233303681	1	practice_z	9	practice_z	19	stimuli_distractor_diamondtriangles.svg	stimuli_distractor_trianglediamonds.svg	14	no	0	1	2000
6.6.1	mac	2022-11-07	14:33:01	14:40:41	459086	5d48fcc5643eb80001fb43fa	233303681	1	practice_z	9	advance_on_keypress_ZEE	20	stimuli_distractor_diamondtriangles.svg	stimuli_distractor_trianglediamonds.svg	14	no	57	0	494
6.6.1	mac	2022-11-07	14:33:01	14:40:44	462030	5d48fcc5643eb80001fb43fa	233303681	1	practice_z	9	practice_z	21	stimuli_distractor_trianglediamonds.svg	stimuli_target_squarediamonds.svg	11	yes	44	1	815
6.6.1	mac	2022-11-07	14:33:01	14:40:44	462030	5d48fcc5643eb80001fb43fa	233303681	1	practice_z	9	advance_on_keypress_ZEE	22	stimuli_distractor_trianglediamonds.svg	stimuli_target_squarediamonds.svg	11	yes	57	0	442
6.6.1	mac	2022-11-07	14:33:01	14:40:47	464884	5d48fcc5643eb80001fb43fa	233303681	1	practice_z	9	practice_z	23	stimuli_target_diamondsquares.svg	stimuli_distractor_diamondtriangles.svg	3	yes	44	1	769
6.6.1	mac	2022-11-07	14:33:01	14:40:47	464884	5d48fcc5643eb80001fb43fa	233303681	1	practice_z	9	advance_on_keypress_ZEE	24	stimuli_target_diamondsquares.svg	stimuli_distractor_diamondtriangles.svg	3	yes	57	0	450
6.6.1	mac	2022-11-07	14:33:01	14:40:50	467729	5d48fcc5643eb80001fb43fa	233303681	1	practice_z	9	practice_z	25	stimuli_distractor_diamondtriangles.svg	stimuli_target_trianglecircles.svg	9	yes	44	1	765
6.6.1	mac	2022-11-07	14:33:01	14:40:50	467729	5d48fcc5643eb80001fb43fa	233303681	1	practice_z	9	advance_on_keypress_ZEE	26	stimuli_distractor_diamondtriangles.svg	stimuli_target_trianglecircles.svg	9	yes	57	0	408
6.6.1	mac	2022-11-07	14:33:01	14:40:52	470505	5d48fcc5643eb80001fb43fa	233303681	1	practice_z	9	practice_z	27	stimuli_target_circlediamonds.svg	stimuli_distractor_trianglediamonds.svg	4	yes	44	1	741
6.6.1	mac	2022-11-07	14:33:01	14:40:52	470505	5d48fcc5643eb80001fb43fa	233303681	1	practice_z	9	advance_on_keypress_ZEE	28	stimuli_target_circlediamonds.svg	stimuli_distractor_trianglediamonds.svg	4	yes	57	0	471
6.6.1	mac	2022-11-07	14:33:01	14:40:56	474357	5d48fcc5643eb80001fb43fa	233303681	1	practice_z	9	practice_z	29	stimuli_distractor_trianglediamonds.svg	stimuli_distractor_trianglediamonds.svg	15	no	44	0	1758
6.6.1	mac	2022-11-07	14:33:01	14:40:56	474357	5d48fcc5643eb80001fb43fa	233303681	1	practice_z	9	advance_on_keypress_ZEE	30	stimuli_distractor_trianglediamonds.svg	stimuli_distractor_trianglediamonds.svg	15	no	57	0	355
6.6.1	mac	2022-11-07	14:33:01	14:40:59	477059	5d48fcc5643eb80001fb43fa	233303681	1	practice_z	9	practice_z	31	stimuli_target_squarediamonds.svg	stimuli_distractor_trianglediamonds.svg	5	yes	44	1	712
6.6.1	mac	2022-11-07	14:33:01	14:40:59	477059	5d48fcc5643eb80001fb43fa	233303681	1	practice_z	9	advance_on_keypress_ZEE	32	stimuli_target_squarediamonds.svg	stimuli_distractor_trianglediamonds.svg	5	yes	57	0	429
6.6.1	mac	2022-11-07	14:33:01	14:41:04	481581	5d48fcc5643eb80001fb43fa	233303681	1	main_z	11	main_z	1	stimuli_distractor_trianglediamonds.svg	stimuli_distractor_trianglediamonds.svg	34	no	0	1	2000
6.6.1	mac	2022-11-07	14:33:01	14:41:04	481581	5d48fcc5643eb80001fb43fa	233303681	1	main_z	11	advance_on_keypress_ZEE	2	stimuli_distractor_trianglediamonds.svg	stimuli_distractor_trianglediamonds.svg	34	no	57	0	607
6.6.1	mac	2022-11-07	14:33:01	14:41:05	483536	5d48fcc5643eb80001fb43fa	233303681	1	main_z	11	main_z	3	stimuli_target_circletriangles.svg	stimuli_distractor_trianglediamonds.svg	1	yes	44	1	723
6.6.1	mac	2022-11-07	14:33:01	14:41:05	483536	5d48fcc5643eb80001fb43fa	233303681	1	main_z	11	advance_on_keypress_ZEE	4	stimuli_target_circletriangles.svg	stimuli_distractor_trianglediamonds.svg	1	yes	57	0	531
6.6.1	mac	2022-11-07	14:33:01	14:41:07	485340	5d48fcc5643eb80001fb43fa	233303681	1	main_z	11	main_z	5	stimuli_target_trianglesquares.svg	stimuli_distractor_diamondtriangles.svg	22	yes	44	1	644
6.6.1	mac	2022-11-07	14:33:01	14:41:07	485340	5d48fcc5643eb80001fb43fa	233303681	1	main_z	11	advance_on_keypress_ZEE	6	stimuli_target_trianglesquares.svg	stimuli_distractor_diamondtriangles.svg	22	yes	57	0	617
6.6.1	mac	2022-11-07	14:33:01	14:41:09	487249	5d48fcc5643eb80001fb43fa	233303681	1	main_z	11	main_z	7	stimuli_distractor_diamondtriangles.svg	stimuli_target_circlediamonds.svg	14	yes	44	1	670
6.6.1	mac	2022-11-07	14:33:01	14:41:09	487249	5d48fcc5643eb80001fb43fa	233303681	1	main_z	11	advance_on_keypress_ZEE	8	stimuli_distractor_diamondtriangles.svg	stimuli_target_circlediamonds.svg	14	yes	57	0	508
6.6.1	mac	2022-11-07	14:33:01	14:41:11	489036	5d48fcc5643eb80001fb43fa	233303681	1	main_z	11	main_z	9	stimuli_target_squaretriangles.svg	stimuli_distractor_diamondtriangles.svg	7	yes	44	1	656
6.6.1	mac	2022-11-07	14:33:01	14:41:11	489036	5d48fcc5643eb80001fb43fa	233303681	1	main_z	11	advance_on_keypress_ZEE	10	stimuli_target_squaretriangles.svg	stimuli_distractor_diamondtriangles.svg	7	yes	57	0	554
6.6.1	mac	2022-11-07	14:33:01	14:41:13	490895	5d48fcc5643eb80001fb43fa	233303681	1	main_z	11	main_z	11	stimuli_distractor_diamondtriangles.svg	stimuli_target_diamondcircles.svg	31	yes	44	1	666
6.6.1	mac	2022-11-07	14:33:01	14:41:13	490895	5d48fcc5643eb80001fb43fa	233303681	1	main_z	11	advance_on_keypress_ZEE	12	stimuli_distractor_diamondtriangles.svg	stimuli_target_diamondcircles.svg	31	yes	57	0	511
6.6.1	mac	2022-11-07	14:33:01	14:41:15	492760	5d48fcc5643eb80001fb43fa	233303681	1	main_z	11	main_z	13	stimuli_distractor_diamondtriangles.svg	stimuli_target_trianglesquares.svg	30	yes	44	1	731
6.6.1	mac	2022-11-07	14:33:01	14:41:15	492760	5d48fcc5643eb80001fb43fa	233303681	1	main_z	11	advance_on_keypress_ZEE	14	stimuli_distractor_diamondtriangles.svg	stimuli_target_trianglesquares.svg	30	yes	57	0	471
6.6.1	mac	2022-11-07	14:33:01	14:41:17	494596	5d48fcc5643eb80001fb43fa	233303681	1	main_z	11	main_z	15	stimuli_distractor_diamondtriangles.svg	stimuli_target_trianglecircles.svg	29	yes	44	1	733
6.6.1	mac	2022-11-07	14:33:01	14:41:17	494596	5d48fcc5643eb80001fb43fa	233303681	1	main_z	11	advance_on_keypress_ZEE	16	stimuli_distractor_diamondtriangles.svg	stimuli_target_trianglecircles.svg	29	yes	57	0	434
6.6.1	mac	2022-11-07	14:33:01	14:41:18	496424	5d48fcc5643eb80001fb43fa	233303681	1	main_z	11	main_z	17	stimuli_target_squarediamonds.svg	stimuli_distractor_diamondtriangles.svg	8	yes	44	1	761
6.6.1	mac	2022-11-07	14:33:01	14:41:18	496424	5d48fcc5643eb80001fb43fa	233303681	1	main_z	11	advance_on_keypress_ZEE	18	stimuli_target_squarediamonds.svg	stimuli_distractor_diamondtriangles.svg	8	yes	57	0	454
6.6.1	mac	2022-11-07	14:33:01	14:41:20	498274	5d48fcc5643eb80001fb43fa	233303681	1	main_z	11	main_z	19	stimuli_distractor_trianglediamonds.svg	stimuli_target_trianglesquares.svg	26	yes	44	1	761
6.6.1	mac	2022-11-07	14:33:01	14:41:20	498274	5d48fcc5643eb80001fb43fa	233303681	1	main_z	11	advance_on_keypress_ZEE	20	stimuli_distractor_trianglediamonds.svg	stimuli_target_trianglesquares.svg	26	yes	57	0	546
6.6.1	mac	2022-11-07	14:33:01	14:41:23	501447	5d48fcc5643eb80001fb43fa	233303681	1	main_z	11	main_z	21	stimuli_distractor_diamondtriangles.svg	stimuli_distractor_trianglediamonds.svg	38	no	0	1	2000
6.6.1	mac	2022-11-07	14:33:01	14:41:23	501447	5d48fcc5643eb80001fb43fa	233303681	1	main_z	11	advance_on_keypress_ZEE	22	stimuli_distractor_diamondtriangles.svg	stimuli_distractor_trianglediamonds.svg	38	no	57	0	294
6.6.1	mac	2022-11-07	14:33:01	14:41:25	503172	5d48fcc5643eb80001fb43fa	233303681	1	main_z	11	main_z	23	stimuli_target_trianglesquares.svg	stimuli_distractor_trianglediamonds.svg	18	yes	44	1	808
6.6.1	mac	2022-11-07	14:33:01	14:41:25	503172	5d48fcc5643eb80001fb43fa	233303681	1	main_z	11	advance_on_keypress_ZEE	24	stimuli_target_trianglesquares.svg	stimuli_distractor_trianglediamonds.svg	18	yes	57	0	428
6.6.1	mac	2022-11-07	14:33:01	14:41:27	505105	5d48fcc5643eb80001fb43fa	233303681	1	main_z	11	main_z	25	stimuli_target_diamondsquares.svg	stimuli_distractor_trianglediamonds.svg	20	yes	44	1	892
6.6.1	mac	2022-11-07	14:33:01	14:41:27	505105	5d48fcc5643eb80001fb43fa	233303681	1	main_z	11	advance_on_keypress_ZEE	26	stimuli_target_diamondsquares.svg	stimuli_distractor_trianglediamonds.svg	20	yes	57	0	433
6.6.1	mac	2022-11-07	14:33:01	14:41:29	506978	5d48fcc5643eb80001fb43fa	233303681	1	main_z	11	main_z	27	stimuli_target_diamondcircles.svg	stimuli_distractor_trianglediamonds.svg	19	yes	44	1	815
6.6.1	mac	2022-11-07	14:33:01	14:41:29	506978	5d48fcc5643eb80001fb43fa	233303681	1	main_z	11	advance_on_keypress_ZEE	28	stimuli_target_diamondcircles.svg	stimuli_distractor_trianglediamonds.svg	19	yes	57	0	424
6.6.1	mac	2022-11-07	14:33:01	14:41:31	508817	5d48fcc5643eb80001fb43fa	233303681	1	main_z	11	main_z	29	stimuli_target_squarediamonds.svg	stimuli_distractor_trianglediamonds.svg	4	yes	44	1	788
6.6.1	mac	2022-11-07	14:33:01	14:41:31	508817	5d48fcc5643eb80001fb43fa	233303681	1	main_z	11	advance_on_keypress_ZEE	30	stimuli_target_squarediamonds.svg	stimuli_distractor_trianglediamonds.svg	4	yes	57	0	586
6.6.1	mac	2022-11-07	14:33:01	14:41:33	510868	5d48fcc5643eb80001fb43fa	233303681	1	main_z	11	main_z	31	stimuli_target_circletriangles.svg	stimuli_distractor_diamondtriangles.svg	5	yes	44	1	839
6.6.1	mac	2022-11-07	14:33:01	14:41:33	510868	5d48fcc5643eb80001fb43fa	233303681	1	main_z	11	advance_on_keypress_ZEE	32	stimuli_target_circletriangles.svg	stimuli_distractor_diamondtriangles.svg	5	yes	57	0	454
6.6.1	mac	2022-11-07	14:33:01	14:41:35	512789	5d48fcc5643eb80001fb43fa	233303681	1	main_z	11	main_z	33	stimuli_target_squaretriangles.svg	stimuli_distractor_trianglediamonds.svg	3	yes	44	1	826
6.6.1	mac	2022-11-07	14:33:01	14:41:35	512789	5d48fcc5643eb80001fb43fa	233303681	1	main_z	11	advance_on_keypress_ZEE	34	stimuli_target_squaretriangles.svg	stimuli_distractor_trianglediamonds.svg	3	yes	57	0	439
6.6.1	mac	2022-11-07	14:33:01	14:41:38	515864	5d48fcc5643eb80001fb43fa	233303681	1	main_z	11	main_z	35	stimuli_distractor_trianglediamonds.svg	stimuli_distractor_diamondtriangles.svg	36	no	0	1	2000
6.6.1	mac	2022-11-07	14:33:01	14:41:38	515864	5d48fcc5643eb80001fb43fa	233303681	1	main_z	11	advance_on_keypress_ZEE	36	stimuli_distractor_trianglediamonds.svg	stimuli_distractor_diamondtriangles.svg	36	no	57	0	672
6.6.1	mac	2022-11-07	14:33:01	14:41:40	518186	5d48fcc5643eb80001fb43fa	233303681	1	main_z	11	main_z	37	stimuli_distractor_diamondtriangles.svg	stimuli_target_squaretriangles.svg	15	yes	44	1	1023
6.6.1	mac	2022-11-07	14:33:01	14:41:40	518186	5d48fcc5643eb80001fb43fa	233303681	1	main_z	11	advance_on_keypress_ZEE	38	stimuli_distractor_diamondtriangles.svg	stimuli_target_squaretriangles.svg	15	yes	57	0	493
6.6.1	mac	2022-11-07	14:33:01	14:41:42	520127	5d48fcc5643eb80001fb43fa	233303681	1	main_z	11	main_z	39	stimuli_target_trianglecircles.svg	stimuli_distractor_diamondtriangles.svg	21	yes	44	1	815
6.6.1	mac	2022-11-07	14:33:01	14:41:42	520127	5d48fcc5643eb80001fb43fa	233303681	1	main_z	11	advance_on_keypress_ZEE	40	stimuli_target_trianglecircles.svg	stimuli_distractor_diamondtriangles.svg	21	yes	57	0	459
6.6.1	mac	2022-11-07	14:33:01	14:41:44	522105	5d48fcc5643eb80001fb43fa	233303681	1	main_z	11	main_z	41	stimuli_target_circlediamonds.svg	stimuli_distractor_diamondtriangles.svg	6	yes	44	1	892
6.6.1	mac	2022-11-07	14:33:01	14:41:44	522105	5d48fcc5643eb80001fb43fa	233303681	1	main_z	11	advance_on_keypress_ZEE	42	stimuli_target_circlediamonds.svg	stimuli_distractor_diamondtriangles.svg	6	yes	57	0	394
6.6.1	mac	2022-11-07	14:33:01	14:41:46	523887	5d48fcc5643eb80001fb43fa	233303681	1	main_z	11	main_z	43	stimuli_distractor_trianglediamonds.svg	stimuli_target_trianglecircles.svg	25	yes	44	1	758
6.6.1	mac	2022-11-07	14:33:01	14:41:46	523887	5d48fcc5643eb80001fb43fa	233303681	1	main_z	11	advance_on_keypress_ZEE	44	stimuli_distractor_trianglediamonds.svg	stimuli_target_trianglecircles.svg	25	yes	57	0	342
6.6.1	mac	2022-11-07	14:33:01	14:41:48	525754	5d48fcc5643eb80001fb43fa	233303681	1	main_z	11	main_z	45	stimuli_distractor_trianglediamonds.svg	stimuli_target_diamondcircles.svg	27	yes	44	1	891
6.6.1	mac	2022-11-07	14:33:01	14:41:48	525754	5d48fcc5643eb80001fb43fa	233303681	1	main_z	11	advance_on_keypress_ZEE	46	stimuli_distractor_trianglediamonds.svg	stimuli_target_diamondcircles.svg	27	yes	57	0	393
6.6.1	mac	2022-11-07	14:33:01	14:41:51	528781	5d48fcc5643eb80001fb43fa	233303681	1	main_z	11	main_z	47	stimuli_distractor_diamondtriangles.svg	stimuli_distractor_trianglediamonds.svg	37	no	0	1	2000
6.6.1	mac	2022-11-07	14:33:01	14:41:51	528781	5d48fcc5643eb80001fb43fa	233303681	1	main_z	11	advance_on_keypress_ZEE	48	stimuli_distractor_diamondtriangles.svg	stimuli_distractor_trianglediamonds.svg	37	no	57	0	411
6.6.1	mac	2022-11-07	14:33:01	14:41:53	530617	5d48fcc5643eb80001fb43fa	233303681	1	main_z	11	main_z	49	stimuli_distractor_trianglediamonds.svg	stimuli_target_circlediamonds.svg	10	yes	44	1	804
6.6.1	mac	2022-11-07	14:33:01	14:41:53	530617	5d48fcc5643eb80001fb43fa	233303681	1	main_z	11	advance_on_keypress_ZEE	50	stimuli_distractor_trianglediamonds.svg	stimuli_target_circlediamonds.svg	10	yes	57	0	596
6.6.1	mac	2022-11-07	14:33:01	14:41:55	532698	5d48fcc5643eb80001fb43fa	233303681	1	main_z	11	main_z	51	stimuli_distractor_trianglediamonds.svg	stimuli_target_squaretriangles.svg	11	yes	44	1	853
6.6.1	mac	2022-11-07	14:33:01	14:41:55	532698	5d48fcc5643eb80001fb43fa	233303681	1	main_z	11	advance_on_keypress_ZEE	52	stimuli_distractor_trianglediamonds.svg	stimuli_target_squaretriangles.svg	11	yes	57	0	481
6.6.1	mac	2022-11-07	14:33:01	14:41:56	534552	5d48fcc5643eb80001fb43fa	233303681	1	main_z	11	main_z	53	stimuli_distractor_diamondtriangles.svg	stimuli_target_circletriangles.svg	13	yes	44	1	739
6.6.1	mac	2022-11-07	14:33:01	14:41:56	534552	5d48fcc5643eb80001fb43fa	233303681	1	main_z	11	advance_on_keypress_ZEE	54	stimuli_distractor_diamondtriangles.svg	stimuli_target_circletriangles.svg	13	yes	57	0	514
6.6.1	mac	2022-11-07	14:33:01	14:42:00	537698	5d48fcc5643eb80001fb43fa	233303681	1	main_z	11	main_z	55	stimuli_distractor_diamondtriangles.svg	stimuli_distractor_diamondtriangles.svg	39	no	0	1	2000
6.6.1	mac	2022-11-07	14:33:01	14:42:00	537698	5d48fcc5643eb80001fb43fa	233303681	1	main_z	11	advance_on_keypress_ZEE	56	stimuli_distractor_diamondtriangles.svg	stimuli_distractor_diamondtriangles.svg	39	no	57	0	3691
6.6.1	mac	2022-11-07	14:33:01	14:42:06	544015	5d48fcc5643eb80001fb43fa	233303681	1	main_z	11	main_z	57	stimuli_distractor_trianglediamonds.svg	stimuli_distractor_diamondtriangles.svg	35	no	0	1	2000
6.6.1	mac	2022-11-07	14:33:01	14:42:06	544015	5d48fcc5643eb80001fb43fa	233303681	1	main_z	11	advance_on_keypress_ZEE	58	stimuli_distractor_trianglediamonds.svg	stimuli_distractor_diamondtriangles.svg	35	no	57	0	292
6.6.1	mac	2022-11-07	14:33:01	14:42:09	546931	5d48fcc5643eb80001fb43fa	233303681	1	main_z	11	main_z	59	stimuli_distractor_trianglediamonds.svg	stimuli_target_squarediamonds.svg	12	yes	0	0	2000
6.6.1	mac	2022-11-07	14:33:01	14:42:09	546931	5d48fcc5643eb80001fb43fa	233303681	1	main_z	11	advance_on_keypress_ZEE	60	stimuli_distractor_trianglediamonds.svg	stimuli_target_squarediamonds.svg	12	yes	57	0	387
6.6.1	mac	2022-11-07	14:33:01	14:42:12	549948	5d48fcc5643eb80001fb43fa	233303681	1	main_z	11	main_z	61	stimuli_distractor_diamondtriangles.svg	stimuli_distractor_diamondtriangles.svg	40	no	0	1	2000
6.6.1	mac	2022-11-07	14:33:01	14:42:12	549948	5d48fcc5643eb80001fb43fa	233303681	1	main_z	11	advance_on_keypress_ZEE	62	stimuli_distractor_diamondtriangles.svg	stimuli_distractor_diamondtriangles.svg	40	no	57	0	438
6.6.1	mac	2022-11-07	14:33:01	14:42:15	552613	5d48fcc5643eb80001fb43fa	233303681	1	main_z	11	main_z	63	stimuli_distractor_diamondtriangles.svg	stimuli_target_diamondsquares.svg	32	yes	44	1	1599
6.6.1	mac	2022-11-07	14:33:01	14:42:15	552613	5d48fcc5643eb80001fb43fa	233303681	1	main_z	11	advance_on_keypress_ZEE	64	stimuli_distractor_diamondtriangles.svg	stimuli_target_diamondsquares.svg	32	yes	57	0	427
6.6.1	mac	2022-11-07	14:33:01	14:42:17	554784	5d48fcc5643eb80001fb43fa	233303681	1	main_z	11	main_z	65	stimuli_target_diamondsquares.svg	stimuli_distractor_diamondtriangles.svg	24	yes	44	1	1121
6.6.1	mac	2022-11-07	14:33:01	14:42:17	554784	5d48fcc5643eb80001fb43fa	233303681	1	main_z	11	advance_on_keypress_ZEE	66	stimuli_target_diamondsquares.svg	stimuli_distractor_diamondtriangles.svg	24	yes	57	0	517
6.6.1	mac	2022-11-07	14:33:01	14:42:20	557931	5d48fcc5643eb80001fb43fa	233303681	1	main_z	11	main_z	67	stimuli_distractor_trianglediamonds.svg	stimuli_distractor_trianglediamonds.svg	33	no	0	1	2000
6.6.1	mac	2022-11-07	14:33:01	14:42:20	557931	5d48fcc5643eb80001fb43fa	233303681	1	main_z	11	advance_on_keypress_ZEE	68	stimuli_distractor_trianglediamonds.svg	stimuli_distractor_trianglediamonds.svg	33	no	57	0	254
6.6.1	mac	2022-11-07	14:33:01	14:42:21	559544	5d48fcc5643eb80001fb43fa	233303681	1	main_z	11	main_z	69	stimuli_target_trianglecircles.svg	stimuli_distractor_trianglediamonds.svg	17	yes	44	1	731
6.6.1	mac	2022-11-07	14:33:01	14:42:21	559544	5d48fcc5643eb80001fb43fa	233303681	1	main_z	11	advance_on_keypress_ZEE	70	stimuli_target_trianglecircles.svg	stimuli_distractor_trianglediamonds.svg	17	yes	57	0	424
6.6.1	mac	2022-11-07	14:33:01	14:42:23	561357	5d48fcc5643eb80001fb43fa	233303681	1	main_z	11	main_z	71	stimuli_distractor_trianglediamonds.svg	stimuli_target_circletriangles.svg	9	yes	44	1	762
6.6.1	mac	2022-11-07	14:33:01	14:42:23	561357	5d48fcc5643eb80001fb43fa	233303681	1	main_z	11	advance_on_keypress_ZEE	72	stimuli_distractor_trianglediamonds.svg	stimuli_target_circletriangles.svg	9	yes	57	0	417
6.6.1	mac	2022-11-07	14:33:01	14:42:25	563250	5d48fcc5643eb80001fb43fa	233303681	1	main_z	11	main_z	73	stimuli_distractor_diamondtriangles.svg	stimuli_target_squarediamonds.svg	16	yes	44	1	855
6.6.1	mac	2022-11-07	14:33:01	14:42:25	563250	5d48fcc5643eb80001fb43fa	233303681	1	main_z	11	advance_on_keypress_ZEE	74	stimuli_distractor_diamondtriangles.svg	stimuli_target_squarediamonds.svg	16	yes	57	0	468
6.6.1	mac	2022-11-07	14:33:01	14:42:27	565317	5d48fcc5643eb80001fb43fa	233303681	1	main_z	11	main_z	75	stimuli_distractor_trianglediamonds.svg	stimuli_target_diamondsquares.svg	28	yes	44	1	971
6.6.1	mac	2022-11-07	14:33:01	14:42:27	565317	5d48fcc5643eb80001fb43fa	233303681	1	main_z	11	advance_on_keypress_ZEE	76	stimuli_distractor_trianglediamonds.svg	stimuli_target_diamondsquares.svg	28	yes	57	0	520
6.6.1	mac	2022-11-07	14:33:01	14:42:29	567304	5d48fcc5643eb80001fb43fa	233303681	1	main_z	11	main_z	77	stimuli_target_diamondcircles.svg	stimuli_distractor_diamondtriangles.svg	23	yes	44	1	842
6.6.1	mac	2022-11-07	14:33:01	14:42:29	567304	5d48fcc5643eb80001fb43fa	233303681	1	main_z	11	advance_on_keypress_ZEE	78	stimuli_target_diamondcircles.svg	stimuli_distractor_diamondtriangles.svg	23	yes	57	0	415
6.6.1	mac	2022-11-07	14:33:01	14:42:31	569099	5d48fcc5643eb80001fb43fa	233303681	1	main_z	11	main_z	79	stimuli_target_circlediamonds.svg	stimuli_distractor_trianglediamonds.svg	2	yes	44	1	753
6.6.1	mac	2022-11-07	14:33:01	14:42:31	569099	5d48fcc5643eb80001fb43fa	233303681	1	main_z	11	advance_on_keypress_ZEE	80	stimuli_target_circlediamonds.svg	stimuli_distractor_trianglediamonds.svg	2	yes	57	0	548
6.6.1	mac	2022-11-07	14:33:01	14:42:33	571074	5d48fcc5643eb80001fb43fa	233303681	1	main_z	11	main_z	81	stimuli_target_circlediamonds.svg	stimuli_distractor_trianglediamonds.svg	2	yes	44	1	794
6.6.1	mac	2022-11-07	14:33:01	14:42:33	571074	5d48fcc5643eb80001fb43fa	233303681	1	main_z	11	advance_on_keypress_ZEE	82	stimuli_target_circlediamonds.svg	stimuli_distractor_trianglediamonds.svg	2	yes	57	0	529
6.6.1	mac	2022-11-07	14:33:01	14:42:35	572979	5d48fcc5643eb80001fb43fa	233303681	1	main_z	11	main_z	83	stimuli_distractor_trianglediamonds.svg	stimuli_target_circletriangles.svg	9	yes	44	1	751
6.6.1	mac	2022-11-07	14:33:01	14:42:35	572979	5d48fcc5643eb80001fb43fa	233303681	1	main_z	11	advance_on_keypress_ZEE	84	stimuli_distractor_trianglediamonds.svg	stimuli_target_circletriangles.svg	9	yes	57	0	382
6.6.1	mac	2022-11-07	14:33:01	14:42:37	574856	5d48fcc5643eb80001fb43fa	233303681	1	main_z	11	main_z	85	stimuli_target_diamondsquares.svg	stimuli_distractor_diamondtriangles.svg	24	yes	44	1	859
6.6.1	mac	2022-11-07	14:33:01	14:42:37	574856	5d48fcc5643eb80001fb43fa	233303681	1	main_z	11	advance_on_keypress_ZEE	86	stimuli_target_diamondsquares.svg	stimuli_distractor_diamondtriangles.svg	24	yes	57	0	418
6.6.1	mac	2022-11-07	14:33:01	14:42:39	576729	5d48fcc5643eb80001fb43fa	233303681	1	main_z	11	main_z	87	stimuli_target_trianglecircles.svg	stimuli_distractor_trianglediamonds.svg	17	yes	44	1	833
6.6.1	mac	2022-11-07	14:33:01	14:42:39	576729	5d48fcc5643eb80001fb43fa	233303681	1	main_z	11	advance_on_keypress_ZEE	88	stimuli_target_trianglecircles.svg	stimuli_distractor_trianglediamonds.svg	17	yes	57	0	396
6.6.1	mac	2022-11-07	14:33:01	14:42:41	578669	5d48fcc5643eb80001fb43fa	233303681	1	main_z	11	main_z	89	stimuli_target_diamondcircles.svg	stimuli_distractor_trianglediamonds.svg	19	yes	44	1	923
6.6.1	mac	2022-11-07	14:33:01	14:42:41	578669	5d48fcc5643eb80001fb43fa	233303681	1	main_z	11	advance_on_keypress_ZEE	90	stimuli_target_diamondcircles.svg	stimuli_distractor_trianglediamonds.svg	19	yes	57	0	418
6.6.1	mac	2022-11-07	14:33:01	14:42:42	580522	5d48fcc5643eb80001fb43fa	233303681	1	main_z	11	main_z	91	stimuli_target_squarediamonds.svg	stimuli_distractor_trianglediamonds.svg	4	yes	44	1	809
6.6.1	mac	2022-11-07	14:33:01	14:42:42	580522	5d48fcc5643eb80001fb43fa	233303681	1	main_z	11	advance_on_keypress_ZEE	92	stimuli_target_squarediamonds.svg	stimuli_distractor_trianglediamonds.svg	4	yes	57	0	333
6.6.1	mac	2022-11-07	14:33:01	14:42:44	582234	5d48fcc5643eb80001fb43fa	233303681	1	main_z	11	main_z	93	stimuli_distractor_diamondtriangles.svg	stimuli_target_diamondcircles.svg	31	yes	44	1	754
6.6.1	mac	2022-11-07	14:33:01	14:42:44	582234	5d48fcc5643eb80001fb43fa	233303681	1	main_z	11	advance_on_keypress_ZEE	94	stimuli_distractor_diamondtriangles.svg	stimuli_target_diamondcircles.svg	31	yes	57	0	369
6.6.1	mac	2022-11-07	14:33:01	14:42:46	584078	5d48fcc5643eb80001fb43fa	233303681	1	main_z	11	main_z	95	stimuli_distractor_diamondtriangles.svg	stimuli_target_trianglecircles.svg	29	yes	44	1	849
6.6.1	mac	2022-11-07	14:33:01	14:42:46	584078	5d48fcc5643eb80001fb43fa	233303681	1	main_z	11	advance_on_keypress_ZEE	96	stimuli_distractor_diamondtriangles.svg	stimuli_target_trianglecircles.svg	29	yes	57	0	352
6.6.1	mac	2022-11-07	14:33:01	14:42:48	585764	5d48fcc5643eb80001fb43fa	233303681	1	main_z	11	main_z	97	stimuli_distractor_diamondtriangles.svg	stimuli_target_circletriangles.svg	13	yes	44	1	702
6.6.1	mac	2022-11-07	14:33:01	14:42:48	585764	5d48fcc5643eb80001fb43fa	233303681	1	main_z	11	advance_on_keypress_ZEE	98	stimuli_distractor_diamondtriangles.svg	stimuli_target_circletriangles.svg	13	yes	57	0	373
6.6.1	mac	2022-11-07	14:33:01	14:42:51	588765	5d48fcc5643eb80001fb43fa	233303681	1	main_z	11	main_z	99	stimuli_distractor_diamondtriangles.svg	stimuli_distractor_diamondtriangles.svg	39	no	0	1	2000
6.6.1	mac	2022-11-07	14:33:01	14:42:51	588765	5d48fcc5643eb80001fb43fa	233303681	1	main_z	11	advance_on_keypress_ZEE	100	stimuli_distractor_diamondtriangles.svg	stimuli_distractor_diamondtriangles.svg	39	no	57	0	655
6.6.1	mac	2022-11-07	14:33:01	14:42:53	590739	5d48fcc5643eb80001fb43fa	233303681	1	main_z	11	main_z	101	stimuli_distractor_trianglediamonds.svg	stimuli_target_circlediamonds.svg	10	yes	44	1	693
6.6.1	mac	2022-11-07	14:33:01	14:42:53	590739	5d48fcc5643eb80001fb43fa	233303681	1	main_z	11	advance_on_keypress_ZEE	102	stimuli_distractor_trianglediamonds.svg	stimuli_target_circlediamonds.svg	10	yes	57	0	362
6.6.1	mac	2022-11-07	14:33:01	14:42:55	592590	5d48fcc5643eb80001fb43fa	233303681	1	main_z	11	main_z	103	stimuli_target_diamondcircles.svg	stimuli_distractor_diamondtriangles.svg	23	yes	44	1	861
6.6.1	mac	2022-11-07	14:33:01	14:42:55	592590	5d48fcc5643eb80001fb43fa	233303681	1	main_z	11	advance_on_keypress_ZEE	104	stimuli_target_diamondcircles.svg	stimuli_distractor_diamondtriangles.svg	23	yes	57	0	427
6.6.1	mac	2022-11-07	14:33:01	14:42:56	594405	5d48fcc5643eb80001fb43fa	233303681	1	main_z	11	main_z	105	stimuli_target_circletriangles.svg	stimuli_distractor_diamondtriangles.svg	5	yes	44	1	759
6.6.1	mac	2022-11-07	14:33:01	14:42:56	594405	5d48fcc5643eb80001fb43fa	233303681	1	main_z	11	advance_on_keypress_ZEE	106	stimuli_target_circletriangles.svg	stimuli_distractor_diamondtriangles.svg	5	yes	57	0	386
6.6.1	mac	2022-11-07	14:33:01	14:42:58	596166	5d48fcc5643eb80001fb43fa	233303681	1	main_z	11	main_z	107	stimuli_distractor_diamondtriangles.svg	stimuli_target_squarediamonds.svg	16	yes	44	1	736
6.6.1	mac	2022-11-07	14:33:01	14:42:58	596166	5d48fcc5643eb80001fb43fa	233303681	1	main_z	11	advance_on_keypress_ZEE	108	stimuli_distractor_diamondtriangles.svg	stimuli_target_squarediamonds.svg	16	yes	57	0	391
6.6.1	mac	2022-11-07	14:33:01	14:43:00	598045	5d48fcc5643eb80001fb43fa	233303681	1	main_z	11	main_z	109	stimuli_distractor_diamondtriangles.svg	stimuli_target_diamondsquares.svg	32	yes	44	1	865
6.6.1	mac	2022-11-07	14:33:01	14:43:00	598045	5d48fcc5643eb80001fb43fa	233303681	1	main_z	11	advance_on_keypress_ZEE	110	stimuli_distractor_diamondtriangles.svg	stimuli_target_diamondsquares.svg	32	yes	57	0	409
6.6.1	mac	2022-11-07	14:33:01	14:43:03	601081	5d48fcc5643eb80001fb43fa	233303681	1	main_z	11	main_z	111	stimuli_distractor_trianglediamonds.svg	stimuli_distractor_diamondtriangles.svg	36	no	0	1	2000
6.6.1	mac	2022-11-07	14:33:01	14:43:03	601081	5d48fcc5643eb80001fb43fa	233303681	1	main_z	11	advance_on_keypress_ZEE	112	stimuli_distractor_trianglediamonds.svg	stimuli_distractor_diamondtriangles.svg	36	no	57	0	503
6.6.1	mac	2022-11-07	14:33:01	14:43:05	603114	5d48fcc5643eb80001fb43fa	233303681	1	main_z	11	main_z	113	stimuli_distractor_trianglediamonds.svg	stimuli_target_diamondsquares.svg	28	yes	44	1	901
6.6.1	mac	2022-11-07	14:33:01	14:43:05	603114	5d48fcc5643eb80001fb43fa	233303681	1	main_z	11	advance_on_keypress_ZEE	114	stimuli_distractor_trianglediamonds.svg	stimuli_target_diamondsquares.svg	28	yes	57	0	376
6.6.1	mac	2022-11-07	14:33:01	14:43:07	605069	5d48fcc5643eb80001fb43fa	233303681	1	main_z	11	main_z	115	stimuli_distractor_trianglediamonds.svg	stimuli_target_trianglesquares.svg	26	yes	44	1	956
6.6.1	mac	2022-11-07	14:33:01	14:43:07	605069	5d48fcc5643eb80001fb43fa	233303681	1	main_z	11	advance_on_keypress_ZEE	116	stimuli_distractor_trianglediamonds.svg	stimuli_target_trianglesquares.svg	26	yes	57	0	501
6.6.1	mac	2022-11-07	14:33:01	14:43:10	608198	5d48fcc5643eb80001fb43fa	233303681	1	main_z	11	main_z	117	stimuli_distractor_diamondtriangles.svg	stimuli_distractor_diamondtriangles.svg	40	no	0	1	2000
6.6.1	mac	2022-11-07	14:33:01	14:43:10	608198	5d48fcc5643eb80001fb43fa	233303681	1	main_z	11	advance_on_keypress_ZEE	118	stimuli_distractor_diamondtriangles.svg	stimuli_distractor_diamondtriangles.svg	40	no	57	0	643
6.6.1	mac	2022-11-07	14:33:01	14:43:13	611465	5d48fcc5643eb80001fb43fa	233303681	1	main_z	11	main_z	119	stimuli_distractor_trianglediamonds.svg	stimuli_target_squarediamonds.svg	12	yes	0	0	2000
6.6.1	mac	2022-11-07	14:33:01	14:43:13	611465	5d48fcc5643eb80001fb43fa	233303681	1	main_z	11	advance_on_keypress_ZEE	120	stimuli_distractor_trianglediamonds.svg	stimuli_target_squarediamonds.svg	12	yes	57	0	289
6.6.1	mac	2022-11-07	14:33:01	14:43:15	613013	5d48fcc5643eb80001fb43fa	233303681	1	main_z	11	main_z	121	stimuli_target_trianglesquares.svg	stimuli_distractor_trianglediamonds.svg	18	yes	44	1	633
6.6.1	mac	2022-11-07	14:33:01	14:43:15	613013	5d48fcc5643eb80001fb43fa	233303681	1	main_z	11	advance_on_keypress_ZEE	122	stimuli_target_trianglesquares.svg	stimuli_distractor_trianglediamonds.svg	18	yes	57	0	359
6.6.1	mac	2022-11-07	14:33:01	14:43:18	615998	5d48fcc5643eb80001fb43fa	233303681	1	main_z	11	main_z	123	stimuli_distractor_trianglediamonds.svg	stimuli_distractor_trianglediamonds.svg	33	no	0	1	2000
6.6.1	mac	2022-11-07	14:33:01	14:43:18	615998	5d48fcc5643eb80001fb43fa	233303681	1	main_z	11	advance_on_keypress_ZEE	124	stimuli_distractor_trianglediamonds.svg	stimuli_distractor_trianglediamonds.svg	33	no	57	0	392
6.6.1	mac	2022-11-07	14:33:01	14:43:20	617805	5d48fcc5643eb80001fb43fa	233303681	1	main_z	11	main_z	125	stimuli_target_circlediamonds.svg	stimuli_distractor_diamondtriangles.svg	6	yes	44	1	792
6.6.1	mac	2022-11-07	14:33:01	14:43:20	617805	5d48fcc5643eb80001fb43fa	233303681	1	main_z	11	advance_on_keypress_ZEE	126	stimuli_target_circlediamonds.svg	stimuli_distractor_diamondtriangles.svg	6	yes	57	0	396
6.6.1	mac	2022-11-07	14:33:01	14:43:23	620831	5d48fcc5643eb80001fb43fa	233303681	1	main_z	11	main_z	127	stimuli_distractor_trianglediamonds.svg	stimuli_distractor_trianglediamonds.svg	34	no	0	1	2000
6.6.1	mac	2022-11-07	14:33:01	14:43:23	620831	5d48fcc5643eb80001fb43fa	233303681	1	main_z	11	advance_on_keypress_ZEE	128	stimuli_distractor_trianglediamonds.svg	stimuli_distractor_trianglediamonds.svg	34	no	57	0	309
6.6.1	mac	2022-11-07	14:33:01	14:43:25	622588	5d48fcc5643eb80001fb43fa	233303681	1	main_z	11	main_z	129	stimuli_target_squarediamonds.svg	stimuli_distractor_diamondtriangles.svg	8	yes	44	1	825
6.6.1	mac	2022-11-07	14:33:01	14:43:25	622588	5d48fcc5643eb80001fb43fa	233303681	1	main_z	11	advance_on_keypress_ZEE	130	stimuli_target_squarediamonds.svg	stimuli_distractor_diamondtriangles.svg	8	yes	57	0	409
6.6.1	mac	2022-11-07	14:33:01	14:43:26	624382	5d48fcc5643eb80001fb43fa	233303681	1	main_z	11	main_z	131	stimuli_target_diamondsquares.svg	stimuli_distractor_trianglediamonds.svg	20	yes	44	1	768
6.6.1	mac	2022-11-07	14:33:01	14:43:26	624382	5d48fcc5643eb80001fb43fa	233303681	1	main_z	11	advance_on_keypress_ZEE	132	stimuli_target_diamondsquares.svg	stimuli_distractor_trianglediamonds.svg	20	yes	57	0	389
6.6.1	mac	2022-11-07	14:33:01	14:43:28	626109	5d48fcc5643eb80001fb43fa	233303681	1	main_z	11	main_z	133	stimuli_target_trianglecircles.svg	stimuli_distractor_diamondtriangles.svg	21	yes	44	1	713
6.6.1	mac	2022-11-07	14:33:01	14:43:28	626109	5d48fcc5643eb80001fb43fa	233303681	1	main_z	11	advance_on_keypress_ZEE	134	stimuli_target_trianglecircles.svg	stimuli_distractor_diamondtriangles.svg	21	yes	57	0	496
6.6.1	mac	2022-11-07	14:33:01	14:43:31	629230	5d48fcc5643eb80001fb43fa	233303681	1	main_z	11	main_z	135	stimuli_distractor_trianglediamonds.svg	stimuli_target_diamondcircles.svg	27	yes	0	0	2000
6.6.1	mac	2022-11-07	14:33:01	14:43:31	629230	5d48fcc5643eb80001fb43fa	233303681	1	main_z	11	advance_on_keypress_ZEE	136	stimuli_distractor_trianglediamonds.svg	stimuli_target_diamondcircles.svg	27	yes	57	0	597
6.6.1	mac	2022-11-07	14:33:01	14:43:34	632464	5d48fcc5643eb80001fb43fa	233303681	1	main_z	11	main_z	137	stimuli_distractor_diamondtriangles.svg	stimuli_distractor_trianglediamonds.svg	38	no	0	1	2000
6.6.1	mac	2022-11-07	14:33:01	14:43:34	632464	5d48fcc5643eb80001fb43fa	233303681	1	main_z	11	advance_on_keypress_ZEE	138	stimuli_distractor_diamondtriangles.svg	stimuli_distractor_trianglediamonds.svg	38	no	57	0	563
6.6.1	mac	2022-11-07	14:33:01	14:43:36	634567	5d48fcc5643eb80001fb43fa	233303681	1	main_z	11	main_z	139	stimuli_distractor_diamondtriangles.svg	stimuli_target_circlediamonds.svg	14	yes	44	1	922
6.6.1	mac	2022-11-07	14:33:01	14:43:36	634567	5d48fcc5643eb80001fb43fa	233303681	1	main_z	11	advance_on_keypress_ZEE	140	stimuli_distractor_diamondtriangles.svg	stimuli_target_circlediamonds.svg	14	yes	57	0	527
6.6.1	mac	2022-11-07	14:33:01	14:43:40	637715	5d48fcc5643eb80001fb43fa	233303681	1	main_z	11	main_z	141	stimuli_distractor_trianglediamonds.svg	stimuli_distractor_diamondtriangles.svg	35	no	0	1	2000
6.6.1	mac	2022-11-07	14:33:01	14:43:40	637715	5d48fcc5643eb80001fb43fa	233303681	1	main_z	11	advance_on_keypress_ZEE	142	stimuli_distractor_trianglediamonds.svg	stimuli_distractor_diamondtriangles.svg	35	no	57	0	315
6.6.1	mac	2022-11-07	14:33:01	14:43:42	639638	5d48fcc5643eb80001fb43fa	233303681	1	main_z	11	main_z	143	stimuli_distractor_trianglediamonds.svg	stimuli_target_trianglecircles.svg	25	yes	44	1	975
6.6.1	mac	2022-11-07	14:33:01	14:43:42	639638	5d48fcc5643eb80001fb43fa	233303681	1	main_z	11	advance_on_keypress_ZEE	144	stimuli_distractor_trianglediamonds.svg	stimuli_target_trianglecircles.svg	25	yes	57	0	404
6.6.1	mac	2022-11-07	14:33:01	14:43:45	642682	5d48fcc5643eb80001fb43fa	233303681	1	main_z	11	main_z	145	stimuli_distractor_trianglediamonds.svg	stimuli_target_squaretriangles.svg	11	yes	0	0	2000
6.6.1	mac	2022-11-07	14:33:01	14:43:45	642682	5d48fcc5643eb80001fb43fa	233303681	1	main_z	11	advance_on_keypress_ZEE	146	stimuli_distractor_trianglediamonds.svg	stimuli_target_squaretriangles.svg	11	yes	57	0	679
6.6.1	mac	2022-11-07	14:33:01	14:43:47	644766	5d48fcc5643eb80001fb43fa	233303681	1	main_z	11	main_z	147	stimuli_target_circletriangles.svg	stimuli_distractor_trianglediamonds.svg	1	yes	44	1	786
6.6.1	mac	2022-11-07	14:33:01	14:43:47	644766	5d48fcc5643eb80001fb43fa	233303681	1	main_z	11	advance_on_keypress_ZEE	148	stimuli_target_circletriangles.svg	stimuli_distractor_trianglediamonds.svg	1	yes	57	0	360
6.6.1	mac	2022-11-07	14:33:01	14:43:49	646807	5d48fcc5643eb80001fb43fa	233303681	1	main_z	11	main_z	149	stimuli_target_squaretriangles.svg	stimuli_distractor_diamondtriangles.svg	7	yes	44	1	1061
6.6.1	mac	2022-11-07	14:33:01	14:43:49	646807	5d48fcc5643eb80001fb43fa	233303681	1	main_z	11	advance_on_keypress_ZEE	150	stimuli_target_squaretriangles.svg	stimuli_distractor_diamondtriangles.svg	7	yes	57	0	490
6.6.1	mac	2022-11-07	14:33:01	14:43:52	649914	5d48fcc5643eb80001fb43fa	233303681	1	main_z	11	main_z	151	stimuli_distractor_diamondtriangles.svg	stimuli_target_squaretriangles.svg	15	yes	0	0	2000
6.6.1	mac	2022-11-07	14:33:01	14:43:52	649914	5d48fcc5643eb80001fb43fa	233303681	1	main_z	11	advance_on_keypress_ZEE	152	stimuli_distractor_diamondtriangles.svg	stimuli_target_squaretriangles.svg	15	yes	57	0	642
6.6.1	mac	2022-11-07	14:33:01	14:43:54	651905	5d48fcc5643eb80001fb43fa	233303681	1	main_z	11	main_z	153	stimuli_target_squaretriangles.svg	stimuli_distractor_trianglediamonds.svg	3	yes	44	1	726
6.6.1	mac	2022-11-07	14:33:01	14:43:54	651905	5d48fcc5643eb80001fb43fa	233303681	1	main_z	11	advance_on_keypress_ZEE	154	stimuli_target_squaretriangles.svg	stimuli_distractor_trianglediamonds.svg	3	yes	57	0	332
6.6.1	mac	2022-11-07	14:33:01	14:43:56	653587	5d48fcc5643eb80001fb43fa	233303681	1	main_z	11	main_z	155	stimuli_distractor_diamondtriangles.svg	stimuli_target_trianglesquares.svg	30	yes	44	1	723
6.6.1	mac	2022-11-07	14:33:01	14:43:56	653587	5d48fcc5643eb80001fb43fa	233303681	1	main_z	11	advance_on_keypress_ZEE	156	stimuli_distractor_diamondtriangles.svg	stimuli_target_trianglesquares.svg	30	yes	57	0	377
6.6.1	mac	2022-11-07	14:33:01	14:43:57	655363	5d48fcc5643eb80001fb43fa	233303681	1	main_z	11	main_z	157	stimuli_target_trianglesquares.svg	stimuli_distractor_diamondtriangles.svg	22	yes	44	1	783
6.6.1	mac	2022-11-07	14:33:01	14:43:57	655363	5d48fcc5643eb80001fb43fa	233303681	1	main_z	11	advance_on_keypress_ZEE	158	stimuli_target_trianglesquares.svg	stimuli_distractor_diamondtriangles.svg	22	yes	57	0	371
6.6.1	mac	2022-11-07	14:33:01	14:44:00	658364	5d48fcc5643eb80001fb43fa	233303681	1	main_z	11	main_z	159	stimuli_distractor_diamondtriangles.svg	stimuli_distractor_trianglediamonds.svg	37	no	0	1	2000
6.6.1	mac	2022-11-07	14:33:01	14:44:00	658364	5d48fcc5643eb80001fb43fa	233303681	1	main_z	11	advance_on_keypress_ZEE	160	stimuli_distractor_diamondtriangles.svg	stimuli_distractor_trianglediamonds.svg	37	no	57	0	255