build	computer.platform	date	time	timestamp	time_elapsed_ms	subject	group	session	blockcode	blocknum	trialcode	trialnum	stimulus_left	stimulus_right	stim_index	target_present	response	correct	latency
6.6.1	win	2022-12-14	13:32:32	13:41:14	520794	5c4e9bd1818d4d00013e8859	957968026	1	practice_z	5	practice_z	1	stimuli_target_circlediamonds.svg	stimuli_distractor_diamondtriangles.svg	1	yes	44	1	526
6.6.1	win	2022-12-14	13:32:32	13:41:14	520794	5c4e9bd1818d4d00013e8859	957968026	1	practice_z	5	advance_on_keypress_ZEE	2	stimuli_target_circlediamonds.svg	stimuli_distractor_diamondtriangles.svg	1	yes	57	0	7942
6.6.1	win	2022-12-14	13:32:32	13:41:24	530953	5c4e9bd1818d4d00013e8859	957968026	1	practice_z	5	practice_z	3	stimuli_distractor_diamondtriangles.svg	stimuli_target_diamondcircles.svg	8	yes	44	1	560
6.6.1	win	2022-12-14	13:32:32	13:41:24	530953	5c4e9bd1818d4d00013e8859	957968026	1	practice_z	5	advance_on_keypress_ZEE	4	stimuli_distractor_diamondtriangles.svg	stimuli_target_diamondcircles.svg	8	yes	57	0	1377
6.6.1	win	2022-12-14	13:32:32	13:41:27	534537	5c4e9bd1818d4d00013e8859	957968026	1	practice_z	5	practice_z	5	stimuli_target_diamondsquares.svg	stimuli_distractor_diamondtriangles.svg	3	yes	44	1	559
6.6.1	win	2022-12-14	13:32:32	13:41:27	534537	5c4e9bd1818d4d00013e8859	957968026	1	practice_z	5	advance_on_keypress_ZEE	6	stimuli_target_diamondsquares.svg	stimuli_distractor_diamondtriangles.svg	3	yes	57	0	822
6.6.1	win	2022-12-14	13:32:32	13:41:32	538997	5c4e9bd1818d4d00013e8859	957968026	1	practice_z	5	practice_z	7	stimuli_distractor_diamondtriangles.svg	stimuli_target_circletriangles.svg	7	yes	0	0	2000
6.6.1	win	2022-12-14	13:32:32	13:41:32	538997	5c4e9bd1818d4d00013e8859	957968026	1	practice_z	5	advance_on_keypress_ZEE	8	stimuli_distractor_diamondtriangles.svg	stimuli_target_circletriangles.svg	7	yes	57	0	1080
6.6.1	win	2022-12-14	13:32:32	13:41:35	542250	5c4e9bd1818d4d00013e8859	957968026	1	practice_z	5	practice_z	9	stimuli_distractor_trianglediamonds.svg	stimuli_target_squarediamonds.svg	11	yes	44	1	516
6.6.1	win	2022-12-14	13:32:32	13:41:35	542250	5c4e9bd1818d4d00013e8859	957968026	1	practice_z	5	advance_on_keypress_ZEE	10	stimuli_distractor_trianglediamonds.svg	stimuli_target_squarediamonds.svg	11	yes	57	0	492
6.6.1	win	2022-12-14	13:32:32	13:41:38	545538	5c4e9bd1818d4d00013e8859	957968026	1	practice_z	5	practice_z	11	stimuli_distractor_trianglediamonds.svg	stimuli_target_diamondcircles.svg	12	yes	44	1	1152
6.6.1	win	2022-12-14	13:32:32	13:41:38	545538	5c4e9bd1818d4d00013e8859	957968026	1	practice_z	5	advance_on_keypress_ZEE	12	stimuli_distractor_trianglediamonds.svg	stimuli_target_diamondcircles.svg	12	yes	57	0	943
6.6.1	win	2022-12-14	13:32:32	13:41:42	548857	5c4e9bd1818d4d00013e8859	957968026	1	practice_z	5	practice_z	13	stimuli_target_diamondsquares.svg	stimuli_distractor_trianglediamonds.svg	6	yes	44	1	735
6.6.1	win	2022-12-14	13:32:32	13:41:42	548857	5c4e9bd1818d4d00013e8859	957968026	1	practice_z	5	advance_on_keypress_ZEE	14	stimuli_target_diamondsquares.svg	stimuli_distractor_trianglediamonds.svg	6	yes	57	0	592
6.6.1	win	2022-12-14	13:32:32	13:41:46	553091	5c4e9bd1818d4d00013e8859	957968026	1	practice_z	5	practice_z	15	stimuli_distractor_diamondtriangles.svg	stimuli_distractor_diamondtriangles.svg	13	no	0	1	2000
6.6.1	win	2022-12-14	13:32:32	13:41:46	553091	5c4e9bd1818d4d00013e8859	957968026	1	practice_z	5	advance_on_keypress_ZEE	16	stimuli_distractor_diamondtriangles.svg	stimuli_distractor_diamondtriangles.svg	13	no	57	0	434
6.6.1	win	2022-12-14	13:32:32	13:41:49	555865	5c4e9bd1818d4d00013e8859	957968026	1	practice_z	5	practice_z	17	stimuli_distractor_diamondtriangles.svg	stimuli_target_trianglecircles.svg	9	yes	44	1	687
6.6.1	win	2022-12-14	13:32:32	13:41:49	555865	5c4e9bd1818d4d00013e8859	957968026	1	practice_z	5	advance_on_keypress_ZEE	18	stimuli_distractor_diamondtriangles.svg	stimuli_target_trianglecircles.svg	9	yes	57	0	1066
6.6.1	win	2022-12-14	13:32:32	13:41:53	560580	5c4e9bd1818d4d00013e8859	957968026	1	practice_z	5	practice_z	19	stimuli_distractor_trianglediamonds.svg	stimuli_distractor_diamondtriangles.svg	16	no	0	1	2000
6.6.1	win	2022-12-14	13:32:32	13:41:53	560580	5c4e9bd1818d4d00013e8859	957968026	1	practice_z	5	advance_on_keypress_ZEE	20	stimuli_distractor_trianglediamonds.svg	stimuli_distractor_diamondtriangles.svg	16	no	57	0	530
6.6.1	win	2022-12-14	13:32:32	13:41:56	563385	5c4e9bd1818d4d00013e8859	957968026	1	practice_z	5	practice_z	21	stimuli_target_squarediamonds.svg	stimuli_distractor_diamondtriangles.svg	2	yes	44	1	635
6.6.1	win	2022-12-14	13:32:32	13:41:56	563385	5c4e9bd1818d4d00013e8859	957968026	1	practice_z	5	advance_on_keypress_ZEE	22	stimuli_target_squarediamonds.svg	stimuli_distractor_diamondtriangles.svg	2	yes	57	0	583
6.6.1	win	2022-12-14	13:32:32	13:41:59	566434	5c4e9bd1818d4d00013e8859	957968026	1	practice_z	5	practice_z	23	stimuli_target_squarediamonds.svg	stimuli_distractor_trianglediamonds.svg	5	yes	44	1	815
6.6.1	win	2022-12-14	13:32:32	13:41:59	566434	5c4e9bd1818d4d00013e8859	957968026	1	practice_z	5	advance_on_keypress_ZEE	24	stimuli_target_squarediamonds.svg	stimuli_distractor_trianglediamonds.svg	5	yes	57	0	523
6.6.1	win	2022-12-14	13:32:32	13:42:02	569465	5c4e9bd1818d4d00013e8859	957968026	1	practice_z	5	practice_z	25	stimuli_target_circlediamonds.svg	stimuli_distractor_trianglediamonds.svg	4	yes	44	1	861
6.6.1	win	2022-12-14	13:32:32	13:42:02	569465	5c4e9bd1818d4d00013e8859	957968026	1	practice_z	5	advance_on_keypress_ZEE	26	stimuli_target_circlediamonds.svg	stimuli_distractor_trianglediamonds.svg	4	yes	57	0	584
6.6.1	win	2022-12-14	13:32:32	13:42:07	573690	5c4e9bd1818d4d00013e8859	957968026	1	practice_z	5	practice_z	27	stimuli_distractor_trianglediamonds.svg	stimuli_distractor_trianglediamonds.svg	15	no	0	1	2000
6.6.1	win	2022-12-14	13:32:32	13:42:07	573690	5c4e9bd1818d4d00013e8859	957968026	1	practice_z	5	advance_on_keypress_ZEE	28	stimuli_distractor_trianglediamonds.svg	stimuli_distractor_trianglediamonds.svg	15	no	57	0	613
6.6.1	win	2022-12-14	13:32:32	13:42:11	577943	5c4e9bd1818d4d00013e8859	957968026	1	practice_z	5	practice_z	29	stimuli_distractor_diamondtriangles.svg	stimuli_distractor_trianglediamonds.svg	14	no	0	1	2000
6.6.1	win	2022-12-14	13:32:32	13:42:11	577943	5c4e9bd1818d4d00013e8859	957968026	1	practice_z	5	advance_on_keypress_ZEE	30	stimuli_distractor_diamondtriangles.svg	stimuli_distractor_trianglediamonds.svg	14	no	57	0	415
6.6.1	win	2022-12-14	13:32:32	13:42:14	580681	5c4e9bd1818d4d00013e8859	957968026	1	practice_z	5	practice_z	31	stimuli_distractor_trianglediamonds.svg	stimuli_target_circlediamonds.svg	10	yes	44	1	668
6.6.1	win	2022-12-14	13:32:32	13:42:14	580681	5c4e9bd1818d4d00013e8859	957968026	1	practice_z	5	advance_on_keypress_ZEE	32	stimuli_distractor_trianglediamonds.svg	stimuli_target_circlediamonds.svg	10	yes	57	0	672
6.6.1	win	2022-12-14	13:32:32	13:42:39	606013	5c4e9bd1818d4d00013e8859	957968026	1	main_z	7	main_z	1	stimuli_distractor_diamondtriangles.svg	stimuli_distractor_trianglediamonds.svg	37	no	0	1	2000
6.6.1	win	2022-12-14	13:32:32	13:42:39	606013	5c4e9bd1818d4d00013e8859	957968026	1	main_z	7	advance_on_keypress_ZEE	2	stimuli_distractor_diamondtriangles.svg	stimuli_distractor_trianglediamonds.svg	37	no	57	0	2737
6.6.1	win	2022-12-14	13:32:32	13:42:43	610119	5c4e9bd1818d4d00013e8859	957968026	1	main_z	7	main_z	3	stimuli_distractor_diamondtriangles.svg	stimuli_target_circletriangles.svg	13	yes	44	1	719
6.6.1	win	2022-12-14	13:32:32	13:42:43	610119	5c4e9bd1818d4d00013e8859	957968026	1	main_z	7	advance_on_keypress_ZEE	4	stimuli_distractor_diamondtriangles.svg	stimuli_target_circletriangles.svg	13	yes	57	0	4105
6.6.1	win	2022-12-14	13:32:32	13:42:48	615296	5c4e9bd1818d4d00013e8859	957968026	1	main_z	7	main_z	5	stimuli_target_circlediamonds.svg	stimuli_distractor_diamondtriangles.svg	6	yes	44	1	425
6.6.1	win	2022-12-14	13:32:32	13:42:48	615296	5c4e9bd1818d4d00013e8859	957968026	1	main_z	7	advance_on_keypress_ZEE	6	stimuli_target_circlediamonds.svg	stimuli_distractor_diamondtriangles.svg	6	yes	57	0	2055
6.6.1	win	2022-12-14	13:32:32	13:42:52	618783	5c4e9bd1818d4d00013e8859	957968026	1	main_z	7	main_z	7	stimuli_target_diamondsquares.svg	stimuli_distractor_trianglediamonds.svg	20	yes	44	1	793
6.6.1	win	2022-12-14	13:32:32	13:42:52	618783	5c4e9bd1818d4d00013e8859	957968026	1	main_z	7	advance_on_keypress_ZEE	8	stimuli_target_diamondsquares.svg	stimuli_distractor_trianglediamonds.svg	20	yes	57	0	1016
6.6.1	win	2022-12-14	13:32:32	13:42:55	622442	5c4e9bd1818d4d00013e8859	957968026	1	main_z	7	main_z	9	stimuli_distractor_diamondtriangles.svg	stimuli_distractor_trianglediamonds.svg	38	no	0	1	2000
6.6.1	win	2022-12-14	13:32:32	13:42:55	622442	5c4e9bd1818d4d00013e8859	957968026	1	main_z	7	advance_on_keypress_ZEE	10	stimuli_distractor_diamondtriangles.svg	stimuli_distractor_trianglediamonds.svg	38	no	57	0	668
6.6.1	win	2022-12-14	13:32:32	13:42:57	624296	5c4e9bd1818d4d00013e8859	957968026	1	main_z	7	main_z	11	stimuli_target_squaretriangles.svg	stimuli_distractor_diamondtriangles.svg	7	yes	44	1	535
6.6.1	win	2022-12-14	13:32:32	13:42:57	624296	5c4e9bd1818d4d00013e8859	957968026	1	main_z	7	advance_on_keypress_ZEE	12	stimuli_target_squaretriangles.svg	stimuli_distractor_diamondtriangles.svg	7	yes	57	0	1007
6.6.1	win	2022-12-14	13:32:32	13:42:59	626511	5c4e9bd1818d4d00013e8859	957968026	1	main_z	7	main_z	13	stimuli_distractor_diamondtriangles.svg	stimuli_target_squarediamonds.svg	16	yes	44	1	565
6.6.1	win	2022-12-14	13:32:32	13:42:59	626511	5c4e9bd1818d4d00013e8859	957968026	1	main_z	7	advance_on_keypress_ZEE	14	stimuli_distractor_diamondtriangles.svg	stimuli_target_squarediamonds.svg	16	yes	57	0	773
6.6.1	win	2022-12-14	13:32:32	13:43:01	628487	5c4e9bd1818d4d00013e8859	957968026	1	main_z	7	main_z	15	stimuli_target_trianglesquares.svg	stimuli_distractor_diamondtriangles.svg	22	yes	44	1	556
6.6.1	win	2022-12-14	13:32:32	13:43:01	628487	5c4e9bd1818d4d00013e8859	957968026	1	main_z	7	advance_on_keypress_ZEE	16	stimuli_target_trianglesquares.svg	stimuli_distractor_diamondtriangles.svg	22	yes	57	0	669
6.6.1	win	2022-12-14	13:32:32	13:43:03	630231	5c4e9bd1818d4d00013e8859	957968026	1	main_z	7	main_z	17	stimuli_distractor_trianglediamonds.svg	stimuli_target_diamondcircles.svg	27	yes	44	1	432
6.6.1	win	2022-12-14	13:32:32	13:43:03	630231	5c4e9bd1818d4d00013e8859	957968026	1	main_z	7	advance_on_keypress_ZEE	18	stimuli_distractor_trianglediamonds.svg	stimuli_target_diamondcircles.svg	27	yes	57	0	669
6.6.1	win	2022-12-14	13:32:32	13:43:05	631983	5c4e9bd1818d4d00013e8859	957968026	1	main_z	7	main_z	19	stimuli_distractor_trianglediamonds.svg	stimuli_target_trianglecircles.svg	25	yes	44	1	433
6.6.1	win	2022-12-14	13:32:32	13:43:05	631983	5c4e9bd1818d4d00013e8859	957968026	1	main_z	7	advance_on_keypress_ZEE	20	stimuli_distractor_trianglediamonds.svg	stimuli_target_trianglecircles.svg	25	yes	57	0	582
6.6.1	win	2022-12-14	13:32:32	13:43:06	633528	5c4e9bd1818d4d00013e8859	957968026	1	main_z	7	main_z	21	stimuli_distractor_trianglediamonds.svg	stimuli_target_squarediamonds.svg	12	yes	44	1	310
6.6.1	win	2022-12-14	13:32:32	13:43:06	633528	5c4e9bd1818d4d00013e8859	957968026	1	main_z	7	advance_on_keypress_ZEE	22	stimuli_distractor_trianglediamonds.svg	stimuli_target_squarediamonds.svg	12	yes	57	0	480
6.6.1	win	2022-12-14	13:32:32	13:43:08	634911	5c4e9bd1818d4d00013e8859	957968026	1	main_z	7	main_z	23	stimuli_distractor_diamondtriangles.svg	stimuli_target_diamondsquares.svg	32	yes	44	1	275
6.6.1	win	2022-12-14	13:32:32	13:43:08	634911	5c4e9bd1818d4d00013e8859	957968026	1	main_z	7	advance_on_keypress_ZEE	24	stimuli_distractor_diamondtriangles.svg	stimuli_target_diamondsquares.svg	32	yes	57	0	495
6.6.1	win	2022-12-14	13:32:32	13:43:09	636488	5c4e9bd1818d4d00013e8859	957968026	1	main_z	7	main_z	25	stimuli_target_squarediamonds.svg	stimuli_distractor_trianglediamonds.svg	4	yes	44	1	450
6.6.1	win	2022-12-14	13:32:32	13:43:09	636488	5c4e9bd1818d4d00013e8859	957968026	1	main_z	7	advance_on_keypress_ZEE	26	stimuli_target_squarediamonds.svg	stimuli_distractor_trianglediamonds.svg	4	yes	57	0	3127
6.6.1	win	2022-12-14	13:32:32	13:43:14	640624	5c4e9bd1818d4d00013e8859	957968026	1	main_z	7	main_z	27	stimuli_target_diamondcircles.svg	stimuli_distractor_trianglediamonds.svg	19	yes	44	1	366
6.6.1	win	2022-12-14	13:32:32	13:43:14	640624	5c4e9bd1818d4d00013e8859	957968026	1	main_z	7	advance_on_keypress_ZEE	28	stimuli_target_diamondcircles.svg	stimuli_distractor_trianglediamonds.svg	19	yes	57	0	526
6.6.1	win	2022-12-14	13:32:32	13:43:15	642135	5c4e9bd1818d4d00013e8859	957968026	1	main_z	7	main_z	29	stimuli_distractor_trianglediamonds.svg	stimuli_distractor_diamondtriangles.svg	36	no	44	0	344
6.6.1	win	2022-12-14	13:32:32	13:43:15	642135	5c4e9bd1818d4d00013e8859	957968026	1	main_z	7	advance_on_keypress_ZEE	30	stimuli_distractor_trianglediamonds.svg	stimuli_distractor_diamondtriangles.svg	36	no	57	0	1097
6.6.1	win	2022-12-14	13:32:32	13:43:19	645860	5c4e9bd1818d4d00013e8859	957968026	1	main_z	7	main_z	31	stimuli_distractor_trianglediamonds.svg	stimuli_distractor_trianglediamonds.svg	33	no	0	1	2000
6.6.1	win	2022-12-14	13:32:32	13:43:19	645860	5c4e9bd1818d4d00013e8859	957968026	1	main_z	7	advance_on_keypress_ZEE	32	stimuli_distractor_trianglediamonds.svg	stimuli_distractor_trianglediamonds.svg	33	no	57	0	641
6.6.1	win	2022-12-14	13:32:32	13:43:20	647567	5c4e9bd1818d4d00013e8859	957968026	1	main_z	7	main_z	33	stimuli_distractor_trianglediamonds.svg	stimuli_target_squaretriangles.svg	11	yes	44	1	422
6.6.1	win	2022-12-14	13:32:32	13:43:20	647567	5c4e9bd1818d4d00013e8859	957968026	1	main_z	7	advance_on_keypress_ZEE	34	stimuli_distractor_trianglediamonds.svg	stimuli_target_squaretriangles.svg	11	yes	57	0	716
6.6.1	win	2022-12-14	13:32:32	13:43:22	649375	5c4e9bd1818d4d00013e8859	957968026	1	main_z	7	main_z	35	stimuli_distractor_trianglediamonds.svg	stimuli_target_trianglesquares.svg	26	yes	44	1	445
6.6.1	win	2022-12-14	13:32:32	13:43:22	649375	5c4e9bd1818d4d00013e8859	957968026	1	main_z	7	advance_on_keypress_ZEE	36	stimuli_distractor_trianglediamonds.svg	stimuli_target_trianglesquares.svg	26	yes	57	0	595
6.6.1	win	2022-12-14	13:32:32	13:43:24	650951	5c4e9bd1818d4d00013e8859	957968026	1	main_z	7	main_z	37	stimuli_target_trianglesquares.svg	stimuli_distractor_trianglediamonds.svg	18	yes	44	1	353
6.6.1	win	2022-12-14	13:32:32	13:43:24	650951	5c4e9bd1818d4d00013e8859	957968026	1	main_z	7	advance_on_keypress_ZEE	38	stimuli_target_trianglesquares.svg	stimuli_distractor_trianglediamonds.svg	18	yes	57	0	395
6.6.1	win	2022-12-14	13:32:32	13:43:25	652288	5c4e9bd1818d4d00013e8859	957968026	1	main_z	7	main_z	39	stimuli_target_trianglecircles.svg	stimuli_distractor_trianglediamonds.svg	17	yes	44	1	306
6.6.1	win	2022-12-14	13:32:32	13:43:25	652288	5c4e9bd1818d4d00013e8859	957968026	1	main_z	7	advance_on_keypress_ZEE	40	stimuli_target_trianglecircles.svg	stimuli_distractor_trianglediamonds.svg	17	yes	57	0	340
6.6.1	win	2022-12-14	13:32:32	13:43:28	655267	5c4e9bd1818d4d00013e8859	957968026	1	main_z	7	main_z	41	stimuli_distractor_diamondtriangles.svg	stimuli_distractor_diamondtriangles.svg	39	no	0	1	2000
6.6.1	win	2022-12-14	13:32:32	13:43:28	655267	5c4e9bd1818d4d00013e8859	957968026	1	main_z	7	advance_on_keypress_ZEE	42	stimuli_distractor_diamondtriangles.svg	stimuli_distractor_diamondtriangles.svg	39	no	57	0	579
6.6.1	win	2022-12-14	13:32:32	13:43:30	656927	5c4e9bd1818d4d00013e8859	957968026	1	main_z	7	main_z	43	stimuli_distractor_diamondtriangles.svg	stimuli_target_trianglesquares.svg	30	yes	44	1	442
6.6.1	win	2022-12-14	13:32:32	13:43:30	656927	5c4e9bd1818d4d00013e8859	957968026	1	main_z	7	advance_on_keypress_ZEE	44	stimuli_distractor_diamondtriangles.svg	stimuli_target_trianglesquares.svg	30	yes	57	0	447
6.6.1	win	2022-12-14	13:32:32	13:43:31	658327	5c4e9bd1818d4d00013e8859	957968026	1	main_z	7	main_z	45	stimuli_distractor_diamondtriangles.svg	stimuli_target_circlediamonds.svg	14	yes	44	1	324
6.6.1	win	2022-12-14	13:32:32	13:43:31	658327	5c4e9bd1818d4d00013e8859	957968026	1	main_z	7	advance_on_keypress_ZEE	46	stimuli_distractor_diamondtriangles.svg	stimuli_target_circlediamonds.svg	14	yes	57	0	342
6.6.1	win	2022-12-14	13:32:32	13:43:33	659783	5c4e9bd1818d4d00013e8859	957968026	1	main_z	7	main_z	47	stimuli_target_diamondcircles.svg	stimuli_distractor_diamondtriangles.svg	23	yes	44	1	479
6.6.1	win	2022-12-14	13:32:32	13:43:33	659783	5c4e9bd1818d4d00013e8859	957968026	1	main_z	7	advance_on_keypress_ZEE	48	stimuli_target_diamondcircles.svg	stimuli_distractor_diamondtriangles.svg	23	yes	57	0	363
6.6.1	win	2022-12-14	13:32:32	13:43:34	661207	5c4e9bd1818d4d00013e8859	957968026	1	main_z	7	main_z	49	stimuli_distractor_trianglediamonds.svg	stimuli_target_circlediamonds.svg	10	yes	44	1	435
6.6.1	win	2022-12-14	13:32:32	13:43:34	661207	5c4e9bd1818d4d00013e8859	957968026	1	main_z	7	advance_on_keypress_ZEE	50	stimuli_distractor_trianglediamonds.svg	stimuli_target_circlediamonds.svg	10	yes	57	0	320
6.6.1	win	2022-12-14	13:32:32	13:43:36	662592	5c4e9bd1818d4d00013e8859	957968026	1	main_z	7	main_z	51	stimuli_distractor_diamondtriangles.svg	stimuli_distractor_diamondtriangles.svg	40	no	44	0	418
6.6.1	win	2022-12-14	13:32:32	13:43:36	662592	5c4e9bd1818d4d00013e8859	957968026	1	main_z	7	advance_on_keypress_ZEE	52	stimuli_distractor_diamondtriangles.svg	stimuli_distractor_diamondtriangles.svg	40	no	57	0	552
6.6.1	win	2022-12-14	13:32:32	13:43:37	664463	5c4e9bd1818d4d00013e8859	957968026	1	main_z	7	main_z	53	stimuli_distractor_diamondtriangles.svg	stimuli_target_squaretriangles.svg	15	yes	44	1	672
6.6.1	win	2022-12-14	13:32:32	13:43:37	664463	5c4e9bd1818d4d00013e8859	957968026	1	main_z	7	advance_on_keypress_ZEE	54	stimuli_distractor_diamondtriangles.svg	stimuli_target_squaretriangles.svg	15	yes	57	0	860
6.6.1	win	2022-12-14	13:32:32	13:43:40	666591	5c4e9bd1818d4d00013e8859	957968026	1	main_z	7	main_z	55	stimuli_target_circletriangles.svg	stimuli_distractor_trianglediamonds.svg	1	yes	44	1	632
6.6.1	win	2022-12-14	13:32:32	13:43:40	666591	5c4e9bd1818d4d00013e8859	957968026	1	main_z	7	advance_on_keypress_ZEE	56	stimuli_target_circletriangles.svg	stimuli_distractor_trianglediamonds.svg	1	yes	57	0	517
6.6.1	win	2022-12-14	13:32:32	13:43:42	668736	5c4e9bd1818d4d00013e8859	957968026	1	main_z	7	main_z	57	stimuli_distractor_trianglediamonds.svg	stimuli_target_diamondsquares.svg	28	yes	44	1	976
6.6.1	win	2022-12-14	13:32:32	13:43:42	668736	5c4e9bd1818d4d00013e8859	957968026	1	main_z	7	advance_on_keypress_ZEE	58	stimuli_distractor_trianglediamonds.svg	stimuli_target_diamondsquares.svg	28	yes	57	0	534
6.6.1	win	2022-12-14	13:32:32	13:43:43	670383	5c4e9bd1818d4d00013e8859	957968026	1	main_z	7	main_z	59	stimuli_target_circlediamonds.svg	stimuli_distractor_trianglediamonds.svg	2	yes	44	1	471
6.6.1	win	2022-12-14	13:32:32	13:43:43	670383	5c4e9bd1818d4d00013e8859	957968026	1	main_z	7	advance_on_keypress_ZEE	60	stimuli_target_circlediamonds.svg	stimuli_distractor_trianglediamonds.svg	2	yes	57	0	411
6.6.1	win	2022-12-14	13:32:32	13:43:45	671759	5c4e9bd1818d4d00013e8859	957968026	1	main_z	7	main_z	61	stimuli_target_circletriangles.svg	stimuli_distractor_diamondtriangles.svg	5	yes	44	1	329
6.6.1	win	2022-12-14	13:32:32	13:43:45	671759	5c4e9bd1818d4d00013e8859	957968026	1	main_z	7	advance_on_keypress_ZEE	62	stimuli_target_circletriangles.svg	stimuli_distractor_diamondtriangles.svg	5	yes	57	0	339
6.6.1	win	2022-12-14	13:32:32	13:43:46	673039	5c4e9bd1818d4d00013e8859	957968026	1	main_z	7	main_z	63	stimuli_distractor_trianglediamonds.svg	stimuli_target_circletriangles.svg	9	yes	44	1	308
6.6.1	win	2022-12-14	13:32:32	13:43:46	673039	5c4e9bd1818d4d00013e8859	957968026	1	main_z	7	advance_on_keypress_ZEE	64	stimuli_distractor_trianglediamonds.svg	stimuli_target_circletriangles.svg	9	yes	57	0	319
6.6.1	win	2022-12-14	13:32:32	13:43:49	675999	5c4e9bd1818d4d00013e8859	957968026	1	main_z	7	main_z	65	stimuli_distractor_trianglediamonds.svg	stimuli_distractor_trianglediamonds.svg	34	no	0	1	2000
6.6.1	win	2022-12-14	13:32:32	13:43:49	675999	5c4e9bd1818d4d00013e8859	957968026	1	main_z	7	advance_on_keypress_ZEE	66	stimuli_distractor_trianglediamonds.svg	stimuli_distractor_trianglediamonds.svg	34	no	57	0	438
6.6.1	win	2022-12-14	13:32:32	13:43:50	677359	5c4e9bd1818d4d00013e8859	957968026	1	main_z	7	main_z	67	stimuli_target_diamondsquares.svg	stimuli_distractor_diamondtriangles.svg	24	yes	44	1	275
6.6.1	win	2022-12-14	13:32:32	13:43:50	677359	5c4e9bd1818d4d00013e8859	957968026	1	main_z	7	advance_on_keypress_ZEE	68	stimuli_target_diamondsquares.svg	stimuli_distractor_diamondtriangles.svg	24	yes	57	0	511
6.6.1	win	2022-12-14	13:32:32	13:43:52	678967	5c4e9bd1818d4d00013e8859	957968026	1	main_z	7	main_z	69	stimuli_distractor_diamondtriangles.svg	stimuli_target_diamondcircles.svg	31	yes	44	1	465
6.6.1	win	2022-12-14	13:32:32	13:43:52	678967	5c4e9bd1818d4d00013e8859	957968026	1	main_z	7	advance_on_keypress_ZEE	70	stimuli_distractor_diamondtriangles.svg	stimuli_target_diamondcircles.svg	31	yes	57	0	293
6.6.1	win	2022-12-14	13:32:32	13:43:53	680207	5c4e9bd1818d4d00013e8859	957968026	1	main_z	7	main_z	71	stimuli_target_squaretriangles.svg	stimuli_distractor_trianglediamonds.svg	3	yes	44	1	304
6.6.1	win	2022-12-14	13:32:32	13:43:53	680207	5c4e9bd1818d4d00013e8859	957968026	1	main_z	7	advance_on_keypress_ZEE	72	stimuli_target_squaretriangles.svg	stimuli_distractor_trianglediamonds.svg	3	yes	57	0	315
6.6.1	win	2022-12-14	13:32:32	13:43:54	681559	5c4e9bd1818d4d00013e8859	957968026	1	main_z	7	main_z	73	stimuli_distractor_trianglediamonds.svg	stimuli_distractor_diamondtriangles.svg	35	no	44	0	389
6.6.1	win	2022-12-14	13:32:32	13:43:54	681559	5c4e9bd1818d4d00013e8859	957968026	1	main_z	7	advance_on_keypress_ZEE	74	stimuli_distractor_trianglediamonds.svg	stimuli_distractor_diamondtriangles.svg	35	no	57	0	340
6.6.1	win	2022-12-14	13:32:32	13:43:56	683087	5c4e9bd1818d4d00013e8859	957968026	1	main_z	7	main_z	75	stimuli_target_trianglecircles.svg	stimuli_distractor_diamondtriangles.svg	21	yes	44	1	549
6.6.1	win	2022-12-14	13:32:32	13:43:56	683087	5c4e9bd1818d4d00013e8859	957968026	1	main_z	7	advance_on_keypress_ZEE	76	stimuli_target_trianglecircles.svg	stimuli_distractor_diamondtriangles.svg	21	yes	57	0	293
6.6.1	win	2022-12-14	13:32:32	13:43:58	684768	5c4e9bd1818d4d00013e8859	957968026	1	main_z	7	main_z	77	stimuli_target_squarediamonds.svg	stimuli_distractor_diamondtriangles.svg	8	yes	44	1	745
6.6.1	win	2022-12-14	13:32:32	13:43:58	684768	5c4e9bd1818d4d00013e8859	957968026	1	main_z	7	advance_on_keypress_ZEE	78	stimuli_target_squarediamonds.svg	stimuli_distractor_diamondtriangles.svg	8	yes	57	0	450
6.6.1	win	2022-12-14	13:32:32	13:43:59	686440	5c4e9bd1818d4d00013e8859	957968026	1	main_z	7	main_z	79	stimuli_distractor_diamondtriangles.svg	stimuli_target_trianglecircles.svg	29	yes	44	1	583
6.6.1	win	2022-12-14	13:32:32	13:43:59	686440	5c4e9bd1818d4d00013e8859	957968026	1	main_z	7	advance_on_keypress_ZEE	80	stimuli_distractor_diamondtriangles.svg	stimuli_target_trianglecircles.svg	29	yes	57	0	269
6.6.1	win	2022-12-14	13:32:32	13:44:01	687800	5c4e9bd1818d4d00013e8859	957968026	1	main_z	7	main_z	81	stimuli_target_circletriangles.svg	stimuli_distractor_trianglediamonds.svg	1	yes	44	1	441
6.6.1	win	2022-12-14	13:32:32	13:44:01	687800	5c4e9bd1818d4d00013e8859	957968026	1	main_z	7	advance_on_keypress_ZEE	82	stimuli_target_circletriangles.svg	stimuli_distractor_trianglediamonds.svg	1	yes	57	0	342
6.6.1	win	2022-12-14	13:32:32	13:44:04	690776	5c4e9bd1818d4d00013e8859	957968026	1	main_z	7	main_z	83	stimuli_distractor_trianglediamonds.svg	stimuli_distractor_trianglediamonds.svg	34	no	0	1	2000
6.6.1	win	2022-12-14	13:32:32	13:44:04	690776	5c4e9bd1818d4d00013e8859	957968026	1	main_z	7	advance_on_keypress_ZEE	84	stimuli_distractor_trianglediamonds.svg	stimuli_distractor_trianglediamonds.svg	34	no	57	0	372
6.6.1	win	2022-12-14	13:32:32	13:44:05	692120	5c4e9bd1818d4d00013e8859	957968026	1	main_z	7	main_z	85	stimuli_distractor_trianglediamonds.svg	stimuli_target_trianglecircles.svg	25	yes	44	1	325
6.6.1	win	2022-12-14	13:32:32	13:44:05	692120	5c4e9bd1818d4d00013e8859	957968026	1	main_z	7	advance_on_keypress_ZEE	86	stimuli_distractor_trianglediamonds.svg	stimuli_target_trianglecircles.svg	25	yes	57	0	326
6.6.1	win	2022-12-14	13:32:32	13:44:06	693416	5c4e9bd1818d4d00013e8859	957968026	1	main_z	7	main_z	87	stimuli_target_trianglecircles.svg	stimuli_distractor_trianglediamonds.svg	17	yes	44	1	336
6.6.1	win	2022-12-14	13:32:32	13:44:06	693416	5c4e9bd1818d4d00013e8859	957968026	1	main_z	7	advance_on_keypress_ZEE	88	stimuli_target_trianglecircles.svg	stimuli_distractor_trianglediamonds.svg	17	yes	57	0	273
6.6.1	win	2022-12-14	13:32:32	13:44:08	694775	5c4e9bd1818d4d00013e8859	957968026	1	main_z	7	main_z	89	stimuli_distractor_diamondtriangles.svg	stimuli_distractor_trianglediamonds.svg	38	no	44	0	445
6.6.1	win	2022-12-14	13:32:32	13:44:08	694775	5c4e9bd1818d4d00013e8859	957968026	1	main_z	7	advance_on_keypress_ZEE	90	stimuli_distractor_diamondtriangles.svg	stimuli_distractor_trianglediamonds.svg	38	no	57	0	426
6.6.1	win	2022-12-14	13:32:32	13:44:11	697832	5c4e9bd1818d4d00013e8859	957968026	1	main_z	7	main_z	91	stimuli_distractor_trianglediamonds.svg	stimuli_distractor_trianglediamonds.svg	33	no	0	1	2000
6.6.1	win	2022-12-14	13:32:32	13:44:11	697832	5c4e9bd1818d4d00013e8859	957968026	1	main_z	7	advance_on_keypress_ZEE	92	stimuli_distractor_trianglediamonds.svg	stimuli_distractor_trianglediamonds.svg	33	no	57	0	301
6.6.1	win	2022-12-14	13:32:32	13:44:12	699271	5c4e9bd1818d4d00013e8859	957968026	1	main_z	7	main_z	93	stimuli_target_squaretriangles.svg	stimuli_distractor_diamondtriangles.svg	7	yes	44	1	488
6.6.1	win	2022-12-14	13:32:32	13:44:12	699271	5c4e9bd1818d4d00013e8859	957968026	1	main_z	7	advance_on_keypress_ZEE	94	stimuli_target_squaretriangles.svg	stimuli_distractor_diamondtriangles.svg	7	yes	57	0	299
6.6.1	win	2022-12-14	13:32:32	13:44:14	700895	5c4e9bd1818d4d00013e8859	957968026	1	main_z	7	main_z	95	stimuli_target_diamondsquares.svg	stimuli_distractor_trianglediamonds.svg	20	yes	44	1	677
6.6.1	win	2022-12-14	13:32:32	13:44:14	700895	5c4e9bd1818d4d00013e8859	957968026	1	main_z	7	advance_on_keypress_ZEE	96	stimuli_target_diamondsquares.svg	stimuli_distractor_trianglediamonds.svg	20	yes	57	0	282
6.6.1	win	2022-12-14	13:32:32	13:44:15	702287	5c4e9bd1818d4d00013e8859	957968026	1	main_z	7	main_z	97	stimuli_distractor_trianglediamonds.svg	stimuli_target_squarediamonds.svg	12	yes	44	1	468
6.6.1	win	2022-12-14	13:32:32	13:44:15	702287	5c4e9bd1818d4d00013e8859	957968026	1	main_z	7	advance_on_keypress_ZEE	98	stimuli_distractor_trianglediamonds.svg	stimuli_target_squarediamonds.svg	12	yes	57	0	304
6.6.1	win	2022-12-14	13:32:32	13:44:17	703672	5c4e9bd1818d4d00013e8859	957968026	1	main_z	7	main_z	99	stimuli_target_squaretriangles.svg	stimuli_distractor_trianglediamonds.svg	3	yes	44	1	434
6.6.1	win	2022-12-14	13:32:32	13:44:17	703672	5c4e9bd1818d4d00013e8859	957968026	1	main_z	7	advance_on_keypress_ZEE	100	stimuli_target_squaretriangles.svg	stimuli_distractor_trianglediamonds.svg	3	yes	57	0	239
6.6.1	win	2022-12-14	13:32:32	13:44:18	704888	5c4e9bd1818d4d00013e8859	957968026	1	main_z	7	main_z	101	stimuli_distractor_diamondtriangles.svg	stimuli_target_squaretriangles.svg	15	yes	44	1	333
6.6.1	win	2022-12-14	13:32:32	13:44:18	704888	5c4e9bd1818d4d00013e8859	957968026	1	main_z	7	advance_on_keypress_ZEE	102	stimuli_distractor_diamondtriangles.svg	stimuli_target_squaretriangles.svg	15	yes	57	0	222
6.6.1	win	2022-12-14	13:32:32	13:44:19	706448	5c4e9bd1818d4d00013e8859	957968026	1	main_z	7	main_z	103	stimuli_distractor_diamondtriangles.svg	stimuli_target_squarediamonds.svg	16	yes	44	1	693
6.6.1	win	2022-12-14	13:32:32	13:44:19	706448	5c4e9bd1818d4d00013e8859	957968026	1	main_z	7	advance_on_keypress_ZEE	104	stimuli_distractor_diamondtriangles.svg	stimuli_target_squarediamonds.svg	16	yes	57	0	287
6.6.1	win	2022-12-14	13:32:32	13:44:21	708127	5c4e9bd1818d4d00013e8859	957968026	1	main_z	7	main_z	105	stimuli_distractor_diamondtriangles.svg	stimuli_target_trianglesquares.svg	30	yes	44	1	754
6.6.1	win	2022-12-14	13:32:32	13:44:21	708127	5c4e9bd1818d4d00013e8859	957968026	1	main_z	7	advance_on_keypress_ZEE	106	stimuli_distractor_diamondtriangles.svg	stimuli_target_trianglesquares.svg	30	yes	57	0	282
6.6.1	win	2022-12-14	13:32:32	13:44:22	709487	5c4e9bd1818d4d00013e8859	957968026	1	main_z	7	main_z	107	stimuli_distractor_trianglediamonds.svg	stimuli_distractor_diamondtriangles.svg	36	no	44	0	429
6.6.1	win	2022-12-14	13:32:32	13:44:22	709487	5c4e9bd1818d4d00013e8859	957968026	1	main_z	7	advance_on_keypress_ZEE	108	stimuli_distractor_trianglediamonds.svg	stimuli_distractor_diamondtriangles.svg	36	no	57	0	379
6.6.1	win	2022-12-14	13:32:32	13:44:24	711287	5c4e9bd1818d4d00013e8859	957968026	1	main_z	7	main_z	109	stimuli_distractor_trianglediamonds.svg	stimuli_target_circlediamonds.svg	10	yes	44	1	795
6.6.1	win	2022-12-14	13:32:32	13:44:24	711287	5c4e9bd1818d4d00013e8859	957968026	1	main_z	7	advance_on_keypress_ZEE	110	stimuli_distractor_trianglediamonds.svg	stimuli_target_circlediamonds.svg	10	yes	57	0	354
6.6.1	win	2022-12-14	13:32:32	13:44:26	712903	5c4e9bd1818d4d00013e8859	957968026	1	main_z	7	main_z	111	stimuli_distractor_trianglediamonds.svg	stimuli_target_trianglesquares.svg	26	yes	44	1	626
6.6.1	win	2022-12-14	13:32:32	13:44:26	712903	5c4e9bd1818d4d00013e8859	957968026	1	main_z	7	advance_on_keypress_ZEE	112	stimuli_distractor_trianglediamonds.svg	stimuli_target_trianglesquares.svg	26	yes	57	0	328
6.6.1	win	2022-12-14	13:32:32	13:44:29	715862	5c4e9bd1818d4d00013e8859	957968026	1	main_z	7	main_z	113	stimuli_distractor_diamondtriangles.svg	stimuli_distractor_diamondtriangles.svg	39	no	0	1	2000
6.6.1	win	2022-12-14	13:32:32	13:44:29	715862	5c4e9bd1818d4d00013e8859	957968026	1	main_z	7	advance_on_keypress_ZEE	114	stimuli_distractor_diamondtriangles.svg	stimuli_distractor_diamondtriangles.svg	39	no	57	0	384
6.6.1	win	2022-12-14	13:32:32	13:44:30	717455	5c4e9bd1818d4d00013e8859	957968026	1	main_z	7	main_z	115	stimuli_distractor_diamondtriangles.svg	stimuli_target_circlediamonds.svg	14	yes	44	1	558
6.6.1	win	2022-12-14	13:32:32	13:44:30	717455	5c4e9bd1818d4d00013e8859	957968026	1	main_z	7	advance_on_keypress_ZEE	116	stimuli_distractor_diamondtriangles.svg	stimuli_target_circlediamonds.svg	14	yes	57	0	375
6.6.1	win	2022-12-14	13:32:32	13:44:32	718991	5c4e9bd1818d4d00013e8859	957968026	1	main_z	7	main_z	117	stimuli_target_diamondcircles.svg	stimuli_distractor_diamondtriangles.svg	23	yes	44	1	526
6.6.1	win	2022-12-14	13:32:32	13:44:32	718991	5c4e9bd1818d4d00013e8859	957968026	1	main_z	7	advance_on_keypress_ZEE	118	stimuli_target_diamondcircles.svg	stimuli_distractor_diamondtriangles.svg	23	yes	57	0	296
6.6.1	win	2022-12-14	13:32:32	13:44:34	720799	5c4e9bd1818d4d00013e8859	957968026	1	main_z	7	main_z	119	stimuli_distractor_diamondtriangles.svg	stimuli_target_circletriangles.svg	13	yes	44	1	883
6.6.1	win	2022-12-14	13:32:32	13:44:34	720799	5c4e9bd1818d4d00013e8859	957968026	1	main_z	7	advance_on_keypress_ZEE	120	stimuli_distractor_diamondtriangles.svg	stimuli_target_circletriangles.svg	13	yes	57	0	302
6.6.1	win	2022-12-14	13:32:32	13:44:35	722504	5c4e9bd1818d4d00013e8859	957968026	1	main_z	7	main_z	121	stimuli_distractor_diamondtriangles.svg	stimuli_target_diamondsquares.svg	32	yes	44	1	752
6.6.1	win	2022-12-14	13:32:32	13:44:35	722504	5c4e9bd1818d4d00013e8859	957968026	1	main_z	7	advance_on_keypress_ZEE	122	stimuli_distractor_diamondtriangles.svg	stimuli_target_diamondsquares.svg	32	yes	57	0	345
6.6.1	win	2022-12-14	13:32:32	13:44:37	724047	5c4e9bd1818d4d00013e8859	957968026	1	main_z	7	main_z	123	stimuli_target_circlediamonds.svg	stimuli_distractor_trianglediamonds.svg	2	yes	44	1	562
6.6.1	win	2022-12-14	13:32:32	13:44:37	724047	5c4e9bd1818d4d00013e8859	957968026	1	main_z	7	advance_on_keypress_ZEE	124	stimuli_target_circlediamonds.svg	stimuli_distractor_trianglediamonds.svg	2	yes	57	0	346
6.6.1	win	2022-12-14	13:32:32	13:44:39	725751	5c4e9bd1818d4d00013e8859	957968026	1	main_z	7	main_z	125	stimuli_distractor_trianglediamonds.svg	stimuli_target_diamondsquares.svg	28	yes	44	1	731
6.6.1	win	2022-12-14	13:32:32	13:44:39	725751	5c4e9bd1818d4d00013e8859	957968026	1	main_z	7	advance_on_keypress_ZEE	126	stimuli_distractor_trianglediamonds.svg	stimuli_target_diamondsquares.svg	28	yes	57	0	325
6.6.1	win	2022-12-14	13:32:32	13:44:40	727151	5c4e9bd1818d4d00013e8859	957968026	1	main_z	7	main_z	127	stimuli_distractor_trianglediamonds.svg	stimuli_target_squaretriangles.svg	11	yes	44	1	447
6.6.1	win	2022-12-14	13:32:32	13:44:40	727151	5c4e9bd1818d4d00013e8859	957968026	1	main_z	7	advance_on_keypress_ZEE	128	stimuli_distractor_trianglediamonds.svg	stimuli_target_squaretriangles.svg	11	yes	57	0	388
6.6.1	win	2022-12-14	13:32:32	13:44:43	730172	5c4e9bd1818d4d00013e8859	957968026	1	main_z	7	main_z	129	stimuli_distractor_diamondtriangles.svg	stimuli_distractor_trianglediamonds.svg	37	no	0	1	2000
6.6.1	win	2022-12-14	13:32:32	13:44:43	730172	5c4e9bd1818d4d00013e8859	957968026	1	main_z	7	advance_on_keypress_ZEE	130	stimuli_distractor_diamondtriangles.svg	stimuli_distractor_trianglediamonds.svg	37	no	57	0	664
6.6.1	win	2022-12-14	13:32:32	13:44:45	731823	5c4e9bd1818d4d00013e8859	957968026	1	main_z	7	main_z	131	stimuli_target_trianglecircles.svg	stimuli_distractor_diamondtriangles.svg	21	yes	44	1	349
6.6.1	win	2022-12-14	13:32:32	13:44:45	731823	5c4e9bd1818d4d00013e8859	957968026	1	main_z	7	advance_on_keypress_ZEE	132	stimuli_target_trianglecircles.svg	stimuli_distractor_diamondtriangles.svg	21	yes	57	0	237
6.6.1	win	2022-12-14	13:32:32	13:44:46	733128	5c4e9bd1818d4d00013e8859	957968026	1	main_z	7	main_z	133	stimuli_distractor_trianglediamonds.svg	stimuli_target_diamondcircles.svg	27	yes	44	1	418
6.6.1	win	2022-12-14	13:32:32	13:44:46	733128	5c4e9bd1818d4d00013e8859	957968026	1	main_z	7	advance_on_keypress_ZEE	134	stimuli_distractor_trianglediamonds.svg	stimuli_target_diamondcircles.svg	27	yes	57	0	240
6.6.1	win	2022-12-14	13:32:32	13:44:47	734335	5c4e9bd1818d4d00013e8859	957968026	1	main_z	7	main_z	135	stimuli_target_trianglesquares.svg	stimuli_distractor_diamondtriangles.svg	22	yes	44	1	325
6.6.1	win	2022-12-14	13:32:32	13:44:47	734335	5c4e9bd1818d4d00013e8859	957968026	1	main_z	7	advance_on_keypress_ZEE	136	stimuli_target_trianglesquares.svg	stimuli_distractor_diamondtriangles.svg	22	yes	57	0	287
6.6.1	win	2022-12-14	13:32:32	13:44:48	735575	5c4e9bd1818d4d00013e8859	957968026	1	main_z	7	main_z	137	stimuli_distractor_diamondtriangles.svg	stimuli_distractor_diamondtriangles.svg	40	no	44	0	314
6.6.1	win	2022-12-14	13:32:32	13:44:48	735575	5c4e9bd1818d4d00013e8859	957968026	1	main_z	7	advance_on_keypress_ZEE	138	stimuli_distractor_diamondtriangles.svg	stimuli_distractor_diamondtriangles.svg	40	no	57	0	389
6.6.1	win	2022-12-14	13:32:32	13:44:50	737199	5c4e9bd1818d4d00013e8859	957968026	1	main_z	7	main_z	139	stimuli_distractor_diamondtriangles.svg	stimuli_target_diamondcircles.svg	31	yes	44	1	604
6.6.1	win	2022-12-14	13:32:32	13:44:50	737199	5c4e9bd1818d4d00013e8859	957968026	1	main_z	7	advance_on_keypress_ZEE	140	stimuli_distractor_diamondtriangles.svg	stimuli_target_diamondcircles.svg	31	yes	57	0	402
6.6.1	win	2022-12-14	13:32:32	13:44:53	740246	5c4e9bd1818d4d00013e8859	957968026	1	main_z	7	main_z	141	stimuli_distractor_trianglediamonds.svg	stimuli_distractor_diamondtriangles.svg	35	no	0	1	2000
6.6.1	win	2022-12-14	13:32:32	13:44:53	740246	5c4e9bd1818d4d00013e8859	957968026	1	main_z	7	advance_on_keypress_ZEE	142	stimuli_distractor_trianglediamonds.svg	stimuli_distractor_diamondtriangles.svg	35	no	57	0	974
6.6.1	win	2022-12-14	13:32:32	13:44:55	742183	5c4e9bd1818d4d00013e8859	957968026	1	main_z	7	main_z	143	stimuli_target_diamondsquares.svg	stimuli_distractor_diamondtriangles.svg	24	yes	44	1	317
6.6.1	win	2022-12-14	13:32:32	13:44:55	742183	5c4e9bd1818d4d00013e8859	957968026	1	main_z	7	advance_on_keypress_ZEE	144	stimuli_target_diamondsquares.svg	stimuli_distractor_diamondtriangles.svg	24	yes	57	0	279
6.6.1	win	2022-12-14	13:32:32	13:44:56	743543	5c4e9bd1818d4d00013e8859	957968026	1	main_z	7	main_z	145	stimuli_target_circletriangles.svg	stimuli_distractor_diamondtriangles.svg	5	yes	44	1	427
6.6.1	win	2022-12-14	13:32:32	13:44:56	743543	5c4e9bd1818d4d00013e8859	957968026	1	main_z	7	advance_on_keypress_ZEE	146	stimuli_target_circletriangles.svg	stimuli_distractor_diamondtriangles.svg	5	yes	57	0	360
6.6.1	win	2022-12-14	13:32:32	13:44:58	744918	5c4e9bd1818d4d00013e8859	957968026	1	main_z	7	main_z	147	stimuli_target_diamondcircles.svg	stimuli_distractor_trianglediamonds.svg	19	yes	44	1	370
6.6.1	win	2022-12-14	13:32:32	13:44:58	744918	5c4e9bd1818d4d00013e8859	957968026	1	main_z	7	advance_on_keypress_ZEE	148	stimuli_target_diamondcircles.svg	stimuli_distractor_trianglediamonds.svg	19	yes	57	0	208
6.6.1	win	2022-12-14	13:32:32	13:44:59	746071	5c4e9bd1818d4d00013e8859	957968026	1	main_z	7	main_z	149	stimuli_target_trianglesquares.svg	stimuli_distractor_trianglediamonds.svg	18	yes	44	1	303
6.6.1	win	2022-12-14	13:32:32	13:44:59	746071	5c4e9bd1818d4d00013e8859	957968026	1	main_z	7	advance_on_keypress_ZEE	150	stimuli_target_trianglesquares.svg	stimuli_distractor_trianglediamonds.svg	18	yes	57	0	241
6.6.1	win	2022-12-14	13:32:32	13:45:00	747255	5c4e9bd1818d4d00013e8859	957968026	1	main_z	7	main_z	151	stimuli_target_squarediamonds.svg	stimuli_distractor_diamondtriangles.svg	8	yes	44	1	301
6.6.1	win	2022-12-14	13:32:32	13:45:00	747255	5c4e9bd1818d4d00013e8859	957968026	1	main_z	7	advance_on_keypress_ZEE	152	stimuli_target_squarediamonds.svg	stimuli_distractor_diamondtriangles.svg	8	yes	57	0	289
6.6.1	win	2022-12-14	13:32:32	13:45:01	748535	5c4e9bd1818d4d00013e8859	957968026	1	main_z	7	main_z	153	stimuli_target_squarediamonds.svg	stimuli_distractor_trianglediamonds.svg	4	yes	44	1	348
6.6.1	win	2022-12-14	13:32:32	13:45:01	748535	5c4e9bd1818d4d00013e8859	957968026	1	main_z	7	advance_on_keypress_ZEE	154	stimuli_target_squarediamonds.svg	stimuli_distractor_trianglediamonds.svg	4	yes	57	0	180
6.6.1	win	2022-12-14	13:32:32	13:45:03	749815	5c4e9bd1818d4d00013e8859	957968026	1	main_z	7	main_z	155	stimuli_distractor_trianglediamonds.svg	stimuli_target_circletriangles.svg	9	yes	44	1	461
6.6.1	win	2022-12-14	13:32:32	13:45:03	749815	5c4e9bd1818d4d00013e8859	957968026	1	main_z	7	advance_on_keypress_ZEE	156	stimuli_distractor_trianglediamonds.svg	stimuli_target_circletriangles.svg	9	yes	57	0	168
6.6.1	win	2022-12-14	13:32:32	13:45:04	750983	5c4e9bd1818d4d00013e8859	957968026	1	main_z	7	main_z	157	stimuli_target_circlediamonds.svg	stimuli_distractor_diamondtriangles.svg	6	yes	44	1	361
6.6.1	win	2022-12-14	13:32:32	13:45:04	750983	5c4e9bd1818d4d00013e8859	957968026	1	main_z	7	advance_on_keypress_ZEE	158	stimuli_target_circlediamonds.svg	stimuli_distractor_diamondtriangles.svg	6	yes	57	0	185
6.6.1	win	2022-12-14	13:32:32	13:45:05	752079	5c4e9bd1818d4d00013e8859	957968026	1	main_z	7	main_z	159	stimuli_distractor_diamondtriangles.svg	stimuli_target_trianglecircles.svg	29	yes	44	1	273
6.6.1	win	2022-12-14	13:32:32	13:45:05	752079	5c4e9bd1818d4d00013e8859	957968026	1	main_z	7	advance_on_keypress_ZEE	160	stimuli_distractor_diamondtriangles.svg	stimuli_target_trianglecircles.svg	29	yes	57	0	205
6.6.1	win	2022-12-14	13:32:32	13:45:43	789616	5c4e9bd1818d4d00013e8859	957968026	1	practice_slash	9	practice_slash	1	stimuli_distractor_trianglediamonds.svg	stimuli_distractor_diamondtriangles.svg	16	no	53	0	332
6.6.1	win	2022-12-14	13:32:32	13:45:43	789616	5c4e9bd1818d4d00013e8859	957968026	1	practice_slash	9	advance_on_keypress_SLASH	2	stimuli_distractor_trianglediamonds.svg	stimuli_distractor_diamondtriangles.svg	16	no	57	0	620
6.6.1	win	2022-12-14	13:32:32	13:45:45	792328	5c4e9bd1818d4d00013e8859	957968026	1	practice_slash	9	practice_slash	3	stimuli_distractor_trianglediamonds.svg	stimuli_target_diamondcircles.svg	12	yes	53	1	441
6.6.1	win	2022-12-14	13:32:32	13:45:45	792328	5c4e9bd1818d4d00013e8859	957968026	1	practice_slash	9	advance_on_keypress_SLASH	4	stimuli_distractor_trianglediamonds.svg	stimuli_target_diamondcircles.svg	12	yes	57	0	565
6.6.1	win	2022-12-14	13:32:32	13:45:48	795056	5c4e9bd1818d4d00013e8859	957968026	1	practice_slash	9	practice_slash	5	stimuli_target_diamondsquares.svg	stimuli_distractor_diamondtriangles.svg	3	yes	53	1	517
6.6.1	win	2022-12-14	13:32:32	13:45:48	795056	5c4e9bd1818d4d00013e8859	957968026	1	practice_slash	9	advance_on_keypress_SLASH	6	stimuli_target_diamondsquares.svg	stimuli_distractor_diamondtriangles.svg	3	yes	57	0	711
6.6.1	win	2022-12-14	13:32:32	13:45:51	797848	5c4e9bd1818d4d00013e8859	957968026	1	practice_slash	9	practice_slash	7	stimuli_distractor_diamondtriangles.svg	stimuli_target_trianglecircles.svg	9	yes	53	1	440
6.6.1	win	2022-12-14	13:32:32	13:45:51	797848	5c4e9bd1818d4d00013e8859	957968026	1	practice_slash	9	advance_on_keypress_SLASH	8	stimuli_distractor_diamondtriangles.svg	stimuli_target_trianglecircles.svg	9	yes	57	0	596
6.6.1	win	2022-12-14	13:32:32	13:45:54	800624	5c4e9bd1818d4d00013e8859	957968026	1	practice_slash	9	practice_slash	9	stimuli_target_squarediamonds.svg	stimuli_distractor_trianglediamonds.svg	5	yes	53	1	532
6.6.1	win	2022-12-14	13:32:32	13:45:54	800624	5c4e9bd1818d4d00013e8859	957968026	1	practice_slash	9	advance_on_keypress_SLASH	10	stimuli_target_squarediamonds.svg	stimuli_distractor_trianglediamonds.svg	5	yes	57	0	523
6.6.1	win	2022-12-14	13:32:32	13:45:58	804795	5c4e9bd1818d4d00013e8859	957968026	1	practice_slash	9	practice_slash	11	stimuli_distractor_diamondtriangles.svg	stimuli_distractor_trianglediamonds.svg	14	no	0	1	2000
6.6.1	win	2022-12-14	13:32:32	13:45:58	804795	5c4e9bd1818d4d00013e8859	957968026	1	practice_slash	9	advance_on_keypress_SLASH	12	stimuli_distractor_diamondtriangles.svg	stimuli_distractor_trianglediamonds.svg	14	no	57	0	585
6.6.1	win	2022-12-14	13:32:32	13:46:00	807464	5c4e9bd1818d4d00013e8859	957968026	1	practice_slash	9	practice_slash	13	stimuli_distractor_diamondtriangles.svg	stimuli_target_circletriangles.svg	7	yes	53	1	432
6.6.1	win	2022-12-14	13:32:32	13:46:00	807464	5c4e9bd1818d4d00013e8859	957968026	1	practice_slash	9	advance_on_keypress_SLASH	14	stimuli_distractor_diamondtriangles.svg	stimuli_target_circletriangles.svg	7	yes	57	0	572
6.6.1	win	2022-12-14	13:32:32	13:46:03	810143	5c4e9bd1818d4d00013e8859	957968026	1	practice_slash	9	practice_slash	15	stimuli_distractor_trianglediamonds.svg	stimuli_target_squarediamonds.svg	11	yes	53	1	460
6.6.1	win	2022-12-14	13:32:32	13:46:03	810143	5c4e9bd1818d4d00013e8859	957968026	1	practice_slash	9	advance_on_keypress_SLASH	16	stimuli_distractor_trianglediamonds.svg	stimuli_target_squarediamonds.svg	11	yes	57	0	377
6.6.1	win	2022-12-14	13:32:32	13:46:06	812920	5c4e9bd1818d4d00013e8859	957968026	1	practice_slash	9	practice_slash	17	stimuli_target_circlediamonds.svg	stimuli_distractor_diamondtriangles.svg	1	yes	53	1	769
6.6.1	win	2022-12-14	13:32:32	13:46:06	812920	5c4e9bd1818d4d00013e8859	957968026	1	practice_slash	9	advance_on_keypress_SLASH	18	stimuli_target_circlediamonds.svg	stimuli_distractor_diamondtriangles.svg	1	yes	57	0	735
6.6.1	win	2022-12-14	13:32:32	13:46:09	816080	5c4e9bd1818d4d00013e8859	957968026	1	practice_slash	9	practice_slash	19	stimuli_target_circlediamonds.svg	stimuli_distractor_trianglediamonds.svg	4	yes	53	1	776
6.6.1	win	2022-12-14	13:32:32	13:46:09	816080	5c4e9bd1818d4d00013e8859	957968026	1	practice_slash	9	advance_on_keypress_SLASH	20	stimuli_target_circlediamonds.svg	stimuli_distractor_trianglediamonds.svg	4	yes	57	0	646
6.6.1	win	2022-12-14	13:32:32	13:46:12	818848	5c4e9bd1818d4d00013e8859	957968026	1	practice_slash	9	practice_slash	21	stimuli_target_squarediamonds.svg	stimuli_distractor_diamondtriangles.svg	2	yes	53	1	491
6.6.1	win	2022-12-14	13:32:32	13:46:12	818848	5c4e9bd1818d4d00013e8859	957968026	1	practice_slash	9	advance_on_keypress_SLASH	22	stimuli_target_squarediamonds.svg	stimuli_distractor_diamondtriangles.svg	2	yes	57	0	430
6.6.1	win	2022-12-14	13:32:32	13:46:16	822908	5c4e9bd1818d4d00013e8859	957968026	1	practice_slash	9	practice_slash	23	stimuli_distractor_diamondtriangles.svg	stimuli_distractor_diamondtriangles.svg	13	no	0	1	2000
6.6.1	win	2022-12-14	13:32:32	13:46:16	822908	5c4e9bd1818d4d00013e8859	957968026	1	practice_slash	9	advance_on_keypress_SLASH	24	stimuli_distractor_diamondtriangles.svg	stimuli_distractor_diamondtriangles.svg	13	no	57	0	456
6.6.1	win	2022-12-14	13:32:32	13:46:18	825425	5c4e9bd1818d4d00013e8859	957968026	1	practice_slash	9	practice_slash	25	stimuli_distractor_diamondtriangles.svg	stimuli_target_diamondcircles.svg	8	yes	53	1	413
6.6.1	win	2022-12-14	13:32:32	13:46:18	825425	5c4e9bd1818d4d00013e8859	957968026	1	practice_slash	9	advance_on_keypress_SLASH	26	stimuli_distractor_diamondtriangles.svg	stimuli_target_diamondcircles.svg	8	yes	57	0	434
6.6.1	win	2022-12-14	13:32:32	13:46:21	827880	5c4e9bd1818d4d00013e8859	957968026	1	practice_slash	9	practice_slash	27	stimuli_target_diamondsquares.svg	stimuli_distractor_trianglediamonds.svg	6	yes	53	1	367
6.6.1	win	2022-12-14	13:32:32	13:46:21	827880	5c4e9bd1818d4d00013e8859	957968026	1	practice_slash	9	advance_on_keypress_SLASH	28	stimuli_target_diamondsquares.svg	stimuli_distractor_trianglediamonds.svg	6	yes	57	0	645
6.6.1	win	2022-12-14	13:32:32	13:46:25	832166	5c4e9bd1818d4d00013e8859	957968026	1	practice_slash	9	practice_slash	29	stimuli_distractor_trianglediamonds.svg	stimuli_distractor_trianglediamonds.svg	15	no	0	1	2000
6.6.1	win	2022-12-14	13:32:32	13:46:25	832166	5c4e9bd1818d4d00013e8859	957968026	1	practice_slash	9	advance_on_keypress_SLASH	30	stimuli_distractor_trianglediamonds.svg	stimuli_distractor_trianglediamonds.svg	15	no	57	0	535
6.6.1	win	2022-12-14	13:32:32	13:46:28	834776	5c4e9bd1818d4d00013e8859	957968026	1	practice_slash	9	practice_slash	31	stimuli_distractor_trianglediamonds.svg	stimuli_target_circlediamonds.svg	10	yes	53	1	424
6.6.1	win	2022-12-14	13:32:32	13:46:28	834776	5c4e9bd1818d4d00013e8859	957968026	1	practice_slash	9	advance_on_keypress_SLASH	32	stimuli_distractor_trianglediamonds.svg	stimuli_target_circlediamonds.svg	10	yes	57	0	485
6.6.1	win	2022-12-14	13:32:32	13:46:32	839167	5c4e9bd1818d4d00013e8859	957968026	1	main_slash	11	main_slash	1	stimuli_target_squarediamonds.svg	stimuli_distractor_trianglediamonds.svg	4	yes	53	1	645
6.6.1	win	2022-12-14	13:32:32	13:46:32	839167	5c4e9bd1818d4d00013e8859	957968026	1	main_slash	11	advance_on_keypress_SLASH	2	stimuli_target_squarediamonds.svg	stimuli_distractor_trianglediamonds.svg	4	yes	57	0	1203
6.6.1	win	2022-12-14	13:32:32	13:46:34	841423	5c4e9bd1818d4d00013e8859	957968026	1	main_slash	11	main_slash	3	stimuli_target_squaretriangles.svg	stimuli_distractor_diamondtriangles.svg	7	yes	53	1	400
6.6.1	win	2022-12-14	13:32:32	13:46:34	841423	5c4e9bd1818d4d00013e8859	957968026	1	main_slash	11	advance_on_keypress_SLASH	4	stimuli_target_squaretriangles.svg	stimuli_distractor_diamondtriangles.svg	7	yes	57	0	455
6.6.1	win	2022-12-14	13:32:32	13:46:36	842870	5c4e9bd1818d4d00013e8859	957968026	1	main_slash	11	main_slash	5	stimuli_target_diamondcircles.svg	stimuli_distractor_diamondtriangles.svg	23	yes	53	1	346
6.6.1	win	2022-12-14	13:32:32	13:46:36	842870	5c4e9bd1818d4d00013e8859	957968026	1	main_slash	11	advance_on_keypress_SLASH	6	stimuli_target_diamondcircles.svg	stimuli_distractor_diamondtriangles.svg	23	yes	57	0	387
6.6.1	win	2022-12-14	13:32:32	13:46:37	844190	5c4e9bd1818d4d00013e8859	957968026	1	main_slash	11	main_slash	7	stimuli_distractor_diamondtriangles.svg	stimuli_distractor_trianglediamonds.svg	38	no	53	0	298
6.6.1	win	2022-12-14	13:32:32	13:46:37	844190	5c4e9bd1818d4d00013e8859	957968026	1	main_slash	11	advance_on_keypress_SLASH	8	stimuli_distractor_diamondtriangles.svg	stimuli_distractor_trianglediamonds.svg	38	no	57	0	437
6.6.1	win	2022-12-14	13:32:32	13:46:39	845911	5c4e9bd1818d4d00013e8859	957968026	1	main_slash	11	main_slash	9	stimuli_distractor_diamondtriangles.svg	stimuli_target_trianglesquares.svg	30	yes	53	1	634
6.6.1	win	2022-12-14	13:32:32	13:46:39	845911	5c4e9bd1818d4d00013e8859	957968026	1	main_slash	11	advance_on_keypress_SLASH	10	stimuli_distractor_diamondtriangles.svg	stimuli_target_trianglesquares.svg	30	yes	57	0	375
6.6.1	win	2022-12-14	13:32:32	13:46:40	847318	5c4e9bd1818d4d00013e8859	957968026	1	main_slash	11	main_slash	11	stimuli_distractor_trianglediamonds.svg	stimuli_target_circlediamonds.svg	10	yes	53	1	391
6.6.1	win	2022-12-14	13:32:32	13:46:40	847318	5c4e9bd1818d4d00013e8859	957968026	1	main_slash	11	advance_on_keypress_SLASH	12	stimuli_distractor_trianglediamonds.svg	stimuli_target_circlediamonds.svg	10	yes	57	0	414
6.6.1	win	2022-12-14	13:32:32	13:46:42	848670	5c4e9bd1818d4d00013e8859	957968026	1	main_slash	11	main_slash	13	stimuli_distractor_trianglediamonds.svg	stimuli_target_circletriangles.svg	9	yes	53	1	292
6.6.1	win	2022-12-14	13:32:32	13:46:42	848670	5c4e9bd1818d4d00013e8859	957968026	1	main_slash	11	advance_on_keypress_SLASH	14	stimuli_distractor_trianglediamonds.svg	stimuli_target_circletriangles.svg	9	yes	57	0	335
6.6.1	win	2022-12-14	13:32:32	13:46:43	849991	5c4e9bd1818d4d00013e8859	957968026	1	main_slash	11	main_slash	15	stimuli_distractor_trianglediamonds.svg	stimuli_target_squarediamonds.svg	12	yes	53	1	344
6.6.1	win	2022-12-14	13:32:32	13:46:43	849991	5c4e9bd1818d4d00013e8859	957968026	1	main_slash	11	advance_on_keypress_SLASH	16	stimuli_distractor_trianglediamonds.svg	stimuli_target_squarediamonds.svg	12	yes	57	0	290
6.6.1	win	2022-12-14	13:32:32	13:46:44	851567	5c4e9bd1818d4d00013e8859	957968026	1	main_slash	11	main_slash	17	stimuli_distractor_trianglediamonds.svg	stimuli_target_trianglecircles.svg	25	yes	53	1	653
6.6.1	win	2022-12-14	13:32:32	13:46:44	851567	5c4e9bd1818d4d00013e8859	957968026	1	main_slash	11	advance_on_keypress_SLASH	18	stimuli_distractor_trianglediamonds.svg	stimuli_target_trianglecircles.svg	25	yes	57	0	337
6.6.1	win	2022-12-14	13:32:32	13:46:46	853110	5c4e9bd1818d4d00013e8859	957968026	1	main_slash	11	main_slash	19	stimuli_target_squaretriangles.svg	stimuli_distractor_trianglediamonds.svg	3	yes	53	1	562
6.6.1	win	2022-12-14	13:32:32	13:46:46	853110	5c4e9bd1818d4d00013e8859	957968026	1	main_slash	11	advance_on_keypress_SLASH	20	stimuli_target_squaretriangles.svg	stimuli_distractor_trianglediamonds.svg	3	yes	57	0	283
6.6.1	win	2022-12-14	13:32:32	13:46:49	856033	5c4e9bd1818d4d00013e8859	957968026	1	main_slash	11	main_slash	21	stimuli_distractor_trianglediamonds.svg	stimuli_distractor_trianglediamonds.svg	33	no	0	1	2000
6.6.1	win	2022-12-14	13:32:32	13:46:49	856033	5c4e9bd1818d4d00013e8859	957968026	1	main_slash	11	advance_on_keypress_SLASH	22	stimuli_distractor_trianglediamonds.svg	stimuli_distractor_trianglediamonds.svg	33	no	57	0	307
6.6.1	win	2022-12-14	13:32:32	13:46:50	857511	5c4e9bd1818d4d00013e8859	957968026	1	main_slash	11	main_slash	23	stimuli_distractor_trianglediamonds.svg	stimuli_distractor_diamondtriangles.svg	36	no	53	0	525
6.6.1	win	2022-12-14	13:32:32	13:46:50	857511	5c4e9bd1818d4d00013e8859	957968026	1	main_slash	11	advance_on_keypress_SLASH	24	stimuli_distractor_trianglediamonds.svg	stimuli_distractor_diamondtriangles.svg	36	no	57	0	415
6.6.1	win	2022-12-14	13:32:32	13:46:52	859295	5c4e9bd1818d4d00013e8859	957968026	1	main_slash	11	main_slash	25	stimuli_distractor_diamondtriangles.svg	stimuli_target_diamondsquares.svg	32	yes	53	1	725
6.6.1	win	2022-12-14	13:32:32	13:46:52	859295	5c4e9bd1818d4d00013e8859	957968026	1	main_slash	11	advance_on_keypress_SLASH	26	stimuli_distractor_diamondtriangles.svg	stimuli_target_diamondsquares.svg	32	yes	57	0	287
6.6.1	win	2022-12-14	13:32:32	13:46:55	862221	5c4e9bd1818d4d00013e8859	957968026	1	main_slash	11	main_slash	27	stimuli_distractor_diamondtriangles.svg	stimuli_distractor_diamondtriangles.svg	40	no	0	1	2000
6.6.1	win	2022-12-14	13:32:32	13:46:55	862221	5c4e9bd1818d4d00013e8859	957968026	1	main_slash	11	advance_on_keypress_SLASH	28	stimuli_distractor_diamondtriangles.svg	stimuli_distractor_diamondtriangles.svg	40	no	57	0	455
6.6.1	win	2022-12-14	13:32:32	13:46:57	863942	5c4e9bd1818d4d00013e8859	957968026	1	main_slash	11	main_slash	29	stimuli_distractor_diamondtriangles.svg	stimuli_target_diamondcircles.svg	31	yes	53	1	619
6.6.1	win	2022-12-14	13:32:32	13:46:57	863942	5c4e9bd1818d4d00013e8859	957968026	1	main_slash	11	advance_on_keypress_SLASH	30	stimuli_distractor_diamondtriangles.svg	stimuli_target_diamondcircles.svg	31	yes	57	0	297
6.6.1	win	2022-12-14	13:32:32	13:46:58	865487	5c4e9bd1818d4d00013e8859	957968026	1	main_slash	11	main_slash	31	stimuli_distractor_diamondtriangles.svg	stimuli_target_squarediamonds.svg	16	yes	53	1	612
6.6.1	win	2022-12-14	13:32:32	13:46:58	865487	5c4e9bd1818d4d00013e8859	957968026	1	main_slash	11	advance_on_keypress_SLASH	32	stimuli_distractor_diamondtriangles.svg	stimuli_target_squarediamonds.svg	16	yes	57	0	267
6.6.1	win	2022-12-14	13:32:32	13:47:00	867022	5c4e9bd1818d4d00013e8859	957968026	1	main_slash	11	main_slash	33	stimuli_target_diamondcircles.svg	stimuli_distractor_trianglediamonds.svg	19	yes	53	1	630
6.6.1	win	2022-12-14	13:32:32	13:47:00	867022	5c4e9bd1818d4d00013e8859	957968026	1	main_slash	11	advance_on_keypress_SLASH	34	stimuli_target_diamondcircles.svg	stimuli_distractor_trianglediamonds.svg	19	yes	57	0	252
6.6.1	win	2022-12-14	13:32:32	13:47:01	868334	5c4e9bd1818d4d00013e8859	957968026	1	main_slash	11	main_slash	35	stimuli_distractor_diamondtriangles.svg	stimuli_target_trianglecircles.svg	29	yes	53	1	425
6.6.1	win	2022-12-14	13:32:32	13:47:01	868334	5c4e9bd1818d4d00013e8859	957968026	1	main_slash	11	advance_on_keypress_SLASH	36	stimuli_distractor_diamondtriangles.svg	stimuli_target_trianglecircles.svg	29	yes	57	0	286
6.6.1	win	2022-12-14	13:32:32	13:47:03	869590	5c4e9bd1818d4d00013e8859	957968026	1	main_slash	11	main_slash	37	stimuli_distractor_trianglediamonds.svg	stimuli_target_diamondcircles.svg	27	yes	53	1	330
6.6.1	win	2022-12-14	13:32:32	13:47:03	869590	5c4e9bd1818d4d00013e8859	957968026	1	main_slash	11	advance_on_keypress_SLASH	38	stimuli_distractor_trianglediamonds.svg	stimuli_target_diamondcircles.svg	27	yes	57	0	237
6.6.1	win	2022-12-14	13:32:32	13:47:04	871007	5c4e9bd1818d4d00013e8859	957968026	1	main_slash	11	main_slash	39	stimuli_target_diamondsquares.svg	stimuli_distractor_diamondtriangles.svg	24	yes	53	1	546
6.6.1	win	2022-12-14	13:32:32	13:47:04	871007	5c4e9bd1818d4d00013e8859	957968026	1	main_slash	11	advance_on_keypress_SLASH	40	stimuli_target_diamondsquares.svg	stimuli_distractor_diamondtriangles.svg	24	yes	57	0	218
6.6.1	win	2022-12-14	13:32:32	13:47:05	872326	5c4e9bd1818d4d00013e8859	957968026	1	main_slash	11	main_slash	41	stimuli_target_circletriangles.svg	stimuli_distractor_trianglediamonds.svg	1	yes	53	1	464
6.6.1	win	2022-12-14	13:32:32	13:47:05	872326	5c4e9bd1818d4d00013e8859	957968026	1	main_slash	11	advance_on_keypress_SLASH	42	stimuli_target_circletriangles.svg	stimuli_distractor_trianglediamonds.svg	1	yes	57	0	220
6.6.1	win	2022-12-14	13:32:32	13:47:06	873566	5c4e9bd1818d4d00013e8859	957968026	1	main_slash	11	main_slash	43	stimuli_distractor_diamondtriangles.svg	stimuli_target_circlediamonds.svg	14	yes	53	1	386
6.6.1	win	2022-12-14	13:32:32	13:47:06	873566	5c4e9bd1818d4d00013e8859	957968026	1	main_slash	11	advance_on_keypress_SLASH	44	stimuli_distractor_diamondtriangles.svg	stimuli_target_circlediamonds.svg	14	yes	57	0	201
6.6.1	win	2022-12-14	13:32:32	13:47:09	876415	5c4e9bd1818d4d00013e8859	957968026	1	main_slash	11	main_slash	45	stimuli_distractor_diamondtriangles.svg	stimuli_distractor_diamondtriangles.svg	39	no	0	1	2000
6.6.1	win	2022-12-14	13:32:32	13:47:09	876415	5c4e9bd1818d4d00013e8859	957968026	1	main_slash	11	advance_on_keypress_SLASH	46	stimuli_distractor_diamondtriangles.svg	stimuli_distractor_diamondtriangles.svg	39	no	57	0	565
6.6.1	win	2022-12-14	13:32:32	13:47:11	878030	5c4e9bd1818d4d00013e8859	957968026	1	main_slash	11	main_slash	47	stimuli_target_trianglesquares.svg	stimuli_distractor_trianglediamonds.svg	18	yes	53	1	397
6.6.1	win	2022-12-14	13:32:32	13:47:11	878030	5c4e9bd1818d4d00013e8859	957968026	1	main_slash	11	advance_on_keypress_SLASH	48	stimuli_target_trianglesquares.svg	stimuli_distractor_trianglediamonds.svg	18	yes	57	0	317
6.6.1	win	2022-12-14	13:32:32	13:47:12	879286	5c4e9bd1818d4d00013e8859	957968026	1	main_slash	11	main_slash	49	stimuli_distractor_diamondtriangles.svg	stimuli_target_squaretriangles.svg	15	yes	53	1	302
6.6.1	win	2022-12-14	13:32:32	13:47:12	879286	5c4e9bd1818d4d00013e8859	957968026	1	main_slash	11	advance_on_keypress_SLASH	50	stimuli_distractor_diamondtriangles.svg	stimuli_target_squaretriangles.svg	15	yes	57	0	256
6.6.1	win	2022-12-14	13:32:32	13:47:13	880550	5c4e9bd1818d4d00013e8859	957968026	1	main_slash	11	main_slash	51	stimuli_distractor_trianglediamonds.svg	stimuli_target_trianglesquares.svg	26	yes	53	1	365
6.6.1	win	2022-12-14	13:32:32	13:47:13	880550	5c4e9bd1818d4d00013e8859	957968026	1	main_slash	11	advance_on_keypress_SLASH	52	stimuli_distractor_trianglediamonds.svg	stimuli_target_trianglesquares.svg	26	yes	57	0	213
6.6.1	win	2022-12-14	13:32:32	13:47:15	881766	5c4e9bd1818d4d00013e8859	957968026	1	main_slash	11	main_slash	53	stimuli_target_trianglecircles.svg	stimuli_distractor_diamondtriangles.svg	21	yes	53	1	363
6.6.1	win	2022-12-14	13:32:32	13:47:15	881766	5c4e9bd1818d4d00013e8859	957968026	1	main_slash	11	advance_on_keypress_SLASH	54	stimuli_target_trianglecircles.svg	stimuli_distractor_diamondtriangles.svg	21	yes	57	0	196
6.6.1	win	2022-12-14	13:32:32	13:47:16	882935	5c4e9bd1818d4d00013e8859	957968026	1	main_slash	11	main_slash	55	stimuli_target_trianglesquares.svg	stimuli_distractor_diamondtriangles.svg	22	yes	53	1	347
6.6.1	win	2022-12-14	13:32:32	13:47:16	882935	5c4e9bd1818d4d00013e8859	957968026	1	main_slash	11	advance_on_keypress_SLASH	56	stimuli_target_trianglesquares.svg	stimuli_distractor_diamondtriangles.svg	22	yes	57	0	188
6.6.1	win	2022-12-14	13:32:32	13:47:17	884086	5c4e9bd1818d4d00013e8859	957968026	1	main_slash	11	main_slash	57	stimuli_distractor_trianglediamonds.svg	stimuli_target_diamondsquares.svg	28	yes	53	1	331
6.6.1	win	2022-12-14	13:32:32	13:47:17	884086	5c4e9bd1818d4d00013e8859	957968026	1	main_slash	11	advance_on_keypress_SLASH	58	stimuli_distractor_trianglediamonds.svg	stimuli_target_diamondsquares.svg	28	yes	57	0	173
6.6.1	win	2022-12-14	13:32:32	13:47:18	885289	5c4e9bd1818d4d00013e8859	957968026	1	main_slash	11	main_slash	59	stimuli_target_trianglecircles.svg	stimuli_distractor_trianglediamonds.svg	17	yes	53	1	374
6.6.1	win	2022-12-14	13:32:32	13:47:18	885289	5c4e9bd1818d4d00013e8859	957968026	1	main_slash	11	advance_on_keypress_SLASH	60	stimuli_target_trianglecircles.svg	stimuli_distractor_trianglediamonds.svg	17	yes	57	0	124
6.6.1	win	2022-12-14	13:32:32	13:47:19	886366	5c4e9bd1818d4d00013e8859	957968026	1	main_slash	11	main_slash	61	stimuli_target_diamondsquares.svg	stimuli_distractor_trianglediamonds.svg	20	yes	53	1	310
6.6.1	win	2022-12-14	13:32:32	13:47:19	886366	5c4e9bd1818d4d00013e8859	957968026	1	main_slash	11	advance_on_keypress_SLASH	62	stimuli_target_diamondsquares.svg	stimuli_distractor_trianglediamonds.svg	20	yes	57	0	208
6.6.1	win	2022-12-14	13:32:32	13:47:21	887694	5c4e9bd1818d4d00013e8859	957968026	1	main_slash	11	main_slash	63	stimuli_target_circlediamonds.svg	stimuli_distractor_trianglediamonds.svg	2	yes	53	1	487
6.6.1	win	2022-12-14	13:32:32	13:47:21	887694	5c4e9bd1818d4d00013e8859	957968026	1	main_slash	11	advance_on_keypress_SLASH	64	stimuli_target_circlediamonds.svg	stimuli_distractor_trianglediamonds.svg	2	yes	57	0	610
6.6.1	win	2022-12-14	13:32:32	13:47:22	889478	5c4e9bd1818d4d00013e8859	957968026	1	main_slash	11	main_slash	65	stimuli_distractor_trianglediamonds.svg	stimuli_target_squaretriangles.svg	11	yes	53	1	536
6.6.1	win	2022-12-14	13:32:32	13:47:22	889478	5c4e9bd1818d4d00013e8859	957968026	1	main_slash	11	advance_on_keypress_SLASH	66	stimuli_distractor_trianglediamonds.svg	stimuli_target_squaretriangles.svg	11	yes	57	0	185
6.6.1	win	2022-12-14	13:32:32	13:47:24	890826	5c4e9bd1818d4d00013e8859	957968026	1	main_slash	11	main_slash	67	stimuli_distractor_diamondtriangles.svg	stimuli_distractor_trianglediamonds.svg	37	no	53	0	505
6.6.1	win	2022-12-14	13:32:32	13:47:24	890826	5c4e9bd1818d4d00013e8859	957968026	1	main_slash	11	advance_on_keypress_SLASH	68	stimuli_distractor_diamondtriangles.svg	stimuli_distractor_trianglediamonds.svg	37	no	57	0	234
6.6.1	win	2022-12-14	13:32:32	13:47:27	893711	5c4e9bd1818d4d00013e8859	957968026	1	main_slash	11	main_slash	69	stimuli_target_circletriangles.svg	stimuli_distractor_diamondtriangles.svg	5	yes	0	0	2000
6.6.1	win	2022-12-14	13:32:32	13:47:27	893711	5c4e9bd1818d4d00013e8859	957968026	1	main_slash	11	advance_on_keypress_SLASH	70	stimuli_target_circletriangles.svg	stimuli_distractor_diamondtriangles.svg	5	yes	57	0	1117
6.6.1	win	2022-12-14	13:32:32	13:47:29	895782	5c4e9bd1818d4d00013e8859	957968026	1	main_slash	11	main_slash	71	stimuli_target_circlediamonds.svg	stimuli_distractor_diamondtriangles.svg	6	yes	53	1	302
6.6.1	win	2022-12-14	13:32:32	13:47:29	895782	5c4e9bd1818d4d00013e8859	957968026	1	main_slash	11	advance_on_keypress_SLASH	72	stimuli_target_circlediamonds.svg	stimuli_distractor_diamondtriangles.svg	6	yes	57	0	169
6.6.1	win	2022-12-14	13:32:32	13:47:32	898598	5c4e9bd1818d4d00013e8859	957968026	1	main_slash	11	main_slash	73	stimuli_distractor_trianglediamonds.svg	stimuli_distractor_trianglediamonds.svg	34	no	0	1	2000
6.6.1	win	2022-12-14	13:32:32	13:47:32	898598	5c4e9bd1818d4d00013e8859	957968026	1	main_slash	11	advance_on_keypress_SLASH	74	stimuli_distractor_trianglediamonds.svg	stimuli_distractor_trianglediamonds.svg	34	no	57	0	415
6.6.1	win	2022-12-14	13:32:32	13:47:33	899926	5c4e9bd1818d4d00013e8859	957968026	1	main_slash	11	main_slash	75	stimuli_distractor_diamondtriangles.svg	stimuli_target_circletriangles.svg	13	yes	53	1	260
6.6.1	win	2022-12-14	13:32:32	13:47:33	899926	5c4e9bd1818d4d00013e8859	957968026	1	main_slash	11	advance_on_keypress_SLASH	76	stimuli_distractor_diamondtriangles.svg	stimuli_target_circletriangles.svg	13	yes	57	0	408
6.6.1	win	2022-12-14	13:32:32	13:47:34	901398	5c4e9bd1818d4d00013e8859	957968026	1	main_slash	11	main_slash	77	stimuli_target_squarediamonds.svg	stimuli_distractor_diamondtriangles.svg	8	yes	53	1	431
6.6.1	win	2022-12-14	13:32:32	13:47:34	901398	5c4e9bd1818d4d00013e8859	957968026	1	main_slash	11	advance_on_keypress_SLASH	78	stimuli_target_squarediamonds.svg	stimuli_distractor_diamondtriangles.svg	8	yes	57	0	197
6.6.1	win	2022-12-14	13:32:32	13:47:36	902679	5c4e9bd1818d4d00013e8859	957968026	1	main_slash	11	main_slash	79	stimuli_distractor_trianglediamonds.svg	stimuli_distractor_diamondtriangles.svg	35	no	53	0	460
6.6.1	win	2022-12-14	13:32:32	13:47:36	902679	5c4e9bd1818d4d00013e8859	957968026	1	main_slash	11	advance_on_keypress_SLASH	80	stimuli_distractor_trianglediamonds.svg	stimuli_distractor_diamondtriangles.svg	35	no	57	0	440
6.6.1	win	2022-12-14	13:32:32	13:47:37	904326	5c4e9bd1818d4d00013e8859	957968026	1	main_slash	11	main_slash	81	stimuli_target_circlediamonds.svg	stimuli_distractor_trianglediamonds.svg	2	yes	53	1	573
6.6.1	win	2022-12-14	13:32:32	13:47:37	904326	5c4e9bd1818d4d00013e8859	957968026	1	main_slash	11	advance_on_keypress_SLASH	82	stimuli_target_circlediamonds.svg	stimuli_distractor_trianglediamonds.svg	2	yes	57	0	813
6.6.1	win	2022-12-14	13:32:32	13:47:39	906198	5c4e9bd1818d4d00013e8859	957968026	1	main_slash	11	main_slash	83	stimuli_distractor_trianglediamonds.svg	stimuli_distractor_trianglediamonds.svg	33	no	53	0	427
6.6.1	win	2022-12-14	13:32:32	13:47:39	906198	5c4e9bd1818d4d00013e8859	957968026	1	main_slash	11	advance_on_keypress_SLASH	84	stimuli_distractor_trianglediamonds.svg	stimuli_distractor_trianglediamonds.svg	33	no	57	0	353
6.6.1	win	2022-12-14	13:32:32	13:47:42	909189	5c4e9bd1818d4d00013e8859	957968026	1	main_slash	11	main_slash	85	stimuli_target_trianglecircles.svg	stimuli_distractor_diamondtriangles.svg	21	yes	0	0	2000
6.6.1	win	2022-12-14	13:32:32	13:47:42	909189	5c4e9bd1818d4d00013e8859	957968026	1	main_slash	11	advance_on_keypress_SLASH	86	stimuli_target_trianglecircles.svg	stimuli_distractor_diamondtriangles.svg	21	yes	57	0	399
6.6.1	win	2022-12-14	13:32:32	13:47:44	910647	5c4e9bd1818d4d00013e8859	957968026	1	main_slash	11	main_slash	87	stimuli_target_diamondsquares.svg	stimuli_distractor_trianglediamonds.svg	20	yes	53	1	406
6.6.1	win	2022-12-14	13:32:32	13:47:44	910647	5c4e9bd1818d4d00013e8859	957968026	1	main_slash	11	advance_on_keypress_SLASH	88	stimuli_target_diamondsquares.svg	stimuli_distractor_trianglediamonds.svg	20	yes	57	0	476
6.6.1	win	2022-12-14	13:32:32	13:47:45	912326	5c4e9bd1818d4d00013e8859	957968026	1	main_slash	11	main_slash	89	stimuli_distractor_diamondtriangles.svg	stimuli_target_circletriangles.svg	13	yes	53	1	567
6.6.1	win	2022-12-14	13:32:32	13:47:45	912326	5c4e9bd1818d4d00013e8859	957968026	1	main_slash	11	advance_on_keypress_SLASH	90	stimuli_distractor_diamondtriangles.svg	stimuli_target_circletriangles.svg	13	yes	57	0	239
6.6.1	win	2022-12-14	13:32:32	13:47:47	913593	5c4e9bd1818d4d00013e8859	957968026	1	main_slash	11	main_slash	91	stimuli_target_trianglesquares.svg	stimuli_distractor_trianglediamonds.svg	18	yes	53	1	380
6.6.1	win	2022-12-14	13:32:32	13:47:47	913593	5c4e9bd1818d4d00013e8859	957968026	1	main_slash	11	advance_on_keypress_SLASH	92	stimuli_target_trianglesquares.svg	stimuli_distractor_trianglediamonds.svg	18	yes	57	0	163
6.6.1	win	2022-12-14	13:32:32	13:47:48	914678	5c4e9bd1818d4d00013e8859	957968026	1	main_slash	11	main_slash	93	stimuli_distractor_trianglediamonds.svg	stimuli_target_diamondcircles.svg	27	yes	53	1	284
6.6.1	win	2022-12-14	13:32:32	13:47:48	914678	5c4e9bd1818d4d00013e8859	957968026	1	main_slash	11	advance_on_keypress_SLASH	94	stimuli_distractor_trianglediamonds.svg	stimuli_target_diamondcircles.svg	27	yes	57	0	119
6.6.1	win	2022-12-14	13:32:32	13:47:50	917445	5c4e9bd1818d4d00013e8859	957968026	1	main_slash	11	main_slash	95	stimuli_distractor_trianglediamonds.svg	stimuli_distractor_diamondtriangles.svg	36	no	0	1	2000
6.6.1	win	2022-12-14	13:32:32	13:47:50	917445	5c4e9bd1818d4d00013e8859	957968026	1	main_slash	11	advance_on_keypress_SLASH	96	stimuli_distractor_trianglediamonds.svg	stimuli_distractor_diamondtriangles.svg	36	no	57	0	367
6.6.1	win	2022-12-14	13:32:32	13:47:52	918895	5c4e9bd1818d4d00013e8859	957968026	1	main_slash	11	main_slash	97	stimuli_distractor_diamondtriangles.svg	stimuli_target_diamondsquares.svg	32	yes	53	1	431
6.6.1	win	2022-12-14	13:32:32	13:47:52	918895	5c4e9bd1818d4d00013e8859	957968026	1	main_slash	11	advance_on_keypress_SLASH	98	stimuli_distractor_diamondtriangles.svg	stimuli_target_diamondsquares.svg	32	yes	57	0	156
6.6.1	win	2022-12-14	13:32:32	13:47:53	920142	5c4e9bd1818d4d00013e8859	957968026	1	main_slash	11	main_slash	99	stimuli_target_circletriangles.svg	stimuli_distractor_diamondtriangles.svg	5	yes	53	1	461
6.6.1	win	2022-12-14	13:32:32	13:47:53	920142	5c4e9bd1818d4d00013e8859	957968026	1	main_slash	11	advance_on_keypress_SLASH	100	stimuli_target_circletriangles.svg	stimuli_distractor_diamondtriangles.svg	5	yes	57	0	105
6.6.1	win	2022-12-14	13:32:32	13:47:56	922883	5c4e9bd1818d4d00013e8859	957968026	1	main_slash	11	main_slash	101	stimuli_distractor_diamondtriangles.svg	stimuli_distractor_diamondtriangles.svg	40	no	0	1	2000
6.6.1	win	2022-12-14	13:32:32	13:47:56	922883	5c4e9bd1818d4d00013e8859	957968026	1	main_slash	11	advance_on_keypress_SLASH	102	stimuli_distractor_diamondtriangles.svg	stimuli_distractor_diamondtriangles.svg	40	no	57	0	313
6.6.1	win	2022-12-14	13:32:32	13:47:57	924119	5c4e9bd1818d4d00013e8859	957968026	1	main_slash	11	main_slash	103	stimuli_target_diamondcircles.svg	stimuli_distractor_trianglediamonds.svg	19	yes	53	1	284
6.6.1	win	2022-12-14	13:32:32	13:47:57	924119	5c4e9bd1818d4d00013e8859	957968026	1	main_slash	11	advance_on_keypress_SLASH	104	stimuli_target_diamondcircles.svg	stimuli_distractor_trianglediamonds.svg	19	yes	57	0	183
6.6.1	win	2022-12-14	13:32:32	13:47:58	925469	5c4e9bd1818d4d00013e8859	957968026	1	main_slash	11	main_slash	105	stimuli_distractor_diamondtriangles.svg	stimuli_target_diamondcircles.svg	31	yes	53	1	504
6.6.1	win	2022-12-14	13:32:32	13:47:58	925469	5c4e9bd1818d4d00013e8859	957968026	1	main_slash	11	advance_on_keypress_SLASH	106	stimuli_distractor_diamondtriangles.svg	stimuli_target_diamondcircles.svg	31	yes	57	0	120
6.6.1	win	2022-12-14	13:32:32	13:48:00	926654	5c4e9bd1818d4d00013e8859	957968026	1	main_slash	11	main_slash	107	stimuli_distractor_trianglediamonds.svg	stimuli_target_circlediamonds.svg	10	yes	53	1	418
6.6.1	win	2022-12-14	13:32:32	13:48:00	926654	5c4e9bd1818d4d00013e8859	957968026	1	main_slash	11	advance_on_keypress_SLASH	108	stimuli_distractor_trianglediamonds.svg	stimuli_target_circlediamonds.svg	10	yes	57	0	160
6.6.1	win	2022-12-14	13:32:32	13:48:01	927902	5c4e9bd1818d4d00013e8859	957968026	1	main_slash	11	main_slash	109	stimuli_distractor_diamondtriangles.svg	stimuli_target_trianglecircles.svg	29	yes	53	1	448
6.6.1	win	2022-12-14	13:32:32	13:48:01	927902	5c4e9bd1818d4d00013e8859	957968026	1	main_slash	11	advance_on_keypress_SLASH	110	stimuli_distractor_diamondtriangles.svg	stimuli_target_trianglecircles.svg	29	yes	57	0	133
6.6.1	win	2022-12-14	13:32:32	13:48:02	929014	5c4e9bd1818d4d00013e8859	957968026	1	main_slash	11	main_slash	111	stimuli_distractor_trianglediamonds.svg	stimuli_target_trianglecircles.svg	25	yes	53	1	326
6.6.1	win	2022-12-14	13:32:32	13:48:02	929014	5c4e9bd1818d4d00013e8859	957968026	1	main_slash	11	advance_on_keypress_SLASH	112	stimuli_distractor_trianglediamonds.svg	stimuli_target_trianglecircles.svg	25	yes	57	0	32
6.6.1	win	2022-12-14	13:32:32	13:48:03	930038	5c4e9bd1818d4d00013e8859	957968026	1	main_slash	11	main_slash	113	stimuli_distractor_diamondtriangles.svg	stimuli_target_squaretriangles.svg	15	yes	53	1	349
6.6.1	win	2022-12-14	13:32:32	13:48:03	930038	5c4e9bd1818d4d00013e8859	957968026	1	main_slash	11	advance_on_keypress_SLASH	114	stimuli_distractor_diamondtriangles.svg	stimuli_target_squaretriangles.svg	15	yes	57	0	62
6.6.1	win	2022-12-14	13:32:32	13:48:04	931206	5c4e9bd1818d4d00013e8859	957968026	1	main_slash	11	main_slash	115	stimuli_target_diamondcircles.svg	stimuli_distractor_diamondtriangles.svg	23	yes	53	1	466
6.6.1	win	2022-12-14	13:32:32	13:48:04	931206	5c4e9bd1818d4d00013e8859	957968026	1	main_slash	11	advance_on_keypress_SLASH	116	stimuli_target_diamondcircles.svg	stimuli_distractor_diamondtriangles.svg	23	yes	57	0	86
6.6.1	win	2022-12-14	13:32:32	13:48:05	932270	5c4e9bd1818d4d00013e8859	957968026	1	main_slash	11	main_slash	117	stimuli_target_trianglecircles.svg	stimuli_distractor_trianglediamonds.svg	17	yes	53	1	330
6.6.1	win	2022-12-14	13:32:32	13:48:05	932270	5c4e9bd1818d4d00013e8859	957968026	1	main_slash	11	advance_on_keypress_SLASH	118	stimuli_target_trianglecircles.svg	stimuli_distractor_trianglediamonds.svg	17	yes	57	0	108
6.6.1	win	2022-12-14	13:32:32	13:48:06	933279	5c4e9bd1818d4d00013e8859	957968026	1	main_slash	11	main_slash	119	stimuli_target_circlediamonds.svg	stimuli_distractor_diamondtriangles.svg	6	yes	53	1	271
6.6.1	win	2022-12-14	13:32:32	13:48:06	933279	5c4e9bd1818d4d00013e8859	957968026	1	main_slash	11	advance_on_keypress_SLASH	120	stimuli_target_circlediamonds.svg	stimuli_distractor_diamondtriangles.svg	6	yes	57	0	130
6.6.1	win	2022-12-14	13:32:32	13:48:07	934366	5c4e9bd1818d4d00013e8859	957968026	1	main_slash	11	main_slash	121	stimuli_target_trianglesquares.svg	stimuli_distractor_diamondtriangles.svg	22	yes	53	1	324
6.6.1	win	2022-12-14	13:32:32	13:48:07	934366	5c4e9bd1818d4d00013e8859	957968026	1	main_slash	11	advance_on_keypress_SLASH	122	stimuli_target_trianglesquares.svg	stimuli_distractor_diamondtriangles.svg	22	yes	57	0	110
6.6.1	win	2022-12-14	13:32:32	13:48:08	935398	5c4e9bd1818d4d00013e8859	957968026	1	main_slash	11	main_slash	123	stimuli_distractor_trianglediamonds.svg	stimuli_target_squaretriangles.svg	11	yes	53	1	289
6.6.1	win	2022-12-14	13:32:32	13:48:08	935398	5c4e9bd1818d4d00013e8859	957968026	1	main_slash	11	advance_on_keypress_SLASH	124	stimuli_distractor_trianglediamonds.svg	stimuli_target_squaretriangles.svg	11	yes	57	0	60
6.6.1	win	2022-12-14	13:32:32	13:48:11	938094	5c4e9bd1818d4d00013e8859	957968026	1	main_slash	11	main_slash	125	stimuli_distractor_diamondtriangles.svg	stimuli_distractor_diamondtriangles.svg	39	no	0	1	2000
6.6.1	win	2022-12-14	13:32:32	13:48:11	938094	5c4e9bd1818d4d00013e8859	957968026	1	main_slash	11	advance_on_keypress_SLASH	126	stimuli_distractor_diamondtriangles.svg	stimuli_distractor_diamondtriangles.svg	39	no	57	0	302
6.6.1	win	2022-12-14	13:32:32	13:48:12	939502	5c4e9bd1818d4d00013e8859	957968026	1	main_slash	11	main_slash	127	stimuli_distractor_diamondtriangles.svg	stimuli_target_squarediamonds.svg	16	yes	53	1	456
6.6.1	win	2022-12-14	13:32:32	13:48:12	939502	5c4e9bd1818d4d00013e8859	957968026	1	main_slash	11	advance_on_keypress_SLASH	128	stimuli_distractor_diamondtriangles.svg	stimuli_target_squarediamonds.svg	16	yes	57	0	125
6.6.1	win	2022-12-14	13:32:32	13:48:14	940719	5c4e9bd1818d4d00013e8859	957968026	1	main_slash	11	main_slash	129	stimuli_distractor_trianglediamonds.svg	stimuli_target_circletriangles.svg	9	yes	53	1	455
6.6.1	win	2022-12-14	13:32:32	13:48:14	940719	5c4e9bd1818d4d00013e8859	957968026	1	main_slash	11	advance_on_keypress_SLASH	130	stimuli_distractor_trianglediamonds.svg	stimuli_target_circletriangles.svg	9	yes	57	0	91
6.6.1	win	2022-12-14	13:32:32	13:48:15	941854	5c4e9bd1818d4d00013e8859	957968026	1	main_slash	11	main_slash	131	stimuli_target_squaretriangles.svg	stimuli_distractor_trianglediamonds.svg	3	yes	53	1	406
6.6.1	win	2022-12-14	13:32:32	13:48:15	941854	5c4e9bd1818d4d00013e8859	957968026	1	main_slash	11	advance_on_keypress_SLASH	132	stimuli_target_squaretriangles.svg	stimuli_distractor_trianglediamonds.svg	3	yes	57	0	85
6.6.1	win	2022-12-14	13:32:32	13:48:16	942910	5c4e9bd1818d4d00013e8859	957968026	1	main_slash	11	main_slash	133	stimuli_distractor_diamondtriangles.svg	stimuli_target_circlediamonds.svg	14	yes	53	1	328
6.6.1	win	2022-12-14	13:32:32	13:48:16	942910	5c4e9bd1818d4d00013e8859	957968026	1	main_slash	11	advance_on_keypress_SLASH	134	stimuli_distractor_diamondtriangles.svg	stimuli_target_circlediamonds.svg	14	yes	57	0	122
6.6.1	win	2022-12-14	13:32:32	13:48:17	944150	5c4e9bd1818d4d00013e8859	957968026	1	main_slash	11	main_slash	135	stimuli_distractor_trianglediamonds.svg	stimuli_target_diamondsquares.svg	28	yes	53	1	484
6.6.1	win	2022-12-14	13:32:32	13:48:17	944150	5c4e9bd1818d4d00013e8859	957968026	1	main_slash	11	advance_on_keypress_SLASH	136	stimuli_distractor_trianglediamonds.svg	stimuli_target_diamondsquares.svg	28	yes	57	0	159
6.6.1	win	2022-12-14	13:32:32	13:48:18	945382	5c4e9bd1818d4d00013e8859	957968026	1	main_slash	11	main_slash	137	stimuli_distractor_diamondtriangles.svg	stimuli_distractor_trianglediamonds.svg	38	no	53	0	432
6.6.1	win	2022-12-14	13:32:32	13:48:18	945382	5c4e9bd1818d4d00013e8859	957968026	1	main_slash	11	advance_on_keypress_SLASH	138	stimuli_distractor_diamondtriangles.svg	stimuli_distractor_trianglediamonds.svg	38	no	57	0	117
6.6.1	win	2022-12-14	13:32:32	13:48:21	948152	5c4e9bd1818d4d00013e8859	957968026	1	main_slash	11	main_slash	139	stimuli_distractor_trianglediamonds.svg	stimuli_distractor_trianglediamonds.svg	34	no	0	1	2000
6.6.1	win	2022-12-14	13:32:32	13:48:21	948152	5c4e9bd1818d4d00013e8859	957968026	1	main_slash	11	advance_on_keypress_SLASH	140	stimuli_distractor_trianglediamonds.svg	stimuli_distractor_trianglediamonds.svg	34	no	57	0	292
6.6.1	win	2022-12-14	13:32:32	13:48:22	949470	5c4e9bd1818d4d00013e8859	957968026	1	main_slash	11	main_slash	141	stimuli_target_diamondsquares.svg	stimuli_distractor_diamondtriangles.svg	24	yes	53	1	375
6.6.1	win	2022-12-14	13:32:32	13:48:22	949470	5c4e9bd1818d4d00013e8859	957968026	1	main_slash	11	advance_on_keypress_SLASH	142	stimuli_target_diamondsquares.svg	stimuli_distractor_diamondtriangles.svg	24	yes	57	0	167
6.6.1	win	2022-12-14	13:32:32	13:48:24	950622	5c4e9bd1818d4d00013e8859	957968026	1	main_slash	11	main_slash	143	stimuli_distractor_trianglediamonds.svg	stimuli_target_squarediamonds.svg	12	yes	53	1	335
6.6.1	win	2022-12-14	13:32:32	13:48:24	950622	5c4e9bd1818d4d00013e8859	957968026	1	main_slash	11	advance_on_keypress_SLASH	144	stimuli_distractor_trianglediamonds.svg	stimuli_target_squarediamonds.svg	12	yes	57	0	112
6.6.1	win	2022-12-14	13:32:32	13:48:26	953372	5c4e9bd1818d4d00013e8859	957968026	1	main_slash	11	main_slash	145	stimuli_distractor_diamondtriangles.svg	stimuli_distractor_trianglediamonds.svg	37	no	0	1	2000
6.6.1	win	2022-12-14	13:32:32	13:48:26	953372	5c4e9bd1818d4d00013e8859	957968026	1	main_slash	11	advance_on_keypress_SLASH	146	stimuli_distractor_diamondtriangles.svg	stimuli_distractor_trianglediamonds.svg	37	no	57	0	328
6.6.1	win	2022-12-14	13:32:32	13:48:28	954790	5c4e9bd1818d4d00013e8859	957968026	1	main_slash	11	main_slash	147	stimuli_target_squaretriangles.svg	stimuli_distractor_diamondtriangles.svg	7	yes	53	1	450
6.6.1	win	2022-12-14	13:32:32	13:48:28	954790	5c4e9bd1818d4d00013e8859	957968026	1	main_slash	11	advance_on_keypress_SLASH	148	stimuli_target_squaretriangles.svg	stimuli_distractor_diamondtriangles.svg	7	yes	57	0	78
6.6.1	win	2022-12-14	13:32:32	13:48:29	955950	5c4e9bd1818d4d00013e8859	957968026	1	main_slash	11	main_slash	149	stimuli_target_squarediamonds.svg	stimuli_distractor_diamondtriangles.svg	8	yes	53	1	442
6.6.1	win	2022-12-14	13:32:32	13:48:29	955950	5c4e9bd1818d4d00013e8859	957968026	1	main_slash	11	advance_on_keypress_SLASH	150	stimuli_target_squarediamonds.svg	stimuli_distractor_diamondtriangles.svg	8	yes	57	0	119
6.6.1	win	2022-12-14	13:32:32	13:48:30	957030	5c4e9bd1818d4d00013e8859	957968026	1	main_slash	11	main_slash	151	stimuli_target_squarediamonds.svg	stimuli_distractor_trianglediamonds.svg	4	yes	53	1	321
6.6.1	win	2022-12-14	13:32:32	13:48:30	957030	5c4e9bd1818d4d00013e8859	957968026	1	main_slash	11	advance_on_keypress_SLASH	152	stimuli_target_squarediamonds.svg	stimuli_distractor_trianglediamonds.svg	4	yes	57	0	99
6.6.1	win	2022-12-14	13:32:32	13:48:31	958094	5c4e9bd1818d4d00013e8859	957968026	1	main_slash	11	main_slash	153	stimuli_distractor_diamondtriangles.svg	stimuli_target_trianglesquares.svg	30	yes	53	1	318
6.6.1	win	2022-12-14	13:32:32	13:48:31	958094	5c4e9bd1818d4d00013e8859	957968026	1	main_slash	11	advance_on_keypress_SLASH	154	stimuli_distractor_diamondtriangles.svg	stimuli_target_trianglesquares.svg	30	yes	57	0	104
6.6.1	win	2022-12-14	13:32:32	13:48:34	960844	5c4e9bd1818d4d00013e8859	957968026	1	main_slash	11	main_slash	155	stimuli_distractor_trianglediamonds.svg	stimuli_target_trianglesquares.svg	26	yes	0	0	2000
6.6.1	win	2022-12-14	13:32:32	13:48:34	960844	5c4e9bd1818d4d00013e8859	957968026	1	main_slash	11	advance_on_keypress_SLASH	156	stimuli_distractor_trianglediamonds.svg	stimuli_target_trianglesquares.svg	26	yes	57	0	656
6.6.1	win	2022-12-14	13:32:32	13:48:37	964147	5c4e9bd1818d4d00013e8859	957968026	1	main_slash	11	main_slash	157	stimuli_distractor_trianglediamonds.svg	stimuli_distractor_diamondtriangles.svg	35	no	0	1	2000
6.6.1	win	2022-12-14	13:32:32	13:48:37	964147	5c4e9bd1818d4d00013e8859	957968026	1	main_slash	11	advance_on_keypress_SLASH	158	stimuli_distractor_trianglediamonds.svg	stimuli_distractor_diamondtriangles.svg	35	no	57	0	473
6.6.1	win	2022-12-14	13:32:32	13:48:38	965486	5c4e9bd1818d4d00013e8859	957968026	1	main_slash	11	main_slash	159	stimuli_target_circletriangles.svg	stimuli_distractor_trianglediamonds.svg	1	yes	53	1	221
6.6.1	win	2022-12-14	13:32:32	13:48:38	965486	5c4e9bd1818d4d00013e8859	957968026	1	main_slash	11	advance_on_keypress_SLASH	160	stimuli_target_circletriangles.svg	stimuli_distractor_trianglediamonds.svg	1	yes	57	0	91