build	computer.platform	date	time	timestamp	time_elapsed_ms	subject	group	session	blockcode	blocknum	trialcode	trialnum	stimulus_left	stimulus_right	stim_index	target_present	response	correct	latency
6.6.1	win	2022-12-15	01:38:22	01:40:54	150641	5bc0ac845a09ea00012e2d30	803688743	1	practice_slash	5	practice_slash	1	stimuli_distractor_diamondtriangles.svg	stimuli_target_diamondcircles.svg	8	yes	53	1	611
6.6.1	win	2022-12-15	01:38:22	01:40:54	150641	5bc0ac845a09ea00012e2d30	803688743	1	practice_slash	5	advance_on_keypress_SLASH	2	stimuli_distractor_diamondtriangles.svg	stimuli_target_diamondcircles.svg	8	yes	57	0	1418
6.6.1	win	2022-12-15	01:38:22	01:40:57	154026	5bc0ac845a09ea00012e2d30	803688743	1	practice_slash	5	practice_slash	3	stimuli_distractor_trianglediamonds.svg	stimuli_target_circlediamonds.svg	10	yes	53	1	343
6.6.1	win	2022-12-15	01:38:22	01:40:57	154026	5bc0ac845a09ea00012e2d30	803688743	1	practice_slash	5	advance_on_keypress_SLASH	4	stimuli_distractor_trianglediamonds.svg	stimuli_target_circlediamonds.svg	10	yes	57	0	625
6.6.1	win	2022-12-15	01:38:22	01:41:00	156611	5bc0ac845a09ea00012e2d30	803688743	1	practice_slash	5	practice_slash	5	stimuli_distractor_diamondtriangles.svg	stimuli_target_circletriangles.svg	7	yes	53	1	344
6.6.1	win	2022-12-15	01:38:22	01:41:00	156611	5bc0ac845a09ea00012e2d30	803688743	1	practice_slash	5	advance_on_keypress_SLASH	6	stimuli_distractor_diamondtriangles.svg	stimuli_target_circletriangles.svg	7	yes	57	0	522
6.6.1	win	2022-12-15	01:38:22	01:41:02	159309	5bc0ac845a09ea00012e2d30	803688743	1	practice_slash	5	practice_slash	7	stimuli_distractor_trianglediamonds.svg	stimuli_target_diamondcircles.svg	12	yes	53	1	548
6.6.1	win	2022-12-15	01:38:22	01:41:02	159309	5bc0ac845a09ea00012e2d30	803688743	1	practice_slash	5	advance_on_keypress_SLASH	8	stimuli_distractor_trianglediamonds.svg	stimuli_target_diamondcircles.svg	12	yes	57	0	761
6.6.1	win	2022-12-15	01:38:22	01:41:05	162020	5bc0ac845a09ea00012e2d30	803688743	1	practice_slash	5	practice_slash	9	stimuli_distractor_diamondtriangles.svg	stimuli_target_trianglecircles.svg	9	yes	53	1	329
6.6.1	win	2022-12-15	01:38:22	01:41:05	162020	5bc0ac845a09ea00012e2d30	803688743	1	practice_slash	5	advance_on_keypress_SLASH	10	stimuli_distractor_diamondtriangles.svg	stimuli_target_trianglecircles.svg	9	yes	57	0	471
6.6.1	win	2022-12-15	01:38:22	01:41:08	164543	5bc0ac845a09ea00012e2d30	803688743	1	practice_slash	5	practice_slash	11	stimuli_target_diamondsquares.svg	stimuli_distractor_diamondtriangles.svg	3	yes	53	1	436
6.6.1	win	2022-12-15	01:38:22	01:41:08	164543	5bc0ac845a09ea00012e2d30	803688743	1	practice_slash	5	advance_on_keypress_SLASH	12	stimuli_target_diamondsquares.svg	stimuli_distractor_diamondtriangles.svg	3	yes	57	0	634
6.6.1	win	2022-12-15	01:38:22	01:41:11	167432	5bc0ac845a09ea00012e2d30	803688743	1	practice_slash	5	practice_slash	13	stimuli_distractor_trianglediamonds.svg	stimuli_distractor_diamondtriangles.svg	16	no	53	0	638
6.6.1	win	2022-12-15	01:38:22	01:41:11	167432	5bc0ac845a09ea00012e2d30	803688743	1	practice_slash	5	advance_on_keypress_SLASH	14	stimuli_distractor_trianglediamonds.svg	stimuli_distractor_diamondtriangles.svg	16	no	57	0	552
6.6.1	win	2022-12-15	01:38:22	01:41:13	170267	5bc0ac845a09ea00012e2d30	803688743	1	practice_slash	5	practice_slash	15	stimuli_target_circlediamonds.svg	stimuli_distractor_diamondtriangles.svg	1	yes	53	1	659
6.6.1	win	2022-12-15	01:38:22	01:41:13	170267	5bc0ac845a09ea00012e2d30	803688743	1	practice_slash	5	advance_on_keypress_SLASH	16	stimuli_target_circlediamonds.svg	stimuli_distractor_diamondtriangles.svg	1	yes	57	0	459
6.6.1	win	2022-12-15	01:38:22	01:41:16	172886	5bc0ac845a09ea00012e2d30	803688743	1	practice_slash	5	practice_slash	17	stimuli_target_squarediamonds.svg	stimuli_distractor_diamondtriangles.svg	2	yes	53	1	543
6.6.1	win	2022-12-15	01:38:22	01:41:16	172886	5bc0ac845a09ea00012e2d30	803688743	1	practice_slash	5	advance_on_keypress_SLASH	18	stimuli_target_squarediamonds.svg	stimuli_distractor_diamondtriangles.svg	2	yes	57	0	486
6.6.1	win	2022-12-15	01:38:22	01:41:19	175409	5bc0ac845a09ea00012e2d30	803688743	1	practice_slash	5	practice_slash	19	stimuli_target_squarediamonds.svg	stimuli_distractor_trianglediamonds.svg	5	yes	53	1	420
6.6.1	win	2022-12-15	01:38:22	01:41:19	175409	5bc0ac845a09ea00012e2d30	803688743	1	practice_slash	5	advance_on_keypress_SLASH	20	stimuli_target_squarediamonds.svg	stimuli_distractor_trianglediamonds.svg	5	yes	57	0	691
6.6.1	win	2022-12-15	01:38:22	01:41:21	178231	5bc0ac845a09ea00012e2d30	803688743	1	practice_slash	5	practice_slash	21	stimuli_distractor_trianglediamonds.svg	stimuli_distractor_trianglediamonds.svg	15	no	53	0	505
6.6.1	win	2022-12-15	01:38:22	01:41:21	178231	5bc0ac845a09ea00012e2d30	803688743	1	practice_slash	5	advance_on_keypress_SLASH	22	stimuli_distractor_trianglediamonds.svg	stimuli_distractor_trianglediamonds.svg	15	no	57	0	334
6.6.1	win	2022-12-15	01:38:22	01:41:25	182186	5bc0ac845a09ea00012e2d30	803688743	1	practice_slash	5	practice_slash	23	stimuli_target_diamondsquares.svg	stimuli_distractor_trianglediamonds.svg	6	yes	0	0	2003
6.6.1	win	2022-12-15	01:38:22	01:41:25	182186	5bc0ac845a09ea00012e2d30	803688743	1	practice_slash	5	advance_on_keypress_SLASH	24	stimuli_target_diamondsquares.svg	stimuli_distractor_trianglediamonds.svg	6	yes	57	0	545
6.6.1	win	2022-12-15	01:38:22	01:41:28	185001	5bc0ac845a09ea00012e2d30	803688743	1	practice_slash	5	practice_slash	25	stimuli_distractor_diamondtriangles.svg	stimuli_distractor_diamondtriangles.svg	13	no	53	0	651
6.6.1	win	2022-12-15	01:38:22	01:41:28	185001	5bc0ac845a09ea00012e2d30	803688743	1	practice_slash	5	advance_on_keypress_SLASH	26	stimuli_distractor_diamondtriangles.svg	stimuli_distractor_diamondtriangles.svg	13	no	57	0	428
6.6.1	win	2022-12-15	01:38:22	01:41:31	187591	5bc0ac845a09ea00012e2d30	803688743	1	practice_slash	5	practice_slash	27	stimuli_target_circlediamonds.svg	stimuli_distractor_trianglediamonds.svg	4	yes	53	1	540
6.6.1	win	2022-12-15	01:38:22	01:41:31	187591	5bc0ac845a09ea00012e2d30	803688743	1	practice_slash	5	advance_on_keypress_SLASH	28	stimuli_target_circlediamonds.svg	stimuli_distractor_trianglediamonds.svg	4	yes	57	0	692
6.6.1	win	2022-12-15	01:38:22	01:41:34	191138	5bc0ac845a09ea00012e2d30	803688743	1	practice_slash	5	practice_slash	29	stimuli_distractor_diamondtriangles.svg	stimuli_distractor_trianglediamonds.svg	14	no	53	0	1224
6.6.1	win	2022-12-15	01:38:22	01:41:34	191138	5bc0ac845a09ea00012e2d30	803688743	1	practice_slash	5	advance_on_keypress_SLASH	30	stimuli_distractor_diamondtriangles.svg	stimuli_distractor_trianglediamonds.svg	14	no	57	0	449
6.6.1	win	2022-12-15	01:38:22	01:41:37	193800	5bc0ac845a09ea00012e2d30	803688743	1	practice_slash	5	practice_slash	31	stimuli_distractor_trianglediamonds.svg	stimuli_target_squarediamonds.svg	11	yes	53	1	597
6.6.1	win	2022-12-15	01:38:22	01:41:37	193800	5bc0ac845a09ea00012e2d30	803688743	1	practice_slash	5	advance_on_keypress_SLASH	32	stimuli_distractor_trianglediamonds.svg	stimuli_target_squarediamonds.svg	11	yes	57	0	545
6.6.1	win	2022-12-15	01:38:22	01:41:46	202541	5bc0ac845a09ea00012e2d30	803688743	1	main_slash	7	main_slash	1	stimuli_target_trianglecircles.svg	stimuli_distractor_diamondtriangles.svg	21	yes	53	1	352
6.6.1	win	2022-12-15	01:38:22	01:41:46	202541	5bc0ac845a09ea00012e2d30	803688743	1	main_slash	7	advance_on_keypress_SLASH	2	stimuli_target_trianglecircles.svg	stimuli_distractor_diamondtriangles.svg	21	yes	57	0	1222
6.6.1	win	2022-12-15	01:38:22	01:41:48	204694	5bc0ac845a09ea00012e2d30	803688743	1	main_slash	7	main_slash	3	stimuli_target_circletriangles.svg	stimuli_distractor_diamondtriangles.svg	5	yes	53	1	311
6.6.1	win	2022-12-15	01:38:22	01:41:48	204694	5bc0ac845a09ea00012e2d30	803688743	1	main_slash	7	advance_on_keypress_SLASH	4	stimuli_target_circletriangles.svg	stimuli_distractor_diamondtriangles.svg	5	yes	57	0	651
6.6.1	win	2022-12-15	01:38:22	01:41:49	206324	5bc0ac845a09ea00012e2d30	803688743	1	main_slash	7	main_slash	5	stimuli_target_circlediamonds.svg	stimuli_distractor_diamondtriangles.svg	6	yes	53	1	358
6.6.1	win	2022-12-15	01:38:22	01:41:49	206324	5bc0ac845a09ea00012e2d30	803688743	1	main_slash	7	advance_on_keypress_SLASH	6	stimuli_target_circlediamonds.svg	stimuli_distractor_diamondtriangles.svg	6	yes	57	0	1171
6.6.1	win	2022-12-15	01:38:22	01:41:53	210108	5bc0ac845a09ea00012e2d30	803688743	1	main_slash	7	main_slash	7	stimuli_distractor_diamondtriangles.svg	stimuli_distractor_diamondtriangles.svg	40	no	0	1	2003
6.6.1	win	2022-12-15	01:38:22	01:41:53	210108	5bc0ac845a09ea00012e2d30	803688743	1	main_slash	7	advance_on_keypress_SLASH	8	stimuli_distractor_diamondtriangles.svg	stimuli_distractor_diamondtriangles.svg	40	no	57	0	535
6.6.1	win	2022-12-15	01:38:22	01:41:55	211685	5bc0ac845a09ea00012e2d30	803688743	1	main_slash	7	main_slash	9	stimuli_distractor_diamondtriangles.svg	stimuli_target_squarediamonds.svg	16	yes	53	1	427
6.6.1	win	2022-12-15	01:38:22	01:41:55	211685	5bc0ac845a09ea00012e2d30	803688743	1	main_slash	7	advance_on_keypress_SLASH	10	stimuli_distractor_diamondtriangles.svg	stimuli_target_squarediamonds.svg	16	yes	57	0	1158
6.6.1	win	2022-12-15	01:38:22	01:41:57	214005	5bc0ac845a09ea00012e2d30	803688743	1	main_slash	7	main_slash	11	stimuli_distractor_diamondtriangles.svg	stimuli_target_diamondcircles.svg	31	yes	53	1	546
6.6.1	win	2022-12-15	01:38:22	01:41:57	214005	5bc0ac845a09ea00012e2d30	803688743	1	main_slash	7	advance_on_keypress_SLASH	12	stimuli_distractor_diamondtriangles.svg	stimuli_target_diamondcircles.svg	31	yes	57	0	856
6.6.1	win	2022-12-15	01:38:22	01:41:59	215980	5bc0ac845a09ea00012e2d30	803688743	1	main_slash	7	main_slash	13	stimuli_distractor_diamondtriangles.svg	stimuli_target_circletriangles.svg	13	yes	53	1	506
6.6.1	win	2022-12-15	01:38:22	01:41:59	215980	5bc0ac845a09ea00012e2d30	803688743	1	main_slash	7	advance_on_keypress_SLASH	14	stimuli_distractor_diamondtriangles.svg	stimuli_target_circletriangles.svg	13	yes	57	0	770
6.6.1	win	2022-12-15	01:38:22	01:42:01	217968	5bc0ac845a09ea00012e2d30	803688743	1	main_slash	7	main_slash	15	stimuli_distractor_diamondtriangles.svg	stimuli_distractor_diamondtriangles.svg	39	no	53	0	599
6.6.1	win	2022-12-15	01:38:22	01:42:01	217968	5bc0ac845a09ea00012e2d30	803688743	1	main_slash	7	advance_on_keypress_SLASH	16	stimuli_distractor_diamondtriangles.svg	stimuli_distractor_diamondtriangles.svg	39	no	57	0	894
6.6.1	win	2022-12-15	01:38:22	01:42:03	219977	5bc0ac845a09ea00012e2d30	803688743	1	main_slash	7	main_slash	17	stimuli_distractor_diamondtriangles.svg	stimuli_target_trianglecircles.svg	29	yes	53	1	495
6.6.1	win	2022-12-15	01:38:22	01:42:03	219977	5bc0ac845a09ea00012e2d30	803688743	1	main_slash	7	advance_on_keypress_SLASH	18	stimuli_distractor_diamondtriangles.svg	stimuli_target_trianglecircles.svg	29	yes	57	0	922
6.6.1	win	2022-12-15	01:38:22	01:42:07	223518	5bc0ac845a09ea00012e2d30	803688743	1	main_slash	7	main_slash	19	stimuli_distractor_diamondtriangles.svg	stimuli_distractor_trianglediamonds.svg	37	no	0	1	2003
6.6.1	win	2022-12-15	01:38:22	01:42:07	223518	5bc0ac845a09ea00012e2d30	803688743	1	main_slash	7	advance_on_keypress_SLASH	20	stimuli_distractor_diamondtriangles.svg	stimuli_distractor_trianglediamonds.svg	37	no	57	0	519
6.6.1	win	2022-12-15	01:38:22	01:42:09	225504	5bc0ac845a09ea00012e2d30	803688743	1	main_slash	7	main_slash	21	stimuli_distractor_trianglediamonds.svg	stimuli_target_circletriangles.svg	9	yes	53	1	850
6.6.1	win	2022-12-15	01:38:22	01:42:09	225504	5bc0ac845a09ea00012e2d30	803688743	1	main_slash	7	advance_on_keypress_SLASH	22	stimuli_distractor_trianglediamonds.svg	stimuli_target_circletriangles.svg	9	yes	57	0	770
6.6.1	win	2022-12-15	01:38:22	01:42:12	228893	5bc0ac845a09ea00012e2d30	803688743	1	main_slash	7	main_slash	23	stimuli_distractor_trianglediamonds.svg	stimuli_distractor_trianglediamonds.svg	34	no	0	1	2003
6.6.1	win	2022-12-15	01:38:22	01:42:12	228893	5bc0ac845a09ea00012e2d30	803688743	1	main_slash	7	advance_on_keypress_SLASH	24	stimuli_distractor_trianglediamonds.svg	stimuli_distractor_trianglediamonds.svg	34	no	57	0	457
6.6.1	win	2022-12-15	01:38:22	01:42:14	230448	5bc0ac845a09ea00012e2d30	803688743	1	main_slash	7	main_slash	25	stimuli_target_diamondcircles.svg	stimuli_distractor_trianglediamonds.svg	19	yes	53	1	482
6.6.1	win	2022-12-15	01:38:22	01:42:14	230448	5bc0ac845a09ea00012e2d30	803688743	1	main_slash	7	advance_on_keypress_SLASH	26	stimuli_target_diamondcircles.svg	stimuli_distractor_trianglediamonds.svg	19	yes	57	0	656
6.6.1	win	2022-12-15	01:38:22	01:42:16	232662	5bc0ac845a09ea00012e2d30	803688743	1	main_slash	7	main_slash	27	stimuli_target_trianglesquares.svg	stimuli_distractor_diamondtriangles.svg	22	yes	53	1	946
6.6.1	win	2022-12-15	01:38:22	01:42:16	232662	5bc0ac845a09ea00012e2d30	803688743	1	main_slash	7	advance_on_keypress_SLASH	28	stimuli_target_trianglesquares.svg	stimuli_distractor_diamondtriangles.svg	22	yes	57	0	812
6.6.1	win	2022-12-15	01:38:22	01:42:18	234811	5bc0ac845a09ea00012e2d30	803688743	1	main_slash	7	main_slash	29	stimuli_distractor_diamondtriangles.svg	stimuli_target_squaretriangles.svg	15	yes	53	1	720
6.6.1	win	2022-12-15	01:38:22	01:42:18	234811	5bc0ac845a09ea00012e2d30	803688743	1	main_slash	7	advance_on_keypress_SLASH	30	stimuli_distractor_diamondtriangles.svg	stimuli_target_squaretriangles.svg	15	yes	57	0	571
6.6.1	win	2022-12-15	01:38:22	01:42:20	236532	5bc0ac845a09ea00012e2d30	803688743	1	main_slash	7	main_slash	31	stimuli_distractor_trianglediamonds.svg	stimuli_target_squarediamonds.svg	12	yes	53	1	530
6.6.1	win	2022-12-15	01:38:22	01:42:20	236532	5bc0ac845a09ea00012e2d30	803688743	1	main_slash	7	advance_on_keypress_SLASH	32	stimuli_distractor_trianglediamonds.svg	stimuli_target_squarediamonds.svg	12	yes	57	0	637
6.6.1	win	2022-12-15	01:38:22	01:42:21	238259	5bc0ac845a09ea00012e2d30	803688743	1	main_slash	7	main_slash	33	stimuli_target_diamondcircles.svg	stimuli_distractor_diamondtriangles.svg	23	yes	53	1	474
6.6.1	win	2022-12-15	01:38:22	01:42:21	238259	5bc0ac845a09ea00012e2d30	803688743	1	main_slash	7	advance_on_keypress_SLASH	34	stimuli_target_diamondcircles.svg	stimuli_distractor_diamondtriangles.svg	23	yes	57	0	532
6.6.1	win	2022-12-15	01:38:22	01:42:23	239942	5bc0ac845a09ea00012e2d30	803688743	1	main_slash	7	main_slash	35	stimuli_target_squarediamonds.svg	stimuli_distractor_trianglediamonds.svg	4	yes	53	1	529
6.6.1	win	2022-12-15	01:38:22	01:42:23	239942	5bc0ac845a09ea00012e2d30	803688743	1	main_slash	7	advance_on_keypress_SLASH	36	stimuli_target_squarediamonds.svg	stimuli_distractor_trianglediamonds.svg	4	yes	57	0	463
6.6.1	win	2022-12-15	01:38:22	01:42:25	241516	5bc0ac845a09ea00012e2d30	803688743	1	main_slash	7	main_slash	37	stimuli_target_circletriangles.svg	stimuli_distractor_trianglediamonds.svg	1	yes	53	1	493
6.6.1	win	2022-12-15	01:38:22	01:42:25	241516	5bc0ac845a09ea00012e2d30	803688743	1	main_slash	7	advance_on_keypress_SLASH	38	stimuli_target_circletriangles.svg	stimuli_distractor_trianglediamonds.svg	1	yes	57	0	352
6.6.1	win	2022-12-15	01:38:22	01:42:26	243138	5bc0ac845a09ea00012e2d30	803688743	1	main_slash	7	main_slash	39	stimuli_target_diamondsquares.svg	stimuli_distractor_diamondtriangles.svg	24	yes	53	1	651
6.6.1	win	2022-12-15	01:38:22	01:42:26	243138	5bc0ac845a09ea00012e2d30	803688743	1	main_slash	7	advance_on_keypress_SLASH	40	stimuli_target_diamondsquares.svg	stimuli_distractor_diamondtriangles.svg	24	yes	57	0	443
6.6.1	win	2022-12-15	01:38:22	01:42:28	244682	5bc0ac845a09ea00012e2d30	803688743	1	main_slash	7	main_slash	41	stimuli_target_diamondsquares.svg	stimuli_distractor_trianglediamonds.svg	20	yes	53	1	479
6.6.1	win	2022-12-15	01:38:22	01:42:28	244682	5bc0ac845a09ea00012e2d30	803688743	1	main_slash	7	advance_on_keypress_SLASH	42	stimuli_target_diamondsquares.svg	stimuli_distractor_trianglediamonds.svg	20	yes	57	0	613
6.6.1	win	2022-12-15	01:38:22	01:42:29	246291	5bc0ac845a09ea00012e2d30	803688743	1	main_slash	7	main_slash	43	stimuli_target_trianglecircles.svg	stimuli_distractor_trianglediamonds.svg	17	yes	53	1	380
6.6.1	win	2022-12-15	01:38:22	01:42:29	246291	5bc0ac845a09ea00012e2d30	803688743	1	main_slash	7	advance_on_keypress_SLASH	44	stimuli_target_trianglecircles.svg	stimuli_distractor_trianglediamonds.svg	17	yes	57	0	564
6.6.1	win	2022-12-15	01:38:22	01:42:31	247999	5bc0ac845a09ea00012e2d30	803688743	1	main_slash	7	main_slash	45	stimuli_distractor_diamondtriangles.svg	stimuli_target_diamondsquares.svg	32	yes	53	1	519
6.6.1	win	2022-12-15	01:38:22	01:42:31	247999	5bc0ac845a09ea00012e2d30	803688743	1	main_slash	7	advance_on_keypress_SLASH	46	stimuli_distractor_diamondtriangles.svg	stimuli_target_diamondsquares.svg	32	yes	57	0	437
6.6.1	win	2022-12-15	01:38:22	01:42:33	249796	5bc0ac845a09ea00012e2d30	803688743	1	main_slash	7	main_slash	47	stimuli_distractor_trianglediamonds.svg	stimuli_target_trianglesquares.svg	26	yes	53	1	740
6.6.1	win	2022-12-15	01:38:22	01:42:33	249796	5bc0ac845a09ea00012e2d30	803688743	1	main_slash	7	advance_on_keypress_SLASH	48	stimuli_distractor_trianglediamonds.svg	stimuli_target_trianglesquares.svg	26	yes	57	0	426
6.6.1	win	2022-12-15	01:38:22	01:42:34	251387	5bc0ac845a09ea00012e2d30	803688743	1	main_slash	7	main_slash	49	stimuli_distractor_diamondtriangles.svg	stimuli_target_circlediamonds.svg	14	yes	53	1	553
6.6.1	win	2022-12-15	01:38:22	01:42:34	251387	5bc0ac845a09ea00012e2d30	803688743	1	main_slash	7	advance_on_keypress_SLASH	50	stimuli_distractor_diamondtriangles.svg	stimuli_target_circlediamonds.svg	14	yes	57	0	472
6.6.1	win	2022-12-15	01:38:22	01:42:36	252977	5bc0ac845a09ea00012e2d30	803688743	1	main_slash	7	main_slash	51	stimuli_distractor_trianglediamonds.svg	stimuli_target_trianglecircles.svg	25	yes	53	1	496
6.6.1	win	2022-12-15	01:38:22	01:42:36	252977	5bc0ac845a09ea00012e2d30	803688743	1	main_slash	7	advance_on_keypress_SLASH	52	stimuli_distractor_trianglediamonds.svg	stimuli_target_trianglecircles.svg	25	yes	57	0	366
6.6.1	win	2022-12-15	01:38:22	01:42:38	254524	5bc0ac845a09ea00012e2d30	803688743	1	main_slash	7	main_slash	53	stimuli_distractor_trianglediamonds.svg	stimuli_target_diamondcircles.svg	27	yes	53	1	565
6.6.1	win	2022-12-15	01:38:22	01:42:38	254524	5bc0ac845a09ea00012e2d30	803688743	1	main_slash	7	advance_on_keypress_SLASH	54	stimuli_distractor_trianglediamonds.svg	stimuli_target_diamondcircles.svg	27	yes	57	0	330
6.6.1	win	2022-12-15	01:38:22	01:42:41	257469	5bc0ac845a09ea00012e2d30	803688743	1	main_slash	7	main_slash	55	stimuli_distractor_diamondtriangles.svg	stimuli_distractor_trianglediamonds.svg	38	no	0	1	2003
6.6.1	win	2022-12-15	01:38:22	01:42:41	257469	5bc0ac845a09ea00012e2d30	803688743	1	main_slash	7	advance_on_keypress_SLASH	56	stimuli_distractor_diamondtriangles.svg	stimuli_distractor_trianglediamonds.svg	38	no	57	0	628
6.6.1	win	2022-12-15	01:38:22	01:42:42	259209	5bc0ac845a09ea00012e2d30	803688743	1	main_slash	7	main_slash	57	stimuli_distractor_trianglediamonds.svg	stimuli_target_squaretriangles.svg	11	yes	53	1	499
6.6.1	win	2022-12-15	01:38:22	01:42:42	259209	5bc0ac845a09ea00012e2d30	803688743	1	main_slash	7	advance_on_keypress_SLASH	58	stimuli_distractor_trianglediamonds.svg	stimuli_target_squaretriangles.svg	11	yes	57	0	571
6.6.1	win	2022-12-15	01:38:22	01:42:44	261058	5bc0ac845a09ea00012e2d30	803688743	1	main_slash	7	main_slash	59	stimuli_distractor_trianglediamonds.svg	stimuli_target_diamondsquares.svg	28	yes	53	1	662
6.6.1	win	2022-12-15	01:38:22	01:42:44	261058	5bc0ac845a09ea00012e2d30	803688743	1	main_slash	7	advance_on_keypress_SLASH	60	stimuli_distractor_trianglediamonds.svg	stimuli_target_diamondsquares.svg	28	yes	57	0	412
6.6.1	win	2022-12-15	01:38:22	01:42:46	262591	5bc0ac845a09ea00012e2d30	803688743	1	main_slash	7	main_slash	61	stimuli_distractor_trianglediamonds.svg	stimuli_target_circlediamonds.svg	10	yes	53	1	507
6.6.1	win	2022-12-15	01:38:22	01:42:46	262591	5bc0ac845a09ea00012e2d30	803688743	1	main_slash	7	advance_on_keypress_SLASH	62	stimuli_distractor_trianglediamonds.svg	stimuli_target_circlediamonds.svg	10	yes	57	0	334
6.6.1	win	2022-12-15	01:38:22	01:42:49	265545	5bc0ac845a09ea00012e2d30	803688743	1	main_slash	7	main_slash	63	stimuli_distractor_trianglediamonds.svg	stimuli_distractor_diamondtriangles.svg	35	no	0	1	2003
6.6.1	win	2022-12-15	01:38:22	01:42:49	265545	5bc0ac845a09ea00012e2d30	803688743	1	main_slash	7	advance_on_keypress_SLASH	64	stimuli_distractor_trianglediamonds.svg	stimuli_distractor_diamondtriangles.svg	35	no	57	0	500
6.6.1	win	2022-12-15	01:38:22	01:42:51	267535	5bc0ac845a09ea00012e2d30	803688743	1	main_slash	7	main_slash	65	stimuli_distractor_diamondtriangles.svg	stimuli_target_trianglesquares.svg	30	yes	53	1	875
6.6.1	win	2022-12-15	01:38:22	01:42:51	267535	5bc0ac845a09ea00012e2d30	803688743	1	main_slash	7	advance_on_keypress_SLASH	66	stimuli_distractor_diamondtriangles.svg	stimuli_target_trianglesquares.svg	30	yes	57	0	422
6.6.1	win	2022-12-15	01:38:22	01:42:54	270580	5bc0ac845a09ea00012e2d30	803688743	1	main_slash	7	main_slash	67	stimuli_distractor_trianglediamonds.svg	stimuli_distractor_diamondtriangles.svg	36	no	0	1	2003
6.6.1	win	2022-12-15	01:38:22	01:42:54	270580	5bc0ac845a09ea00012e2d30	803688743	1	main_slash	7	advance_on_keypress_SLASH	68	stimuli_distractor_trianglediamonds.svg	stimuli_distractor_diamondtriangles.svg	36	no	57	0	437
6.6.1	win	2022-12-15	01:38:22	01:42:55	272171	5bc0ac845a09ea00012e2d30	803688743	1	main_slash	7	main_slash	69	stimuli_target_circlediamonds.svg	stimuli_distractor_trianglediamonds.svg	2	yes	53	1	539
6.6.1	win	2022-12-15	01:38:22	01:42:55	272171	5bc0ac845a09ea00012e2d30	803688743	1	main_slash	7	advance_on_keypress_SLASH	70	stimuli_target_circlediamonds.svg	stimuli_distractor_trianglediamonds.svg	2	yes	57	0	884
6.6.1	win	2022-12-15	01:38:22	01:42:57	274217	5bc0ac845a09ea00012e2d30	803688743	1	main_slash	7	main_slash	71	stimuli_target_trianglesquares.svg	stimuli_distractor_trianglediamonds.svg	18	yes	53	1	550
6.6.1	win	2022-12-15	01:38:22	01:42:57	274217	5bc0ac845a09ea00012e2d30	803688743	1	main_slash	7	advance_on_keypress_SLASH	72	stimuli_target_trianglesquares.svg	stimuli_distractor_trianglediamonds.svg	18	yes	57	0	387
6.6.1	win	2022-12-15	01:38:22	01:42:59	275954	5bc0ac845a09ea00012e2d30	803688743	1	main_slash	7	main_slash	73	stimuli_target_squaretriangles.svg	stimuli_distractor_diamondtriangles.svg	7	yes	53	1	732
6.6.1	win	2022-12-15	01:38:22	01:42:59	275954	5bc0ac845a09ea00012e2d30	803688743	1	main_slash	7	advance_on_keypress_SLASH	74	stimuli_target_squaretriangles.svg	stimuli_distractor_diamondtriangles.svg	7	yes	57	0	325
6.6.1	win	2022-12-15	01:38:22	01:43:00	277361	5bc0ac845a09ea00012e2d30	803688743	1	main_slash	7	main_slash	75	stimuli_target_squarediamonds.svg	stimuli_distractor_diamondtriangles.svg	8	yes	53	1	465
6.6.1	win	2022-12-15	01:38:22	01:43:00	277361	5bc0ac845a09ea00012e2d30	803688743	1	main_slash	7	advance_on_keypress_SLASH	76	stimuli_target_squarediamonds.svg	stimuli_distractor_diamondtriangles.svg	8	yes	57	0	304
6.6.1	win	2022-12-15	01:38:22	01:43:03	280288	5bc0ac845a09ea00012e2d30	803688743	1	main_slash	7	main_slash	77	stimuli_distractor_trianglediamonds.svg	stimuli_distractor_trianglediamonds.svg	33	no	0	1	2003
6.6.1	win	2022-12-15	01:38:22	01:43:03	280288	5bc0ac845a09ea00012e2d30	803688743	1	main_slash	7	advance_on_keypress_SLASH	78	stimuli_distractor_trianglediamonds.svg	stimuli_distractor_trianglediamonds.svg	33	no	57	0	917
6.6.1	win	2022-12-15	01:38:22	01:43:05	282306	5bc0ac845a09ea00012e2d30	803688743	1	main_slash	7	main_slash	79	stimuli_target_squaretriangles.svg	stimuli_distractor_trianglediamonds.svg	3	yes	53	1	487
6.6.1	win	2022-12-15	01:38:22	01:43:05	282306	5bc0ac845a09ea00012e2d30	803688743	1	main_slash	7	advance_on_keypress_SLASH	80	stimuli_target_squaretriangles.svg	stimuli_distractor_trianglediamonds.svg	3	yes	57	0	321
6.6.1	win	2022-12-15	01:38:22	01:43:07	283842	5bc0ac845a09ea00012e2d30	803688743	1	main_slash	7	main_slash	81	stimuli_distractor_diamondtriangles.svg	stimuli_target_circlediamonds.svg	14	yes	53	1	599
6.6.1	win	2022-12-15	01:38:22	01:43:07	283842	5bc0ac845a09ea00012e2d30	803688743	1	main_slash	7	advance_on_keypress_SLASH	82	stimuli_distractor_diamondtriangles.svg	stimuli_target_circlediamonds.svg	14	yes	57	0	289
6.6.1	win	2022-12-15	01:38:22	01:43:08	285150	5bc0ac845a09ea00012e2d30	803688743	1	main_slash	7	main_slash	83	stimuli_distractor_trianglediamonds.svg	stimuli_target_circlediamonds.svg	10	yes	53	1	407
6.6.1	win	2022-12-15	01:38:22	01:43:08	285150	5bc0ac845a09ea00012e2d30	803688743	1	main_slash	7	advance_on_keypress_SLASH	84	stimuli_distractor_trianglediamonds.svg	stimuli_target_circlediamonds.svg	10	yes	57	0	328
6.6.1	win	2022-12-15	01:38:22	01:43:10	286528	5bc0ac845a09ea00012e2d30	803688743	1	main_slash	7	main_slash	85	stimuli_target_trianglesquares.svg	stimuli_distractor_diamondtriangles.svg	22	yes	53	1	438
6.6.1	win	2022-12-15	01:38:22	01:43:10	286528	5bc0ac845a09ea00012e2d30	803688743	1	main_slash	7	advance_on_keypress_SLASH	86	stimuli_target_trianglesquares.svg	stimuli_distractor_diamondtriangles.svg	22	yes	57	0	493
6.6.1	win	2022-12-15	01:38:22	01:43:11	288157	5bc0ac845a09ea00012e2d30	803688743	1	main_slash	7	main_slash	87	stimuli_distractor_trianglediamonds.svg	stimuli_target_diamondcircles.svg	27	yes	53	1	518
6.6.1	win	2022-12-15	01:38:22	01:43:11	288157	5bc0ac845a09ea00012e2d30	803688743	1	main_slash	7	advance_on_keypress_SLASH	88	stimuli_distractor_trianglediamonds.svg	stimuli_target_diamondcircles.svg	27	yes	57	0	257
6.6.1	win	2022-12-15	01:38:22	01:43:13	289476	5bc0ac845a09ea00012e2d30	803688743	1	main_slash	7	main_slash	89	stimuli_target_squaretriangles.svg	stimuli_distractor_trianglediamonds.svg	3	yes	53	1	448
6.6.1	win	2022-12-15	01:38:22	01:43:13	289476	5bc0ac845a09ea00012e2d30	803688743	1	main_slash	7	advance_on_keypress_SLASH	90	stimuli_target_squaretriangles.svg	stimuli_distractor_trianglediamonds.svg	3	yes	57	0	272
6.6.1	win	2022-12-15	01:38:22	01:43:14	290781	5bc0ac845a09ea00012e2d30	803688743	1	main_slash	7	main_slash	91	stimuli_target_circlediamonds.svg	stimuli_distractor_trianglediamonds.svg	2	yes	53	1	418
6.6.1	win	2022-12-15	01:38:22	01:43:14	290781	5bc0ac845a09ea00012e2d30	803688743	1	main_slash	7	advance_on_keypress_SLASH	92	stimuli_target_circlediamonds.svg	stimuli_distractor_trianglediamonds.svg	2	yes	57	0	277
6.6.1	win	2022-12-15	01:38:22	01:43:15	292382	5bc0ac845a09ea00012e2d30	803688743	1	main_slash	7	main_slash	93	stimuli_distractor_trianglediamonds.svg	stimuli_target_trianglesquares.svg	26	yes	53	1	708
6.6.1	win	2022-12-15	01:38:22	01:43:15	292382	5bc0ac845a09ea00012e2d30	803688743	1	main_slash	7	advance_on_keypress_SLASH	94	stimuli_distractor_trianglediamonds.svg	stimuli_target_trianglesquares.svg	26	yes	57	0	215
6.6.1	win	2022-12-15	01:38:22	01:43:17	293674	5bc0ac845a09ea00012e2d30	803688743	1	main_slash	7	main_slash	95	stimuli_target_squarediamonds.svg	stimuli_distractor_trianglediamonds.svg	4	yes	53	1	459
6.6.1	win	2022-12-15	01:38:22	01:43:17	293674	5bc0ac845a09ea00012e2d30	803688743	1	main_slash	7	advance_on_keypress_SLASH	96	stimuli_target_squarediamonds.svg	stimuli_distractor_trianglediamonds.svg	4	yes	57	0	268
6.6.1	win	2022-12-15	01:38:22	01:43:20	296565	5bc0ac845a09ea00012e2d30	803688743	1	main_slash	7	main_slash	97	stimuli_distractor_diamondtriangles.svg	stimuli_distractor_diamondtriangles.svg	39	no	0	1	2003
6.6.1	win	2022-12-15	01:38:22	01:43:20	296565	5bc0ac845a09ea00012e2d30	803688743	1	main_slash	7	advance_on_keypress_SLASH	98	stimuli_distractor_diamondtriangles.svg	stimuli_distractor_diamondtriangles.svg	39	no	57	0	436
6.6.1	win	2022-12-15	01:38:22	01:43:21	298254	5bc0ac845a09ea00012e2d30	803688743	1	main_slash	7	main_slash	99	stimuli_distractor_diamondtriangles.svg	stimuli_target_circletriangles.svg	13	yes	53	1	636
6.6.1	win	2022-12-15	01:38:22	01:43:21	298254	5bc0ac845a09ea00012e2d30	803688743	1	main_slash	7	advance_on_keypress_SLASH	100	stimuli_distractor_diamondtriangles.svg	stimuli_target_circletriangles.svg	13	yes	57	0	259
6.6.1	win	2022-12-15	01:38:22	01:43:23	300022	5bc0ac845a09ea00012e2d30	803688743	1	main_slash	7	main_slash	101	stimuli_distractor_trianglediamonds.svg	stimuli_distractor_diamondtriangles.svg	35	no	53	0	897
6.6.1	win	2022-12-15	01:38:22	01:43:23	300022	5bc0ac845a09ea00012e2d30	803688743	1	main_slash	7	advance_on_keypress_SLASH	102	stimuli_distractor_trianglediamonds.svg	stimuli_distractor_diamondtriangles.svg	35	no	57	0	216
6.6.1	win	2022-12-15	01:38:22	01:43:25	301476	5bc0ac845a09ea00012e2d30	803688743	1	main_slash	7	main_slash	103	stimuli_distractor_trianglediamonds.svg	stimuli_target_diamondsquares.svg	28	yes	53	1	622
6.6.1	win	2022-12-15	01:38:22	01:43:25	301476	5bc0ac845a09ea00012e2d30	803688743	1	main_slash	7	advance_on_keypress_SLASH	104	stimuli_distractor_trianglediamonds.svg	stimuli_target_diamondsquares.svg	28	yes	57	0	251
6.6.1	win	2022-12-15	01:38:22	01:43:27	304343	5bc0ac845a09ea00012e2d30	803688743	1	main_slash	7	main_slash	105	stimuli_distractor_trianglediamonds.svg	stimuli_distractor_trianglediamonds.svg	34	no	0	1	2003
6.6.1	win	2022-12-15	01:38:22	01:43:27	304343	5bc0ac845a09ea00012e2d30	803688743	1	main_slash	7	advance_on_keypress_SLASH	106	stimuli_distractor_trianglediamonds.svg	stimuli_distractor_trianglediamonds.svg	34	no	57	0	689
6.6.1	win	2022-12-15	01:38:22	01:43:29	306093	5bc0ac845a09ea00012e2d30	803688743	1	main_slash	7	main_slash	107	stimuli_distractor_diamondtriangles.svg	stimuli_target_trianglecircles.svg	29	yes	53	1	448
6.6.1	win	2022-12-15	01:38:22	01:43:29	306093	5bc0ac845a09ea00012e2d30	803688743	1	main_slash	7	advance_on_keypress_SLASH	108	stimuli_distractor_diamondtriangles.svg	stimuli_target_trianglecircles.svg	29	yes	57	0	238
6.6.1	win	2022-12-15	01:38:22	01:43:31	307690	5bc0ac845a09ea00012e2d30	803688743	1	main_slash	7	main_slash	109	stimuli_target_squarediamonds.svg	stimuli_distractor_diamondtriangles.svg	8	yes	53	1	746
6.6.1	win	2022-12-15	01:38:22	01:43:31	307690	5bc0ac845a09ea00012e2d30	803688743	1	main_slash	7	advance_on_keypress_SLASH	110	stimuli_target_squarediamonds.svg	stimuli_distractor_diamondtriangles.svg	8	yes	57	0	216
6.6.1	win	2022-12-15	01:38:22	01:43:32	309273	5bc0ac845a09ea00012e2d30	803688743	1	main_slash	7	main_slash	111	stimuli_distractor_trianglediamonds.svg	stimuli_target_circletriangles.svg	9	yes	53	1	753
6.6.1	win	2022-12-15	01:38:22	01:43:32	309273	5bc0ac845a09ea00012e2d30	803688743	1	main_slash	7	advance_on_keypress_SLASH	112	stimuli_distractor_trianglediamonds.svg	stimuli_target_circletriangles.svg	9	yes	57	0	255
6.6.1	win	2022-12-15	01:38:22	01:43:34	310821	5bc0ac845a09ea00012e2d30	803688743	1	main_slash	7	main_slash	113	stimuli_target_trianglecircles.svg	stimuli_distractor_diamondtriangles.svg	21	yes	53	1	683
6.6.1	win	2022-12-15	01:38:22	01:43:34	310821	5bc0ac845a09ea00012e2d30	803688743	1	main_slash	7	advance_on_keypress_SLASH	114	stimuli_target_trianglecircles.svg	stimuli_distractor_diamondtriangles.svg	21	yes	57	0	370
6.6.1	win	2022-12-15	01:38:22	01:43:36	312447	5bc0ac845a09ea00012e2d30	803688743	1	main_slash	7	main_slash	115	stimuli_target_trianglesquares.svg	stimuli_distractor_trianglediamonds.svg	18	yes	53	1	642
6.6.1	win	2022-12-15	01:38:22	01:43:36	312447	5bc0ac845a09ea00012e2d30	803688743	1	main_slash	7	advance_on_keypress_SLASH	116	stimuli_target_trianglesquares.svg	stimuli_distractor_trianglediamonds.svg	18	yes	57	0	196
6.6.1	win	2022-12-15	01:38:22	01:43:38	315259	5bc0ac845a09ea00012e2d30	803688743	1	main_slash	7	main_slash	117	stimuli_distractor_diamondtriangles.svg	stimuli_distractor_diamondtriangles.svg	40	no	0	1	2003
6.6.1	win	2022-12-15	01:38:22	01:43:38	315259	5bc0ac845a09ea00012e2d30	803688743	1	main_slash	7	advance_on_keypress_SLASH	118	stimuli_distractor_diamondtriangles.svg	stimuli_distractor_diamondtriangles.svg	40	no	57	0	639
6.6.1	win	2022-12-15	01:38:22	01:43:40	316995	5bc0ac845a09ea00012e2d30	803688743	1	main_slash	7	main_slash	119	stimuli_target_circletriangles.svg	stimuli_distractor_trianglediamonds.svg	1	yes	53	1	482
6.6.1	win	2022-12-15	01:38:22	01:43:40	316995	5bc0ac845a09ea00012e2d30	803688743	1	main_slash	7	advance_on_keypress_SLASH	120	stimuli_target_circletriangles.svg	stimuli_distractor_trianglediamonds.svg	1	yes	57	0	205
6.6.1	win	2022-12-15	01:38:22	01:43:42	318930	5bc0ac845a09ea00012e2d30	803688743	1	main_slash	7	main_slash	121	stimuli_distractor_diamondtriangles.svg	stimuli_target_trianglesquares.svg	30	yes	53	1	1118
6.6.1	win	2022-12-15	01:38:22	01:43:42	318930	5bc0ac845a09ea00012e2d30	803688743	1	main_slash	7	advance_on_keypress_SLASH	122	stimuli_distractor_diamondtriangles.svg	stimuli_target_trianglesquares.svg	30	yes	57	0	958
6.6.1	win	2022-12-15	01:38:22	01:43:44	321117	5bc0ac845a09ea00012e2d30	803688743	1	main_slash	7	main_slash	123	stimuli_target_diamondcircles.svg	stimuli_distractor_trianglediamonds.svg	19	yes	53	1	611
6.6.1	win	2022-12-15	01:38:22	01:43:44	321117	5bc0ac845a09ea00012e2d30	803688743	1	main_slash	7	advance_on_keypress_SLASH	124	stimuli_target_diamondcircles.svg	stimuli_distractor_trianglediamonds.svg	19	yes	57	0	402
6.6.1	win	2022-12-15	01:38:22	01:43:46	323017	5bc0ac845a09ea00012e2d30	803688743	1	main_slash	7	main_slash	125	stimuli_distractor_trianglediamonds.svg	stimuli_distractor_diamondtriangles.svg	36	no	53	0	879
6.6.1	win	2022-12-15	01:38:22	01:43:46	323017	5bc0ac845a09ea00012e2d30	803688743	1	main_slash	7	advance_on_keypress_SLASH	126	stimuli_distractor_trianglediamonds.svg	stimuli_distractor_diamondtriangles.svg	36	no	57	0	248
6.6.1	win	2022-12-15	01:38:22	01:43:48	324492	5bc0ac845a09ea00012e2d30	803688743	1	main_slash	7	main_slash	127	stimuli_distractor_trianglediamonds.svg	stimuli_target_squarediamonds.svg	12	yes	53	1	611
6.6.1	win	2022-12-15	01:38:22	01:43:48	324492	5bc0ac845a09ea00012e2d30	803688743	1	main_slash	7	advance_on_keypress_SLASH	128	stimuli_distractor_trianglediamonds.svg	stimuli_target_squarediamonds.svg	12	yes	57	0	171
6.6.1	win	2022-12-15	01:38:22	01:43:49	325893	5bc0ac845a09ea00012e2d30	803688743	1	main_slash	7	main_slash	129	stimuli_target_circlediamonds.svg	stimuli_distractor_diamondtriangles.svg	6	yes	53	1	616
6.6.1	win	2022-12-15	01:38:22	01:43:49	325893	5bc0ac845a09ea00012e2d30	803688743	1	main_slash	7	advance_on_keypress_SLASH	130	stimuli_target_circlediamonds.svg	stimuli_distractor_diamondtriangles.svg	6	yes	57	0	138
6.6.1	win	2022-12-15	01:38:22	01:43:50	327280	5bc0ac845a09ea00012e2d30	803688743	1	main_slash	7	main_slash	131	stimuli_distractor_diamondtriangles.svg	stimuli_target_squarediamonds.svg	16	yes	53	1	628
6.6.1	win	2022-12-15	01:38:22	01:43:50	327280	5bc0ac845a09ea00012e2d30	803688743	1	main_slash	7	advance_on_keypress_SLASH	132	stimuli_distractor_diamondtriangles.svg	stimuli_target_squarediamonds.svg	16	yes	57	0	183
6.6.1	win	2022-12-15	01:38:22	01:43:53	330079	5bc0ac845a09ea00012e2d30	803688743	1	main_slash	7	main_slash	133	stimuli_distractor_trianglediamonds.svg	stimuli_distractor_trianglediamonds.svg	33	no	0	1	2003
6.6.1	win	2022-12-15	01:38:22	01:43:53	330079	5bc0ac845a09ea00012e2d30	803688743	1	main_slash	7	advance_on_keypress_SLASH	134	stimuli_distractor_trianglediamonds.svg	stimuli_distractor_trianglediamonds.svg	33	no	57	0	964
6.6.1	win	2022-12-15	01:38:22	01:43:55	332178	5bc0ac845a09ea00012e2d30	803688743	1	main_slash	7	main_slash	135	stimuli_target_trianglecircles.svg	stimuli_distractor_trianglediamonds.svg	17	yes	53	1	519
6.6.1	win	2022-12-15	01:38:22	01:43:55	332178	5bc0ac845a09ea00012e2d30	803688743	1	main_slash	7	advance_on_keypress_SLASH	136	stimuli_target_trianglecircles.svg	stimuli_distractor_trianglediamonds.svg	17	yes	57	0	195
6.6.1	win	2022-12-15	01:38:22	01:43:58	334995	5bc0ac845a09ea00012e2d30	803688743	1	main_slash	7	main_slash	137	stimuli_distractor_diamondtriangles.svg	stimuli_distractor_trianglediamonds.svg	38	no	0	1	2003
6.6.1	win	2022-12-15	01:38:22	01:43:58	334995	5bc0ac845a09ea00012e2d30	803688743	1	main_slash	7	advance_on_keypress_SLASH	138	stimuli_distractor_diamondtriangles.svg	stimuli_distractor_trianglediamonds.svg	38	no	57	0	523
6.6.1	win	2022-12-15	01:38:22	01:44:00	336569	5bc0ac845a09ea00012e2d30	803688743	1	main_slash	7	main_slash	139	stimuli_distractor_diamondtriangles.svg	stimuli_target_squaretriangles.svg	15	yes	53	1	437
6.6.1	win	2022-12-15	01:38:22	01:44:00	336569	5bc0ac845a09ea00012e2d30	803688743	1	main_slash	7	advance_on_keypress_SLASH	140	stimuli_distractor_diamondtriangles.svg	stimuli_target_squaretriangles.svg	15	yes	57	0	282
6.6.1	win	2022-12-15	01:38:22	01:44:01	338023	5bc0ac845a09ea00012e2d30	803688743	1	main_slash	7	main_slash	141	stimuli_target_diamondcircles.svg	stimuli_distractor_diamondtriangles.svg	23	yes	53	1	552
6.6.1	win	2022-12-15	01:38:22	01:44:01	338023	5bc0ac845a09ea00012e2d30	803688743	1	main_slash	7	advance_on_keypress_SLASH	142	stimuli_target_diamondcircles.svg	stimuli_distractor_diamondtriangles.svg	23	yes	57	0	287
6.6.1	win	2022-12-15	01:38:22	01:44:02	339368	5bc0ac845a09ea00012e2d30	803688743	1	main_slash	7	main_slash	143	stimuli_target_diamondsquares.svg	stimuli_distractor_trianglediamonds.svg	20	yes	53	1	445
6.6.1	win	2022-12-15	01:38:22	01:44:02	339368	5bc0ac845a09ea00012e2d30	803688743	1	main_slash	7	advance_on_keypress_SLASH	144	stimuli_target_diamondsquares.svg	stimuli_distractor_trianglediamonds.svg	20	yes	57	0	344
6.6.1	win	2022-12-15	01:38:22	01:44:04	340919	5bc0ac845a09ea00012e2d30	803688743	1	main_slash	7	main_slash	145	stimuli_target_diamondsquares.svg	stimuli_distractor_diamondtriangles.svg	24	yes	53	1	587
6.6.1	win	2022-12-15	01:38:22	01:44:04	340919	5bc0ac845a09ea00012e2d30	803688743	1	main_slash	7	advance_on_keypress_SLASH	146	stimuli_target_diamondsquares.svg	stimuli_distractor_diamondtriangles.svg	24	yes	57	0	174
6.6.1	win	2022-12-15	01:38:22	01:44:05	342262	5bc0ac845a09ea00012e2d30	803688743	1	main_slash	7	main_slash	147	stimuli_distractor_trianglediamonds.svg	stimuli_target_squaretriangles.svg	11	yes	53	1	555
6.6.1	win	2022-12-15	01:38:22	01:44:05	342262	5bc0ac845a09ea00012e2d30	803688743	1	main_slash	7	advance_on_keypress_SLASH	148	stimuli_distractor_trianglediamonds.svg	stimuli_target_squaretriangles.svg	11	yes	57	0	297
6.6.1	win	2022-12-15	01:38:22	01:44:07	343574	5bc0ac845a09ea00012e2d30	803688743	1	main_slash	7	main_slash	149	stimuli_target_squaretriangles.svg	stimuli_distractor_diamondtriangles.svg	7	yes	53	1	391
6.6.1	win	2022-12-15	01:38:22	01:44:07	343574	5bc0ac845a09ea00012e2d30	803688743	1	main_slash	7	advance_on_keypress_SLASH	150	stimuli_target_squaretriangles.svg	stimuli_distractor_diamondtriangles.svg	7	yes	57	0	211
6.6.1	win	2022-12-15	01:38:22	01:44:08	344966	5bc0ac845a09ea00012e2d30	803688743	1	main_slash	7	main_slash	151	stimuli_distractor_trianglediamonds.svg	stimuli_target_trianglecircles.svg	25	yes	53	1	565
6.6.1	win	2022-12-15	01:38:22	01:44:08	344966	5bc0ac845a09ea00012e2d30	803688743	1	main_slash	7	advance_on_keypress_SLASH	152	stimuli_distractor_trianglediamonds.svg	stimuli_target_trianglecircles.svg	25	yes	57	0	178
6.6.1	win	2022-12-15	01:38:22	01:44:09	346384	5bc0ac845a09ea00012e2d30	803688743	1	main_slash	7	main_slash	153	stimuli_distractor_diamondtriangles.svg	stimuli_distractor_trianglediamonds.svg	37	no	53	0	628
6.6.1	win	2022-12-15	01:38:22	01:44:09	346384	5bc0ac845a09ea00012e2d30	803688743	1	main_slash	7	advance_on_keypress_SLASH	154	stimuli_distractor_diamondtriangles.svg	stimuli_distractor_trianglediamonds.svg	37	no	57	0	348
6.6.1	win	2022-12-15	01:38:22	01:44:11	348010	5bc0ac845a09ea00012e2d30	803688743	1	main_slash	7	main_slash	155	stimuli_distractor_diamondtriangles.svg	stimuli_target_diamondcircles.svg	31	yes	53	1	664
6.6.1	win	2022-12-15	01:38:22	01:44:11	348010	5bc0ac845a09ea00012e2d30	803688743	1	main_slash	7	advance_on_keypress_SLASH	156	stimuli_distractor_diamondtriangles.svg	stimuli_target_diamondcircles.svg	31	yes	57	0	236
6.6.1	win	2022-12-15	01:38:22	01:44:13	349491	5bc0ac845a09ea00012e2d30	803688743	1	main_slash	7	main_slash	157	stimuli_distractor_diamondtriangles.svg	stimuli_target_diamondsquares.svg	32	yes	53	1	631
6.6.1	win	2022-12-15	01:38:22	01:44:13	349491	5bc0ac845a09ea00012e2d30	803688743	1	main_slash	7	advance_on_keypress_SLASH	158	stimuli_distractor_diamondtriangles.svg	stimuli_target_diamondsquares.svg	32	yes	57	0	185
6.6.1	win	2022-12-15	01:38:22	01:44:14	350888	5bc0ac845a09ea00012e2d30	803688743	1	main_slash	7	main_slash	159	stimuli_target_circletriangles.svg	stimuli_distractor_diamondtriangles.svg	5	yes	53	1	589
6.6.1	win	2022-12-15	01:38:22	01:44:14	350888	5bc0ac845a09ea00012e2d30	803688743	1	main_slash	7	advance_on_keypress_SLASH	160	stimuli_target_circletriangles.svg	stimuli_distractor_diamondtriangles.svg	5	yes	57	0	222
6.6.1	win	2022-12-15	01:38:22	01:44:37	373534	5bc0ac845a09ea00012e2d30	803688743	1	practice_z	9	practice_z	1	stimuli_distractor_diamondtriangles.svg	stimuli_target_circletriangles.svg	7	yes	44	1	340
6.6.1	win	2022-12-15	01:38:22	01:44:37	373534	5bc0ac845a09ea00012e2d30	803688743	1	practice_z	9	advance_on_keypress_ZEE	2	stimuli_distractor_diamondtriangles.svg	stimuli_target_circletriangles.svg	7	yes	57	0	485
6.6.1	win	2022-12-15	01:38:22	01:44:39	376039	5bc0ac845a09ea00012e2d30	803688743	1	practice_z	9	practice_z	3	stimuli_target_circlediamonds.svg	stimuli_distractor_trianglediamonds.svg	4	yes	44	1	398
6.6.1	win	2022-12-15	01:38:22	01:44:39	376039	5bc0ac845a09ea00012e2d30	803688743	1	practice_z	9	advance_on_keypress_ZEE	4	stimuli_target_circlediamonds.svg	stimuli_distractor_trianglediamonds.svg	4	yes	57	0	290
6.6.1	win	2022-12-15	01:38:22	01:44:42	378410	5bc0ac845a09ea00012e2d30	803688743	1	practice_z	9	practice_z	5	stimuli_target_diamondsquares.svg	stimuli_distractor_trianglediamonds.svg	6	yes	44	1	460
6.6.1	win	2022-12-15	01:38:22	01:44:42	378410	5bc0ac845a09ea00012e2d30	803688743	1	practice_z	9	advance_on_keypress_ZEE	6	stimuli_target_diamondsquares.svg	stimuli_distractor_trianglediamonds.svg	6	yes	57	0	253
6.6.1	win	2022-12-15	01:38:22	01:44:44	380635	5bc0ac845a09ea00012e2d30	803688743	1	practice_z	9	practice_z	7	stimuli_target_squarediamonds.svg	stimuli_distractor_diamondtriangles.svg	2	yes	44	1	351
6.6.1	win	2022-12-15	01:38:22	01:44:44	380635	5bc0ac845a09ea00012e2d30	803688743	1	practice_z	9	advance_on_keypress_ZEE	8	stimuli_target_squarediamonds.svg	stimuli_distractor_diamondtriangles.svg	2	yes	57	0	438
6.6.1	win	2022-12-15	01:38:22	01:44:48	384697	5bc0ac845a09ea00012e2d30	803688743	1	practice_z	9	practice_z	9	stimuli_distractor_trianglediamonds.svg	stimuli_distractor_diamondtriangles.svg	16	no	0	1	2003
6.6.1	win	2022-12-15	01:38:22	01:44:48	384697	5bc0ac845a09ea00012e2d30	803688743	1	practice_z	9	advance_on_keypress_ZEE	10	stimuli_distractor_trianglediamonds.svg	stimuli_distractor_diamondtriangles.svg	16	no	57	0	587
6.6.1	win	2022-12-15	01:38:22	01:44:50	387310	5bc0ac845a09ea00012e2d30	803688743	1	practice_z	9	practice_z	11	stimuli_target_squarediamonds.svg	stimuli_distractor_trianglediamonds.svg	5	yes	44	1	403
6.6.1	win	2022-12-15	01:38:22	01:44:50	387310	5bc0ac845a09ea00012e2d30	803688743	1	practice_z	9	advance_on_keypress_ZEE	12	stimuli_target_squarediamonds.svg	stimuli_distractor_trianglediamonds.svg	5	yes	57	0	618
6.6.1	win	2022-12-15	01:38:22	01:44:53	389954	5bc0ac845a09ea00012e2d30	803688743	1	practice_z	9	practice_z	13	stimuli_target_circlediamonds.svg	stimuli_distractor_diamondtriangles.svg	1	yes	44	1	406
6.6.1	win	2022-12-15	01:38:22	01:44:53	389954	5bc0ac845a09ea00012e2d30	803688743	1	practice_z	9	advance_on_keypress_ZEE	14	stimuli_target_circlediamonds.svg	stimuli_distractor_diamondtriangles.svg	1	yes	57	0	286
6.6.1	win	2022-12-15	01:38:22	01:44:56	392724	5bc0ac845a09ea00012e2d30	803688743	1	practice_z	9	practice_z	15	stimuli_distractor_trianglediamonds.svg	stimuli_distractor_trianglediamonds.svg	15	no	44	0	868
6.6.1	win	2022-12-15	01:38:22	01:44:56	392724	5bc0ac845a09ea00012e2d30	803688743	1	practice_z	9	advance_on_keypress_ZEE	16	stimuli_distractor_trianglediamonds.svg	stimuli_distractor_trianglediamonds.svg	15	no	57	0	461
6.6.1	win	2022-12-15	01:38:22	01:44:59	395464	5bc0ac845a09ea00012e2d30	803688743	1	practice_z	9	practice_z	17	stimuli_distractor_trianglediamonds.svg	stimuli_target_circlediamonds.svg	10	yes	44	1	657
6.6.1	win	2022-12-15	01:38:22	01:44:59	395464	5bc0ac845a09ea00012e2d30	803688743	1	practice_z	9	advance_on_keypress_ZEE	18	stimuli_distractor_trianglediamonds.svg	stimuli_target_circlediamonds.svg	10	yes	57	0	588
6.6.1	win	2022-12-15	01:38:22	01:45:01	398226	5bc0ac845a09ea00012e2d30	803688743	1	practice_z	9	practice_z	19	stimuli_distractor_diamondtriangles.svg	stimuli_target_diamondcircles.svg	8	yes	44	1	553
6.6.1	win	2022-12-15	01:38:22	01:45:01	398226	5bc0ac845a09ea00012e2d30	803688743	1	practice_z	9	advance_on_keypress_ZEE	20	stimuli_distractor_diamondtriangles.svg	stimuli_target_diamondcircles.svg	8	yes	57	0	418
6.6.1	win	2022-12-15	01:38:22	01:45:05	401429	5bc0ac845a09ea00012e2d30	803688743	1	practice_z	9	practice_z	21	stimuli_distractor_diamondtriangles.svg	stimuli_distractor_trianglediamonds.svg	14	no	44	0	1165
6.6.1	win	2022-12-15	01:38:22	01:45:05	401429	5bc0ac845a09ea00012e2d30	803688743	1	practice_z	9	advance_on_keypress_ZEE	22	stimuli_distractor_diamondtriangles.svg	stimuli_distractor_trianglediamonds.svg	14	no	57	0	444
6.6.1	win	2022-12-15	01:38:22	01:45:09	405495	5bc0ac845a09ea00012e2d30	803688743	1	practice_z	9	practice_z	23	stimuli_distractor_diamondtriangles.svg	stimuli_distractor_diamondtriangles.svg	13	no	0	1	2003
6.6.1	win	2022-12-15	01:38:22	01:45:09	405495	5bc0ac845a09ea00012e2d30	803688743	1	practice_z	9	advance_on_keypress_ZEE	24	stimuli_distractor_diamondtriangles.svg	stimuli_distractor_diamondtriangles.svg	13	no	57	0	486
6.6.1	win	2022-12-15	01:38:22	01:45:11	408108	5bc0ac845a09ea00012e2d30	803688743	1	practice_z	9	practice_z	25	stimuli_distractor_trianglediamonds.svg	stimuli_target_diamondcircles.svg	12	yes	44	1	512
6.6.1	win	2022-12-15	01:38:22	01:45:11	408108	5bc0ac845a09ea00012e2d30	803688743	1	practice_z	9	advance_on_keypress_ZEE	26	stimuli_distractor_trianglediamonds.svg	stimuli_target_diamondcircles.svg	12	yes	57	0	324
6.6.1	win	2022-12-15	01:38:22	01:45:14	410938	5bc0ac845a09ea00012e2d30	803688743	1	practice_z	9	practice_z	27	stimuli_distractor_diamondtriangles.svg	stimuli_target_trianglecircles.svg	9	yes	44	1	882
6.6.1	win	2022-12-15	01:38:22	01:45:14	410938	5bc0ac845a09ea00012e2d30	803688743	1	practice_z	9	advance_on_keypress_ZEE	28	stimuli_distractor_diamondtriangles.svg	stimuli_target_trianglecircles.svg	9	yes	57	0	343
6.6.1	win	2022-12-15	01:38:22	01:45:17	413675	5bc0ac845a09ea00012e2d30	803688743	1	practice_z	9	practice_z	29	stimuli_distractor_trianglediamonds.svg	stimuli_target_squarediamonds.svg	11	yes	44	1	752
6.6.1	win	2022-12-15	01:38:22	01:45:17	413675	5bc0ac845a09ea00012e2d30	803688743	1	practice_z	9	advance_on_keypress_ZEE	30	stimuli_distractor_trianglediamonds.svg	stimuli_target_squarediamonds.svg	11	yes	57	0	524
6.6.1	win	2022-12-15	01:38:22	01:45:20	416776	5bc0ac845a09ea00012e2d30	803688743	1	practice_z	9	practice_z	31	stimuli_target_diamondsquares.svg	stimuli_distractor_diamondtriangles.svg	3	yes	44	1	958
6.6.1	win	2022-12-15	01:38:22	01:45:20	416776	5bc0ac845a09ea00012e2d30	803688743	1	practice_z	9	advance_on_keypress_ZEE	32	stimuli_target_diamondsquares.svg	stimuli_distractor_diamondtriangles.svg	3	yes	57	0	441
6.6.1	win	2022-12-15	01:38:22	01:45:25	422297	5bc0ac845a09ea00012e2d30	803688743	1	main_z	11	main_z	1	stimuli_distractor_diamondtriangles.svg	stimuli_distractor_diamondtriangles.svg	39	no	44	0	1125
6.6.1	win	2022-12-15	01:38:22	01:45:25	422297	5bc0ac845a09ea00012e2d30	803688743	1	main_z	11	advance_on_keypress_ZEE	2	stimuli_distractor_diamondtriangles.svg	stimuli_distractor_diamondtriangles.svg	39	no	57	0	725
6.6.1	win	2022-12-15	01:38:22	01:45:29	425654	5bc0ac845a09ea00012e2d30	803688743	1	main_z	11	main_z	3	stimuli_distractor_diamondtriangles.svg	stimuli_distractor_trianglediamonds.svg	37	no	0	1	2003
6.6.1	win	2022-12-15	01:38:22	01:45:29	425654	5bc0ac845a09ea00012e2d30	803688743	1	main_z	11	advance_on_keypress_ZEE	4	stimuli_distractor_diamondtriangles.svg	stimuli_distractor_trianglediamonds.svg	37	no	57	0	563
6.6.1	win	2022-12-15	01:38:22	01:45:31	427469	5bc0ac845a09ea00012e2d30	803688743	1	main_z	11	main_z	5	stimuli_distractor_diamondtriangles.svg	stimuli_target_squarediamonds.svg	16	yes	44	1	638
6.6.1	win	2022-12-15	01:38:22	01:45:31	427469	5bc0ac845a09ea00012e2d30	803688743	1	main_z	11	advance_on_keypress_ZEE	6	stimuli_distractor_diamondtriangles.svg	stimuli_target_squarediamonds.svg	16	yes	57	0	523
6.6.1	win	2022-12-15	01:38:22	01:45:33	429513	5bc0ac845a09ea00012e2d30	803688743	1	main_z	11	main_z	7	stimuli_target_squaretriangles.svg	stimuli_distractor_diamondtriangles.svg	7	yes	44	1	904
6.6.1	win	2022-12-15	01:38:22	01:45:33	429513	5bc0ac845a09ea00012e2d30	803688743	1	main_z	11	advance_on_keypress_ZEE	8	stimuli_target_squaretriangles.svg	stimuli_distractor_diamondtriangles.svg	7	yes	57	0	480
6.6.1	win	2022-12-15	01:38:22	01:45:34	431314	5bc0ac845a09ea00012e2d30	803688743	1	main_z	11	main_z	9	stimuli_distractor_trianglediamonds.svg	stimuli_target_trianglesquares.svg	26	yes	44	1	705
6.6.1	win	2022-12-15	01:38:22	01:45:34	431314	5bc0ac845a09ea00012e2d30	803688743	1	main_z	11	advance_on_keypress_ZEE	10	stimuli_distractor_trianglediamonds.svg	stimuli_target_trianglesquares.svg	26	yes	57	0	440
6.6.1	win	2022-12-15	01:38:22	01:45:37	433894	5bc0ac845a09ea00012e2d30	803688743	1	main_z	11	main_z	11	stimuli_distractor_diamondtriangles.svg	stimuli_target_trianglesquares.svg	30	yes	44	1	1527
6.6.1	win	2022-12-15	01:38:22	01:45:37	433894	5bc0ac845a09ea00012e2d30	803688743	1	main_z	11	advance_on_keypress_ZEE	12	stimuli_distractor_diamondtriangles.svg	stimuli_target_trianglesquares.svg	30	yes	57	0	470
6.6.1	win	2022-12-15	01:38:22	01:45:39	435595	5bc0ac845a09ea00012e2d30	803688743	1	main_z	11	main_z	13	stimuli_target_circletriangles.svg	stimuli_distractor_trianglediamonds.svg	1	yes	44	1	610
6.6.1	win	2022-12-15	01:38:22	01:45:39	435595	5bc0ac845a09ea00012e2d30	803688743	1	main_z	11	advance_on_keypress_ZEE	14	stimuli_target_circletriangles.svg	stimuli_distractor_trianglediamonds.svg	1	yes	57	0	488
6.6.1	win	2022-12-15	01:38:22	01:45:40	437286	5bc0ac845a09ea00012e2d30	803688743	1	main_z	11	main_z	15	stimuli_distractor_trianglediamonds.svg	stimuli_target_trianglecircles.svg	25	yes	44	1	587
6.6.1	win	2022-12-15	01:38:22	01:45:40	437286	5bc0ac845a09ea00012e2d30	803688743	1	main_z	11	advance_on_keypress_ZEE	16	stimuli_distractor_trianglediamonds.svg	stimuli_target_trianglecircles.svg	25	yes	57	0	333
6.6.1	win	2022-12-15	01:38:22	01:45:42	438750	5bc0ac845a09ea00012e2d30	803688743	1	main_z	11	main_z	17	stimuli_target_squaretriangles.svg	stimuli_distractor_trianglediamonds.svg	3	yes	44	1	516
6.6.1	win	2022-12-15	01:38:22	01:45:42	438750	5bc0ac845a09ea00012e2d30	803688743	1	main_z	11	advance_on_keypress_ZEE	18	stimuli_target_squaretriangles.svg	stimuli_distractor_trianglediamonds.svg	3	yes	57	0	308
6.6.1	win	2022-12-15	01:38:22	01:45:43	440212	5bc0ac845a09ea00012e2d30	803688743	1	main_z	11	main_z	19	stimuli_target_trianglecircles.svg	stimuli_distractor_trianglediamonds.svg	17	yes	44	1	541
6.6.1	win	2022-12-15	01:38:22	01:45:43	440212	5bc0ac845a09ea00012e2d30	803688743	1	main_z	11	advance_on_keypress_ZEE	20	stimuli_target_trianglecircles.svg	stimuli_distractor_trianglediamonds.svg	17	yes	57	0	285
6.6.1	win	2022-12-15	01:38:22	01:45:45	441780	5bc0ac845a09ea00012e2d30	803688743	1	main_z	11	main_z	21	stimuli_target_diamondsquares.svg	stimuli_distractor_trianglediamonds.svg	20	yes	44	1	664
6.6.1	win	2022-12-15	01:38:22	01:45:45	441780	5bc0ac845a09ea00012e2d30	803688743	1	main_z	11	advance_on_keypress_ZEE	22	stimuli_target_diamondsquares.svg	stimuli_distractor_trianglediamonds.svg	20	yes	57	0	232
6.6.1	win	2022-12-15	01:38:22	01:45:47	443589	5bc0ac845a09ea00012e2d30	803688743	1	main_z	11	main_z	23	stimuli_distractor_diamondtriangles.svg	stimuli_distractor_trianglediamonds.svg	38	no	44	0	959
6.6.1	win	2022-12-15	01:38:22	01:45:47	443589	5bc0ac845a09ea00012e2d30	803688743	1	main_z	11	advance_on_keypress_ZEE	24	stimuli_distractor_diamondtriangles.svg	stimuli_distractor_trianglediamonds.svg	38	no	57	0	345
6.6.1	win	2022-12-15	01:38:22	01:45:48	445250	5bc0ac845a09ea00012e2d30	803688743	1	main_z	11	main_z	25	stimuli_distractor_trianglediamonds.svg	stimuli_target_circletriangles.svg	9	yes	44	1	697
6.6.1	win	2022-12-15	01:38:22	01:45:48	445250	5bc0ac845a09ea00012e2d30	803688743	1	main_z	11	advance_on_keypress_ZEE	26	stimuli_distractor_trianglediamonds.svg	stimuli_target_circletriangles.svg	9	yes	57	0	263
6.6.1	win	2022-12-15	01:38:22	01:45:50	446722	5bc0ac845a09ea00012e2d30	803688743	1	main_z	11	main_z	27	stimuli_target_circlediamonds.svg	stimuli_distractor_diamondtriangles.svg	6	yes	44	1	593
6.6.1	win	2022-12-15	01:38:22	01:45:50	446722	5bc0ac845a09ea00012e2d30	803688743	1	main_z	11	advance_on_keypress_ZEE	28	stimuli_target_circlediamonds.svg	stimuli_distractor_diamondtriangles.svg	6	yes	57	0	273
6.6.1	win	2022-12-15	01:38:22	01:45:51	448385	5bc0ac845a09ea00012e2d30	803688743	1	main_z	11	main_z	29	stimuli_distractor_trianglediamonds.svg	stimuli_distractor_diamondtriangles.svg	35	no	44	0	776
6.6.1	win	2022-12-15	01:38:22	01:45:51	448385	5bc0ac845a09ea00012e2d30	803688743	1	main_z	11	advance_on_keypress_ZEE	30	stimuli_distractor_trianglediamonds.svg	stimuli_distractor_diamondtriangles.svg	35	no	57	0	253
6.6.1	win	2022-12-15	01:38:22	01:45:53	449831	5bc0ac845a09ea00012e2d30	803688743	1	main_z	11	main_z	31	stimuli_target_circletriangles.svg	stimuli_distractor_diamondtriangles.svg	5	yes	44	1	576
6.6.1	win	2022-12-15	01:38:22	01:45:53	449831	5bc0ac845a09ea00012e2d30	803688743	1	main_z	11	advance_on_keypress_ZEE	32	stimuli_target_circletriangles.svg	stimuli_distractor_diamondtriangles.svg	5	yes	57	0	263
6.6.1	win	2022-12-15	01:38:22	01:45:55	451894	5bc0ac845a09ea00012e2d30	803688743	1	main_z	11	main_z	33	stimuli_target_circlediamonds.svg	stimuli_distractor_trianglediamonds.svg	2	yes	44	1	1181
6.6.1	win	2022-12-15	01:38:22	01:45:55	451894	5bc0ac845a09ea00012e2d30	803688743	1	main_z	11	advance_on_keypress_ZEE	34	stimuli_target_circlediamonds.svg	stimuli_distractor_trianglediamonds.svg	2	yes	57	0	267
6.6.1	win	2022-12-15	01:38:22	01:45:58	454778	5bc0ac845a09ea00012e2d30	803688743	1	main_z	11	main_z	35	stimuli_distractor_trianglediamonds.svg	stimuli_distractor_trianglediamonds.svg	34	no	0	1	2003
6.6.1	win	2022-12-15	01:38:22	01:45:58	454778	5bc0ac845a09ea00012e2d30	803688743	1	main_z	11	advance_on_keypress_ZEE	36	stimuli_distractor_trianglediamonds.svg	stimuli_distractor_trianglediamonds.svg	34	no	57	0	511
6.6.1	win	2022-12-15	01:38:22	01:45:59	456402	5bc0ac845a09ea00012e2d30	803688743	1	main_z	11	main_z	37	stimuli_target_diamondsquares.svg	stimuli_distractor_diamondtriangles.svg	24	yes	44	1	488
6.6.1	win	2022-12-15	01:38:22	01:45:59	456402	5bc0ac845a09ea00012e2d30	803688743	1	main_z	11	advance_on_keypress_ZEE	38	stimuli_target_diamondsquares.svg	stimuli_distractor_diamondtriangles.svg	24	yes	57	0	269
6.6.1	win	2022-12-15	01:38:22	01:46:01	457836	5bc0ac845a09ea00012e2d30	803688743	1	main_z	11	main_z	39	stimuli_target_trianglecircles.svg	stimuli_distractor_diamondtriangles.svg	21	yes	44	1	547
6.6.1	win	2022-12-15	01:38:22	01:46:01	457836	5bc0ac845a09ea00012e2d30	803688743	1	main_z	11	advance_on_keypress_ZEE	40	stimuli_target_trianglecircles.svg	stimuli_distractor_diamondtriangles.svg	21	yes	57	0	250
6.6.1	win	2022-12-15	01:38:22	01:46:02	459382	5bc0ac845a09ea00012e2d30	803688743	1	main_z	11	main_z	41	stimuli_distractor_diamondtriangles.svg	stimuli_target_diamondsquares.svg	32	yes	44	1	676
6.6.1	win	2022-12-15	01:38:22	01:46:02	459382	5bc0ac845a09ea00012e2d30	803688743	1	main_z	11	advance_on_keypress_ZEE	42	stimuli_distractor_diamondtriangles.svg	stimuli_target_diamondsquares.svg	32	yes	57	0	262
6.6.1	win	2022-12-15	01:38:22	01:46:04	461229	5bc0ac845a09ea00012e2d30	803688743	1	main_z	11	main_z	43	stimuli_distractor_trianglediamonds.svg	stimuli_distractor_trianglediamonds.svg	33	no	44	0	968
6.6.1	win	2022-12-15	01:38:22	01:46:04	461229	5bc0ac845a09ea00012e2d30	803688743	1	main_z	11	advance_on_keypress_ZEE	44	stimuli_distractor_trianglediamonds.svg	stimuli_distractor_trianglediamonds.svg	33	no	57	0	349
6.6.1	win	2022-12-15	01:38:22	01:46:06	462817	5bc0ac845a09ea00012e2d30	803688743	1	main_z	11	main_z	45	stimuli_distractor_diamondtriangles.svg	stimuli_target_trianglecircles.svg	29	yes	44	1	625
6.6.1	win	2022-12-15	01:38:22	01:46:06	462817	5bc0ac845a09ea00012e2d30	803688743	1	main_z	11	advance_on_keypress_ZEE	46	stimuli_distractor_diamondtriangles.svg	stimuli_target_trianglecircles.svg	29	yes	57	0	246
6.6.1	win	2022-12-15	01:38:22	01:46:08	464441	5bc0ac845a09ea00012e2d30	803688743	1	main_z	11	main_z	47	stimuli_target_squarediamonds.svg	stimuli_distractor_trianglediamonds.svg	4	yes	44	1	763
6.6.1	win	2022-12-15	01:38:22	01:46:08	464441	5bc0ac845a09ea00012e2d30	803688743	1	main_z	11	advance_on_keypress_ZEE	48	stimuli_target_squarediamonds.svg	stimuli_distractor_trianglediamonds.svg	4	yes	57	0	275
6.6.1	win	2022-12-15	01:38:22	01:46:09	465864	5bc0ac845a09ea00012e2d30	803688743	1	main_z	11	main_z	49	stimuli_distractor_diamondtriangles.svg	stimuli_target_squaretriangles.svg	15	yes	44	1	523
6.6.1	win	2022-12-15	01:38:22	01:46:09	465864	5bc0ac845a09ea00012e2d30	803688743	1	main_z	11	advance_on_keypress_ZEE	50	stimuli_distractor_diamondtriangles.svg	stimuli_target_squaretriangles.svg	15	yes	57	0	221
6.6.1	win	2022-12-15	01:38:22	01:46:10	467189	5bc0ac845a09ea00012e2d30	803688743	1	main_z	11	main_z	51	stimuli_distractor_diamondtriangles.svg	stimuli_target_circlediamonds.svg	14	yes	44	1	483
6.6.1	win	2022-12-15	01:38:22	01:46:10	467189	5bc0ac845a09ea00012e2d30	803688743	1	main_z	11	advance_on_keypress_ZEE	52	stimuli_distractor_diamondtriangles.svg	stimuli_target_circlediamonds.svg	14	yes	57	0	310
6.6.1	win	2022-12-15	01:38:22	01:46:12	468678	5bc0ac845a09ea00012e2d30	803688743	1	main_z	11	main_z	53	stimuli_distractor_trianglediamonds.svg	stimuli_target_squarediamonds.svg	12	yes	44	1	563
6.6.1	win	2022-12-15	01:38:22	01:46:12	468678	5bc0ac845a09ea00012e2d30	803688743	1	main_z	11	advance_on_keypress_ZEE	54	stimuli_distractor_trianglediamonds.svg	stimuli_target_squarediamonds.svg	12	yes	57	0	215
6.6.1	win	2022-12-15	01:38:22	01:46:13	470062	5bc0ac845a09ea00012e2d30	803688743	1	main_z	11	main_z	55	stimuli_distractor_diamondtriangles.svg	stimuli_target_diamondcircles.svg	31	yes	44	1	551
6.6.1	win	2022-12-15	01:38:22	01:46:13	470062	5bc0ac845a09ea00012e2d30	803688743	1	main_z	11	advance_on_keypress_ZEE	56	stimuli_distractor_diamondtriangles.svg	stimuli_target_diamondcircles.svg	31	yes	57	0	243
6.6.1	win	2022-12-15	01:38:22	01:46:15	471509	5bc0ac845a09ea00012e2d30	803688743	1	main_z	11	main_z	57	stimuli_distractor_trianglediamonds.svg	stimuli_target_circlediamonds.svg	10	yes	44	1	588
6.6.1	win	2022-12-15	01:38:22	01:46:15	471509	5bc0ac845a09ea00012e2d30	803688743	1	main_z	11	advance_on_keypress_ZEE	58	stimuli_distractor_trianglediamonds.svg	stimuli_target_circlediamonds.svg	10	yes	57	0	268
6.6.1	win	2022-12-15	01:38:22	01:46:16	472856	5bc0ac845a09ea00012e2d30	803688743	1	main_z	11	main_z	59	stimuli_target_squarediamonds.svg	stimuli_distractor_diamondtriangles.svg	8	yes	44	1	456
6.6.1	win	2022-12-15	01:38:22	01:46:16	472856	5bc0ac845a09ea00012e2d30	803688743	1	main_z	11	advance_on_keypress_ZEE	60	stimuli_target_squarediamonds.svg	stimuli_distractor_diamondtriangles.svg	8	yes	57	0	299
6.6.1	win	2022-12-15	01:38:22	01:46:17	474408	5bc0ac845a09ea00012e2d30	803688743	1	main_z	11	main_z	61	stimuli_target_trianglesquares.svg	stimuli_distractor_diamondtriangles.svg	22	yes	44	1	633
6.6.1	win	2022-12-15	01:38:22	01:46:17	474408	5bc0ac845a09ea00012e2d30	803688743	1	main_z	11	advance_on_keypress_ZEE	62	stimuli_target_trianglesquares.svg	stimuli_distractor_diamondtriangles.svg	22	yes	57	0	231
6.6.1	win	2022-12-15	01:38:22	01:46:19	475705	5bc0ac845a09ea00012e2d30	803688743	1	main_z	11	main_z	63	stimuli_target_diamondcircles.svg	stimuli_distractor_trianglediamonds.svg	19	yes	44	1	451
6.6.1	win	2022-12-15	01:38:22	01:46:19	475705	5bc0ac845a09ea00012e2d30	803688743	1	main_z	11	advance_on_keypress_ZEE	64	stimuli_target_diamondcircles.svg	stimuli_distractor_trianglediamonds.svg	19	yes	57	0	307
6.6.1	win	2022-12-15	01:38:22	01:46:20	477205	5bc0ac845a09ea00012e2d30	803688743	1	main_z	11	main_z	65	stimuli_distractor_trianglediamonds.svg	stimuli_distractor_diamondtriangles.svg	36	no	44	0	576
6.6.1	win	2022-12-15	01:38:22	01:46:20	477205	5bc0ac845a09ea00012e2d30	803688743	1	main_z	11	advance_on_keypress_ZEE	66	stimuli_distractor_trianglediamonds.svg	stimuli_distractor_diamondtriangles.svg	36	no	57	0	359
6.6.1	win	2022-12-15	01:38:22	01:46:22	478863	5bc0ac845a09ea00012e2d30	803688743	1	main_z	11	main_z	67	stimuli_distractor_trianglediamonds.svg	stimuli_target_diamondsquares.svg	28	yes	44	1	678
6.6.1	win	2022-12-15	01:38:22	01:46:22	478863	5bc0ac845a09ea00012e2d30	803688743	1	main_z	11	advance_on_keypress_ZEE	68	stimuli_distractor_trianglediamonds.svg	stimuli_target_diamondsquares.svg	28	yes	57	0	262
6.6.1	win	2022-12-15	01:38:22	01:46:23	480204	5bc0ac845a09ea00012e2d30	803688743	1	main_z	11	main_z	69	stimuli_distractor_trianglediamonds.svg	stimuli_target_squaretriangles.svg	11	yes	44	1	457
6.6.1	win	2022-12-15	01:38:22	01:46:23	480204	5bc0ac845a09ea00012e2d30	803688743	1	main_z	11	advance_on_keypress_ZEE	70	stimuli_distractor_trianglediamonds.svg	stimuli_target_squaretriangles.svg	11	yes	57	0	264
6.6.1	win	2022-12-15	01:38:22	01:46:25	481550	5bc0ac845a09ea00012e2d30	803688743	1	main_z	11	main_z	71	stimuli_distractor_trianglediamonds.svg	stimuli_target_diamondcircles.svg	27	yes	44	1	463
6.6.1	win	2022-12-15	01:38:22	01:46:25	481550	5bc0ac845a09ea00012e2d30	803688743	1	main_z	11	advance_on_keypress_ZEE	72	stimuli_distractor_trianglediamonds.svg	stimuli_target_diamondcircles.svg	27	yes	57	0	274
6.6.1	win	2022-12-15	01:38:22	01:46:26	483043	5bc0ac845a09ea00012e2d30	803688743	1	main_z	11	main_z	73	stimuli_target_trianglesquares.svg	stimuli_distractor_trianglediamonds.svg	18	yes	44	1	608
6.6.1	win	2022-12-15	01:38:22	01:46:26	483043	5bc0ac845a09ea00012e2d30	803688743	1	main_z	11	advance_on_keypress_ZEE	74	stimuli_target_trianglesquares.svg	stimuli_distractor_trianglediamonds.svg	18	yes	57	0	246
6.6.1	win	2022-12-15	01:38:22	01:46:28	484414	5bc0ac845a09ea00012e2d30	803688743	1	main_z	11	main_z	75	stimuli_target_diamondcircles.svg	stimuli_distractor_diamondtriangles.svg	23	yes	44	1	500
6.6.1	win	2022-12-15	01:38:22	01:46:28	484414	5bc0ac845a09ea00012e2d30	803688743	1	main_z	11	advance_on_keypress_ZEE	76	stimuli_target_diamondcircles.svg	stimuli_distractor_diamondtriangles.svg	23	yes	57	0	298
6.6.1	win	2022-12-15	01:38:22	01:46:29	486091	5bc0ac845a09ea00012e2d30	803688743	1	main_z	11	main_z	77	stimuli_distractor_diamondtriangles.svg	stimuli_target_circletriangles.svg	13	yes	44	1	761
6.6.1	win	2022-12-15	01:38:22	01:46:29	486091	5bc0ac845a09ea00012e2d30	803688743	1	main_z	11	advance_on_keypress_ZEE	78	stimuli_distractor_diamondtriangles.svg	stimuli_target_circletriangles.svg	13	yes	57	0	286
6.6.1	win	2022-12-15	01:38:22	01:46:31	487945	5bc0ac845a09ea00012e2d30	803688743	1	main_z	11	main_z	79	stimuli_distractor_diamondtriangles.svg	stimuli_distractor_diamondtriangles.svg	40	no	44	0	955
6.6.1	win	2022-12-15	01:38:22	01:46:31	487945	5bc0ac845a09ea00012e2d30	803688743	1	main_z	11	advance_on_keypress_ZEE	80	stimuli_distractor_diamondtriangles.svg	stimuli_distractor_diamondtriangles.svg	40	no	57	0	341
6.6.1	win	2022-12-15	01:38:22	01:46:34	490912	5bc0ac845a09ea00012e2d30	803688743	1	main_z	11	main_z	81	stimuli_distractor_trianglediamonds.svg	stimuli_distractor_diamondtriangles.svg	36	no	0	1	2003
6.6.1	win	2022-12-15	01:38:22	01:46:34	490912	5bc0ac845a09ea00012e2d30	803688743	1	main_z	11	advance_on_keypress_ZEE	82	stimuli_distractor_trianglediamonds.svg	stimuli_distractor_diamondtriangles.svg	36	no	57	0	455
6.6.1	win	2022-12-15	01:38:22	01:46:36	492696	5bc0ac845a09ea00012e2d30	803688743	1	main_z	11	main_z	83	stimuli_distractor_diamondtriangles.svg	stimuli_target_diamondcircles.svg	31	yes	44	1	713
6.6.1	win	2022-12-15	01:38:22	01:46:36	492696	5bc0ac845a09ea00012e2d30	803688743	1	main_z	11	advance_on_keypress_ZEE	84	stimuli_distractor_diamondtriangles.svg	stimuli_target_diamondcircles.svg	31	yes	57	0	439
6.6.1	win	2022-12-15	01:38:22	01:46:37	494336	5bc0ac845a09ea00012e2d30	803688743	1	main_z	11	main_z	85	stimuli_target_circlediamonds.svg	stimuli_distractor_diamondtriangles.svg	6	yes	44	1	582
6.6.1	win	2022-12-15	01:38:22	01:46:37	494336	5bc0ac845a09ea00012e2d30	803688743	1	main_z	11	advance_on_keypress_ZEE	86	stimuli_target_circlediamonds.svg	stimuli_distractor_diamondtriangles.svg	6	yes	57	0	269
6.6.1	win	2022-12-15	01:38:22	01:46:39	495744	5bc0ac845a09ea00012e2d30	803688743	1	main_z	11	main_z	87	stimuli_target_diamondcircles.svg	stimuli_distractor_diamondtriangles.svg	23	yes	44	1	518
6.6.1	win	2022-12-15	01:38:22	01:46:39	495744	5bc0ac845a09ea00012e2d30	803688743	1	main_z	11	advance_on_keypress_ZEE	88	stimuli_target_diamondcircles.svg	stimuli_distractor_diamondtriangles.svg	23	yes	57	0	283
6.6.1	win	2022-12-15	01:38:22	01:46:40	497403	5bc0ac845a09ea00012e2d30	803688743	1	main_z	11	main_z	89	stimuli_distractor_trianglediamonds.svg	stimuli_target_trianglesquares.svg	26	yes	44	1	759
6.6.1	win	2022-12-15	01:38:22	01:46:40	497403	5bc0ac845a09ea00012e2d30	803688743	1	main_z	11	advance_on_keypress_ZEE	90	stimuli_distractor_trianglediamonds.svg	stimuli_target_trianglesquares.svg	26	yes	57	0	238
6.6.1	win	2022-12-15	01:38:22	01:46:43	500257	5bc0ac845a09ea00012e2d30	803688743	1	main_z	11	main_z	91	stimuli_distractor_diamondtriangles.svg	stimuli_distractor_diamondtriangles.svg	40	no	0	1	2003
6.6.1	win	2022-12-15	01:38:22	01:46:43	500257	5bc0ac845a09ea00012e2d30	803688743	1	main_z	11	advance_on_keypress_ZEE	92	stimuli_distractor_diamondtriangles.svg	stimuli_distractor_diamondtriangles.svg	40	no	57	0	484
6.6.1	win	2022-12-15	01:38:22	01:46:45	501815	5bc0ac845a09ea00012e2d30	803688743	1	main_z	11	main_z	93	stimuli_target_diamondsquares.svg	stimuli_distractor_trianglediamonds.svg	20	yes	44	1	457
6.6.1	win	2022-12-15	01:38:22	01:46:45	501815	5bc0ac845a09ea00012e2d30	803688743	1	main_z	11	advance_on_keypress_ZEE	94	stimuli_target_diamondsquares.svg	stimuli_distractor_trianglediamonds.svg	20	yes	57	0	283
6.6.1	win	2022-12-15	01:38:22	01:46:46	503379	5bc0ac845a09ea00012e2d30	803688743	1	main_z	11	main_z	95	stimuli_distractor_trianglediamonds.svg	stimuli_target_squarediamonds.svg	12	yes	44	1	660
6.6.1	win	2022-12-15	01:38:22	01:46:46	503379	5bc0ac845a09ea00012e2d30	803688743	1	main_z	11	advance_on_keypress_ZEE	96	stimuli_distractor_trianglediamonds.svg	stimuli_target_squarediamonds.svg	12	yes	57	0	294
6.6.1	win	2022-12-15	01:38:22	01:46:49	506291	5bc0ac845a09ea00012e2d30	803688743	1	main_z	11	main_z	97	stimuli_distractor_trianglediamonds.svg	stimuli_distractor_trianglediamonds.svg	33	no	0	1	2003
6.6.1	win	2022-12-15	01:38:22	01:46:49	506291	5bc0ac845a09ea00012e2d30	803688743	1	main_z	11	advance_on_keypress_ZEE	98	stimuli_distractor_trianglediamonds.svg	stimuli_distractor_trianglediamonds.svg	33	no	57	0	591
6.6.1	win	2022-12-15	01:38:22	01:46:51	507932	5bc0ac845a09ea00012e2d30	803688743	1	main_z	11	main_z	99	stimuli_target_diamondcircles.svg	stimuli_distractor_trianglediamonds.svg	19	yes	44	1	435
6.6.1	win	2022-12-15	01:38:22	01:46:51	507932	5bc0ac845a09ea00012e2d30	803688743	1	main_z	11	advance_on_keypress_ZEE	100	stimuli_target_diamondcircles.svg	stimuli_distractor_trianglediamonds.svg	19	yes	57	0	267
6.6.1	win	2022-12-15	01:38:22	01:46:53	509410	5bc0ac845a09ea00012e2d30	803688743	1	main_z	11	main_z	101	stimuli_target_squarediamonds.svg	stimuli_distractor_trianglediamonds.svg	4	yes	44	1	594
6.6.1	win	2022-12-15	01:38:22	01:46:53	509410	5bc0ac845a09ea00012e2d30	803688743	1	main_z	11	advance_on_keypress_ZEE	102	stimuli_target_squarediamonds.svg	stimuli_distractor_trianglediamonds.svg	4	yes	57	0	279
6.6.1	win	2022-12-15	01:38:22	01:46:54	510869	5bc0ac845a09ea00012e2d30	803688743	1	main_z	11	main_z	103	stimuli_distractor_trianglediamonds.svg	stimuli_target_squaretriangles.svg	11	yes	44	1	567
6.6.1	win	2022-12-15	01:38:22	01:46:54	510869	5bc0ac845a09ea00012e2d30	803688743	1	main_z	11	advance_on_keypress_ZEE	104	stimuli_distractor_trianglediamonds.svg	stimuli_target_squaretriangles.svg	11	yes	57	0	399
6.6.1	win	2022-12-15	01:38:22	01:46:56	512601	5bc0ac845a09ea00012e2d30	803688743	1	main_z	11	main_z	105	stimuli_distractor_diamondtriangles.svg	stimuli_target_trianglecircles.svg	29	yes	44	1	716
6.6.1	win	2022-12-15	01:38:22	01:46:56	512601	5bc0ac845a09ea00012e2d30	803688743	1	main_z	11	advance_on_keypress_ZEE	106	stimuli_distractor_diamondtriangles.svg	stimuli_target_trianglecircles.svg	29	yes	57	0	246
6.6.1	win	2022-12-15	01:38:22	01:46:57	514185	5bc0ac845a09ea00012e2d30	803688743	1	main_z	11	main_z	107	stimuli_distractor_diamondtriangles.svg	stimuli_target_squarediamonds.svg	16	yes	44	1	716
6.6.1	win	2022-12-15	01:38:22	01:46:57	514185	5bc0ac845a09ea00012e2d30	803688743	1	main_z	11	advance_on_keypress_ZEE	108	stimuli_distractor_diamondtriangles.svg	stimuli_target_squarediamonds.svg	16	yes	57	0	249
6.6.1	win	2022-12-15	01:38:22	01:47:00	517055	5bc0ac845a09ea00012e2d30	803688743	1	main_z	11	main_z	109	stimuli_distractor_diamondtriangles.svg	stimuli_distractor_diamondtriangles.svg	39	no	0	1	2003
6.6.1	win	2022-12-15	01:38:22	01:47:00	517055	5bc0ac845a09ea00012e2d30	803688743	1	main_z	11	advance_on_keypress_ZEE	110	stimuli_distractor_diamondtriangles.svg	stimuli_distractor_diamondtriangles.svg	39	no	57	0	535
6.6.1	win	2022-12-15	01:38:22	01:47:02	518611	5bc0ac845a09ea00012e2d30	803688743	1	main_z	11	main_z	111	stimuli_target_circlediamonds.svg	stimuli_distractor_trianglediamonds.svg	2	yes	44	1	406
6.6.1	win	2022-12-15	01:38:22	01:47:02	518611	5bc0ac845a09ea00012e2d30	803688743	1	main_z	11	advance_on_keypress_ZEE	112	stimuli_target_circlediamonds.svg	stimuli_distractor_trianglediamonds.svg	2	yes	57	0	247
6.6.1	win	2022-12-15	01:38:22	01:47:03	520083	5bc0ac845a09ea00012e2d30	803688743	1	main_z	11	main_z	113	stimuli_target_trianglesquares.svg	stimuli_distractor_trianglediamonds.svg	18	yes	44	1	607
6.6.1	win	2022-12-15	01:38:22	01:47:03	520083	5bc0ac845a09ea00012e2d30	803688743	1	main_z	11	advance_on_keypress_ZEE	114	stimuli_target_trianglesquares.svg	stimuli_distractor_trianglediamonds.svg	18	yes	57	0	196
6.6.1	win	2022-12-15	01:38:22	01:47:05	521698	5bc0ac845a09ea00012e2d30	803688743	1	main_z	11	main_z	115	stimuli_distractor_trianglediamonds.svg	stimuli_target_diamondcircles.svg	27	yes	44	1	805
6.6.1	win	2022-12-15	01:38:22	01:47:05	521698	5bc0ac845a09ea00012e2d30	803688743	1	main_z	11	advance_on_keypress_ZEE	116	stimuli_distractor_trianglediamonds.svg	stimuli_target_diamondcircles.svg	27	yes	57	0	195
6.6.1	win	2022-12-15	01:38:22	01:47:06	522998	5bc0ac845a09ea00012e2d30	803688743	1	main_z	11	main_z	117	stimuli_distractor_trianglediamonds.svg	stimuli_target_diamondsquares.svg	28	yes	44	1	488
6.6.1	win	2022-12-15	01:38:22	01:47:06	522998	5bc0ac845a09ea00012e2d30	803688743	1	main_z	11	advance_on_keypress_ZEE	118	stimuli_distractor_trianglediamonds.svg	stimuli_target_diamondsquares.svg	28	yes	57	0	204
6.6.1	win	2022-12-15	01:38:22	01:47:09	525819	5bc0ac845a09ea00012e2d30	803688743	1	main_z	11	main_z	119	stimuli_distractor_trianglediamonds.svg	stimuli_distractor_diamondtriangles.svg	35	no	0	1	2003
6.6.1	win	2022-12-15	01:38:22	01:47:09	525819	5bc0ac845a09ea00012e2d30	803688743	1	main_z	11	advance_on_keypress_ZEE	120	stimuli_distractor_trianglediamonds.svg	stimuli_distractor_diamondtriangles.svg	35	no	57	0	426
6.6.1	win	2022-12-15	01:38:22	01:47:10	527290	5bc0ac845a09ea00012e2d30	803688743	1	main_z	11	main_z	121	stimuli_distractor_trianglediamonds.svg	stimuli_target_circletriangles.svg	9	yes	44	1	432
6.6.1	win	2022-12-15	01:38:22	01:47:10	527290	5bc0ac845a09ea00012e2d30	803688743	1	main_z	11	advance_on_keypress_ZEE	122	stimuli_distractor_trianglediamonds.svg	stimuli_target_circletriangles.svg	9	yes	57	0	250
6.6.1	win	2022-12-15	01:38:22	01:47:13	530159	5bc0ac845a09ea00012e2d30	803688743	1	main_z	11	main_z	123	stimuli_distractor_diamondtriangles.svg	stimuli_distractor_trianglediamonds.svg	37	no	0	1	2003
6.6.1	win	2022-12-15	01:38:22	01:47:13	530159	5bc0ac845a09ea00012e2d30	803688743	1	main_z	11	advance_on_keypress_ZEE	124	stimuli_distractor_diamondtriangles.svg	stimuli_distractor_trianglediamonds.svg	37	no	57	0	279
6.6.1	win	2022-12-15	01:38:22	01:47:15	531413	5bc0ac845a09ea00012e2d30	803688743	1	main_z	11	main_z	125	stimuli_target_squarediamonds.svg	stimuli_distractor_diamondtriangles.svg	8	yes	44	1	360
6.6.1	win	2022-12-15	01:38:22	01:47:15	531413	5bc0ac845a09ea00012e2d30	803688743	1	main_z	11	advance_on_keypress_ZEE	126	stimuli_target_squarediamonds.svg	stimuli_distractor_diamondtriangles.svg	8	yes	57	0	296
6.6.1	win	2022-12-15	01:38:22	01:47:16	532814	5bc0ac845a09ea00012e2d30	803688743	1	main_z	11	main_z	127	stimuli_distractor_trianglediamonds.svg	stimuli_target_circlediamonds.svg	10	yes	44	1	484
6.6.1	win	2022-12-15	01:38:22	01:47:16	532814	5bc0ac845a09ea00012e2d30	803688743	1	main_z	11	advance_on_keypress_ZEE	128	stimuli_distractor_trianglediamonds.svg	stimuli_target_circlediamonds.svg	10	yes	57	0	308
6.6.1	win	2022-12-15	01:38:22	01:47:18	534839	5bc0ac845a09ea00012e2d30	803688743	1	main_z	11	main_z	129	stimuli_distractor_diamondtriangles.svg	stimuli_target_circletriangles.svg	13	yes	44	1	1100
6.6.1	win	2022-12-15	01:38:22	01:47:18	534839	5bc0ac845a09ea00012e2d30	803688743	1	main_z	11	advance_on_keypress_ZEE	130	stimuli_distractor_diamondtriangles.svg	stimuli_target_circletriangles.svg	13	yes	57	0	743
6.6.1	win	2022-12-15	01:38:22	01:47:20	536766	5bc0ac845a09ea00012e2d30	803688743	1	main_z	11	main_z	131	stimuli_target_circletriangles.svg	stimuli_distractor_trianglediamonds.svg	1	yes	44	1	568
6.6.1	win	2022-12-15	01:38:22	01:47:20	536766	5bc0ac845a09ea00012e2d30	803688743	1	main_z	11	advance_on_keypress_ZEE	132	stimuli_target_circletriangles.svg	stimuli_distractor_trianglediamonds.svg	1	yes	57	0	243
6.6.1	win	2022-12-15	01:38:22	01:47:21	538227	5bc0ac845a09ea00012e2d30	803688743	1	main_z	11	main_z	133	stimuli_distractor_diamondtriangles.svg	stimuli_distractor_trianglediamonds.svg	38	no	44	0	600
6.6.1	win	2022-12-15	01:38:22	01:47:21	538227	5bc0ac845a09ea00012e2d30	803688743	1	main_z	11	advance_on_keypress_ZEE	134	stimuli_distractor_diamondtriangles.svg	stimuli_distractor_trianglediamonds.svg	38	no	57	0	1330
6.6.1	win	2022-12-15	01:38:22	01:47:24	540715	5bc0ac845a09ea00012e2d30	803688743	1	main_z	11	main_z	135	stimuli_target_squaretriangles.svg	stimuli_distractor_diamondtriangles.svg	7	yes	44	1	530
6.6.1	win	2022-12-15	01:38:22	01:47:24	540715	5bc0ac845a09ea00012e2d30	803688743	1	main_z	11	advance_on_keypress_ZEE	136	stimuli_target_squaretriangles.svg	stimuli_distractor_diamondtriangles.svg	7	yes	57	0	172
6.6.1	win	2022-12-15	01:38:22	01:47:25	542042	5bc0ac845a09ea00012e2d30	803688743	1	main_z	11	main_z	137	stimuli_target_trianglecircles.svg	stimuli_distractor_diamondtriangles.svg	21	yes	44	1	539
6.6.1	win	2022-12-15	01:38:22	01:47:25	542042	5bc0ac845a09ea00012e2d30	803688743	1	main_z	11	advance_on_keypress_ZEE	138	stimuli_target_trianglecircles.svg	stimuli_distractor_diamondtriangles.svg	21	yes	57	0	240
6.6.1	win	2022-12-15	01:38:22	01:47:26	543392	5bc0ac845a09ea00012e2d30	803688743	1	main_z	11	main_z	139	stimuli_target_circletriangles.svg	stimuli_distractor_diamondtriangles.svg	5	yes	44	1	500
6.6.1	win	2022-12-15	01:38:22	01:47:26	543392	5bc0ac845a09ea00012e2d30	803688743	1	main_z	11	advance_on_keypress_ZEE	140	stimuli_target_circletriangles.svg	stimuli_distractor_diamondtriangles.svg	5	yes	57	0	231
6.6.1	win	2022-12-15	01:38:22	01:47:28	544786	5bc0ac845a09ea00012e2d30	803688743	1	main_z	11	main_z	141	stimuli_distractor_diamondtriangles.svg	stimuli_target_squaretriangles.svg	15	yes	44	1	547
6.6.1	win	2022-12-15	01:38:22	01:47:28	544786	5bc0ac845a09ea00012e2d30	803688743	1	main_z	11	advance_on_keypress_ZEE	142	stimuli_distractor_diamondtriangles.svg	stimuli_target_squaretriangles.svg	15	yes	57	0	178
6.6.1	win	2022-12-15	01:38:22	01:47:29	546138	5bc0ac845a09ea00012e2d30	803688743	1	main_z	11	main_z	143	stimuli_distractor_diamondtriangles.svg	stimuli_target_trianglesquares.svg	30	yes	44	1	552
6.6.1	win	2022-12-15	01:38:22	01:47:29	546138	5bc0ac845a09ea00012e2d30	803688743	1	main_z	11	advance_on_keypress_ZEE	144	stimuli_distractor_diamondtriangles.svg	stimuli_target_trianglesquares.svg	30	yes	57	0	240
6.6.1	win	2022-12-15	01:38:22	01:47:31	547439	5bc0ac845a09ea00012e2d30	803688743	1	main_z	11	main_z	145	stimuli_distractor_trianglediamonds.svg	stimuli_target_trianglecircles.svg	25	yes	44	1	450
6.6.1	win	2022-12-15	01:38:22	01:47:31	547439	5bc0ac845a09ea00012e2d30	803688743	1	main_z	11	advance_on_keypress_ZEE	146	stimuli_distractor_trianglediamonds.svg	stimuli_target_trianglecircles.svg	25	yes	57	0	256
6.6.1	win	2022-12-15	01:38:22	01:47:32	548769	5bc0ac845a09ea00012e2d30	803688743	1	main_z	11	main_z	147	stimuli_distractor_diamondtriangles.svg	stimuli_target_circlediamonds.svg	14	yes	44	1	453
6.6.1	win	2022-12-15	01:38:22	01:47:32	548769	5bc0ac845a09ea00012e2d30	803688743	1	main_z	11	advance_on_keypress_ZEE	148	stimuli_distractor_diamondtriangles.svg	stimuli_target_circlediamonds.svg	14	yes	57	0	220
6.6.1	win	2022-12-15	01:38:22	01:47:35	551610	5bc0ac845a09ea00012e2d30	803688743	1	main_z	11	main_z	149	stimuli_distractor_trianglediamonds.svg	stimuli_distractor_trianglediamonds.svg	34	no	0	1	2003
6.6.1	win	2022-12-15	01:38:22	01:47:35	551610	5bc0ac845a09ea00012e2d30	803688743	1	main_z	11	advance_on_keypress_ZEE	150	stimuli_distractor_trianglediamonds.svg	stimuli_distractor_trianglediamonds.svg	34	no	57	0	296
6.6.1	win	2022-12-15	01:38:22	01:47:36	552991	5bc0ac845a09ea00012e2d30	803688743	1	main_z	11	main_z	151	stimuli_target_squaretriangles.svg	stimuli_distractor_trianglediamonds.svg	3	yes	44	1	467
6.6.1	win	2022-12-15	01:38:22	01:47:36	552991	5bc0ac845a09ea00012e2d30	803688743	1	main_z	11	advance_on_keypress_ZEE	152	stimuli_target_squaretriangles.svg	stimuli_distractor_trianglediamonds.svg	3	yes	57	0	248
6.6.1	win	2022-12-15	01:38:22	01:47:38	554430	5bc0ac845a09ea00012e2d30	803688743	1	main_z	11	main_z	153	stimuli_target_diamondsquares.svg	stimuli_distractor_diamondtriangles.svg	24	yes	44	1	573
6.6.1	win	2022-12-15	01:38:22	01:47:38	554430	5bc0ac845a09ea00012e2d30	803688743	1	main_z	11	advance_on_keypress_ZEE	154	stimuli_target_diamondsquares.svg	stimuli_distractor_diamondtriangles.svg	24	yes	57	0	212
6.6.1	win	2022-12-15	01:38:22	01:47:39	555831	5bc0ac845a09ea00012e2d30	803688743	1	main_z	11	main_z	155	stimuli_distractor_diamondtriangles.svg	stimuli_target_diamondsquares.svg	32	yes	44	1	571
6.6.1	win	2022-12-15	01:38:22	01:47:39	555831	5bc0ac845a09ea00012e2d30	803688743	1	main_z	11	advance_on_keypress_ZEE	156	stimuli_distractor_diamondtriangles.svg	stimuli_target_diamondsquares.svg	32	yes	57	0	202
6.6.1	win	2022-12-15	01:38:22	01:47:40	557054	5bc0ac845a09ea00012e2d30	803688743	1	main_z	11	main_z	157	stimuli_target_trianglesquares.svg	stimuli_distractor_diamondtriangles.svg	22	yes	44	1	405
6.6.1	win	2022-12-15	01:38:22	01:47:40	557054	5bc0ac845a09ea00012e2d30	803688743	1	main_z	11	advance_on_keypress_ZEE	158	stimuli_target_trianglesquares.svg	stimuli_distractor_diamondtriangles.svg	22	yes	57	0	250
6.6.1	win	2022-12-15	01:38:22	01:47:41	558282	5bc0ac845a09ea00012e2d30	803688743	1	main_z	11	main_z	159	stimuli_target_trianglecircles.svg	stimuli_distractor_trianglediamonds.svg	17	yes	44	1	362
6.6.1	win	2022-12-15	01:38:22	01:47:41	558282	5bc0ac845a09ea00012e2d30	803688743	1	main_z	11	advance_on_keypress_ZEE	160	stimuli_target_trianglecircles.svg	stimuli_distractor_trianglediamonds.svg	17	yes	57	0	256