build	computer.platform	date	time	timestamp	time_elapsed_ms	subject	group	session	blockcode	blocknum	trialcode	trialnum	stimulus_left	stimulus_right	stim_index	target_present	response	correct	latency
6.6.1	mac	2022-12-19	13:13:06	13:15:14	126466	628b960bf8e22707d11f5b8e	842623392	1	practice_z	5	practice_z	1	stimuli_target_diamondsquares.svg	stimuli_distractor_trianglediamonds.svg	6	yes	0	0	2000
6.6.1	mac	2022-12-19	13:13:06	13:15:14	126466	628b960bf8e22707d11f5b8e	842623392	1	practice_z	5	advance_on_keypress_ZEE	2	stimuli_target_diamondsquares.svg	stimuli_distractor_trianglediamonds.svg	6	yes	57	0	1279
6.6.1	mac	2022-12-19	13:13:06	13:15:18	130120	628b960bf8e22707d11f5b8e	842623392	1	practice_z	5	practice_z	3	stimuli_target_squarediamonds.svg	stimuli_distractor_trianglediamonds.svg	5	yes	44	1	736
6.6.1	mac	2022-12-19	13:13:06	13:15:18	130120	628b960bf8e22707d11f5b8e	842623392	1	practice_z	5	advance_on_keypress_ZEE	4	stimuli_target_squarediamonds.svg	stimuli_distractor_trianglediamonds.svg	5	yes	57	0	1523
6.6.1	mac	2022-12-19	13:13:06	13:15:21	134006	628b960bf8e22707d11f5b8e	842623392	1	practice_z	5	practice_z	5	stimuli_target_squarediamonds.svg	stimuli_distractor_diamondtriangles.svg	2	yes	44	1	737
6.6.1	mac	2022-12-19	13:13:06	13:15:21	134006	628b960bf8e22707d11f5b8e	842623392	1	practice_z	5	advance_on_keypress_ZEE	6	stimuli_target_squarediamonds.svg	stimuli_distractor_diamondtriangles.svg	2	yes	57	0	1437
6.6.1	mac	2022-12-19	13:13:06	13:15:26	139066	628b960bf8e22707d11f5b8e	842623392	1	practice_z	5	practice_z	7	stimuli_distractor_diamondtriangles.svg	stimuli_distractor_trianglediamonds.svg	14	no	0	1	2000
6.6.1	mac	2022-12-19	13:13:06	13:15:26	139066	628b960bf8e22707d11f5b8e	842623392	1	practice_z	5	advance_on_keypress_ZEE	8	stimuli_distractor_diamondtriangles.svg	stimuli_distractor_trianglediamonds.svg	14	no	57	0	548
6.6.1	mac	2022-12-19	13:13:06	13:15:31	143249	628b960bf8e22707d11f5b8e	842623392	1	practice_z	5	practice_z	9	stimuli_distractor_diamondtriangles.svg	stimuli_distractor_diamondtriangles.svg	13	no	0	1	2000
6.6.1	mac	2022-12-19	13:13:06	13:15:31	143249	628b960bf8e22707d11f5b8e	842623392	1	practice_z	5	advance_on_keypress_ZEE	10	stimuli_distractor_diamondtriangles.svg	stimuli_distractor_diamondtriangles.svg	13	no	57	0	503
6.6.1	mac	2022-12-19	13:13:06	13:15:34	146313	628b960bf8e22707d11f5b8e	842623392	1	practice_z	5	practice_z	11	stimuli_distractor_diamondtriangles.svg	stimuli_target_trianglecircles.svg	9	yes	44	1	928
6.6.1	mac	2022-12-19	13:13:06	13:15:34	146313	628b960bf8e22707d11f5b8e	842623392	1	practice_z	5	advance_on_keypress_ZEE	12	stimuli_distractor_diamondtriangles.svg	stimuli_target_trianglecircles.svg	9	yes	57	0	1101
6.6.1	mac	2022-12-19	13:13:06	13:15:38	151033	628b960bf8e22707d11f5b8e	842623392	1	practice_z	5	practice_z	13	stimuli_distractor_trianglediamonds.svg	stimuli_distractor_diamondtriangles.svg	16	no	0	1	2000
6.6.1	mac	2022-12-19	13:13:06	13:15:38	151033	628b960bf8e22707d11f5b8e	842623392	1	practice_z	5	advance_on_keypress_ZEE	14	stimuli_distractor_trianglediamonds.svg	stimuli_distractor_diamondtriangles.svg	16	no	57	0	382
6.6.1	mac	2022-12-19	13:13:06	13:15:41	154085	628b960bf8e22707d11f5b8e	842623392	1	practice_z	5	practice_z	15	stimuli_distractor_trianglediamonds.svg	stimuli_target_circlediamonds.svg	10	yes	44	1	1033
6.6.1	mac	2022-12-19	13:13:06	13:15:41	154085	628b960bf8e22707d11f5b8e	842623392	1	practice_z	5	advance_on_keypress_ZEE	16	stimuli_distractor_trianglediamonds.svg	stimuli_target_circlediamonds.svg	10	yes	57	0	597
6.6.1	mac	2022-12-19	13:13:06	13:15:46	158250	628b960bf8e22707d11f5b8e	842623392	1	practice_z	5	practice_z	17	stimuli_distractor_trianglediamonds.svg	stimuli_target_squarediamonds.svg	11	yes	44	1	1931
6.6.1	mac	2022-12-19	13:13:06	13:15:46	158250	628b960bf8e22707d11f5b8e	842623392	1	practice_z	5	advance_on_keypress_ZEE	18	stimuli_distractor_trianglediamonds.svg	stimuli_target_squarediamonds.svg	11	yes	57	0	613
6.6.1	mac	2022-12-19	13:13:06	13:15:49	161576	628b960bf8e22707d11f5b8e	842623392	1	practice_z	5	practice_z	19	stimuli_distractor_trianglediamonds.svg	stimuli_target_diamondcircles.svg	12	yes	44	1	1074
6.6.1	mac	2022-12-19	13:13:06	13:15:49	161576	628b960bf8e22707d11f5b8e	842623392	1	practice_z	5	advance_on_keypress_ZEE	20	stimuli_distractor_trianglediamonds.svg	stimuli_target_diamondcircles.svg	12	yes	57	0	603
6.6.1	mac	2022-12-19	13:13:06	13:15:52	164675	628b960bf8e22707d11f5b8e	842623392	1	practice_z	5	practice_z	21	stimuli_target_circlediamonds.svg	stimuli_distractor_trianglediamonds.svg	4	yes	44	1	856
6.6.1	mac	2022-12-19	13:13:06	13:15:52	164675	628b960bf8e22707d11f5b8e	842623392	1	practice_z	5	advance_on_keypress_ZEE	22	stimuli_target_circlediamonds.svg	stimuli_distractor_trianglediamonds.svg	4	yes	57	0	1188
6.6.1	mac	2022-12-19	13:13:06	13:15:56	168405	628b960bf8e22707d11f5b8e	842623392	1	practice_z	5	practice_z	23	stimuli_target_circlediamonds.svg	stimuli_distractor_diamondtriangles.svg	1	yes	44	1	919
6.6.1	mac	2022-12-19	13:13:06	13:15:56	168405	628b960bf8e22707d11f5b8e	842623392	1	practice_z	5	advance_on_keypress_ZEE	24	stimuli_target_circlediamonds.svg	stimuli_distractor_diamondtriangles.svg	1	yes	57	0	476
6.6.1	mac	2022-12-19	13:13:06	13:15:59	171573	628b960bf8e22707d11f5b8e	842623392	1	practice_z	5	practice_z	25	stimuli_distractor_diamondtriangles.svg	stimuli_target_diamondcircles.svg	8	yes	44	1	1071
6.6.1	mac	2022-12-19	13:13:06	13:15:59	171573	628b960bf8e22707d11f5b8e	842623392	1	practice_z	5	advance_on_keypress_ZEE	26	stimuli_distractor_diamondtriangles.svg	stimuli_target_diamondcircles.svg	8	yes	57	0	463
6.6.1	mac	2022-12-19	13:13:06	13:16:02	174641	628b960bf8e22707d11f5b8e	842623392	1	practice_z	5	practice_z	27	stimuli_distractor_diamondtriangles.svg	stimuli_target_circletriangles.svg	7	yes	44	1	971
6.6.1	mac	2022-12-19	13:13:06	13:16:02	174641	628b960bf8e22707d11f5b8e	842623392	1	practice_z	5	advance_on_keypress_ZEE	28	stimuli_distractor_diamondtriangles.svg	stimuli_target_circletriangles.svg	7	yes	57	0	385
6.6.1	mac	2022-12-19	13:13:06	13:16:05	177824	628b960bf8e22707d11f5b8e	842623392	1	practice_z	5	practice_z	29	stimuli_target_diamondsquares.svg	stimuli_distractor_diamondtriangles.svg	3	yes	44	1	1172
6.6.1	mac	2022-12-19	13:13:06	13:16:05	177824	628b960bf8e22707d11f5b8e	842623392	1	practice_z	5	advance_on_keypress_ZEE	30	stimuli_target_diamondsquares.svg	stimuli_distractor_diamondtriangles.svg	3	yes	57	0	548
6.6.1	mac	2022-12-19	13:13:06	13:16:09	182016	628b960bf8e22707d11f5b8e	842623392	1	practice_z	5	practice_z	31	stimuli_distractor_trianglediamonds.svg	stimuli_distractor_trianglediamonds.svg	15	no	0	1	2000
6.6.1	mac	2022-12-19	13:13:06	13:16:09	182016	628b960bf8e22707d11f5b8e	842623392	1	practice_z	5	advance_on_keypress_ZEE	32	stimuli_distractor_trianglediamonds.svg	stimuli_distractor_trianglediamonds.svg	15	no	57	0	366
6.6.1	mac	2022-12-19	13:13:06	13:16:14	186788	628b960bf8e22707d11f5b8e	842623392	1	main_z	7	main_z	1	stimuli_distractor_trianglediamonds.svg	stimuli_target_circletriangles.svg	9	yes	44	1	802
6.6.1	mac	2022-12-19	13:13:06	13:16:14	186788	628b960bf8e22707d11f5b8e	842623392	1	main_z	7	advance_on_keypress_ZEE	2	stimuli_distractor_trianglediamonds.svg	stimuli_target_circletriangles.svg	9	yes	57	0	2119
6.6.1	mac	2022-12-19	13:13:06	13:16:18	190527	628b960bf8e22707d11f5b8e	842623392	1	main_z	7	main_z	3	stimuli_target_diamondsquares.svg	stimuli_distractor_trianglediamonds.svg	20	yes	44	1	991
6.6.1	mac	2022-12-19	13:13:06	13:16:18	190527	628b960bf8e22707d11f5b8e	842623392	1	main_z	7	advance_on_keypress_ZEE	4	stimuli_target_diamondsquares.svg	stimuli_distractor_trianglediamonds.svg	20	yes	57	0	1479
6.6.1	mac	2022-12-19	13:13:06	13:16:21	193607	628b960bf8e22707d11f5b8e	842623392	1	main_z	7	main_z	5	stimuli_target_trianglesquares.svg	stimuli_distractor_diamondtriangles.svg	22	yes	44	1	970
6.6.1	mac	2022-12-19	13:13:06	13:16:21	193607	628b960bf8e22707d11f5b8e	842623392	1	main_z	7	advance_on_keypress_ZEE	6	stimuli_target_trianglesquares.svg	stimuli_distractor_diamondtriangles.svg	22	yes	57	0	963
6.6.1	mac	2022-12-19	13:13:06	13:16:24	196108	628b960bf8e22707d11f5b8e	842623392	1	main_z	7	main_z	7	stimuli_distractor_diamondtriangles.svg	stimuli_target_circlediamonds.svg	14	yes	44	1	906
6.6.1	mac	2022-12-19	13:13:06	13:16:24	196108	628b960bf8e22707d11f5b8e	842623392	1	main_z	7	advance_on_keypress_ZEE	8	stimuli_distractor_diamondtriangles.svg	stimuli_target_circlediamonds.svg	14	yes	57	0	1697
6.6.1	mac	2022-12-19	13:13:06	13:16:28	200432	628b960bf8e22707d11f5b8e	842623392	1	main_z	7	main_z	9	stimuli_distractor_trianglediamonds.svg	stimuli_distractor_trianglediamonds.svg	33	no	0	1	2000
6.6.1	mac	2022-12-19	13:13:06	13:16:28	200432	628b960bf8e22707d11f5b8e	842623392	1	main_z	7	advance_on_keypress_ZEE	10	stimuli_distractor_trianglediamonds.svg	stimuli_distractor_trianglediamonds.svg	33	no	57	0	1091
6.6.1	mac	2022-12-19	13:13:06	13:16:30	202982	628b960bf8e22707d11f5b8e	842623392	1	main_z	7	main_z	11	stimuli_target_squarediamonds.svg	stimuli_distractor_trianglediamonds.svg	4	yes	44	1	831
6.6.1	mac	2022-12-19	13:13:06	13:16:30	202982	628b960bf8e22707d11f5b8e	842623392	1	main_z	7	advance_on_keypress_ZEE	12	stimuli_target_squarediamonds.svg	stimuli_distractor_trianglediamonds.svg	4	yes	57	0	948
6.6.1	mac	2022-12-19	13:13:06	13:16:33	205398	628b960bf8e22707d11f5b8e	842623392	1	main_z	7	main_z	13	stimuli_target_squaretriangles.svg	stimuli_distractor_diamondtriangles.svg	7	yes	44	1	830
6.6.1	mac	2022-12-19	13:13:06	13:16:33	205398	628b960bf8e22707d11f5b8e	842623392	1	main_z	7	advance_on_keypress_ZEE	14	stimuli_target_squaretriangles.svg	stimuli_distractor_diamondtriangles.svg	7	yes	57	0	878
6.6.1	mac	2022-12-19	13:13:06	13:16:35	207810	628b960bf8e22707d11f5b8e	842623392	1	main_z	7	main_z	15	stimuli_distractor_diamondtriangles.svg	stimuli_target_circletriangles.svg	13	yes	44	1	892
6.6.1	mac	2022-12-19	13:13:06	13:16:35	207810	628b960bf8e22707d11f5b8e	842623392	1	main_z	7	advance_on_keypress_ZEE	16	stimuli_distractor_diamondtriangles.svg	stimuli_target_circletriangles.svg	13	yes	57	0	1182
6.6.1	mac	2022-12-19	13:13:06	13:16:38	210498	628b960bf8e22707d11f5b8e	842623392	1	main_z	7	main_z	17	stimuli_distractor_trianglediamonds.svg	stimuli_target_diamondsquares.svg	28	yes	44	1	879
6.6.1	mac	2022-12-19	13:13:06	13:16:38	210498	628b960bf8e22707d11f5b8e	842623392	1	main_z	7	advance_on_keypress_ZEE	18	stimuli_distractor_trianglediamonds.svg	stimuli_target_diamondsquares.svg	28	yes	57	0	710
6.6.1	mac	2022-12-19	13:13:06	13:16:41	213832	628b960bf8e22707d11f5b8e	842623392	1	main_z	7	main_z	19	stimuli_distractor_diamondtriangles.svg	stimuli_distractor_diamondtriangles.svg	40	no	0	1	2000
6.6.1	mac	2022-12-19	13:13:06	13:16:41	213832	628b960bf8e22707d11f5b8e	842623392	1	main_z	7	advance_on_keypress_ZEE	20	stimuli_distractor_diamondtriangles.svg	stimuli_distractor_diamondtriangles.svg	40	no	57	0	813
6.6.1	mac	2022-12-19	13:13:06	13:16:43	216087	628b960bf8e22707d11f5b8e	842623392	1	main_z	7	main_z	21	stimuli_target_trianglesquares.svg	stimuli_distractor_trianglediamonds.svg	18	yes	44	1	803
6.6.1	mac	2022-12-19	13:13:06	13:16:43	216087	628b960bf8e22707d11f5b8e	842623392	1	main_z	7	advance_on_keypress_ZEE	22	stimuli_target_trianglesquares.svg	stimuli_distractor_trianglediamonds.svg	18	yes	57	0	1599
6.6.1	mac	2022-12-19	13:13:06	13:16:47	219168	628b960bf8e22707d11f5b8e	842623392	1	main_z	7	main_z	23	stimuli_distractor_diamondtriangles.svg	stimuli_target_diamondsquares.svg	32	yes	44	1	850
6.6.1	mac	2022-12-19	13:13:06	13:16:47	219168	628b960bf8e22707d11f5b8e	842623392	1	main_z	7	advance_on_keypress_ZEE	24	stimuli_distractor_diamondtriangles.svg	stimuli_target_diamondsquares.svg	32	yes	57	0	1090
6.6.1	mac	2022-12-19	13:13:06	13:16:49	221833	628b960bf8e22707d11f5b8e	842623392	1	main_z	7	main_z	25	stimuli_target_trianglecircles.svg	stimuli_distractor_trianglediamonds.svg	17	yes	44	1	947
6.6.1	mac	2022-12-19	13:13:06	13:16:49	221833	628b960bf8e22707d11f5b8e	842623392	1	main_z	7	advance_on_keypress_ZEE	26	stimuli_target_trianglecircles.svg	stimuli_distractor_trianglediamonds.svg	17	yes	57	0	1009
6.6.1	mac	2022-12-19	13:13:06	13:16:53	225466	628b960bf8e22707d11f5b8e	842623392	1	main_z	7	main_z	27	stimuli_distractor_trianglediamonds.svg	stimuli_distractor_diamondtriangles.svg	35	no	0	1	2000
6.6.1	mac	2022-12-19	13:13:06	13:16:53	225466	628b960bf8e22707d11f5b8e	842623392	1	main_z	7	advance_on_keypress_ZEE	28	stimuli_distractor_trianglediamonds.svg	stimuli_distractor_diamondtriangles.svg	35	no	57	0	821
6.6.1	mac	2022-12-19	13:13:06	13:16:55	227806	628b960bf8e22707d11f5b8e	842623392	1	main_z	7	main_z	29	stimuli_target_circlediamonds.svg	stimuli_distractor_trianglediamonds.svg	2	yes	44	1	887
6.6.1	mac	2022-12-19	13:13:06	13:16:55	227806	628b960bf8e22707d11f5b8e	842623392	1	main_z	7	advance_on_keypress_ZEE	30	stimuli_target_circlediamonds.svg	stimuli_distractor_trianglediamonds.svg	2	yes	57	0	1127
6.6.1	mac	2022-12-19	13:13:06	13:16:58	230458	628b960bf8e22707d11f5b8e	842623392	1	main_z	7	main_z	31	stimuli_target_diamondcircles.svg	stimuli_distractor_diamondtriangles.svg	23	yes	44	1	908
6.6.1	mac	2022-12-19	13:13:06	13:16:58	230458	628b960bf8e22707d11f5b8e	842623392	1	main_z	7	advance_on_keypress_ZEE	32	stimuli_target_diamondcircles.svg	stimuli_distractor_diamondtriangles.svg	23	yes	57	0	1035
6.6.1	mac	2022-12-19	13:13:06	13:17:00	232977	628b960bf8e22707d11f5b8e	842623392	1	main_z	7	main_z	33	stimuli_target_squaretriangles.svg	stimuli_distractor_trianglediamonds.svg	3	yes	44	1	842
6.6.1	mac	2022-12-19	13:13:06	13:17:00	232977	628b960bf8e22707d11f5b8e	842623392	1	main_z	7	advance_on_keypress_ZEE	34	stimuli_target_squaretriangles.svg	stimuli_distractor_trianglediamonds.svg	3	yes	57	0	1167
6.6.1	mac	2022-12-19	13:13:06	13:17:03	236050	628b960bf8e22707d11f5b8e	842623392	1	main_z	7	main_z	35	stimuli_target_diamondsquares.svg	stimuli_distractor_diamondtriangles.svg	24	yes	44	1	1283
6.6.1	mac	2022-12-19	13:13:06	13:17:03	236050	628b960bf8e22707d11f5b8e	842623392	1	main_z	7	advance_on_keypress_ZEE	36	stimuli_target_diamondsquares.svg	stimuli_distractor_diamondtriangles.svg	24	yes	57	0	979
6.6.1	mac	2022-12-19	13:13:06	13:17:06	238582	628b960bf8e22707d11f5b8e	842623392	1	main_z	7	main_z	37	stimuli_distractor_diamondtriangles.svg	stimuli_target_diamondcircles.svg	31	yes	44	1	913
6.6.1	mac	2022-12-19	13:13:06	13:17:06	238582	628b960bf8e22707d11f5b8e	842623392	1	main_z	7	advance_on_keypress_ZEE	38	stimuli_distractor_diamondtriangles.svg	stimuli_target_diamondcircles.svg	31	yes	57	0	1657
6.6.1	mac	2022-12-19	13:13:06	13:17:09	241991	628b960bf8e22707d11f5b8e	842623392	1	main_z	7	main_z	39	stimuli_distractor_trianglediamonds.svg	stimuli_target_trianglecircles.svg	25	yes	44	1	1124
6.6.1	mac	2022-12-19	13:13:06	13:17:09	241991	628b960bf8e22707d11f5b8e	842623392	1	main_z	7	advance_on_keypress_ZEE	40	stimuli_distractor_trianglediamonds.svg	stimuli_target_trianglecircles.svg	25	yes	57	0	899
6.6.1	mac	2022-12-19	13:13:06	13:17:12	244504	628b960bf8e22707d11f5b8e	842623392	1	main_z	7	main_z	41	stimuli_distractor_trianglediamonds.svg	stimuli_target_diamondcircles.svg	27	yes	44	1	986
6.6.1	mac	2022-12-19	13:13:06	13:17:12	244504	628b960bf8e22707d11f5b8e	842623392	1	main_z	7	advance_on_keypress_ZEE	42	stimuli_distractor_trianglediamonds.svg	stimuli_target_diamondcircles.svg	27	yes	57	0	1015
6.6.1	mac	2022-12-19	13:13:06	13:17:14	247015	628b960bf8e22707d11f5b8e	842623392	1	main_z	7	main_z	43	stimuli_distractor_diamondtriangles.svg	stimuli_target_squarediamonds.svg	16	yes	44	1	864
6.6.1	mac	2022-12-19	13:13:06	13:17:14	247015	628b960bf8e22707d11f5b8e	842623392	1	main_z	7	advance_on_keypress_ZEE	44	stimuli_distractor_diamondtriangles.svg	stimuli_target_squarediamonds.svg	16	yes	57	0	852
6.6.1	mac	2022-12-19	13:13:06	13:17:18	250498	628b960bf8e22707d11f5b8e	842623392	1	main_z	7	main_z	45	stimuli_distractor_diamondtriangles.svg	stimuli_distractor_diamondtriangles.svg	39	no	0	1	2000
6.6.1	mac	2022-12-19	13:13:06	13:17:18	250498	628b960bf8e22707d11f5b8e	842623392	1	main_z	7	advance_on_keypress_ZEE	46	stimuli_distractor_diamondtriangles.svg	stimuli_distractor_diamondtriangles.svg	39	no	57	0	683
6.6.1	mac	2022-12-19	13:13:06	13:17:20	252661	628b960bf8e22707d11f5b8e	842623392	1	main_z	7	main_z	47	stimuli_target_trianglecircles.svg	stimuli_distractor_diamondtriangles.svg	21	yes	44	1	843
6.6.1	mac	2022-12-19	13:13:06	13:17:20	252661	628b960bf8e22707d11f5b8e	842623392	1	main_z	7	advance_on_keypress_ZEE	48	stimuli_target_trianglecircles.svg	stimuli_distractor_diamondtriangles.svg	21	yes	57	0	1015
6.6.1	mac	2022-12-19	13:13:06	13:17:23	255136	628b960bf8e22707d11f5b8e	842623392	1	main_z	7	main_z	49	stimuli_distractor_trianglediamonds.svg	stimuli_target_squarediamonds.svg	12	yes	44	1	835
6.6.1	mac	2022-12-19	13:13:06	13:17:23	255136	628b960bf8e22707d11f5b8e	842623392	1	main_z	7	advance_on_keypress_ZEE	50	stimuli_distractor_trianglediamonds.svg	stimuli_target_squarediamonds.svg	12	yes	57	0	791
6.6.1	mac	2022-12-19	13:13:06	13:17:25	257322	628b960bf8e22707d11f5b8e	842623392	1	main_z	7	main_z	51	stimuli_target_circlediamonds.svg	stimuli_distractor_diamondtriangles.svg	6	yes	44	1	769
6.6.1	mac	2022-12-19	13:13:06	13:17:25	257322	628b960bf8e22707d11f5b8e	842623392	1	main_z	7	advance_on_keypress_ZEE	52	stimuli_target_circlediamonds.svg	stimuli_distractor_diamondtriangles.svg	6	yes	57	0	678
6.6.1	mac	2022-12-19	13:13:06	13:17:27	259346	628b960bf8e22707d11f5b8e	842623392	1	main_z	7	main_z	53	stimuli_target_squarediamonds.svg	stimuli_distractor_diamondtriangles.svg	8	yes	44	1	711
6.6.1	mac	2022-12-19	13:13:06	13:17:27	259346	628b960bf8e22707d11f5b8e	842623392	1	main_z	7	advance_on_keypress_ZEE	54	stimuli_target_squarediamonds.svg	stimuli_distractor_diamondtriangles.svg	8	yes	57	0	812
6.6.1	mac	2022-12-19	13:13:06	13:17:29	261479	628b960bf8e22707d11f5b8e	842623392	1	main_z	7	main_z	55	stimuli_target_circletriangles.svg	stimuli_distractor_diamondtriangles.svg	5	yes	44	1	678
6.6.1	mac	2022-12-19	13:13:06	13:17:29	261479	628b960bf8e22707d11f5b8e	842623392	1	main_z	7	advance_on_keypress_ZEE	56	stimuli_target_circletriangles.svg	stimuli_distractor_diamondtriangles.svg	5	yes	57	0	726
6.6.1	mac	2022-12-19	13:13:06	13:17:32	264816	628b960bf8e22707d11f5b8e	842623392	1	main_z	7	main_z	57	stimuli_distractor_diamondtriangles.svg	stimuli_distractor_trianglediamonds.svg	38	no	0	1	2000
6.6.1	mac	2022-12-19	13:13:06	13:17:32	264816	628b960bf8e22707d11f5b8e	842623392	1	main_z	7	advance_on_keypress_ZEE	58	stimuli_distractor_diamondtriangles.svg	stimuli_distractor_trianglediamonds.svg	38	no	57	0	616
6.6.1	mac	2022-12-19	13:13:06	13:17:35	268066	628b960bf8e22707d11f5b8e	842623392	1	main_z	7	main_z	59	stimuli_distractor_trianglediamonds.svg	stimuli_distractor_diamondtriangles.svg	36	no	0	1	2000
6.6.1	mac	2022-12-19	13:13:06	13:17:35	268066	628b960bf8e22707d11f5b8e	842623392	1	main_z	7	advance_on_keypress_ZEE	60	stimuli_distractor_trianglediamonds.svg	stimuli_distractor_diamondtriangles.svg	36	no	57	0	632
6.6.1	mac	2022-12-19	13:13:06	13:17:38	270128	628b960bf8e22707d11f5b8e	842623392	1	main_z	7	main_z	61	stimuli_distractor_diamondtriangles.svg	stimuli_target_trianglesquares.svg	30	yes	44	1	793
6.6.1	mac	2022-12-19	13:13:06	13:17:38	270128	628b960bf8e22707d11f5b8e	842623392	1	main_z	7	advance_on_keypress_ZEE	62	stimuli_distractor_diamondtriangles.svg	stimuli_target_trianglesquares.svg	30	yes	57	0	711
6.6.1	mac	2022-12-19	13:13:06	13:17:40	272139	628b960bf8e22707d11f5b8e	842623392	1	main_z	7	main_z	63	stimuli_target_circletriangles.svg	stimuli_distractor_trianglediamonds.svg	1	yes	44	1	687
6.6.1	mac	2022-12-19	13:13:06	13:17:40	272139	628b960bf8e22707d11f5b8e	842623392	1	main_z	7	advance_on_keypress_ZEE	64	stimuli_target_circletriangles.svg	stimuli_distractor_trianglediamonds.svg	1	yes	57	0	1038
6.6.1	mac	2022-12-19	13:13:06	13:17:42	274629	628b960bf8e22707d11f5b8e	842623392	1	main_z	7	main_z	65	stimuli_distractor_trianglediamonds.svg	stimuli_target_squaretriangles.svg	11	yes	44	1	828
6.6.1	mac	2022-12-19	13:13:06	13:17:42	274629	628b960bf8e22707d11f5b8e	842623392	1	main_z	7	advance_on_keypress_ZEE	66	stimuli_distractor_trianglediamonds.svg	stimuli_target_squaretriangles.svg	11	yes	57	0	818
6.6.1	mac	2022-12-19	13:13:06	13:17:45	278066	628b960bf8e22707d11f5b8e	842623392	1	main_z	7	main_z	67	stimuli_distractor_trianglediamonds.svg	stimuli_distractor_trianglediamonds.svg	34	no	0	1	2000
6.6.1	mac	2022-12-19	13:13:06	13:17:45	278066	628b960bf8e22707d11f5b8e	842623392	1	main_z	7	advance_on_keypress_ZEE	68	stimuli_distractor_trianglediamonds.svg	stimuli_distractor_trianglediamonds.svg	34	no	57	0	535
6.6.1	mac	2022-12-19	13:13:06	13:17:48	280232	628b960bf8e22707d11f5b8e	842623392	1	main_z	7	main_z	69	stimuli_distractor_trianglediamonds.svg	stimuli_target_trianglesquares.svg	26	yes	44	1	996
6.6.1	mac	2022-12-19	13:13:06	13:17:48	280232	628b960bf8e22707d11f5b8e	842623392	1	main_z	7	advance_on_keypress_ZEE	70	stimuli_distractor_trianglediamonds.svg	stimuli_target_trianglesquares.svg	26	yes	57	0	697
6.6.1	mac	2022-12-19	13:13:06	13:17:50	282343	628b960bf8e22707d11f5b8e	842623392	1	main_z	7	main_z	71	stimuli_distractor_trianglediamonds.svg	stimuli_target_circlediamonds.svg	10	yes	44	1	774
6.6.1	mac	2022-12-19	13:13:06	13:17:50	282343	628b960bf8e22707d11f5b8e	842623392	1	main_z	7	advance_on_keypress_ZEE	72	stimuli_distractor_trianglediamonds.svg	stimuli_target_circlediamonds.svg	10	yes	57	0	841
6.6.1	mac	2022-12-19	13:13:06	13:17:52	284632	628b960bf8e22707d11f5b8e	842623392	1	main_z	7	main_z	73	stimuli_distractor_diamondtriangles.svg	stimuli_target_trianglecircles.svg	29	yes	44	1	830
6.6.1	mac	2022-12-19	13:13:06	13:17:52	284632	628b960bf8e22707d11f5b8e	842623392	1	main_z	7	advance_on_keypress_ZEE	74	stimuli_distractor_diamondtriangles.svg	stimuli_target_trianglecircles.svg	29	yes	57	0	897
6.6.1	mac	2022-12-19	13:13:06	13:17:56	288166	628b960bf8e22707d11f5b8e	842623392	1	main_z	7	main_z	75	stimuli_distractor_diamondtriangles.svg	stimuli_distractor_trianglediamonds.svg	37	no	0	1	2000
6.6.1	mac	2022-12-19	13:13:06	13:17:56	288166	628b960bf8e22707d11f5b8e	842623392	1	main_z	7	advance_on_keypress_ZEE	76	stimuli_distractor_diamondtriangles.svg	stimuli_distractor_trianglediamonds.svg	37	no	57	0	1015
6.6.1	mac	2022-12-19	13:13:06	13:17:58	290568	628b960bf8e22707d11f5b8e	842623392	1	main_z	7	main_z	77	stimuli_distractor_diamondtriangles.svg	stimuli_target_squaretriangles.svg	15	yes	44	1	751
6.6.1	mac	2022-12-19	13:13:06	13:17:58	290568	628b960bf8e22707d11f5b8e	842623392	1	main_z	7	advance_on_keypress_ZEE	78	stimuli_distractor_diamondtriangles.svg	stimuli_target_squaretriangles.svg	15	yes	57	0	886
6.6.1	mac	2022-12-19	13:13:06	13:18:00	292841	628b960bf8e22707d11f5b8e	842623392	1	main_z	7	main_z	79	stimuli_target_diamondcircles.svg	stimuli_distractor_trianglediamonds.svg	19	yes	44	1	756
6.6.1	mac	2022-12-19	13:13:06	13:18:00	292841	628b960bf8e22707d11f5b8e	842623392	1	main_z	7	advance_on_keypress_ZEE	80	stimuli_target_diamondcircles.svg	stimuli_distractor_trianglediamonds.svg	19	yes	57	0	872
6.6.1	mac	2022-12-19	13:13:06	13:18:03	295179	628b960bf8e22707d11f5b8e	842623392	1	main_z	7	main_z	81	stimuli_distractor_diamondtriangles.svg	stimuli_target_squaretriangles.svg	15	yes	44	1	844
6.6.1	mac	2022-12-19	13:13:06	13:18:03	295179	628b960bf8e22707d11f5b8e	842623392	1	main_z	7	advance_on_keypress_ZEE	82	stimuli_distractor_diamondtriangles.svg	stimuli_target_squaretriangles.svg	15	yes	57	0	739
6.6.1	mac	2022-12-19	13:13:06	13:18:05	297430	628b960bf8e22707d11f5b8e	842623392	1	main_z	7	main_z	83	stimuli_distractor_trianglediamonds.svg	stimuli_target_circletriangles.svg	9	yes	44	1	895
6.6.1	mac	2022-12-19	13:13:06	13:18:05	297430	628b960bf8e22707d11f5b8e	842623392	1	main_z	7	advance_on_keypress_ZEE	84	stimuli_distractor_trianglediamonds.svg	stimuli_target_circletriangles.svg	9	yes	57	0	480
6.6.1	mac	2022-12-19	13:13:06	13:18:07	299595	628b960bf8e22707d11f5b8e	842623392	1	main_z	7	main_z	85	stimuli_target_diamondsquares.svg	stimuli_distractor_diamondtriangles.svg	24	yes	44	1	1043
6.6.1	mac	2022-12-19	13:13:06	13:18:07	299595	628b960bf8e22707d11f5b8e	842623392	1	main_z	7	advance_on_keypress_ZEE	86	stimuli_target_diamondsquares.svg	stimuli_distractor_diamondtriangles.svg	24	yes	57	0	900
6.6.1	mac	2022-12-19	13:13:06	13:18:09	301926	628b960bf8e22707d11f5b8e	842623392	1	main_z	7	main_z	87	stimuli_target_trianglesquares.svg	stimuli_distractor_trianglediamonds.svg	18	yes	44	1	807
6.6.1	mac	2022-12-19	13:13:06	13:18:09	301926	628b960bf8e22707d11f5b8e	842623392	1	main_z	7	advance_on_keypress_ZEE	88	stimuli_target_trianglesquares.svg	stimuli_distractor_trianglediamonds.svg	18	yes	57	0	711
6.6.1	mac	2022-12-19	13:13:06	13:18:11	304018	628b960bf8e22707d11f5b8e	842623392	1	main_z	7	main_z	89	stimuli_distractor_trianglediamonds.svg	stimuli_target_circlediamonds.svg	10	yes	44	1	766
6.6.1	mac	2022-12-19	13:13:06	13:18:11	304018	628b960bf8e22707d11f5b8e	842623392	1	main_z	7	advance_on_keypress_ZEE	90	stimuli_distractor_trianglediamonds.svg	stimuli_target_circlediamonds.svg	10	yes	57	0	792
6.6.1	mac	2022-12-19	13:13:06	13:18:15	307432	628b960bf8e22707d11f5b8e	842623392	1	main_z	7	main_z	91	stimuli_distractor_diamondtriangles.svg	stimuli_distractor_trianglediamonds.svg	38	no	0	1	2000
6.6.1	mac	2022-12-19	13:13:06	13:18:15	307432	628b960bf8e22707d11f5b8e	842623392	1	main_z	7	advance_on_keypress_ZEE	92	stimuli_distractor_diamondtriangles.svg	stimuli_distractor_trianglediamonds.svg	38	no	57	0	534
6.6.1	mac	2022-12-19	13:13:06	13:18:17	309292	628b960bf8e22707d11f5b8e	842623392	1	main_z	7	main_z	93	stimuli_distractor_trianglediamonds.svg	stimuli_target_trianglesquares.svg	26	yes	44	1	691
6.6.1	mac	2022-12-19	13:13:06	13:18:17	309292	628b960bf8e22707d11f5b8e	842623392	1	main_z	7	advance_on_keypress_ZEE	94	stimuli_distractor_trianglediamonds.svg	stimuli_target_trianglesquares.svg	26	yes	57	0	864
6.6.1	mac	2022-12-19	13:13:06	13:18:19	311554	628b960bf8e22707d11f5b8e	842623392	1	main_z	7	main_z	95	stimuli_distractor_diamondtriangles.svg	stimuli_target_diamondcircles.svg	31	yes	44	1	769
6.6.1	mac	2022-12-19	13:13:06	13:18:19	311554	628b960bf8e22707d11f5b8e	842623392	1	main_z	7	advance_on_keypress_ZEE	96	stimuli_distractor_diamondtriangles.svg	stimuli_target_diamondcircles.svg	31	yes	57	0	688
6.6.1	mac	2022-12-19	13:13:06	13:18:22	314866	628b960bf8e22707d11f5b8e	842623392	1	main_z	7	main_z	97	stimuli_distractor_diamondtriangles.svg	stimuli_distractor_diamondtriangles.svg	39	no	0	1	2000
6.6.1	mac	2022-12-19	13:13:06	13:18:22	314866	628b960bf8e22707d11f5b8e	842623392	1	main_z	7	advance_on_keypress_ZEE	98	stimuli_distractor_diamondtriangles.svg	stimuli_distractor_diamondtriangles.svg	39	no	57	0	632
6.6.1	mac	2022-12-19	13:13:06	13:18:24	316899	628b960bf8e22707d11f5b8e	842623392	1	main_z	7	main_z	99	stimuli_target_trianglecircles.svg	stimuli_distractor_trianglediamonds.svg	17	yes	44	1	764
6.6.1	mac	2022-12-19	13:13:06	13:18:24	316899	628b960bf8e22707d11f5b8e	842623392	1	main_z	7	advance_on_keypress_ZEE	100	stimuli_target_trianglecircles.svg	stimuli_distractor_trianglediamonds.svg	17	yes	57	0	796
6.6.1	mac	2022-12-19	13:13:06	13:18:28	320333	628b960bf8e22707d11f5b8e	842623392	1	main_z	7	main_z	101	stimuli_distractor_trianglediamonds.svg	stimuli_distractor_trianglediamonds.svg	34	no	0	1	2000
6.6.1	mac	2022-12-19	13:13:06	13:18:28	320333	628b960bf8e22707d11f5b8e	842623392	1	main_z	7	advance_on_keypress_ZEE	102	stimuli_distractor_trianglediamonds.svg	stimuli_distractor_trianglediamonds.svg	34	no	57	0	567
6.6.1	mac	2022-12-19	13:13:06	13:18:30	322313	628b960bf8e22707d11f5b8e	842623392	1	main_z	7	main_z	103	stimuli_distractor_diamondtriangles.svg	stimuli_target_squarediamonds.svg	16	yes	44	1	778
6.6.1	mac	2022-12-19	13:13:06	13:18:30	322313	628b960bf8e22707d11f5b8e	842623392	1	main_z	7	advance_on_keypress_ZEE	104	stimuli_distractor_diamondtriangles.svg	stimuli_target_squarediamonds.svg	16	yes	57	0	623
6.6.1	mac	2022-12-19	13:13:06	13:18:33	325549	628b960bf8e22707d11f5b8e	842623392	1	main_z	7	main_z	105	stimuli_distractor_trianglediamonds.svg	stimuli_distractor_trianglediamonds.svg	33	no	0	1	2000
6.6.1	mac	2022-12-19	13:13:06	13:18:33	325549	628b960bf8e22707d11f5b8e	842623392	1	main_z	7	advance_on_keypress_ZEE	106	stimuli_distractor_trianglediamonds.svg	stimuli_distractor_trianglediamonds.svg	33	no	57	0	807
6.6.1	mac	2022-12-19	13:13:06	13:18:35	327850	628b960bf8e22707d11f5b8e	842623392	1	main_z	7	main_z	107	stimuli_target_diamondcircles.svg	stimuli_distractor_trianglediamonds.svg	19	yes	44	1	865
6.6.1	mac	2022-12-19	13:13:06	13:18:35	327850	628b960bf8e22707d11f5b8e	842623392	1	main_z	7	advance_on_keypress_ZEE	108	stimuli_target_diamondcircles.svg	stimuli_distractor_trianglediamonds.svg	19	yes	57	0	570
6.6.1	mac	2022-12-19	13:13:06	13:18:37	329974	628b960bf8e22707d11f5b8e	842623392	1	main_z	7	main_z	109	stimuli_target_circlediamonds.svg	stimuli_distractor_diamondtriangles.svg	6	yes	44	1	923
6.6.1	mac	2022-12-19	13:13:06	13:18:37	329974	628b960bf8e22707d11f5b8e	842623392	1	main_z	7	advance_on_keypress_ZEE	110	stimuli_target_circlediamonds.svg	stimuli_distractor_diamondtriangles.svg	6	yes	57	0	508
6.6.1	mac	2022-12-19	13:13:06	13:18:40	332090	628b960bf8e22707d11f5b8e	842623392	1	main_z	7	main_z	111	stimuli_distractor_trianglediamonds.svg	stimuli_target_diamondsquares.svg	28	yes	44	1	989
6.6.1	mac	2022-12-19	13:13:06	13:18:40	332090	628b960bf8e22707d11f5b8e	842623392	1	main_z	7	advance_on_keypress_ZEE	112	stimuli_distractor_trianglediamonds.svg	stimuli_target_diamondsquares.svg	28	yes	57	0	1100
6.6.1	mac	2022-12-19	13:13:06	13:18:43	335816	628b960bf8e22707d11f5b8e	842623392	1	main_z	7	main_z	113	stimuli_distractor_trianglediamonds.svg	stimuli_distractor_diamondtriangles.svg	36	no	0	1	2000
6.6.1	mac	2022-12-19	13:13:06	13:18:43	335816	628b960bf8e22707d11f5b8e	842623392	1	main_z	7	advance_on_keypress_ZEE	114	stimuli_distractor_trianglediamonds.svg	stimuli_distractor_diamondtriangles.svg	36	no	57	0	607
6.6.1	mac	2022-12-19	13:13:06	13:18:45	337938	628b960bf8e22707d11f5b8e	842623392	1	main_z	7	main_z	115	stimuli_distractor_diamondtriangles.svg	stimuli_target_trianglecircles.svg	29	yes	44	1	888
6.6.1	mac	2022-12-19	13:13:06	13:18:45	337938	628b960bf8e22707d11f5b8e	842623392	1	main_z	7	advance_on_keypress_ZEE	116	stimuli_distractor_diamondtriangles.svg	stimuli_target_trianglecircles.svg	29	yes	57	0	562
6.6.1	mac	2022-12-19	13:13:06	13:18:47	340012	628b960bf8e22707d11f5b8e	842623392	1	main_z	7	main_z	117	stimuli_target_circlediamonds.svg	stimuli_distractor_trianglediamonds.svg	2	yes	44	1	894
6.6.1	mac	2022-12-19	13:13:06	13:18:47	340012	628b960bf8e22707d11f5b8e	842623392	1	main_z	7	advance_on_keypress_ZEE	118	stimuli_target_circlediamonds.svg	stimuli_distractor_trianglediamonds.svg	2	yes	57	0	944
6.6.1	mac	2022-12-19	13:13:06	13:18:51	343566	628b960bf8e22707d11f5b8e	842623392	1	main_z	7	main_z	119	stimuli_distractor_trianglediamonds.svg	stimuli_distractor_diamondtriangles.svg	35	no	0	1	2000
6.6.1	mac	2022-12-19	13:13:06	13:18:51	343566	628b960bf8e22707d11f5b8e	842623392	1	main_z	7	advance_on_keypress_ZEE	120	stimuli_distractor_trianglediamonds.svg	stimuli_distractor_diamondtriangles.svg	35	no	57	0	548
6.6.1	mac	2022-12-19	13:13:06	13:18:53	345560	628b960bf8e22707d11f5b8e	842623392	1	main_z	7	main_z	121	stimuli_distractor_trianglediamonds.svg	stimuli_target_trianglecircles.svg	25	yes	44	1	810
6.6.1	mac	2022-12-19	13:13:06	13:18:53	345560	628b960bf8e22707d11f5b8e	842623392	1	main_z	7	advance_on_keypress_ZEE	122	stimuli_distractor_trianglediamonds.svg	stimuli_target_trianglecircles.svg	25	yes	57	0	630
6.6.1	mac	2022-12-19	13:13:06	13:18:55	347667	628b960bf8e22707d11f5b8e	842623392	1	main_z	7	main_z	123	stimuli_distractor_diamondtriangles.svg	stimuli_target_trianglesquares.svg	30	yes	44	1	848
6.6.1	mac	2022-12-19	13:13:06	13:18:55	347667	628b960bf8e22707d11f5b8e	842623392	1	main_z	7	advance_on_keypress_ZEE	124	stimuli_distractor_diamondtriangles.svg	stimuli_target_trianglesquares.svg	30	yes	57	0	860
6.6.1	mac	2022-12-19	13:13:06	13:18:57	350035	628b960bf8e22707d11f5b8e	842623392	1	main_z	7	main_z	125	stimuli_distractor_trianglediamonds.svg	stimuli_target_diamondcircles.svg	27	yes	44	1	884
6.6.1	mac	2022-12-19	13:13:06	13:18:57	350035	628b960bf8e22707d11f5b8e	842623392	1	main_z	7	advance_on_keypress_ZEE	126	stimuli_distractor_trianglediamonds.svg	stimuli_target_diamondcircles.svg	27	yes	57	0	892
6.6.1	mac	2022-12-19	13:13:06	13:19:00	352499	628b960bf8e22707d11f5b8e	842623392	1	main_z	7	main_z	127	stimuli_target_trianglesquares.svg	stimuli_distractor_diamondtriangles.svg	22	yes	44	1	949
6.6.1	mac	2022-12-19	13:13:06	13:19:00	352499	628b960bf8e22707d11f5b8e	842623392	1	main_z	7	advance_on_keypress_ZEE	128	stimuli_target_trianglesquares.svg	stimuli_distractor_diamondtriangles.svg	22	yes	57	0	886
6.6.1	mac	2022-12-19	13:13:06	13:19:02	354854	628b960bf8e22707d11f5b8e	842623392	1	main_z	7	main_z	129	stimuli_distractor_diamondtriangles.svg	stimuli_target_circletriangles.svg	13	yes	44	1	836
6.6.1	mac	2022-12-19	13:13:06	13:19:02	354854	628b960bf8e22707d11f5b8e	842623392	1	main_z	7	advance_on_keypress_ZEE	130	stimuli_distractor_diamondtriangles.svg	stimuli_target_circletriangles.svg	13	yes	57	0	634
6.6.1	mac	2022-12-19	13:13:06	13:19:04	356924	628b960bf8e22707d11f5b8e	842623392	1	main_z	7	main_z	131	stimuli_distractor_diamondtriangles.svg	stimuli_target_circlediamonds.svg	14	yes	44	1	804
6.6.1	mac	2022-12-19	13:13:06	13:19:04	356924	628b960bf8e22707d11f5b8e	842623392	1	main_z	7	advance_on_keypress_ZEE	132	stimuli_distractor_diamondtriangles.svg	stimuli_target_circlediamonds.svg	14	yes	57	0	664
6.6.1	mac	2022-12-19	13:13:06	13:19:08	360216	628b960bf8e22707d11f5b8e	842623392	1	main_z	7	main_z	133	stimuli_distractor_diamondtriangles.svg	stimuli_distractor_trianglediamonds.svg	37	no	0	1	2000
6.6.1	mac	2022-12-19	13:13:06	13:19:08	360216	628b960bf8e22707d11f5b8e	842623392	1	main_z	7	advance_on_keypress_ZEE	134	stimuli_distractor_diamondtriangles.svg	stimuli_distractor_trianglediamonds.svg	37	no	57	0	406
6.6.1	mac	2022-12-19	13:13:06	13:19:09	362021	628b960bf8e22707d11f5b8e	842623392	1	main_z	7	main_z	135	stimuli_target_squarediamonds.svg	stimuli_distractor_trianglediamonds.svg	4	yes	44	1	770
6.6.1	mac	2022-12-19	13:13:06	13:19:09	362021	628b960bf8e22707d11f5b8e	842623392	1	main_z	7	advance_on_keypress_ZEE	136	stimuli_target_squarediamonds.svg	stimuli_distractor_trianglediamonds.svg	4	yes	57	0	642
6.6.1	mac	2022-12-19	13:13:06	13:19:12	364153	628b960bf8e22707d11f5b8e	842623392	1	main_z	7	main_z	137	stimuli_target_trianglecircles.svg	stimuli_distractor_diamondtriangles.svg	21	yes	44	1	868
6.6.1	mac	2022-12-19	13:13:06	13:19:12	364153	628b960bf8e22707d11f5b8e	842623392	1	main_z	7	advance_on_keypress_ZEE	138	stimuli_target_trianglecircles.svg	stimuli_distractor_diamondtriangles.svg	21	yes	57	0	521
6.6.1	mac	2022-12-19	13:13:06	13:19:14	366142	628b960bf8e22707d11f5b8e	842623392	1	main_z	7	main_z	139	stimuli_target_circletriangles.svg	stimuli_distractor_trianglediamonds.svg	1	yes	44	1	839
6.6.1	mac	2022-12-19	13:13:06	13:19:14	366142	628b960bf8e22707d11f5b8e	842623392	1	main_z	7	advance_on_keypress_ZEE	140	stimuli_target_circletriangles.svg	stimuli_distractor_trianglediamonds.svg	1	yes	57	0	592
6.6.1	mac	2022-12-19	13:13:06	13:19:16	368129	628b960bf8e22707d11f5b8e	842623392	1	main_z	7	main_z	141	stimuli_target_squaretriangles.svg	stimuli_distractor_trianglediamonds.svg	3	yes	44	1	778
6.6.1	mac	2022-12-19	13:13:06	13:19:16	368129	628b960bf8e22707d11f5b8e	842623392	1	main_z	7	advance_on_keypress_ZEE	142	stimuli_target_squaretriangles.svg	stimuli_distractor_trianglediamonds.svg	3	yes	57	0	618
6.6.1	mac	2022-12-19	13:13:06	13:19:19	371365	628b960bf8e22707d11f5b8e	842623392	1	main_z	7	main_z	143	stimuli_distractor_diamondtriangles.svg	stimuli_distractor_diamondtriangles.svg	40	no	0	1	2000
6.6.1	mac	2022-12-19	13:13:06	13:19:19	371365	628b960bf8e22707d11f5b8e	842623392	1	main_z	7	advance_on_keypress_ZEE	144	stimuli_distractor_diamondtriangles.svg	stimuli_distractor_diamondtriangles.svg	40	no	57	0	462
6.6.1	mac	2022-12-19	13:13:06	13:19:21	373188	628b960bf8e22707d11f5b8e	842623392	1	main_z	7	main_z	145	stimuli_target_diamondcircles.svg	stimuli_distractor_diamondtriangles.svg	23	yes	44	1	719
6.6.1	mac	2022-12-19	13:13:06	13:19:21	373188	628b960bf8e22707d11f5b8e	842623392	1	main_z	7	advance_on_keypress_ZEE	146	stimuli_target_diamondcircles.svg	stimuli_distractor_diamondtriangles.svg	23	yes	57	0	561
6.6.1	mac	2022-12-19	13:13:06	13:19:23	375229	628b960bf8e22707d11f5b8e	842623392	1	main_z	7	main_z	147	stimuli_distractor_trianglediamonds.svg	stimuli_target_squaretriangles.svg	11	yes	44	1	861
6.6.1	mac	2022-12-19	13:13:06	13:19:23	375229	628b960bf8e22707d11f5b8e	842623392	1	main_z	7	advance_on_keypress_ZEE	148	stimuli_distractor_trianglediamonds.svg	stimuli_target_squaretriangles.svg	11	yes	57	0	443
6.6.1	mac	2022-12-19	13:13:06	13:19:25	377183	628b960bf8e22707d11f5b8e	842623392	1	main_z	7	main_z	149	stimuli_distractor_diamondtriangles.svg	stimuli_target_diamondsquares.svg	32	yes	44	1	898
6.6.1	mac	2022-12-19	13:13:06	13:19:25	377183	628b960bf8e22707d11f5b8e	842623392	1	main_z	7	advance_on_keypress_ZEE	150	stimuli_distractor_diamondtriangles.svg	stimuli_target_diamondsquares.svg	32	yes	57	0	384
6.6.1	mac	2022-12-19	13:13:06	13:19:26	379027	628b960bf8e22707d11f5b8e	842623392	1	main_z	7	main_z	151	stimuli_distractor_trianglediamonds.svg	stimuli_target_squarediamonds.svg	12	yes	44	1	825
6.6.1	mac	2022-12-19	13:13:06	13:19:26	379027	628b960bf8e22707d11f5b8e	842623392	1	main_z	7	advance_on_keypress_ZEE	152	stimuli_distractor_trianglediamonds.svg	stimuli_target_squarediamonds.svg	12	yes	57	0	563
6.6.1	mac	2022-12-19	13:13:06	13:19:29	381097	628b960bf8e22707d11f5b8e	842623392	1	main_z	7	main_z	153	stimuli_target_squarediamonds.svg	stimuli_distractor_diamondtriangles.svg	8	yes	44	1	878
6.6.1	mac	2022-12-19	13:13:06	13:19:29	381097	628b960bf8e22707d11f5b8e	842623392	1	main_z	7	advance_on_keypress_ZEE	154	stimuli_target_squarediamonds.svg	stimuli_distractor_diamondtriangles.svg	8	yes	57	0	365
6.6.1	mac	2022-12-19	13:13:06	13:19:30	382857	628b960bf8e22707d11f5b8e	842623392	1	main_z	7	main_z	155	stimuli_target_squaretriangles.svg	stimuli_distractor_diamondtriangles.svg	7	yes	44	1	772
6.6.1	mac	2022-12-19	13:13:06	13:19:30	382857	628b960bf8e22707d11f5b8e	842623392	1	main_z	7	advance_on_keypress_ZEE	156	stimuli_target_squaretriangles.svg	stimuli_distractor_diamondtriangles.svg	7	yes	57	0	491
6.6.1	mac	2022-12-19	13:13:06	13:19:32	384762	628b960bf8e22707d11f5b8e	842623392	1	main_z	7	main_z	157	stimuli_target_circletriangles.svg	stimuli_distractor_diamondtriangles.svg	5	yes	44	1	794
6.6.1	mac	2022-12-19	13:13:06	13:19:32	384762	628b960bf8e22707d11f5b8e	842623392	1	main_z	7	advance_on_keypress_ZEE	158	stimuli_target_circletriangles.svg	stimuli_distractor_diamondtriangles.svg	5	yes	57	0	427
6.6.1	mac	2022-12-19	13:13:06	13:19:34	386658	628b960bf8e22707d11f5b8e	842623392	1	main_z	7	main_z	159	stimuli_target_diamondsquares.svg	stimuli_distractor_trianglediamonds.svg	20	yes	44	1	856
6.6.1	mac	2022-12-19	13:13:06	13:19:34	386658	628b960bf8e22707d11f5b8e	842623392	1	main_z	7	advance_on_keypress_ZEE	160	stimuli_target_diamondsquares.svg	stimuli_distractor_trianglediamonds.svg	20	yes	57	0	390
6.6.1	mac	2022-12-19	13:13:06	13:21:21	493741	628b960bf8e22707d11f5b8e	842623392	1	practice_slash	9	practice_slash	1	stimuli_target_squarediamonds.svg	stimuli_distractor_diamondtriangles.svg	2	yes	53	1	607
6.6.1	mac	2022-12-19	13:13:06	13:21:21	493741	628b960bf8e22707d11f5b8e	842623392	1	practice_slash	9	advance_on_keypress_SLASH	2	stimuli_target_squarediamonds.svg	stimuli_distractor_diamondtriangles.svg	2	yes	57	0	1221
6.6.1	mac	2022-12-19	13:13:06	13:21:25	497148	628b960bf8e22707d11f5b8e	842623392	1	practice_slash	9	practice_slash	3	stimuli_target_circlediamonds.svg	stimuli_distractor_diamondtriangles.svg	1	yes	53	1	562
6.6.1	mac	2022-12-19	13:13:06	13:21:25	497148	628b960bf8e22707d11f5b8e	842623392	1	practice_slash	9	advance_on_keypress_SLASH	4	stimuli_target_circlediamonds.svg	stimuli_distractor_diamondtriangles.svg	1	yes	57	0	661
6.6.1	mac	2022-12-19	13:13:06	13:21:29	501449	628b960bf8e22707d11f5b8e	842623392	1	practice_slash	9	practice_slash	5	stimuli_distractor_trianglediamonds.svg	stimuli_distractor_trianglediamonds.svg	15	no	0	1	2000
6.6.1	mac	2022-12-19	13:13:06	13:21:29	501449	628b960bf8e22707d11f5b8e	842623392	1	practice_slash	9	advance_on_keypress_SLASH	6	stimuli_distractor_trianglediamonds.svg	stimuli_distractor_trianglediamonds.svg	15	no	57	0	346
6.6.1	mac	2022-12-19	13:13:06	13:21:31	504079	628b960bf8e22707d11f5b8e	842623392	1	practice_slash	9	practice_slash	7	stimuli_distractor_diamondtriangles.svg	stimuli_target_circletriangles.svg	7	yes	53	1	644
6.6.1	mac	2022-12-19	13:13:06	13:21:31	504079	628b960bf8e22707d11f5b8e	842623392	1	practice_slash	9	advance_on_keypress_SLASH	8	stimuli_distractor_diamondtriangles.svg	stimuli_target_circletriangles.svg	7	yes	57	0	372
6.6.1	mac	2022-12-19	13:13:06	13:21:34	506792	628b960bf8e22707d11f5b8e	842623392	1	practice_slash	9	practice_slash	9	stimuli_target_diamondsquares.svg	stimuli_distractor_diamondtriangles.svg	3	yes	53	1	722
6.6.1	mac	2022-12-19	13:13:06	13:21:34	506792	628b960bf8e22707d11f5b8e	842623392	1	practice_slash	9	advance_on_keypress_SLASH	10	stimuli_target_diamondsquares.svg	stimuli_distractor_diamondtriangles.svg	3	yes	57	0	373
6.6.1	mac	2022-12-19	13:13:06	13:21:37	509464	628b960bf8e22707d11f5b8e	842623392	1	practice_slash	9	practice_slash	11	stimuli_distractor_diamondtriangles.svg	stimuli_target_trianglecircles.svg	9	yes	53	1	679
6.6.1	mac	2022-12-19	13:13:06	13:21:37	509464	628b960bf8e22707d11f5b8e	842623392	1	practice_slash	9	advance_on_keypress_SLASH	12	stimuli_distractor_diamondtriangles.svg	stimuli_target_trianglecircles.svg	9	yes	57	0	483
6.6.1	mac	2022-12-19	13:13:06	13:21:41	513583	628b960bf8e22707d11f5b8e	842623392	1	practice_slash	9	practice_slash	13	stimuli_distractor_diamondtriangles.svg	stimuli_distractor_trianglediamonds.svg	14	no	0	1	2000
6.6.1	mac	2022-12-19	13:13:06	13:21:41	513583	628b960bf8e22707d11f5b8e	842623392	1	practice_slash	9	advance_on_keypress_SLASH	14	stimuli_distractor_diamondtriangles.svg	stimuli_distractor_trianglediamonds.svg	14	no	57	0	277
6.6.1	mac	2022-12-19	13:13:06	13:21:45	517483	628b960bf8e22707d11f5b8e	842623392	1	practice_slash	9	practice_slash	15	stimuli_distractor_trianglediamonds.svg	stimuli_distractor_diamondtriangles.svg	16	no	0	1	2000
6.6.1	mac	2022-12-19	13:13:06	13:21:45	517483	628b960bf8e22707d11f5b8e	842623392	1	practice_slash	9	advance_on_keypress_SLASH	16	stimuli_distractor_trianglediamonds.svg	stimuli_distractor_diamondtriangles.svg	16	no	57	0	311
6.6.1	mac	2022-12-19	13:13:06	13:21:47	520042	628b960bf8e22707d11f5b8e	842623392	1	practice_slash	9	practice_slash	17	stimuli_distractor_trianglediamonds.svg	stimuli_target_squarediamonds.svg	11	yes	53	1	624
6.6.1	mac	2022-12-19	13:13:06	13:21:47	520042	628b960bf8e22707d11f5b8e	842623392	1	practice_slash	9	advance_on_keypress_SLASH	18	stimuli_distractor_trianglediamonds.svg	stimuli_target_squarediamonds.svg	11	yes	57	0	298
6.6.1	mac	2022-12-19	13:13:06	13:21:50	522644	628b960bf8e22707d11f5b8e	842623392	1	practice_slash	9	practice_slash	19	stimuli_distractor_trianglediamonds.svg	stimuli_target_diamondcircles.svg	12	yes	53	1	676
6.6.1	mac	2022-12-19	13:13:06	13:21:50	522644	628b960bf8e22707d11f5b8e	842623392	1	practice_slash	9	advance_on_keypress_SLASH	20	stimuli_distractor_trianglediamonds.svg	stimuli_target_diamondcircles.svg	12	yes	57	0	425
6.6.1	mac	2022-12-19	13:13:06	13:21:53	525369	628b960bf8e22707d11f5b8e	842623392	1	practice_slash	9	practice_slash	21	stimuli_distractor_trianglediamonds.svg	stimuli_target_circlediamonds.svg	10	yes	53	1	684
6.6.1	mac	2022-12-19	13:13:06	13:21:53	525369	628b960bf8e22707d11f5b8e	842623392	1	practice_slash	9	advance_on_keypress_SLASH	22	stimuli_distractor_trianglediamonds.svg	stimuli_target_circlediamonds.svg	10	yes	57	0	401
6.6.1	mac	2022-12-19	13:13:06	13:21:55	528063	628b960bf8e22707d11f5b8e	842623392	1	practice_slash	9	practice_slash	23	stimuli_distractor_diamondtriangles.svg	stimuli_target_diamondcircles.svg	8	yes	53	1	661
6.6.1	mac	2022-12-19	13:13:06	13:21:55	528063	628b960bf8e22707d11f5b8e	842623392	1	practice_slash	9	advance_on_keypress_SLASH	24	stimuli_distractor_diamondtriangles.svg	stimuli_target_diamondcircles.svg	8	yes	57	0	464
6.6.1	mac	2022-12-19	13:13:06	13:22:00	532149	628b960bf8e22707d11f5b8e	842623392	1	practice_slash	9	practice_slash	25	stimuli_distractor_diamondtriangles.svg	stimuli_distractor_diamondtriangles.svg	13	no	0	1	2000
6.6.1	mac	2022-12-19	13:13:06	13:22:00	532149	628b960bf8e22707d11f5b8e	842623392	1	practice_slash	9	advance_on_keypress_SLASH	26	stimuli_distractor_diamondtriangles.svg	stimuli_distractor_diamondtriangles.svg	13	no	57	0	347
6.6.1	mac	2022-12-19	13:13:06	13:22:02	534818	628b960bf8e22707d11f5b8e	842623392	1	practice_slash	9	practice_slash	27	stimuli_target_diamondsquares.svg	stimuli_distractor_trianglediamonds.svg	6	yes	53	1	681
6.6.1	mac	2022-12-19	13:13:06	13:22:02	534818	628b960bf8e22707d11f5b8e	842623392	1	practice_slash	9	advance_on_keypress_SLASH	28	stimuli_target_diamondsquares.svg	stimuli_distractor_trianglediamonds.svg	6	yes	57	0	342
6.6.1	mac	2022-12-19	13:13:06	13:22:05	537472	628b960bf8e22707d11f5b8e	842623392	1	practice_slash	9	practice_slash	29	stimuli_target_circlediamonds.svg	stimuli_distractor_trianglediamonds.svg	4	yes	53	1	687
6.6.1	mac	2022-12-19	13:13:06	13:22:05	537472	628b960bf8e22707d11f5b8e	842623392	1	practice_slash	9	advance_on_keypress_SLASH	30	stimuli_target_circlediamonds.svg	stimuli_distractor_trianglediamonds.svg	4	yes	57	0	396
6.6.1	mac	2022-12-19	13:13:06	13:22:08	540150	628b960bf8e22707d11f5b8e	842623392	1	practice_slash	9	practice_slash	31	stimuli_target_squarediamonds.svg	stimuli_distractor_trianglediamonds.svg	5	yes	53	1	648
6.6.1	mac	2022-12-19	13:13:06	13:22:08	540150	628b960bf8e22707d11f5b8e	842623392	1	practice_slash	9	advance_on_keypress_SLASH	32	stimuli_target_squarediamonds.svg	stimuli_distractor_trianglediamonds.svg	5	yes	57	0	298
6.6.1	mac	2022-12-19	13:13:06	13:22:14	546300	628b960bf8e22707d11f5b8e	842623392	1	main_slash	11	main_slash	1	stimuli_target_circlediamonds.svg	stimuli_distractor_trianglediamonds.svg	2	yes	53	1	532
6.6.1	mac	2022-12-19	13:13:06	13:22:14	546300	628b960bf8e22707d11f5b8e	842623392	1	main_slash	11	advance_on_keypress_SLASH	2	stimuli_target_circlediamonds.svg	stimuli_distractor_trianglediamonds.svg	2	yes	57	0	1126
6.6.1	mac	2022-12-19	13:13:06	13:22:17	549191	628b960bf8e22707d11f5b8e	842623392	1	main_slash	11	main_slash	3	stimuli_distractor_diamondtriangles.svg	stimuli_target_squaretriangles.svg	15	yes	53	1	1122
6.6.1	mac	2022-12-19	13:13:06	13:22:17	549191	628b960bf8e22707d11f5b8e	842623392	1	main_slash	11	advance_on_keypress_SLASH	4	stimuli_distractor_diamondtriangles.svg	stimuli_target_squaretriangles.svg	15	yes	57	0	1947
6.6.1	mac	2022-12-19	13:13:06	13:22:20	552352	628b960bf8e22707d11f5b8e	842623392	1	main_slash	11	main_slash	5	stimuli_target_circlediamonds.svg	stimuli_distractor_diamondtriangles.svg	6	yes	53	1	584
6.6.1	mac	2022-12-19	13:13:06	13:22:20	552352	628b960bf8e22707d11f5b8e	842623392	1	main_slash	11	advance_on_keypress_SLASH	6	stimuli_target_circlediamonds.svg	stimuli_distractor_diamondtriangles.svg	6	yes	57	0	615
6.6.1	mac	2022-12-19	13:13:06	13:22:22	554190	628b960bf8e22707d11f5b8e	842623392	1	main_slash	11	main_slash	7	stimuli_target_trianglesquares.svg	stimuli_distractor_diamondtriangles.svg	22	yes	53	1	589
6.6.1	mac	2022-12-19	13:13:06	13:22:22	554190	628b960bf8e22707d11f5b8e	842623392	1	main_slash	11	advance_on_keypress_SLASH	8	stimuli_target_trianglesquares.svg	stimuli_distractor_diamondtriangles.svg	22	yes	57	0	542
6.6.1	mac	2022-12-19	13:13:06	13:22:25	557348	628b960bf8e22707d11f5b8e	842623392	1	main_slash	11	main_slash	9	stimuli_distractor_diamondtriangles.svg	stimuli_distractor_diamondtriangles.svg	40	no	0	1	2000
6.6.1	mac	2022-12-19	13:13:06	13:22:25	557348	628b960bf8e22707d11f5b8e	842623392	1	main_slash	11	advance_on_keypress_SLASH	10	stimuli_distractor_diamondtriangles.svg	stimuli_distractor_diamondtriangles.svg	40	no	57	0	334
6.6.1	mac	2022-12-19	13:13:06	13:22:26	558947	628b960bf8e22707d11f5b8e	842623392	1	main_slash	11	main_slash	11	stimuli_target_squaretriangles.svg	stimuli_distractor_trianglediamonds.svg	3	yes	53	1	628
6.6.1	mac	2022-12-19	13:13:06	13:22:26	558947	628b960bf8e22707d11f5b8e	842623392	1	main_slash	11	advance_on_keypress_SLASH	12	stimuli_target_squaretriangles.svg	stimuli_distractor_trianglediamonds.svg	3	yes	57	0	469
6.6.1	mac	2022-12-19	13:13:06	13:22:28	560723	628b960bf8e22707d11f5b8e	842623392	1	main_slash	11	main_slash	13	stimuli_distractor_trianglediamonds.svg	stimuli_target_trianglesquares.svg	26	yes	53	1	672
6.6.1	mac	2022-12-19	13:13:06	13:22:28	560723	628b960bf8e22707d11f5b8e	842623392	1	main_slash	11	advance_on_keypress_SLASH	14	stimuli_distractor_trianglediamonds.svg	stimuli_target_trianglesquares.svg	26	yes	57	0	475
6.6.1	mac	2022-12-19	13:13:06	13:22:30	562437	628b960bf8e22707d11f5b8e	842623392	1	main_slash	11	main_slash	15	stimuli_target_circletriangles.svg	stimuli_distractor_trianglediamonds.svg	1	yes	53	1	619
6.6.1	mac	2022-12-19	13:13:06	13:22:30	562437	628b960bf8e22707d11f5b8e	842623392	1	main_slash	11	advance_on_keypress_SLASH	16	stimuli_target_circletriangles.svg	stimuli_distractor_trianglediamonds.svg	1	yes	57	0	458
6.6.1	mac	2022-12-19	13:13:06	13:22:32	564122	628b960bf8e22707d11f5b8e	842623392	1	main_slash	11	main_slash	17	stimuli_distractor_trianglediamonds.svg	stimuli_target_diamondcircles.svg	27	yes	53	1	604
6.6.1	mac	2022-12-19	13:13:06	13:22:32	564122	628b960bf8e22707d11f5b8e	842623392	1	main_slash	11	advance_on_keypress_SLASH	18	stimuli_distractor_trianglediamonds.svg	stimuli_target_diamondcircles.svg	27	yes	57	0	386
6.6.1	mac	2022-12-19	13:13:06	13:22:35	567133	628b960bf8e22707d11f5b8e	842623392	1	main_slash	11	main_slash	19	stimuli_distractor_diamondtriangles.svg	stimuli_distractor_trianglediamonds.svg	38	no	0	1	2000
6.6.1	mac	2022-12-19	13:13:06	13:22:35	567133	628b960bf8e22707d11f5b8e	842623392	1	main_slash	11	advance_on_keypress_SLASH	20	stimuli_distractor_diamondtriangles.svg	stimuli_distractor_trianglediamonds.svg	38	no	57	0	497
6.6.1	mac	2022-12-19	13:13:06	13:22:38	570266	628b960bf8e22707d11f5b8e	842623392	1	main_slash	11	main_slash	21	stimuli_distractor_diamondtriangles.svg	stimuli_distractor_trianglediamonds.svg	37	no	0	1	2000
6.6.1	mac	2022-12-19	13:13:06	13:22:38	570266	628b960bf8e22707d11f5b8e	842623392	1	main_slash	11	advance_on_keypress_SLASH	22	stimuli_distractor_diamondtriangles.svg	stimuli_distractor_trianglediamonds.svg	37	no	57	0	334
6.6.1	mac	2022-12-19	13:13:06	13:22:39	571759	628b960bf8e22707d11f5b8e	842623392	1	main_slash	11	main_slash	23	stimuli_distractor_diamondtriangles.svg	stimuli_target_trianglesquares.svg	30	yes	53	1	523
6.6.1	mac	2022-12-19	13:13:06	13:22:39	571759	628b960bf8e22707d11f5b8e	842623392	1	main_slash	11	advance_on_keypress_SLASH	24	stimuli_distractor_diamondtriangles.svg	stimuli_target_trianglesquares.svg	30	yes	57	0	522
6.6.1	mac	2022-12-19	13:13:06	13:22:41	573541	628b960bf8e22707d11f5b8e	842623392	1	main_slash	11	main_slash	25	stimuli_target_squarediamonds.svg	stimuli_distractor_trianglediamonds.svg	4	yes	53	1	624
6.6.1	mac	2022-12-19	13:13:06	13:22:41	573541	628b960bf8e22707d11f5b8e	842623392	1	main_slash	11	advance_on_keypress_SLASH	26	stimuli_target_squarediamonds.svg	stimuli_distractor_trianglediamonds.svg	4	yes	57	0	430
6.6.1	mac	2022-12-19	13:13:06	13:22:43	575318	628b960bf8e22707d11f5b8e	842623392	1	main_slash	11	main_slash	27	stimuli_target_trianglesquares.svg	stimuli_distractor_trianglediamonds.svg	18	yes	53	1	715
6.6.1	mac	2022-12-19	13:13:06	13:22:43	575318	628b960bf8e22707d11f5b8e	842623392	1	main_slash	11	advance_on_keypress_SLASH	28	stimuli_target_trianglesquares.svg	stimuli_distractor_trianglediamonds.svg	18	yes	57	0	455
6.6.1	mac	2022-12-19	13:13:06	13:22:44	577046	628b960bf8e22707d11f5b8e	842623392	1	main_slash	11	main_slash	29	stimuli_distractor_diamondtriangles.svg	stimuli_target_diamondcircles.svg	31	yes	53	1	643
6.6.1	mac	2022-12-19	13:13:06	13:22:44	577046	628b960bf8e22707d11f5b8e	842623392	1	main_slash	11	advance_on_keypress_SLASH	30	stimuli_distractor_diamondtriangles.svg	stimuli_target_diamondcircles.svg	31	yes	57	0	469
6.6.1	mac	2022-12-19	13:13:06	13:22:47	579497	628b960bf8e22707d11f5b8e	842623392	1	main_slash	11	main_slash	31	stimuli_distractor_diamondtriangles.svg	stimuli_target_diamondsquares.svg	32	yes	53	1	1345
6.6.1	mac	2022-12-19	13:13:06	13:22:47	579497	628b960bf8e22707d11f5b8e	842623392	1	main_slash	11	advance_on_keypress_SLASH	32	stimuli_distractor_diamondtriangles.svg	stimuli_target_diamondsquares.svg	32	yes	57	0	857
6.6.1	mac	2022-12-19	13:13:06	13:22:49	581927	628b960bf8e22707d11f5b8e	842623392	1	main_slash	11	main_slash	33	stimuli_distractor_diamondtriangles.svg	stimuli_target_trianglecircles.svg	29	yes	53	1	941
6.6.1	mac	2022-12-19	13:13:06	13:22:49	581927	628b960bf8e22707d11f5b8e	842623392	1	main_slash	11	advance_on_keypress_SLASH	34	stimuli_distractor_diamondtriangles.svg	stimuli_target_trianglecircles.svg	29	yes	57	0	476
6.6.1	mac	2022-12-19	13:13:06	13:22:51	583761	628b960bf8e22707d11f5b8e	842623392	1	main_slash	11	main_slash	35	stimuli_target_squaretriangles.svg	stimuli_distractor_diamondtriangles.svg	7	yes	53	1	741
6.6.1	mac	2022-12-19	13:13:06	13:22:51	583761	628b960bf8e22707d11f5b8e	842623392	1	main_slash	11	advance_on_keypress_SLASH	36	stimuli_target_squaretriangles.svg	stimuli_distractor_diamondtriangles.svg	7	yes	57	0	366
6.6.1	mac	2022-12-19	13:13:06	13:22:53	585515	628b960bf8e22707d11f5b8e	842623392	1	main_slash	11	main_slash	37	stimuli_target_squarediamonds.svg	stimuli_distractor_diamondtriangles.svg	8	yes	53	1	762
6.6.1	mac	2022-12-19	13:13:06	13:22:53	585515	628b960bf8e22707d11f5b8e	842623392	1	main_slash	11	advance_on_keypress_SLASH	38	stimuli_target_squarediamonds.svg	stimuli_distractor_diamondtriangles.svg	8	yes	57	0	345
6.6.1	mac	2022-12-19	13:13:06	13:22:56	588482	628b960bf8e22707d11f5b8e	842623392	1	main_slash	11	main_slash	39	stimuli_distractor_trianglediamonds.svg	stimuli_distractor_trianglediamonds.svg	33	no	0	1	2000
6.6.1	mac	2022-12-19	13:13:06	13:22:56	588482	628b960bf8e22707d11f5b8e	842623392	1	main_slash	11	advance_on_keypress_SLASH	40	stimuli_distractor_trianglediamonds.svg	stimuli_distractor_trianglediamonds.svg	33	no	57	0	3323
6.6.1	mac	2022-12-19	13:13:06	13:23:00	593052	628b960bf8e22707d11f5b8e	842623392	1	main_slash	11	main_slash	41	stimuli_distractor_trianglediamonds.svg	stimuli_target_trianglecircles.svg	25	yes	53	1	617
6.6.1	mac	2022-12-19	13:13:06	13:23:00	593052	628b960bf8e22707d11f5b8e	842623392	1	main_slash	11	advance_on_keypress_SLASH	42	stimuli_distractor_trianglediamonds.svg	stimuli_target_trianglecircles.svg	25	yes	57	0	482
6.6.1	mac	2022-12-19	13:13:06	13:23:02	594851	628b960bf8e22707d11f5b8e	842623392	1	main_slash	11	main_slash	43	stimuli_target_trianglecircles.svg	stimuli_distractor_trianglediamonds.svg	17	yes	53	1	682
6.6.1	mac	2022-12-19	13:13:06	13:23:02	594851	628b960bf8e22707d11f5b8e	842623392	1	main_slash	11	advance_on_keypress_SLASH	44	stimuli_target_trianglecircles.svg	stimuli_distractor_trianglediamonds.svg	17	yes	57	0	363
6.6.1	mac	2022-12-19	13:13:06	13:23:04	596791	628b960bf8e22707d11f5b8e	842623392	1	main_slash	11	main_slash	45	stimuli_distractor_trianglediamonds.svg	stimuli_target_squarediamonds.svg	12	yes	53	1	939
6.6.1	mac	2022-12-19	13:13:06	13:23:04	596791	628b960bf8e22707d11f5b8e	842623392	1	main_slash	11	advance_on_keypress_SLASH	46	stimuli_distractor_trianglediamonds.svg	stimuli_target_squarediamonds.svg	12	yes	57	0	427
6.6.1	mac	2022-12-19	13:13:06	13:23:06	598595	628b960bf8e22707d11f5b8e	842623392	1	main_slash	11	main_slash	47	stimuli_target_diamondsquares.svg	stimuli_distractor_diamondtriangles.svg	24	yes	53	1	759
6.6.1	mac	2022-12-19	13:13:06	13:23:06	598595	628b960bf8e22707d11f5b8e	842623392	1	main_slash	11	advance_on_keypress_SLASH	48	stimuli_target_diamondsquares.svg	stimuli_distractor_diamondtriangles.svg	24	yes	57	0	426
6.6.1	mac	2022-12-19	13:13:06	13:23:08	600349	628b960bf8e22707d11f5b8e	842623392	1	main_slash	11	main_slash	49	stimuli_distractor_diamondtriangles.svg	stimuli_target_squarediamonds.svg	16	yes	53	1	714
6.6.1	mac	2022-12-19	13:13:06	13:23:08	600349	628b960bf8e22707d11f5b8e	842623392	1	main_slash	11	advance_on_keypress_SLASH	50	stimuli_distractor_diamondtriangles.svg	stimuli_target_squarediamonds.svg	16	yes	57	0	383
6.6.1	mac	2022-12-19	13:13:06	13:23:09	602114	628b960bf8e22707d11f5b8e	842623392	1	main_slash	11	main_slash	51	stimuli_distractor_trianglediamonds.svg	stimuli_target_squaretriangles.svg	11	yes	53	1	745
6.6.1	mac	2022-12-19	13:13:06	13:23:09	602114	628b960bf8e22707d11f5b8e	842623392	1	main_slash	11	advance_on_keypress_SLASH	52	stimuli_distractor_trianglediamonds.svg	stimuli_target_squaretriangles.svg	11	yes	57	0	355
6.6.1	mac	2022-12-19	13:13:06	13:23:11	603815	628b960bf8e22707d11f5b8e	842623392	1	main_slash	11	main_slash	53	stimuli_target_circletriangles.svg	stimuli_distractor_diamondtriangles.svg	5	yes	53	1	712
6.6.1	mac	2022-12-19	13:13:06	13:23:11	603815	628b960bf8e22707d11f5b8e	842623392	1	main_slash	11	advance_on_keypress_SLASH	54	stimuli_target_circletriangles.svg	stimuli_distractor_diamondtriangles.svg	5	yes	57	0	361
6.6.1	mac	2022-12-19	13:13:06	13:23:13	605563	628b960bf8e22707d11f5b8e	842623392	1	main_slash	11	main_slash	55	stimuli_target_trianglecircles.svg	stimuli_distractor_diamondtriangles.svg	21	yes	53	1	744
6.6.1	mac	2022-12-19	13:13:06	13:23:13	605563	628b960bf8e22707d11f5b8e	842623392	1	main_slash	11	advance_on_keypress_SLASH	56	stimuli_target_trianglecircles.svg	stimuli_distractor_diamondtriangles.svg	21	yes	57	0	467
6.6.1	mac	2022-12-19	13:13:06	13:23:16	608649	628b960bf8e22707d11f5b8e	842623392	1	main_slash	11	main_slash	57	stimuli_distractor_trianglediamonds.svg	stimuli_distractor_diamondtriangles.svg	35	no	0	1	2000
6.6.1	mac	2022-12-19	13:13:06	13:23:16	608649	628b960bf8e22707d11f5b8e	842623392	1	main_slash	11	advance_on_keypress_SLASH	58	stimuli_distractor_trianglediamonds.svg	stimuli_distractor_diamondtriangles.svg	35	no	57	0	1113
6.6.1	mac	2022-12-19	13:13:06	13:23:18	611109	628b960bf8e22707d11f5b8e	842623392	1	main_slash	11	main_slash	59	stimuli_distractor_trianglediamonds.svg	stimuli_target_circletriangles.svg	9	yes	53	1	707
6.6.1	mac	2022-12-19	13:13:06	13:23:18	611109	628b960bf8e22707d11f5b8e	842623392	1	main_slash	11	advance_on_keypress_SLASH	60	stimuli_distractor_trianglediamonds.svg	stimuli_target_circletriangles.svg	9	yes	57	0	418
6.6.1	mac	2022-12-19	13:13:06	13:23:21	614149	628b960bf8e22707d11f5b8e	842623392	1	main_slash	11	main_slash	61	stimuli_distractor_diamondtriangles.svg	stimuli_distractor_diamondtriangles.svg	39	no	0	1	2000
6.6.1	mac	2022-12-19	13:13:06	13:23:21	614149	628b960bf8e22707d11f5b8e	842623392	1	main_slash	11	advance_on_keypress_SLASH	62	stimuli_distractor_diamondtriangles.svg	stimuli_distractor_diamondtriangles.svg	39	no	57	0	680
6.6.1	mac	2022-12-19	13:13:06	13:23:23	616123	628b960bf8e22707d11f5b8e	842623392	1	main_slash	11	main_slash	63	stimuli_distractor_diamondtriangles.svg	stimuli_target_circletriangles.svg	13	yes	53	1	653
6.6.1	mac	2022-12-19	13:13:06	13:23:23	616123	628b960bf8e22707d11f5b8e	842623392	1	main_slash	11	advance_on_keypress_SLASH	64	stimuli_distractor_diamondtriangles.svg	stimuli_target_circletriangles.svg	13	yes	57	0	394
6.6.1	mac	2022-12-19	13:13:06	13:23:26	618180	628b960bf8e22707d11f5b8e	842623392	1	main_slash	11	main_slash	65	stimuli_distractor_trianglediamonds.svg	stimuli_target_circlediamonds.svg	10	yes	53	1	1027
6.6.1	mac	2022-12-19	13:13:06	13:23:26	618180	628b960bf8e22707d11f5b8e	842623392	1	main_slash	11	advance_on_keypress_SLASH	66	stimuli_distractor_trianglediamonds.svg	stimuli_target_circlediamonds.svg	10	yes	57	0	389
6.6.1	mac	2022-12-19	13:13:06	13:23:27	619907	628b960bf8e22707d11f5b8e	842623392	1	main_slash	11	main_slash	67	stimuli_distractor_diamondtriangles.svg	stimuli_target_circlediamonds.svg	14	yes	53	1	704
6.6.1	mac	2022-12-19	13:13:06	13:23:27	619907	628b960bf8e22707d11f5b8e	842623392	1	main_slash	11	advance_on_keypress_SLASH	68	stimuli_distractor_diamondtriangles.svg	stimuli_target_circlediamonds.svg	14	yes	57	0	1393
6.6.1	mac	2022-12-19	13:13:06	13:23:30	622678	628b960bf8e22707d11f5b8e	842623392	1	main_slash	11	main_slash	69	stimuli_target_diamondcircles.svg	stimuli_distractor_diamondtriangles.svg	23	yes	53	1	760
6.6.1	mac	2022-12-19	13:13:06	13:23:30	622678	628b960bf8e22707d11f5b8e	842623392	1	main_slash	11	advance_on_keypress_SLASH	70	stimuli_target_diamondcircles.svg	stimuli_distractor_diamondtriangles.svg	23	yes	57	0	381
6.6.1	mac	2022-12-19	13:13:06	13:23:32	624713	628b960bf8e22707d11f5b8e	842623392	1	main_slash	11	main_slash	71	stimuli_distractor_trianglediamonds.svg	stimuli_target_diamondsquares.svg	28	yes	53	1	1029
6.6.1	mac	2022-12-19	13:13:06	13:23:32	624713	628b960bf8e22707d11f5b8e	842623392	1	main_slash	11	advance_on_keypress_SLASH	72	stimuli_distractor_trianglediamonds.svg	stimuli_target_diamondsquares.svg	28	yes	57	0	485
6.6.1	mac	2022-12-19	13:13:06	13:23:34	626842	628b960bf8e22707d11f5b8e	842623392	1	main_slash	11	main_slash	73	stimuli_target_diamondsquares.svg	stimuli_distractor_trianglediamonds.svg	20	yes	53	1	1022
6.6.1	mac	2022-12-19	13:13:06	13:23:34	626842	628b960bf8e22707d11f5b8e	842623392	1	main_slash	11	advance_on_keypress_SLASH	74	stimuli_target_diamondsquares.svg	stimuli_distractor_trianglediamonds.svg	20	yes	57	0	409
6.6.1	mac	2022-12-19	13:13:06	13:23:36	628682	628b960bf8e22707d11f5b8e	842623392	1	main_slash	11	main_slash	75	stimuli_target_diamondcircles.svg	stimuli_distractor_trianglediamonds.svg	19	yes	53	1	812
6.6.1	mac	2022-12-19	13:13:06	13:23:36	628682	628b960bf8e22707d11f5b8e	842623392	1	main_slash	11	advance_on_keypress_SLASH	76	stimuli_target_diamondcircles.svg	stimuli_distractor_trianglediamonds.svg	19	yes	57	0	482
6.6.1	mac	2022-12-19	13:13:06	13:23:39	631798	628b960bf8e22707d11f5b8e	842623392	1	main_slash	11	main_slash	77	stimuli_distractor_trianglediamonds.svg	stimuli_distractor_diamondtriangles.svg	36	no	0	1	2000
6.6.1	mac	2022-12-19	13:13:06	13:23:39	631798	628b960bf8e22707d11f5b8e	842623392	1	main_slash	11	advance_on_keypress_SLASH	78	stimuli_distractor_trianglediamonds.svg	stimuli_distractor_diamondtriangles.svg	36	no	57	0	501
6.6.1	mac	2022-12-19	13:13:06	13:23:42	634932	628b960bf8e22707d11f5b8e	842623392	1	main_slash	11	main_slash	79	stimuli_distractor_trianglediamonds.svg	stimuli_distractor_trianglediamonds.svg	34	no	0	1	2000
6.6.1	mac	2022-12-19	13:13:06	13:23:42	634932	628b960bf8e22707d11f5b8e	842623392	1	main_slash	11	advance_on_keypress_SLASH	80	stimuli_distractor_trianglediamonds.svg	stimuli_distractor_trianglediamonds.svg	34	no	57	0	351
6.6.1	mac	2022-12-19	13:13:06	13:23:44	636631	628b960bf8e22707d11f5b8e	842623392	1	main_slash	11	main_slash	81	stimuli_distractor_diamondtriangles.svg	stimuli_target_trianglecircles.svg	29	yes	53	1	712
6.6.1	mac	2022-12-19	13:13:06	13:23:44	636631	628b960bf8e22707d11f5b8e	842623392	1	main_slash	11	advance_on_keypress_SLASH	82	stimuli_distractor_diamondtriangles.svg	stimuli_target_trianglecircles.svg	29	yes	57	0	358
6.6.1	mac	2022-12-19	13:13:06	13:23:46	638464	628b960bf8e22707d11f5b8e	842623392	1	main_slash	11	main_slash	83	stimuli_target_squarediamonds.svg	stimuli_distractor_trianglediamonds.svg	4	yes	53	1	846
6.6.1	mac	2022-12-19	13:13:06	13:23:46	638464	628b960bf8e22707d11f5b8e	842623392	1	main_slash	11	advance_on_keypress_SLASH	84	stimuli_target_squarediamonds.svg	stimuli_distractor_trianglediamonds.svg	4	yes	57	0	302
6.6.1	mac	2022-12-19	13:13:06	13:23:49	641399	628b960bf8e22707d11f5b8e	842623392	1	main_slash	11	main_slash	85	stimuli_distractor_diamondtriangles.svg	stimuli_distractor_trianglediamonds.svg	37	no	0	1	2000
6.6.1	mac	2022-12-19	13:13:06	13:23:49	641399	628b960bf8e22707d11f5b8e	842623392	1	main_slash	11	advance_on_keypress_SLASH	86	stimuli_distractor_diamondtriangles.svg	stimuli_distractor_trianglediamonds.svg	37	no	57	0	453
6.6.1	mac	2022-12-19	13:13:06	13:23:50	643156	628b960bf8e22707d11f5b8e	842623392	1	main_slash	11	main_slash	87	stimuli_distractor_diamondtriangles.svg	stimuli_target_squarediamonds.svg	16	yes	53	1	672
6.6.1	mac	2022-12-19	13:13:06	13:23:50	643156	628b960bf8e22707d11f5b8e	842623392	1	main_slash	11	advance_on_keypress_SLASH	88	stimuli_distractor_diamondtriangles.svg	stimuli_target_squarediamonds.svg	16	yes	57	0	372
6.6.1	mac	2022-12-19	13:13:06	13:23:52	644892	628b960bf8e22707d11f5b8e	842623392	1	main_slash	11	main_slash	89	stimuli_target_circlediamonds.svg	stimuli_distractor_trianglediamonds.svg	2	yes	53	1	723
6.6.1	mac	2022-12-19	13:13:06	13:23:52	644892	628b960bf8e22707d11f5b8e	842623392	1	main_slash	11	advance_on_keypress_SLASH	90	stimuli_target_circlediamonds.svg	stimuli_distractor_trianglediamonds.svg	2	yes	57	0	508
6.6.1	mac	2022-12-19	13:13:06	13:23:54	646858	628b960bf8e22707d11f5b8e	842623392	1	main_slash	11	main_slash	91	stimuli_distractor_diamondtriangles.svg	stimuli_target_circlediamonds.svg	14	yes	53	1	840
6.6.1	mac	2022-12-19	13:13:06	13:23:54	646858	628b960bf8e22707d11f5b8e	842623392	1	main_slash	11	advance_on_keypress_SLASH	92	stimuli_distractor_diamondtriangles.svg	stimuli_target_circlediamonds.svg	14	yes	57	0	457
6.6.1	mac	2022-12-19	13:13:06	13:23:56	648688	628b960bf8e22707d11f5b8e	842623392	1	main_slash	11	main_slash	93	stimuli_target_diamondcircles.svg	stimuli_distractor_diamondtriangles.svg	23	yes	53	1	753
6.6.1	mac	2022-12-19	13:13:06	13:23:56	648688	628b960bf8e22707d11f5b8e	842623392	1	main_slash	11	advance_on_keypress_SLASH	94	stimuli_target_diamondcircles.svg	stimuli_distractor_diamondtriangles.svg	23	yes	57	0	492
6.6.1	mac	2022-12-19	13:13:06	13:23:58	650803	628b960bf8e22707d11f5b8e	842623392	1	main_slash	11	main_slash	95	stimuli_distractor_diamondtriangles.svg	stimuli_target_trianglesquares.svg	30	yes	53	1	1002
6.6.1	mac	2022-12-19	13:13:06	13:23:58	650803	628b960bf8e22707d11f5b8e	842623392	1	main_slash	11	advance_on_keypress_SLASH	96	stimuli_distractor_diamondtriangles.svg	stimuli_target_trianglesquares.svg	30	yes	57	0	438
6.6.1	mac	2022-12-19	13:13:06	13:24:00	652711	628b960bf8e22707d11f5b8e	842623392	1	main_slash	11	main_slash	97	stimuli_target_circletriangles.svg	stimuli_distractor_diamondtriangles.svg	5	yes	53	1	843
6.6.1	mac	2022-12-19	13:13:06	13:24:00	652711	628b960bf8e22707d11f5b8e	842623392	1	main_slash	11	advance_on_keypress_SLASH	98	stimuli_target_circletriangles.svg	stimuli_distractor_diamondtriangles.svg	5	yes	57	0	461
6.6.1	mac	2022-12-19	13:13:06	13:24:02	654630	628b960bf8e22707d11f5b8e	842623392	1	main_slash	11	main_slash	99	stimuli_target_circletriangles.svg	stimuli_distractor_trianglediamonds.svg	1	yes	53	1	829
6.6.1	mac	2022-12-19	13:13:06	13:24:02	654630	628b960bf8e22707d11f5b8e	842623392	1	main_slash	11	advance_on_keypress_SLASH	100	stimuli_target_circletriangles.svg	stimuli_distractor_trianglediamonds.svg	1	yes	57	0	411
6.6.1	mac	2022-12-19	13:13:06	13:24:04	656503	628b960bf8e22707d11f5b8e	842623392	1	main_slash	11	main_slash	101	stimuli_target_squaretriangles.svg	stimuli_distractor_diamondtriangles.svg	7	yes	53	1	818
6.6.1	mac	2022-12-19	13:13:06	13:24:04	656503	628b960bf8e22707d11f5b8e	842623392	1	main_slash	11	advance_on_keypress_SLASH	102	stimuli_target_squaretriangles.svg	stimuli_distractor_diamondtriangles.svg	7	yes	57	0	345
6.6.1	mac	2022-12-19	13:13:06	13:24:06	658364	628b960bf8e22707d11f5b8e	842623392	1	main_slash	11	main_slash	103	stimuli_distractor_trianglediamonds.svg	stimuli_target_diamondsquares.svg	28	yes	53	1	896
6.6.1	mac	2022-12-19	13:13:06	13:24:06	658364	628b960bf8e22707d11f5b8e	842623392	1	main_slash	11	advance_on_keypress_SLASH	104	stimuli_distractor_trianglediamonds.svg	stimuli_target_diamondsquares.svg	28	yes	57	0	453
6.6.1	mac	2022-12-19	13:13:06	13:24:08	660253	628b960bf8e22707d11f5b8e	842623392	1	main_slash	11	main_slash	105	stimuli_target_trianglesquares.svg	stimuli_distractor_trianglediamonds.svg	18	yes	53	1	801
6.6.1	mac	2022-12-19	13:13:06	13:24:08	660253	628b960bf8e22707d11f5b8e	842623392	1	main_slash	11	advance_on_keypress_SLASH	106	stimuli_target_trianglesquares.svg	stimuli_distractor_trianglediamonds.svg	18	yes	57	0	432
6.6.1	mac	2022-12-19	13:13:06	13:24:09	662033	628b960bf8e22707d11f5b8e	842623392	1	main_slash	11	main_slash	107	stimuli_distractor_trianglediamonds.svg	stimuli_target_diamondcircles.svg	27	yes	53	1	715
6.6.1	mac	2022-12-19	13:13:06	13:24:09	662033	628b960bf8e22707d11f5b8e	842623392	1	main_slash	11	advance_on_keypress_SLASH	108	stimuli_distractor_trianglediamonds.svg	stimuli_target_diamondcircles.svg	27	yes	57	0	391
6.6.1	mac	2022-12-19	13:13:06	13:24:11	663852	628b960bf8e22707d11f5b8e	842623392	1	main_slash	11	main_slash	109	stimuli_target_squarediamonds.svg	stimuli_distractor_diamondtriangles.svg	8	yes	53	1	800
6.6.1	mac	2022-12-19	13:13:06	13:24:11	663852	628b960bf8e22707d11f5b8e	842623392	1	main_slash	11	advance_on_keypress_SLASH	110	stimuli_target_squarediamonds.svg	stimuli_distractor_diamondtriangles.svg	8	yes	57	0	450
6.6.1	mac	2022-12-19	13:13:06	13:24:13	665661	628b960bf8e22707d11f5b8e	842623392	1	main_slash	11	main_slash	111	stimuli_distractor_trianglediamonds.svg	stimuli_target_circletriangles.svg	9	yes	53	1	726
6.6.1	mac	2022-12-19	13:13:06	13:24:13	665661	628b960bf8e22707d11f5b8e	842623392	1	main_slash	11	advance_on_keypress_SLASH	112	stimuli_distractor_trianglediamonds.svg	stimuli_target_circletriangles.svg	9	yes	57	0	738
6.6.1	mac	2022-12-19	13:13:06	13:24:15	667768	628b960bf8e22707d11f5b8e	842623392	1	main_slash	11	main_slash	113	stimuli_distractor_diamondtriangles.svg	stimuli_target_squaretriangles.svg	15	yes	53	1	748
6.6.1	mac	2022-12-19	13:13:06	13:24:15	667768	628b960bf8e22707d11f5b8e	842623392	1	main_slash	11	advance_on_keypress_SLASH	114	stimuli_distractor_diamondtriangles.svg	stimuli_target_squaretriangles.svg	15	yes	57	0	508
6.6.1	mac	2022-12-19	13:13:06	13:24:17	669731	628b960bf8e22707d11f5b8e	842623392	1	main_slash	11	main_slash	115	stimuli_distractor_trianglediamonds.svg	stimuli_target_circlediamonds.svg	10	yes	53	1	829
6.6.1	mac	2022-12-19	13:13:06	13:24:17	669731	628b960bf8e22707d11f5b8e	842623392	1	main_slash	11	advance_on_keypress_SLASH	116	stimuli_distractor_trianglediamonds.svg	stimuli_target_circlediamonds.svg	10	yes	57	0	419
6.6.1	mac	2022-12-19	13:13:06	13:24:19	671515	628b960bf8e22707d11f5b8e	842623392	1	main_slash	11	main_slash	117	stimuli_target_trianglecircles.svg	stimuli_distractor_diamondtriangles.svg	21	yes	53	1	730
6.6.1	mac	2022-12-19	13:13:06	13:24:19	671515	628b960bf8e22707d11f5b8e	842623392	1	main_slash	11	advance_on_keypress_SLASH	118	stimuli_target_trianglecircles.svg	stimuli_distractor_diamondtriangles.svg	21	yes	57	0	501
6.6.1	mac	2022-12-19	13:13:06	13:24:21	673288	628b960bf8e22707d11f5b8e	842623392	1	main_slash	11	main_slash	119	stimuli_target_diamondsquares.svg	stimuli_distractor_diamondtriangles.svg	24	yes	53	1	635
6.6.1	mac	2022-12-19	13:13:06	13:24:21	673288	628b960bf8e22707d11f5b8e	842623392	1	main_slash	11	advance_on_keypress_SLASH	120	stimuli_target_diamondsquares.svg	stimuli_distractor_diamondtriangles.svg	24	yes	57	0	563
6.6.1	mac	2022-12-19	13:13:06	13:24:22	675161	628b960bf8e22707d11f5b8e	842623392	1	main_slash	11	main_slash	121	stimuli_target_squaretriangles.svg	stimuli_distractor_trianglediamonds.svg	3	yes	53	1	676
6.6.1	mac	2022-12-19	13:13:06	13:24:22	675161	628b960bf8e22707d11f5b8e	842623392	1	main_slash	11	advance_on_keypress_SLASH	122	stimuli_target_squaretriangles.svg	stimuli_distractor_trianglediamonds.svg	3	yes	57	0	495
6.6.1	mac	2022-12-19	13:13:06	13:24:24	676863	628b960bf8e22707d11f5b8e	842623392	1	main_slash	11	main_slash	123	stimuli_distractor_trianglediamonds.svg	stimuli_target_squarediamonds.svg	12	yes	53	1	578
6.6.1	mac	2022-12-19	13:13:06	13:24:24	676863	628b960bf8e22707d11f5b8e	842623392	1	main_slash	11	advance_on_keypress_SLASH	124	stimuli_distractor_trianglediamonds.svg	stimuli_target_squarediamonds.svg	12	yes	57	0	556
6.6.1	mac	2022-12-19	13:13:06	13:24:26	678710	628b960bf8e22707d11f5b8e	842623392	1	main_slash	11	main_slash	125	stimuli_target_diamondsquares.svg	stimuli_distractor_trianglediamonds.svg	20	yes	53	1	659
6.6.1	mac	2022-12-19	13:13:06	13:24:26	678710	628b960bf8e22707d11f5b8e	842623392	1	main_slash	11	advance_on_keypress_SLASH	126	stimuli_target_diamondsquares.svg	stimuli_distractor_trianglediamonds.svg	20	yes	57	0	456
6.6.1	mac	2022-12-19	13:13:06	13:24:29	681782	628b960bf8e22707d11f5b8e	842623392	1	main_slash	11	main_slash	127	stimuli_distractor_trianglediamonds.svg	stimuli_distractor_trianglediamonds.svg	33	no	0	1	2000
6.6.1	mac	2022-12-19	13:13:06	13:24:29	681782	628b960bf8e22707d11f5b8e	842623392	1	main_slash	11	advance_on_keypress_SLASH	128	stimuli_distractor_trianglediamonds.svg	stimuli_distractor_trianglediamonds.svg	33	no	57	0	336
6.6.1	mac	2022-12-19	13:13:06	13:24:32	684749	628b960bf8e22707d11f5b8e	842623392	1	main_slash	11	main_slash	129	stimuli_distractor_diamondtriangles.svg	stimuli_distractor_diamondtriangles.svg	40	no	0	1	2000
6.6.1	mac	2022-12-19	13:13:06	13:24:32	684749	628b960bf8e22707d11f5b8e	842623392	1	main_slash	11	advance_on_keypress_SLASH	130	stimuli_distractor_diamondtriangles.svg	stimuli_distractor_diamondtriangles.svg	40	no	57	0	368
6.6.1	mac	2022-12-19	13:13:06	13:24:34	686280	628b960bf8e22707d11f5b8e	842623392	1	main_slash	11	main_slash	131	stimuli_target_diamondcircles.svg	stimuli_distractor_trianglediamonds.svg	19	yes	53	1	528
6.6.1	mac	2022-12-19	13:13:06	13:24:34	686280	628b960bf8e22707d11f5b8e	842623392	1	main_slash	11	advance_on_keypress_SLASH	132	stimuli_target_diamondcircles.svg	stimuli_distractor_trianglediamonds.svg	19	yes	57	0	417
6.6.1	mac	2022-12-19	13:13:06	13:24:35	687844	628b960bf8e22707d11f5b8e	842623392	1	main_slash	11	main_slash	133	stimuli_distractor_diamondtriangles.svg	stimuli_target_diamondsquares.svg	32	yes	53	1	508
6.6.1	mac	2022-12-19	13:13:06	13:24:35	687844	628b960bf8e22707d11f5b8e	842623392	1	main_slash	11	advance_on_keypress_SLASH	134	stimuli_distractor_diamondtriangles.svg	stimuli_target_diamondsquares.svg	32	yes	57	0	414
6.6.1	mac	2022-12-19	13:13:06	13:24:37	689556	628b960bf8e22707d11f5b8e	842623392	1	main_slash	11	main_slash	135	stimuli_target_trianglesquares.svg	stimuli_distractor_diamondtriangles.svg	22	yes	53	1	671
6.6.1	mac	2022-12-19	13:13:06	13:24:37	689556	628b960bf8e22707d11f5b8e	842623392	1	main_slash	11	advance_on_keypress_SLASH	136	stimuli_target_trianglesquares.svg	stimuli_distractor_diamondtriangles.svg	22	yes	57	0	395
6.6.1	mac	2022-12-19	13:13:06	13:24:40	692582	628b960bf8e22707d11f5b8e	842623392	1	main_slash	11	main_slash	137	stimuli_distractor_trianglediamonds.svg	stimuli_distractor_diamondtriangles.svg	36	no	0	1	2000
6.6.1	mac	2022-12-19	13:13:06	13:24:40	692582	628b960bf8e22707d11f5b8e	842623392	1	main_slash	11	advance_on_keypress_SLASH	138	stimuli_distractor_trianglediamonds.svg	stimuli_distractor_diamondtriangles.svg	36	no	57	0	595
6.6.1	mac	2022-12-19	13:13:06	13:24:42	694255	628b960bf8e22707d11f5b8e	842623392	1	main_slash	11	main_slash	139	stimuli_distractor_trianglediamonds.svg	stimuli_target_trianglesquares.svg	26	yes	53	1	436
6.6.1	mac	2022-12-19	13:13:06	13:24:42	694255	628b960bf8e22707d11f5b8e	842623392	1	main_slash	11	advance_on_keypress_SLASH	140	stimuli_distractor_trianglediamonds.svg	stimuli_target_trianglesquares.svg	26	yes	57	0	407
6.6.1	mac	2022-12-19	13:13:06	13:24:43	695884	628b960bf8e22707d11f5b8e	842623392	1	main_slash	11	main_slash	141	stimuli_target_circlediamonds.svg	stimuli_distractor_diamondtriangles.svg	6	yes	53	1	583
6.6.1	mac	2022-12-19	13:13:06	13:24:43	695884	628b960bf8e22707d11f5b8e	842623392	1	main_slash	11	advance_on_keypress_SLASH	142	stimuli_target_circlediamonds.svg	stimuli_distractor_diamondtriangles.svg	6	yes	57	0	466
6.6.1	mac	2022-12-19	13:13:06	13:24:45	697502	628b960bf8e22707d11f5b8e	842623392	1	main_slash	11	main_slash	143	stimuli_distractor_diamondtriangles.svg	stimuli_target_diamondcircles.svg	31	yes	53	1	518
6.6.1	mac	2022-12-19	13:13:06	13:24:45	697502	628b960bf8e22707d11f5b8e	842623392	1	main_slash	11	advance_on_keypress_SLASH	144	stimuli_distractor_diamondtriangles.svg	stimuli_target_diamondcircles.svg	31	yes	57	0	327
6.6.1	mac	2022-12-19	13:13:06	13:24:48	700466	628b960bf8e22707d11f5b8e	842623392	1	main_slash	11	main_slash	145	stimuli_distractor_diamondtriangles.svg	stimuli_distractor_diamondtriangles.svg	39	no	0	1	2000
6.6.1	mac	2022-12-19	13:13:06	13:24:48	700466	628b960bf8e22707d11f5b8e	842623392	1	main_slash	11	advance_on_keypress_SLASH	146	stimuli_distractor_diamondtriangles.svg	stimuli_distractor_diamondtriangles.svg	39	no	57	0	417
6.6.1	mac	2022-12-19	13:13:06	13:24:51	703516	628b960bf8e22707d11f5b8e	842623392	1	main_slash	11	main_slash	147	stimuli_distractor_trianglediamonds.svg	stimuli_distractor_trianglediamonds.svg	34	no	0	1	2000
6.6.1	mac	2022-12-19	13:13:06	13:24:51	703516	628b960bf8e22707d11f5b8e	842623392	1	main_slash	11	advance_on_keypress_SLASH	148	stimuli_distractor_trianglediamonds.svg	stimuli_distractor_trianglediamonds.svg	34	no	57	0	337
6.6.1	mac	2022-12-19	13:13:06	13:24:52	704933	628b960bf8e22707d11f5b8e	842623392	1	main_slash	11	main_slash	149	stimuli_target_trianglecircles.svg	stimuli_distractor_trianglediamonds.svg	17	yes	53	1	450
6.6.1	mac	2022-12-19	13:13:06	13:24:52	704933	628b960bf8e22707d11f5b8e	842623392	1	main_slash	11	advance_on_keypress_SLASH	150	stimuli_target_trianglecircles.svg	stimuli_distractor_trianglediamonds.svg	17	yes	57	0	412
6.6.1	mac	2022-12-19	13:13:06	13:24:55	707982	628b960bf8e22707d11f5b8e	842623392	1	main_slash	11	main_slash	151	stimuli_distractor_diamondtriangles.svg	stimuli_distractor_trianglediamonds.svg	38	no	0	1	2000
6.6.1	mac	2022-12-19	13:13:06	13:24:55	707982	628b960bf8e22707d11f5b8e	842623392	1	main_slash	11	advance_on_keypress_SLASH	152	stimuli_distractor_diamondtriangles.svg	stimuli_distractor_trianglediamonds.svg	38	no	57	0	398
6.6.1	mac	2022-12-19	13:13:06	13:24:57	709589	628b960bf8e22707d11f5b8e	842623392	1	main_slash	11	main_slash	153	stimuli_distractor_diamondtriangles.svg	stimuli_target_circletriangles.svg	13	yes	53	1	569
6.6.1	mac	2022-12-19	13:13:06	13:24:57	709589	628b960bf8e22707d11f5b8e	842623392	1	main_slash	11	advance_on_keypress_SLASH	154	stimuli_distractor_diamondtriangles.svg	stimuli_target_circletriangles.svg	13	yes	57	0	407
6.6.1	mac	2022-12-19	13:13:06	13:25:00	712632	628b960bf8e22707d11f5b8e	842623392	1	main_slash	11	main_slash	155	stimuli_distractor_trianglediamonds.svg	stimuli_distractor_diamondtriangles.svg	35	no	0	1	2000
6.6.1	mac	2022-12-19	13:13:06	13:25:00	712632	628b960bf8e22707d11f5b8e	842623392	1	main_slash	11	advance_on_keypress_SLASH	156	stimuli_distractor_trianglediamonds.svg	stimuli_distractor_diamondtriangles.svg	35	no	57	0	379
6.6.1	mac	2022-12-19	13:13:06	13:25:01	714134	628b960bf8e22707d11f5b8e	842623392	1	main_slash	11	main_slash	157	stimuli_distractor_trianglediamonds.svg	stimuli_target_trianglecircles.svg	25	yes	53	1	483
6.6.1	mac	2022-12-19	13:13:06	13:25:01	714134	628b960bf8e22707d11f5b8e	842623392	1	main_slash	11	advance_on_keypress_SLASH	158	stimuli_distractor_trianglediamonds.svg	stimuli_target_trianglecircles.svg	25	yes	57	0	372
6.6.1	mac	2022-12-19	13:13:06	13:25:03	715983	628b960bf8e22707d11f5b8e	842623392	1	main_slash	11	main_slash	159	stimuli_distractor_trianglediamonds.svg	stimuli_target_squaretriangles.svg	11	yes	53	1	848
6.6.1	mac	2022-12-19	13:13:06	13:25:03	715983	628b960bf8e22707d11f5b8e	842623392	1	main_slash	11	advance_on_keypress_SLASH	160	stimuli_distractor_trianglediamonds.svg	stimuli_target_squaretriangles.svg	11	yes	57	0	306