build	computer.platform	date	time	timestamp	time_elapsed_ms	subject	group	session	blockcode	blocknum	trialcode	trialnum	stimulus_left	stimulus_right	stim_index	target_present	response	correct	latency
6.6.1	win	2022-12-15	16:47:15	17:08:00	1240696	5dbf704fa3f5cb40876271fc	866593156	1	practice_z	5	practice_z	1	stimuli_target_circlediamonds.svg	stimuli_distractor_diamondtriangles.svg	1	yes	44	1	434
6.6.1	win	2022-12-15	16:47:15	17:08:00	1240696	5dbf704fa3f5cb40876271fc	866593156	1	practice_z	5	advance_on_keypress_ZEE	2	stimuli_target_circlediamonds.svg	stimuli_distractor_diamondtriangles.svg	1	yes	57	0	1402
6.6.1	win	2022-12-15	16:47:15	17:08:04	1244747	5dbf704fa3f5cb40876271fc	866593156	1	practice_z	5	practice_z	3	stimuli_target_diamondsquares.svg	stimuli_distractor_trianglediamonds.svg	6	yes	44	1	952
6.6.1	win	2022-12-15	16:47:15	17:08:04	1244747	5dbf704fa3f5cb40876271fc	866593156	1	practice_z	5	advance_on_keypress_ZEE	4	stimuli_target_diamondsquares.svg	stimuli_distractor_trianglediamonds.svg	6	yes	57	0	679
6.6.1	win	2022-12-15	16:47:15	17:08:07	1247741	5dbf704fa3f5cb40876271fc	866593156	1	practice_z	5	practice_z	5	stimuli_distractor_trianglediamonds.svg	stimuli_target_diamondcircles.svg	12	yes	44	1	662
6.6.1	win	2022-12-15	16:47:15	17:08:07	1247741	5dbf704fa3f5cb40876271fc	866593156	1	practice_z	5	advance_on_keypress_ZEE	6	stimuli_distractor_trianglediamonds.svg	stimuli_target_diamondcircles.svg	12	yes	57	0	219
6.6.1	win	2022-12-15	16:47:15	17:08:09	1250280	5dbf704fa3f5cb40876271fc	866593156	1	practice_z	5	practice_z	7	stimuli_target_squarediamonds.svg	stimuli_distractor_diamondtriangles.svg	2	yes	44	1	652
6.6.1	win	2022-12-15	16:47:15	17:08:09	1250280	5dbf704fa3f5cb40876271fc	866593156	1	practice_z	5	advance_on_keypress_ZEE	8	stimuli_target_squarediamonds.svg	stimuli_distractor_diamondtriangles.svg	2	yes	57	0	424
6.6.1	win	2022-12-15	16:47:15	17:08:12	1252950	5dbf704fa3f5cb40876271fc	866593156	1	practice_z	5	practice_z	9	stimuli_distractor_diamondtriangles.svg	stimuli_target_circletriangles.svg	7	yes	44	1	588
6.6.1	win	2022-12-15	16:47:15	17:08:12	1252950	5dbf704fa3f5cb40876271fc	866593156	1	practice_z	5	advance_on_keypress_ZEE	10	stimuli_distractor_diamondtriangles.svg	stimuli_target_circletriangles.svg	7	yes	57	0	317
6.6.1	win	2022-12-15	16:47:15	17:08:15	1255649	5dbf704fa3f5cb40876271fc	866593156	1	practice_z	5	practice_z	11	stimuli_target_squarediamonds.svg	stimuli_distractor_trianglediamonds.svg	5	yes	44	1	736
6.6.1	win	2022-12-15	16:47:15	17:08:15	1255649	5dbf704fa3f5cb40876271fc	866593156	1	practice_z	5	advance_on_keypress_ZEE	12	stimuli_target_squarediamonds.svg	stimuli_distractor_trianglediamonds.svg	5	yes	57	0	274
6.6.1	win	2022-12-15	16:47:15	17:08:19	1259561	5dbf704fa3f5cb40876271fc	866593156	1	practice_z	5	practice_z	13	stimuli_distractor_trianglediamonds.svg	stimuli_distractor_trianglediamonds.svg	15	no	0	1	2000
6.6.1	win	2022-12-15	16:47:15	17:08:19	1259561	5dbf704fa3f5cb40876271fc	866593156	1	practice_z	5	advance_on_keypress_ZEE	14	stimuli_distractor_trianglediamonds.svg	stimuli_distractor_trianglediamonds.svg	15	no	57	0	259
6.6.1	win	2022-12-15	16:47:15	17:08:22	1263464	5dbf704fa3f5cb40876271fc	866593156	1	practice_z	5	practice_z	15	stimuli_distractor_trianglediamonds.svg	stimuli_distractor_diamondtriangles.svg	16	no	0	1	2000
6.6.1	win	2022-12-15	16:47:15	17:08:22	1263464	5dbf704fa3f5cb40876271fc	866593156	1	practice_z	5	advance_on_keypress_ZEE	16	stimuli_distractor_trianglediamonds.svg	stimuli_distractor_diamondtriangles.svg	16	no	57	0	312
6.6.1	win	2022-12-15	16:47:15	17:08:26	1267429	5dbf704fa3f5cb40876271fc	866593156	1	practice_z	5	practice_z	17	stimuli_distractor_diamondtriangles.svg	stimuli_distractor_trianglediamonds.svg	14	no	0	1	2000
6.6.1	win	2022-12-15	16:47:15	17:08:26	1267429	5dbf704fa3f5cb40876271fc	866593156	1	practice_z	5	advance_on_keypress_ZEE	18	stimuli_distractor_diamondtriangles.svg	stimuli_distractor_trianglediamonds.svg	14	no	57	0	392
6.6.1	win	2022-12-15	16:47:15	17:08:29	1270236	5dbf704fa3f5cb40876271fc	866593156	1	practice_z	5	practice_z	19	stimuli_target_diamondsquares.svg	stimuli_distractor_diamondtriangles.svg	3	yes	44	1	757
6.6.1	win	2022-12-15	16:47:15	17:08:29	1270236	5dbf704fa3f5cb40876271fc	866593156	1	practice_z	5	advance_on_keypress_ZEE	20	stimuli_target_diamondsquares.svg	stimuli_distractor_diamondtriangles.svg	3	yes	57	0	262
6.6.1	win	2022-12-15	16:47:15	17:08:32	1272920	5dbf704fa3f5cb40876271fc	866593156	1	practice_z	5	practice_z	21	stimuli_distractor_trianglediamonds.svg	stimuli_target_circlediamonds.svg	10	yes	44	1	759
6.6.1	win	2022-12-15	16:47:15	17:08:32	1272920	5dbf704fa3f5cb40876271fc	866593156	1	practice_z	5	advance_on_keypress_ZEE	22	stimuli_distractor_trianglediamonds.svg	stimuli_target_circlediamonds.svg	10	yes	57	0	306
6.6.1	win	2022-12-15	16:47:15	17:08:35	1275576	5dbf704fa3f5cb40876271fc	866593156	1	practice_z	5	practice_z	23	stimuli_distractor_diamondtriangles.svg	stimuli_target_diamondcircles.svg	8	yes	44	1	698
6.6.1	win	2022-12-15	16:47:15	17:08:35	1275576	5dbf704fa3f5cb40876271fc	866593156	1	practice_z	5	advance_on_keypress_ZEE	24	stimuli_distractor_diamondtriangles.svg	stimuli_target_diamondcircles.svg	8	yes	57	0	338
6.6.1	win	2022-12-15	16:47:15	17:08:37	1278214	5dbf704fa3f5cb40876271fc	866593156	1	practice_z	5	practice_z	25	stimuli_distractor_trianglediamonds.svg	stimuli_target_squarediamonds.svg	11	yes	44	1	649
6.6.1	win	2022-12-15	16:47:15	17:08:37	1278214	5dbf704fa3f5cb40876271fc	866593156	1	practice_z	5	advance_on_keypress_ZEE	26	stimuli_distractor_trianglediamonds.svg	stimuli_target_squarediamonds.svg	11	yes	57	0	375
6.6.1	win	2022-12-15	16:47:15	17:08:41	1282244	5dbf704fa3f5cb40876271fc	866593156	1	practice_z	5	practice_z	27	stimuli_distractor_diamondtriangles.svg	stimuli_distractor_diamondtriangles.svg	13	no	0	1	2000
6.6.1	win	2022-12-15	16:47:15	17:08:41	1282244	5dbf704fa3f5cb40876271fc	866593156	1	practice_z	5	advance_on_keypress_ZEE	28	stimuli_distractor_diamondtriangles.svg	stimuli_distractor_diamondtriangles.svg	13	no	57	0	1007
6.6.1	win	2022-12-15	16:47:15	17:08:45	1285579	5dbf704fa3f5cb40876271fc	866593156	1	practice_z	5	practice_z	29	stimuli_distractor_diamondtriangles.svg	stimuli_target_trianglecircles.svg	9	yes	44	1	668
6.6.1	win	2022-12-15	16:47:15	17:08:45	1285579	5dbf704fa3f5cb40876271fc	866593156	1	practice_z	5	advance_on_keypress_ZEE	30	stimuli_distractor_diamondtriangles.svg	stimuli_target_trianglecircles.svg	9	yes	57	0	341
6.6.1	win	2022-12-15	16:47:15	17:08:47	1288197	5dbf704fa3f5cb40876271fc	866593156	1	practice_z	5	practice_z	31	stimuli_target_circlediamonds.svg	stimuli_distractor_trianglediamonds.svg	4	yes	44	1	635
6.6.1	win	2022-12-15	16:47:15	17:08:47	1288197	5dbf704fa3f5cb40876271fc	866593156	1	practice_z	5	advance_on_keypress_ZEE	32	stimuli_target_circlediamonds.svg	stimuli_distractor_trianglediamonds.svg	4	yes	57	0	326
6.6.1	win	2022-12-15	16:47:15	17:08:55	1295719	5dbf704fa3f5cb40876271fc	866593156	1	main_z	7	main_z	1	stimuli_distractor_diamondtriangles.svg	stimuli_target_trianglesquares.svg	30	yes	44	1	500
6.6.1	win	2022-12-15	16:47:15	17:08:55	1295719	5dbf704fa3f5cb40876271fc	866593156	1	main_z	7	advance_on_keypress_ZEE	2	stimuli_distractor_diamondtriangles.svg	stimuli_target_trianglesquares.svg	30	yes	57	0	726
6.6.1	win	2022-12-15	16:47:15	17:08:58	1299092	5dbf704fa3f5cb40876271fc	866593156	1	main_z	7	main_z	3	stimuli_distractor_diamondtriangles.svg	stimuli_distractor_diamondtriangles.svg	40	no	0	1	2000
6.6.1	win	2022-12-15	16:47:15	17:08:58	1299092	5dbf704fa3f5cb40876271fc	866593156	1	main_z	7	advance_on_keypress_ZEE	4	stimuli_distractor_diamondtriangles.svg	stimuli_distractor_diamondtriangles.svg	40	no	57	0	291
6.6.1	win	2022-12-15	16:47:15	17:09:00	1300709	5dbf704fa3f5cb40876271fc	866593156	1	main_z	7	main_z	5	stimuli_target_circlediamonds.svg	stimuli_distractor_trianglediamonds.svg	2	yes	44	1	684
6.6.1	win	2022-12-15	16:47:15	17:09:00	1300709	5dbf704fa3f5cb40876271fc	866593156	1	main_z	7	advance_on_keypress_ZEE	6	stimuli_target_circlediamonds.svg	stimuli_distractor_trianglediamonds.svg	2	yes	57	0	481
6.6.1	win	2022-12-15	16:47:15	17:09:01	1302455	5dbf704fa3f5cb40876271fc	866593156	1	main_z	7	main_z	7	stimuli_distractor_trianglediamonds.svg	stimuli_target_circletriangles.svg	9	yes	44	1	613
6.6.1	win	2022-12-15	16:47:15	17:09:01	1302455	5dbf704fa3f5cb40876271fc	866593156	1	main_z	7	advance_on_keypress_ZEE	8	stimuli_distractor_trianglediamonds.svg	stimuli_target_circletriangles.svg	9	yes	57	0	299
6.6.1	win	2022-12-15	16:47:15	17:09:04	1305408	5dbf704fa3f5cb40876271fc	866593156	1	main_z	7	main_z	9	stimuli_distractor_trianglediamonds.svg	stimuli_distractor_trianglediamonds.svg	34	no	0	1	2000
6.6.1	win	2022-12-15	16:47:15	17:09:04	1305408	5dbf704fa3f5cb40876271fc	866593156	1	main_z	7	advance_on_keypress_ZEE	10	stimuli_distractor_trianglediamonds.svg	stimuli_distractor_trianglediamonds.svg	34	no	57	0	266
6.6.1	win	2022-12-15	16:47:15	17:09:06	1306915	5dbf704fa3f5cb40876271fc	866593156	1	main_z	7	main_z	11	stimuli_target_circletriangles.svg	stimuli_distractor_trianglediamonds.svg	1	yes	44	1	590
6.6.1	win	2022-12-15	16:47:15	17:09:06	1306915	5dbf704fa3f5cb40876271fc	866593156	1	main_z	7	advance_on_keypress_ZEE	12	stimuli_target_circletriangles.svg	stimuli_distractor_trianglediamonds.svg	1	yes	57	0	402
6.6.1	win	2022-12-15	16:47:15	17:09:09	1309959	5dbf704fa3f5cb40876271fc	866593156	1	main_z	7	main_z	13	stimuli_distractor_diamondtriangles.svg	stimuli_distractor_diamondtriangles.svg	39	no	0	1	2000
6.6.1	win	2022-12-15	16:47:15	17:09:09	1309959	5dbf704fa3f5cb40876271fc	866593156	1	main_z	7	advance_on_keypress_ZEE	14	stimuli_distractor_diamondtriangles.svg	stimuli_distractor_diamondtriangles.svg	39	no	57	0	279
6.6.1	win	2022-12-15	16:47:15	17:09:10	1311540	5dbf704fa3f5cb40876271fc	866593156	1	main_z	7	main_z	15	stimuli_distractor_diamondtriangles.svg	stimuli_target_squarediamonds.svg	16	yes	44	1	649
6.6.1	win	2022-12-15	16:47:15	17:09:10	1311540	5dbf704fa3f5cb40876271fc	866593156	1	main_z	7	advance_on_keypress_ZEE	16	stimuli_distractor_diamondtriangles.svg	stimuli_target_squarediamonds.svg	16	yes	57	0	281
6.6.1	win	2022-12-15	16:47:15	17:09:12	1313121	5dbf704fa3f5cb40876271fc	866593156	1	main_z	7	main_z	17	stimuli_distractor_diamondtriangles.svg	stimuli_target_circletriangles.svg	13	yes	44	1	647
6.6.1	win	2022-12-15	16:47:15	17:09:12	1313121	5dbf704fa3f5cb40876271fc	866593156	1	main_z	7	advance_on_keypress_ZEE	18	stimuli_distractor_diamondtriangles.svg	stimuli_target_circletriangles.svg	13	yes	57	0	289
6.6.1	win	2022-12-15	16:47:15	17:09:14	1314726	5dbf704fa3f5cb40876271fc	866593156	1	main_z	7	main_z	19	stimuli_target_squaretriangles.svg	stimuli_distractor_trianglediamonds.svg	3	yes	44	1	652
6.6.1	win	2022-12-15	16:47:15	17:09:14	1314726	5dbf704fa3f5cb40876271fc	866593156	1	main_z	7	advance_on_keypress_ZEE	20	stimuli_target_squaretriangles.svg	stimuli_distractor_trianglediamonds.svg	3	yes	57	0	290
6.6.1	win	2022-12-15	16:47:15	17:09:15	1316333	5dbf704fa3f5cb40876271fc	866593156	1	main_z	7	main_z	21	stimuli_target_squarediamonds.svg	stimuli_distractor_trianglediamonds.svg	4	yes	44	1	674
6.6.1	win	2022-12-15	16:47:15	17:09:15	1316333	5dbf704fa3f5cb40876271fc	866593156	1	main_z	7	advance_on_keypress_ZEE	22	stimuli_target_squarediamonds.svg	stimuli_distractor_trianglediamonds.svg	4	yes	57	0	276
6.6.1	win	2022-12-15	16:47:15	17:09:17	1318042	5dbf704fa3f5cb40876271fc	866593156	1	main_z	7	main_z	23	stimuli_distractor_trianglediamonds.svg	stimuli_target_diamondsquares.svg	28	yes	44	1	800
6.6.1	win	2022-12-15	16:47:15	17:09:17	1318042	5dbf704fa3f5cb40876271fc	866593156	1	main_z	7	advance_on_keypress_ZEE	24	stimuli_distractor_trianglediamonds.svg	stimuli_target_diamondsquares.svg	28	yes	57	0	316
6.6.1	win	2022-12-15	16:47:15	17:09:19	1319749	5dbf704fa3f5cb40876271fc	866593156	1	main_z	7	main_z	25	stimuli_target_diamondcircles.svg	stimuli_distractor_diamondtriangles.svg	23	yes	44	1	741
6.6.1	win	2022-12-15	16:47:15	17:09:19	1319749	5dbf704fa3f5cb40876271fc	866593156	1	main_z	7	advance_on_keypress_ZEE	26	stimuli_target_diamondcircles.svg	stimuli_distractor_diamondtriangles.svg	23	yes	57	0	329
6.6.1	win	2022-12-15	16:47:15	17:09:20	1321436	5dbf704fa3f5cb40876271fc	866593156	1	main_z	7	main_z	27	stimuli_distractor_diamondtriangles.svg	stimuli_target_diamondsquares.svg	32	yes	44	1	712
6.6.1	win	2022-12-15	16:47:15	17:09:20	1321436	5dbf704fa3f5cb40876271fc	866593156	1	main_z	7	advance_on_keypress_ZEE	28	stimuli_distractor_diamondtriangles.svg	stimuli_target_diamondsquares.svg	32	yes	57	0	263
6.6.1	win	2022-12-15	16:47:15	17:09:22	1323077	5dbf704fa3f5cb40876271fc	866593156	1	main_z	7	main_z	29	stimuli_distractor_trianglediamonds.svg	stimuli_target_circlediamonds.svg	10	yes	44	1	719
6.6.1	win	2022-12-15	16:47:15	17:09:22	1323077	5dbf704fa3f5cb40876271fc	866593156	1	main_z	7	advance_on_keypress_ZEE	30	stimuli_distractor_trianglediamonds.svg	stimuli_target_circlediamonds.svg	10	yes	57	0	359
6.6.1	win	2022-12-15	16:47:15	17:09:24	1324883	5dbf704fa3f5cb40876271fc	866593156	1	main_z	7	main_z	31	stimuli_distractor_trianglediamonds.svg	stimuli_target_squaretriangles.svg	11	yes	44	1	809
6.6.1	win	2022-12-15	16:47:15	17:09:24	1324883	5dbf704fa3f5cb40876271fc	866593156	1	main_z	7	advance_on_keypress_ZEE	32	stimuli_distractor_trianglediamonds.svg	stimuli_target_squaretriangles.svg	11	yes	57	0	460
6.6.1	win	2022-12-15	16:47:15	17:09:27	1327991	5dbf704fa3f5cb40876271fc	866593156	1	main_z	7	main_z	33	stimuli_distractor_diamondtriangles.svg	stimuli_distractor_trianglediamonds.svg	38	no	0	1	2000
6.6.1	win	2022-12-15	16:47:15	17:09:27	1327991	5dbf704fa3f5cb40876271fc	866593156	1	main_z	7	advance_on_keypress_ZEE	34	stimuli_distractor_diamondtriangles.svg	stimuli_distractor_trianglediamonds.svg	38	no	57	0	339
6.6.1	win	2022-12-15	16:47:15	17:09:29	1329839	5dbf704fa3f5cb40876271fc	866593156	1	main_z	7	main_z	35	stimuli_distractor_trianglediamonds.svg	stimuli_target_squarediamonds.svg	12	yes	44	1	865
6.6.1	win	2022-12-15	16:47:15	17:09:29	1329839	5dbf704fa3f5cb40876271fc	866593156	1	main_z	7	advance_on_keypress_ZEE	36	stimuli_distractor_trianglediamonds.svg	stimuli_target_squarediamonds.svg	12	yes	57	0	555
6.6.1	win	2022-12-15	16:47:15	17:09:31	1331840	5dbf704fa3f5cb40876271fc	866593156	1	main_z	7	main_z	37	stimuli_distractor_trianglediamonds.svg	stimuli_target_trianglesquares.svg	26	yes	44	1	799
6.6.1	win	2022-12-15	16:47:15	17:09:31	1331840	5dbf704fa3f5cb40876271fc	866593156	1	main_z	7	advance_on_keypress_ZEE	38	stimuli_distractor_trianglediamonds.svg	stimuli_target_trianglesquares.svg	26	yes	57	0	485
6.6.1	win	2022-12-15	16:47:15	17:09:33	1334043	5dbf704fa3f5cb40876271fc	866593156	1	main_z	7	main_z	39	stimuli_distractor_diamondtriangles.svg	stimuli_target_diamondcircles.svg	31	yes	44	1	1069
6.6.1	win	2022-12-15	16:47:15	17:09:33	1334043	5dbf704fa3f5cb40876271fc	866593156	1	main_z	7	advance_on_keypress_ZEE	40	stimuli_distractor_diamondtriangles.svg	stimuli_target_diamondcircles.svg	31	yes	57	0	500
6.6.1	win	2022-12-15	16:47:15	17:09:36	1337193	5dbf704fa3f5cb40876271fc	866593156	1	main_z	7	main_z	41	stimuli_distractor_diamondtriangles.svg	stimuli_distractor_trianglediamonds.svg	37	no	0	1	2000
6.6.1	win	2022-12-15	16:47:15	17:09:36	1337193	5dbf704fa3f5cb40876271fc	866593156	1	main_z	7	advance_on_keypress_ZEE	42	stimuli_distractor_diamondtriangles.svg	stimuli_distractor_trianglediamonds.svg	37	no	57	0	284
6.6.1	win	2022-12-15	16:47:15	17:09:38	1338856	5dbf704fa3f5cb40876271fc	866593156	1	main_z	7	main_z	43	stimuli_target_diamondsquares.svg	stimuli_distractor_diamondtriangles.svg	24	yes	44	1	730
6.6.1	win	2022-12-15	16:47:15	17:09:38	1338856	5dbf704fa3f5cb40876271fc	866593156	1	main_z	7	advance_on_keypress_ZEE	44	stimuli_target_diamondsquares.svg	stimuli_distractor_diamondtriangles.svg	24	yes	57	0	520
6.6.1	win	2022-12-15	16:47:15	17:09:40	1340649	5dbf704fa3f5cb40876271fc	866593156	1	main_z	7	main_z	45	stimuli_target_circlediamonds.svg	stimuli_distractor_diamondtriangles.svg	6	yes	44	1	625
6.6.1	win	2022-12-15	16:47:15	17:09:40	1340649	5dbf704fa3f5cb40876271fc	866593156	1	main_z	7	advance_on_keypress_ZEE	46	stimuli_target_circlediamonds.svg	stimuli_distractor_diamondtriangles.svg	6	yes	57	0	351
6.6.1	win	2022-12-15	16:47:15	17:09:41	1342331	5dbf704fa3f5cb40876271fc	866593156	1	main_z	7	main_z	47	stimuli_target_diamondcircles.svg	stimuli_distractor_trianglediamonds.svg	19	yes	44	1	689
6.6.1	win	2022-12-15	16:47:15	17:09:41	1342331	5dbf704fa3f5cb40876271fc	866593156	1	main_z	7	advance_on_keypress_ZEE	48	stimuli_target_diamondcircles.svg	stimuli_distractor_trianglediamonds.svg	19	yes	57	0	322
6.6.1	win	2022-12-15	16:47:15	17:09:43	1343975	5dbf704fa3f5cb40876271fc	866593156	1	main_z	7	main_z	49	stimuli_target_trianglecircles.svg	stimuli_distractor_diamondtriangles.svg	21	yes	44	1	683
6.6.1	win	2022-12-15	16:47:15	17:09:43	1343975	5dbf704fa3f5cb40876271fc	866593156	1	main_z	7	advance_on_keypress_ZEE	50	stimuli_target_trianglecircles.svg	stimuli_distractor_diamondtriangles.svg	21	yes	57	0	297
6.6.1	win	2022-12-15	16:47:15	17:09:44	1345517	5dbf704fa3f5cb40876271fc	866593156	1	main_z	7	main_z	51	stimuli_distractor_trianglediamonds.svg	stimuli_target_trianglecircles.svg	25	yes	44	1	593
6.6.1	win	2022-12-15	16:47:15	17:09:44	1345517	5dbf704fa3f5cb40876271fc	866593156	1	main_z	7	advance_on_keypress_ZEE	52	stimuli_distractor_trianglediamonds.svg	stimuli_target_trianglecircles.svg	25	yes	57	0	308
6.6.1	win	2022-12-15	16:47:15	17:09:46	1347018	5dbf704fa3f5cb40876271fc	866593156	1	main_z	7	main_z	53	stimuli_target_trianglesquares.svg	stimuli_distractor_diamondtriangles.svg	22	yes	44	1	559
6.6.1	win	2022-12-15	16:47:15	17:09:46	1347018	5dbf704fa3f5cb40876271fc	866593156	1	main_z	7	advance_on_keypress_ZEE	54	stimuli_target_trianglesquares.svg	stimuli_distractor_diamondtriangles.svg	22	yes	57	0	278
6.6.1	win	2022-12-15	16:47:15	17:09:47	1348453	5dbf704fa3f5cb40876271fc	866593156	1	main_z	7	main_z	55	stimuli_target_circletriangles.svg	stimuli_distractor_diamondtriangles.svg	5	yes	44	1	505
6.6.1	win	2022-12-15	16:47:15	17:09:47	1348453	5dbf704fa3f5cb40876271fc	866593156	1	main_z	7	advance_on_keypress_ZEE	56	stimuli_target_circletriangles.svg	stimuli_distractor_diamondtriangles.svg	5	yes	57	0	335
6.6.1	win	2022-12-15	16:47:15	17:09:49	1349959	5dbf704fa3f5cb40876271fc	866593156	1	main_z	7	main_z	57	stimuli_distractor_diamondtriangles.svg	stimuli_target_trianglecircles.svg	29	yes	44	1	517
6.6.1	win	2022-12-15	16:47:15	17:09:49	1349959	5dbf704fa3f5cb40876271fc	866593156	1	main_z	7	advance_on_keypress_ZEE	58	stimuli_distractor_diamondtriangles.svg	stimuli_target_trianglecircles.svg	29	yes	57	0	279
6.6.1	win	2022-12-15	16:47:15	17:09:50	1351416	5dbf704fa3f5cb40876271fc	866593156	1	main_z	7	main_z	59	stimuli_target_squarediamonds.svg	stimuli_distractor_diamondtriangles.svg	8	yes	44	1	524
6.6.1	win	2022-12-15	16:47:15	17:09:50	1351416	5dbf704fa3f5cb40876271fc	866593156	1	main_z	7	advance_on_keypress_ZEE	60	stimuli_target_squarediamonds.svg	stimuli_distractor_diamondtriangles.svg	8	yes	57	0	271
6.6.1	win	2022-12-15	16:47:15	17:09:53	1354325	5dbf704fa3f5cb40876271fc	866593156	1	main_z	7	main_z	61	stimuli_distractor_trianglediamonds.svg	stimuli_distractor_diamondtriangles.svg	35	no	0	1	2000
6.6.1	win	2022-12-15	16:47:15	17:09:53	1354325	5dbf704fa3f5cb40876271fc	866593156	1	main_z	7	advance_on_keypress_ZEE	62	stimuli_distractor_trianglediamonds.svg	stimuli_distractor_diamondtriangles.svg	35	no	57	0	264
6.6.1	win	2022-12-15	16:47:15	17:09:55	1355799	5dbf704fa3f5cb40876271fc	866593156	1	main_z	7	main_z	63	stimuli_distractor_diamondtriangles.svg	stimuli_target_circlediamonds.svg	14	yes	44	1	557
6.6.1	win	2022-12-15	16:47:15	17:09:55	1355799	5dbf704fa3f5cb40876271fc	866593156	1	main_z	7	advance_on_keypress_ZEE	64	stimuli_distractor_diamondtriangles.svg	stimuli_target_circlediamonds.svg	14	yes	57	0	304
6.6.1	win	2022-12-15	16:47:15	17:09:57	1358033	5dbf704fa3f5cb40876271fc	866593156	1	main_z	7	main_z	65	stimuli_target_trianglesquares.svg	stimuli_distractor_trianglediamonds.svg	18	yes	44	1	1291
6.6.1	win	2022-12-15	16:47:15	17:09:57	1358033	5dbf704fa3f5cb40876271fc	866593156	1	main_z	7	advance_on_keypress_ZEE	66	stimuli_target_trianglesquares.svg	stimuli_distractor_trianglediamonds.svg	18	yes	57	0	624
6.6.1	win	2022-12-15	16:47:15	17:09:59	1359947	5dbf704fa3f5cb40876271fc	866593156	1	main_z	7	main_z	67	stimuli_distractor_diamondtriangles.svg	stimuli_target_squaretriangles.svg	15	yes	44	1	656
6.6.1	win	2022-12-15	16:47:15	17:09:59	1359947	5dbf704fa3f5cb40876271fc	866593156	1	main_z	7	advance_on_keypress_ZEE	68	stimuli_distractor_diamondtriangles.svg	stimuli_target_squaretriangles.svg	15	yes	57	0	244
6.6.1	win	2022-12-15	16:47:15	17:10:02	1362843	5dbf704fa3f5cb40876271fc	866593156	1	main_z	7	main_z	69	stimuli_distractor_trianglediamonds.svg	stimuli_distractor_trianglediamonds.svg	33	no	0	1	2000
6.6.1	win	2022-12-15	16:47:15	17:10:02	1362843	5dbf704fa3f5cb40876271fc	866593156	1	main_z	7	advance_on_keypress_ZEE	70	stimuli_distractor_trianglediamonds.svg	stimuli_distractor_trianglediamonds.svg	33	no	57	0	258
6.6.1	win	2022-12-15	16:47:15	17:10:03	1364314	5dbf704fa3f5cb40876271fc	866593156	1	main_z	7	main_z	71	stimuli_target_diamondsquares.svg	stimuli_distractor_trianglediamonds.svg	20	yes	44	1	572
6.6.1	win	2022-12-15	16:47:15	17:10:03	1364314	5dbf704fa3f5cb40876271fc	866593156	1	main_z	7	advance_on_keypress_ZEE	72	stimuli_target_diamondsquares.svg	stimuli_distractor_trianglediamonds.svg	20	yes	57	0	278
6.6.1	win	2022-12-15	16:47:15	17:10:05	1365663	5dbf704fa3f5cb40876271fc	866593156	1	main_z	7	main_z	73	stimuli_target_trianglecircles.svg	stimuli_distractor_trianglediamonds.svg	17	yes	44	1	422
6.6.1	win	2022-12-15	16:47:15	17:10:05	1365663	5dbf704fa3f5cb40876271fc	866593156	1	main_z	7	advance_on_keypress_ZEE	74	stimuli_target_trianglecircles.svg	stimuli_distractor_trianglediamonds.svg	17	yes	57	0	363
6.6.1	win	2022-12-15	16:47:15	17:10:08	1368675	5dbf704fa3f5cb40876271fc	866593156	1	main_z	7	main_z	75	stimuli_distractor_trianglediamonds.svg	stimuli_distractor_diamondtriangles.svg	36	no	0	1	2000
6.6.1	win	2022-12-15	16:47:15	17:10:08	1368675	5dbf704fa3f5cb40876271fc	866593156	1	main_z	7	advance_on_keypress_ZEE	76	stimuli_distractor_trianglediamonds.svg	stimuli_distractor_diamondtriangles.svg	36	no	57	0	255
6.6.1	win	2022-12-15	16:47:15	17:10:09	1370114	5dbf704fa3f5cb40876271fc	866593156	1	main_z	7	main_z	77	stimuli_target_squaretriangles.svg	stimuli_distractor_diamondtriangles.svg	7	yes	44	1	540
6.6.1	win	2022-12-15	16:47:15	17:10:09	1370114	5dbf704fa3f5cb40876271fc	866593156	1	main_z	7	advance_on_keypress_ZEE	78	stimuli_target_squaretriangles.svg	stimuli_distractor_diamondtriangles.svg	7	yes	57	0	249
6.6.1	win	2022-12-15	16:47:15	17:10:11	1371569	5dbf704fa3f5cb40876271fc	866593156	1	main_z	7	main_z	79	stimuli_distractor_trianglediamonds.svg	stimuli_target_diamondcircles.svg	27	yes	44	1	560
6.6.1	win	2022-12-15	16:47:15	17:10:11	1371569	5dbf704fa3f5cb40876271fc	866593156	1	main_z	7	advance_on_keypress_ZEE	80	stimuli_distractor_trianglediamonds.svg	stimuli_target_diamondcircles.svg	27	yes	57	0	175
6.6.1	win	2022-12-15	16:47:15	17:10:12	1373132	5dbf704fa3f5cb40876271fc	866593156	1	main_z	7	main_z	81	stimuli_target_trianglesquares.svg	stimuli_distractor_trianglediamonds.svg	18	yes	44	1	741
6.6.1	win	2022-12-15	16:47:15	17:10:12	1373132	5dbf704fa3f5cb40876271fc	866593156	1	main_z	7	advance_on_keypress_ZEE	82	stimuli_target_trianglesquares.svg	stimuli_distractor_trianglediamonds.svg	18	yes	57	0	289
6.6.1	win	2022-12-15	16:47:15	17:10:14	1374558	5dbf704fa3f5cb40876271fc	866593156	1	main_z	7	main_z	83	stimuli_target_circlediamonds.svg	stimuli_distractor_diamondtriangles.svg	6	yes	44	1	499
6.6.1	win	2022-12-15	16:47:15	17:10:14	1374558	5dbf704fa3f5cb40876271fc	866593156	1	main_z	7	advance_on_keypress_ZEE	84	stimuli_target_circlediamonds.svg	stimuli_distractor_diamondtriangles.svg	6	yes	57	0	249
6.6.1	win	2022-12-15	16:47:15	17:10:16	1377459	5dbf704fa3f5cb40876271fc	866593156	1	main_z	7	main_z	85	stimuli_distractor_diamondtriangles.svg	stimuli_distractor_trianglediamonds.svg	37	no	0	1	2000
6.6.1	win	2022-12-15	16:47:15	17:10:16	1377459	5dbf704fa3f5cb40876271fc	866593156	1	main_z	7	advance_on_keypress_ZEE	86	stimuli_distractor_diamondtriangles.svg	stimuli_distractor_trianglediamonds.svg	37	no	57	0	267
6.6.1	win	2022-12-15	16:47:15	17:10:18	1378918	5dbf704fa3f5cb40876271fc	866593156	1	main_z	7	main_z	87	stimuli_target_squaretriangles.svg	stimuli_distractor_diamondtriangles.svg	7	yes	44	1	543
6.6.1	win	2022-12-15	16:47:15	17:10:18	1378918	5dbf704fa3f5cb40876271fc	866593156	1	main_z	7	advance_on_keypress_ZEE	88	stimuli_target_squaretriangles.svg	stimuli_distractor_diamondtriangles.svg	7	yes	57	0	293
6.6.1	win	2022-12-15	16:47:15	17:10:19	1380401	5dbf704fa3f5cb40876271fc	866593156	1	main_z	7	main_z	89	stimuli_distractor_trianglediamonds.svg	stimuli_target_trianglesquares.svg	26	yes	44	1	526
6.6.1	win	2022-12-15	16:47:15	17:10:19	1380401	5dbf704fa3f5cb40876271fc	866593156	1	main_z	7	advance_on_keypress_ZEE	90	stimuli_distractor_trianglediamonds.svg	stimuli_target_trianglesquares.svg	26	yes	57	0	237
6.6.1	win	2022-12-15	16:47:15	17:10:21	1381742	5dbf704fa3f5cb40876271fc	866593156	1	main_z	7	main_z	91	stimuli_distractor_trianglediamonds.svg	stimuli_target_diamondcircles.svg	27	yes	44	1	467
6.6.1	win	2022-12-15	16:47:15	17:10:21	1381742	5dbf704fa3f5cb40876271fc	866593156	1	main_z	7	advance_on_keypress_ZEE	92	stimuli_distractor_trianglediamonds.svg	stimuli_target_diamondcircles.svg	27	yes	57	0	237
6.6.1	win	2022-12-15	16:47:15	17:10:22	1383158	5dbf704fa3f5cb40876271fc	866593156	1	main_z	7	main_z	93	stimuli_target_squarediamonds.svg	stimuli_distractor_diamondtriangles.svg	8	yes	44	1	533
6.6.1	win	2022-12-15	16:47:15	17:10:22	1383158	5dbf704fa3f5cb40876271fc	866593156	1	main_z	7	advance_on_keypress_ZEE	94	stimuli_target_squarediamonds.svg	stimuli_distractor_diamondtriangles.svg	8	yes	57	0	301
6.6.1	win	2022-12-15	16:47:15	17:10:23	1384485	5dbf704fa3f5cb40876271fc	866593156	1	main_z	7	main_z	95	stimuli_distractor_diamondtriangles.svg	stimuli_target_trianglecircles.svg	29	yes	44	1	374
6.6.1	win	2022-12-15	16:47:15	17:10:23	1384485	5dbf704fa3f5cb40876271fc	866593156	1	main_z	7	advance_on_keypress_ZEE	96	stimuli_distractor_diamondtriangles.svg	stimuli_target_trianglecircles.svg	29	yes	57	0	294
6.6.1	win	2022-12-15	16:47:15	17:10:25	1385979	5dbf704fa3f5cb40876271fc	866593156	1	main_z	7	main_z	97	stimuli_target_diamondsquares.svg	stimuli_distractor_diamondtriangles.svg	24	yes	44	1	554
6.6.1	win	2022-12-15	16:47:15	17:10:25	1385979	5dbf704fa3f5cb40876271fc	866593156	1	main_z	7	advance_on_keypress_ZEE	98	stimuli_target_diamondsquares.svg	stimuli_distractor_diamondtriangles.svg	24	yes	57	0	332
6.6.1	win	2022-12-15	16:47:15	17:10:26	1387310	5dbf704fa3f5cb40876271fc	866593156	1	main_z	7	main_z	99	stimuli_target_trianglesquares.svg	stimuli_distractor_diamondtriangles.svg	22	yes	44	1	352
6.6.1	win	2022-12-15	16:47:15	17:10:26	1387310	5dbf704fa3f5cb40876271fc	866593156	1	main_z	7	advance_on_keypress_ZEE	100	stimuli_target_trianglesquares.svg	stimuli_distractor_diamondtriangles.svg	22	yes	57	0	455
6.6.1	win	2022-12-15	16:47:15	17:10:28	1388759	5dbf704fa3f5cb40876271fc	866593156	1	main_z	7	main_z	101	stimuli_target_circletriangles.svg	stimuli_distractor_trianglediamonds.svg	1	yes	44	1	351
6.6.1	win	2022-12-15	16:47:15	17:10:28	1388759	5dbf704fa3f5cb40876271fc	866593156	1	main_z	7	advance_on_keypress_ZEE	102	stimuli_target_circletriangles.svg	stimuli_distractor_trianglediamonds.svg	1	yes	57	0	262
6.6.1	win	2022-12-15	16:47:15	17:10:29	1390250	5dbf704fa3f5cb40876271fc	866593156	1	main_z	7	main_z	103	stimuli_distractor_trianglediamonds.svg	stimuli_distractor_diamondtriangles.svg	36	no	44	0	574
6.6.1	win	2022-12-15	16:47:15	17:10:29	1390250	5dbf704fa3f5cb40876271fc	866593156	1	main_z	7	advance_on_keypress_ZEE	104	stimuli_distractor_trianglediamonds.svg	stimuli_distractor_diamondtriangles.svg	36	no	57	0	532
6.6.1	win	2022-12-15	16:47:15	17:10:31	1391968	5dbf704fa3f5cb40876271fc	866593156	1	main_z	7	main_z	105	stimuli_distractor_diamondtriangles.svg	stimuli_target_squaretriangles.svg	15	yes	44	1	543
6.6.1	win	2022-12-15	16:47:15	17:10:31	1391968	5dbf704fa3f5cb40876271fc	866593156	1	main_z	7	advance_on_keypress_ZEE	106	stimuli_distractor_diamondtriangles.svg	stimuli_target_squaretriangles.svg	15	yes	57	0	296
6.6.1	win	2022-12-15	16:47:15	17:10:32	1393435	5dbf704fa3f5cb40876271fc	866593156	1	main_z	7	main_z	107	stimuli_distractor_trianglediamonds.svg	stimuli_target_squarediamonds.svg	12	yes	44	1	526
6.6.1	win	2022-12-15	16:47:15	17:10:32	1393435	5dbf704fa3f5cb40876271fc	866593156	1	main_z	7	advance_on_keypress_ZEE	108	stimuli_distractor_trianglediamonds.svg	stimuli_target_squarediamonds.svg	12	yes	57	0	270
6.6.1	win	2022-12-15	16:47:15	17:10:34	1394735	5dbf704fa3f5cb40876271fc	866593156	1	main_z	7	main_z	109	stimuli_target_circletriangles.svg	stimuli_distractor_diamondtriangles.svg	5	yes	44	1	394
6.6.1	win	2022-12-15	16:47:15	17:10:34	1394735	5dbf704fa3f5cb40876271fc	866593156	1	main_z	7	advance_on_keypress_ZEE	110	stimuli_target_circletriangles.svg	stimuli_distractor_diamondtriangles.svg	5	yes	57	0	232
6.6.1	win	2022-12-15	16:47:15	17:10:35	1396230	5dbf704fa3f5cb40876271fc	866593156	1	main_z	7	main_z	111	stimuli_target_trianglecircles.svg	stimuli_distractor_trianglediamonds.svg	17	yes	44	1	621
6.6.1	win	2022-12-15	16:47:15	17:10:35	1396230	5dbf704fa3f5cb40876271fc	866593156	1	main_z	7	advance_on_keypress_ZEE	112	stimuli_target_trianglecircles.svg	stimuli_distractor_trianglediamonds.svg	17	yes	57	0	295
6.6.1	win	2022-12-15	16:47:15	17:10:37	1397700	5dbf704fa3f5cb40876271fc	866593156	1	main_z	7	main_z	113	stimuli_target_circlediamonds.svg	stimuli_distractor_trianglediamonds.svg	2	yes	44	1	526
6.6.1	win	2022-12-15	16:47:15	17:10:37	1397700	5dbf704fa3f5cb40876271fc	866593156	1	main_z	7	advance_on_keypress_ZEE	114	stimuli_target_circlediamonds.svg	stimuli_distractor_trianglediamonds.svg	2	yes	57	0	223
6.6.1	win	2022-12-15	16:47:15	17:10:38	1399018	5dbf704fa3f5cb40876271fc	866593156	1	main_z	7	main_z	115	stimuli_target_squaretriangles.svg	stimuli_distractor_trianglediamonds.svg	3	yes	44	1	459
6.6.1	win	2022-12-15	16:47:15	17:10:38	1399018	5dbf704fa3f5cb40876271fc	866593156	1	main_z	7	advance_on_keypress_ZEE	116	stimuli_target_squaretriangles.svg	stimuli_distractor_trianglediamonds.svg	3	yes	57	0	709
6.6.1	win	2022-12-15	16:47:15	17:10:41	1402358	5dbf704fa3f5cb40876271fc	866593156	1	main_z	7	main_z	117	stimuli_distractor_trianglediamonds.svg	stimuli_distractor_trianglediamonds.svg	33	no	0	1	2000
6.6.1	win	2022-12-15	16:47:15	17:10:41	1402358	5dbf704fa3f5cb40876271fc	866593156	1	main_z	7	advance_on_keypress_ZEE	118	stimuli_distractor_trianglediamonds.svg	stimuli_distractor_trianglediamonds.svg	33	no	57	0	279
6.6.1	win	2022-12-15	16:47:15	17:10:43	1403699	5dbf704fa3f5cb40876271fc	866593156	1	main_z	7	main_z	119	stimuli_target_diamondcircles.svg	stimuli_distractor_trianglediamonds.svg	19	yes	44	1	407
6.6.1	win	2022-12-15	16:47:15	17:10:43	1403699	5dbf704fa3f5cb40876271fc	866593156	1	main_z	7	advance_on_keypress_ZEE	120	stimuli_target_diamondcircles.svg	stimuli_distractor_trianglediamonds.svg	19	yes	57	0	237
6.6.1	win	2022-12-15	16:47:15	17:10:44	1404966	5dbf704fa3f5cb40876271fc	866593156	1	main_z	7	main_z	121	stimuli_distractor_diamondtriangles.svg	stimuli_target_trianglesquares.svg	30	yes	44	1	391
6.6.1	win	2022-12-15	16:47:15	17:10:44	1404966	5dbf704fa3f5cb40876271fc	866593156	1	main_z	7	advance_on_keypress_ZEE	122	stimuli_distractor_diamondtriangles.svg	stimuli_target_trianglesquares.svg	30	yes	57	0	246
6.6.1	win	2022-12-15	16:47:15	17:10:45	1406375	5dbf704fa3f5cb40876271fc	866593156	1	main_z	7	main_z	123	stimuli_target_squarediamonds.svg	stimuli_distractor_trianglediamonds.svg	4	yes	44	1	516
6.6.1	win	2022-12-15	16:47:15	17:10:45	1406375	5dbf704fa3f5cb40876271fc	866593156	1	main_z	7	advance_on_keypress_ZEE	124	stimuli_target_squarediamonds.svg	stimuli_distractor_trianglediamonds.svg	4	yes	57	0	236
6.6.1	win	2022-12-15	16:47:15	17:10:47	1407697	5dbf704fa3f5cb40876271fc	866593156	1	main_z	7	main_z	125	stimuli_distractor_diamondtriangles.svg	stimuli_target_circlediamonds.svg	14	yes	44	1	437
6.6.1	win	2022-12-15	16:47:15	17:10:47	1407697	5dbf704fa3f5cb40876271fc	866593156	1	main_z	7	advance_on_keypress_ZEE	126	stimuli_distractor_diamondtriangles.svg	stimuli_target_circlediamonds.svg	14	yes	57	0	207
6.6.1	win	2022-12-15	16:47:15	17:10:48	1409004	5dbf704fa3f5cb40876271fc	866593156	1	main_z	7	main_z	127	stimuli_distractor_trianglediamonds.svg	stimuli_target_trianglecircles.svg	25	yes	44	1	462
6.6.1	win	2022-12-15	16:47:15	17:10:48	1409004	5dbf704fa3f5cb40876271fc	866593156	1	main_z	7	advance_on_keypress_ZEE	128	stimuli_distractor_trianglediamonds.svg	stimuli_target_trianglecircles.svg	25	yes	57	0	286
6.6.1	win	2022-12-15	16:47:15	17:10:49	1410353	5dbf704fa3f5cb40876271fc	866593156	1	main_z	7	main_z	129	stimuli_distractor_diamondtriangles.svg	stimuli_target_circletriangles.svg	13	yes	44	1	412
6.6.1	win	2022-12-15	16:47:15	17:10:49	1410353	5dbf704fa3f5cb40876271fc	866593156	1	main_z	7	advance_on_keypress_ZEE	130	stimuli_distractor_diamondtriangles.svg	stimuli_target_circletriangles.svg	13	yes	57	0	301
6.6.1	win	2022-12-15	16:47:15	17:10:51	1411721	5dbf704fa3f5cb40876271fc	866593156	1	main_z	7	main_z	131	stimuli_target_trianglecircles.svg	stimuli_distractor_diamondtriangles.svg	21	yes	44	1	412
6.6.1	win	2022-12-15	16:47:15	17:10:51	1411721	5dbf704fa3f5cb40876271fc	866593156	1	main_z	7	advance_on_keypress_ZEE	132	stimuli_target_trianglecircles.svg	stimuli_distractor_diamondtriangles.svg	21	yes	57	0	236
6.6.1	win	2022-12-15	16:47:15	17:10:52	1413011	5dbf704fa3f5cb40876271fc	866593156	1	main_z	7	main_z	133	stimuli_distractor_trianglediamonds.svg	stimuli_target_circletriangles.svg	9	yes	44	1	403
6.6.1	win	2022-12-15	16:47:15	17:10:52	1413011	5dbf704fa3f5cb40876271fc	866593156	1	main_z	7	advance_on_keypress_ZEE	134	stimuli_distractor_trianglediamonds.svg	stimuli_target_circletriangles.svg	9	yes	57	0	216
6.6.1	win	2022-12-15	16:47:15	17:10:55	1415875	5dbf704fa3f5cb40876271fc	866593156	1	main_z	7	main_z	135	stimuli_distractor_diamondtriangles.svg	stimuli_distractor_diamondtriangles.svg	40	no	0	1	2000
6.6.1	win	2022-12-15	16:47:15	17:10:55	1415875	5dbf704fa3f5cb40876271fc	866593156	1	main_z	7	advance_on_keypress_ZEE	136	stimuli_distractor_diamondtriangles.svg	stimuli_distractor_diamondtriangles.svg	40	no	57	0	440
6.6.1	win	2022-12-15	16:47:15	17:10:56	1417384	5dbf704fa3f5cb40876271fc	866593156	1	main_z	7	main_z	137	stimuli_distractor_diamondtriangles.svg	stimuli_target_squarediamonds.svg	16	yes	44	1	425
6.6.1	win	2022-12-15	16:47:15	17:10:56	1417384	5dbf704fa3f5cb40876271fc	866593156	1	main_z	7	advance_on_keypress_ZEE	138	stimuli_distractor_diamondtriangles.svg	stimuli_target_squarediamonds.svg	16	yes	57	0	345
6.6.1	win	2022-12-15	16:47:15	17:10:58	1418812	5dbf704fa3f5cb40876271fc	866593156	1	main_z	7	main_z	139	stimuli_distractor_trianglediamonds.svg	stimuli_target_circlediamonds.svg	10	yes	44	1	436
6.6.1	win	2022-12-15	16:47:15	17:10:58	1418812	5dbf704fa3f5cb40876271fc	866593156	1	main_z	7	advance_on_keypress_ZEE	140	stimuli_distractor_trianglediamonds.svg	stimuli_target_circlediamonds.svg	10	yes	57	0	313
6.6.1	win	2022-12-15	16:47:15	17:11:01	1421775	5dbf704fa3f5cb40876271fc	866593156	1	main_z	7	main_z	141	stimuli_distractor_diamondtriangles.svg	stimuli_distractor_diamondtriangles.svg	39	no	0	1	2000
6.6.1	win	2022-12-15	16:47:15	17:11:01	1421775	5dbf704fa3f5cb40876271fc	866593156	1	main_z	7	advance_on_keypress_ZEE	142	stimuli_distractor_diamondtriangles.svg	stimuli_distractor_diamondtriangles.svg	39	no	57	0	356
6.6.1	win	2022-12-15	16:47:15	17:11:02	1423256	5dbf704fa3f5cb40876271fc	866593156	1	main_z	7	main_z	143	stimuli_distractor_diamondtriangles.svg	stimuli_target_diamondcircles.svg	31	yes	44	1	481
6.6.1	win	2022-12-15	16:47:15	17:11:02	1423256	5dbf704fa3f5cb40876271fc	866593156	1	main_z	7	advance_on_keypress_ZEE	144	stimuli_distractor_diamondtriangles.svg	stimuli_target_diamondcircles.svg	31	yes	57	0	321
6.6.1	win	2022-12-15	16:47:15	17:11:04	1424678	5dbf704fa3f5cb40876271fc	866593156	1	main_z	7	main_z	145	stimuli_distractor_trianglediamonds.svg	stimuli_target_squaretriangles.svg	11	yes	44	1	453
6.6.1	win	2022-12-15	16:47:15	17:11:04	1424678	5dbf704fa3f5cb40876271fc	866593156	1	main_z	7	advance_on_keypress_ZEE	146	stimuli_distractor_trianglediamonds.svg	stimuli_target_squaretriangles.svg	11	yes	57	0	256
6.6.1	win	2022-12-15	16:47:15	17:11:07	1427575	5dbf704fa3f5cb40876271fc	866593156	1	main_z	7	main_z	147	stimuli_distractor_diamondtriangles.svg	stimuli_distractor_trianglediamonds.svg	38	no	0	1	2000
6.6.1	win	2022-12-15	16:47:15	17:11:07	1427575	5dbf704fa3f5cb40876271fc	866593156	1	main_z	7	advance_on_keypress_ZEE	148	stimuli_distractor_diamondtriangles.svg	stimuli_distractor_trianglediamonds.svg	38	no	57	0	278
6.6.1	win	2022-12-15	16:47:15	17:11:08	1428957	5dbf704fa3f5cb40876271fc	866593156	1	main_z	7	main_z	149	stimuli_target_diamondcircles.svg	stimuli_distractor_diamondtriangles.svg	23	yes	44	1	449
6.6.1	win	2022-12-15	16:47:15	17:11:08	1428957	5dbf704fa3f5cb40876271fc	866593156	1	main_z	7	advance_on_keypress_ZEE	150	stimuli_target_diamondcircles.svg	stimuli_distractor_diamondtriangles.svg	23	yes	57	0	251
6.6.1	win	2022-12-15	16:47:15	17:11:09	1430473	5dbf704fa3f5cb40876271fc	866593156	1	main_z	7	main_z	151	stimuli_distractor_trianglediamonds.svg	stimuli_distractor_diamondtriangles.svg	35	no	44	0	615
6.6.1	win	2022-12-15	16:47:15	17:11:09	1430473	5dbf704fa3f5cb40876271fc	866593156	1	main_z	7	advance_on_keypress_ZEE	152	stimuli_distractor_trianglediamonds.svg	stimuli_distractor_diamondtriangles.svg	35	no	57	0	440
6.6.1	win	2022-12-15	16:47:15	17:11:11	1432130	5dbf704fa3f5cb40876271fc	866593156	1	main_z	7	main_z	153	stimuli_target_diamondsquares.svg	stimuli_distractor_trianglediamonds.svg	20	yes	44	1	571
6.6.1	win	2022-12-15	16:47:15	17:11:11	1432130	5dbf704fa3f5cb40876271fc	866593156	1	main_z	7	advance_on_keypress_ZEE	154	stimuli_target_diamondsquares.svg	stimuli_distractor_trianglediamonds.svg	20	yes	57	0	322
6.6.1	win	2022-12-15	16:47:15	17:11:13	1433694	5dbf704fa3f5cb40876271fc	866593156	1	main_z	7	main_z	155	stimuli_distractor_diamondtriangles.svg	stimuli_target_diamondsquares.svg	32	yes	44	1	601
6.6.1	win	2022-12-15	16:47:15	17:11:13	1433694	5dbf704fa3f5cb40876271fc	866593156	1	main_z	7	advance_on_keypress_ZEE	156	stimuli_distractor_diamondtriangles.svg	stimuli_target_diamondsquares.svg	32	yes	57	0	203
6.6.1	win	2022-12-15	16:47:15	17:11:14	1435009	5dbf704fa3f5cb40876271fc	866593156	1	main_z	7	main_z	157	stimuli_distractor_trianglediamonds.svg	stimuli_target_diamondsquares.svg	28	yes	44	1	466
6.6.1	win	2022-12-15	16:47:15	17:11:14	1435009	5dbf704fa3f5cb40876271fc	866593156	1	main_z	7	advance_on_keypress_ZEE	158	stimuli_distractor_trianglediamonds.svg	stimuli_target_diamondsquares.svg	28	yes	57	0	197
6.6.1	win	2022-12-15	16:47:15	17:11:17	1437858	5dbf704fa3f5cb40876271fc	866593156	1	main_z	7	main_z	159	stimuli_distractor_trianglediamonds.svg	stimuli_distractor_trianglediamonds.svg	34	no	0	1	2000
6.6.1	win	2022-12-15	16:47:15	17:11:17	1437858	5dbf704fa3f5cb40876271fc	866593156	1	main_z	7	advance_on_keypress_ZEE	160	stimuli_distractor_trianglediamonds.svg	stimuli_distractor_trianglediamonds.svg	34	no	57	0	251
6.6.1	win	2022-12-15	16:47:15	17:11:44	1465457	5dbf704fa3f5cb40876271fc	866593156	1	practice_slash	9	practice_slash	1	stimuli_target_squarediamonds.svg	stimuli_distractor_trianglediamonds.svg	5	yes	53	1	345
6.6.1	win	2022-12-15	16:47:15	17:11:44	1465457	5dbf704fa3f5cb40876271fc	866593156	1	practice_slash	9	advance_on_keypress_SLASH	2	stimuli_target_squarediamonds.svg	stimuli_distractor_trianglediamonds.svg	5	yes	57	0	1301
6.6.1	win	2022-12-15	16:47:15	17:11:49	1470412	5dbf704fa3f5cb40876271fc	866593156	1	practice_slash	9	practice_slash	3	stimuli_distractor_trianglediamonds.svg	stimuli_distractor_diamondtriangles.svg	16	no	0	1	2000
6.6.1	win	2022-12-15	16:47:15	17:11:49	1470412	5dbf704fa3f5cb40876271fc	866593156	1	practice_slash	9	advance_on_keypress_SLASH	4	stimuli_distractor_trianglediamonds.svg	stimuli_distractor_diamondtriangles.svg	16	no	57	0	250
6.6.1	win	2022-12-15	16:47:15	17:11:52	1472833	5dbf704fa3f5cb40876271fc	866593156	1	practice_slash	9	practice_slash	5	stimuli_target_diamondsquares.svg	stimuli_distractor_diamondtriangles.svg	3	yes	53	1	519
6.6.1	win	2022-12-15	16:47:15	17:11:52	1472833	5dbf704fa3f5cb40876271fc	866593156	1	practice_slash	9	advance_on_keypress_SLASH	6	stimuli_target_diamondsquares.svg	stimuli_distractor_diamondtriangles.svg	3	yes	57	0	218
6.6.1	win	2022-12-15	16:47:15	17:11:54	1475103	5dbf704fa3f5cb40876271fc	866593156	1	practice_slash	9	practice_slash	7	stimuli_target_diamondsquares.svg	stimuli_distractor_trianglediamonds.svg	6	yes	53	1	407
6.6.1	win	2022-12-15	16:47:15	17:11:54	1475103	5dbf704fa3f5cb40876271fc	866593156	1	practice_slash	9	advance_on_keypress_SLASH	8	stimuli_target_diamondsquares.svg	stimuli_distractor_trianglediamonds.svg	6	yes	57	0	274
6.6.1	win	2022-12-15	16:47:15	17:11:56	1477489	5dbf704fa3f5cb40876271fc	866593156	1	practice_slash	9	practice_slash	9	stimuli_distractor_trianglediamonds.svg	stimuli_target_circlediamonds.svg	10	yes	53	1	459
6.6.1	win	2022-12-15	16:47:15	17:11:56	1477489	5dbf704fa3f5cb40876271fc	866593156	1	practice_slash	9	advance_on_keypress_SLASH	10	stimuli_distractor_trianglediamonds.svg	stimuli_target_circlediamonds.svg	10	yes	57	0	232
6.6.1	win	2022-12-15	16:47:15	17:11:59	1479724	5dbf704fa3f5cb40876271fc	866593156	1	practice_slash	9	practice_slash	11	stimuli_distractor_diamondtriangles.svg	stimuli_target_diamondcircles.svg	8	yes	53	1	345
6.6.1	win	2022-12-15	16:47:15	17:11:59	1479724	5dbf704fa3f5cb40876271fc	866593156	1	practice_slash	9	advance_on_keypress_SLASH	12	stimuli_distractor_diamondtriangles.svg	stimuli_target_diamondcircles.svg	8	yes	57	0	229
6.6.1	win	2022-12-15	16:47:15	17:12:01	1481992	5dbf704fa3f5cb40876271fc	866593156	1	practice_slash	9	practice_slash	13	stimuli_target_circlediamonds.svg	stimuli_distractor_diamondtriangles.svg	1	yes	53	1	372
6.6.1	win	2022-12-15	16:47:15	17:12:01	1481992	5dbf704fa3f5cb40876271fc	866593156	1	practice_slash	9	advance_on_keypress_SLASH	14	stimuli_target_circlediamonds.svg	stimuli_distractor_diamondtriangles.svg	1	yes	57	0	465
6.6.1	win	2022-12-15	16:47:15	17:12:03	1484511	5dbf704fa3f5cb40876271fc	866593156	1	practice_slash	9	practice_slash	15	stimuli_distractor_trianglediamonds.svg	stimuli_target_diamondcircles.svg	12	yes	53	1	400
6.6.1	win	2022-12-15	16:47:15	17:12:03	1484511	5dbf704fa3f5cb40876271fc	866593156	1	practice_slash	9	advance_on_keypress_SLASH	16	stimuli_distractor_trianglediamonds.svg	stimuli_target_diamondcircles.svg	12	yes	57	0	399
6.6.1	win	2022-12-15	16:47:15	17:12:08	1488563	5dbf704fa3f5cb40876271fc	866593156	1	practice_slash	9	practice_slash	17	stimuli_distractor_diamondtriangles.svg	stimuli_distractor_trianglediamonds.svg	14	no	0	1	2000
6.6.1	win	2022-12-15	16:47:15	17:12:08	1488563	5dbf704fa3f5cb40876271fc	866593156	1	practice_slash	9	advance_on_keypress_SLASH	18	stimuli_distractor_diamondtriangles.svg	stimuli_distractor_trianglediamonds.svg	14	no	57	0	372
6.6.1	win	2022-12-15	16:47:15	17:12:11	1491543	5dbf704fa3f5cb40876271fc	866593156	1	practice_slash	9	practice_slash	19	stimuli_distractor_trianglediamonds.svg	stimuli_target_squarediamonds.svg	11	yes	53	1	964
6.6.1	win	2022-12-15	16:47:15	17:12:11	1491543	5dbf704fa3f5cb40876271fc	866593156	1	practice_slash	9	advance_on_keypress_SLASH	20	stimuli_distractor_trianglediamonds.svg	stimuli_target_squarediamonds.svg	11	yes	57	0	243
6.6.1	win	2022-12-15	16:47:15	17:12:14	1495446	5dbf704fa3f5cb40876271fc	866593156	1	practice_slash	9	practice_slash	21	stimuli_distractor_diamondtriangles.svg	stimuli_distractor_diamondtriangles.svg	13	no	0	1	2000
6.6.1	win	2022-12-15	16:47:15	17:12:14	1495446	5dbf704fa3f5cb40876271fc	866593156	1	practice_slash	9	advance_on_keypress_SLASH	22	stimuli_distractor_diamondtriangles.svg	stimuli_distractor_diamondtriangles.svg	13	no	57	0	381
6.6.1	win	2022-12-15	16:47:15	17:12:18	1499478	5dbf704fa3f5cb40876271fc	866593156	1	practice_slash	9	practice_slash	23	stimuli_distractor_trianglediamonds.svg	stimuli_distractor_trianglediamonds.svg	15	no	0	1	2000
6.6.1	win	2022-12-15	16:47:15	17:12:18	1499478	5dbf704fa3f5cb40876271fc	866593156	1	practice_slash	9	advance_on_keypress_SLASH	24	stimuli_distractor_trianglediamonds.svg	stimuli_distractor_trianglediamonds.svg	15	no	57	0	512
6.6.1	win	2022-12-15	16:47:15	17:12:21	1502225	5dbf704fa3f5cb40876271fc	866593156	1	practice_slash	9	practice_slash	25	stimuli_distractor_diamondtriangles.svg	stimuli_target_trianglecircles.svg	9	yes	53	1	580
6.6.1	win	2022-12-15	16:47:15	17:12:21	1502225	5dbf704fa3f5cb40876271fc	866593156	1	practice_slash	9	advance_on_keypress_SLASH	26	stimuli_distractor_diamondtriangles.svg	stimuli_target_trianglecircles.svg	9	yes	57	0	456
6.6.1	win	2022-12-15	16:47:15	17:12:24	1504920	5dbf704fa3f5cb40876271fc	866593156	1	practice_slash	9	practice_slash	27	stimuli_distractor_diamondtriangles.svg	stimuli_target_circletriangles.svg	7	yes	53	1	591
6.6.1	win	2022-12-15	16:47:15	17:12:24	1504920	5dbf704fa3f5cb40876271fc	866593156	1	practice_slash	9	advance_on_keypress_SLASH	28	stimuli_distractor_diamondtriangles.svg	stimuli_target_circletriangles.svg	7	yes	57	0	460
6.6.1	win	2022-12-15	16:47:15	17:12:27	1507599	5dbf704fa3f5cb40876271fc	866593156	1	practice_slash	9	practice_slash	29	stimuli_target_squarediamonds.svg	stimuli_distractor_diamondtriangles.svg	2	yes	53	1	554
6.6.1	win	2022-12-15	16:47:15	17:12:27	1507599	5dbf704fa3f5cb40876271fc	866593156	1	practice_slash	9	advance_on_keypress_SLASH	30	stimuli_target_squarediamonds.svg	stimuli_distractor_diamondtriangles.svg	2	yes	57	0	378
6.6.1	win	2022-12-15	16:47:15	17:12:29	1510155	5dbf704fa3f5cb40876271fc	866593156	1	practice_slash	9	practice_slash	31	stimuli_target_circlediamonds.svg	stimuli_distractor_trianglediamonds.svg	4	yes	53	1	526
6.6.1	win	2022-12-15	16:47:15	17:12:29	1510155	5dbf704fa3f5cb40876271fc	866593156	1	practice_slash	9	advance_on_keypress_SLASH	32	stimuli_target_circlediamonds.svg	stimuli_distractor_trianglediamonds.svg	4	yes	57	0	447
6.6.1	win	2022-12-15	16:47:15	17:14:18	1618569	5dbf704fa3f5cb40876271fc	866593156	1	main_slash	11	main_slash	1	stimuli_target_trianglesquares.svg	stimuli_distractor_trianglediamonds.svg	18	yes	53	1	311
6.6.1	win	2022-12-15	16:47:15	17:14:18	1618569	5dbf704fa3f5cb40876271fc	866593156	1	main_slash	11	advance_on_keypress_SLASH	2	stimuli_target_trianglesquares.svg	stimuli_distractor_trianglediamonds.svg	18	yes	57	0	1690
6.6.1	win	2022-12-15	16:47:15	17:14:20	1621260	5dbf704fa3f5cb40876271fc	866593156	1	main_slash	11	main_slash	3	stimuli_target_trianglecircles.svg	stimuli_distractor_trianglediamonds.svg	17	yes	53	1	351
6.6.1	win	2022-12-15	16:47:15	17:14:20	1621260	5dbf704fa3f5cb40876271fc	866593156	1	main_slash	11	advance_on_keypress_SLASH	4	stimuli_target_trianglecircles.svg	stimuli_distractor_trianglediamonds.svg	17	yes	57	0	311
6.6.1	win	2022-12-15	16:47:15	17:14:22	1622637	5dbf704fa3f5cb40876271fc	866593156	1	main_slash	11	main_slash	5	stimuli_target_trianglesquares.svg	stimuli_distractor_diamondtriangles.svg	22	yes	53	1	412
6.6.1	win	2022-12-15	16:47:15	17:14:22	1622637	5dbf704fa3f5cb40876271fc	866593156	1	main_slash	11	advance_on_keypress_SLASH	6	stimuli_target_trianglesquares.svg	stimuli_distractor_diamondtriangles.svg	22	yes	57	0	341
6.6.1	win	2022-12-15	16:47:15	17:14:23	1624143	5dbf704fa3f5cb40876271fc	866593156	1	main_slash	11	main_slash	7	stimuli_distractor_diamondtriangles.svg	stimuli_target_circletriangles.svg	13	yes	53	1	517
6.6.1	win	2022-12-15	16:47:15	17:14:23	1624143	5dbf704fa3f5cb40876271fc	866593156	1	main_slash	11	advance_on_keypress_SLASH	8	stimuli_distractor_diamondtriangles.svg	stimuli_target_circletriangles.svg	13	yes	57	0	411
6.6.1	win	2022-12-15	16:47:15	17:14:25	1625585	5dbf704fa3f5cb40876271fc	866593156	1	main_slash	11	main_slash	9	stimuli_distractor_trianglediamonds.svg	stimuli_target_trianglecircles.svg	25	yes	53	1	376
6.6.1	win	2022-12-15	16:47:15	17:14:25	1625585	5dbf704fa3f5cb40876271fc	866593156	1	main_slash	11	advance_on_keypress_SLASH	10	stimuli_distractor_trianglediamonds.svg	stimuli_target_trianglecircles.svg	25	yes	57	0	376
6.6.1	win	2022-12-15	16:47:15	17:14:26	1626977	5dbf704fa3f5cb40876271fc	866593156	1	main_slash	11	main_slash	11	stimuli_distractor_diamondtriangles.svg	stimuli_target_trianglesquares.svg	30	yes	53	1	386
6.6.1	win	2022-12-15	16:47:15	17:14:26	1626977	5dbf704fa3f5cb40876271fc	866593156	1	main_slash	11	advance_on_keypress_SLASH	12	stimuli_distractor_diamondtriangles.svg	stimuli_target_trianglesquares.svg	30	yes	57	0	394
6.6.1	win	2022-12-15	16:47:15	17:14:27	1628444	5dbf704fa3f5cb40876271fc	866593156	1	main_slash	11	main_slash	13	stimuli_distractor_trianglediamonds.svg	stimuli_target_circletriangles.svg	9	yes	53	1	418
6.6.1	win	2022-12-15	16:47:15	17:14:27	1628444	5dbf704fa3f5cb40876271fc	866593156	1	main_slash	11	advance_on_keypress_SLASH	14	stimuli_distractor_trianglediamonds.svg	stimuli_target_circletriangles.svg	9	yes	57	0	344
6.6.1	win	2022-12-15	16:47:15	17:14:29	1629822	5dbf704fa3f5cb40876271fc	866593156	1	main_slash	11	main_slash	15	stimuli_target_squarediamonds.svg	stimuli_distractor_diamondtriangles.svg	8	yes	53	1	380
6.6.1	win	2022-12-15	16:47:15	17:14:29	1629822	5dbf704fa3f5cb40876271fc	866593156	1	main_slash	11	advance_on_keypress_SLASH	16	stimuli_target_squarediamonds.svg	stimuli_distractor_diamondtriangles.svg	8	yes	57	0	303
6.6.1	win	2022-12-15	16:47:15	17:14:30	1631161	5dbf704fa3f5cb40876271fc	866593156	1	main_slash	11	main_slash	17	stimuli_distractor_trianglediamonds.svg	stimuli_target_circlediamonds.svg	10	yes	53	1	386
6.6.1	win	2022-12-15	16:47:15	17:14:30	1631161	5dbf704fa3f5cb40876271fc	866593156	1	main_slash	11	advance_on_keypress_SLASH	18	stimuli_distractor_trianglediamonds.svg	stimuli_target_circlediamonds.svg	10	yes	57	0	363
6.6.1	win	2022-12-15	16:47:15	17:14:32	1632593	5dbf704fa3f5cb40876271fc	866593156	1	main_slash	11	main_slash	19	stimuli_distractor_diamondtriangles.svg	stimuli_target_circlediamonds.svg	14	yes	53	1	418
6.6.1	win	2022-12-15	16:47:15	17:14:32	1632593	5dbf704fa3f5cb40876271fc	866593156	1	main_slash	11	advance_on_keypress_SLASH	20	stimuli_distractor_diamondtriangles.svg	stimuli_target_circlediamonds.svg	14	yes	57	0	296
6.6.1	win	2022-12-15	16:47:15	17:14:33	1634214	5dbf704fa3f5cb40876271fc	866593156	1	main_slash	11	main_slash	21	stimuli_target_diamondsquares.svg	stimuli_distractor_diamondtriangles.svg	24	yes	53	1	672
6.6.1	win	2022-12-15	16:47:15	17:14:33	1634214	5dbf704fa3f5cb40876271fc	866593156	1	main_slash	11	advance_on_keypress_SLASH	22	stimuli_target_diamondsquares.svg	stimuli_distractor_diamondtriangles.svg	24	yes	57	0	455
6.6.1	win	2022-12-15	16:47:15	17:14:35	1635726	5dbf704fa3f5cb40876271fc	866593156	1	main_slash	11	main_slash	23	stimuli_target_circlediamonds.svg	stimuli_distractor_diamondtriangles.svg	6	yes	53	1	417
6.6.1	win	2022-12-15	16:47:15	17:14:35	1635726	5dbf704fa3f5cb40876271fc	866593156	1	main_slash	11	advance_on_keypress_SLASH	24	stimuli_target_circlediamonds.svg	stimuli_distractor_diamondtriangles.svg	6	yes	57	0	268
6.6.1	win	2022-12-15	16:47:15	17:14:36	1637190	5dbf704fa3f5cb40876271fc	866593156	1	main_slash	11	main_slash	25	stimuli_distractor_trianglediamonds.svg	stimuli_target_squaretriangles.svg	11	yes	53	1	549
6.6.1	win	2022-12-15	16:47:15	17:14:36	1637190	5dbf704fa3f5cb40876271fc	866593156	1	main_slash	11	advance_on_keypress_SLASH	26	stimuli_distractor_trianglediamonds.svg	stimuli_target_squaretriangles.svg	11	yes	57	0	323
6.6.1	win	2022-12-15	16:47:15	17:14:39	1640158	5dbf704fa3f5cb40876271fc	866593156	1	main_slash	11	main_slash	27	stimuli_distractor_trianglediamonds.svg	stimuli_distractor_trianglediamonds.svg	34	no	0	1	2000
6.6.1	win	2022-12-15	16:47:15	17:14:39	1640158	5dbf704fa3f5cb40876271fc	866593156	1	main_slash	11	advance_on_keypress_SLASH	28	stimuli_distractor_trianglediamonds.svg	stimuli_distractor_trianglediamonds.svg	34	no	57	0	254
6.6.1	win	2022-12-15	16:47:15	17:14:40	1641410	5dbf704fa3f5cb40876271fc	866593156	1	main_slash	11	main_slash	29	stimuli_target_trianglecircles.svg	stimuli_distractor_diamondtriangles.svg	21	yes	53	1	352
6.6.1	win	2022-12-15	16:47:15	17:14:40	1641410	5dbf704fa3f5cb40876271fc	866593156	1	main_slash	11	advance_on_keypress_SLASH	30	stimuli_target_trianglecircles.svg	stimuli_distractor_diamondtriangles.svg	21	yes	57	0	348
6.6.1	win	2022-12-15	16:47:15	17:14:42	1642772	5dbf704fa3f5cb40876271fc	866593156	1	main_slash	11	main_slash	31	stimuli_target_squaretriangles.svg	stimuli_distractor_diamondtriangles.svg	7	yes	53	1	364
6.6.1	win	2022-12-15	16:47:15	17:14:42	1642772	5dbf704fa3f5cb40876271fc	866593156	1	main_slash	11	advance_on_keypress_SLASH	32	stimuli_target_squaretriangles.svg	stimuli_distractor_diamondtriangles.svg	7	yes	57	0	737
6.6.1	win	2022-12-15	16:47:15	17:14:44	1644592	5dbf704fa3f5cb40876271fc	866593156	1	main_slash	11	main_slash	33	stimuli_distractor_diamondtriangles.svg	stimuli_target_diamondcircles.svg	31	yes	53	1	433
6.6.1	win	2022-12-15	16:47:15	17:14:44	1644592	5dbf704fa3f5cb40876271fc	866593156	1	main_slash	11	advance_on_keypress_SLASH	34	stimuli_distractor_diamondtriangles.svg	stimuli_target_diamondcircles.svg	31	yes	57	0	399
6.6.1	win	2022-12-15	16:47:15	17:14:45	1646152	5dbf704fa3f5cb40876271fc	866593156	1	main_slash	11	main_slash	35	stimuli_distractor_diamondtriangles.svg	stimuli_target_squaretriangles.svg	15	yes	53	1	506
6.6.1	win	2022-12-15	16:47:15	17:14:45	1646152	5dbf704fa3f5cb40876271fc	866593156	1	main_slash	11	advance_on_keypress_SLASH	36	stimuli_distractor_diamondtriangles.svg	stimuli_target_squaretriangles.svg	15	yes	57	0	310
6.6.1	win	2022-12-15	16:47:15	17:14:46	1647503	5dbf704fa3f5cb40876271fc	866593156	1	main_slash	11	main_slash	37	stimuli_distractor_diamondtriangles.svg	stimuli_target_trianglecircles.svg	29	yes	53	1	375
6.6.1	win	2022-12-15	16:47:15	17:14:46	1647503	5dbf704fa3f5cb40876271fc	866593156	1	main_slash	11	advance_on_keypress_SLASH	38	stimuli_distractor_diamondtriangles.svg	stimuli_target_trianglecircles.svg	29	yes	57	0	281
6.6.1	win	2022-12-15	16:47:15	17:14:48	1648923	5dbf704fa3f5cb40876271fc	866593156	1	main_slash	11	main_slash	39	stimuli_target_diamondcircles.svg	stimuli_distractor_trianglediamonds.svg	19	yes	53	1	481
6.6.1	win	2022-12-15	16:47:15	17:14:48	1648923	5dbf704fa3f5cb40876271fc	866593156	1	main_slash	11	advance_on_keypress_SLASH	40	stimuli_target_diamondcircles.svg	stimuli_distractor_trianglediamonds.svg	19	yes	57	0	323
6.6.1	win	2022-12-15	16:47:15	17:14:49	1650239	5dbf704fa3f5cb40876271fc	866593156	1	main_slash	11	main_slash	41	stimuli_target_diamondsquares.svg	stimuli_distractor_trianglediamonds.svg	20	yes	53	1	347
6.6.1	win	2022-12-15	16:47:15	17:14:49	1650239	5dbf704fa3f5cb40876271fc	866593156	1	main_slash	11	advance_on_keypress_SLASH	42	stimuli_target_diamondsquares.svg	stimuli_distractor_trianglediamonds.svg	20	yes	57	0	330
6.6.1	win	2022-12-15	16:47:15	17:14:50	1651495	5dbf704fa3f5cb40876271fc	866593156	1	main_slash	11	main_slash	43	stimuli_distractor_diamondtriangles.svg	stimuli_target_squarediamonds.svg	16	yes	53	1	269
6.6.1	win	2022-12-15	16:47:15	17:14:50	1651495	5dbf704fa3f5cb40876271fc	866593156	1	main_slash	11	advance_on_keypress_SLASH	44	stimuli_distractor_diamondtriangles.svg	stimuli_target_squarediamonds.svg	16	yes	57	0	410
6.6.1	win	2022-12-15	16:47:15	17:14:52	1652852	5dbf704fa3f5cb40876271fc	866593156	1	main_slash	11	main_slash	45	stimuli_distractor_diamondtriangles.svg	stimuli_target_diamondsquares.svg	32	yes	53	1	294
6.6.1	win	2022-12-15	16:47:15	17:14:52	1652852	5dbf704fa3f5cb40876271fc	866593156	1	main_slash	11	advance_on_keypress_SLASH	46	stimuli_distractor_diamondtriangles.svg	stimuli_target_diamondsquares.svg	32	yes	57	0	353
6.6.1	win	2022-12-15	16:47:15	17:14:53	1654151	5dbf704fa3f5cb40876271fc	866593156	1	main_slash	11	main_slash	47	stimuli_distractor_trianglediamonds.svg	stimuli_target_trianglesquares.svg	26	yes	53	1	310
6.6.1	win	2022-12-15	16:47:15	17:14:53	1654151	5dbf704fa3f5cb40876271fc	866593156	1	main_slash	11	advance_on_keypress_SLASH	48	stimuli_distractor_trianglediamonds.svg	stimuli_target_trianglesquares.svg	26	yes	57	0	333
6.6.1	win	2022-12-15	16:47:15	17:14:54	1655367	5dbf704fa3f5cb40876271fc	866593156	1	main_slash	11	main_slash	49	stimuli_target_squaretriangles.svg	stimuli_distractor_trianglediamonds.svg	3	yes	53	1	242
6.6.1	win	2022-12-15	16:47:15	17:14:54	1655367	5dbf704fa3f5cb40876271fc	866593156	1	main_slash	11	advance_on_keypress_SLASH	50	stimuli_target_squaretriangles.svg	stimuli_distractor_trianglediamonds.svg	3	yes	57	0	358
6.6.1	win	2022-12-15	16:47:15	17:14:57	1658359	5dbf704fa3f5cb40876271fc	866593156	1	main_slash	11	main_slash	51	stimuli_distractor_diamondtriangles.svg	stimuli_distractor_trianglediamonds.svg	37	no	0	1	2000
6.6.1	win	2022-12-15	16:47:15	17:14:57	1658359	5dbf704fa3f5cb40876271fc	866593156	1	main_slash	11	advance_on_keypress_SLASH	52	stimuli_distractor_diamondtriangles.svg	stimuli_distractor_trianglediamonds.svg	37	no	57	0	262
6.6.1	win	2022-12-15	16:47:15	17:14:59	1659794	5dbf704fa3f5cb40876271fc	866593156	1	main_slash	11	main_slash	53	stimuli_distractor_diamondtriangles.svg	stimuli_distractor_trianglediamonds.svg	38	no	53	0	519
6.6.1	win	2022-12-15	16:47:15	17:14:59	1659794	5dbf704fa3f5cb40876271fc	866593156	1	main_slash	11	advance_on_keypress_SLASH	54	stimuli_distractor_diamondtriangles.svg	stimuli_distractor_trianglediamonds.svg	38	no	57	0	469
6.6.1	win	2022-12-15	16:47:15	17:15:00	1661319	5dbf704fa3f5cb40876271fc	866593156	1	main_slash	11	main_slash	55	stimuli_distractor_trianglediamonds.svg	stimuli_target_diamondsquares.svg	28	yes	53	1	411
6.6.1	win	2022-12-15	16:47:15	17:15:00	1661319	5dbf704fa3f5cb40876271fc	866593156	1	main_slash	11	advance_on_keypress_SLASH	56	stimuli_distractor_trianglediamonds.svg	stimuli_target_diamondsquares.svg	28	yes	57	0	306
6.6.1	win	2022-12-15	16:47:15	17:15:03	1664275	5dbf704fa3f5cb40876271fc	866593156	1	main_slash	11	main_slash	57	stimuli_distractor_diamondtriangles.svg	stimuli_distractor_diamondtriangles.svg	39	no	0	1	2000
6.6.1	win	2022-12-15	16:47:15	17:15:03	1664275	5dbf704fa3f5cb40876271fc	866593156	1	main_slash	11	advance_on_keypress_SLASH	58	stimuli_distractor_diamondtriangles.svg	stimuli_distractor_diamondtriangles.svg	39	no	57	0	359
6.6.1	win	2022-12-15	16:47:15	17:15:05	1665695	5dbf704fa3f5cb40876271fc	866593156	1	main_slash	11	main_slash	59	stimuli_target_circletriangles.svg	stimuli_distractor_diamondtriangles.svg	5	yes	53	1	420
6.6.1	win	2022-12-15	16:47:15	17:15:05	1665695	5dbf704fa3f5cb40876271fc	866593156	1	main_slash	11	advance_on_keypress_SLASH	60	stimuli_target_circletriangles.svg	stimuli_distractor_diamondtriangles.svg	5	yes	57	0	260
6.6.1	win	2022-12-15	16:47:15	17:15:06	1667003	5dbf704fa3f5cb40876271fc	866593156	1	main_slash	11	main_slash	61	stimuli_distractor_trianglediamonds.svg	stimuli_target_diamondcircles.svg	27	yes	53	1	395
6.6.1	win	2022-12-15	16:47:15	17:15:06	1667003	5dbf704fa3f5cb40876271fc	866593156	1	main_slash	11	advance_on_keypress_SLASH	62	stimuli_distractor_trianglediamonds.svg	stimuli_target_diamondcircles.svg	27	yes	57	0	270
6.6.1	win	2022-12-15	16:47:15	17:15:09	1669925	5dbf704fa3f5cb40876271fc	866593156	1	main_slash	11	main_slash	63	stimuli_distractor_trianglediamonds.svg	stimuli_distractor_diamondtriangles.svg	35	no	0	1	2000
6.6.1	win	2022-12-15	16:47:15	17:15:09	1669925	5dbf704fa3f5cb40876271fc	866593156	1	main_slash	11	advance_on_keypress_SLASH	64	stimuli_distractor_trianglediamonds.svg	stimuli_distractor_diamondtriangles.svg	35	no	57	0	253
6.6.1	win	2022-12-15	16:47:15	17:15:10	1671216	5dbf704fa3f5cb40876271fc	866593156	1	main_slash	11	main_slash	65	stimuli_target_diamondcircles.svg	stimuli_distractor_diamondtriangles.svg	23	yes	53	1	390
6.6.1	win	2022-12-15	16:47:15	17:15:10	1671216	5dbf704fa3f5cb40876271fc	866593156	1	main_slash	11	advance_on_keypress_SLASH	66	stimuli_target_diamondcircles.svg	stimuli_distractor_diamondtriangles.svg	23	yes	57	0	277
6.6.1	win	2022-12-15	16:47:15	17:15:11	1672524	5dbf704fa3f5cb40876271fc	866593156	1	main_slash	11	main_slash	67	stimuli_target_circletriangles.svg	stimuli_distractor_trianglediamonds.svg	1	yes	53	1	383
6.6.1	win	2022-12-15	16:47:15	17:15:11	1672524	5dbf704fa3f5cb40876271fc	866593156	1	main_slash	11	advance_on_keypress_SLASH	68	stimuli_target_circletriangles.svg	stimuli_distractor_trianglediamonds.svg	1	yes	57	0	293
6.6.1	win	2022-12-15	16:47:15	17:15:13	1673836	5dbf704fa3f5cb40876271fc	866593156	1	main_slash	11	main_slash	69	stimuli_target_squarediamonds.svg	stimuli_distractor_trianglediamonds.svg	4	yes	53	1	376
6.6.1	win	2022-12-15	16:47:15	17:15:13	1673836	5dbf704fa3f5cb40876271fc	866593156	1	main_slash	11	advance_on_keypress_SLASH	70	stimuli_target_squarediamonds.svg	stimuli_distractor_trianglediamonds.svg	4	yes	57	0	356
6.6.1	win	2022-12-15	16:47:15	17:15:14	1675087	5dbf704fa3f5cb40876271fc	866593156	1	main_slash	11	main_slash	71	stimuli_distractor_diamondtriangles.svg	stimuli_distractor_diamondtriangles.svg	40	no	53	0	245
6.6.1	win	2022-12-15	16:47:15	17:15:14	1675087	5dbf704fa3f5cb40876271fc	866593156	1	main_slash	11	advance_on_keypress_SLASH	72	stimuli_distractor_diamondtriangles.svg	stimuli_distractor_diamondtriangles.svg	40	no	57	0	602
6.6.1	win	2022-12-15	16:47:15	17:15:16	1676815	5dbf704fa3f5cb40876271fc	866593156	1	main_slash	11	main_slash	73	stimuli_distractor_trianglediamonds.svg	stimuli_target_squarediamonds.svg	12	yes	53	1	474
6.6.1	win	2022-12-15	16:47:15	17:15:16	1676815	5dbf704fa3f5cb40876271fc	866593156	1	main_slash	11	advance_on_keypress_SLASH	74	stimuli_distractor_trianglediamonds.svg	stimuli_target_squarediamonds.svg	12	yes	57	0	255
6.6.1	win	2022-12-15	16:47:15	17:15:19	1679709	5dbf704fa3f5cb40876271fc	866593156	1	main_slash	11	main_slash	75	stimuli_distractor_trianglediamonds.svg	stimuli_distractor_diamondtriangles.svg	36	no	0	1	2000
6.6.1	win	2022-12-15	16:47:15	17:15:19	1679709	5dbf704fa3f5cb40876271fc	866593156	1	main_slash	11	advance_on_keypress_SLASH	76	stimuli_distractor_trianglediamonds.svg	stimuli_distractor_diamondtriangles.svg	36	no	57	0	248
6.6.1	win	2022-12-15	16:47:15	17:15:20	1681018	5dbf704fa3f5cb40876271fc	866593156	1	main_slash	11	main_slash	77	stimuli_target_circlediamonds.svg	stimuli_distractor_trianglediamonds.svg	2	yes	53	1	410
6.6.1	win	2022-12-15	16:47:15	17:15:20	1681018	5dbf704fa3f5cb40876271fc	866593156	1	main_slash	11	advance_on_keypress_SLASH	78	stimuli_target_circlediamonds.svg	stimuli_distractor_trianglediamonds.svg	2	yes	57	0	268
6.6.1	win	2022-12-15	16:47:15	17:15:23	1683925	5dbf704fa3f5cb40876271fc	866593156	1	main_slash	11	main_slash	79	stimuli_distractor_trianglediamonds.svg	stimuli_distractor_trianglediamonds.svg	33	no	0	1	2000
6.6.1	win	2022-12-15	16:47:15	17:15:23	1683925	5dbf704fa3f5cb40876271fc	866593156	1	main_slash	11	advance_on_keypress_SLASH	80	stimuli_distractor_trianglediamonds.svg	stimuli_distractor_trianglediamonds.svg	33	no	57	0	702
6.6.1	win	2022-12-15	16:47:15	17:15:25	1685665	5dbf704fa3f5cb40876271fc	866593156	1	main_slash	11	main_slash	81	stimuli_distractor_diamondtriangles.svg	stimuli_target_trianglecircles.svg	29	yes	53	1	390
6.6.1	win	2022-12-15	16:47:15	17:15:25	1685665	5dbf704fa3f5cb40876271fc	866593156	1	main_slash	11	advance_on_keypress_SLASH	82	stimuli_distractor_diamondtriangles.svg	stimuli_target_trianglecircles.svg	29	yes	57	0	241
6.6.1	win	2022-12-15	16:47:15	17:15:28	1688542	5dbf704fa3f5cb40876271fc	866593156	1	main_slash	11	main_slash	83	stimuli_distractor_trianglediamonds.svg	stimuli_distractor_trianglediamonds.svg	34	no	0	1	2000
6.6.1	win	2022-12-15	16:47:15	17:15:28	1688542	5dbf704fa3f5cb40876271fc	866593156	1	main_slash	11	advance_on_keypress_SLASH	84	stimuli_distractor_trianglediamonds.svg	stimuli_distractor_trianglediamonds.svg	34	no	57	0	428
6.6.1	win	2022-12-15	16:47:15	17:15:29	1690080	5dbf704fa3f5cb40876271fc	866593156	1	main_slash	11	main_slash	85	stimuli_target_circlediamonds.svg	stimuli_distractor_trianglediamonds.svg	2	yes	53	1	454
6.6.1	win	2022-12-15	16:47:15	17:15:29	1690080	5dbf704fa3f5cb40876271fc	866593156	1	main_slash	11	advance_on_keypress_SLASH	86	stimuli_target_circlediamonds.svg	stimuli_distractor_trianglediamonds.svg	2	yes	57	0	262
6.6.1	win	2022-12-15	16:47:15	17:15:32	1692992	5dbf704fa3f5cb40876271fc	866593156	1	main_slash	11	main_slash	87	stimuli_distractor_diamondtriangles.svg	stimuli_distractor_diamondtriangles.svg	40	no	0	1	2000
6.6.1	win	2022-12-15	16:47:15	17:15:32	1692992	5dbf704fa3f5cb40876271fc	866593156	1	main_slash	11	advance_on_keypress_SLASH	88	stimuli_distractor_diamondtriangles.svg	stimuli_distractor_diamondtriangles.svg	40	no	57	0	339
6.6.1	win	2022-12-15	16:47:15	17:15:33	1694363	5dbf704fa3f5cb40876271fc	866593156	1	main_slash	11	main_slash	89	stimuli_distractor_trianglediamonds.svg	stimuli_target_squarediamonds.svg	12	yes	53	1	387
6.6.1	win	2022-12-15	16:47:15	17:15:33	1694363	5dbf704fa3f5cb40876271fc	866593156	1	main_slash	11	advance_on_keypress_SLASH	90	stimuli_distractor_trianglediamonds.svg	stimuli_target_squarediamonds.svg	12	yes	57	0	303
6.6.1	win	2022-12-15	16:47:15	17:15:35	1695819	5dbf704fa3f5cb40876271fc	866593156	1	main_slash	11	main_slash	91	stimuli_target_diamondcircles.svg	stimuli_distractor_trianglediamonds.svg	19	yes	53	1	510
6.6.1	win	2022-12-15	16:47:15	17:15:35	1695819	5dbf704fa3f5cb40876271fc	866593156	1	main_slash	11	advance_on_keypress_SLASH	92	stimuli_target_diamondcircles.svg	stimuli_distractor_trianglediamonds.svg	19	yes	57	0	282
6.6.1	win	2022-12-15	16:47:15	17:15:36	1697268	5dbf704fa3f5cb40876271fc	866593156	1	main_slash	11	main_slash	93	stimuli_target_diamondsquares.svg	stimuli_distractor_diamondtriangles.svg	24	yes	53	1	505
6.6.1	win	2022-12-15	16:47:15	17:15:36	1697268	5dbf704fa3f5cb40876271fc	866593156	1	main_slash	11	advance_on_keypress_SLASH	94	stimuli_target_diamondsquares.svg	stimuli_distractor_diamondtriangles.svg	24	yes	57	0	309
6.6.1	win	2022-12-15	16:47:15	17:15:38	1698595	5dbf704fa3f5cb40876271fc	866593156	1	main_slash	11	main_slash	95	stimuli_distractor_trianglediamonds.svg	stimuli_target_diamondcircles.svg	27	yes	53	1	387
6.6.1	win	2022-12-15	16:47:15	17:15:38	1698595	5dbf704fa3f5cb40876271fc	866593156	1	main_slash	11	advance_on_keypress_SLASH	96	stimuli_distractor_trianglediamonds.svg	stimuli_target_diamondcircles.svg	27	yes	57	0	291
6.6.1	win	2022-12-15	16:47:15	17:15:39	1699909	5dbf704fa3f5cb40876271fc	866593156	1	main_slash	11	main_slash	97	stimuli_distractor_trianglediamonds.svg	stimuli_target_trianglesquares.svg	26	yes	53	1	383
6.6.1	win	2022-12-15	16:47:15	17:15:39	1699909	5dbf704fa3f5cb40876271fc	866593156	1	main_slash	11	advance_on_keypress_SLASH	98	stimuli_distractor_trianglediamonds.svg	stimuli_target_trianglesquares.svg	26	yes	57	0	259
6.6.1	win	2022-12-15	16:47:15	17:15:40	1701344	5dbf704fa3f5cb40876271fc	866593156	1	main_slash	11	main_slash	99	stimuli_distractor_trianglediamonds.svg	stimuli_target_circlediamonds.svg	10	yes	53	1	519
6.6.1	win	2022-12-15	16:47:15	17:15:40	1701344	5dbf704fa3f5cb40876271fc	866593156	1	main_slash	11	advance_on_keypress_SLASH	100	stimuli_distractor_trianglediamonds.svg	stimuli_target_circlediamonds.svg	10	yes	57	0	337
6.6.1	win	2022-12-15	16:47:15	17:15:43	1704325	5dbf704fa3f5cb40876271fc	866593156	1	main_slash	11	main_slash	101	stimuli_distractor_diamondtriangles.svg	stimuli_distractor_trianglediamonds.svg	38	no	0	1	2000
6.6.1	win	2022-12-15	16:47:15	17:15:43	1704325	5dbf704fa3f5cb40876271fc	866593156	1	main_slash	11	advance_on_keypress_SLASH	102	stimuli_distractor_diamondtriangles.svg	stimuli_distractor_trianglediamonds.svg	38	no	57	0	244
6.6.1	win	2022-12-15	16:47:15	17:15:45	1705622	5dbf704fa3f5cb40876271fc	866593156	1	main_slash	11	main_slash	103	stimuli_target_trianglecircles.svg	stimuli_distractor_diamondtriangles.svg	21	yes	53	1	397
6.6.1	win	2022-12-15	16:47:15	17:15:45	1705622	5dbf704fa3f5cb40876271fc	866593156	1	main_slash	11	advance_on_keypress_SLASH	104	stimuli_target_trianglecircles.svg	stimuli_distractor_diamondtriangles.svg	21	yes	57	0	362
6.6.1	win	2022-12-15	16:47:15	17:15:48	1708642	5dbf704fa3f5cb40876271fc	866593156	1	main_slash	11	main_slash	105	stimuli_distractor_trianglediamonds.svg	stimuli_distractor_diamondtriangles.svg	35	no	0	1	2000
6.6.1	win	2022-12-15	16:47:15	17:15:48	1708642	5dbf704fa3f5cb40876271fc	866593156	1	main_slash	11	advance_on_keypress_SLASH	106	stimuli_distractor_trianglediamonds.svg	stimuli_distractor_diamondtriangles.svg	35	no	57	0	275
6.6.1	win	2022-12-15	16:47:15	17:15:49	1709956	5dbf704fa3f5cb40876271fc	866593156	1	main_slash	11	main_slash	107	stimuli_distractor_diamondtriangles.svg	stimuli_target_trianglesquares.svg	30	yes	53	1	398
6.6.1	win	2022-12-15	16:47:15	17:15:49	1709956	5dbf704fa3f5cb40876271fc	866593156	1	main_slash	11	advance_on_keypress_SLASH	108	stimuli_distractor_diamondtriangles.svg	stimuli_target_trianglesquares.svg	30	yes	57	0	294
6.6.1	win	2022-12-15	16:47:15	17:15:50	1711220	5dbf704fa3f5cb40876271fc	866593156	1	main_slash	11	main_slash	109	stimuli_distractor_trianglediamonds.svg	stimuli_target_squaretriangles.svg	11	yes	53	1	328
6.6.1	win	2022-12-15	16:47:15	17:15:50	1711220	5dbf704fa3f5cb40876271fc	866593156	1	main_slash	11	advance_on_keypress_SLASH	110	stimuli_distractor_trianglediamonds.svg	stimuli_target_squaretriangles.svg	11	yes	57	0	238
6.6.1	win	2022-12-15	16:47:15	17:15:51	1712486	5dbf704fa3f5cb40876271fc	866593156	1	main_slash	11	main_slash	111	stimuli_distractor_diamondtriangles.svg	stimuli_target_squaretriangles.svg	15	yes	53	1	371
6.6.1	win	2022-12-15	16:47:15	17:15:51	1712486	5dbf704fa3f5cb40876271fc	866593156	1	main_slash	11	advance_on_keypress_SLASH	112	stimuli_distractor_diamondtriangles.svg	stimuli_target_squaretriangles.svg	15	yes	57	0	308
6.6.1	win	2022-12-15	16:47:15	17:15:53	1713804	5dbf704fa3f5cb40876271fc	866593156	1	main_slash	11	main_slash	113	stimuli_distractor_diamondtriangles.svg	stimuli_target_squarediamonds.svg	16	yes	53	1	362
6.6.1	win	2022-12-15	16:47:15	17:15:53	1713804	5dbf704fa3f5cb40876271fc	866593156	1	main_slash	11	advance_on_keypress_SLASH	114	stimuli_distractor_diamondtriangles.svg	stimuli_target_squarediamonds.svg	16	yes	57	0	296
6.6.1	win	2022-12-15	16:47:15	17:15:54	1715153	5dbf704fa3f5cb40876271fc	866593156	1	main_slash	11	main_slash	115	stimuli_target_trianglesquares.svg	stimuli_distractor_diamondtriangles.svg	22	yes	53	1	395
6.6.1	win	2022-12-15	16:47:15	17:15:54	1715153	5dbf704fa3f5cb40876271fc	866593156	1	main_slash	11	advance_on_keypress_SLASH	116	stimuli_target_trianglesquares.svg	stimuli_distractor_diamondtriangles.svg	22	yes	57	0	292
6.6.1	win	2022-12-15	16:47:15	17:15:55	1716470	5dbf704fa3f5cb40876271fc	866593156	1	main_slash	11	main_slash	117	stimuli_target_diamondsquares.svg	stimuli_distractor_trianglediamonds.svg	20	yes	53	1	377
6.6.1	win	2022-12-15	16:47:15	17:15:55	1716470	5dbf704fa3f5cb40876271fc	866593156	1	main_slash	11	advance_on_keypress_SLASH	118	stimuli_target_diamondsquares.svg	stimuli_distractor_trianglediamonds.svg	20	yes	57	0	245
6.6.1	win	2022-12-15	16:47:15	17:15:57	1717801	5dbf704fa3f5cb40876271fc	866593156	1	main_slash	11	main_slash	119	stimuli_distractor_diamondtriangles.svg	stimuli_target_diamondcircles.svg	31	yes	53	1	426
6.6.1	win	2022-12-15	16:47:15	17:15:57	1717801	5dbf704fa3f5cb40876271fc	866593156	1	main_slash	11	advance_on_keypress_SLASH	120	stimuli_distractor_diamondtriangles.svg	stimuli_target_diamondcircles.svg	31	yes	57	0	270
6.6.1	win	2022-12-15	16:47:15	17:15:58	1719032	5dbf704fa3f5cb40876271fc	866593156	1	main_slash	11	main_slash	121	stimuli_target_diamondcircles.svg	stimuli_distractor_diamondtriangles.svg	23	yes	53	1	323
6.6.1	win	2022-12-15	16:47:15	17:15:58	1719032	5dbf704fa3f5cb40876271fc	866593156	1	main_slash	11	advance_on_keypress_SLASH	122	stimuli_target_diamondcircles.svg	stimuli_distractor_diamondtriangles.svg	23	yes	57	0	335
6.6.1	win	2022-12-15	16:47:15	17:15:59	1720307	5dbf704fa3f5cb40876271fc	866593156	1	main_slash	11	main_slash	123	stimuli_distractor_diamondtriangles.svg	stimuli_target_circlediamonds.svg	14	yes	53	1	298
6.6.1	win	2022-12-15	16:47:15	17:15:59	1720307	5dbf704fa3f5cb40876271fc	866593156	1	main_slash	11	advance_on_keypress_SLASH	124	stimuli_distractor_diamondtriangles.svg	stimuli_target_circlediamonds.svg	14	yes	57	0	301
6.6.1	win	2022-12-15	16:47:15	17:16:01	1721641	5dbf704fa3f5cb40876271fc	866593156	1	main_slash	11	main_slash	125	stimuli_target_squaretriangles.svg	stimuli_distractor_trianglediamonds.svg	3	yes	53	1	383
6.6.1	win	2022-12-15	16:47:15	17:16:01	1721641	5dbf704fa3f5cb40876271fc	866593156	1	main_slash	11	advance_on_keypress_SLASH	126	stimuli_target_squaretriangles.svg	stimuli_distractor_trianglediamonds.svg	3	yes	57	0	249
6.6.1	win	2022-12-15	16:47:15	17:16:02	1722939	5dbf704fa3f5cb40876271fc	866593156	1	main_slash	11	main_slash	127	stimuli_distractor_diamondtriangles.svg	stimuli_distractor_trianglediamonds.svg	37	no	53	0	398
6.6.1	win	2022-12-15	16:47:15	17:16:02	1722939	5dbf704fa3f5cb40876271fc	866593156	1	main_slash	11	advance_on_keypress_SLASH	128	stimuli_distractor_diamondtriangles.svg	stimuli_distractor_trianglediamonds.svg	37	no	57	0	546
6.6.1	win	2022-12-15	16:47:15	17:16:05	1726143	5dbf704fa3f5cb40876271fc	866593156	1	main_slash	11	main_slash	129	stimuli_distractor_diamondtriangles.svg	stimuli_distractor_diamondtriangles.svg	39	no	0	1	2000
6.6.1	win	2022-12-15	16:47:15	17:16:05	1726143	5dbf704fa3f5cb40876271fc	866593156	1	main_slash	11	advance_on_keypress_SLASH	130	stimuli_distractor_diamondtriangles.svg	stimuli_distractor_diamondtriangles.svg	39	no	57	0	241
6.6.1	win	2022-12-15	16:47:15	17:16:06	1727452	5dbf704fa3f5cb40876271fc	866593156	1	main_slash	11	main_slash	131	stimuli_target_squarediamonds.svg	stimuli_distractor_trianglediamonds.svg	4	yes	53	1	426
6.6.1	win	2022-12-15	16:47:15	17:16:06	1727452	5dbf704fa3f5cb40876271fc	866593156	1	main_slash	11	advance_on_keypress_SLASH	132	stimuli_target_squarediamonds.svg	stimuli_distractor_trianglediamonds.svg	4	yes	57	0	289
6.6.1	win	2022-12-15	16:47:15	17:16:08	1728785	5dbf704fa3f5cb40876271fc	866593156	1	main_slash	11	main_slash	133	stimuli_distractor_trianglediamonds.svg	stimuli_target_circletriangles.svg	9	yes	53	1	410
6.6.1	win	2022-12-15	16:47:15	17:16:08	1728785	5dbf704fa3f5cb40876271fc	866593156	1	main_slash	11	advance_on_keypress_SLASH	134	stimuli_distractor_trianglediamonds.svg	stimuli_target_circletriangles.svg	9	yes	57	0	296
6.6.1	win	2022-12-15	16:47:15	17:16:09	1730112	5dbf704fa3f5cb40876271fc	866593156	1	main_slash	11	main_slash	135	stimuli_target_squarediamonds.svg	stimuli_distractor_diamondtriangles.svg	8	yes	53	1	386
6.6.1	win	2022-12-15	16:47:15	17:16:09	1730112	5dbf704fa3f5cb40876271fc	866593156	1	main_slash	11	advance_on_keypress_SLASH	136	stimuli_target_squarediamonds.svg	stimuli_distractor_diamondtriangles.svg	8	yes	57	0	265
6.6.1	win	2022-12-15	16:47:15	17:16:12	1733026	5dbf704fa3f5cb40876271fc	866593156	1	main_slash	11	main_slash	137	stimuli_distractor_trianglediamonds.svg	stimuli_distractor_diamondtriangles.svg	36	no	0	1	2000
6.6.1	win	2022-12-15	16:47:15	17:16:12	1733026	5dbf704fa3f5cb40876271fc	866593156	1	main_slash	11	advance_on_keypress_SLASH	138	stimuli_distractor_trianglediamonds.svg	stimuli_distractor_diamondtriangles.svg	36	no	57	0	256
6.6.1	win	2022-12-15	16:47:15	17:16:13	1734316	5dbf704fa3f5cb40876271fc	866593156	1	main_slash	11	main_slash	139	stimuli_target_circletriangles.svg	stimuli_distractor_diamondtriangles.svg	5	yes	53	1	391
6.6.1	win	2022-12-15	16:47:15	17:16:13	1734316	5dbf704fa3f5cb40876271fc	866593156	1	main_slash	11	advance_on_keypress_SLASH	140	stimuli_target_circletriangles.svg	stimuli_distractor_diamondtriangles.svg	5	yes	57	0	304
6.6.1	win	2022-12-15	16:47:15	17:16:15	1735645	5dbf704fa3f5cb40876271fc	866593156	1	main_slash	11	main_slash	141	stimuli_target_circletriangles.svg	stimuli_distractor_trianglediamonds.svg	1	yes	53	1	387
6.6.1	win	2022-12-15	16:47:15	17:16:15	1735645	5dbf704fa3f5cb40876271fc	866593156	1	main_slash	11	advance_on_keypress_SLASH	142	stimuli_target_circletriangles.svg	stimuli_distractor_trianglediamonds.svg	1	yes	57	0	291
6.6.1	win	2022-12-15	16:47:15	17:16:16	1736963	5dbf704fa3f5cb40876271fc	866593156	1	main_slash	11	main_slash	143	stimuli_distractor_diamondtriangles.svg	stimuli_target_diamondsquares.svg	32	yes	53	1	387
6.6.1	win	2022-12-15	16:47:15	17:16:16	1736963	5dbf704fa3f5cb40876271fc	866593156	1	main_slash	11	advance_on_keypress_SLASH	144	stimuli_distractor_diamondtriangles.svg	stimuli_target_diamondsquares.svg	32	yes	57	0	350
6.6.1	win	2022-12-15	16:47:15	17:16:17	1738500	5dbf704fa3f5cb40876271fc	866593156	1	main_slash	11	main_slash	145	stimuli_target_circlediamonds.svg	stimuli_distractor_diamondtriangles.svg	6	yes	53	1	542
6.6.1	win	2022-12-15	16:47:15	17:16:17	1738500	5dbf704fa3f5cb40876271fc	866593156	1	main_slash	11	advance_on_keypress_SLASH	146	stimuli_target_circlediamonds.svg	stimuli_distractor_diamondtriangles.svg	6	yes	57	0	286
6.6.1	win	2022-12-15	16:47:15	17:16:19	1739747	5dbf704fa3f5cb40876271fc	866593156	1	main_slash	11	main_slash	147	stimuli_distractor_trianglediamonds.svg	stimuli_target_trianglecircles.svg	25	yes	53	1	322
6.6.1	win	2022-12-15	16:47:15	17:16:19	1739747	5dbf704fa3f5cb40876271fc	866593156	1	main_slash	11	advance_on_keypress_SLASH	148	stimuli_distractor_trianglediamonds.svg	stimuli_target_trianglecircles.svg	25	yes	57	0	299
6.6.1	win	2022-12-15	16:47:15	17:16:20	1740995	5dbf704fa3f5cb40876271fc	866593156	1	main_slash	11	main_slash	149	stimuli_distractor_trianglediamonds.svg	stimuli_target_diamondsquares.svg	28	yes	53	1	304
6.6.1	win	2022-12-15	16:47:15	17:16:20	1740995	5dbf704fa3f5cb40876271fc	866593156	1	main_slash	11	advance_on_keypress_SLASH	150	stimuli_distractor_trianglediamonds.svg	stimuli_target_diamondsquares.svg	28	yes	57	0	322
6.6.1	win	2022-12-15	16:47:15	17:16:21	1742440	5dbf704fa3f5cb40876271fc	866593156	1	main_slash	11	main_slash	151	stimuli_target_trianglecircles.svg	stimuli_distractor_trianglediamonds.svg	17	yes	53	1	481
6.6.1	win	2022-12-15	16:47:15	17:16:21	1742440	5dbf704fa3f5cb40876271fc	866593156	1	main_slash	11	advance_on_keypress_SLASH	152	stimuli_target_trianglecircles.svg	stimuli_distractor_trianglediamonds.svg	17	yes	57	0	280
6.6.1	win	2022-12-15	16:47:15	17:16:23	1743663	5dbf704fa3f5cb40876271fc	866593156	1	main_slash	11	main_slash	153	stimuli_target_trianglesquares.svg	stimuli_distractor_trianglediamonds.svg	18	yes	53	1	288
6.6.1	win	2022-12-15	16:47:15	17:16:23	1743663	5dbf704fa3f5cb40876271fc	866593156	1	main_slash	11	advance_on_keypress_SLASH	154	stimuli_target_trianglesquares.svg	stimuli_distractor_trianglediamonds.svg	18	yes	57	0	282
6.6.1	win	2022-12-15	16:47:15	17:16:26	1746592	5dbf704fa3f5cb40876271fc	866593156	1	main_slash	11	main_slash	155	stimuli_distractor_trianglediamonds.svg	stimuli_distractor_trianglediamonds.svg	33	no	0	1	2000
6.6.1	win	2022-12-15	16:47:15	17:16:26	1746592	5dbf704fa3f5cb40876271fc	866593156	1	main_slash	11	advance_on_keypress_SLASH	156	stimuli_distractor_trianglediamonds.svg	stimuli_distractor_trianglediamonds.svg	33	no	57	0	603
6.6.1	win	2022-12-15	16:47:15	17:16:27	1748359	5dbf704fa3f5cb40876271fc	866593156	1	main_slash	11	main_slash	157	stimuli_distractor_diamondtriangles.svg	stimuli_target_circletriangles.svg	13	yes	53	1	518
6.6.1	win	2022-12-15	16:47:15	17:16:27	1748359	5dbf704fa3f5cb40876271fc	866593156	1	main_slash	11	advance_on_keypress_SLASH	158	stimuli_distractor_diamondtriangles.svg	stimuli_target_circletriangles.svg	13	yes	57	0	230
6.6.1	win	2022-12-15	16:47:15	17:16:29	1749685	5dbf704fa3f5cb40876271fc	866593156	1	main_slash	11	main_slash	159	stimuli_target_squaretriangles.svg	stimuli_distractor_diamondtriangles.svg	7	yes	53	1	443
6.6.1	win	2022-12-15	16:47:15	17:16:29	1749685	5dbf704fa3f5cb40876271fc	866593156	1	main_slash	11	advance_on_keypress_SLASH	160	stimuli_target_squaretriangles.svg	stimuli_distractor_diamondtriangles.svg	7	yes	57	0	387