build	computer.platform	date	time	timestamp	time_elapsed_ms	subject	group	session	blockcode	blocknum	trialcode	trialnum	stimulus_left	stimulus_right	stim_index	target_present	response	correct	latency
6.6.1	win	2022-12-19	16:39:45	16:48:07	500212	5c5a19299404f10001ff8cbf	664504128	1	practice_z	5	practice_z	1	stimuli_distractor_trianglediamonds.svg	stimuli_target_squarediamonds.svg	11	yes	0	0	2000
6.6.1	win	2022-12-19	16:39:45	16:48:07	500212	5c5a19299404f10001ff8cbf	664504128	1	practice_z	5	advance_on_keypress_ZEE	2	stimuli_distractor_trianglediamonds.svg	stimuli_target_squarediamonds.svg	11	yes	57	0	1825
6.6.1	win	2022-12-19	16:39:45	16:48:11	504070	5c5a19299404f10001ff8cbf	664504128	1	practice_z	5	practice_z	3	stimuli_distractor_diamondtriangles.svg	stimuli_target_trianglecircles.svg	9	yes	44	1	375
6.6.1	win	2022-12-19	16:39:45	16:48:11	504070	5c5a19299404f10001ff8cbf	664504128	1	practice_z	5	advance_on_keypress_ZEE	4	stimuli_distractor_diamondtriangles.svg	stimuli_target_trianglecircles.svg	9	yes	57	0	638
6.6.1	win	2022-12-19	16:39:45	16:48:13	506893	5c5a19299404f10001ff8cbf	664504128	1	practice_z	5	practice_z	5	stimuli_target_squarediamonds.svg	stimuli_distractor_trianglediamonds.svg	5	yes	44	1	539
6.6.1	win	2022-12-19	16:39:45	16:48:13	506893	5c5a19299404f10001ff8cbf	664504128	1	practice_z	5	advance_on_keypress_ZEE	6	stimuli_target_squarediamonds.svg	stimuli_distractor_trianglediamonds.svg	5	yes	57	0	215
6.6.1	win	2022-12-19	16:39:45	16:48:17	510751	5c5a19299404f10001ff8cbf	664504128	1	practice_z	5	practice_z	7	stimuli_target_squarediamonds.svg	stimuli_distractor_diamondtriangles.svg	2	yes	0	0	2000
6.6.1	win	2022-12-19	16:39:45	16:48:17	510751	5c5a19299404f10001ff8cbf	664504128	1	practice_z	5	advance_on_keypress_ZEE	8	stimuli_target_squarediamonds.svg	stimuli_distractor_diamondtriangles.svg	2	yes	57	0	389
6.6.1	win	2022-12-19	16:39:45	16:48:20	513821	5c5a19299404f10001ff8cbf	664504128	1	practice_z	5	practice_z	9	stimuli_target_diamondsquares.svg	stimuli_distractor_trianglediamonds.svg	6	yes	44	1	1041
6.6.1	win	2022-12-19	16:39:45	16:48:20	513821	5c5a19299404f10001ff8cbf	664504128	1	practice_z	5	advance_on_keypress_ZEE	10	stimuli_target_diamondsquares.svg	stimuli_distractor_trianglediamonds.svg	6	yes	57	0	320
6.6.1	win	2022-12-19	16:39:45	16:48:24	517031	5c5a19299404f10001ff8cbf	664504128	1	practice_z	5	practice_z	11	stimuli_target_circlediamonds.svg	stimuli_distractor_trianglediamonds.svg	4	yes	44	1	1237
6.6.1	win	2022-12-19	16:39:45	16:48:24	517031	5c5a19299404f10001ff8cbf	664504128	1	practice_z	5	advance_on_keypress_ZEE	12	stimuli_target_circlediamonds.svg	stimuli_distractor_trianglediamonds.svg	4	yes	57	0	38
6.6.1	win	2022-12-19	16:39:45	16:48:27	520707	5c5a19299404f10001ff8cbf	664504128	1	practice_z	5	practice_z	13	stimuli_distractor_diamondtriangles.svg	stimuli_distractor_trianglediamonds.svg	14	no	0	1	2000
6.6.1	win	2022-12-19	16:39:45	16:48:27	520707	5c5a19299404f10001ff8cbf	664504128	1	practice_z	5	advance_on_keypress_ZEE	14	stimuli_distractor_diamondtriangles.svg	stimuli_distractor_trianglediamonds.svg	14	no	57	0	163
6.6.1	win	2022-12-19	16:39:45	16:48:31	524217	5c5a19299404f10001ff8cbf	664504128	1	practice_z	5	practice_z	15	stimuli_distractor_diamondtriangles.svg	stimuli_target_circletriangles.svg	7	yes	44	1	1697
6.6.1	win	2022-12-19	16:39:45	16:48:31	524217	5c5a19299404f10001ff8cbf	664504128	1	practice_z	5	advance_on_keypress_ZEE	16	stimuli_distractor_diamondtriangles.svg	stimuli_target_circletriangles.svg	7	yes	57	0	948
6.6.1	win	2022-12-19	16:39:45	16:48:34	527656	5c5a19299404f10001ff8cbf	664504128	1	practice_z	5	practice_z	17	stimuli_distractor_diamondtriangles.svg	stimuli_target_diamondcircles.svg	8	yes	44	1	840
6.6.1	win	2022-12-19	16:39:45	16:48:34	527656	5c5a19299404f10001ff8cbf	664504128	1	practice_z	5	advance_on_keypress_ZEE	18	stimuli_distractor_diamondtriangles.svg	stimuli_target_diamondcircles.svg	8	yes	57	0	461
6.6.1	win	2022-12-19	16:39:45	16:48:37	530350	5c5a19299404f10001ff8cbf	664504128	1	practice_z	5	practice_z	19	stimuli_target_circlediamonds.svg	stimuli_distractor_diamondtriangles.svg	1	yes	44	1	588
6.6.1	win	2022-12-19	16:39:45	16:48:37	530350	5c5a19299404f10001ff8cbf	664504128	1	practice_z	5	advance_on_keypress_ZEE	20	stimuli_target_circlediamonds.svg	stimuli_distractor_diamondtriangles.svg	1	yes	57	0	52
6.6.1	win	2022-12-19	16:39:45	16:48:40	533277	5c5a19299404f10001ff8cbf	664504128	1	practice_z	5	practice_z	21	stimuli_distractor_trianglediamonds.svg	stimuli_target_diamondcircles.svg	12	yes	44	1	1233
6.6.1	win	2022-12-19	16:39:45	16:48:40	533277	5c5a19299404f10001ff8cbf	664504128	1	practice_z	5	advance_on_keypress_ZEE	22	stimuli_distractor_trianglediamonds.svg	stimuli_target_diamondcircles.svg	12	yes	57	0	386
6.6.1	win	2022-12-19	16:39:45	16:48:44	537306	5c5a19299404f10001ff8cbf	664504128	1	practice_z	5	practice_z	23	stimuli_distractor_trianglediamonds.svg	stimuli_distractor_trianglediamonds.svg	15	no	0	1	2000
6.6.1	win	2022-12-19	16:39:45	16:48:44	537306	5c5a19299404f10001ff8cbf	664504128	1	practice_z	5	advance_on_keypress_ZEE	24	stimuli_distractor_trianglediamonds.svg	stimuli_distractor_trianglediamonds.svg	15	no	57	0	380
6.6.1	win	2022-12-19	16:39:45	16:48:47	540799	5c5a19299404f10001ff8cbf	664504128	1	practice_z	5	practice_z	25	stimuli_distractor_trianglediamonds.svg	stimuli_distractor_diamondtriangles.svg	16	no	44	0	1462
6.6.1	win	2022-12-19	16:39:45	16:48:47	540799	5c5a19299404f10001ff8cbf	664504128	1	practice_z	5	advance_on_keypress_ZEE	26	stimuli_distractor_trianglediamonds.svg	stimuli_distractor_diamondtriangles.svg	16	no	57	0	392
6.6.1	win	2022-12-19	16:39:45	16:48:51	544849	5c5a19299404f10001ff8cbf	664504128	1	practice_z	5	practice_z	27	stimuli_distractor_diamondtriangles.svg	stimuli_distractor_diamondtriangles.svg	13	no	0	1	2000
6.6.1	win	2022-12-19	16:39:45	16:48:51	544849	5c5a19299404f10001ff8cbf	664504128	1	practice_z	5	advance_on_keypress_ZEE	28	stimuli_distractor_diamondtriangles.svg	stimuli_distractor_diamondtriangles.svg	13	no	57	0	39
6.6.1	win	2022-12-19	16:39:45	16:48:55	548187	5c5a19299404f10001ff8cbf	664504128	1	practice_z	5	practice_z	29	stimuli_target_diamondsquares.svg	stimuli_distractor_diamondtriangles.svg	3	yes	44	1	1658
6.6.1	win	2022-12-19	16:39:45	16:48:55	548187	5c5a19299404f10001ff8cbf	664504128	1	practice_z	5	advance_on_keypress_ZEE	30	stimuli_target_diamondsquares.svg	stimuli_distractor_diamondtriangles.svg	3	yes	57	0	341
6.6.1	win	2022-12-19	16:39:45	16:48:58	551262	5c5a19299404f10001ff8cbf	664504128	1	practice_z	5	practice_z	31	stimuli_distractor_trianglediamonds.svg	stimuli_target_circlediamonds.svg	10	yes	44	1	1088
6.6.1	win	2022-12-19	16:39:45	16:48:58	551262	5c5a19299404f10001ff8cbf	664504128	1	practice_z	5	advance_on_keypress_ZEE	32	stimuli_distractor_trianglediamonds.svg	stimuli_target_circlediamonds.svg	10	yes	57	0	500
6.6.1	win	2022-12-19	16:39:45	16:49:03	556265	5c5a19299404f10001ff8cbf	664504128	1	main_z	7	main_z	1	stimuli_distractor_diamondtriangles.svg	stimuli_target_squaretriangles.svg	15	yes	44	1	1099
6.6.1	win	2022-12-19	16:39:45	16:49:03	556265	5c5a19299404f10001ff8cbf	664504128	1	main_z	7	advance_on_keypress_ZEE	2	stimuli_distractor_diamondtriangles.svg	stimuli_target_squaretriangles.svg	15	yes	57	0	726
6.6.1	win	2022-12-19	16:39:45	16:49:06	559630	5c5a19299404f10001ff8cbf	664504128	1	main_z	7	main_z	3	stimuli_distractor_trianglediamonds.svg	stimuli_distractor_trianglediamonds.svg	33	no	0	1	2000
6.6.1	win	2022-12-19	16:39:45	16:49:06	559630	5c5a19299404f10001ff8cbf	664504128	1	main_z	7	advance_on_keypress_ZEE	4	stimuli_distractor_trianglediamonds.svg	stimuli_distractor_trianglediamonds.svg	33	no	57	0	322
6.6.1	win	2022-12-19	16:39:45	16:49:09	562594	5c5a19299404f10001ff8cbf	664504128	1	main_z	7	main_z	5	stimuli_target_circletriangles.svg	stimuli_distractor_diamondtriangles.svg	5	yes	0	0	2000
6.6.1	win	2022-12-19	16:39:45	16:49:09	562594	5c5a19299404f10001ff8cbf	664504128	1	main_z	7	advance_on_keypress_ZEE	6	stimuli_target_circletriangles.svg	stimuli_distractor_diamondtriangles.svg	5	yes	57	0	330
6.6.1	win	2022-12-19	16:39:45	16:49:11	564709	5c5a19299404f10001ff8cbf	664504128	1	main_z	7	main_z	7	stimuli_distractor_trianglediamonds.svg	stimuli_target_diamondsquares.svg	28	yes	44	1	1135
6.6.1	win	2022-12-19	16:39:45	16:49:11	564709	5c5a19299404f10001ff8cbf	664504128	1	main_z	7	advance_on_keypress_ZEE	8	stimuli_distractor_trianglediamonds.svg	stimuli_target_diamondsquares.svg	28	yes	57	0	1709
6.6.1	win	2022-12-19	16:39:45	16:49:16	569054	5c5a19299404f10001ff8cbf	664504128	1	main_z	7	main_z	9	stimuli_distractor_diamondtriangles.svg	stimuli_target_diamondsquares.svg	32	yes	0	0	2000
6.6.1	win	2022-12-19	16:39:45	16:49:16	569054	5c5a19299404f10001ff8cbf	664504128	1	main_z	7	advance_on_keypress_ZEE	10	stimuli_distractor_diamondtriangles.svg	stimuli_target_diamondsquares.svg	32	yes	57	0	250
6.6.1	win	2022-12-19	16:39:45	16:49:17	570247	5c5a19299404f10001ff8cbf	664504128	1	main_z	7	main_z	11	stimuli_distractor_trianglediamonds.svg	stimuli_target_circletriangles.svg	9	yes	44	1	297
6.6.1	win	2022-12-19	16:39:45	16:49:17	570247	5c5a19299404f10001ff8cbf	664504128	1	main_z	7	advance_on_keypress_ZEE	12	stimuli_distractor_trianglediamonds.svg	stimuli_target_circletriangles.svg	9	yes	57	0	943
6.6.1	win	2022-12-19	16:39:45	16:49:19	572230	5c5a19299404f10001ff8cbf	664504128	1	main_z	7	main_z	13	stimuli_target_squarediamonds.svg	stimuli_distractor_trianglediamonds.svg	4	yes	44	1	369
6.6.1	win	2022-12-19	16:39:45	16:49:19	572230	5c5a19299404f10001ff8cbf	664504128	1	main_z	7	advance_on_keypress_ZEE	14	stimuli_target_squarediamonds.svg	stimuli_distractor_trianglediamonds.svg	4	yes	57	0	745
6.6.1	win	2022-12-19	16:39:45	16:49:21	574296	5c5a19299404f10001ff8cbf	664504128	1	main_z	7	main_z	15	stimuli_distractor_trianglediamonds.svg	stimuli_target_trianglecircles.svg	25	yes	44	1	666
6.6.1	win	2022-12-19	16:39:45	16:49:21	574296	5c5a19299404f10001ff8cbf	664504128	1	main_z	7	advance_on_keypress_ZEE	16	stimuli_distractor_trianglediamonds.svg	stimuli_target_trianglecircles.svg	25	yes	57	0	596
6.6.1	win	2022-12-19	16:39:45	16:49:23	576354	5c5a19299404f10001ff8cbf	664504128	1	main_z	7	main_z	17	stimuli_target_diamondsquares.svg	stimuli_distractor_trianglediamonds.svg	20	yes	44	1	808
6.6.1	win	2022-12-19	16:39:45	16:49:23	576354	5c5a19299404f10001ff8cbf	664504128	1	main_z	7	advance_on_keypress_ZEE	18	stimuli_target_diamondsquares.svg	stimuli_distractor_trianglediamonds.svg	20	yes	57	0	582
6.6.1	win	2022-12-19	16:39:45	16:49:26	579593	5c5a19299404f10001ff8cbf	664504128	1	main_z	7	main_z	19	stimuli_distractor_trianglediamonds.svg	stimuli_target_trianglesquares.svg	26	yes	0	0	2000
6.6.1	win	2022-12-19	16:39:45	16:49:26	579593	5c5a19299404f10001ff8cbf	664504128	1	main_z	7	advance_on_keypress_ZEE	20	stimuli_distractor_trianglediamonds.svg	stimuli_target_trianglesquares.svg	26	yes	57	0	379
6.6.1	win	2022-12-19	16:39:45	16:49:28	581021	5c5a19299404f10001ff8cbf	664504128	1	main_z	7	main_z	21	stimuli_distractor_diamondtriangles.svg	stimuli_target_diamondcircles.svg	31	yes	44	1	397
6.6.1	win	2022-12-19	16:39:45	16:49:28	581021	5c5a19299404f10001ff8cbf	664504128	1	main_z	7	advance_on_keypress_ZEE	22	stimuli_distractor_diamondtriangles.svg	stimuli_target_diamondcircles.svg	31	yes	57	0	713
6.6.1	win	2022-12-19	16:39:45	16:49:29	582863	5c5a19299404f10001ff8cbf	664504128	1	main_z	7	main_z	23	stimuli_target_diamondcircles.svg	stimuli_distractor_diamondtriangles.svg	23	yes	44	1	476
6.6.1	win	2022-12-19	16:39:45	16:49:29	582863	5c5a19299404f10001ff8cbf	664504128	1	main_z	7	advance_on_keypress_ZEE	24	stimuli_target_diamondcircles.svg	stimuli_distractor_diamondtriangles.svg	23	yes	57	0	559
6.6.1	win	2022-12-19	16:39:45	16:49:31	584382	5c5a19299404f10001ff8cbf	664504128	1	main_z	7	main_z	25	stimuli_target_trianglecircles.svg	stimuli_distractor_trianglediamonds.svg	17	yes	44	1	329
6.6.1	win	2022-12-19	16:39:45	16:49:31	584382	5c5a19299404f10001ff8cbf	664504128	1	main_z	7	advance_on_keypress_ZEE	26	stimuli_target_trianglecircles.svg	stimuli_distractor_trianglediamonds.svg	17	yes	57	0	481
6.6.1	win	2022-12-19	16:39:45	16:49:34	587518	5c5a19299404f10001ff8cbf	664504128	1	main_z	7	main_z	27	stimuli_distractor_diamondtriangles.svg	stimuli_distractor_diamondtriangles.svg	40	no	0	1	2000
6.6.1	win	2022-12-19	16:39:45	16:49:34	587518	5c5a19299404f10001ff8cbf	664504128	1	main_z	7	advance_on_keypress_ZEE	28	stimuli_distractor_diamondtriangles.svg	stimuli_distractor_diamondtriangles.svg	40	no	57	0	283
6.6.1	win	2022-12-19	16:39:45	16:49:35	588763	5c5a19299404f10001ff8cbf	664504128	1	main_z	7	main_z	29	stimuli_target_squaretriangles.svg	stimuli_distractor_trianglediamonds.svg	3	yes	44	1	315
6.6.1	win	2022-12-19	16:39:45	16:49:35	588763	5c5a19299404f10001ff8cbf	664504128	1	main_z	7	advance_on_keypress_ZEE	30	stimuli_target_squaretriangles.svg	stimuli_distractor_trianglediamonds.svg	3	yes	57	0	891
6.6.1	win	2022-12-19	16:39:45	16:49:37	590735	5c5a19299404f10001ff8cbf	664504128	1	main_z	7	main_z	31	stimuli_distractor_trianglediamonds.svg	stimuli_distractor_trianglediamonds.svg	34	no	44	0	438
6.6.1	win	2022-12-19	16:39:45	16:49:37	590735	5c5a19299404f10001ff8cbf	664504128	1	main_z	7	advance_on_keypress_ZEE	32	stimuli_distractor_trianglediamonds.svg	stimuli_distractor_trianglediamonds.svg	34	no	57	0	503
6.6.1	win	2022-12-19	16:39:45	16:49:39	592336	5c5a19299404f10001ff8cbf	664504128	1	main_z	7	main_z	33	stimuli_target_trianglesquares.svg	stimuli_distractor_diamondtriangles.svg	22	yes	44	1	456
6.6.1	win	2022-12-19	16:39:45	16:49:39	592336	5c5a19299404f10001ff8cbf	664504128	1	main_z	7	advance_on_keypress_ZEE	34	stimuli_target_trianglesquares.svg	stimuli_distractor_diamondtriangles.svg	22	yes	57	0	507
6.6.1	win	2022-12-19	16:39:45	16:49:40	593803	5c5a19299404f10001ff8cbf	664504128	1	main_z	7	main_z	35	stimuli_target_diamondcircles.svg	stimuli_distractor_trianglediamonds.svg	19	yes	44	1	326
6.6.1	win	2022-12-19	16:39:45	16:49:40	593803	5c5a19299404f10001ff8cbf	664504128	1	main_z	7	advance_on_keypress_ZEE	36	stimuli_target_diamondcircles.svg	stimuli_distractor_trianglediamonds.svg	19	yes	57	0	437
6.6.1	win	2022-12-19	16:39:45	16:49:42	595256	5c5a19299404f10001ff8cbf	664504128	1	main_z	7	main_z	37	stimuli_distractor_trianglediamonds.svg	stimuli_distractor_diamondtriangles.svg	35	no	44	0	369
6.6.1	win	2022-12-19	16:39:45	16:49:42	595256	5c5a19299404f10001ff8cbf	664504128	1	main_z	7	advance_on_keypress_ZEE	38	stimuli_distractor_trianglediamonds.svg	stimuli_distractor_diamondtriangles.svg	35	no	57	0	423
6.6.1	win	2022-12-19	16:39:45	16:49:44	597912	5c5a19299404f10001ff8cbf	664504128	1	main_z	7	main_z	39	stimuli_distractor_diamondtriangles.svg	stimuli_target_squarediamonds.svg	16	yes	44	1	1588
6.6.1	win	2022-12-19	16:39:45	16:49:44	597912	5c5a19299404f10001ff8cbf	664504128	1	main_z	7	advance_on_keypress_ZEE	40	stimuli_distractor_diamondtriangles.svg	stimuli_target_squarediamonds.svg	16	yes	57	0	476
6.6.1	win	2022-12-19	16:39:45	16:49:46	599440	5c5a19299404f10001ff8cbf	664504128	1	main_z	7	main_z	41	stimuli_distractor_trianglediamonds.svg	stimuli_target_diamondcircles.svg	27	yes	44	1	420
6.6.1	win	2022-12-19	16:39:45	16:49:46	599440	5c5a19299404f10001ff8cbf	664504128	1	main_z	7	advance_on_keypress_ZEE	42	stimuli_distractor_trianglediamonds.svg	stimuli_target_diamondcircles.svg	27	yes	57	0	460
6.6.1	win	2022-12-19	16:39:45	16:49:48	600993	5c5a19299404f10001ff8cbf	664504128	1	main_z	7	main_z	43	stimuli_target_diamondsquares.svg	stimuli_distractor_diamondtriangles.svg	24	yes	44	1	441
6.6.1	win	2022-12-19	16:39:45	16:49:48	600993	5c5a19299404f10001ff8cbf	664504128	1	main_z	7	advance_on_keypress_ZEE	44	stimuli_target_diamondsquares.svg	stimuli_distractor_diamondtriangles.svg	24	yes	57	0	461
6.6.1	win	2022-12-19	16:39:45	16:49:49	602482	5c5a19299404f10001ff8cbf	664504128	1	main_z	7	main_z	45	stimuli_target_trianglesquares.svg	stimuli_distractor_trianglediamonds.svg	18	yes	44	1	381
6.6.1	win	2022-12-19	16:39:45	16:49:49	602482	5c5a19299404f10001ff8cbf	664504128	1	main_z	7	advance_on_keypress_ZEE	46	stimuli_target_trianglesquares.svg	stimuli_distractor_trianglediamonds.svg	18	yes	57	0	438
6.6.1	win	2022-12-19	16:39:45	16:49:51	604229	5c5a19299404f10001ff8cbf	664504128	1	main_z	7	main_z	47	stimuli_target_squarediamonds.svg	stimuli_distractor_diamondtriangles.svg	8	yes	44	1	663
6.6.1	win	2022-12-19	16:39:45	16:49:51	604229	5c5a19299404f10001ff8cbf	664504128	1	main_z	7	advance_on_keypress_ZEE	48	stimuli_target_squarediamonds.svg	stimuli_distractor_diamondtriangles.svg	8	yes	57	0	612
6.6.1	win	2022-12-19	16:39:45	16:49:53	606423	5c5a19299404f10001ff8cbf	664504128	1	main_z	7	main_z	49	stimuli_target_circletriangles.svg	stimuli_distractor_trianglediamonds.svg	1	yes	44	1	925
6.6.1	win	2022-12-19	16:39:45	16:49:53	606423	5c5a19299404f10001ff8cbf	664504128	1	main_z	7	advance_on_keypress_ZEE	50	stimuli_target_circletriangles.svg	stimuli_distractor_trianglediamonds.svg	1	yes	57	0	559
6.6.1	win	2022-12-19	16:39:45	16:49:56	609612	5c5a19299404f10001ff8cbf	664504128	1	main_z	7	main_z	51	stimuli_distractor_diamondtriangles.svg	stimuli_distractor_diamondtriangles.svg	39	no	0	1	2000
6.6.1	win	2022-12-19	16:39:45	16:49:56	609612	5c5a19299404f10001ff8cbf	664504128	1	main_z	7	advance_on_keypress_ZEE	52	stimuli_distractor_diamondtriangles.svg	stimuli_distractor_diamondtriangles.svg	39	no	57	0	279
6.6.1	win	2022-12-19	16:39:45	16:49:58	611120	5c5a19299404f10001ff8cbf	664504128	1	main_z	7	main_z	53	stimuli_distractor_diamondtriangles.svg	stimuli_target_circletriangles.svg	13	yes	44	1	595
6.6.1	win	2022-12-19	16:39:45	16:49:58	611120	5c5a19299404f10001ff8cbf	664504128	1	main_z	7	advance_on_keypress_ZEE	54	stimuli_distractor_diamondtriangles.svg	stimuli_target_circletriangles.svg	13	yes	57	0	518
6.6.1	win	2022-12-19	16:39:45	16:49:59	612713	5c5a19299404f10001ff8cbf	664504128	1	main_z	7	main_z	55	stimuli_target_circlediamonds.svg	stimuli_distractor_diamondtriangles.svg	6	yes	44	1	422
6.6.1	win	2022-12-19	16:39:45	16:49:59	612713	5c5a19299404f10001ff8cbf	664504128	1	main_z	7	advance_on_keypress_ZEE	56	stimuli_target_circlediamonds.svg	stimuli_distractor_diamondtriangles.svg	6	yes	57	0	418
6.6.1	win	2022-12-19	16:39:45	16:50:02	615772	5c5a19299404f10001ff8cbf	664504128	1	main_z	7	main_z	57	stimuli_distractor_diamondtriangles.svg	stimuli_distractor_trianglediamonds.svg	38	no	0	1	2000
6.6.1	win	2022-12-19	16:39:45	16:50:02	615772	5c5a19299404f10001ff8cbf	664504128	1	main_z	7	advance_on_keypress_ZEE	58	stimuli_distractor_diamondtriangles.svg	stimuli_distractor_trianglediamonds.svg	38	no	57	0	255
6.6.1	win	2022-12-19	16:39:45	16:50:05	618669	5c5a19299404f10001ff8cbf	664504128	1	main_z	7	main_z	59	stimuli_distractor_trianglediamonds.svg	stimuli_distractor_diamondtriangles.svg	36	no	0	1	2000
6.6.1	win	2022-12-19	16:39:45	16:50:05	618669	5c5a19299404f10001ff8cbf	664504128	1	main_z	7	advance_on_keypress_ZEE	60	stimuli_distractor_trianglediamonds.svg	stimuli_distractor_diamondtriangles.svg	36	no	57	0	288
6.6.1	win	2022-12-19	16:39:45	16:50:07	619988	5c5a19299404f10001ff8cbf	664504128	1	main_z	7	main_z	61	stimuli_distractor_diamondtriangles.svg	stimuli_distractor_trianglediamonds.svg	37	no	44	0	389
6.6.1	win	2022-12-19	16:39:45	16:50:07	619988	5c5a19299404f10001ff8cbf	664504128	1	main_z	7	advance_on_keypress_ZEE	62	stimuli_distractor_diamondtriangles.svg	stimuli_distractor_trianglediamonds.svg	37	no	57	0	553
6.6.1	win	2022-12-19	16:39:45	16:50:08	621821	5c5a19299404f10001ff8cbf	664504128	1	main_z	7	main_z	63	stimuli_distractor_trianglediamonds.svg	stimuli_target_circlediamonds.svg	10	yes	44	1	641
6.6.1	win	2022-12-19	16:39:45	16:50:08	621821	5c5a19299404f10001ff8cbf	664504128	1	main_z	7	advance_on_keypress_ZEE	64	stimuli_distractor_trianglediamonds.svg	stimuli_target_circlediamonds.svg	10	yes	57	0	475
6.6.1	win	2022-12-19	16:39:45	16:50:10	623294	5c5a19299404f10001ff8cbf	664504128	1	main_z	7	main_z	65	stimuli_target_circlediamonds.svg	stimuli_distractor_trianglediamonds.svg	2	yes	44	1	364
6.6.1	win	2022-12-19	16:39:45	16:50:10	623294	5c5a19299404f10001ff8cbf	664504128	1	main_z	7	advance_on_keypress_ZEE	66	stimuli_target_circlediamonds.svg	stimuli_distractor_trianglediamonds.svg	2	yes	57	0	456
6.6.1	win	2022-12-19	16:39:45	16:50:11	624728	5c5a19299404f10001ff8cbf	664504128	1	main_z	7	main_z	67	stimuli_distractor_trianglediamonds.svg	stimuli_target_squarediamonds.svg	12	yes	44	1	334
6.6.1	win	2022-12-19	16:39:45	16:50:11	624728	5c5a19299404f10001ff8cbf	664504128	1	main_z	7	advance_on_keypress_ZEE	68	stimuli_distractor_trianglediamonds.svg	stimuli_target_squarediamonds.svg	12	yes	57	0	522
6.6.1	win	2022-12-19	16:39:45	16:50:13	626430	5c5a19299404f10001ff8cbf	664504128	1	main_z	7	main_z	69	stimuli_distractor_trianglediamonds.svg	stimuli_target_squaretriangles.svg	11	yes	44	1	537
6.6.1	win	2022-12-19	16:39:45	16:50:13	626430	5c5a19299404f10001ff8cbf	664504128	1	main_z	7	advance_on_keypress_ZEE	70	stimuli_distractor_trianglediamonds.svg	stimuli_target_squaretriangles.svg	11	yes	57	0	419
6.6.1	win	2022-12-19	16:39:45	16:50:14	627974	5c5a19299404f10001ff8cbf	664504128	1	main_z	7	main_z	71	stimuli_distractor_diamondtriangles.svg	stimuli_target_circlediamonds.svg	14	yes	44	1	483
6.6.1	win	2022-12-19	16:39:45	16:50:14	627974	5c5a19299404f10001ff8cbf	664504128	1	main_z	7	advance_on_keypress_ZEE	72	stimuli_distractor_diamondtriangles.svg	stimuli_target_circlediamonds.svg	14	yes	57	0	370
6.6.1	win	2022-12-19	16:39:45	16:50:16	629487	5c5a19299404f10001ff8cbf	664504128	1	main_z	7	main_z	73	stimuli_target_squaretriangles.svg	stimuli_distractor_diamondtriangles.svg	7	yes	44	1	498
6.6.1	win	2022-12-19	16:39:45	16:50:16	629487	5c5a19299404f10001ff8cbf	664504128	1	main_z	7	advance_on_keypress_ZEE	74	stimuli_target_squaretriangles.svg	stimuli_distractor_diamondtriangles.svg	7	yes	57	0	355
6.6.1	win	2022-12-19	16:39:45	16:50:19	632488	5c5a19299404f10001ff8cbf	664504128	1	main_z	7	main_z	75	stimuli_distractor_diamondtriangles.svg	stimuli_target_trianglesquares.svg	30	yes	0	0	2000
6.6.1	win	2022-12-19	16:39:45	16:50:19	632488	5c5a19299404f10001ff8cbf	664504128	1	main_z	7	advance_on_keypress_ZEE	76	stimuli_distractor_diamondtriangles.svg	stimuli_target_trianglesquares.svg	30	yes	57	0	292
6.6.1	win	2022-12-19	16:39:45	16:50:20	633811	5c5a19299404f10001ff8cbf	664504128	1	main_z	7	main_z	77	stimuli_distractor_diamondtriangles.svg	stimuli_target_trianglecircles.svg	29	yes	44	1	393
6.6.1	win	2022-12-19	16:39:45	16:50:20	633811	5c5a19299404f10001ff8cbf	664504128	1	main_z	7	advance_on_keypress_ZEE	78	stimuli_distractor_diamondtriangles.svg	stimuli_target_trianglecircles.svg	29	yes	57	0	495
6.6.1	win	2022-12-19	16:39:45	16:50:22	635513	5c5a19299404f10001ff8cbf	664504128	1	main_z	7	main_z	79	stimuli_target_trianglecircles.svg	stimuli_distractor_diamondtriangles.svg	21	yes	44	1	562
6.6.1	win	2022-12-19	16:39:45	16:50:22	635513	5c5a19299404f10001ff8cbf	664504128	1	main_z	7	advance_on_keypress_ZEE	80	stimuli_target_trianglecircles.svg	stimuli_distractor_diamondtriangles.svg	21	yes	57	0	408
6.6.1	win	2022-12-19	16:39:45	16:50:24	637133	5c5a19299404f10001ff8cbf	664504128	1	main_z	7	main_z	81	stimuli_distractor_trianglediamonds.svg	stimuli_target_circlediamonds.svg	10	yes	44	1	569
6.6.1	win	2022-12-19	16:39:45	16:50:24	637133	5c5a19299404f10001ff8cbf	664504128	1	main_z	7	advance_on_keypress_ZEE	82	stimuli_distractor_trianglediamonds.svg	stimuli_target_circlediamonds.svg	10	yes	57	0	436
6.6.1	win	2022-12-19	16:39:45	16:50:25	638733	5c5a19299404f10001ff8cbf	664504128	1	main_z	7	main_z	83	stimuli_distractor_trianglediamonds.svg	stimuli_target_trianglecircles.svg	25	yes	44	1	519
6.6.1	win	2022-12-19	16:39:45	16:50:25	638733	5c5a19299404f10001ff8cbf	664504128	1	main_z	7	advance_on_keypress_ZEE	84	stimuli_distractor_trianglediamonds.svg	stimuli_target_trianglecircles.svg	25	yes	57	0	384
6.6.1	win	2022-12-19	16:39:45	16:50:28	641761	5c5a19299404f10001ff8cbf	664504128	1	main_z	7	main_z	85	stimuli_distractor_diamondtriangles.svg	stimuli_distractor_diamondtriangles.svg	40	no	0	1	2000
6.6.1	win	2022-12-19	16:39:45	16:50:28	641761	5c5a19299404f10001ff8cbf	664504128	1	main_z	7	advance_on_keypress_ZEE	86	stimuli_distractor_diamondtriangles.svg	stimuli_distractor_diamondtriangles.svg	40	no	57	0	307
6.6.1	win	2022-12-19	16:39:45	16:50:31	644708	5c5a19299404f10001ff8cbf	664504128	1	main_z	7	main_z	87	stimuli_distractor_trianglediamonds.svg	stimuli_distractor_diamondtriangles.svg	36	no	0	1	2000
6.6.1	win	2022-12-19	16:39:45	16:50:31	644708	5c5a19299404f10001ff8cbf	664504128	1	main_z	7	advance_on_keypress_ZEE	88	stimuli_distractor_trianglediamonds.svg	stimuli_distractor_diamondtriangles.svg	36	no	57	0	254
6.6.1	win	2022-12-19	16:39:45	16:50:33	646017	5c5a19299404f10001ff8cbf	664504128	1	main_z	7	main_z	89	stimuli_distractor_trianglediamonds.svg	stimuli_target_diamondsquares.svg	28	yes	44	1	412
6.6.1	win	2022-12-19	16:39:45	16:50:33	646017	5c5a19299404f10001ff8cbf	664504128	1	main_z	7	advance_on_keypress_ZEE	90	stimuli_distractor_trianglediamonds.svg	stimuli_target_diamondsquares.svg	28	yes	57	0	467
6.6.1	win	2022-12-19	16:39:45	16:50:34	647651	5c5a19299404f10001ff8cbf	664504128	1	main_z	7	main_z	91	stimuli_target_squaretriangles.svg	stimuli_distractor_diamondtriangles.svg	7	yes	44	1	503
6.6.1	win	2022-12-19	16:39:45	16:50:34	647651	5c5a19299404f10001ff8cbf	664504128	1	main_z	7	advance_on_keypress_ZEE	92	stimuli_target_squaretriangles.svg	stimuli_distractor_diamondtriangles.svg	7	yes	57	0	427
6.6.1	win	2022-12-19	16:39:45	16:50:36	649160	5c5a19299404f10001ff8cbf	664504128	1	main_z	7	main_z	93	stimuli_distractor_diamondtriangles.svg	stimuli_target_squaretriangles.svg	15	yes	44	1	424
6.6.1	win	2022-12-19	16:39:45	16:50:36	649160	5c5a19299404f10001ff8cbf	664504128	1	main_z	7	advance_on_keypress_ZEE	94	stimuli_distractor_diamondtriangles.svg	stimuli_target_squaretriangles.svg	15	yes	57	0	467
6.6.1	win	2022-12-19	16:39:45	16:50:37	650691	5c5a19299404f10001ff8cbf	664504128	1	main_z	7	main_z	95	stimuli_target_squarediamonds.svg	stimuli_distractor_diamondtriangles.svg	8	yes	44	1	423
6.6.1	win	2022-12-19	16:39:45	16:50:37	650691	5c5a19299404f10001ff8cbf	664504128	1	main_z	7	advance_on_keypress_ZEE	96	stimuli_target_squarediamonds.svg	stimuli_distractor_diamondtriangles.svg	8	yes	57	0	570
6.6.1	win	2022-12-19	16:39:45	16:50:39	652339	5c5a19299404f10001ff8cbf	664504128	1	main_z	7	main_z	97	stimuli_distractor_diamondtriangles.svg	stimuli_target_trianglecircles.svg	29	yes	44	1	441
6.6.1	win	2022-12-19	16:39:45	16:50:39	652339	5c5a19299404f10001ff8cbf	664504128	1	main_z	7	advance_on_keypress_ZEE	98	stimuli_distractor_diamondtriangles.svg	stimuli_target_trianglecircles.svg	29	yes	57	0	556
6.6.1	win	2022-12-19	16:39:45	16:50:40	653928	5c5a19299404f10001ff8cbf	664504128	1	main_z	7	main_z	99	stimuli_distractor_diamondtriangles.svg	stimuli_target_diamondsquares.svg	32	yes	44	1	398
6.6.1	win	2022-12-19	16:39:45	16:50:40	653928	5c5a19299404f10001ff8cbf	664504128	1	main_z	7	advance_on_keypress_ZEE	100	stimuli_distractor_diamondtriangles.svg	stimuli_target_diamondsquares.svg	32	yes	57	0	420
6.6.1	win	2022-12-19	16:39:45	16:50:43	655996	5c5a19299404f10001ff8cbf	664504128	1	main_z	7	main_z	101	stimuli_distractor_trianglediamonds.svg	stimuli_target_diamondcircles.svg	27	yes	44	1	1001
6.6.1	win	2022-12-19	16:39:45	16:50:43	655996	5c5a19299404f10001ff8cbf	664504128	1	main_z	7	advance_on_keypress_ZEE	102	stimuli_distractor_trianglediamonds.svg	stimuli_target_diamondcircles.svg	27	yes	57	0	354
6.6.1	win	2022-12-19	16:39:45	16:50:44	657475	5c5a19299404f10001ff8cbf	664504128	1	main_z	7	main_z	103	stimuli_target_diamondcircles.svg	stimuli_distractor_diamondtriangles.svg	23	yes	44	1	481
6.6.1	win	2022-12-19	16:39:45	16:50:44	657475	5c5a19299404f10001ff8cbf	664504128	1	main_z	7	advance_on_keypress_ZEE	104	stimuli_target_diamondcircles.svg	stimuli_distractor_diamondtriangles.svg	23	yes	57	0	358
6.6.1	win	2022-12-19	16:39:45	16:50:45	658921	5c5a19299404f10001ff8cbf	664504128	1	main_z	7	main_z	105	stimuli_target_trianglesquares.svg	stimuli_distractor_diamondtriangles.svg	22	yes	44	1	445
6.6.1	win	2022-12-19	16:39:45	16:50:45	658921	5c5a19299404f10001ff8cbf	664504128	1	main_z	7	advance_on_keypress_ZEE	106	stimuli_target_trianglesquares.svg	stimuli_distractor_diamondtriangles.svg	22	yes	57	0	378
6.6.1	win	2022-12-19	16:39:45	16:50:47	660343	5c5a19299404f10001ff8cbf	664504128	1	main_z	7	main_z	107	stimuli_distractor_trianglediamonds.svg	stimuli_target_trianglesquares.svg	26	yes	44	1	384
6.6.1	win	2022-12-19	16:39:45	16:50:47	660343	5c5a19299404f10001ff8cbf	664504128	1	main_z	7	advance_on_keypress_ZEE	108	stimuli_distractor_trianglediamonds.svg	stimuli_target_trianglesquares.svg	26	yes	57	0	382
6.6.1	win	2022-12-19	16:39:45	16:50:48	661828	5c5a19299404f10001ff8cbf	664504128	1	main_z	7	main_z	109	stimuli_target_diamondsquares.svg	stimuli_distractor_trianglediamonds.svg	20	yes	44	1	455
6.6.1	win	2022-12-19	16:39:45	16:50:48	661828	5c5a19299404f10001ff8cbf	664504128	1	main_z	7	advance_on_keypress_ZEE	110	stimuli_target_diamondsquares.svg	stimuli_distractor_trianglediamonds.svg	20	yes	57	0	382
6.6.1	win	2022-12-19	16:39:45	16:50:51	664854	5c5a19299404f10001ff8cbf	664504128	1	main_z	7	main_z	111	stimuli_distractor_diamondtriangles.svg	stimuli_distractor_trianglediamonds.svg	37	no	0	1	2000
6.6.1	win	2022-12-19	16:39:45	16:50:51	664854	5c5a19299404f10001ff8cbf	664504128	1	main_z	7	advance_on_keypress_ZEE	112	stimuli_distractor_diamondtriangles.svg	stimuli_distractor_trianglediamonds.svg	37	no	57	0	339
6.6.1	win	2022-12-19	16:39:45	16:50:53	666384	5c5a19299404f10001ff8cbf	664504128	1	main_z	7	main_z	113	stimuli_distractor_trianglediamonds.svg	stimuli_target_squaretriangles.svg	11	yes	44	1	550
6.6.1	win	2022-12-19	16:39:45	16:50:53	666384	5c5a19299404f10001ff8cbf	664504128	1	main_z	7	advance_on_keypress_ZEE	114	stimuli_distractor_trianglediamonds.svg	stimuli_target_squaretriangles.svg	11	yes	57	0	426
6.6.1	win	2022-12-19	16:39:45	16:50:54	667904	5c5a19299404f10001ff8cbf	664504128	1	main_z	7	main_z	115	stimuli_target_circletriangles.svg	stimuli_distractor_trianglediamonds.svg	1	yes	44	1	455
6.6.1	win	2022-12-19	16:39:45	16:50:54	667904	5c5a19299404f10001ff8cbf	664504128	1	main_z	7	advance_on_keypress_ZEE	116	stimuli_target_circletriangles.svg	stimuli_distractor_trianglediamonds.svg	1	yes	57	0	437
6.6.1	win	2022-12-19	16:39:45	16:50:57	670981	5c5a19299404f10001ff8cbf	664504128	1	main_z	7	main_z	117	stimuli_target_diamondsquares.svg	stimuli_distractor_diamondtriangles.svg	24	yes	0	0	2000
6.6.1	win	2022-12-19	16:39:45	16:50:57	670981	5c5a19299404f10001ff8cbf	664504128	1	main_z	7	advance_on_keypress_ZEE	118	stimuli_target_diamondsquares.svg	stimuli_distractor_diamondtriangles.svg	24	yes	57	0	359
6.6.1	win	2022-12-19	16:39:45	16:51:00	673978	5c5a19299404f10001ff8cbf	664504128	1	main_z	7	main_z	119	stimuli_distractor_diamondtriangles.svg	stimuli_distractor_diamondtriangles.svg	39	no	0	1	2000
6.6.1	win	2022-12-19	16:39:45	16:51:00	673978	5c5a19299404f10001ff8cbf	664504128	1	main_z	7	advance_on_keypress_ZEE	120	stimuli_distractor_diamondtriangles.svg	stimuli_distractor_diamondtriangles.svg	39	no	57	0	296
6.6.1	win	2022-12-19	16:39:45	16:51:02	675559	5c5a19299404f10001ff8cbf	664504128	1	main_z	7	main_z	121	stimuli_distractor_diamondtriangles.svg	stimuli_target_squarediamonds.svg	16	yes	44	1	635
6.6.1	win	2022-12-19	16:39:45	16:51:02	675559	5c5a19299404f10001ff8cbf	664504128	1	main_z	7	advance_on_keypress_ZEE	122	stimuli_distractor_diamondtriangles.svg	stimuli_target_squarediamonds.svg	16	yes	57	0	412
6.6.1	win	2022-12-19	16:39:45	16:51:04	677049	5c5a19299404f10001ff8cbf	664504128	1	main_z	7	main_z	123	stimuli_target_circletriangles.svg	stimuli_distractor_diamondtriangles.svg	5	yes	44	1	425
6.6.1	win	2022-12-19	16:39:45	16:51:04	677049	5c5a19299404f10001ff8cbf	664504128	1	main_z	7	advance_on_keypress_ZEE	124	stimuli_target_circletriangles.svg	stimuli_distractor_diamondtriangles.svg	5	yes	57	0	775
6.6.1	win	2022-12-19	16:39:45	16:51:05	678916	5c5a19299404f10001ff8cbf	664504128	1	main_z	7	main_z	125	stimuli_target_squaretriangles.svg	stimuli_distractor_trianglediamonds.svg	3	yes	44	1	461
6.6.1	win	2022-12-19	16:39:45	16:51:05	678916	5c5a19299404f10001ff8cbf	664504128	1	main_z	7	advance_on_keypress_ZEE	126	stimuli_target_squaretriangles.svg	stimuli_distractor_trianglediamonds.svg	3	yes	57	0	531
6.6.1	win	2022-12-19	16:39:45	16:51:07	680778	5c5a19299404f10001ff8cbf	664504128	1	main_z	7	main_z	127	stimuli_distractor_diamondtriangles.svg	stimuli_target_trianglesquares.svg	30	yes	44	1	676
6.6.1	win	2022-12-19	16:39:45	16:51:07	680778	5c5a19299404f10001ff8cbf	664504128	1	main_z	7	advance_on_keypress_ZEE	128	stimuli_distractor_diamondtriangles.svg	stimuli_target_trianglesquares.svg	30	yes	57	0	774
6.6.1	win	2022-12-19	16:39:45	16:51:09	682641	5c5a19299404f10001ff8cbf	664504128	1	main_z	7	main_z	129	stimuli_target_trianglecircles.svg	stimuli_distractor_trianglediamonds.svg	17	yes	44	1	456
6.6.1	win	2022-12-19	16:39:45	16:51:09	682641	5c5a19299404f10001ff8cbf	664504128	1	main_z	7	advance_on_keypress_ZEE	130	stimuli_target_trianglecircles.svg	stimuli_distractor_trianglediamonds.svg	17	yes	57	0	447
6.6.1	win	2022-12-19	16:39:45	16:51:11	684099	5c5a19299404f10001ff8cbf	664504128	1	main_z	7	main_z	131	stimuli_target_circlediamonds.svg	stimuli_distractor_diamondtriangles.svg	6	yes	44	1	366
6.6.1	win	2022-12-19	16:39:45	16:51:11	684099	5c5a19299404f10001ff8cbf	664504128	1	main_z	7	advance_on_keypress_ZEE	132	stimuli_target_circlediamonds.svg	stimuli_distractor_diamondtriangles.svg	6	yes	57	0	676
6.6.1	win	2022-12-19	16:39:45	16:51:13	686271	5c5a19299404f10001ff8cbf	664504128	1	main_z	7	main_z	133	stimuli_distractor_trianglediamonds.svg	stimuli_distractor_trianglediamonds.svg	33	no	44	0	857
6.6.1	win	2022-12-19	16:39:45	16:51:13	686271	5c5a19299404f10001ff8cbf	664504128	1	main_z	7	advance_on_keypress_ZEE	134	stimuli_distractor_trianglediamonds.svg	stimuli_distractor_trianglediamonds.svg	33	no	57	0	489
6.6.1	win	2022-12-19	16:39:45	16:51:15	688067	5c5a19299404f10001ff8cbf	664504128	1	main_z	7	main_z	135	stimuli_distractor_trianglediamonds.svg	stimuli_distractor_diamondtriangles.svg	35	no	44	0	672
6.6.1	win	2022-12-19	16:39:45	16:51:15	688067	5c5a19299404f10001ff8cbf	664504128	1	main_z	7	advance_on_keypress_ZEE	136	stimuli_distractor_trianglediamonds.svg	stimuli_distractor_diamondtriangles.svg	35	no	57	0	423
6.6.1	win	2022-12-19	16:39:45	16:51:16	689674	5c5a19299404f10001ff8cbf	664504128	1	main_z	7	main_z	137	stimuli_target_squarediamonds.svg	stimuli_distractor_trianglediamonds.svg	4	yes	44	1	547
6.6.1	win	2022-12-19	16:39:45	16:51:16	689674	5c5a19299404f10001ff8cbf	664504128	1	main_z	7	advance_on_keypress_ZEE	138	stimuli_target_squarediamonds.svg	stimuli_distractor_trianglediamonds.svg	4	yes	57	0	1089
6.6.1	win	2022-12-19	16:39:45	16:51:19	692023	5c5a19299404f10001ff8cbf	664504128	1	main_z	7	main_z	139	stimuli_distractor_trianglediamonds.svg	stimuli_target_circletriangles.svg	9	yes	44	1	616
6.6.1	win	2022-12-19	16:39:45	16:51:19	692023	5c5a19299404f10001ff8cbf	664504128	1	main_z	7	advance_on_keypress_ZEE	140	stimuli_distractor_trianglediamonds.svg	stimuli_target_circletriangles.svg	9	yes	57	0	621
6.6.1	win	2022-12-19	16:39:45	16:51:20	693653	5c5a19299404f10001ff8cbf	664504128	1	main_z	7	main_z	141	stimuli_target_diamondcircles.svg	stimuli_distractor_trianglediamonds.svg	19	yes	44	1	364
6.6.1	win	2022-12-19	16:39:45	16:51:20	693653	5c5a19299404f10001ff8cbf	664504128	1	main_z	7	advance_on_keypress_ZEE	142	stimuli_target_diamondcircles.svg	stimuli_distractor_trianglediamonds.svg	19	yes	57	0	591
6.6.1	win	2022-12-19	16:39:45	16:51:22	695385	5c5a19299404f10001ff8cbf	664504128	1	main_z	7	main_z	143	stimuli_distractor_trianglediamonds.svg	stimuli_target_squarediamonds.svg	12	yes	44	1	498
6.6.1	win	2022-12-19	16:39:45	16:51:22	695385	5c5a19299404f10001ff8cbf	664504128	1	main_z	7	advance_on_keypress_ZEE	144	stimuli_distractor_trianglediamonds.svg	stimuli_target_squarediamonds.svg	12	yes	57	0	621
6.6.1	win	2022-12-19	16:39:45	16:51:24	697048	5c5a19299404f10001ff8cbf	664504128	1	main_z	7	main_z	145	stimuli_target_trianglecircles.svg	stimuli_distractor_diamondtriangles.svg	21	yes	44	1	395
6.6.1	win	2022-12-19	16:39:45	16:51:24	697048	5c5a19299404f10001ff8cbf	664504128	1	main_z	7	advance_on_keypress_ZEE	146	stimuli_target_trianglecircles.svg	stimuli_distractor_diamondtriangles.svg	21	yes	57	0	710
6.6.1	win	2022-12-19	16:39:45	16:51:25	698954	5c5a19299404f10001ff8cbf	664504128	1	main_z	7	main_z	147	stimuli_distractor_diamondtriangles.svg	stimuli_target_circletriangles.svg	13	yes	44	1	553
6.6.1	win	2022-12-19	16:39:45	16:51:25	698954	5c5a19299404f10001ff8cbf	664504128	1	main_z	7	advance_on_keypress_ZEE	148	stimuli_distractor_diamondtriangles.svg	stimuli_target_circletriangles.svg	13	yes	57	0	787
6.6.1	win	2022-12-19	16:39:45	16:51:27	700806	5c5a19299404f10001ff8cbf	664504128	1	main_z	7	main_z	149	stimuli_target_circlediamonds.svg	stimuli_distractor_trianglediamonds.svg	2	yes	44	1	424
6.6.1	win	2022-12-19	16:39:45	16:51:27	700806	5c5a19299404f10001ff8cbf	664504128	1	main_z	7	advance_on_keypress_ZEE	150	stimuli_target_circlediamonds.svg	stimuli_distractor_trianglediamonds.svg	2	yes	57	0	497
6.6.1	win	2022-12-19	16:39:45	16:51:29	702397	5c5a19299404f10001ff8cbf	664504128	1	main_z	7	main_z	151	stimuli_target_trianglesquares.svg	stimuli_distractor_trianglediamonds.svg	18	yes	44	1	450
6.6.1	win	2022-12-19	16:39:45	16:51:29	702397	5c5a19299404f10001ff8cbf	664504128	1	main_z	7	advance_on_keypress_ZEE	152	stimuli_target_trianglesquares.svg	stimuli_distractor_trianglediamonds.svg	18	yes	57	0	385
6.6.1	win	2022-12-19	16:39:45	16:51:30	703859	5c5a19299404f10001ff8cbf	664504128	1	main_z	7	main_z	153	stimuli_distractor_diamondtriangles.svg	stimuli_distractor_trianglediamonds.svg	38	no	44	0	430
6.6.1	win	2022-12-19	16:39:45	16:51:30	703859	5c5a19299404f10001ff8cbf	664504128	1	main_z	7	advance_on_keypress_ZEE	154	stimuli_distractor_diamondtriangles.svg	stimuli_distractor_trianglediamonds.svg	38	no	57	0	372
6.6.1	win	2022-12-19	16:39:45	16:51:32	705442	5c5a19299404f10001ff8cbf	664504128	1	main_z	7	main_z	155	stimuli_distractor_diamondtriangles.svg	stimuli_target_circlediamonds.svg	14	yes	44	1	564
6.6.1	win	2022-12-19	16:39:45	16:51:32	705442	5c5a19299404f10001ff8cbf	664504128	1	main_z	7	advance_on_keypress_ZEE	156	stimuli_distractor_diamondtriangles.svg	stimuli_target_circlediamonds.svg	14	yes	57	0	388
6.6.1	win	2022-12-19	16:39:45	16:51:35	708475	5c5a19299404f10001ff8cbf	664504128	1	main_z	7	main_z	157	stimuli_distractor_trianglediamonds.svg	stimuli_distractor_trianglediamonds.svg	34	no	0	1	2000
6.6.1	win	2022-12-19	16:39:45	16:51:35	708475	5c5a19299404f10001ff8cbf	664504128	1	main_z	7	advance_on_keypress_ZEE	158	stimuli_distractor_trianglediamonds.svg	stimuli_distractor_trianglediamonds.svg	34	no	57	0	245
6.6.1	win	2022-12-19	16:39:45	16:51:37	710084	5c5a19299404f10001ff8cbf	664504128	1	main_z	7	main_z	159	stimuli_distractor_diamondtriangles.svg	stimuli_target_diamondcircles.svg	31	yes	44	1	712
6.6.1	win	2022-12-19	16:39:45	16:51:37	710084	5c5a19299404f10001ff8cbf	664504128	1	main_z	7	advance_on_keypress_ZEE	160	stimuli_distractor_diamondtriangles.svg	stimuli_target_diamondcircles.svg	31	yes	57	0	469
6.6.1	win	2022-12-19	16:39:45	16:52:03	736932	5c5a19299404f10001ff8cbf	664504128	1	practice_slash	9	practice_slash	1	stimuli_target_squarediamonds.svg	stimuli_distractor_trianglediamonds.svg	5	yes	0	0	2000
6.6.1	win	2022-12-19	16:39:45	16:52:03	736932	5c5a19299404f10001ff8cbf	664504128	1	practice_slash	9	advance_on_keypress_SLASH	2	stimuli_target_squarediamonds.svg	stimuli_distractor_trianglediamonds.svg	5	yes	57	0	2141
6.6.1	win	2022-12-19	16:39:45	16:52:09	742726	5c5a19299404f10001ff8cbf	664504128	1	practice_slash	9	practice_slash	3	stimuli_distractor_trianglediamonds.svg	stimuli_distractor_diamondtriangles.svg	16	no	0	1	2000
6.6.1	win	2022-12-19	16:39:45	16:52:09	742726	5c5a19299404f10001ff8cbf	664504128	1	practice_slash	9	advance_on_keypress_SLASH	4	stimuli_distractor_trianglediamonds.svg	stimuli_distractor_diamondtriangles.svg	16	no	57	0	517
6.6.1	win	2022-12-19	16:39:45	16:52:12	745321	5c5a19299404f10001ff8cbf	664504128	1	practice_slash	9	practice_slash	5	stimuli_distractor_trianglediamonds.svg	stimuli_target_squarediamonds.svg	11	yes	53	1	433
6.6.1	win	2022-12-19	16:39:45	16:52:12	745321	5c5a19299404f10001ff8cbf	664504128	1	practice_slash	9	advance_on_keypress_SLASH	6	stimuli_distractor_trianglediamonds.svg	stimuli_target_squarediamonds.svg	11	yes	57	0	256
6.6.1	win	2022-12-19	16:39:45	16:52:16	749219	5c5a19299404f10001ff8cbf	664504128	1	practice_slash	9	practice_slash	7	stimuli_distractor_diamondtriangles.svg	stimuli_distractor_diamondtriangles.svg	13	no	0	1	2000
6.6.1	win	2022-12-19	16:39:45	16:52:16	749219	5c5a19299404f10001ff8cbf	664504128	1	practice_slash	9	advance_on_keypress_SLASH	8	stimuli_distractor_diamondtriangles.svg	stimuli_distractor_diamondtriangles.svg	13	no	57	0	291
6.6.1	win	2022-12-19	16:39:45	16:52:18	751609	5c5a19299404f10001ff8cbf	664504128	1	practice_slash	9	practice_slash	9	stimuli_distractor_diamondtriangles.svg	stimuli_distractor_trianglediamonds.svg	14	no	53	0	460
6.6.1	win	2022-12-19	16:39:45	16:52:18	751609	5c5a19299404f10001ff8cbf	664504128	1	practice_slash	9	advance_on_keypress_SLASH	10	stimuli_distractor_diamondtriangles.svg	stimuli_distractor_trianglediamonds.svg	14	no	57	0	251
6.6.1	win	2022-12-19	16:39:45	16:52:21	754193	5c5a19299404f10001ff8cbf	664504128	1	practice_slash	9	practice_slash	11	stimuli_target_diamondsquares.svg	stimuli_distractor_trianglediamonds.svg	6	yes	53	1	680
6.6.1	win	2022-12-19	16:39:45	16:52:21	754193	5c5a19299404f10001ff8cbf	664504128	1	practice_slash	9	advance_on_keypress_SLASH	12	stimuli_target_diamondsquares.svg	stimuli_distractor_trianglediamonds.svg	6	yes	57	0	150
6.6.1	win	2022-12-19	16:39:45	16:52:23	756479	5c5a19299404f10001ff8cbf	664504128	1	practice_slash	9	practice_slash	13	stimuli_distractor_diamondtriangles.svg	stimuli_target_circletriangles.svg	7	yes	53	1	485
6.6.1	win	2022-12-19	16:39:45	16:52:23	756479	5c5a19299404f10001ff8cbf	664504128	1	practice_slash	9	advance_on_keypress_SLASH	14	stimuli_distractor_diamondtriangles.svg	stimuli_target_circletriangles.svg	7	yes	57	0	99
6.6.1	win	2022-12-19	16:39:45	16:52:25	758968	5c5a19299404f10001ff8cbf	664504128	1	practice_slash	9	practice_slash	15	stimuli_distractor_diamondtriangles.svg	stimuli_target_trianglecircles.svg	9	yes	53	1	744
6.6.1	win	2022-12-19	16:39:45	16:52:25	758968	5c5a19299404f10001ff8cbf	664504128	1	practice_slash	9	advance_on_keypress_SLASH	16	stimuli_distractor_diamondtriangles.svg	stimuli_target_trianglecircles.svg	9	yes	57	0	337
6.6.1	win	2022-12-19	16:39:45	16:52:28	761669	5c5a19299404f10001ff8cbf	664504128	1	practice_slash	9	practice_slash	17	stimuli_distractor_diamondtriangles.svg	stimuli_target_diamondcircles.svg	8	yes	53	1	713
6.6.1	win	2022-12-19	16:39:45	16:52:28	761669	5c5a19299404f10001ff8cbf	664504128	1	practice_slash	9	advance_on_keypress_SLASH	18	stimuli_distractor_diamondtriangles.svg	stimuli_target_diamondcircles.svg	8	yes	57	0	23
6.6.1	win	2022-12-19	16:39:45	16:52:30	763784	5c5a19299404f10001ff8cbf	664504128	1	practice_slash	9	practice_slash	19	stimuli_distractor_trianglediamonds.svg	stimuli_target_diamondcircles.svg	12	yes	53	1	448
6.6.1	win	2022-12-19	16:39:45	16:52:30	763784	5c5a19299404f10001ff8cbf	664504128	1	practice_slash	9	advance_on_keypress_SLASH	20	stimuli_distractor_trianglediamonds.svg	stimuli_target_diamondcircles.svg	12	yes	57	0	85
6.6.1	win	2022-12-19	16:39:45	16:52:34	767517	5c5a19299404f10001ff8cbf	664504128	1	practice_slash	9	practice_slash	21	stimuli_distractor_trianglediamonds.svg	stimuli_distractor_trianglediamonds.svg	15	no	0	1	2000
6.6.1	win	2022-12-19	16:39:45	16:52:34	767517	5c5a19299404f10001ff8cbf	664504128	1	practice_slash	9	advance_on_keypress_SLASH	22	stimuli_distractor_trianglediamonds.svg	stimuli_distractor_trianglediamonds.svg	15	no	57	0	14
6.6.1	win	2022-12-19	16:39:45	16:52:36	769702	5c5a19299404f10001ff8cbf	664504128	1	practice_slash	9	practice_slash	23	stimuli_distractor_trianglediamonds.svg	stimuli_target_circlediamonds.svg	10	yes	53	1	523
6.6.1	win	2022-12-19	16:39:45	16:52:36	769702	5c5a19299404f10001ff8cbf	664504128	1	practice_slash	9	advance_on_keypress_SLASH	24	stimuli_distractor_trianglediamonds.svg	stimuli_target_circlediamonds.svg	10	yes	57	0	155
6.6.1	win	2022-12-19	16:39:45	16:52:39	772507	5c5a19299404f10001ff8cbf	664504128	1	practice_slash	9	practice_slash	25	stimuli_target_squarediamonds.svg	stimuli_distractor_diamondtriangles.svg	2	yes	53	1	1013
6.6.1	win	2022-12-19	16:39:45	16:52:39	772507	5c5a19299404f10001ff8cbf	664504128	1	practice_slash	9	advance_on_keypress_SLASH	26	stimuli_target_squarediamonds.svg	stimuli_distractor_diamondtriangles.svg	2	yes	57	0	361
6.6.1	win	2022-12-19	16:39:45	16:52:41	774872	5c5a19299404f10001ff8cbf	664504128	1	practice_slash	9	practice_slash	27	stimuli_target_circlediamonds.svg	stimuli_distractor_diamondtriangles.svg	1	yes	53	1	348
6.6.1	win	2022-12-19	16:39:45	16:52:41	774872	5c5a19299404f10001ff8cbf	664504128	1	practice_slash	9	advance_on_keypress_SLASH	28	stimuli_target_circlediamonds.svg	stimuli_distractor_diamondtriangles.svg	1	yes	57	0	201
6.6.1	win	2022-12-19	16:39:45	16:52:44	777907	5c5a19299404f10001ff8cbf	664504128	1	practice_slash	9	practice_slash	29	stimuli_target_diamondsquares.svg	stimuli_distractor_diamondtriangles.svg	3	yes	53	1	1186
6.6.1	win	2022-12-19	16:39:45	16:52:44	777907	5c5a19299404f10001ff8cbf	664504128	1	practice_slash	9	advance_on_keypress_SLASH	30	stimuli_target_diamondsquares.svg	stimuli_distractor_diamondtriangles.svg	3	yes	57	0	22
6.6.1	win	2022-12-19	16:39:45	16:52:46	779985	5c5a19299404f10001ff8cbf	664504128	1	practice_slash	9	practice_slash	31	stimuli_target_circlediamonds.svg	stimuli_distractor_trianglediamonds.svg	4	yes	53	1	416
6.6.1	win	2022-12-19	16:39:45	16:52:46	779985	5c5a19299404f10001ff8cbf	664504128	1	practice_slash	9	advance_on_keypress_SLASH	32	stimuli_target_circlediamonds.svg	stimuli_distractor_trianglediamonds.svg	4	yes	57	0	66
6.6.1	win	2022-12-19	16:39:45	16:52:50	783302	5c5a19299404f10001ff8cbf	664504128	1	main_slash	11	main_slash	1	stimuli_distractor_diamondtriangles.svg	stimuli_target_diamondcircles.svg	31	yes	53	1	856
6.6.1	win	2022-12-19	16:39:45	16:52:50	783302	5c5a19299404f10001ff8cbf	664504128	1	main_slash	11	advance_on_keypress_SLASH	2	stimuli_distractor_diamondtriangles.svg	stimuli_target_diamondcircles.svg	31	yes	57	0	450
6.6.1	win	2022-12-19	16:39:45	16:52:51	784883	5c5a19299404f10001ff8cbf	664504128	1	main_slash	11	main_slash	3	stimuli_target_trianglecircles.svg	stimuli_distractor_diamondtriangles.svg	21	yes	53	1	488
6.6.1	win	2022-12-19	16:39:45	16:52:51	784883	5c5a19299404f10001ff8cbf	664504128	1	main_slash	11	advance_on_keypress_SLASH	4	stimuli_target_trianglecircles.svg	stimuli_distractor_diamondtriangles.svg	21	yes	57	0	322
6.6.1	win	2022-12-19	16:39:45	16:52:53	786357	5c5a19299404f10001ff8cbf	664504128	1	main_slash	11	main_slash	5	stimuli_distractor_diamondtriangles.svg	stimuli_target_squaretriangles.svg	15	yes	53	1	514
6.6.1	win	2022-12-19	16:39:45	16:52:53	786357	5c5a19299404f10001ff8cbf	664504128	1	main_slash	11	advance_on_keypress_SLASH	6	stimuli_distractor_diamondtriangles.svg	stimuli_target_squaretriangles.svg	15	yes	57	0	294
6.6.1	win	2022-12-19	16:39:45	16:52:54	787740	5c5a19299404f10001ff8cbf	664504128	1	main_slash	11	main_slash	7	stimuli_distractor_trianglediamonds.svg	stimuli_target_diamondsquares.svg	28	yes	53	1	449
6.6.1	win	2022-12-19	16:39:45	16:52:54	787740	5c5a19299404f10001ff8cbf	664504128	1	main_slash	11	advance_on_keypress_SLASH	8	stimuli_distractor_trianglediamonds.svg	stimuli_target_diamondsquares.svg	28	yes	57	0	522
6.6.1	win	2022-12-19	16:39:45	16:52:56	789337	5c5a19299404f10001ff8cbf	664504128	1	main_slash	11	main_slash	9	stimuli_distractor_diamondtriangles.svg	stimuli_target_squarediamonds.svg	16	yes	53	1	429
6.6.1	win	2022-12-19	16:39:45	16:52:56	789337	5c5a19299404f10001ff8cbf	664504128	1	main_slash	11	advance_on_keypress_SLASH	10	stimuli_distractor_diamondtriangles.svg	stimuli_target_squarediamonds.svg	16	yes	57	0	302
6.6.1	win	2022-12-19	16:39:45	16:52:57	790748	5c5a19299404f10001ff8cbf	664504128	1	main_slash	11	main_slash	11	stimuli_distractor_diamondtriangles.svg	stimuli_target_diamondsquares.svg	32	yes	53	1	460
6.6.1	win	2022-12-19	16:39:45	16:52:57	790748	5c5a19299404f10001ff8cbf	664504128	1	main_slash	11	advance_on_keypress_SLASH	12	stimuli_distractor_diamondtriangles.svg	stimuli_target_diamondsquares.svg	32	yes	57	0	432
6.6.1	win	2022-12-19	16:39:45	16:52:59	792393	5c5a19299404f10001ff8cbf	664504128	1	main_slash	11	main_slash	13	stimuli_distractor_trianglediamonds.svg	stimuli_target_squarediamonds.svg	12	yes	53	1	557
6.6.1	win	2022-12-19	16:39:45	16:52:59	792393	5c5a19299404f10001ff8cbf	664504128	1	main_slash	11	advance_on_keypress_SLASH	14	stimuli_distractor_trianglediamonds.svg	stimuli_target_squarediamonds.svg	12	yes	57	0	360
6.6.1	win	2022-12-19	16:39:45	16:53:00	793960	5c5a19299404f10001ff8cbf	664504128	1	main_slash	11	main_slash	15	stimuli_target_diamondcircles.svg	stimuli_distractor_trianglediamonds.svg	19	yes	53	1	575
6.6.1	win	2022-12-19	16:39:45	16:53:00	793960	5c5a19299404f10001ff8cbf	664504128	1	main_slash	11	advance_on_keypress_SLASH	16	stimuli_target_diamondcircles.svg	stimuli_distractor_trianglediamonds.svg	19	yes	57	0	376
6.6.1	win	2022-12-19	16:39:45	16:53:02	795485	5c5a19299404f10001ff8cbf	664504128	1	main_slash	11	main_slash	17	stimuli_target_trianglecircles.svg	stimuli_distractor_trianglediamonds.svg	17	yes	53	1	518
6.6.1	win	2022-12-19	16:39:45	16:53:02	795485	5c5a19299404f10001ff8cbf	664504128	1	main_slash	11	advance_on_keypress_SLASH	18	stimuli_target_trianglecircles.svg	stimuli_distractor_trianglediamonds.svg	17	yes	57	0	261
6.6.1	win	2022-12-19	16:39:45	16:53:03	796846	5c5a19299404f10001ff8cbf	664504128	1	main_slash	11	main_slash	19	stimuli_distractor_trianglediamonds.svg	stimuli_target_diamondcircles.svg	27	yes	53	1	447
6.6.1	win	2022-12-19	16:39:45	16:53:03	796846	5c5a19299404f10001ff8cbf	664504128	1	main_slash	11	advance_on_keypress_SLASH	20	stimuli_distractor_trianglediamonds.svg	stimuli_target_diamondcircles.svg	27	yes	57	0	269
6.6.1	win	2022-12-19	16:39:45	16:53:05	798327	5c5a19299404f10001ff8cbf	664504128	1	main_slash	11	main_slash	21	stimuli_target_circletriangles.svg	stimuli_distractor_diamondtriangles.svg	5	yes	53	1	564
6.6.1	win	2022-12-19	16:39:45	16:53:05	798327	5c5a19299404f10001ff8cbf	664504128	1	main_slash	11	advance_on_keypress_SLASH	22	stimuli_target_circletriangles.svg	stimuli_distractor_diamondtriangles.svg	5	yes	57	0	360
6.6.1	win	2022-12-19	16:39:45	16:53:07	800366	5c5a19299404f10001ff8cbf	664504128	1	main_slash	11	main_slash	23	stimuli_distractor_trianglediamonds.svg	stimuli_target_trianglecircles.svg	25	yes	53	1	1038
6.6.1	win	2022-12-19	16:39:45	16:53:07	800366	5c5a19299404f10001ff8cbf	664504128	1	main_slash	11	advance_on_keypress_SLASH	24	stimuli_distractor_trianglediamonds.svg	stimuli_target_trianglecircles.svg	25	yes	57	0	285
6.6.1	win	2022-12-19	16:39:45	16:53:10	803293	5c5a19299404f10001ff8cbf	664504128	1	main_slash	11	main_slash	25	stimuli_distractor_trianglediamonds.svg	stimuli_distractor_trianglediamonds.svg	34	no	0	1	2000
6.6.1	win	2022-12-19	16:39:45	16:53:10	803293	5c5a19299404f10001ff8cbf	664504128	1	main_slash	11	advance_on_keypress_SLASH	26	stimuli_distractor_trianglediamonds.svg	stimuli_distractor_trianglediamonds.svg	34	no	57	0	338
6.6.1	win	2022-12-19	16:39:45	16:53:11	804947	5c5a19299404f10001ff8cbf	664504128	1	main_slash	11	main_slash	27	stimuli_target_squarediamonds.svg	stimuli_distractor_trianglediamonds.svg	4	yes	53	1	674
6.6.1	win	2022-12-19	16:39:45	16:53:11	804947	5c5a19299404f10001ff8cbf	664504128	1	main_slash	11	advance_on_keypress_SLASH	28	stimuli_target_squarediamonds.svg	stimuli_distractor_trianglediamonds.svg	4	yes	57	0	298
6.6.1	win	2022-12-19	16:39:45	16:53:13	806589	5c5a19299404f10001ff8cbf	664504128	1	main_slash	11	main_slash	29	stimuli_distractor_diamondtriangles.svg	stimuli_distractor_trianglediamonds.svg	37	no	53	0	700
6.6.1	win	2022-12-19	16:39:45	16:53:13	806589	5c5a19299404f10001ff8cbf	664504128	1	main_slash	11	advance_on_keypress_SLASH	30	stimuli_distractor_diamondtriangles.svg	stimuli_distractor_trianglediamonds.svg	37	no	57	0	329
6.6.1	win	2022-12-19	16:39:45	16:53:15	808103	5c5a19299404f10001ff8cbf	664504128	1	main_slash	11	main_slash	31	stimuli_distractor_trianglediamonds.svg	stimuli_distractor_diamondtriangles.svg	35	no	53	0	532
6.6.1	win	2022-12-19	16:39:45	16:53:15	808103	5c5a19299404f10001ff8cbf	664504128	1	main_slash	11	advance_on_keypress_SLASH	32	stimuli_distractor_trianglediamonds.svg	stimuli_distractor_diamondtriangles.svg	35	no	57	0	289
6.6.1	win	2022-12-19	16:39:45	16:53:16	809719	5c5a19299404f10001ff8cbf	664504128	1	main_slash	11	main_slash	33	stimuli_distractor_diamondtriangles.svg	stimuli_target_circletriangles.svg	13	yes	53	1	684
6.6.1	win	2022-12-19	16:39:45	16:53:16	809719	5c5a19299404f10001ff8cbf	664504128	1	main_slash	11	advance_on_keypress_SLASH	34	stimuli_distractor_diamondtriangles.svg	stimuli_target_circletriangles.svg	13	yes	57	0	268
6.6.1	win	2022-12-19	16:39:45	16:53:19	812633	5c5a19299404f10001ff8cbf	664504128	1	main_slash	11	main_slash	35	stimuli_distractor_trianglediamonds.svg	stimuli_distractor_trianglediamonds.svg	33	no	0	1	2000
6.6.1	win	2022-12-19	16:39:45	16:53:19	812633	5c5a19299404f10001ff8cbf	664504128	1	main_slash	11	advance_on_keypress_SLASH	36	stimuli_distractor_trianglediamonds.svg	stimuli_distractor_trianglediamonds.svg	33	no	57	0	60
6.6.1	win	2022-12-19	16:39:45	16:53:21	814421	5c5a19299404f10001ff8cbf	664504128	1	main_slash	11	main_slash	37	stimuli_target_diamondsquares.svg	stimuli_distractor_diamondtriangles.svg	24	yes	53	1	1090
6.6.1	win	2022-12-19	16:39:45	16:53:21	814421	5c5a19299404f10001ff8cbf	664504128	1	main_slash	11	advance_on_keypress_SLASH	38	stimuli_target_diamondsquares.svg	stimuli_distractor_diamondtriangles.svg	24	yes	57	0	301
6.6.1	win	2022-12-19	16:39:45	16:53:24	817362	5c5a19299404f10001ff8cbf	664504128	1	main_slash	11	main_slash	39	stimuli_distractor_diamondtriangles.svg	stimuli_distractor_diamondtriangles.svg	39	no	0	1	2000
6.6.1	win	2022-12-19	16:39:45	16:53:24	817362	5c5a19299404f10001ff8cbf	664504128	1	main_slash	11	advance_on_keypress_SLASH	40	stimuli_distractor_diamondtriangles.svg	stimuli_distractor_diamondtriangles.svg	39	no	57	0	176
6.6.1	win	2022-12-19	16:39:45	16:53:25	818669	5c5a19299404f10001ff8cbf	664504128	1	main_slash	11	main_slash	41	stimuli_target_trianglesquares.svg	stimuli_distractor_diamondtriangles.svg	22	yes	53	1	493
6.6.1	win	2022-12-19	16:39:45	16:53:25	818669	5c5a19299404f10001ff8cbf	664504128	1	main_slash	11	advance_on_keypress_SLASH	42	stimuli_target_trianglesquares.svg	stimuli_distractor_diamondtriangles.svg	22	yes	57	0	279
6.6.1	win	2022-12-19	16:39:45	16:53:27	820238	5c5a19299404f10001ff8cbf	664504128	1	main_slash	11	main_slash	43	stimuli_distractor_trianglediamonds.svg	stimuli_target_circletriangles.svg	9	yes	53	1	647
6.6.1	win	2022-12-19	16:39:45	16:53:27	820238	5c5a19299404f10001ff8cbf	664504128	1	main_slash	11	advance_on_keypress_SLASH	44	stimuli_distractor_trianglediamonds.svg	stimuli_target_circletriangles.svg	9	yes	57	0	251
6.6.1	win	2022-12-19	16:39:45	16:53:28	821638	5c5a19299404f10001ff8cbf	664504128	1	main_slash	11	main_slash	45	stimuli_target_circlediamonds.svg	stimuli_distractor_diamondtriangles.svg	6	yes	53	1	498
6.6.1	win	2022-12-19	16:39:45	16:53:28	821638	5c5a19299404f10001ff8cbf	664504128	1	main_slash	11	advance_on_keypress_SLASH	46	stimuli_target_circlediamonds.svg	stimuli_distractor_diamondtriangles.svg	6	yes	57	0	262
6.6.1	win	2022-12-19	16:39:45	16:53:30	823269	5c5a19299404f10001ff8cbf	664504128	1	main_slash	11	main_slash	47	stimuli_target_trianglesquares.svg	stimuli_distractor_trianglediamonds.svg	18	yes	53	1	715
6.6.1	win	2022-12-19	16:39:45	16:53:30	823269	5c5a19299404f10001ff8cbf	664504128	1	main_slash	11	advance_on_keypress_SLASH	48	stimuli_target_trianglesquares.svg	stimuli_distractor_trianglediamonds.svg	18	yes	57	0	696
6.6.1	win	2022-12-19	16:39:45	16:53:32	825051	5c5a19299404f10001ff8cbf	664504128	1	main_slash	11	main_slash	49	stimuli_distractor_trianglediamonds.svg	stimuli_target_circlediamonds.svg	10	yes	53	1	432
6.6.1	win	2022-12-19	16:39:45	16:53:32	825051	5c5a19299404f10001ff8cbf	664504128	1	main_slash	11	advance_on_keypress_SLASH	50	stimuli_distractor_trianglediamonds.svg	stimuli_target_circlediamonds.svg	10	yes	57	0	281
6.6.1	win	2022-12-19	16:39:45	16:53:34	827215	5c5a19299404f10001ff8cbf	664504128	1	main_slash	11	main_slash	51	stimuli_distractor_trianglediamonds.svg	stimuli_target_trianglesquares.svg	26	yes	53	1	1230
6.6.1	win	2022-12-19	16:39:45	16:53:34	827215	5c5a19299404f10001ff8cbf	664504128	1	main_slash	11	advance_on_keypress_SLASH	52	stimuli_distractor_trianglediamonds.svg	stimuli_target_trianglesquares.svg	26	yes	57	0	238
6.6.1	win	2022-12-19	16:39:45	16:53:36	829226	5c5a19299404f10001ff8cbf	664504128	1	main_slash	11	main_slash	53	stimuli_distractor_diamondtriangles.svg	stimuli_target_trianglecircles.svg	29	yes	53	1	1127
6.6.1	win	2022-12-19	16:39:45	16:53:36	829226	5c5a19299404f10001ff8cbf	664504128	1	main_slash	11	advance_on_keypress_SLASH	54	stimuli_distractor_diamondtriangles.svg	stimuli_target_trianglecircles.svg	29	yes	57	0	266
6.6.1	win	2022-12-19	16:39:45	16:53:37	830848	5c5a19299404f10001ff8cbf	664504128	1	main_slash	11	main_slash	55	stimuli_target_squaretriangles.svg	stimuli_distractor_trianglediamonds.svg	3	yes	53	1	702
6.6.1	win	2022-12-19	16:39:45	16:53:37	830848	5c5a19299404f10001ff8cbf	664504128	1	main_slash	11	advance_on_keypress_SLASH	56	stimuli_target_squaretriangles.svg	stimuli_distractor_trianglediamonds.svg	3	yes	57	0	254
6.6.1	win	2022-12-19	16:39:45	16:53:39	832434	5c5a19299404f10001ff8cbf	664504128	1	main_slash	11	main_slash	57	stimuli_target_diamondsquares.svg	stimuli_distractor_trianglediamonds.svg	20	yes	53	1	690
6.6.1	win	2022-12-19	16:39:45	16:53:39	832434	5c5a19299404f10001ff8cbf	664504128	1	main_slash	11	advance_on_keypress_SLASH	58	stimuli_target_diamondsquares.svg	stimuli_distractor_trianglediamonds.svg	20	yes	57	0	346
6.6.1	win	2022-12-19	16:39:45	16:53:41	834693	5c5a19299404f10001ff8cbf	664504128	1	main_slash	11	main_slash	59	stimuli_distractor_diamondtriangles.svg	stimuli_distractor_trianglediamonds.svg	38	no	53	0	1266
6.6.1	win	2022-12-19	16:39:45	16:53:41	834693	5c5a19299404f10001ff8cbf	664504128	1	main_slash	11	advance_on_keypress_SLASH	60	stimuli_distractor_diamondtriangles.svg	stimuli_distractor_trianglediamonds.svg	38	no	57	0	219
6.6.1	win	2022-12-19	16:39:45	16:53:44	837558	5c5a19299404f10001ff8cbf	664504128	1	main_slash	11	main_slash	61	stimuli_distractor_diamondtriangles.svg	stimuli_distractor_diamondtriangles.svg	40	no	0	1	2000
6.6.1	win	2022-12-19	16:39:45	16:53:44	837558	5c5a19299404f10001ff8cbf	664504128	1	main_slash	11	advance_on_keypress_SLASH	62	stimuli_distractor_diamondtriangles.svg	stimuli_distractor_diamondtriangles.svg	40	no	57	0	322
6.6.1	win	2022-12-19	16:39:45	16:53:46	839035	5c5a19299404f10001ff8cbf	664504128	1	main_slash	11	main_slash	63	stimuli_target_diamondcircles.svg	stimuli_distractor_diamondtriangles.svg	23	yes	53	1	504
6.6.1	win	2022-12-19	16:39:45	16:53:46	839035	5c5a19299404f10001ff8cbf	664504128	1	main_slash	11	advance_on_keypress_SLASH	64	stimuli_target_diamondcircles.svg	stimuli_distractor_diamondtriangles.svg	23	yes	57	0	343
6.6.1	win	2022-12-19	16:39:45	16:53:47	840400	5c5a19299404f10001ff8cbf	664504128	1	main_slash	11	main_slash	65	stimuli_target_circlediamonds.svg	stimuli_distractor_trianglediamonds.svg	2	yes	53	1	378
6.6.1	win	2022-12-19	16:39:45	16:53:47	840400	5c5a19299404f10001ff8cbf	664504128	1	main_slash	11	advance_on_keypress_SLASH	66	stimuli_target_circlediamonds.svg	stimuli_distractor_trianglediamonds.svg	2	yes	57	0	296
6.6.1	win	2022-12-19	16:39:45	16:53:48	841786	5c5a19299404f10001ff8cbf	664504128	1	main_slash	11	main_slash	67	stimuli_target_circletriangles.svg	stimuli_distractor_trianglediamonds.svg	1	yes	53	1	435
6.6.1	win	2022-12-19	16:39:45	16:53:48	841786	5c5a19299404f10001ff8cbf	664504128	1	main_slash	11	advance_on_keypress_SLASH	68	stimuli_target_circletriangles.svg	stimuli_distractor_trianglediamonds.svg	1	yes	57	0	297
6.6.1	win	2022-12-19	16:39:45	16:53:50	843133	5c5a19299404f10001ff8cbf	664504128	1	main_slash	11	main_slash	69	stimuli_distractor_diamondtriangles.svg	stimuli_target_circlediamonds.svg	14	yes	53	1	400
6.6.1	win	2022-12-19	16:39:45	16:53:50	843133	5c5a19299404f10001ff8cbf	664504128	1	main_slash	11	advance_on_keypress_SLASH	70	stimuli_distractor_diamondtriangles.svg	stimuli_target_circlediamonds.svg	14	yes	57	0	265
6.6.1	win	2022-12-19	16:39:45	16:53:51	844792	5c5a19299404f10001ff8cbf	664504128	1	main_slash	11	main_slash	71	stimuli_distractor_diamondtriangles.svg	stimuli_target_trianglesquares.svg	30	yes	53	1	744
6.6.1	win	2022-12-19	16:39:45	16:53:51	844792	5c5a19299404f10001ff8cbf	664504128	1	main_slash	11	advance_on_keypress_SLASH	72	stimuli_distractor_diamondtriangles.svg	stimuli_target_trianglesquares.svg	30	yes	57	0	274
6.6.1	win	2022-12-19	16:39:45	16:53:53	846251	5c5a19299404f10001ff8cbf	664504128	1	main_slash	11	main_slash	73	stimuli_target_squaretriangles.svg	stimuli_distractor_diamondtriangles.svg	7	yes	53	1	537
6.6.1	win	2022-12-19	16:39:45	16:53:53	846251	5c5a19299404f10001ff8cbf	664504128	1	main_slash	11	advance_on_keypress_SLASH	74	stimuli_target_squaretriangles.svg	stimuli_distractor_diamondtriangles.svg	7	yes	57	0	296
6.6.1	win	2022-12-19	16:39:45	16:53:54	847632	5c5a19299404f10001ff8cbf	664504128	1	main_slash	11	main_slash	75	stimuli_target_squarediamonds.svg	stimuli_distractor_diamondtriangles.svg	8	yes	53	1	436
6.6.1	win	2022-12-19	16:39:45	16:53:54	847632	5c5a19299404f10001ff8cbf	664504128	1	main_slash	11	advance_on_keypress_SLASH	76	stimuli_target_squarediamonds.svg	stimuli_distractor_diamondtriangles.svg	8	yes	57	0	230
6.6.1	win	2022-12-19	16:39:45	16:53:55	848850	5c5a19299404f10001ff8cbf	664504128	1	main_slash	11	main_slash	77	stimuli_distractor_trianglediamonds.svg	stimuli_target_squaretriangles.svg	11	yes	53	1	340
6.6.1	win	2022-12-19	16:39:45	16:53:55	848850	5c5a19299404f10001ff8cbf	664504128	1	main_slash	11	advance_on_keypress_SLASH	78	stimuli_distractor_trianglediamonds.svg	stimuli_target_squaretriangles.svg	11	yes	57	0	278
6.6.1	win	2022-12-19	16:39:45	16:53:57	850006	5c5a19299404f10001ff8cbf	664504128	1	main_slash	11	main_slash	79	stimuli_distractor_trianglediamonds.svg	stimuli_distractor_diamondtriangles.svg	36	no	53	0	247
6.6.1	win	2022-12-19	16:39:45	16:53:57	850006	5c5a19299404f10001ff8cbf	664504128	1	main_slash	11	advance_on_keypress_SLASH	80	stimuli_distractor_trianglediamonds.svg	stimuli_distractor_diamondtriangles.svg	36	no	57	0	427
6.6.1	win	2022-12-19	16:39:45	16:54:00	853075	5c5a19299404f10001ff8cbf	664504128	1	main_slash	11	main_slash	81	stimuli_distractor_trianglediamonds.svg	stimuli_distractor_diamondtriangles.svg	36	no	0	1	2000
6.6.1	win	2022-12-19	16:39:45	16:54:00	853075	5c5a19299404f10001ff8cbf	664504128	1	main_slash	11	advance_on_keypress_SLASH	82	stimuli_distractor_trianglediamonds.svg	stimuli_distractor_diamondtriangles.svg	36	no	57	0	246
6.6.1	win	2022-12-19	16:39:45	16:54:01	854375	5c5a19299404f10001ff8cbf	664504128	1	main_slash	11	main_slash	83	stimuli_target_trianglecircles.svg	stimuli_distractor_diamondtriangles.svg	21	yes	53	1	404
6.6.1	win	2022-12-19	16:39:45	16:54:01	854375	5c5a19299404f10001ff8cbf	664504128	1	main_slash	11	advance_on_keypress_SLASH	84	stimuli_target_trianglecircles.svg	stimuli_distractor_diamondtriangles.svg	21	yes	57	0	320
6.6.1	win	2022-12-19	16:39:45	16:54:03	856290	5c5a19299404f10001ff8cbf	664504128	1	main_slash	11	main_slash	85	stimuli_target_squarediamonds.svg	stimuli_distractor_trianglediamonds.svg	4	yes	53	1	953
6.6.1	win	2022-12-19	16:39:45	16:54:03	856290	5c5a19299404f10001ff8cbf	664504128	1	main_slash	11	advance_on_keypress_SLASH	86	stimuli_target_squarediamonds.svg	stimuli_distractor_trianglediamonds.svg	4	yes	57	0	226
6.6.1	win	2022-12-19	16:39:45	16:54:04	857606	5c5a19299404f10001ff8cbf	664504128	1	main_slash	11	main_slash	87	stimuli_target_diamondcircles.svg	stimuli_distractor_diamondtriangles.svg	23	yes	53	1	455
6.6.1	win	2022-12-19	16:39:45	16:54:04	857606	5c5a19299404f10001ff8cbf	664504128	1	main_slash	11	advance_on_keypress_SLASH	88	stimuli_target_diamondcircles.svg	stimuli_distractor_diamondtriangles.svg	23	yes	57	0	393
6.6.1	win	2022-12-19	16:39:45	16:54:06	859314	5c5a19299404f10001ff8cbf	664504128	1	main_slash	11	main_slash	89	stimuli_distractor_diamondtriangles.svg	stimuli_target_diamondcircles.svg	31	yes	53	1	680
6.6.1	win	2022-12-19	16:39:45	16:54:06	859314	5c5a19299404f10001ff8cbf	664504128	1	main_slash	11	advance_on_keypress_SLASH	90	stimuli_distractor_diamondtriangles.svg	stimuli_target_diamondcircles.svg	31	yes	57	0	410
6.6.1	win	2022-12-19	16:39:45	16:54:08	861545	5c5a19299404f10001ff8cbf	664504128	1	main_slash	11	main_slash	91	stimuli_target_diamondcircles.svg	stimuli_distractor_trianglediamonds.svg	19	yes	53	1	1179
6.6.1	win	2022-12-19	16:39:45	16:54:08	861545	5c5a19299404f10001ff8cbf	664504128	1	main_slash	11	advance_on_keypress_SLASH	92	stimuli_target_diamondcircles.svg	stimuli_distractor_trianglediamonds.svg	19	yes	57	0	1300
6.6.1	win	2022-12-19	16:39:45	16:54:11	864098	5c5a19299404f10001ff8cbf	664504128	1	main_slash	11	main_slash	93	stimuli_distractor_trianglediamonds.svg	stimuli_target_trianglecircles.svg	25	yes	53	1	602
6.6.1	win	2022-12-19	16:39:45	16:54:11	864098	5c5a19299404f10001ff8cbf	664504128	1	main_slash	11	advance_on_keypress_SLASH	94	stimuli_distractor_trianglediamonds.svg	stimuli_target_trianglecircles.svg	25	yes	57	0	586
6.6.1	win	2022-12-19	16:39:45	16:54:12	865774	5c5a19299404f10001ff8cbf	664504128	1	main_slash	11	main_slash	95	stimuli_distractor_diamondtriangles.svg	stimuli_distractor_diamondtriangles.svg	39	no	53	0	448
6.6.1	win	2022-12-19	16:39:45	16:54:12	865774	5c5a19299404f10001ff8cbf	664504128	1	main_slash	11	advance_on_keypress_SLASH	96	stimuli_distractor_diamondtriangles.svg	stimuli_distractor_diamondtriangles.svg	39	no	57	0	394
6.6.1	win	2022-12-19	16:39:45	16:54:14	867430	5c5a19299404f10001ff8cbf	664504128	1	main_slash	11	main_slash	97	stimuli_distractor_diamondtriangles.svg	stimuli_target_circletriangles.svg	13	yes	53	1	605
6.6.1	win	2022-12-19	16:39:45	16:54:14	867430	5c5a19299404f10001ff8cbf	664504128	1	main_slash	11	advance_on_keypress_SLASH	98	stimuli_distractor_diamondtriangles.svg	stimuli_target_circletriangles.svg	13	yes	57	0	381
6.6.1	win	2022-12-19	16:39:45	16:54:16	869027	5c5a19299404f10001ff8cbf	664504128	1	main_slash	11	main_slash	99	stimuli_distractor_diamondtriangles.svg	stimuli_target_squarediamonds.svg	16	yes	53	1	571
6.6.1	win	2022-12-19	16:39:45	16:54:16	869027	5c5a19299404f10001ff8cbf	664504128	1	main_slash	11	advance_on_keypress_SLASH	100	stimuli_distractor_diamondtriangles.svg	stimuli_target_squarediamonds.svg	16	yes	57	0	312
6.6.1	win	2022-12-19	16:39:45	16:54:17	870550	5c5a19299404f10001ff8cbf	664504128	1	main_slash	11	main_slash	101	stimuli_distractor_diamondtriangles.svg	stimuli_distractor_diamondtriangles.svg	40	no	53	0	579
6.6.1	win	2022-12-19	16:39:45	16:54:17	870550	5c5a19299404f10001ff8cbf	664504128	1	main_slash	11	advance_on_keypress_SLASH	102	stimuli_distractor_diamondtriangles.svg	stimuli_distractor_diamondtriangles.svg	40	no	57	0	332
6.6.1	win	2022-12-19	16:39:45	16:54:19	872004	5c5a19299404f10001ff8cbf	664504128	1	main_slash	11	main_slash	103	stimuli_target_squarediamonds.svg	stimuli_distractor_diamondtriangles.svg	8	yes	53	1	468
6.6.1	win	2022-12-19	16:39:45	16:54:19	872004	5c5a19299404f10001ff8cbf	664504128	1	main_slash	11	advance_on_keypress_SLASH	104	stimuli_target_squarediamonds.svg	stimuli_distractor_diamondtriangles.svg	8	yes	57	0	270
6.6.1	win	2022-12-19	16:39:45	16:54:20	873641	5c5a19299404f10001ff8cbf	664504128	1	main_slash	11	main_slash	105	stimuli_target_squaretriangles.svg	stimuli_distractor_trianglediamonds.svg	3	yes	53	1	723
6.6.1	win	2022-12-19	16:39:45	16:54:20	873641	5c5a19299404f10001ff8cbf	664504128	1	main_slash	11	advance_on_keypress_SLASH	106	stimuli_target_squaretriangles.svg	stimuli_distractor_trianglediamonds.svg	3	yes	57	0	312
6.6.1	win	2022-12-19	16:39:45	16:54:22	875376	5c5a19299404f10001ff8cbf	664504128	1	main_slash	11	main_slash	107	stimuli_distractor_trianglediamonds.svg	stimuli_target_squaretriangles.svg	11	yes	53	1	776
6.6.1	win	2022-12-19	16:39:45	16:54:22	875376	5c5a19299404f10001ff8cbf	664504128	1	main_slash	11	advance_on_keypress_SLASH	108	stimuli_distractor_trianglediamonds.svg	stimuli_target_squaretriangles.svg	11	yes	57	0	305
6.6.1	win	2022-12-19	16:39:45	16:54:23	876933	5c5a19299404f10001ff8cbf	664504128	1	main_slash	11	main_slash	109	stimuli_target_circlediamonds.svg	stimuli_distractor_diamondtriangles.svg	6	yes	53	1	617
6.6.1	win	2022-12-19	16:39:45	16:54:23	876933	5c5a19299404f10001ff8cbf	664504128	1	main_slash	11	advance_on_keypress_SLASH	110	stimuli_target_circlediamonds.svg	stimuli_distractor_diamondtriangles.svg	6	yes	57	0	313
6.6.1	win	2022-12-19	16:39:45	16:54:25	878350	5c5a19299404f10001ff8cbf	664504128	1	main_slash	11	main_slash	111	stimuli_distractor_trianglediamonds.svg	stimuli_distractor_diamondtriangles.svg	35	no	53	0	453
6.6.1	win	2022-12-19	16:39:45	16:54:25	878350	5c5a19299404f10001ff8cbf	664504128	1	main_slash	11	advance_on_keypress_SLASH	112	stimuli_distractor_trianglediamonds.svg	stimuli_distractor_diamondtriangles.svg	35	no	57	0	366
6.6.1	win	2022-12-19	16:39:45	16:54:26	879904	5c5a19299404f10001ff8cbf	664504128	1	main_slash	11	main_slash	113	stimuli_distractor_diamondtriangles.svg	stimuli_target_trianglecircles.svg	29	yes	53	1	541
6.6.1	win	2022-12-19	16:39:45	16:54:26	879904	5c5a19299404f10001ff8cbf	664504128	1	main_slash	11	advance_on_keypress_SLASH	114	stimuli_distractor_diamondtriangles.svg	stimuli_target_trianglecircles.svg	29	yes	57	0	276
6.6.1	win	2022-12-19	16:39:45	16:54:28	881233	5c5a19299404f10001ff8cbf	664504128	1	main_slash	11	main_slash	115	stimuli_distractor_trianglediamonds.svg	stimuli_target_diamondsquares.svg	28	yes	53	1	422
6.6.1	win	2022-12-19	16:39:45	16:54:28	881233	5c5a19299404f10001ff8cbf	664504128	1	main_slash	11	advance_on_keypress_SLASH	116	stimuli_distractor_trianglediamonds.svg	stimuli_target_diamondsquares.svg	28	yes	57	0	311
6.6.1	win	2022-12-19	16:39:45	16:54:31	884176	5c5a19299404f10001ff8cbf	664504128	1	main_slash	11	main_slash	117	stimuli_distractor_trianglediamonds.svg	stimuli_distractor_trianglediamonds.svg	34	no	0	1	2000
6.6.1	win	2022-12-19	16:39:45	16:54:31	884176	5c5a19299404f10001ff8cbf	664504128	1	main_slash	11	advance_on_keypress_SLASH	118	stimuli_distractor_trianglediamonds.svg	stimuli_distractor_trianglediamonds.svg	34	no	57	0	270
6.6.1	win	2022-12-19	16:39:45	16:54:32	885559	5c5a19299404f10001ff8cbf	664504128	1	main_slash	11	main_slash	119	stimuli_distractor_diamondtriangles.svg	stimuli_target_squaretriangles.svg	15	yes	53	1	470
6.6.1	win	2022-12-19	16:39:45	16:54:32	885559	5c5a19299404f10001ff8cbf	664504128	1	main_slash	11	advance_on_keypress_SLASH	120	stimuli_distractor_diamondtriangles.svg	stimuli_target_squaretriangles.svg	15	yes	57	0	315
6.6.1	win	2022-12-19	16:39:45	16:54:33	886955	5c5a19299404f10001ff8cbf	664504128	1	main_slash	11	main_slash	121	stimuli_target_squaretriangles.svg	stimuli_distractor_diamondtriangles.svg	7	yes	53	1	433
6.6.1	win	2022-12-19	16:39:45	16:54:33	886955	5c5a19299404f10001ff8cbf	664504128	1	main_slash	11	advance_on_keypress_SLASH	122	stimuli_target_squaretriangles.svg	stimuli_distractor_diamondtriangles.svg	7	yes	57	0	358
6.6.1	win	2022-12-19	16:39:45	16:54:35	888427	5c5a19299404f10001ff8cbf	664504128	1	main_slash	11	main_slash	123	stimuli_target_circlediamonds.svg	stimuli_distractor_trianglediamonds.svg	2	yes	53	1	474
6.6.1	win	2022-12-19	16:39:45	16:54:35	888427	5c5a19299404f10001ff8cbf	664504128	1	main_slash	11	advance_on_keypress_SLASH	124	stimuli_target_circlediamonds.svg	stimuli_distractor_trianglediamonds.svg	2	yes	57	0	306
6.6.1	win	2022-12-19	16:39:45	16:54:36	889910	5c5a19299404f10001ff8cbf	664504128	1	main_slash	11	main_slash	125	stimuli_target_trianglesquares.svg	stimuli_distractor_trianglediamonds.svg	18	yes	53	1	542
6.6.1	win	2022-12-19	16:39:45	16:54:36	889910	5c5a19299404f10001ff8cbf	664504128	1	main_slash	11	advance_on_keypress_SLASH	126	stimuli_target_trianglesquares.svg	stimuli_distractor_trianglediamonds.svg	18	yes	57	0	281
6.6.1	win	2022-12-19	16:39:45	16:54:38	891294	5c5a19299404f10001ff8cbf	664504128	1	main_slash	11	main_slash	127	stimuli_distractor_trianglediamonds.svg	stimuli_target_circlediamonds.svg	10	yes	53	1	461
6.6.1	win	2022-12-19	16:39:45	16:54:38	891294	5c5a19299404f10001ff8cbf	664504128	1	main_slash	11	advance_on_keypress_SLASH	128	stimuli_distractor_trianglediamonds.svg	stimuli_target_circlediamonds.svg	10	yes	57	0	257
6.6.1	win	2022-12-19	16:39:45	16:54:39	892916	5c5a19299404f10001ff8cbf	664504128	1	main_slash	11	main_slash	129	stimuli_target_trianglesquares.svg	stimuli_distractor_diamondtriangles.svg	22	yes	53	1	718
6.6.1	win	2022-12-19	16:39:45	16:54:39	892916	5c5a19299404f10001ff8cbf	664504128	1	main_slash	11	advance_on_keypress_SLASH	130	stimuli_target_trianglesquares.svg	stimuli_distractor_diamondtriangles.svg	22	yes	57	0	272
6.6.1	win	2022-12-19	16:39:45	16:54:41	894803	5c5a19299404f10001ff8cbf	664504128	1	main_slash	11	main_slash	131	stimuli_distractor_trianglediamonds.svg	stimuli_target_diamondcircles.svg	27	yes	53	1	973
6.6.1	win	2022-12-19	16:39:45	16:54:41	894803	5c5a19299404f10001ff8cbf	664504128	1	main_slash	11	advance_on_keypress_SLASH	132	stimuli_distractor_trianglediamonds.svg	stimuli_target_diamondcircles.svg	27	yes	57	0	413
6.6.1	win	2022-12-19	16:39:45	16:54:43	896607	5c5a19299404f10001ff8cbf	664504128	1	main_slash	11	main_slash	133	stimuli_distractor_diamondtriangles.svg	stimuli_target_circlediamonds.svg	14	yes	53	1	745
6.6.1	win	2022-12-19	16:39:45	16:54:43	896607	5c5a19299404f10001ff8cbf	664504128	1	main_slash	11	advance_on_keypress_SLASH	134	stimuli_distractor_diamondtriangles.svg	stimuli_target_circlediamonds.svg	14	yes	57	0	263
6.6.1	win	2022-12-19	16:39:45	16:54:45	897987	5c5a19299404f10001ff8cbf	664504128	1	main_slash	11	main_slash	135	stimuli_target_circletriangles.svg	stimuli_distractor_trianglediamonds.svg	1	yes	53	1	460
6.6.1	win	2022-12-19	16:39:45	16:54:45	897987	5c5a19299404f10001ff8cbf	664504128	1	main_slash	11	advance_on_keypress_SLASH	136	stimuli_target_circletriangles.svg	stimuli_distractor_trianglediamonds.svg	1	yes	57	0	279
6.6.1	win	2022-12-19	16:39:45	16:54:46	899327	5c5a19299404f10001ff8cbf	664504128	1	main_slash	11	main_slash	137	stimuli_distractor_diamondtriangles.svg	stimuli_target_diamondsquares.svg	32	yes	53	1	402
6.6.1	win	2022-12-19	16:39:45	16:54:46	899327	5c5a19299404f10001ff8cbf	664504128	1	main_slash	11	advance_on_keypress_SLASH	138	stimuli_distractor_diamondtriangles.svg	stimuli_target_diamondsquares.svg	32	yes	57	0	329
6.6.1	win	2022-12-19	16:39:45	16:54:47	900770	5c5a19299404f10001ff8cbf	664504128	1	main_slash	11	main_slash	139	stimuli_target_diamondsquares.svg	stimuli_distractor_diamondtriangles.svg	24	yes	53	1	463
6.6.1	win	2022-12-19	16:39:45	16:54:47	900770	5c5a19299404f10001ff8cbf	664504128	1	main_slash	11	advance_on_keypress_SLASH	140	stimuli_target_diamondsquares.svg	stimuli_distractor_diamondtriangles.svg	24	yes	57	0	272
6.6.1	win	2022-12-19	16:39:45	16:54:49	902054	5c5a19299404f10001ff8cbf	664504128	1	main_slash	11	main_slash	141	stimuli_distractor_trianglediamonds.svg	stimuli_distractor_trianglediamonds.svg	33	no	53	0	365
6.6.1	win	2022-12-19	16:39:45	16:54:49	902054	5c5a19299404f10001ff8cbf	664504128	1	main_slash	11	advance_on_keypress_SLASH	142	stimuli_distractor_trianglediamonds.svg	stimuli_distractor_trianglediamonds.svg	33	no	57	0	388
6.6.1	win	2022-12-19	16:39:45	16:54:50	903525	5c5a19299404f10001ff8cbf	664504128	1	main_slash	11	main_slash	143	stimuli_distractor_trianglediamonds.svg	stimuli_target_trianglesquares.svg	26	yes	53	1	438
6.6.1	win	2022-12-19	16:39:45	16:54:50	903525	5c5a19299404f10001ff8cbf	664504128	1	main_slash	11	advance_on_keypress_SLASH	144	stimuli_distractor_trianglediamonds.svg	stimuli_target_trianglesquares.svg	26	yes	57	0	262
6.6.1	win	2022-12-19	16:39:45	16:54:51	904873	5c5a19299404f10001ff8cbf	664504128	1	main_slash	11	main_slash	145	stimuli_distractor_trianglediamonds.svg	stimuli_target_squarediamonds.svg	12	yes	53	1	437
6.6.1	win	2022-12-19	16:39:45	16:54:51	904873	5c5a19299404f10001ff8cbf	664504128	1	main_slash	11	advance_on_keypress_SLASH	146	stimuli_distractor_trianglediamonds.svg	stimuli_target_squarediamonds.svg	12	yes	57	0	271
6.6.1	win	2022-12-19	16:39:45	16:54:53	906454	5c5a19299404f10001ff8cbf	664504128	1	main_slash	11	main_slash	147	stimuli_distractor_diamondtriangles.svg	stimuli_distractor_trianglediamonds.svg	38	no	53	0	670
6.6.1	win	2022-12-19	16:39:45	16:54:53	906454	5c5a19299404f10001ff8cbf	664504128	1	main_slash	11	advance_on_keypress_SLASH	148	stimuli_distractor_diamondtriangles.svg	stimuli_distractor_trianglediamonds.svg	38	no	57	0	416
6.6.1	win	2022-12-19	16:39:45	16:54:55	908222	5c5a19299404f10001ff8cbf	664504128	1	main_slash	11	main_slash	149	stimuli_distractor_diamondtriangles.svg	stimuli_distractor_trianglediamonds.svg	37	no	53	0	705
6.6.1	win	2022-12-19	16:39:45	16:54:55	908222	5c5a19299404f10001ff8cbf	664504128	1	main_slash	11	advance_on_keypress_SLASH	150	stimuli_distractor_diamondtriangles.svg	stimuli_distractor_trianglediamonds.svg	37	no	57	0	291
6.6.1	win	2022-12-19	16:39:45	16:54:56	909715	5c5a19299404f10001ff8cbf	664504128	1	main_slash	11	main_slash	151	stimuli_distractor_trianglediamonds.svg	stimuli_target_circletriangles.svg	9	yes	53	1	568
6.6.1	win	2022-12-19	16:39:45	16:54:56	909715	5c5a19299404f10001ff8cbf	664504128	1	main_slash	11	advance_on_keypress_SLASH	152	stimuli_distractor_trianglediamonds.svg	stimuli_target_circletriangles.svg	9	yes	57	0	565
6.6.1	win	2022-12-19	16:39:45	16:54:58	911393	5c5a19299404f10001ff8cbf	664504128	1	main_slash	11	main_slash	153	stimuli_target_diamondsquares.svg	stimuli_distractor_trianglediamonds.svg	20	yes	53	1	464
6.6.1	win	2022-12-19	16:39:45	16:54:58	911393	5c5a19299404f10001ff8cbf	664504128	1	main_slash	11	advance_on_keypress_SLASH	154	stimuli_target_diamondsquares.svg	stimuli_distractor_trianglediamonds.svg	20	yes	57	0	726
6.6.1	win	2022-12-19	16:39:45	16:55:00	913238	5c5a19299404f10001ff8cbf	664504128	1	main_slash	11	main_slash	155	stimuli_distractor_diamondtriangles.svg	stimuli_target_trianglesquares.svg	30	yes	53	1	461
6.6.1	win	2022-12-19	16:39:45	16:55:00	913238	5c5a19299404f10001ff8cbf	664504128	1	main_slash	11	advance_on_keypress_SLASH	156	stimuli_distractor_diamondtriangles.svg	stimuli_target_trianglesquares.svg	30	yes	57	0	296
6.6.1	win	2022-12-19	16:39:45	16:55:01	914491	5c5a19299404f10001ff8cbf	664504128	1	main_slash	11	main_slash	157	stimuli_target_trianglecircles.svg	stimuli_distractor_trianglediamonds.svg	17	yes	53	1	299
6.6.1	win	2022-12-19	16:39:45	16:55:01	914491	5c5a19299404f10001ff8cbf	664504128	1	main_slash	11	advance_on_keypress_SLASH	158	stimuli_target_trianglecircles.svg	stimuli_distractor_trianglediamonds.svg	17	yes	57	0	389
6.6.1	win	2022-12-19	16:39:45	16:55:02	915980	5c5a19299404f10001ff8cbf	664504128	1	main_slash	11	main_slash	159	stimuli_target_circletriangles.svg	stimuli_distractor_diamondtriangles.svg	5	yes	53	1	455
6.6.1	win	2022-12-19	16:39:45	16:55:02	915980	5c5a19299404f10001ff8cbf	664504128	1	main_slash	11	advance_on_keypress_SLASH	160	stimuli_target_circletriangles.svg	stimuli_distractor_diamondtriangles.svg	5	yes	57	0	312