build	computer.platform	date	time	timestamp	time_elapsed_ms	subject	group	session	blockcode	blocknum	trialcode	trialnum	stimulus_left	stimulus_right	stim_index	target_present	response	correct	latency
6.6.1	ios	2022-12-14	14:55:35	14:58:26	156750	5f24993238b9f80892adf099	49334736	1	practice_z	5	practice_z	1	stimuli_target_squarediamonds.svg	stimuli_distractor_diamondtriangles.svg	2	yes	44	1	1807
6.6.1	ios	2022-12-14	14:55:35	14:58:26	156750	5f24993238b9f80892adf099	49334736	1	practice_z	5	advance_on_keypress_ZEE	2	stimuli_target_squarediamonds.svg	stimuli_distractor_diamondtriangles.svg	2	yes	57	0	1338
6.6.1	ios	2022-12-14	14:55:35	14:58:31	161778	5f24993238b9f80892adf099	49334736	1	practice_z	5	practice_z	3	stimuli_distractor_trianglediamonds.svg	stimuli_target_diamondcircles.svg	12	yes	0	0	2000
6.6.1	ios	2022-12-14	14:55:35	14:58:31	161778	5f24993238b9f80892adf099	49334736	1	practice_z	5	advance_on_keypress_ZEE	4	stimuli_distractor_trianglediamonds.svg	stimuli_target_diamondcircles.svg	12	yes	57	0	1612
6.6.1	ios	2022-12-14	14:55:35	14:58:36	167061	5f24993238b9f80892adf099	49334736	1	practice_z	5	practice_z	5	stimuli_distractor_diamondtriangles.svg	stimuli_target_diamondcircles.svg	8	yes	0	0	2000
6.6.1	ios	2022-12-14	14:55:35	14:58:36	167061	5f24993238b9f80892adf099	49334736	1	practice_z	5	advance_on_keypress_ZEE	6	stimuli_distractor_diamondtriangles.svg	stimuli_target_diamondcircles.svg	8	yes	57	0	4373
6.6.1	ios	2022-12-14	14:55:35	14:58:43	173862	5f24993238b9f80892adf099	49334736	1	practice_z	5	practice_z	7	stimuli_distractor_trianglediamonds.svg	stimuli_distractor_trianglediamonds.svg	15	no	44	0	753
6.6.1	ios	2022-12-14	14:55:35	14:58:43	173862	5f24993238b9f80892adf099	49334736	1	practice_z	5	advance_on_keypress_ZEE	8	stimuli_distractor_trianglediamonds.svg	stimuli_distractor_trianglediamonds.svg	15	no	57	0	145
6.6.1	ios	2022-12-14	14:55:35	14:58:45	175874	5f24993238b9f80892adf099	49334736	1	practice_z	5	practice_z	9	stimuli_distractor_trianglediamonds.svg	stimuli_target_circlediamonds.svg	10	yes	44	1	161
6.6.1	ios	2022-12-14	14:55:35	14:58:45	175874	5f24993238b9f80892adf099	49334736	1	practice_z	5	advance_on_keypress_ZEE	10	stimuli_distractor_trianglediamonds.svg	stimuli_target_circlediamonds.svg	10	yes	57	0	120
6.6.1	ios	2022-12-14	14:55:35	14:58:47	177853	5f24993238b9f80892adf099	49334736	1	practice_z	5	practice_z	11	stimuli_target_circlediamonds.svg	stimuli_distractor_trianglediamonds.svg	4	yes	44	1	145
6.6.1	ios	2022-12-14	14:55:35	14:58:47	177853	5f24993238b9f80892adf099	49334736	1	practice_z	5	advance_on_keypress_ZEE	12	stimuli_target_circlediamonds.svg	stimuli_distractor_trianglediamonds.svg	4	yes	57	0	120
6.6.1	ios	2022-12-14	14:55:35	14:58:49	179823	5f24993238b9f80892adf099	49334736	1	practice_z	5	practice_z	13	stimuli_target_circlediamonds.svg	stimuli_distractor_diamondtriangles.svg	1	yes	44	1	145
6.6.1	ios	2022-12-14	14:55:35	14:58:49	179823	5f24993238b9f80892adf099	49334736	1	practice_z	5	advance_on_keypress_ZEE	14	stimuli_target_circlediamonds.svg	stimuli_distractor_diamondtriangles.svg	1	yes	57	0	170
6.6.1	ios	2022-12-14	14:55:35	14:58:51	181810	5f24993238b9f80892adf099	49334736	1	practice_z	5	practice_z	15	stimuli_target_squarediamonds.svg	stimuli_distractor_trianglediamonds.svg	5	yes	44	1	105
6.6.1	ios	2022-12-14	14:55:35	14:58:51	181810	5f24993238b9f80892adf099	49334736	1	practice_z	5	advance_on_keypress_ZEE	16	stimuli_target_squarediamonds.svg	stimuli_distractor_trianglediamonds.svg	5	yes	57	0	129
6.6.1	ios	2022-12-14	14:55:35	14:58:53	183823	5f24993238b9f80892adf099	49334736	1	practice_z	5	practice_z	17	stimuli_distractor_diamondtriangles.svg	stimuli_target_trianglecircles.svg	9	yes	44	1	178
6.6.1	ios	2022-12-14	14:55:35	14:58:53	183823	5f24993238b9f80892adf099	49334736	1	practice_z	5	advance_on_keypress_ZEE	18	stimuli_distractor_diamondtriangles.svg	stimuli_target_trianglecircles.svg	9	yes	57	0	170
6.6.1	ios	2022-12-14	14:55:35	14:58:55	185889	5f24993238b9f80892adf099	49334736	1	practice_z	5	practice_z	19	stimuli_distractor_diamondtriangles.svg	stimuli_target_circletriangles.svg	7	yes	44	1	179
6.6.1	ios	2022-12-14	14:55:35	14:58:55	185889	5f24993238b9f80892adf099	49334736	1	practice_z	5	advance_on_keypress_ZEE	20	stimuli_distractor_diamondtriangles.svg	stimuli_target_circletriangles.svg	7	yes	57	0	170
6.6.1	ios	2022-12-14	14:55:35	14:58:57	187940	5f24993238b9f80892adf099	49334736	1	practice_z	5	practice_z	21	stimuli_target_diamondsquares.svg	stimuli_distractor_diamondtriangles.svg	3	yes	44	1	154
6.6.1	ios	2022-12-14	14:55:35	14:58:57	187940	5f24993238b9f80892adf099	49334736	1	practice_z	5	advance_on_keypress_ZEE	22	stimuli_target_diamondsquares.svg	stimuli_distractor_diamondtriangles.svg	3	yes	57	0	0
6.6.1	ios	2022-12-14	14:55:35	14:58:59	189806	5f24993238b9f80892adf099	49334736	1	practice_z	5	practice_z	23	stimuli_distractor_trianglediamonds.svg	stimuli_target_squarediamonds.svg	11	yes	44	1	129
6.6.1	ios	2022-12-14	14:55:35	14:58:59	189806	5f24993238b9f80892adf099	49334736	1	practice_z	5	advance_on_keypress_ZEE	24	stimuli_distractor_trianglediamonds.svg	stimuli_target_squarediamonds.svg	11	yes	57	0	504
6.6.1	ios	2022-12-14	14:55:35	14:59:01	192138	5f24993238b9f80892adf099	49334736	1	practice_z	5	practice_z	25	stimuli_target_diamondsquares.svg	stimuli_distractor_trianglediamonds.svg	6	yes	44	1	128
6.6.1	ios	2022-12-14	14:55:35	14:59:01	192138	5f24993238b9f80892adf099	49334736	1	practice_z	5	advance_on_keypress_ZEE	26	stimuli_target_diamondsquares.svg	stimuli_distractor_trianglediamonds.svg	6	yes	57	0	16
6.6.1	ios	2022-12-14	14:55:35	14:59:03	194006	5f24993238b9f80892adf099	49334736	1	practice_z	5	practice_z	27	stimuli_distractor_diamondtriangles.svg	stimuli_distractor_trianglediamonds.svg	14	no	44	0	135
6.6.1	ios	2022-12-14	14:55:35	14:59:03	194006	5f24993238b9f80892adf099	49334736	1	practice_z	5	advance_on_keypress_ZEE	28	stimuli_distractor_diamondtriangles.svg	stimuli_distractor_trianglediamonds.svg	14	no	57	0	136
6.6.1	ios	2022-12-14	14:55:35	14:59:05	196043	5f24993238b9f80892adf099	49334736	1	practice_z	5	practice_z	29	stimuli_distractor_trianglediamonds.svg	stimuli_distractor_diamondtriangles.svg	16	no	44	0	187
6.6.1	ios	2022-12-14	14:55:35	14:59:05	196043	5f24993238b9f80892adf099	49334736	1	practice_z	5	advance_on_keypress_ZEE	30	stimuli_distractor_trianglediamonds.svg	stimuli_distractor_diamondtriangles.svg	16	no	57	0	16
6.6.1	ios	2022-12-14	14:55:35	14:59:07	197955	5f24993238b9f80892adf099	49334736	1	practice_z	5	practice_z	31	stimuli_distractor_diamondtriangles.svg	stimuli_distractor_diamondtriangles.svg	13	no	44	0	186
6.6.1	ios	2022-12-14	14:55:35	14:59:07	197955	5f24993238b9f80892adf099	49334736	1	practice_z	5	advance_on_keypress_ZEE	32	stimuli_distractor_diamondtriangles.svg	stimuli_distractor_diamondtriangles.svg	13	no	57	0	1
6.6.1	ios	2022-12-14	14:55:35	14:59:12	203235	5f24993238b9f80892adf099	49334736	1	main_z	7	main_z	1	stimuli_distractor_diamondtriangles.svg	stimuli_target_squarediamonds.svg	16	yes	44	1	279
6.6.1	ios	2022-12-14	14:55:35	14:59:12	203235	5f24993238b9f80892adf099	49334736	1	main_z	7	advance_on_keypress_ZEE	2	stimuli_distractor_diamondtriangles.svg	stimuli_target_squarediamonds.svg	16	yes	57	0	187
6.6.1	ios	2022-12-14	14:55:35	14:59:13	204384	5f24993238b9f80892adf099	49334736	1	main_z	7	main_z	3	stimuli_distractor_trianglediamonds.svg	stimuli_distractor_trianglediamonds.svg	34	no	44	0	262
6.6.1	ios	2022-12-14	14:55:35	14:59:13	204384	5f24993238b9f80892adf099	49334736	1	main_z	7	advance_on_keypress_ZEE	4	stimuli_distractor_trianglediamonds.svg	stimuli_distractor_trianglediamonds.svg	34	no	57	0	420
6.6.1	ios	2022-12-14	14:55:35	14:59:15	205826	5f24993238b9f80892adf099	49334736	1	main_z	7	main_z	5	stimuli_distractor_trianglediamonds.svg	stimuli_target_trianglecircles.svg	25	yes	44	1	321
6.6.1	ios	2022-12-14	14:55:35	14:59:15	205826	5f24993238b9f80892adf099	49334736	1	main_z	7	advance_on_keypress_ZEE	6	stimuli_distractor_trianglediamonds.svg	stimuli_target_trianglecircles.svg	25	yes	57	0	404
6.6.1	ios	2022-12-14	14:55:35	14:59:16	207288	5f24993238b9f80892adf099	49334736	1	main_z	7	main_z	7	stimuli_distractor_trianglediamonds.svg	stimuli_distractor_diamondtriangles.svg	35	no	44	0	338
6.6.1	ios	2022-12-14	14:55:35	14:59:16	207288	5f24993238b9f80892adf099	49334736	1	main_z	7	advance_on_keypress_ZEE	8	stimuli_distractor_trianglediamonds.svg	stimuli_distractor_diamondtriangles.svg	35	no	57	0	428
6.6.1	ios	2022-12-14	14:55:35	14:59:20	210423	5f24993238b9f80892adf099	49334736	1	main_z	7	main_z	9	stimuli_distractor_trianglediamonds.svg	stimuli_distractor_diamondtriangles.svg	36	no	0	1	2000
6.6.1	ios	2022-12-14	14:55:35	14:59:20	210423	5f24993238b9f80892adf099	49334736	1	main_z	7	advance_on_keypress_ZEE	10	stimuli_distractor_trianglediamonds.svg	stimuli_distractor_diamondtriangles.svg	36	no	57	0	1347
6.6.1	ios	2022-12-14	14:55:35	14:59:22	212554	5f24993238b9f80892adf099	49334736	1	main_z	7	main_z	11	stimuli_distractor_trianglediamonds.svg	stimuli_target_trianglesquares.svg	26	yes	44	1	95
6.6.1	ios	2022-12-14	14:55:35	14:59:22	212554	5f24993238b9f80892adf099	49334736	1	main_z	7	advance_on_keypress_ZEE	12	stimuli_distractor_trianglediamonds.svg	stimuli_target_trianglesquares.svg	26	yes	57	0	264
6.6.1	ios	2022-12-14	14:55:35	14:59:23	213659	5f24993238b9f80892adf099	49334736	1	main_z	7	main_z	13	stimuli_target_circletriangles.svg	stimuli_distractor_trianglediamonds.svg	1	yes	44	1	120
6.6.1	ios	2022-12-14	14:55:35	14:59:23	213659	5f24993238b9f80892adf099	49334736	1	main_z	7	advance_on_keypress_ZEE	14	stimuli_target_circletriangles.svg	stimuli_distractor_trianglediamonds.svg	1	yes	57	0	179
6.6.1	ios	2022-12-14	14:55:35	14:59:24	214637	5f24993238b9f80892adf099	49334736	1	main_z	7	main_z	15	stimuli_distractor_diamondtriangles.svg	stimuli_distractor_diamondtriangles.svg	39	no	44	0	96
6.6.1	ios	2022-12-14	14:55:35	14:59:24	214637	5f24993238b9f80892adf099	49334736	1	main_z	7	advance_on_keypress_ZEE	16	stimuli_distractor_diamondtriangles.svg	stimuli_distractor_diamondtriangles.svg	39	no	57	0	129
6.6.1	ios	2022-12-14	14:55:35	14:59:25	215488	5f24993238b9f80892adf099	49334736	1	main_z	7	main_z	17	stimuli_distractor_trianglediamonds.svg	stimuli_target_diamondsquares.svg	28	yes	44	1	2
6.6.1	ios	2022-12-14	14:55:35	14:59:25	215488	5f24993238b9f80892adf099	49334736	1	main_z	7	advance_on_keypress_ZEE	18	stimuli_distractor_trianglediamonds.svg	stimuli_target_diamondsquares.svg	28	yes	57	0	103
6.6.1	ios	2022-12-14	14:55:35	14:59:26	216471	5f24993238b9f80892adf099	49334736	1	main_z	7	main_z	19	stimuli_distractor_trianglediamonds.svg	stimuli_target_squaretriangles.svg	11	yes	44	1	154
6.6.1	ios	2022-12-14	14:55:35	14:59:26	216471	5f24993238b9f80892adf099	49334736	1	main_z	7	advance_on_keypress_ZEE	20	stimuli_distractor_trianglediamonds.svg	stimuli_target_squaretriangles.svg	11	yes	57	0	112
6.6.1	ios	2022-12-14	14:55:35	14:59:26	217338	5f24993238b9f80892adf099	49334736	1	main_z	7	main_z	21	stimuli_target_trianglecircles.svg	stimuli_distractor_trianglediamonds.svg	17	yes	44	1	21
6.6.1	ios	2022-12-14	14:55:35	14:59:26	217338	5f24993238b9f80892adf099	49334736	1	main_z	7	advance_on_keypress_ZEE	22	stimuli_target_trianglecircles.svg	stimuli_distractor_trianglediamonds.svg	17	yes	57	0	128
6.6.1	ios	2022-12-14	14:55:35	14:59:28	218403	5f24993238b9f80892adf099	49334736	1	main_z	7	main_z	23	stimuli_distractor_diamondtriangles.svg	stimuli_target_diamondsquares.svg	32	yes	44	1	212
6.6.1	ios	2022-12-14	14:55:35	14:59:28	218403	5f24993238b9f80892adf099	49334736	1	main_z	7	advance_on_keypress_ZEE	24	stimuli_distractor_diamondtriangles.svg	stimuli_target_diamondsquares.svg	32	yes	57	0	111
6.6.1	ios	2022-12-14	14:55:35	14:59:29	219437	5f24993238b9f80892adf099	49334736	1	main_z	7	main_z	25	stimuli_distractor_trianglediamonds.svg	stimuli_target_circletriangles.svg	9	yes	44	1	169
6.6.1	ios	2022-12-14	14:55:35	14:59:29	219437	5f24993238b9f80892adf099	49334736	1	main_z	7	advance_on_keypress_ZEE	26	stimuli_distractor_trianglediamonds.svg	stimuli_target_circletriangles.svg	9	yes	57	0	595
6.6.1	ios	2022-12-14	14:55:35	14:59:30	221058	5f24993238b9f80892adf099	49334736	1	main_z	7	main_z	27	stimuli_target_trianglecircles.svg	stimuli_distractor_diamondtriangles.svg	21	yes	44	1	337
6.6.1	ios	2022-12-14	14:55:35	14:59:30	221058	5f24993238b9f80892adf099	49334736	1	main_z	7	advance_on_keypress_ZEE	28	stimuli_target_trianglecircles.svg	stimuli_distractor_diamondtriangles.svg	21	yes	57	0	120
6.6.1	ios	2022-12-14	14:55:35	14:59:31	222069	5f24993238b9f80892adf099	49334736	1	main_z	7	main_z	29	stimuli_distractor_diamondtriangles.svg	stimuli_target_trianglecircles.svg	29	yes	44	1	162
6.6.1	ios	2022-12-14	14:55:35	14:59:31	222069	5f24993238b9f80892adf099	49334736	1	main_z	7	advance_on_keypress_ZEE	30	stimuli_distractor_diamondtriangles.svg	stimuli_target_trianglecircles.svg	29	yes	57	0	88
6.6.1	ios	2022-12-14	14:55:35	14:59:32	223037	5f24993238b9f80892adf099	49334736	1	main_z	7	main_z	31	stimuli_distractor_diamondtriangles.svg	stimuli_distractor_diamondtriangles.svg	40	no	44	0	163
6.6.1	ios	2022-12-14	14:55:35	14:59:32	223037	5f24993238b9f80892adf099	49334736	1	main_z	7	advance_on_keypress_ZEE	32	stimuli_distractor_diamondtriangles.svg	stimuli_distractor_diamondtriangles.svg	40	no	57	0	145
6.6.1	ios	2022-12-14	14:55:35	14:59:33	224187	5f24993238b9f80892adf099	49334736	1	main_z	7	main_z	33	stimuli_distractor_diamondtriangles.svg	stimuli_target_trianglesquares.svg	30	yes	44	1	301
6.6.1	ios	2022-12-14	14:55:35	14:59:33	224187	5f24993238b9f80892adf099	49334736	1	main_z	7	advance_on_keypress_ZEE	34	stimuli_distractor_diamondtriangles.svg	stimuli_target_trianglesquares.svg	30	yes	57	0	162
6.6.1	ios	2022-12-14	14:55:35	14:59:34	225270	5f24993238b9f80892adf099	49334736	1	main_z	7	main_z	35	stimuli_target_diamondsquares.svg	stimuli_distractor_diamondtriangles.svg	24	yes	44	1	195
6.6.1	ios	2022-12-14	14:55:35	14:59:34	225270	5f24993238b9f80892adf099	49334736	1	main_z	7	advance_on_keypress_ZEE	36	stimuli_target_diamondsquares.svg	stimuli_distractor_diamondtriangles.svg	24	yes	57	0	120
6.6.1	ios	2022-12-14	14:55:35	14:59:35	226191	5f24993238b9f80892adf099	49334736	1	main_z	7	main_z	37	stimuli_target_trianglesquares.svg	stimuli_distractor_trianglediamonds.svg	18	yes	44	1	70
6.6.1	ios	2022-12-14	14:55:35	14:59:35	226191	5f24993238b9f80892adf099	49334736	1	main_z	7	advance_on_keypress_ZEE	38	stimuli_target_trianglesquares.svg	stimuli_distractor_trianglediamonds.svg	18	yes	57	0	171
6.6.1	ios	2022-12-14	14:55:35	14:59:36	227316	5f24993238b9f80892adf099	49334736	1	main_z	7	main_z	39	stimuli_distractor_diamondtriangles.svg	stimuli_distractor_trianglediamonds.svg	38	no	44	0	245
6.6.1	ios	2022-12-14	14:55:35	14:59:36	227316	5f24993238b9f80892adf099	49334736	1	main_z	7	advance_on_keypress_ZEE	40	stimuli_distractor_diamondtriangles.svg	stimuli_distractor_trianglediamonds.svg	38	no	57	0	112
6.6.1	ios	2022-12-14	14:55:35	14:59:37	228183	5f24993238b9f80892adf099	49334736	1	main_z	7	main_z	41	stimuli_distractor_diamondtriangles.svg	stimuli_target_squaretriangles.svg	15	yes	44	1	12
6.6.1	ios	2022-12-14	14:55:35	14:59:37	228183	5f24993238b9f80892adf099	49334736	1	main_z	7	advance_on_keypress_ZEE	42	stimuli_distractor_diamondtriangles.svg	stimuli_target_squaretriangles.svg	15	yes	57	0	145
6.6.1	ios	2022-12-14	14:55:35	14:59:38	229070	5f24993238b9f80892adf099	49334736	1	main_z	7	main_z	43	stimuli_distractor_trianglediamonds.svg	stimuli_target_diamondcircles.svg	27	yes	44	1	45
6.6.1	ios	2022-12-14	14:55:35	14:59:38	229070	5f24993238b9f80892adf099	49334736	1	main_z	7	advance_on_keypress_ZEE	44	stimuli_distractor_trianglediamonds.svg	stimuli_target_diamondcircles.svg	27	yes	57	0	145
6.6.1	ios	2022-12-14	14:55:35	14:59:39	229987	5f24993238b9f80892adf099	49334736	1	main_z	7	main_z	45	stimuli_target_diamondcircles.svg	stimuli_distractor_diamondtriangles.svg	23	yes	44	1	45
6.6.1	ios	2022-12-14	14:55:35	14:59:39	229987	5f24993238b9f80892adf099	49334736	1	main_z	7	advance_on_keypress_ZEE	46	stimuli_target_diamondcircles.svg	stimuli_distractor_diamondtriangles.svg	23	yes	57	0	145
6.6.1	ios	2022-12-14	14:55:35	14:59:40	230936	5f24993238b9f80892adf099	49334736	1	main_z	7	main_z	47	stimuli_distractor_trianglediamonds.svg	stimuli_distractor_trianglediamonds.svg	33	no	44	0	79
6.6.1	ios	2022-12-14	14:55:35	14:59:40	230936	5f24993238b9f80892adf099	49334736	1	main_z	7	advance_on_keypress_ZEE	48	stimuli_distractor_trianglediamonds.svg	stimuli_distractor_trianglediamonds.svg	33	no	57	0	186
6.6.1	ios	2022-12-14	14:55:35	14:59:41	231886	5f24993238b9f80892adf099	49334736	1	main_z	7	main_z	49	stimuli_distractor_trianglediamonds.svg	stimuli_target_squarediamonds.svg	12	yes	44	1	37
6.6.1	ios	2022-12-14	14:55:35	14:59:41	231886	5f24993238b9f80892adf099	49334736	1	main_z	7	advance_on_keypress_ZEE	50	stimuli_distractor_trianglediamonds.svg	stimuli_target_squarediamonds.svg	12	yes	57	0	170
6.6.1	ios	2022-12-14	14:55:35	14:59:42	233002	5f24993238b9f80892adf099	49334736	1	main_z	7	main_z	51	stimuli_target_squaretriangles.svg	stimuli_distractor_trianglediamonds.svg	3	yes	44	1	213
6.6.1	ios	2022-12-14	14:55:35	14:59:42	233002	5f24993238b9f80892adf099	49334736	1	main_z	7	advance_on_keypress_ZEE	52	stimuli_target_squaretriangles.svg	stimuli_distractor_trianglediamonds.svg	3	yes	57	0	128
6.6.1	ios	2022-12-14	14:55:35	14:59:43	233853	5f24993238b9f80892adf099	49334736	1	main_z	7	main_z	53	stimuli_distractor_diamondtriangles.svg	stimuli_target_circletriangles.svg	13	yes	44	1	1
6.6.1	ios	2022-12-14	14:55:35	14:59:43	233853	5f24993238b9f80892adf099	49334736	1	main_z	7	advance_on_keypress_ZEE	54	stimuli_distractor_diamondtriangles.svg	stimuli_target_circletriangles.svg	13	yes	57	0	154
6.6.1	ios	2022-12-14	14:55:35	14:59:44	234935	5f24993238b9f80892adf099	49334736	1	main_z	7	main_z	55	stimuli_target_trianglesquares.svg	stimuli_distractor_diamondtriangles.svg	22	yes	44	1	179
6.6.1	ios	2022-12-14	14:55:35	14:59:44	234935	5f24993238b9f80892adf099	49334736	1	main_z	7	advance_on_keypress_ZEE	56	stimuli_target_trianglesquares.svg	stimuli_distractor_diamondtriangles.svg	22	yes	57	0	196
6.6.1	ios	2022-12-14	14:55:35	14:59:45	235886	5f24993238b9f80892adf099	49334736	1	main_z	7	main_z	57	stimuli_target_squarediamonds.svg	stimuli_distractor_diamondtriangles.svg	8	yes	44	1	37
6.6.1	ios	2022-12-14	14:55:35	14:59:45	235886	5f24993238b9f80892adf099	49334736	1	main_z	7	advance_on_keypress_ZEE	58	stimuli_target_squarediamonds.svg	stimuli_distractor_diamondtriangles.svg	8	yes	57	0	129
6.6.1	ios	2022-12-14	14:55:35	14:59:46	236769	5f24993238b9f80892adf099	49334736	1	main_z	7	main_z	59	stimuli_distractor_diamondtriangles.svg	stimuli_target_diamondcircles.svg	31	yes	44	1	19
6.6.1	ios	2022-12-14	14:55:35	14:59:46	236769	5f24993238b9f80892adf099	49334736	1	main_z	7	advance_on_keypress_ZEE	60	stimuli_distractor_diamondtriangles.svg	stimuli_target_diamondcircles.svg	31	yes	57	0	129
6.6.1	ios	2022-12-14	14:55:35	14:59:47	237769	5f24993238b9f80892adf099	49334736	1	main_z	7	main_z	61	stimuli_target_circlediamonds.svg	stimuli_distractor_diamondtriangles.svg	6	yes	44	1	144
6.6.1	ios	2022-12-14	14:55:35	14:59:47	237769	5f24993238b9f80892adf099	49334736	1	main_z	7	advance_on_keypress_ZEE	62	stimuli_target_circlediamonds.svg	stimuli_distractor_diamondtriangles.svg	6	yes	57	0	170
6.6.1	ios	2022-12-14	14:55:35	14:59:48	238852	5f24993238b9f80892adf099	49334736	1	main_z	7	main_z	63	stimuli_target_diamondcircles.svg	stimuli_distractor_trianglediamonds.svg	19	yes	44	1	196
6.6.1	ios	2022-12-14	14:55:35	14:59:48	238852	5f24993238b9f80892adf099	49334736	1	main_z	7	advance_on_keypress_ZEE	64	stimuli_target_diamondcircles.svg	stimuli_distractor_trianglediamonds.svg	19	yes	57	0	170
6.6.1	ios	2022-12-14	14:55:35	14:59:49	239769	5f24993238b9f80892adf099	49334736	1	main_z	7	main_z	65	stimuli_target_squaretriangles.svg	stimuli_distractor_diamondtriangles.svg	7	yes	44	1	20
6.6.1	ios	2022-12-14	14:55:35	14:59:49	239769	5f24993238b9f80892adf099	49334736	1	main_z	7	advance_on_keypress_ZEE	66	stimuli_target_squaretriangles.svg	stimuli_distractor_diamondtriangles.svg	7	yes	57	0	379
6.6.1	ios	2022-12-14	14:55:35	14:59:50	241286	5f24993238b9f80892adf099	49334736	1	main_z	7	main_z	67	stimuli_distractor_diamondtriangles.svg	stimuli_distractor_trianglediamonds.svg	37	no	44	0	419
6.6.1	ios	2022-12-14	14:55:35	14:59:50	241286	5f24993238b9f80892adf099	49334736	1	main_z	7	advance_on_keypress_ZEE	68	stimuli_distractor_diamondtriangles.svg	stimuli_distractor_trianglediamonds.svg	37	no	57	0	137
6.6.1	ios	2022-12-14	14:55:35	14:59:52	242436	5f24993238b9f80892adf099	49334736	1	main_z	7	main_z	69	stimuli_target_circlediamonds.svg	stimuli_distractor_trianglediamonds.svg	2	yes	44	1	279
6.6.1	ios	2022-12-14	14:55:35	14:59:52	242436	5f24993238b9f80892adf099	49334736	1	main_z	7	advance_on_keypress_ZEE	70	stimuli_target_circlediamonds.svg	stimuli_distractor_trianglediamonds.svg	2	yes	57	0	387
6.6.1	ios	2022-12-14	14:55:35	14:59:53	243719	5f24993238b9f80892adf099	49334736	1	main_z	7	main_z	71	stimuli_distractor_diamondtriangles.svg	stimuli_target_circlediamonds.svg	14	yes	44	1	188
6.6.1	ios	2022-12-14	14:55:35	14:59:53	243719	5f24993238b9f80892adf099	49334736	1	main_z	7	advance_on_keypress_ZEE	72	stimuli_distractor_diamondtriangles.svg	stimuli_target_circlediamonds.svg	14	yes	57	0	153
6.6.1	ios	2022-12-14	14:55:35	14:59:56	246570	5f24993238b9f80892adf099	49334736	1	main_z	7	main_z	73	stimuli_target_squarediamonds.svg	stimuli_distractor_trianglediamonds.svg	4	yes	0	0	2000
6.6.1	ios	2022-12-14	14:55:35	14:59:56	246570	5f24993238b9f80892adf099	49334736	1	main_z	7	advance_on_keypress_ZEE	74	stimuli_target_squarediamonds.svg	stimuli_distractor_trianglediamonds.svg	4	yes	57	0	579
6.6.1	ios	2022-12-14	14:55:35	14:59:57	247835	5f24993238b9f80892adf099	49334736	1	main_z	7	main_z	75	stimuli_distractor_trianglediamonds.svg	stimuli_target_circlediamonds.svg	10	yes	44	1	12
6.6.1	ios	2022-12-14	14:55:35	14:59:57	247835	5f24993238b9f80892adf099	49334736	1	main_z	7	advance_on_keypress_ZEE	76	stimuli_distractor_trianglediamonds.svg	stimuli_target_circlediamonds.svg	10	yes	57	0	136
6.6.1	ios	2022-12-14	14:55:35	14:59:58	249335	5f24993238b9f80892adf099	49334736	1	main_z	7	main_z	77	stimuli_target_circletriangles.svg	stimuli_distractor_diamondtriangles.svg	5	yes	44	1	646
6.6.1	ios	2022-12-14	14:55:35	14:59:58	249335	5f24993238b9f80892adf099	49334736	1	main_z	7	advance_on_keypress_ZEE	78	stimuli_target_circletriangles.svg	stimuli_distractor_diamondtriangles.svg	5	yes	57	0	404
6.6.1	ios	2022-12-14	14:55:35	15:00:01	251788	5f24993238b9f80892adf099	49334736	1	main_z	7	main_z	79	stimuli_target_diamondsquares.svg	stimuli_distractor_trianglediamonds.svg	20	yes	44	1	1335
6.6.1	ios	2022-12-14	14:55:35	15:00:01	251788	5f24993238b9f80892adf099	49334736	1	main_z	7	advance_on_keypress_ZEE	80	stimuli_target_diamondsquares.svg	stimuli_distractor_trianglediamonds.svg	20	yes	57	0	428
6.6.1	ios	2022-12-14	14:55:35	15:00:04	254920	5f24993238b9f80892adf099	49334736	1	main_z	7	main_z	81	stimuli_distractor_diamondtriangles.svg	stimuli_distractor_diamondtriangles.svg	39	no	0	1	2000
6.6.1	ios	2022-12-14	14:55:35	15:00:04	254920	5f24993238b9f80892adf099	49334736	1	main_z	7	advance_on_keypress_ZEE	82	stimuli_distractor_diamondtriangles.svg	stimuli_distractor_diamondtriangles.svg	39	no	57	0	988
6.6.1	ios	2022-12-14	14:55:35	15:00:06	256780	5f24993238b9f80892adf099	49334736	1	main_z	7	main_z	83	stimuli_target_circlediamonds.svg	stimuli_distractor_trianglediamonds.svg	2	yes	44	1	195
6.6.1	ios	2022-12-14	14:55:35	15:00:06	256780	5f24993238b9f80892adf099	49334736	1	main_z	7	advance_on_keypress_ZEE	84	stimuli_target_circlediamonds.svg	stimuli_distractor_trianglediamonds.svg	2	yes	57	0	137
6.6.1	ios	2022-12-14	14:55:35	15:00:07	257718	5f24993238b9f80892adf099	49334736	1	main_z	7	main_z	85	stimuli_distractor_diamondtriangles.svg	stimuli_target_trianglesquares.svg	30	yes	44	1	83
6.6.1	ios	2022-12-14	14:55:35	15:00:07	257718	5f24993238b9f80892adf099	49334736	1	main_z	7	advance_on_keypress_ZEE	86	stimuli_distractor_diamondtriangles.svg	stimuli_target_trianglesquares.svg	30	yes	57	0	178
6.6.1	ios	2022-12-14	14:55:35	15:00:08	258721	5f24993238b9f80892adf099	49334736	1	main_z	7	main_z	87	stimuli_target_circletriangles.svg	stimuli_distractor_trianglediamonds.svg	1	yes	44	1	119
6.6.1	ios	2022-12-14	14:55:35	15:00:08	258721	5f24993238b9f80892adf099	49334736	1	main_z	7	advance_on_keypress_ZEE	88	stimuli_target_circletriangles.svg	stimuli_distractor_trianglediamonds.svg	1	yes	57	0	146
6.6.1	ios	2022-12-14	14:55:35	15:00:09	259717	5f24993238b9f80892adf099	49334736	1	main_z	7	main_z	89	stimuli_distractor_diamondtriangles.svg	stimuli_distractor_trianglediamonds.svg	38	no	44	0	129
6.6.1	ios	2022-12-14	14:55:35	15:00:09	259717	5f24993238b9f80892adf099	49334736	1	main_z	7	advance_on_keypress_ZEE	90	stimuli_distractor_diamondtriangles.svg	stimuli_distractor_trianglediamonds.svg	38	no	57	0	103
6.6.1	ios	2022-12-14	14:55:35	15:00:10	260750	5f24993238b9f80892adf099	49334736	1	main_z	7	main_z	91	stimuli_distractor_trianglediamonds.svg	stimuli_target_squarediamonds.svg	12	yes	44	1	196
6.6.1	ios	2022-12-14	14:55:35	15:00:10	260750	5f24993238b9f80892adf099	49334736	1	main_z	7	advance_on_keypress_ZEE	92	stimuli_distractor_trianglediamonds.svg	stimuli_target_squarediamonds.svg	12	yes	57	0	95
6.6.1	ios	2022-12-14	14:55:35	15:00:11	261651	5f24993238b9f80892adf099	49334736	1	main_z	7	main_z	93	stimuli_target_trianglesquares.svg	stimuli_distractor_trianglediamonds.svg	18	yes	44	1	80
6.6.1	ios	2022-12-14	14:55:35	15:00:11	261651	5f24993238b9f80892adf099	49334736	1	main_z	7	advance_on_keypress_ZEE	94	stimuli_target_trianglesquares.svg	stimuli_distractor_trianglediamonds.svg	18	yes	57	0	146
6.6.1	ios	2022-12-14	14:55:35	15:00:12	262534	5f24993238b9f80892adf099	49334736	1	main_z	7	main_z	95	stimuli_target_diamondsquares.svg	stimuli_distractor_diamondtriangles.svg	24	yes	44	1	12
6.6.1	ios	2022-12-14	14:55:35	15:00:12	262534	5f24993238b9f80892adf099	49334736	1	main_z	7	advance_on_keypress_ZEE	96	stimuli_target_diamondsquares.svg	stimuli_distractor_diamondtriangles.svg	24	yes	57	0	170
6.6.1	ios	2022-12-14	14:55:35	15:00:13	263418	5f24993238b9f80892adf099	49334736	1	main_z	7	main_z	97	stimuli_target_circlediamonds.svg	stimuli_distractor_diamondtriangles.svg	6	yes	44	1	2
6.6.1	ios	2022-12-14	14:55:35	15:00:13	263418	5f24993238b9f80892adf099	49334736	1	main_z	7	advance_on_keypress_ZEE	98	stimuli_target_circlediamonds.svg	stimuli_distractor_diamondtriangles.svg	6	yes	57	0	2012
6.6.1	ios	2022-12-14	14:55:35	15:00:15	266251	5f24993238b9f80892adf099	49334736	1	main_z	7	main_z	99	stimuli_distractor_trianglediamonds.svg	stimuli_target_diamondcircles.svg	27	yes	44	1	112
6.6.1	ios	2022-12-14	14:55:35	15:00:15	266251	5f24993238b9f80892adf099	49334736	1	main_z	7	advance_on_keypress_ZEE	100	stimuli_distractor_trianglediamonds.svg	stimuli_target_diamondcircles.svg	27	yes	57	0	162
6.6.1	ios	2022-12-14	14:55:35	15:00:16	267183	5f24993238b9f80892adf099	49334736	1	main_z	7	main_z	101	stimuli_target_diamondcircles.svg	stimuli_distractor_trianglediamonds.svg	19	yes	44	1	45
6.6.1	ios	2022-12-14	14:55:35	15:00:16	267183	5f24993238b9f80892adf099	49334736	1	main_z	7	advance_on_keypress_ZEE	102	stimuli_target_diamondcircles.svg	stimuli_distractor_trianglediamonds.svg	19	yes	57	0	153
6.6.1	ios	2022-12-14	14:55:35	15:00:17	268150	5f24993238b9f80892adf099	49334736	1	main_z	7	main_z	103	stimuli_distractor_diamondtriangles.svg	stimuli_target_circletriangles.svg	13	yes	44	1	95
6.6.1	ios	2022-12-14	14:55:35	15:00:17	268150	5f24993238b9f80892adf099	49334736	1	main_z	7	advance_on_keypress_ZEE	104	stimuli_distractor_diamondtriangles.svg	stimuli_target_circletriangles.svg	13	yes	57	0	177
6.6.1	ios	2022-12-14	14:55:35	15:00:18	269133	5f24993238b9f80892adf099	49334736	1	main_z	7	main_z	105	stimuli_distractor_diamondtriangles.svg	stimuli_distractor_trianglediamonds.svg	37	no	44	0	70
6.6.1	ios	2022-12-14	14:55:35	15:00:18	269133	5f24993238b9f80892adf099	49334736	1	main_z	7	advance_on_keypress_ZEE	106	stimuli_distractor_diamondtriangles.svg	stimuli_distractor_trianglediamonds.svg	37	no	57	0	136
6.6.1	ios	2022-12-14	14:55:35	15:00:19	270150	5f24993238b9f80892adf099	49334736	1	main_z	7	main_z	107	stimuli_distractor_diamondtriangles.svg	stimuli_target_diamondsquares.svg	32	yes	44	1	162
6.6.1	ios	2022-12-14	14:55:35	15:00:19	270150	5f24993238b9f80892adf099	49334736	1	main_z	7	advance_on_keypress_ZEE	108	stimuli_distractor_diamondtriangles.svg	stimuli_target_diamondsquares.svg	32	yes	57	0	112
6.6.1	ios	2022-12-14	14:55:35	15:00:20	271249	5f24993238b9f80892adf099	49334736	1	main_z	7	main_z	109	stimuli_distractor_trianglediamonds.svg	stimuli_target_circletriangles.svg	9	yes	44	1	279
6.6.1	ios	2022-12-14	14:55:35	15:00:20	271249	5f24993238b9f80892adf099	49334736	1	main_z	7	advance_on_keypress_ZEE	110	stimuli_distractor_trianglediamonds.svg	stimuli_target_circletriangles.svg	9	yes	57	0	454
6.6.1	ios	2022-12-14	14:55:35	15:00:22	272833	5f24993238b9f80892adf099	49334736	1	main_z	7	main_z	111	stimuli_distractor_diamondtriangles.svg	stimuli_target_trianglecircles.svg	29	yes	44	1	411
6.6.1	ios	2022-12-14	14:55:35	15:00:22	272833	5f24993238b9f80892adf099	49334736	1	main_z	7	advance_on_keypress_ZEE	112	stimuli_distractor_diamondtriangles.svg	stimuli_target_trianglecircles.svg	29	yes	57	0	1161
6.6.1	ios	2022-12-14	14:55:35	15:00:24	274813	5f24993238b9f80892adf099	49334736	1	main_z	7	main_z	113	stimuli_distractor_trianglediamonds.svg	stimuli_target_trianglesquares.svg	26	yes	44	1	129
6.6.1	ios	2022-12-14	14:55:35	15:00:24	274813	5f24993238b9f80892adf099	49334736	1	main_z	7	advance_on_keypress_ZEE	114	stimuli_distractor_trianglediamonds.svg	stimuli_target_trianglesquares.svg	26	yes	57	0	328
6.6.1	ios	2022-12-14	14:55:35	15:00:26	276929	5f24993238b9f80892adf099	49334736	1	main_z	7	main_z	115	stimuli_distractor_diamondtriangles.svg	stimuli_target_squaretriangles.svg	15	yes	44	1	1096
6.6.1	ios	2022-12-14	14:55:35	15:00:26	276929	5f24993238b9f80892adf099	49334736	1	main_z	7	advance_on_keypress_ZEE	116	stimuli_distractor_diamondtriangles.svg	stimuli_target_squaretriangles.svg	15	yes	57	0	93
6.6.1	ios	2022-12-14	14:55:35	15:00:29	279736	5f24993238b9f80892adf099	49334736	1	main_z	7	main_z	117	stimuli_distractor_trianglediamonds.svg	stimuli_target_squaretriangles.svg	11	yes	0	0	2000
6.6.1	ios	2022-12-14	14:55:35	15:00:29	279736	5f24993238b9f80892adf099	49334736	1	main_z	7	advance_on_keypress_ZEE	118	stimuli_distractor_trianglediamonds.svg	stimuli_target_squaretriangles.svg	11	yes	57	0	3929
6.6.1	ios	2022-12-14	14:55:35	15:00:34	284516	5f24993238b9f80892adf099	49334736	1	main_z	7	main_z	119	stimuli_distractor_trianglediamonds.svg	stimuli_distractor_diamondtriangles.svg	36	no	44	0	179
6.6.1	ios	2022-12-14	14:55:35	15:00:34	284516	5f24993238b9f80892adf099	49334736	1	main_z	7	advance_on_keypress_ZEE	120	stimuli_distractor_trianglediamonds.svg	stimuli_distractor_diamondtriangles.svg	36	no	57	0	146
6.6.1	ios	2022-12-14	14:55:35	15:00:35	285399	5f24993238b9f80892adf099	49334736	1	main_z	7	main_z	121	stimuli_target_squarediamonds.svg	stimuli_distractor_diamondtriangles.svg	8	yes	44	1	29
6.6.1	ios	2022-12-14	14:55:35	15:00:35	285399	5f24993238b9f80892adf099	49334736	1	main_z	7	advance_on_keypress_ZEE	122	stimuli_target_squarediamonds.svg	stimuli_distractor_diamondtriangles.svg	8	yes	57	0	70
6.6.1	ios	2022-12-14	14:55:35	15:00:35	286215	5f24993238b9f80892adf099	49334736	1	main_z	7	main_z	123	stimuli_distractor_diamondtriangles.svg	stimuli_target_squarediamonds.svg	16	yes	44	1	12
6.6.1	ios	2022-12-14	14:55:35	15:00:35	286215	5f24993238b9f80892adf099	49334736	1	main_z	7	advance_on_keypress_ZEE	124	stimuli_distractor_diamondtriangles.svg	stimuli_target_squarediamonds.svg	16	yes	57	0	129
6.6.1	ios	2022-12-14	14:55:35	15:00:38	289068	5f24993238b9f80892adf099	49334736	1	main_z	7	main_z	125	stimuli_distractor_diamondtriangles.svg	stimuli_target_diamondcircles.svg	31	yes	0	0	2000
6.6.1	ios	2022-12-14	14:55:35	15:00:38	289068	5f24993238b9f80892adf099	49334736	1	main_z	7	advance_on_keypress_ZEE	126	stimuli_distractor_diamondtriangles.svg	stimuli_target_diamondcircles.svg	31	yes	57	0	5178
6.6.1	ios	2022-12-14	14:55:35	15:00:44	295081	5f24993238b9f80892adf099	49334736	1	main_z	7	main_z	127	stimuli_target_squaretriangles.svg	stimuli_distractor_diamondtriangles.svg	7	yes	44	1	135
6.6.1	ios	2022-12-14	14:55:35	15:00:44	295081	5f24993238b9f80892adf099	49334736	1	main_z	7	advance_on_keypress_ZEE	128	stimuli_target_squaretriangles.svg	stimuli_distractor_diamondtriangles.svg	7	yes	57	0	129
6.6.1	ios	2022-12-14	14:55:35	15:00:45	296048	5f24993238b9f80892adf099	49334736	1	main_z	7	main_z	129	stimuli_target_circletriangles.svg	stimuli_distractor_diamondtriangles.svg	5	yes	44	1	112
6.6.1	ios	2022-12-14	14:55:35	15:00:45	296048	5f24993238b9f80892adf099	49334736	1	main_z	7	advance_on_keypress_ZEE	130	stimuli_target_circletriangles.svg	stimuli_distractor_diamondtriangles.svg	5	yes	57	0	146
6.6.1	ios	2022-12-14	14:55:35	15:00:46	297031	5f24993238b9f80892adf099	49334736	1	main_z	7	main_z	131	stimuli_distractor_diamondtriangles.svg	stimuli_target_circlediamonds.svg	14	yes	44	1	112
6.6.1	ios	2022-12-14	14:55:35	15:00:46	297031	5f24993238b9f80892adf099	49334736	1	main_z	7	advance_on_keypress_ZEE	132	stimuli_distractor_diamondtriangles.svg	stimuli_target_circlediamonds.svg	14	yes	57	0	162
6.6.1	ios	2022-12-14	14:55:35	15:00:47	298030	5f24993238b9f80892adf099	49334736	1	main_z	7	main_z	133	stimuli_target_squarediamonds.svg	stimuli_distractor_trianglediamonds.svg	4	yes	44	1	127
6.6.1	ios	2022-12-14	14:55:35	15:00:47	298030	5f24993238b9f80892adf099	49334736	1	main_z	7	advance_on_keypress_ZEE	134	stimuli_target_squarediamonds.svg	stimuli_distractor_trianglediamonds.svg	4	yes	57	0	203
6.6.1	ios	2022-12-14	14:55:35	15:00:48	299114	5f24993238b9f80892adf099	49334736	1	main_z	7	main_z	135	stimuli_distractor_diamondtriangles.svg	stimuli_distractor_diamondtriangles.svg	40	no	44	0	154
6.6.1	ios	2022-12-14	14:55:35	15:00:48	299114	5f24993238b9f80892adf099	49334736	1	main_z	7	advance_on_keypress_ZEE	136	stimuli_distractor_diamondtriangles.svg	stimuli_distractor_diamondtriangles.svg	40	no	57	0	113
6.6.1	ios	2022-12-14	14:55:35	15:00:49	299980	5f24993238b9f80892adf099	49334736	1	main_z	7	main_z	137	stimuli_distractor_trianglediamonds.svg	stimuli_target_circlediamonds.svg	10	yes	44	1	29
6.6.1	ios	2022-12-14	14:55:35	15:00:49	299980	5f24993238b9f80892adf099	49334736	1	main_z	7	advance_on_keypress_ZEE	138	stimuli_distractor_trianglediamonds.svg	stimuli_target_circlediamonds.svg	10	yes	57	0	129
6.6.1	ios	2022-12-14	14:55:35	15:00:50	301115	5f24993238b9f80892adf099	49334736	1	main_z	7	main_z	139	stimuli_distractor_trianglediamonds.svg	stimuli_distractor_diamondtriangles.svg	35	no	44	0	254
6.6.1	ios	2022-12-14	14:55:35	15:00:50	301115	5f24993238b9f80892adf099	49334736	1	main_z	7	advance_on_keypress_ZEE	140	stimuli_distractor_trianglediamonds.svg	stimuli_distractor_diamondtriangles.svg	35	no	57	0	145
6.6.1	ios	2022-12-14	14:55:35	15:00:51	302047	5f24993238b9f80892adf099	49334736	1	main_z	7	main_z	141	stimuli_target_diamondcircles.svg	stimuli_distractor_diamondtriangles.svg	23	yes	44	1	78
6.6.1	ios	2022-12-14	14:55:35	15:00:51	302047	5f24993238b9f80892adf099	49334736	1	main_z	7	advance_on_keypress_ZEE	142	stimuli_target_diamondcircles.svg	stimuli_distractor_diamondtriangles.svg	23	yes	57	0	179
6.6.1	ios	2022-12-14	14:55:35	15:00:52	302964	5f24993238b9f80892adf099	49334736	1	main_z	7	main_z	143	stimuli_target_trianglecircles.svg	stimuli_distractor_diamondtriangles.svg	21	yes	44	1	45
6.6.1	ios	2022-12-14	14:55:35	15:00:52	302964	5f24993238b9f80892adf099	49334736	1	main_z	7	advance_on_keypress_ZEE	144	stimuli_target_trianglecircles.svg	stimuli_distractor_diamondtriangles.svg	21	yes	57	0	195
6.6.1	ios	2022-12-14	14:55:35	15:00:53	303898	5f24993238b9f80892adf099	49334736	1	main_z	7	main_z	145	stimuli_distractor_trianglediamonds.svg	stimuli_target_trianglecircles.svg	25	yes	44	1	21
6.6.1	ios	2022-12-14	14:55:35	15:00:53	303898	5f24993238b9f80892adf099	49334736	1	main_z	7	advance_on_keypress_ZEE	146	stimuli_distractor_trianglediamonds.svg	stimuli_target_trianglecircles.svg	25	yes	57	0	213
6.6.1	ios	2022-12-14	14:55:35	15:00:54	304881	5f24993238b9f80892adf099	49334736	1	main_z	7	main_z	147	stimuli_distractor_trianglediamonds.svg	stimuli_target_diamondsquares.svg	28	yes	44	1	62
6.6.1	ios	2022-12-14	14:55:35	15:00:54	304881	5f24993238b9f80892adf099	49334736	1	main_z	7	advance_on_keypress_ZEE	148	stimuli_distractor_trianglediamonds.svg	stimuli_target_diamondsquares.svg	28	yes	57	0	129
6.6.1	ios	2022-12-14	14:55:35	15:00:55	305764	5f24993238b9f80892adf099	49334736	1	main_z	7	main_z	149	stimuli_distractor_trianglediamonds.svg	stimuli_distractor_trianglediamonds.svg	33	no	44	0	21
6.6.1	ios	2022-12-14	14:55:35	15:00:55	305764	5f24993238b9f80892adf099	49334736	1	main_z	7	advance_on_keypress_ZEE	150	stimuli_distractor_trianglediamonds.svg	stimuli_distractor_trianglediamonds.svg	33	no	57	0	145
6.6.1	ios	2022-12-14	14:55:35	15:00:56	306730	5f24993238b9f80892adf099	49334736	1	main_z	7	main_z	151	stimuli_target_diamondsquares.svg	stimuli_distractor_trianglediamonds.svg	20	yes	44	1	95
6.6.1	ios	2022-12-14	14:55:35	15:00:56	306730	5f24993238b9f80892adf099	49334736	1	main_z	7	advance_on_keypress_ZEE	152	stimuli_target_diamondsquares.svg	stimuli_distractor_trianglediamonds.svg	20	yes	57	0	154
6.6.1	ios	2022-12-14	14:55:35	15:00:57	307614	5f24993238b9f80892adf099	49334736	1	main_z	7	main_z	153	stimuli_target_trianglesquares.svg	stimuli_distractor_diamondtriangles.svg	22	yes	44	1	2
6.6.1	ios	2022-12-14	14:55:35	15:00:57	307614	5f24993238b9f80892adf099	49334736	1	main_z	7	advance_on_keypress_ZEE	154	stimuli_target_trianglesquares.svg	stimuli_distractor_diamondtriangles.svg	22	yes	57	0	162
6.6.1	ios	2022-12-14	14:55:35	15:00:58	308597	5f24993238b9f80892adf099	49334736	1	main_z	7	main_z	155	stimuli_distractor_trianglediamonds.svg	stimuli_distractor_trianglediamonds.svg	34	no	44	0	88
6.6.1	ios	2022-12-14	14:55:35	15:00:58	308597	5f24993238b9f80892adf099	49334736	1	main_z	7	advance_on_keypress_ZEE	156	stimuli_distractor_trianglediamonds.svg	stimuli_distractor_trianglediamonds.svg	34	no	57	0	120
6.6.1	ios	2022-12-14	14:55:35	15:00:59	309647	5f24993238b9f80892adf099	49334736	1	main_z	7	main_z	157	stimuli_target_squaretriangles.svg	stimuli_distractor_trianglediamonds.svg	3	yes	44	1	185
6.6.1	ios	2022-12-14	14:55:35	15:00:59	309647	5f24993238b9f80892adf099	49334736	1	main_z	7	advance_on_keypress_ZEE	158	stimuli_target_squaretriangles.svg	stimuli_distractor_trianglediamonds.svg	3	yes	57	0	270
6.6.1	ios	2022-12-14	14:55:35	15:01:00	310680	5f24993238b9f80892adf099	49334736	1	main_z	7	main_z	159	stimuli_target_trianglecircles.svg	stimuli_distractor_trianglediamonds.svg	17	yes	44	1	21
6.6.1	ios	2022-12-14	14:55:35	15:01:00	310680	5f24993238b9f80892adf099	49334736	1	main_z	7	advance_on_keypress_ZEE	160	stimuli_target_trianglecircles.svg	stimuli_distractor_trianglediamonds.svg	17	yes	57	0	145
6.6.1	ios	2022-12-14	14:55:35	15:01:17	327717	5f24993238b9f80892adf099	49334736	1	practice_slash	9	practice_slash	1	stimuli_distractor_diamondtriangles.svg	stimuli_target_diamondcircles.svg	8	yes	53	1	467
6.6.1	ios	2022-12-14	14:55:35	15:01:17	327717	5f24993238b9f80892adf099	49334736	1	practice_slash	9	advance_on_keypress_SLASH	2	stimuli_distractor_diamondtriangles.svg	stimuli_target_diamondcircles.svg	8	yes	57	0	104
6.6.1	ios	2022-12-14	14:55:35	15:01:19	329761	5f24993238b9f80892adf099	49334736	1	practice_slash	9	practice_slash	3	stimuli_target_diamondsquares.svg	stimuli_distractor_diamondtriangles.svg	3	yes	53	1	195
6.6.1	ios	2022-12-14	14:55:35	15:01:19	329761	5f24993238b9f80892adf099	49334736	1	practice_slash	9	advance_on_keypress_SLASH	4	stimuli_target_diamondsquares.svg	stimuli_distractor_diamondtriangles.svg	3	yes	57	0	88
6.6.1	ios	2022-12-14	14:55:35	15:01:21	331616	5f24993238b9f80892adf099	49334736	1	practice_slash	9	practice_slash	5	stimuli_distractor_diamondtriangles.svg	stimuli_distractor_trianglediamonds.svg	14	no	53	0	70
6.6.1	ios	2022-12-14	14:55:35	15:01:21	331616	5f24993238b9f80892adf099	49334736	1	practice_slash	9	advance_on_keypress_SLASH	6	stimuli_distractor_diamondtriangles.svg	stimuli_distractor_trianglediamonds.svg	14	no	57	0	88
6.6.1	ios	2022-12-14	14:55:35	15:01:23	333845	5f24993238b9f80892adf099	49334736	1	practice_slash	9	practice_slash	7	stimuli_target_diamondsquares.svg	stimuli_distractor_trianglediamonds.svg	6	yes	53	1	428
6.6.1	ios	2022-12-14	14:55:35	15:01:23	333845	5f24993238b9f80892adf099	49334736	1	practice_slash	9	advance_on_keypress_SLASH	8	stimuli_target_diamondsquares.svg	stimuli_distractor_trianglediamonds.svg	6	yes	57	0	170
6.6.1	ios	2022-12-14	14:55:35	15:01:25	335848	5f24993238b9f80892adf099	49334736	1	practice_slash	9	practice_slash	9	stimuli_distractor_trianglediamonds.svg	stimuli_distractor_diamondtriangles.svg	16	no	53	0	135
6.6.1	ios	2022-12-14	14:55:35	15:01:25	335848	5f24993238b9f80892adf099	49334736	1	practice_slash	9	advance_on_keypress_SLASH	10	stimuli_distractor_trianglediamonds.svg	stimuli_distractor_diamondtriangles.svg	16	no	57	0	212
6.6.1	ios	2022-12-14	14:55:35	15:01:27	337945	5f24993238b9f80892adf099	49334736	1	practice_slash	9	practice_slash	11	stimuli_distractor_diamondtriangles.svg	stimuli_target_trianglecircles.svg	9	yes	53	1	144
6.6.1	ios	2022-12-14	14:55:35	15:01:27	337945	5f24993238b9f80892adf099	49334736	1	practice_slash	9	advance_on_keypress_SLASH	12	stimuli_distractor_diamondtriangles.svg	stimuli_target_trianglecircles.svg	9	yes	57	0	2888
6.6.1	ios	2022-12-14	14:55:35	15:01:32	342523	5f24993238b9f80892adf099	49334736	1	practice_slash	9	practice_slash	13	stimuli_target_squarediamonds.svg	stimuli_distractor_diamondtriangles.svg	2	yes	53	1	10
6.6.1	ios	2022-12-14	14:55:35	15:01:32	342523	5f24993238b9f80892adf099	49334736	1	practice_slash	9	advance_on_keypress_SLASH	14	stimuli_target_squarediamonds.svg	stimuli_distractor_diamondtriangles.svg	2	yes	57	0	172
6.6.1	ios	2022-12-14	14:55:35	15:01:34	344794	5f24993238b9f80892adf099	49334736	1	practice_slash	9	practice_slash	15	stimuli_distractor_trianglediamonds.svg	stimuli_target_circlediamonds.svg	10	yes	53	1	429
6.6.1	ios	2022-12-14	14:55:35	15:01:34	344794	5f24993238b9f80892adf099	49334736	1	practice_slash	9	advance_on_keypress_SLASH	16	stimuli_distractor_trianglediamonds.svg	stimuli_target_circlediamonds.svg	10	yes	57	0	93
6.6.1	ios	2022-12-14	14:55:35	15:01:36	346678	5f24993238b9f80892adf099	49334736	1	practice_slash	9	practice_slash	17	stimuli_target_circlediamonds.svg	stimuli_distractor_trianglediamonds.svg	4	yes	53	1	88
6.6.1	ios	2022-12-14	14:55:35	15:01:36	346678	5f24993238b9f80892adf099	49334736	1	practice_slash	9	advance_on_keypress_SLASH	18	stimuli_target_circlediamonds.svg	stimuli_distractor_trianglediamonds.svg	4	yes	57	0	54
6.6.1	ios	2022-12-14	14:55:35	15:01:38	348511	5f24993238b9f80892adf099	49334736	1	practice_slash	9	practice_slash	19	stimuli_distractor_trianglediamonds.svg	stimuli_target_diamondcircles.svg	12	yes	53	1	53
6.6.1	ios	2022-12-14	14:55:35	15:01:38	348511	5f24993238b9f80892adf099	49334736	1	practice_slash	9	advance_on_keypress_SLASH	20	stimuli_distractor_trianglediamonds.svg	stimuli_target_diamondcircles.svg	12	yes	57	0	63
6.6.1	ios	2022-12-14	14:55:35	15:01:39	350394	5f24993238b9f80892adf099	49334736	1	practice_slash	9	practice_slash	21	stimuli_distractor_trianglediamonds.svg	stimuli_distractor_trianglediamonds.svg	15	no	53	0	112
6.6.1	ios	2022-12-14	14:55:35	15:01:39	350394	5f24993238b9f80892adf099	49334736	1	practice_slash	9	advance_on_keypress_SLASH	22	stimuli_distractor_trianglediamonds.svg	stimuli_distractor_trianglediamonds.svg	15	no	57	0	96
6.6.1	ios	2022-12-14	14:55:35	15:01:41	352328	5f24993238b9f80892adf099	49334736	1	practice_slash	9	practice_slash	23	stimuli_target_squarediamonds.svg	stimuli_distractor_trianglediamonds.svg	5	yes	53	1	82
6.6.1	ios	2022-12-14	14:55:35	15:01:41	352328	5f24993238b9f80892adf099	49334736	1	practice_slash	9	advance_on_keypress_SLASH	24	stimuli_target_squarediamonds.svg	stimuli_distractor_trianglediamonds.svg	5	yes	57	0	155
6.6.1	ios	2022-12-14	14:55:35	15:01:45	356227	5f24993238b9f80892adf099	49334736	1	practice_slash	9	practice_slash	25	stimuli_distractor_trianglediamonds.svg	stimuli_target_squarediamonds.svg	11	yes	53	1	1936
6.6.1	ios	2022-12-14	14:55:35	15:01:45	356227	5f24993238b9f80892adf099	49334736	1	practice_slash	9	advance_on_keypress_SLASH	26	stimuli_distractor_trianglediamonds.svg	stimuli_target_squarediamonds.svg	11	yes	57	0	29
6.6.1	ios	2022-12-14	14:55:35	15:01:47	358127	5f24993238b9f80892adf099	49334736	1	practice_slash	9	practice_slash	27	stimuli_distractor_diamondtriangles.svg	stimuli_target_circletriangles.svg	7	yes	53	1	138
6.6.1	ios	2022-12-14	14:55:35	15:01:47	358127	5f24993238b9f80892adf099	49334736	1	practice_slash	9	advance_on_keypress_SLASH	28	stimuli_distractor_diamondtriangles.svg	stimuli_target_circletriangles.svg	7	yes	57	0	113
6.6.1	ios	2022-12-14	14:55:35	15:01:49	360093	5f24993238b9f80892adf099	49334736	1	practice_slash	9	practice_slash	29	stimuli_target_circlediamonds.svg	stimuli_distractor_diamondtriangles.svg	1	yes	53	1	129
6.6.1	ios	2022-12-14	14:55:35	15:01:49	360093	5f24993238b9f80892adf099	49334736	1	practice_slash	9	advance_on_keypress_SLASH	30	stimuli_target_circlediamonds.svg	stimuli_distractor_diamondtriangles.svg	1	yes	57	0	62
6.6.1	ios	2022-12-14	14:55:35	15:01:51	362061	5f24993238b9f80892adf099	49334736	1	practice_slash	9	practice_slash	31	stimuli_distractor_diamondtriangles.svg	stimuli_distractor_diamondtriangles.svg	13	no	53	0	187
6.6.1	ios	2022-12-14	14:55:35	15:01:51	362061	5f24993238b9f80892adf099	49334736	1	practice_slash	9	advance_on_keypress_SLASH	32	stimuli_distractor_diamondtriangles.svg	stimuli_distractor_diamondtriangles.svg	13	no	57	0	203
6.6.1	ios	2022-12-14	14:55:35	15:01:54	364860	5f24993238b9f80892adf099	49334736	1	main_slash	11	main_slash	1	stimuli_distractor_diamondtriangles.svg	stimuli_distractor_trianglediamonds.svg	38	no	53	0	72
6.6.1	ios	2022-12-14	14:55:35	15:01:54	364860	5f24993238b9f80892adf099	49334736	1	main_slash	11	advance_on_keypress_SLASH	2	stimuli_distractor_diamondtriangles.svg	stimuli_distractor_trianglediamonds.svg	38	no	57	0	244
6.6.1	ios	2022-12-14	14:55:35	15:01:55	365859	5f24993238b9f80892adf099	49334736	1	main_slash	11	main_slash	3	stimuli_target_trianglesquares.svg	stimuli_distractor_trianglediamonds.svg	18	yes	53	1	60
6.6.1	ios	2022-12-14	14:55:35	15:01:55	365859	5f24993238b9f80892adf099	49334736	1	main_slash	11	advance_on_keypress_SLASH	4	stimuli_target_trianglesquares.svg	stimuli_distractor_trianglediamonds.svg	18	yes	57	0	120
6.6.1	ios	2022-12-14	14:55:35	15:01:56	366860	5f24993238b9f80892adf099	49334736	1	main_slash	11	main_slash	5	stimuli_target_diamondcircles.svg	stimuli_distractor_diamondtriangles.svg	23	yes	53	1	135
6.6.1	ios	2022-12-14	14:55:35	15:01:56	366860	5f24993238b9f80892adf099	49334736	1	main_slash	11	advance_on_keypress_SLASH	6	stimuli_target_diamondcircles.svg	stimuli_distractor_diamondtriangles.svg	23	yes	57	0	129
6.6.1	ios	2022-12-14	14:55:35	15:01:57	367826	5f24993238b9f80892adf099	49334736	1	main_slash	11	main_slash	7	stimuli_target_squarediamonds.svg	stimuli_distractor_diamondtriangles.svg	8	yes	53	1	113
6.6.1	ios	2022-12-14	14:55:35	15:01:57	367826	5f24993238b9f80892adf099	49334736	1	main_slash	11	advance_on_keypress_SLASH	8	stimuli_target_squarediamonds.svg	stimuli_distractor_diamondtriangles.svg	8	yes	57	0	120
6.6.1	ios	2022-12-14	14:55:35	15:01:58	368776	5f24993238b9f80892adf099	49334736	1	main_slash	11	main_slash	9	stimuli_distractor_diamondtriangles.svg	stimuli_target_circlediamonds.svg	14	yes	53	1	87
6.6.1	ios	2022-12-14	14:55:35	15:01:58	368776	5f24993238b9f80892adf099	49334736	1	main_slash	11	advance_on_keypress_SLASH	10	stimuli_distractor_diamondtriangles.svg	stimuli_target_circlediamonds.svg	14	yes	57	0	129
6.6.1	ios	2022-12-14	14:55:35	15:01:59	369659	5f24993238b9f80892adf099	49334736	1	main_slash	11	main_slash	11	stimuli_distractor_diamondtriangles.svg	stimuli_target_diamondcircles.svg	31	yes	53	1	20
6.6.1	ios	2022-12-14	14:55:35	15:01:59	369659	5f24993238b9f80892adf099	49334736	1	main_slash	11	advance_on_keypress_SLASH	12	stimuli_distractor_diamondtriangles.svg	stimuli_target_diamondcircles.svg	31	yes	57	0	371
6.6.1	ios	2022-12-14	14:55:35	15:02:00	370858	5f24993238b9f80892adf099	49334736	1	main_slash	11	main_slash	13	stimuli_distractor_trianglediamonds.svg	stimuli_target_squarediamonds.svg	12	yes	53	1	112
6.6.1	ios	2022-12-14	14:55:35	15:02:00	370858	5f24993238b9f80892adf099	49334736	1	main_slash	11	advance_on_keypress_SLASH	14	stimuli_distractor_trianglediamonds.svg	stimuli_target_squarediamonds.svg	12	yes	57	0	145
6.6.1	ios	2022-12-14	14:55:35	15:02:01	371992	5f24993238b9f80892adf099	49334736	1	main_slash	11	main_slash	15	stimuli_distractor_diamondtriangles.svg	stimuli_target_trianglecircles.svg	29	yes	53	1	244
6.6.1	ios	2022-12-14	14:55:35	15:02:01	371992	5f24993238b9f80892adf099	49334736	1	main_slash	11	advance_on_keypress_SLASH	16	stimuli_distractor_diamondtriangles.svg	stimuli_target_trianglecircles.svg	29	yes	57	0	62
6.6.1	ios	2022-12-14	14:55:35	15:02:02	372959	5f24993238b9f80892adf099	49334736	1	main_slash	11	main_slash	17	stimuli_target_circletriangles.svg	stimuli_distractor_diamondtriangles.svg	5	yes	53	1	179
6.6.1	ios	2022-12-14	14:55:35	15:02:02	372959	5f24993238b9f80892adf099	49334736	1	main_slash	11	advance_on_keypress_SLASH	18	stimuli_target_circletriangles.svg	stimuli_distractor_diamondtriangles.svg	5	yes	57	0	111
6.6.1	ios	2022-12-14	14:55:35	15:02:05	375795	5f24993238b9f80892adf099	49334736	1	main_slash	11	main_slash	19	stimuli_target_circletriangles.svg	stimuli_distractor_trianglediamonds.svg	1	yes	0	0	2000
6.6.1	ios	2022-12-14	14:55:35	15:02:05	375795	5f24993238b9f80892adf099	49334736	1	main_slash	11	advance_on_keypress_SLASH	20	stimuli_target_circletriangles.svg	stimuli_distractor_trianglediamonds.svg	1	yes	57	0	6231
6.6.1	ios	2022-12-14	14:55:35	15:02:12	382859	5f24993238b9f80892adf099	49334736	1	main_slash	11	main_slash	21	stimuli_target_trianglesquares.svg	stimuli_distractor_diamondtriangles.svg	22	yes	53	1	154
6.6.1	ios	2022-12-14	14:55:35	15:02:12	382859	5f24993238b9f80892adf099	49334736	1	main_slash	11	advance_on_keypress_SLASH	22	stimuli_target_trianglesquares.svg	stimuli_distractor_diamondtriangles.svg	22	yes	57	0	129
6.6.1	ios	2022-12-14	14:55:35	15:02:13	383908	5f24993238b9f80892adf099	49334736	1	main_slash	11	main_slash	23	stimuli_target_squaretriangles.svg	stimuli_distractor_trianglediamonds.svg	3	yes	53	1	171
6.6.1	ios	2022-12-14	14:55:35	15:02:13	383908	5f24993238b9f80892adf099	49334736	1	main_slash	11	advance_on_keypress_SLASH	24	stimuli_target_squaretriangles.svg	stimuli_distractor_trianglediamonds.svg	3	yes	57	0	138
6.6.1	ios	2022-12-14	14:55:35	15:02:14	384925	5f24993238b9f80892adf099	49334736	1	main_slash	11	main_slash	25	stimuli_distractor_trianglediamonds.svg	stimuli_target_diamondcircles.svg	27	yes	53	1	146
6.6.1	ios	2022-12-14	14:55:35	15:02:14	384925	5f24993238b9f80892adf099	49334736	1	main_slash	11	advance_on_keypress_SLASH	26	stimuli_distractor_trianglediamonds.svg	stimuli_target_diamondcircles.svg	27	yes	57	0	162
6.6.1	ios	2022-12-14	14:55:35	15:02:15	385958	5f24993238b9f80892adf099	49334736	1	main_slash	11	main_slash	27	stimuli_distractor_trianglediamonds.svg	stimuli_target_squaretriangles.svg	11	yes	53	1	135
6.6.1	ios	2022-12-14	14:55:35	15:02:15	385958	5f24993238b9f80892adf099	49334736	1	main_slash	11	advance_on_keypress_SLASH	28	stimuli_distractor_trianglediamonds.svg	stimuli_target_squaretriangles.svg	11	yes	57	0	120
6.6.1	ios	2022-12-14	14:55:35	15:02:16	386975	5f24993238b9f80892adf099	49334736	1	main_slash	11	main_slash	29	stimuli_target_circlediamonds.svg	stimuli_distractor_trianglediamonds.svg	2	yes	53	1	152
6.6.1	ios	2022-12-14	14:55:35	15:02:16	386975	5f24993238b9f80892adf099	49334736	1	main_slash	11	advance_on_keypress_SLASH	30	stimuli_target_circlediamonds.svg	stimuli_distractor_trianglediamonds.svg	2	yes	57	0	228
6.6.1	ios	2022-12-14	14:55:35	15:02:17	388024	5f24993238b9f80892adf099	49334736	1	main_slash	11	main_slash	31	stimuli_distractor_trianglediamonds.svg	stimuli_distractor_trianglediamonds.svg	33	no	53	0	96
6.6.1	ios	2022-12-14	14:55:35	15:02:17	388024	5f24993238b9f80892adf099	49334736	1	main_slash	11	advance_on_keypress_SLASH	32	stimuli_distractor_trianglediamonds.svg	stimuli_distractor_trianglediamonds.svg	33	no	57	0	186
6.6.1	ios	2022-12-14	14:55:35	15:02:18	389042	5f24993238b9f80892adf099	49334736	1	main_slash	11	main_slash	33	stimuli_target_squarediamonds.svg	stimuli_distractor_trianglediamonds.svg	4	yes	53	1	85
6.6.1	ios	2022-12-14	14:55:35	15:02:18	389042	5f24993238b9f80892adf099	49334736	1	main_slash	11	advance_on_keypress_SLASH	34	stimuli_target_squarediamonds.svg	stimuli_distractor_trianglediamonds.svg	4	yes	57	0	194
6.6.1	ios	2022-12-14	14:55:35	15:02:19	390007	5f24993238b9f80892adf099	49334736	1	main_slash	11	main_slash	35	stimuli_distractor_diamondtriangles.svg	stimuli_target_diamondsquares.svg	32	yes	53	1	62
6.6.1	ios	2022-12-14	14:55:35	15:02:19	390007	5f24993238b9f80892adf099	49334736	1	main_slash	11	advance_on_keypress_SLASH	36	stimuli_distractor_diamondtriangles.svg	stimuli_target_diamondsquares.svg	32	yes	57	0	146
6.6.1	ios	2022-12-14	14:55:35	15:02:20	391077	5f24993238b9f80892adf099	49334736	1	main_slash	11	main_slash	37	stimuli_distractor_trianglediamonds.svg	stimuli_target_circlediamonds.svg	10	yes	53	1	201
6.6.1	ios	2022-12-14	14:55:35	15:02:20	391077	5f24993238b9f80892adf099	49334736	1	main_slash	11	advance_on_keypress_SLASH	38	stimuli_distractor_trianglediamonds.svg	stimuli_target_circlediamonds.svg	10	yes	57	0	120
6.6.1	ios	2022-12-14	14:55:35	15:02:21	391974	5f24993238b9f80892adf099	49334736	1	main_slash	11	main_slash	39	stimuli_target_squaretriangles.svg	stimuli_distractor_diamondtriangles.svg	7	yes	53	1	45
6.6.1	ios	2022-12-14	14:55:35	15:02:21	391974	5f24993238b9f80892adf099	49334736	1	main_slash	11	advance_on_keypress_SLASH	40	stimuli_target_squaretriangles.svg	stimuli_distractor_diamondtriangles.svg	7	yes	57	0	119
6.6.1	ios	2022-12-14	14:55:35	15:02:22	392941	5f24993238b9f80892adf099	49334736	1	main_slash	11	main_slash	41	stimuli_distractor_trianglediamonds.svg	stimuli_target_trianglecircles.svg	25	yes	53	1	113
6.6.1	ios	2022-12-14	14:55:35	15:02:22	392941	5f24993238b9f80892adf099	49334736	1	main_slash	11	advance_on_keypress_SLASH	42	stimuli_distractor_trianglediamonds.svg	stimuli_target_trianglecircles.svg	25	yes	57	0	145
6.6.1	ios	2022-12-14	14:55:35	15:02:23	394091	5f24993238b9f80892adf099	49334736	1	main_slash	11	main_slash	43	stimuli_distractor_diamondtriangles.svg	stimuli_target_squarediamonds.svg	16	yes	53	1	289
6.6.1	ios	2022-12-14	14:55:35	15:02:23	394091	5f24993238b9f80892adf099	49334736	1	main_slash	11	advance_on_keypress_SLASH	44	stimuli_distractor_diamondtriangles.svg	stimuli_target_squarediamonds.svg	16	yes	57	0	572
6.6.1	ios	2022-12-14	14:55:35	15:02:26	397394	5f24993238b9f80892adf099	49334736	1	main_slash	11	main_slash	45	stimuli_target_diamondsquares.svg	stimuli_distractor_trianglediamonds.svg	20	yes	0	0	2000
6.6.1	ios	2022-12-14	14:55:35	15:02:26	397394	5f24993238b9f80892adf099	49334736	1	main_slash	11	advance_on_keypress_SLASH	46	stimuli_target_diamondsquares.svg	stimuli_distractor_trianglediamonds.svg	20	yes	57	0	16086
6.6.1	ios	2022-12-14	14:55:35	15:02:45	416192	5f24993238b9f80892adf099	49334736	1	main_slash	11	main_slash	47	stimuli_target_circlediamonds.svg	stimuli_distractor_diamondtriangles.svg	6	yes	0	0	2000
6.6.1	ios	2022-12-14	14:55:35	15:02:45	416192	5f24993238b9f80892adf099	49334736	1	main_slash	11	advance_on_keypress_SLASH	48	stimuli_target_circlediamonds.svg	stimuli_distractor_diamondtriangles.svg	6	yes	57	0	5622
6.6.1	ios	2022-12-14	14:55:35	15:02:53	424102	5f24993238b9f80892adf099	49334736	1	main_slash	11	main_slash	49	stimuli_distractor_diamondtriangles.svg	stimuli_distractor_diamondtriangles.svg	40	no	53	0	1612
6.6.1	ios	2022-12-14	14:55:35	15:02:53	424102	5f24993238b9f80892adf099	49334736	1	main_slash	11	advance_on_keypress_SLASH	50	stimuli_distractor_diamondtriangles.svg	stimuli_distractor_diamondtriangles.svg	40	no	57	0	111
6.6.1	ios	2022-12-14	14:55:35	15:02:55	425618	5f24993238b9f80892adf099	49334736	1	main_slash	11	main_slash	51	stimuli_distractor_diamondtriangles.svg	stimuli_distractor_trianglediamonds.svg	37	no	53	0	695
6.6.1	ios	2022-12-14	14:55:35	15:02:55	425618	5f24993238b9f80892adf099	49334736	1	main_slash	11	advance_on_keypress_SLASH	52	stimuli_distractor_diamondtriangles.svg	stimuli_distractor_trianglediamonds.svg	37	no	57	0	179
6.6.1	ios	2022-12-14	14:55:35	15:02:56	426655	5f24993238b9f80892adf099	49334736	1	main_slash	11	main_slash	53	stimuli_distractor_trianglediamonds.svg	stimuli_target_diamondsquares.svg	28	yes	53	1	162
6.6.1	ios	2022-12-14	14:55:35	15:02:56	426655	5f24993238b9f80892adf099	49334736	1	main_slash	11	advance_on_keypress_SLASH	54	stimuli_distractor_trianglediamonds.svg	stimuli_target_diamondsquares.svg	28	yes	57	0	171
6.6.1	ios	2022-12-14	14:55:35	15:02:57	428126	5f24993238b9f80892adf099	49334736	1	main_slash	11	main_slash	55	stimuli_distractor_trianglediamonds.svg	stimuli_distractor_trianglediamonds.svg	34	no	53	0	554
6.6.1	ios	2022-12-14	14:55:35	15:02:57	428126	5f24993238b9f80892adf099	49334736	1	main_slash	11	advance_on_keypress_SLASH	56	stimuli_distractor_trianglediamonds.svg	stimuli_distractor_trianglediamonds.svg	34	no	57	0	128
6.6.1	ios	2022-12-14	14:55:35	15:02:58	429171	5f24993238b9f80892adf099	49334736	1	main_slash	11	main_slash	57	stimuli_distractor_trianglediamonds.svg	stimuli_target_trianglesquares.svg	26	yes	53	1	195
6.6.1	ios	2022-12-14	14:55:35	15:02:58	429171	5f24993238b9f80892adf099	49334736	1	main_slash	11	advance_on_keypress_SLASH	58	stimuli_distractor_trianglediamonds.svg	stimuli_target_trianglesquares.svg	26	yes	57	0	121
6.6.1	ios	2022-12-14	14:55:35	15:02:59	430193	5f24993238b9f80892adf099	49334736	1	main_slash	11	main_slash	59	stimuli_distractor_trianglediamonds.svg	stimuli_distractor_diamondtriangles.svg	36	no	53	0	187
6.6.1	ios	2022-12-14	14:55:35	15:02:59	430193	5f24993238b9f80892adf099	49334736	1	main_slash	11	advance_on_keypress_SLASH	60	stimuli_distractor_trianglediamonds.svg	stimuli_distractor_diamondtriangles.svg	36	no	57	0	112
6.6.1	ios	2022-12-14	14:55:35	15:03:00	431172	5f24993238b9f80892adf099	49334736	1	main_slash	11	main_slash	61	stimuli_target_trianglecircles.svg	stimuli_distractor_trianglediamonds.svg	17	yes	53	1	162
6.6.1	ios	2022-12-14	14:55:35	15:03:00	431172	5f24993238b9f80892adf099	49334736	1	main_slash	11	advance_on_keypress_SLASH	62	stimuli_target_trianglecircles.svg	stimuli_distractor_trianglediamonds.svg	17	yes	57	0	128
6.6.1	ios	2022-12-14	14:55:35	15:03:01	432188	5f24993238b9f80892adf099	49334736	1	main_slash	11	main_slash	63	stimuli_target_diamondsquares.svg	stimuli_distractor_diamondtriangles.svg	24	yes	53	1	154
6.6.1	ios	2022-12-14	14:55:35	15:03:01	432188	5f24993238b9f80892adf099	49334736	1	main_slash	11	advance_on_keypress_SLASH	64	stimuli_target_diamondsquares.svg	stimuli_distractor_diamondtriangles.svg	24	yes	57	0	128
6.6.1	ios	2022-12-14	14:55:35	15:03:02	433255	5f24993238b9f80892adf099	49334736	1	main_slash	11	main_slash	65	stimuli_distractor_trianglediamonds.svg	stimuli_target_circletriangles.svg	9	yes	53	1	212
6.6.1	ios	2022-12-14	14:55:35	15:03:02	433255	5f24993238b9f80892adf099	49334736	1	main_slash	11	advance_on_keypress_SLASH	66	stimuli_distractor_trianglediamonds.svg	stimuli_target_circletriangles.svg	9	yes	57	0	130
6.6.1	ios	2022-12-14	14:55:35	15:03:03	434288	5f24993238b9f80892adf099	49334736	1	main_slash	11	main_slash	67	stimuli_distractor_diamondtriangles.svg	stimuli_distractor_diamondtriangles.svg	39	no	53	0	170
6.6.1	ios	2022-12-14	14:55:35	15:03:03	434288	5f24993238b9f80892adf099	49334736	1	main_slash	11	advance_on_keypress_SLASH	68	stimuli_distractor_diamondtriangles.svg	stimuli_distractor_diamondtriangles.svg	39	no	57	0	146
6.6.1	ios	2022-12-14	14:55:35	15:03:05	435587	5f24993238b9f80892adf099	49334736	1	main_slash	11	main_slash	69	stimuli_distractor_diamondtriangles.svg	stimuli_target_trianglesquares.svg	30	yes	53	1	429
6.6.1	ios	2022-12-14	14:55:35	15:03:05	435587	5f24993238b9f80892adf099	49334736	1	main_slash	11	advance_on_keypress_SLASH	70	stimuli_distractor_diamondtriangles.svg	stimuli_target_trianglesquares.svg	30	yes	57	0	138
6.6.1	ios	2022-12-14	14:55:35	15:03:06	436605	5f24993238b9f80892adf099	49334736	1	main_slash	11	main_slash	71	stimuli_distractor_diamondtriangles.svg	stimuli_target_circletriangles.svg	13	yes	53	1	134
6.6.1	ios	2022-12-14	14:55:35	15:03:06	436605	5f24993238b9f80892adf099	49334736	1	main_slash	11	advance_on_keypress_SLASH	72	stimuli_distractor_diamondtriangles.svg	stimuli_target_circletriangles.svg	13	yes	57	0	129
6.6.1	ios	2022-12-14	14:55:35	15:03:07	437675	5f24993238b9f80892adf099	49334736	1	main_slash	11	main_slash	73	stimuli_distractor_diamondtriangles.svg	stimuli_target_squaretriangles.svg	15	yes	53	1	237
6.6.1	ios	2022-12-14	14:55:35	15:03:07	437675	5f24993238b9f80892adf099	49334736	1	main_slash	11	advance_on_keypress_SLASH	74	stimuli_distractor_diamondtriangles.svg	stimuli_target_squaretriangles.svg	15	yes	57	0	153
6.6.1	ios	2022-12-14	14:55:35	15:03:08	438638	5f24993238b9f80892adf099	49334736	1	main_slash	11	main_slash	75	stimuli_target_trianglecircles.svg	stimuli_distractor_diamondtriangles.svg	21	yes	53	1	54
6.6.1	ios	2022-12-14	14:55:35	15:03:08	438638	5f24993238b9f80892adf099	49334736	1	main_slash	11	advance_on_keypress_SLASH	76	stimuli_target_trianglecircles.svg	stimuli_distractor_diamondtriangles.svg	21	yes	57	0	104
6.6.1	ios	2022-12-14	14:55:35	15:03:09	439717	5f24993238b9f80892adf099	49334736	1	main_slash	11	main_slash	77	stimuli_distractor_trianglediamonds.svg	stimuli_distractor_diamondtriangles.svg	35	no	53	0	245
6.6.1	ios	2022-12-14	14:55:35	15:03:09	439717	5f24993238b9f80892adf099	49334736	1	main_slash	11	advance_on_keypress_SLASH	78	stimuli_distractor_trianglediamonds.svg	stimuli_distractor_diamondtriangles.svg	35	no	57	0	254
6.6.1	ios	2022-12-14	14:55:35	15:03:11	441750	5f24993238b9f80892adf099	49334736	1	main_slash	11	main_slash	79	stimuli_target_diamondcircles.svg	stimuli_distractor_trianglediamonds.svg	19	yes	53	1	1078
6.6.1	ios	2022-12-14	14:55:35	15:03:11	441750	5f24993238b9f80892adf099	49334736	1	main_slash	11	advance_on_keypress_SLASH	80	stimuli_target_diamondcircles.svg	stimuli_distractor_trianglediamonds.svg	19	yes	57	0	171
6.6.1	ios	2022-12-14	14:55:35	15:03:12	443117	5f24993238b9f80892adf099	49334736	1	main_slash	11	main_slash	81	stimuli_distractor_diamondtriangles.svg	stimuli_target_trianglesquares.svg	30	yes	53	1	495
6.6.1	ios	2022-12-14	14:55:35	15:03:12	443117	5f24993238b9f80892adf099	49334736	1	main_slash	11	advance_on_keypress_SLASH	82	stimuli_distractor_diamondtriangles.svg	stimuli_target_trianglesquares.svg	30	yes	57	0	178
6.6.1	ios	2022-12-14	14:55:35	15:03:13	444254	5f24993238b9f80892adf099	49334736	1	main_slash	11	main_slash	83	stimuli_distractor_diamondtriangles.svg	stimuli_distractor_diamondtriangles.svg	39	no	53	0	237
6.6.1	ios	2022-12-14	14:55:35	15:03:13	444254	5f24993238b9f80892adf099	49334736	1	main_slash	11	advance_on_keypress_SLASH	84	stimuli_distractor_diamondtriangles.svg	stimuli_distractor_diamondtriangles.svg	39	no	57	0	1779
6.6.1	ios	2022-12-14	14:55:35	15:03:16	446854	5f24993238b9f80892adf099	49334736	1	main_slash	11	main_slash	85	stimuli_target_trianglesquares.svg	stimuli_distractor_trianglediamonds.svg	18	yes	53	1	104
6.6.1	ios	2022-12-14	14:55:35	15:03:16	446854	5f24993238b9f80892adf099	49334736	1	main_slash	11	advance_on_keypress_SLASH	86	stimuli_target_trianglesquares.svg	stimuli_distractor_trianglediamonds.svg	18	yes	57	0	112
6.6.1	ios	2022-12-14	14:55:35	15:03:17	447870	5f24993238b9f80892adf099	49334736	1	main_slash	11	main_slash	87	stimuli_target_squarediamonds.svg	stimuli_distractor_diamondtriangles.svg	8	yes	53	1	188
6.6.1	ios	2022-12-14	14:55:35	15:03:17	447870	5f24993238b9f80892adf099	49334736	1	main_slash	11	advance_on_keypress_SLASH	88	stimuli_target_squarediamonds.svg	stimuli_distractor_diamondtriangles.svg	8	yes	57	0	137
6.6.1	ios	2022-12-14	14:55:35	15:03:18	448954	5f24993238b9f80892adf099	49334736	1	main_slash	11	main_slash	89	stimuli_target_trianglecircles.svg	stimuli_distractor_trianglediamonds.svg	17	yes	53	1	204
6.6.1	ios	2022-12-14	14:55:35	15:03:18	448954	5f24993238b9f80892adf099	49334736	1	main_slash	11	advance_on_keypress_SLASH	90	stimuli_target_trianglecircles.svg	stimuli_distractor_trianglediamonds.svg	17	yes	57	0	128
6.6.1	ios	2022-12-14	14:55:35	15:03:19	450021	5f24993238b9f80892adf099	49334736	1	main_slash	11	main_slash	91	stimuli_distractor_diamondtriangles.svg	stimuli_distractor_trianglediamonds.svg	38	no	53	0	221
6.6.1	ios	2022-12-14	14:55:35	15:03:19	450021	5f24993238b9f80892adf099	49334736	1	main_slash	11	advance_on_keypress_SLASH	92	stimuli_distractor_diamondtriangles.svg	stimuli_distractor_trianglediamonds.svg	38	no	57	0	145
6.6.1	ios	2022-12-14	14:55:35	15:03:20	451108	5f24993238b9f80892adf099	49334736	1	main_slash	11	main_slash	93	stimuli_distractor_trianglediamonds.svg	stimuli_target_diamondsquares.svg	28	yes	53	1	221
6.6.1	ios	2022-12-14	14:55:35	15:03:20	451108	5f24993238b9f80892adf099	49334736	1	main_slash	11	advance_on_keypress_SLASH	94	stimuli_distractor_trianglediamonds.svg	stimuli_target_diamondsquares.svg	28	yes	57	0	162
6.6.1	ios	2022-12-14	14:55:35	15:03:21	452116	5f24993238b9f80892adf099	49334736	1	main_slash	11	main_slash	95	stimuli_target_circletriangles.svg	stimuli_distractor_diamondtriangles.svg	5	yes	53	1	145
6.6.1	ios	2022-12-14	14:55:35	15:03:21	452116	5f24993238b9f80892adf099	49334736	1	main_slash	11	advance_on_keypress_SLASH	96	stimuli_target_circletriangles.svg	stimuli_distractor_diamondtriangles.svg	5	yes	57	0	286
6.6.1	ios	2022-12-14	14:55:35	15:03:22	453137	5f24993238b9f80892adf099	49334736	1	main_slash	11	main_slash	97	stimuli_distractor_diamondtriangles.svg	stimuli_target_squarediamonds.svg	16	yes	53	1	28
6.6.1	ios	2022-12-14	14:55:35	15:03:22	453137	5f24993238b9f80892adf099	49334736	1	main_slash	11	advance_on_keypress_SLASH	98	stimuli_distractor_diamondtriangles.svg	stimuli_target_squarediamonds.svg	16	yes	57	0	2411
6.6.1	ios	2022-12-14	14:55:35	15:03:26	457108	5f24993238b9f80892adf099	49334736	1	main_slash	11	main_slash	99	stimuli_target_circlediamonds.svg	stimuli_distractor_diamondtriangles.svg	6	yes	53	1	870
6.6.1	ios	2022-12-14	14:55:35	15:03:26	457108	5f24993238b9f80892adf099	49334736	1	main_slash	11	advance_on_keypress_SLASH	100	stimuli_target_circlediamonds.svg	stimuli_distractor_diamondtriangles.svg	6	yes	57	0	161
6.6.1	ios	2022-12-14	14:55:35	15:03:28	458882	5f24993238b9f80892adf099	49334736	1	main_slash	11	main_slash	101	stimuli_distractor_trianglediamonds.svg	stimuli_target_circlediamonds.svg	10	yes	53	1	911
6.6.1	ios	2022-12-14	14:55:35	15:03:28	458882	5f24993238b9f80892adf099	49334736	1	main_slash	11	advance_on_keypress_SLASH	102	stimuli_distractor_trianglediamonds.svg	stimuli_target_circlediamonds.svg	10	yes	57	0	146
6.6.1	ios	2022-12-14	14:55:35	15:03:29	459953	5f24993238b9f80892adf099	49334736	1	main_slash	11	main_slash	103	stimuli_target_trianglecircles.svg	stimuli_distractor_diamondtriangles.svg	21	yes	53	1	187
6.6.1	ios	2022-12-14	14:55:35	15:03:29	459953	5f24993238b9f80892adf099	49334736	1	main_slash	11	advance_on_keypress_SLASH	104	stimuli_target_trianglecircles.svg	stimuli_distractor_diamondtriangles.svg	21	yes	57	0	145
6.6.1	ios	2022-12-14	14:55:35	15:03:30	460966	5f24993238b9f80892adf099	49334736	1	main_slash	11	main_slash	105	stimuli_target_diamondcircles.svg	stimuli_distractor_trianglediamonds.svg	19	yes	53	1	146
6.6.1	ios	2022-12-14	14:55:35	15:03:30	460966	5f24993238b9f80892adf099	49334736	1	main_slash	11	advance_on_keypress_SLASH	106	stimuli_target_diamondcircles.svg	stimuli_distractor_trianglediamonds.svg	19	yes	57	0	145
6.6.1	ios	2022-12-14	14:55:35	15:03:31	461970	5f24993238b9f80892adf099	49334736	1	main_slash	11	main_slash	107	stimuli_distractor_diamondtriangles.svg	stimuli_target_squaretriangles.svg	15	yes	53	1	135
6.6.1	ios	2022-12-14	14:55:35	15:03:31	461970	5f24993238b9f80892adf099	49334736	1	main_slash	11	advance_on_keypress_SLASH	108	stimuli_distractor_diamondtriangles.svg	stimuli_target_squaretriangles.svg	15	yes	57	0	120
6.6.1	ios	2022-12-14	14:55:35	15:03:32	462969	5f24993238b9f80892adf099	49334736	1	main_slash	11	main_slash	109	stimuli_distractor_trianglediamonds.svg	stimuli_distractor_trianglediamonds.svg	34	no	53	0	136
6.6.1	ios	2022-12-14	14:55:35	15:03:32	462969	5f24993238b9f80892adf099	49334736	1	main_slash	11	advance_on_keypress_SLASH	110	stimuli_distractor_trianglediamonds.svg	stimuli_distractor_trianglediamonds.svg	34	no	57	0	120
6.6.1	ios	2022-12-14	14:55:35	15:03:33	463953	5f24993238b9f80892adf099	49334736	1	main_slash	11	main_slash	111	stimuli_target_squaretriangles.svg	stimuli_distractor_trianglediamonds.svg	3	yes	53	1	144
6.6.1	ios	2022-12-14	14:55:35	15:03:33	463953	5f24993238b9f80892adf099	49334736	1	main_slash	11	advance_on_keypress_SLASH	112	stimuli_target_squaretriangles.svg	stimuli_distractor_trianglediamonds.svg	3	yes	57	0	171
6.6.1	ios	2022-12-14	14:55:35	15:03:34	465053	5f24993238b9f80892adf099	49334736	1	main_slash	11	main_slash	113	stimuli_distractor_trianglediamonds.svg	stimuli_target_squaretriangles.svg	11	yes	53	1	187
6.6.1	ios	2022-12-14	14:55:35	15:03:34	465053	5f24993238b9f80892adf099	49334736	1	main_slash	11	advance_on_keypress_SLASH	114	stimuli_distractor_trianglediamonds.svg	stimuli_target_squaretriangles.svg	11	yes	57	0	78
6.6.1	ios	2022-12-14	14:55:35	15:03:35	466040	5f24993238b9f80892adf099	49334736	1	main_slash	11	main_slash	115	stimuli_distractor_diamondtriangles.svg	stimuli_distractor_trianglediamonds.svg	37	no	53	0	186
6.6.1	ios	2022-12-14	14:55:35	15:03:35	466040	5f24993238b9f80892adf099	49334736	1	main_slash	11	advance_on_keypress_SLASH	116	stimuli_distractor_diamondtriangles.svg	stimuli_distractor_trianglediamonds.svg	37	no	57	0	145
6.6.1	ios	2022-12-14	14:55:35	15:03:36	467069	5f24993238b9f80892adf099	49334736	1	main_slash	11	main_slash	117	stimuli_target_diamondsquares.svg	stimuli_distractor_diamondtriangles.svg	24	yes	53	1	178
6.6.1	ios	2022-12-14	14:55:35	15:03:36	467069	5f24993238b9f80892adf099	49334736	1	main_slash	11	advance_on_keypress_SLASH	118	stimuli_target_diamondsquares.svg	stimuli_distractor_diamondtriangles.svg	24	yes	57	0	112
6.6.1	ios	2022-12-14	14:55:35	15:03:37	468103	5f24993238b9f80892adf099	49334736	1	main_slash	11	main_slash	119	stimuli_target_trianglesquares.svg	stimuli_distractor_diamondtriangles.svg	22	yes	53	1	204
6.6.1	ios	2022-12-14	14:55:35	15:03:37	468103	5f24993238b9f80892adf099	49334736	1	main_slash	11	advance_on_keypress_SLASH	120	stimuli_target_trianglesquares.svg	stimuli_distractor_diamondtriangles.svg	22	yes	57	0	987
6.6.1	ios	2022-12-14	14:55:35	15:03:39	469819	5f24993238b9f80892adf099	49334736	1	main_slash	11	main_slash	121	stimuli_distractor_trianglediamonds.svg	stimuli_target_circletriangles.svg	9	yes	53	1	11
6.6.1	ios	2022-12-14	14:55:35	15:03:39	469819	5f24993238b9f80892adf099	49334736	1	main_slash	11	advance_on_keypress_SLASH	122	stimuli_distractor_trianglediamonds.svg	stimuli_target_circletriangles.svg	9	yes	57	0	120
6.6.1	ios	2022-12-14	14:55:35	15:03:40	470868	5f24993238b9f80892adf099	49334736	1	main_slash	11	main_slash	123	stimuli_distractor_trianglediamonds.svg	stimuli_target_squarediamonds.svg	12	yes	53	1	195
6.6.1	ios	2022-12-14	14:55:35	15:03:40	470868	5f24993238b9f80892adf099	49334736	1	main_slash	11	advance_on_keypress_SLASH	124	stimuli_distractor_trianglediamonds.svg	stimuli_target_squarediamonds.svg	12	yes	57	0	137
6.6.1	ios	2022-12-14	14:55:35	15:03:41	471935	5f24993238b9f80892adf099	49334736	1	main_slash	11	main_slash	125	stimuli_distractor_trianglediamonds.svg	stimuli_target_trianglecircles.svg	25	yes	53	1	171
6.6.1	ios	2022-12-14	14:55:35	15:03:41	471935	5f24993238b9f80892adf099	49334736	1	main_slash	11	advance_on_keypress_SLASH	126	stimuli_distractor_trianglediamonds.svg	stimuli_target_trianglecircles.svg	25	yes	57	0	111
6.6.1	ios	2022-12-14	14:55:35	15:03:42	472918	5f24993238b9f80892adf099	49334736	1	main_slash	11	main_slash	127	stimuli_distractor_trianglediamonds.svg	stimuli_distractor_diamondtriangles.svg	35	no	53	0	178
6.6.1	ios	2022-12-14	14:55:35	15:03:42	472918	5f24993238b9f80892adf099	49334736	1	main_slash	11	advance_on_keypress_SLASH	128	stimuli_distractor_trianglediamonds.svg	stimuli_distractor_diamondtriangles.svg	35	no	57	0	129
6.6.1	ios	2022-12-14	14:55:35	15:03:43	473873	5f24993238b9f80892adf099	49334736	1	main_slash	11	main_slash	129	stimuli_target_circlediamonds.svg	stimuli_distractor_trianglediamonds.svg	2	yes	53	1	120
6.6.1	ios	2022-12-14	14:55:35	15:03:43	473873	5f24993238b9f80892adf099	49334736	1	main_slash	11	advance_on_keypress_SLASH	130	stimuli_target_circlediamonds.svg	stimuli_distractor_trianglediamonds.svg	2	yes	57	0	162
6.6.1	ios	2022-12-14	14:55:35	15:03:44	475334	5f24993238b9f80892adf099	49334736	1	main_slash	11	main_slash	131	stimuli_target_squaretriangles.svg	stimuli_distractor_diamondtriangles.svg	7	yes	53	1	579
6.6.1	ios	2022-12-14	14:55:35	15:03:44	475334	5f24993238b9f80892adf099	49334736	1	main_slash	11	advance_on_keypress_SLASH	132	stimuli_target_squaretriangles.svg	stimuli_distractor_diamondtriangles.svg	7	yes	57	0	428
6.6.1	ios	2022-12-14	14:55:35	15:03:46	476635	5f24993238b9f80892adf099	49334736	1	main_slash	11	main_slash	133	stimuli_distractor_trianglediamonds.svg	stimuli_distractor_trianglediamonds.svg	33	no	53	0	170
6.6.1	ios	2022-12-14	14:55:35	15:03:46	476635	5f24993238b9f80892adf099	49334736	1	main_slash	11	advance_on_keypress_SLASH	134	stimuli_distractor_trianglediamonds.svg	stimuli_distractor_trianglediamonds.svg	33	no	57	0	128
6.6.1	ios	2022-12-14	14:55:35	15:03:47	477635	5f24993238b9f80892adf099	49334736	1	main_slash	11	main_slash	135	stimuli_distractor_diamondtriangles.svg	stimuli_target_circletriangles.svg	13	yes	53	1	154
6.6.1	ios	2022-12-14	14:55:35	15:03:47	477635	5f24993238b9f80892adf099	49334736	1	main_slash	11	advance_on_keypress_SLASH	136	stimuli_distractor_diamondtriangles.svg	stimuli_target_circletriangles.svg	13	yes	57	0	136
6.6.1	ios	2022-12-14	14:55:35	15:03:48	478518	5f24993238b9f80892adf099	49334736	1	main_slash	11	main_slash	137	stimuli_target_diamondsquares.svg	stimuli_distractor_trianglediamonds.svg	20	yes	53	1	38
6.6.1	ios	2022-12-14	14:55:35	15:03:48	478518	5f24993238b9f80892adf099	49334736	1	main_slash	11	advance_on_keypress_SLASH	138	stimuli_target_diamondsquares.svg	stimuli_distractor_trianglediamonds.svg	20	yes	57	0	170
6.6.1	ios	2022-12-14	14:55:35	15:03:49	479635	5f24993238b9f80892adf099	49334736	1	main_slash	11	main_slash	139	stimuli_distractor_trianglediamonds.svg	stimuli_distractor_diamondtriangles.svg	36	no	53	0	204
6.6.1	ios	2022-12-14	14:55:35	15:03:49	479635	5f24993238b9f80892adf099	49334736	1	main_slash	11	advance_on_keypress_SLASH	140	stimuli_distractor_trianglediamonds.svg	stimuli_distractor_diamondtriangles.svg	36	no	57	0	186
6.6.1	ios	2022-12-14	14:55:35	15:03:50	480565	5f24993238b9f80892adf099	49334736	1	main_slash	11	main_slash	141	stimuli_distractor_diamondtriangles.svg	stimuli_target_diamondsquares.svg	32	yes	53	1	46
6.6.1	ios	2022-12-14	14:55:35	15:03:50	480565	5f24993238b9f80892adf099	49334736	1	main_slash	11	advance_on_keypress_SLASH	142	stimuli_distractor_diamondtriangles.svg	stimuli_target_diamondsquares.svg	32	yes	57	0	204
6.6.1	ios	2022-12-14	14:55:35	15:03:51	481702	5f24993238b9f80892adf099	49334736	1	main_slash	11	main_slash	143	stimuli_distractor_diamondtriangles.svg	stimuli_target_diamondcircles.svg	31	yes	53	1	205
6.6.1	ios	2022-12-14	14:55:35	15:03:51	481702	5f24993238b9f80892adf099	49334736	1	main_slash	11	advance_on_keypress_SLASH	144	stimuli_distractor_diamondtriangles.svg	stimuli_target_diamondcircles.svg	31	yes	57	0	187
6.6.1	ios	2022-12-14	14:55:35	15:03:52	482856	5f24993238b9f80892adf099	49334736	1	main_slash	11	main_slash	145	stimuli_target_diamondcircles.svg	stimuli_distractor_diamondtriangles.svg	23	yes	53	1	221
6.6.1	ios	2022-12-14	14:55:35	15:03:52	482856	5f24993238b9f80892adf099	49334736	1	main_slash	11	advance_on_keypress_SLASH	146	stimuli_target_diamondcircles.svg	stimuli_distractor_diamondtriangles.svg	23	yes	57	0	161
6.6.1	ios	2022-12-14	14:55:35	15:03:53	483918	5f24993238b9f80892adf099	49334736	1	main_slash	11	main_slash	147	stimuli_distractor_diamondtriangles.svg	stimuli_distractor_diamondtriangles.svg	40	no	53	0	180
6.6.1	ios	2022-12-14	14:55:35	15:03:53	483918	5f24993238b9f80892adf099	49334736	1	main_slash	11	advance_on_keypress_SLASH	148	stimuli_distractor_diamondtriangles.svg	stimuli_distractor_diamondtriangles.svg	40	no	57	0	180
6.6.1	ios	2022-12-14	14:55:35	15:03:54	484851	5f24993238b9f80892adf099	49334736	1	main_slash	11	main_slash	149	stimuli_target_circletriangles.svg	stimuli_distractor_trianglediamonds.svg	1	yes	53	1	38
6.6.1	ios	2022-12-14	14:55:35	15:03:54	484851	5f24993238b9f80892adf099	49334736	1	main_slash	11	advance_on_keypress_SLASH	150	stimuli_target_circletriangles.svg	stimuli_distractor_trianglediamonds.svg	1	yes	57	0	153
6.6.1	ios	2022-12-14	14:55:35	15:03:57	487720	5f24993238b9f80892adf099	49334736	1	main_slash	11	main_slash	151	stimuli_distractor_trianglediamonds.svg	stimuli_target_trianglesquares.svg	26	yes	0	0	2000
6.6.1	ios	2022-12-14	14:55:35	15:03:57	487720	5f24993238b9f80892adf099	49334736	1	main_slash	11	advance_on_keypress_SLASH	152	stimuli_distractor_trianglediamonds.svg	stimuli_target_trianglesquares.svg	26	yes	57	0	530
6.6.1	ios	2022-12-14	14:55:35	15:03:58	489234	5f24993238b9f80892adf099	49334736	1	main_slash	11	main_slash	153	stimuli_distractor_diamondtriangles.svg	stimuli_target_trianglecircles.svg	29	yes	53	1	303
6.6.1	ios	2022-12-14	14:55:35	15:03:58	489234	5f24993238b9f80892adf099	49334736	1	main_slash	11	advance_on_keypress_SLASH	154	stimuli_distractor_diamondtriangles.svg	stimuli_target_trianglecircles.svg	29	yes	57	0	135
6.6.1	ios	2022-12-14	14:55:35	15:04:00	490668	5f24993238b9f80892adf099	49334736	1	main_slash	11	main_slash	155	stimuli_distractor_trianglediamonds.svg	stimuli_target_diamondcircles.svg	27	yes	53	1	537
6.6.1	ios	2022-12-14	14:55:35	15:04:00	490668	5f24993238b9f80892adf099	49334736	1	main_slash	11	advance_on_keypress_SLASH	156	stimuli_distractor_trianglediamonds.svg	stimuli_target_diamondcircles.svg	27	yes	57	0	495
6.6.1	ios	2022-12-14	14:55:35	15:04:01	491951	5f24993238b9f80892adf099	49334736	1	main_slash	11	main_slash	157	stimuli_distractor_diamondtriangles.svg	stimuli_target_circlediamonds.svg	14	yes	53	1	78
6.6.1	ios	2022-12-14	14:55:35	15:04:01	491951	5f24993238b9f80892adf099	49334736	1	main_slash	11	advance_on_keypress_SLASH	158	stimuli_distractor_diamondtriangles.svg	stimuli_target_circlediamonds.svg	14	yes	57	0	146
6.6.1	ios	2022-12-14	14:55:35	15:04:02	492934	5f24993238b9f80892adf099	49334736	1	main_slash	11	main_slash	159	stimuli_target_squarediamonds.svg	stimuli_distractor_trianglediamonds.svg	4	yes	53	1	103
6.6.1	ios	2022-12-14	14:55:35	15:04:02	492934	5f24993238b9f80892adf099	49334736	1	main_slash	11	advance_on_keypress_SLASH	160	stimuli_target_squarediamonds.svg	stimuli_distractor_trianglediamonds.svg	4	yes	57	0	153