build	computer.platform	date	time	timestamp	time_elapsed_ms	subject	group	session	blockcode	blocknum	trialcode	trialnum	stimulus_left	stimulus_right	stim_index	target_present	response	correct	latency
6.6.1	mac	2022-12-19	21:50:25	21:54:29	241720	61f2ab70a09e72f23cbaf3b0	558247117	1	practice_slash	5	practice_slash	1	stimuli_distractor_trianglediamonds.svg	stimuli_target_circlediamonds.svg	10	yes	53	1	409
6.6.1	mac	2022-12-19	21:50:25	21:54:29	241720	61f2ab70a09e72f23cbaf3b0	558247117	1	practice_slash	5	advance_on_keypress_SLASH	2	stimuli_distractor_trianglediamonds.svg	stimuli_target_circlediamonds.svg	10	yes	57	0	1341
6.6.1	mac	2022-12-19	21:50:25	21:54:34	246709	61f2ab70a09e72f23cbaf3b0	558247117	1	practice_slash	5	practice_slash	3	stimuli_target_diamondsquares.svg	stimuli_distractor_diamondtriangles.svg	3	yes	0	0	2000
6.6.1	mac	2022-12-19	21:50:25	21:54:34	246709	61f2ab70a09e72f23cbaf3b0	558247117	1	practice_slash	5	advance_on_keypress_SLASH	4	stimuli_target_diamondsquares.svg	stimuli_distractor_diamondtriangles.svg	3	yes	57	0	2625
6.6.1	mac	2022-12-19	21:50:25	21:54:39	252080	61f2ab70a09e72f23cbaf3b0	558247117	1	practice_slash	5	practice_slash	5	stimuli_distractor_diamondtriangles.svg	stimuli_target_circletriangles.svg	7	yes	53	1	1103
6.6.1	mac	2022-12-19	21:50:25	21:54:39	252080	61f2ab70a09e72f23cbaf3b0	558247117	1	practice_slash	5	advance_on_keypress_SLASH	6	stimuli_distractor_diamondtriangles.svg	stimuli_target_circletriangles.svg	7	yes	57	0	1846
6.6.1	mac	2022-12-19	21:50:25	21:54:44	256512	61f2ab70a09e72f23cbaf3b0	558247117	1	practice_slash	5	practice_slash	7	stimuli_distractor_diamondtriangles.svg	stimuli_target_trianglecircles.svg	9	yes	53	1	952
6.6.1	mac	2022-12-19	21:50:25	21:54:44	256512	61f2ab70a09e72f23cbaf3b0	558247117	1	practice_slash	5	advance_on_keypress_SLASH	8	stimuli_distractor_diamondtriangles.svg	stimuli_target_trianglecircles.svg	9	yes	57	0	1493
6.6.1	mac	2022-12-19	21:50:25	21:54:49	261644	61f2ab70a09e72f23cbaf3b0	558247117	1	practice_slash	5	practice_slash	9	stimuli_distractor_trianglediamonds.svg	stimuli_distractor_diamondtriangles.svg	16	no	0	1	2000
6.6.1	mac	2022-12-19	21:50:25	21:54:49	261644	61f2ab70a09e72f23cbaf3b0	558247117	1	practice_slash	5	advance_on_keypress_SLASH	10	stimuli_distractor_trianglediamonds.svg	stimuli_distractor_diamondtriangles.svg	16	no	57	0	568
6.6.1	mac	2022-12-19	21:50:25	21:54:53	265315	61f2ab70a09e72f23cbaf3b0	558247117	1	practice_slash	5	practice_slash	11	stimuli_target_diamondsquares.svg	stimuli_distractor_trianglediamonds.svg	6	yes	53	1	1470
6.6.1	mac	2022-12-19	21:50:25	21:54:53	265315	61f2ab70a09e72f23cbaf3b0	558247117	1	practice_slash	5	advance_on_keypress_SLASH	12	stimuli_target_diamondsquares.svg	stimuli_distractor_trianglediamonds.svg	6	yes	57	0	1960
6.6.1	mac	2022-12-19	21:50:25	21:54:57	269732	61f2ab70a09e72f23cbaf3b0	558247117	1	practice_slash	5	practice_slash	13	stimuli_distractor_trianglediamonds.svg	stimuli_target_squarediamonds.svg	11	yes	53	1	820
6.6.1	mac	2022-12-19	21:50:25	21:54:57	269732	61f2ab70a09e72f23cbaf3b0	558247117	1	practice_slash	5	advance_on_keypress_SLASH	14	stimuli_distractor_trianglediamonds.svg	stimuli_target_squarediamonds.svg	11	yes	57	0	649
6.6.1	mac	2022-12-19	21:50:25	21:55:00	273087	61f2ab70a09e72f23cbaf3b0	558247117	1	practice_slash	5	practice_slash	15	stimuli_distractor_trianglediamonds.svg	stimuli_target_diamondcircles.svg	12	yes	53	1	1074
6.6.1	mac	2022-12-19	21:50:25	21:55:00	273087	61f2ab70a09e72f23cbaf3b0	558247117	1	practice_slash	5	advance_on_keypress_SLASH	16	stimuli_distractor_trianglediamonds.svg	stimuli_target_diamondcircles.svg	12	yes	57	0	1196
6.6.1	mac	2022-12-19	21:50:25	21:55:05	277927	61f2ab70a09e72f23cbaf3b0	558247117	1	practice_slash	5	practice_slash	17	stimuli_distractor_diamondtriangles.svg	stimuli_distractor_diamondtriangles.svg	13	no	0	1	2000
6.6.1	mac	2022-12-19	21:50:25	21:55:05	277927	61f2ab70a09e72f23cbaf3b0	558247117	1	practice_slash	5	advance_on_keypress_SLASH	18	stimuli_distractor_diamondtriangles.svg	stimuli_distractor_diamondtriangles.svg	13	no	57	0	765
6.6.1	mac	2022-12-19	21:50:25	21:55:08	280971	61f2ab70a09e72f23cbaf3b0	558247117	1	practice_slash	5	practice_slash	19	stimuli_target_squarediamonds.svg	stimuli_distractor_trianglediamonds.svg	5	yes	53	1	641
6.6.1	mac	2022-12-19	21:50:25	21:55:08	280971	61f2ab70a09e72f23cbaf3b0	558247117	1	practice_slash	5	advance_on_keypress_SLASH	20	stimuli_target_squarediamonds.svg	stimuli_distractor_trianglediamonds.svg	5	yes	57	0	709
6.6.1	mac	2022-12-19	21:50:25	21:55:11	283730	61f2ab70a09e72f23cbaf3b0	558247117	1	practice_slash	5	practice_slash	21	stimuli_target_squarediamonds.svg	stimuli_distractor_diamondtriangles.svg	2	yes	53	1	400
6.6.1	mac	2022-12-19	21:50:25	21:55:11	283730	61f2ab70a09e72f23cbaf3b0	558247117	1	practice_slash	5	advance_on_keypress_SLASH	22	stimuli_target_squarediamonds.svg	stimuli_distractor_diamondtriangles.svg	2	yes	57	0	511
6.6.1	mac	2022-12-19	21:50:25	21:55:14	286672	61f2ab70a09e72f23cbaf3b0	558247117	1	practice_slash	5	practice_slash	23	stimuli_distractor_diamondtriangles.svg	stimuli_target_diamondcircles.svg	8	yes	53	1	792
6.6.1	mac	2022-12-19	21:50:25	21:55:14	286672	61f2ab70a09e72f23cbaf3b0	558247117	1	practice_slash	5	advance_on_keypress_SLASH	24	stimuli_distractor_diamondtriangles.svg	stimuli_target_diamondcircles.svg	8	yes	57	0	861
6.6.1	mac	2022-12-19	21:50:25	21:55:17	289416	61f2ab70a09e72f23cbaf3b0	558247117	1	practice_slash	5	practice_slash	25	stimuli_target_circlediamonds.svg	stimuli_distractor_trianglediamonds.svg	4	yes	53	1	236
6.6.1	mac	2022-12-19	21:50:25	21:55:17	289416	61f2ab70a09e72f23cbaf3b0	558247117	1	practice_slash	5	advance_on_keypress_SLASH	26	stimuli_target_circlediamonds.svg	stimuli_distractor_trianglediamonds.svg	4	yes	57	0	580
6.6.1	mac	2022-12-19	21:50:25	21:55:19	292030	61f2ab70a09e72f23cbaf3b0	558247117	1	practice_slash	5	practice_slash	27	stimuli_target_circlediamonds.svg	stimuli_distractor_diamondtriangles.svg	1	yes	53	1	401
6.6.1	mac	2022-12-19	21:50:25	21:55:19	292030	61f2ab70a09e72f23cbaf3b0	558247117	1	practice_slash	5	advance_on_keypress_SLASH	28	stimuli_target_circlediamonds.svg	stimuli_distractor_diamondtriangles.svg	1	yes	57	0	616
6.6.1	mac	2022-12-19	21:50:25	21:55:24	296278	61f2ab70a09e72f23cbaf3b0	558247117	1	practice_slash	5	practice_slash	29	stimuli_distractor_diamondtriangles.svg	stimuli_distractor_trianglediamonds.svg	14	no	0	1	2000
6.6.1	mac	2022-12-19	21:50:25	21:55:24	296278	61f2ab70a09e72f23cbaf3b0	558247117	1	practice_slash	5	advance_on_keypress_SLASH	30	stimuli_distractor_diamondtriangles.svg	stimuli_distractor_trianglediamonds.svg	14	no	57	0	688
6.6.1	mac	2022-12-19	21:50:25	21:55:28	300597	61f2ab70a09e72f23cbaf3b0	558247117	1	practice_slash	5	practice_slash	31	stimuli_distractor_trianglediamonds.svg	stimuli_distractor_trianglediamonds.svg	15	no	0	1	2000
6.6.1	mac	2022-12-19	21:50:25	21:55:28	300597	61f2ab70a09e72f23cbaf3b0	558247117	1	practice_slash	5	advance_on_keypress_SLASH	32	stimuli_distractor_trianglediamonds.svg	stimuli_distractor_trianglediamonds.svg	15	no	57	0	388
6.6.1	mac	2022-12-19	21:50:25	21:55:43	315271	61f2ab70a09e72f23cbaf3b0	558247117	1	main_slash	7	main_slash	1	stimuli_distractor_diamondtriangles.svg	stimuli_target_circlediamonds.svg	14	yes	53	1	340
6.6.1	mac	2022-12-19	21:50:25	21:55:43	315271	61f2ab70a09e72f23cbaf3b0	558247117	1	main_slash	7	advance_on_keypress_SLASH	2	stimuli_distractor_diamondtriangles.svg	stimuli_target_circlediamonds.svg	14	yes	57	0	1331
6.6.1	mac	2022-12-19	21:50:25	21:55:45	317910	61f2ab70a09e72f23cbaf3b0	558247117	1	main_slash	7	main_slash	3	stimuli_distractor_diamondtriangles.svg	stimuli_target_trianglecircles.svg	29	yes	53	1	678
6.6.1	mac	2022-12-19	21:50:25	21:55:45	317910	61f2ab70a09e72f23cbaf3b0	558247117	1	main_slash	7	advance_on_keypress_SLASH	4	stimuli_distractor_diamondtriangles.svg	stimuli_target_trianglecircles.svg	29	yes	57	0	943
6.6.1	mac	2022-12-19	21:50:25	21:55:47	319906	61f2ab70a09e72f23cbaf3b0	558247117	1	main_slash	7	main_slash	5	stimuli_distractor_trianglediamonds.svg	stimuli_target_squarediamonds.svg	12	yes	53	1	407
6.6.1	mac	2022-12-19	21:50:25	21:55:47	319906	61f2ab70a09e72f23cbaf3b0	558247117	1	main_slash	7	advance_on_keypress_SLASH	6	stimuli_distractor_trianglediamonds.svg	stimuli_target_squarediamonds.svg	12	yes	57	0	794
6.6.1	mac	2022-12-19	21:50:25	21:55:51	323347	61f2ab70a09e72f23cbaf3b0	558247117	1	main_slash	7	main_slash	7	stimuli_distractor_diamondtriangles.svg	stimuli_distractor_diamondtriangles.svg	39	no	0	1	2000
6.6.1	mac	2022-12-19	21:50:25	21:55:51	323347	61f2ab70a09e72f23cbaf3b0	558247117	1	main_slash	7	advance_on_keypress_SLASH	8	stimuli_distractor_diamondtriangles.svg	stimuli_distractor_diamondtriangles.svg	39	no	57	0	745
6.6.1	mac	2022-12-19	21:50:25	21:55:53	325562	61f2ab70a09e72f23cbaf3b0	558247117	1	main_slash	7	main_slash	9	stimuli_target_diamondsquares.svg	stimuli_distractor_diamondtriangles.svg	24	yes	53	1	830
6.6.1	mac	2022-12-19	21:50:25	21:55:53	325562	61f2ab70a09e72f23cbaf3b0	558247117	1	main_slash	7	advance_on_keypress_SLASH	10	stimuli_target_diamondsquares.svg	stimuli_distractor_diamondtriangles.svg	24	yes	57	0	679
6.6.1	mac	2022-12-19	21:50:25	21:55:55	327318	61f2ab70a09e72f23cbaf3b0	558247117	1	main_slash	7	main_slash	11	stimuli_distractor_diamondtriangles.svg	stimuli_target_diamondcircles.svg	31	yes	53	1	437
6.6.1	mac	2022-12-19	21:50:25	21:55:55	327318	61f2ab70a09e72f23cbaf3b0	558247117	1	main_slash	7	advance_on_keypress_SLASH	12	stimuli_distractor_diamondtriangles.svg	stimuli_target_diamondcircles.svg	31	yes	57	0	861
6.6.1	mac	2022-12-19	21:50:25	21:55:57	329376	61f2ab70a09e72f23cbaf3b0	558247117	1	main_slash	7	main_slash	13	stimuli_target_trianglesquares.svg	stimuli_distractor_diamondtriangles.svg	22	yes	53	1	561
6.6.1	mac	2022-12-19	21:50:25	21:55:57	329376	61f2ab70a09e72f23cbaf3b0	558247117	1	main_slash	7	advance_on_keypress_SLASH	14	stimuli_target_trianglesquares.svg	stimuli_distractor_diamondtriangles.svg	22	yes	57	0	832
6.6.1	mac	2022-12-19	21:50:25	21:55:59	331322	61f2ab70a09e72f23cbaf3b0	558247117	1	main_slash	7	main_slash	15	stimuli_distractor_trianglediamonds.svg	stimuli_target_trianglesquares.svg	26	yes	53	1	474
6.6.1	mac	2022-12-19	21:50:25	21:55:59	331322	61f2ab70a09e72f23cbaf3b0	558247117	1	main_slash	7	advance_on_keypress_SLASH	16	stimuli_distractor_trianglediamonds.svg	stimuli_target_trianglesquares.svg	26	yes	57	0	625
6.6.1	mac	2022-12-19	21:50:25	21:56:00	332850	61f2ab70a09e72f23cbaf3b0	558247117	1	main_slash	7	main_slash	17	stimuli_distractor_trianglediamonds.svg	stimuli_target_circletriangles.svg	9	yes	53	1	285
6.6.1	mac	2022-12-19	21:50:25	21:56:00	332850	61f2ab70a09e72f23cbaf3b0	558247117	1	main_slash	7	advance_on_keypress_SLASH	18	stimuli_distractor_trianglediamonds.svg	stimuli_target_circletriangles.svg	9	yes	57	0	1020
6.6.1	mac	2022-12-19	21:50:25	21:56:02	334949	61f2ab70a09e72f23cbaf3b0	558247117	1	main_slash	7	main_slash	19	stimuli_distractor_diamondtriangles.svg	stimuli_target_squaretriangles.svg	15	yes	53	1	450
6.6.1	mac	2022-12-19	21:50:25	21:56:02	334949	61f2ab70a09e72f23cbaf3b0	558247117	1	main_slash	7	advance_on_keypress_SLASH	20	stimuli_distractor_diamondtriangles.svg	stimuli_target_squaretriangles.svg	15	yes	57	0	729
6.6.1	mac	2022-12-19	21:50:25	21:56:04	336663	61f2ab70a09e72f23cbaf3b0	558247117	1	main_slash	7	main_slash	21	stimuli_distractor_diamondtriangles.svg	stimuli_target_circletriangles.svg	13	yes	53	1	347
6.6.1	mac	2022-12-19	21:50:25	21:56:04	336663	61f2ab70a09e72f23cbaf3b0	558247117	1	main_slash	7	advance_on_keypress_SLASH	22	stimuli_distractor_diamondtriangles.svg	stimuli_target_circletriangles.svg	13	yes	57	0	1012
6.6.1	mac	2022-12-19	21:50:25	21:56:06	338631	61f2ab70a09e72f23cbaf3b0	558247117	1	main_slash	7	main_slash	23	stimuli_target_diamondcircles.svg	stimuli_distractor_trianglediamonds.svg	19	yes	53	1	315
6.6.1	mac	2022-12-19	21:50:25	21:56:06	338631	61f2ab70a09e72f23cbaf3b0	558247117	1	main_slash	7	advance_on_keypress_SLASH	24	stimuli_target_diamondcircles.svg	stimuli_distractor_trianglediamonds.svg	19	yes	57	0	765
6.6.1	mac	2022-12-19	21:50:25	21:56:08	340437	61f2ab70a09e72f23cbaf3b0	558247117	1	main_slash	7	main_slash	25	stimuli_target_circlediamonds.svg	stimuli_distractor_trianglediamonds.svg	2	yes	53	1	404
6.6.1	mac	2022-12-19	21:50:25	21:56:08	340437	61f2ab70a09e72f23cbaf3b0	558247117	1	main_slash	7	advance_on_keypress_SLASH	26	stimuli_target_circlediamonds.svg	stimuli_distractor_trianglediamonds.svg	2	yes	57	0	664
6.6.1	mac	2022-12-19	21:50:25	21:56:09	342165	61f2ab70a09e72f23cbaf3b0	558247117	1	main_slash	7	main_slash	27	stimuli_distractor_trianglediamonds.svg	stimuli_distractor_diamondtriangles.svg	35	no	53	0	433
6.6.1	mac	2022-12-19	21:50:25	21:56:09	342165	61f2ab70a09e72f23cbaf3b0	558247117	1	main_slash	7	advance_on_keypress_SLASH	28	stimuli_distractor_trianglediamonds.svg	stimuli_distractor_diamondtriangles.svg	35	no	57	0	1200
6.6.1	mac	2022-12-19	21:50:25	21:56:12	344546	61f2ab70a09e72f23cbaf3b0	558247117	1	main_slash	7	main_slash	29	stimuli_distractor_diamondtriangles.svg	stimuli_target_diamondsquares.svg	32	yes	53	1	546
6.6.1	mac	2022-12-19	21:50:25	21:56:12	344546	61f2ab70a09e72f23cbaf3b0	558247117	1	main_slash	7	advance_on_keypress_SLASH	30	stimuli_distractor_diamondtriangles.svg	stimuli_target_diamondsquares.svg	32	yes	57	0	558
6.6.1	mac	2022-12-19	21:50:25	21:56:13	346140	61f2ab70a09e72f23cbaf3b0	558247117	1	main_slash	7	main_slash	31	stimuli_target_circlediamonds.svg	stimuli_distractor_diamondtriangles.svg	6	yes	53	1	390
6.6.1	mac	2022-12-19	21:50:25	21:56:13	346140	61f2ab70a09e72f23cbaf3b0	558247117	1	main_slash	7	advance_on_keypress_SLASH	32	stimuli_target_circlediamonds.svg	stimuli_distractor_diamondtriangles.svg	6	yes	57	0	846
6.6.1	mac	2022-12-19	21:50:25	21:56:15	348124	61f2ab70a09e72f23cbaf3b0	558247117	1	main_slash	7	main_slash	33	stimuli_distractor_trianglediamonds.svg	stimuli_target_diamondcircles.svg	27	yes	53	1	508
6.6.1	mac	2022-12-19	21:50:25	21:56:15	348124	61f2ab70a09e72f23cbaf3b0	558247117	1	main_slash	7	advance_on_keypress_SLASH	34	stimuli_distractor_trianglediamonds.svg	stimuli_target_diamondcircles.svg	27	yes	57	0	621
6.6.1	mac	2022-12-19	21:50:25	21:56:17	350200	61f2ab70a09e72f23cbaf3b0	558247117	1	main_slash	7	main_slash	35	stimuli_distractor_trianglediamonds.svg	stimuli_target_trianglecircles.svg	25	yes	53	1	817
6.6.1	mac	2022-12-19	21:50:25	21:56:17	350200	61f2ab70a09e72f23cbaf3b0	558247117	1	main_slash	7	advance_on_keypress_SLASH	36	stimuli_distractor_trianglediamonds.svg	stimuli_target_trianglecircles.svg	25	yes	57	0	501
6.6.1	mac	2022-12-19	21:50:25	21:56:19	351872	61f2ab70a09e72f23cbaf3b0	558247117	1	main_slash	7	main_slash	37	stimuli_target_trianglesquares.svg	stimuli_distractor_trianglediamonds.svg	18	yes	53	1	540
6.6.1	mac	2022-12-19	21:50:25	21:56:19	351872	61f2ab70a09e72f23cbaf3b0	558247117	1	main_slash	7	advance_on_keypress_SLASH	38	stimuli_target_trianglesquares.svg	stimuli_distractor_trianglediamonds.svg	18	yes	57	0	1328
6.6.1	mac	2022-12-19	21:50:25	21:56:22	354522	61f2ab70a09e72f23cbaf3b0	558247117	1	main_slash	7	main_slash	39	stimuli_distractor_trianglediamonds.svg	stimuli_target_circlediamonds.svg	10	yes	53	1	689
6.6.1	mac	2022-12-19	21:50:25	21:56:22	354522	61f2ab70a09e72f23cbaf3b0	558247117	1	main_slash	7	advance_on_keypress_SLASH	40	stimuli_distractor_trianglediamonds.svg	stimuli_target_circlediamonds.svg	10	yes	57	0	1211
6.6.1	mac	2022-12-19	21:50:25	21:56:24	356856	61f2ab70a09e72f23cbaf3b0	558247117	1	main_slash	7	main_slash	41	stimuli_target_circletriangles.svg	stimuli_distractor_diamondtriangles.svg	5	yes	53	1	488
6.6.1	mac	2022-12-19	21:50:25	21:56:24	356856	61f2ab70a09e72f23cbaf3b0	558247117	1	main_slash	7	advance_on_keypress_SLASH	42	stimuli_target_circletriangles.svg	stimuli_distractor_diamondtriangles.svg	5	yes	57	0	522
6.6.1	mac	2022-12-19	21:50:25	21:56:26	358546	61f2ab70a09e72f23cbaf3b0	558247117	1	main_slash	7	main_slash	43	stimuli_distractor_trianglediamonds.svg	stimuli_target_squaretriangles.svg	11	yes	53	1	544
6.6.1	mac	2022-12-19	21:50:25	21:56:26	358546	61f2ab70a09e72f23cbaf3b0	558247117	1	main_slash	7	advance_on_keypress_SLASH	44	stimuli_distractor_trianglediamonds.svg	stimuli_target_squaretriangles.svg	11	yes	57	0	623
6.6.1	mac	2022-12-19	21:50:25	21:56:28	360395	61f2ab70a09e72f23cbaf3b0	558247117	1	main_slash	7	main_slash	45	stimuli_target_squaretriangles.svg	stimuli_distractor_trianglediamonds.svg	3	yes	53	1	578
6.6.1	mac	2022-12-19	21:50:25	21:56:28	360395	61f2ab70a09e72f23cbaf3b0	558247117	1	main_slash	7	advance_on_keypress_SLASH	46	stimuli_target_squaretriangles.svg	stimuli_distractor_trianglediamonds.svg	3	yes	57	0	482
6.6.1	mac	2022-12-19	21:50:25	21:56:31	363516	61f2ab70a09e72f23cbaf3b0	558247117	1	main_slash	7	main_slash	47	stimuli_distractor_diamondtriangles.svg	stimuli_distractor_trianglediamonds.svg	37	no	0	1	2000
6.6.1	mac	2022-12-19	21:50:25	21:56:31	363516	61f2ab70a09e72f23cbaf3b0	558247117	1	main_slash	7	advance_on_keypress_SLASH	48	stimuli_distractor_diamondtriangles.svg	stimuli_distractor_trianglediamonds.svg	37	no	57	0	364
6.6.1	mac	2022-12-19	21:50:25	21:56:32	365014	61f2ab70a09e72f23cbaf3b0	558247117	1	main_slash	7	main_slash	49	stimuli_target_squarediamonds.svg	stimuli_distractor_diamondtriangles.svg	8	yes	53	1	496
6.6.1	mac	2022-12-19	21:50:25	21:56:32	365014	61f2ab70a09e72f23cbaf3b0	558247117	1	main_slash	7	advance_on_keypress_SLASH	50	stimuli_target_squarediamonds.svg	stimuli_distractor_diamondtriangles.svg	8	yes	57	0	475
6.6.1	mac	2022-12-19	21:50:25	21:56:35	368134	61f2ab70a09e72f23cbaf3b0	558247117	1	main_slash	7	main_slash	51	stimuli_distractor_trianglediamonds.svg	stimuli_distractor_trianglediamonds.svg	33	no	0	1	2000
6.6.1	mac	2022-12-19	21:50:25	21:56:35	368134	61f2ab70a09e72f23cbaf3b0	558247117	1	main_slash	7	advance_on_keypress_SLASH	52	stimuli_distractor_trianglediamonds.svg	stimuli_distractor_trianglediamonds.svg	33	no	57	0	674
6.6.1	mac	2022-12-19	21:50:25	21:56:39	371450	61f2ab70a09e72f23cbaf3b0	558247117	1	main_slash	7	main_slash	53	stimuli_distractor_diamondtriangles.svg	stimuli_distractor_diamondtriangles.svg	40	no	0	1	2000
6.6.1	mac	2022-12-19	21:50:25	21:56:39	371450	61f2ab70a09e72f23cbaf3b0	558247117	1	main_slash	7	advance_on_keypress_SLASH	54	stimuli_distractor_diamondtriangles.svg	stimuli_distractor_diamondtriangles.svg	40	no	57	0	905
6.6.1	mac	2022-12-19	21:50:25	21:56:42	374984	61f2ab70a09e72f23cbaf3b0	558247117	1	main_slash	7	main_slash	55	stimuli_distractor_diamondtriangles.svg	stimuli_distractor_trianglediamonds.svg	38	no	0	1	2000
6.6.1	mac	2022-12-19	21:50:25	21:56:42	374984	61f2ab70a09e72f23cbaf3b0	558247117	1	main_slash	7	advance_on_keypress_SLASH	56	stimuli_distractor_diamondtriangles.svg	stimuli_distractor_trianglediamonds.svg	38	no	57	0	753
6.6.1	mac	2022-12-19	21:50:25	21:56:44	376901	61f2ab70a09e72f23cbaf3b0	558247117	1	main_slash	7	main_slash	57	stimuli_target_diamondcircles.svg	stimuli_distractor_diamondtriangles.svg	23	yes	53	1	533
6.6.1	mac	2022-12-19	21:50:25	21:56:44	376901	61f2ab70a09e72f23cbaf3b0	558247117	1	main_slash	7	advance_on_keypress_SLASH	58	stimuli_target_diamondcircles.svg	stimuli_distractor_diamondtriangles.svg	23	yes	57	0	552
6.6.1	mac	2022-12-19	21:50:25	21:56:46	378730	61f2ab70a09e72f23cbaf3b0	558247117	1	main_slash	7	main_slash	59	stimuli_distractor_diamondtriangles.svg	stimuli_target_squarediamonds.svg	16	yes	53	1	644
6.6.1	mac	2022-12-19	21:50:25	21:56:46	378730	61f2ab70a09e72f23cbaf3b0	558247117	1	main_slash	7	advance_on_keypress_SLASH	60	stimuli_distractor_diamondtriangles.svg	stimuli_target_squarediamonds.svg	16	yes	57	0	470
6.6.1	mac	2022-12-19	21:50:25	21:56:48	380527	61f2ab70a09e72f23cbaf3b0	558247117	1	main_slash	7	main_slash	61	stimuli_target_trianglecircles.svg	stimuli_distractor_diamondtriangles.svg	21	yes	53	1	691
6.6.1	mac	2022-12-19	21:50:25	21:56:48	380527	61f2ab70a09e72f23cbaf3b0	558247117	1	main_slash	7	advance_on_keypress_SLASH	62	stimuli_target_trianglecircles.svg	stimuli_distractor_diamondtriangles.svg	21	yes	57	0	383
6.6.1	mac	2022-12-19	21:50:25	21:56:49	382001	61f2ab70a09e72f23cbaf3b0	558247117	1	main_slash	7	main_slash	63	stimuli_target_circletriangles.svg	stimuli_distractor_trianglediamonds.svg	1	yes	53	1	449
6.6.1	mac	2022-12-19	21:50:25	21:56:49	382001	61f2ab70a09e72f23cbaf3b0	558247117	1	main_slash	7	advance_on_keypress_SLASH	64	stimuli_target_circletriangles.svg	stimuli_distractor_trianglediamonds.svg	1	yes	57	0	457
6.6.1	mac	2022-12-19	21:50:25	21:56:51	383440	61f2ab70a09e72f23cbaf3b0	558247117	1	main_slash	7	main_slash	65	stimuli_target_trianglecircles.svg	stimuli_distractor_trianglediamonds.svg	17	yes	53	1	354
6.6.1	mac	2022-12-19	21:50:25	21:56:51	383440	61f2ab70a09e72f23cbaf3b0	558247117	1	main_slash	7	advance_on_keypress_SLASH	66	stimuli_target_trianglecircles.svg	stimuli_distractor_trianglediamonds.svg	17	yes	57	0	530
6.6.1	mac	2022-12-19	21:50:25	21:56:52	385058	61f2ab70a09e72f23cbaf3b0	558247117	1	main_slash	7	main_slash	67	stimuli_target_squarediamonds.svg	stimuli_distractor_trianglediamonds.svg	4	yes	53	1	455
6.6.1	mac	2022-12-19	21:50:25	21:56:52	385058	61f2ab70a09e72f23cbaf3b0	558247117	1	main_slash	7	advance_on_keypress_SLASH	68	stimuli_target_squarediamonds.svg	stimuli_distractor_trianglediamonds.svg	4	yes	57	0	335
6.6.1	mac	2022-12-19	21:50:25	21:56:54	386957	61f2ab70a09e72f23cbaf3b0	558247117	1	main_slash	7	main_slash	69	stimuli_distractor_diamondtriangles.svg	stimuli_target_trianglesquares.svg	30	yes	53	1	938
6.6.1	mac	2022-12-19	21:50:25	21:56:54	386957	61f2ab70a09e72f23cbaf3b0	558247117	1	main_slash	7	advance_on_keypress_SLASH	70	stimuli_distractor_diamondtriangles.svg	stimuli_target_trianglesquares.svg	30	yes	57	0	342
6.6.1	mac	2022-12-19	21:50:25	21:56:56	388898	61f2ab70a09e72f23cbaf3b0	558247117	1	main_slash	7	main_slash	71	stimuli_target_squaretriangles.svg	stimuli_distractor_diamondtriangles.svg	7	yes	53	1	962
6.6.1	mac	2022-12-19	21:50:25	21:56:56	388898	61f2ab70a09e72f23cbaf3b0	558247117	1	main_slash	7	advance_on_keypress_SLASH	72	stimuli_target_squaretriangles.svg	stimuli_distractor_diamondtriangles.svg	7	yes	57	0	639
6.6.1	mac	2022-12-19	21:50:25	21:56:59	392168	61f2ab70a09e72f23cbaf3b0	558247117	1	main_slash	7	main_slash	73	stimuli_distractor_trianglediamonds.svg	stimuli_distractor_trianglediamonds.svg	34	no	0	1	2000
6.6.1	mac	2022-12-19	21:50:25	21:56:59	392168	61f2ab70a09e72f23cbaf3b0	558247117	1	main_slash	7	advance_on_keypress_SLASH	74	stimuli_distractor_trianglediamonds.svg	stimuli_distractor_trianglediamonds.svg	34	no	57	0	674
6.6.1	mac	2022-12-19	21:50:25	21:57:02	394358	61f2ab70a09e72f23cbaf3b0	558247117	1	main_slash	7	main_slash	75	stimuli_distractor_trianglediamonds.svg	stimuli_target_diamondsquares.svg	28	yes	53	1	872
6.6.1	mac	2022-12-19	21:50:25	21:57:02	394358	61f2ab70a09e72f23cbaf3b0	558247117	1	main_slash	7	advance_on_keypress_SLASH	76	stimuli_distractor_trianglediamonds.svg	stimuli_target_diamondsquares.svg	28	yes	57	0	454
6.6.1	mac	2022-12-19	21:50:25	21:57:03	396009	61f2ab70a09e72f23cbaf3b0	558247117	1	main_slash	7	main_slash	77	stimuli_distractor_trianglediamonds.svg	stimuli_distractor_diamondtriangles.svg	36	no	53	0	573
6.6.1	mac	2022-12-19	21:50:25	21:57:03	396009	61f2ab70a09e72f23cbaf3b0	558247117	1	main_slash	7	advance_on_keypress_SLASH	78	stimuli_distractor_trianglediamonds.svg	stimuli_distractor_diamondtriangles.svg	36	no	57	0	563
6.6.1	mac	2022-12-19	21:50:25	21:57:05	398182	61f2ab70a09e72f23cbaf3b0	558247117	1	main_slash	7	main_slash	79	stimuli_target_diamondsquares.svg	stimuli_distractor_trianglediamonds.svg	20	yes	53	1	979
6.6.1	mac	2022-12-19	21:50:25	21:57:05	398182	61f2ab70a09e72f23cbaf3b0	558247117	1	main_slash	7	advance_on_keypress_SLASH	80	stimuli_target_diamondsquares.svg	stimuli_distractor_trianglediamonds.svg	20	yes	57	0	663
6.6.1	mac	2022-12-19	21:50:25	21:57:07	400103	61f2ab70a09e72f23cbaf3b0	558247117	1	main_slash	7	main_slash	81	stimuli_target_trianglesquares.svg	stimuli_distractor_diamondtriangles.svg	22	yes	53	1	616
6.6.1	mac	2022-12-19	21:50:25	21:57:07	400103	61f2ab70a09e72f23cbaf3b0	558247117	1	main_slash	7	advance_on_keypress_SLASH	82	stimuli_target_trianglesquares.svg	stimuli_distractor_diamondtriangles.svg	22	yes	57	0	401
6.6.1	mac	2022-12-19	21:50:25	21:57:09	401741	61f2ab70a09e72f23cbaf3b0	558247117	1	main_slash	7	main_slash	83	stimuli_distractor_trianglediamonds.svg	stimuli_target_squaretriangles.svg	11	yes	53	1	605
6.6.1	mac	2022-12-19	21:50:25	21:57:09	401741	61f2ab70a09e72f23cbaf3b0	558247117	1	main_slash	7	advance_on_keypress_SLASH	84	stimuli_distractor_trianglediamonds.svg	stimuli_target_squaretriangles.svg	11	yes	57	0	579
6.6.1	mac	2022-12-19	21:50:25	21:57:12	404954	61f2ab70a09e72f23cbaf3b0	558247117	1	main_slash	7	main_slash	85	stimuli_distractor_trianglediamonds.svg	stimuli_distractor_trianglediamonds.svg	34	no	0	1	2000
6.6.1	mac	2022-12-19	21:50:25	21:57:12	404954	61f2ab70a09e72f23cbaf3b0	558247117	1	main_slash	7	advance_on_keypress_SLASH	86	stimuli_distractor_trianglediamonds.svg	stimuli_distractor_trianglediamonds.svg	34	no	57	0	717
6.6.1	mac	2022-12-19	21:50:25	21:57:16	408303	61f2ab70a09e72f23cbaf3b0	558247117	1	main_slash	7	main_slash	87	stimuli_distractor_diamondtriangles.svg	stimuli_distractor_trianglediamonds.svg	37	no	0	1	2000
6.6.1	mac	2022-12-19	21:50:25	21:57:16	408303	61f2ab70a09e72f23cbaf3b0	558247117	1	main_slash	7	advance_on_keypress_SLASH	88	stimuli_distractor_diamondtriangles.svg	stimuli_distractor_trianglediamonds.svg	37	no	57	0	1159
6.6.1	mac	2022-12-19	21:50:25	21:57:19	412103	61f2ab70a09e72f23cbaf3b0	558247117	1	main_slash	7	main_slash	89	stimuli_distractor_diamondtriangles.svg	stimuli_distractor_trianglediamonds.svg	38	no	0	1	2000
6.6.1	mac	2022-12-19	21:50:25	21:57:19	412103	61f2ab70a09e72f23cbaf3b0	558247117	1	main_slash	7	advance_on_keypress_SLASH	90	stimuli_distractor_diamondtriangles.svg	stimuli_distractor_trianglediamonds.svg	38	no	57	0	661
6.6.1	mac	2022-12-19	21:50:25	21:57:23	415403	61f2ab70a09e72f23cbaf3b0	558247117	1	main_slash	7	main_slash	91	stimuli_distractor_trianglediamonds.svg	stimuli_distractor_diamondtriangles.svg	35	no	0	1	2000
6.6.1	mac	2022-12-19	21:50:25	21:57:23	415403	61f2ab70a09e72f23cbaf3b0	558247117	1	main_slash	7	advance_on_keypress_SLASH	92	stimuli_distractor_trianglediamonds.svg	stimuli_distractor_diamondtriangles.svg	35	no	57	0	934
6.6.1	mac	2022-12-19	21:50:25	21:57:25	417533	61f2ab70a09e72f23cbaf3b0	558247117	1	main_slash	7	main_slash	93	stimuli_target_diamondcircles.svg	stimuli_distractor_diamondtriangles.svg	23	yes	53	1	562
6.6.1	mac	2022-12-19	21:50:25	21:57:25	417533	61f2ab70a09e72f23cbaf3b0	558247117	1	main_slash	7	advance_on_keypress_SLASH	94	stimuli_target_diamondcircles.svg	stimuli_distractor_diamondtriangles.svg	23	yes	57	0	535
6.6.1	mac	2022-12-19	21:50:25	21:57:26	419193	61f2ab70a09e72f23cbaf3b0	558247117	1	main_slash	7	main_slash	95	stimuli_distractor_diamondtriangles.svg	stimuli_target_diamondcircles.svg	31	yes	53	1	489
6.6.1	mac	2022-12-19	21:50:25	21:57:26	419193	61f2ab70a09e72f23cbaf3b0	558247117	1	main_slash	7	advance_on_keypress_SLASH	96	stimuli_distractor_diamondtriangles.svg	stimuli_target_diamondcircles.svg	31	yes	57	0	493
6.6.1	mac	2022-12-19	21:50:25	21:57:28	420935	61f2ab70a09e72f23cbaf3b0	558247117	1	main_slash	7	main_slash	97	stimuli_distractor_diamondtriangles.svg	stimuli_target_squaretriangles.svg	15	yes	53	1	613
6.6.1	mac	2022-12-19	21:50:25	21:57:28	420935	61f2ab70a09e72f23cbaf3b0	558247117	1	main_slash	7	advance_on_keypress_SLASH	98	stimuli_distractor_diamondtriangles.svg	stimuli_target_squaretriangles.svg	15	yes	57	0	423
6.6.1	mac	2022-12-19	21:50:25	21:57:30	422393	61f2ab70a09e72f23cbaf3b0	558247117	1	main_slash	7	main_slash	99	stimuli_distractor_trianglediamonds.svg	stimuli_target_circletriangles.svg	9	yes	53	1	404
6.6.1	mac	2022-12-19	21:50:25	21:57:30	422393	61f2ab70a09e72f23cbaf3b0	558247117	1	main_slash	7	advance_on_keypress_SLASH	100	stimuli_distractor_trianglediamonds.svg	stimuli_target_circletriangles.svg	9	yes	57	0	445
6.6.1	mac	2022-12-19	21:50:25	21:57:31	424161	61f2ab70a09e72f23cbaf3b0	558247117	1	main_slash	7	main_slash	101	stimuli_distractor_trianglediamonds.svg	stimuli_target_squarediamonds.svg	12	yes	53	1	688
6.6.1	mac	2022-12-19	21:50:25	21:57:31	424161	61f2ab70a09e72f23cbaf3b0	558247117	1	main_slash	7	advance_on_keypress_SLASH	102	stimuli_distractor_trianglediamonds.svg	stimuli_target_squarediamonds.svg	12	yes	57	0	350
6.6.1	mac	2022-12-19	21:50:25	21:57:33	425724	61f2ab70a09e72f23cbaf3b0	558247117	1	main_slash	7	main_slash	103	stimuli_distractor_trianglediamonds.svg	stimuli_target_trianglesquares.svg	26	yes	53	1	586
6.6.1	mac	2022-12-19	21:50:25	21:57:33	425724	61f2ab70a09e72f23cbaf3b0	558247117	1	main_slash	7	advance_on_keypress_SLASH	104	stimuli_distractor_trianglediamonds.svg	stimuli_target_trianglesquares.svg	26	yes	57	0	398
6.6.1	mac	2022-12-19	21:50:25	21:57:35	427369	61f2ab70a09e72f23cbaf3b0	558247117	1	main_slash	7	main_slash	105	stimuli_target_circletriangles.svg	stimuli_distractor_trianglediamonds.svg	1	yes	53	1	614
6.6.1	mac	2022-12-19	21:50:25	21:57:35	427369	61f2ab70a09e72f23cbaf3b0	558247117	1	main_slash	7	advance_on_keypress_SLASH	106	stimuli_target_circletriangles.svg	stimuli_distractor_trianglediamonds.svg	1	yes	57	0	363
6.6.1	mac	2022-12-19	21:50:25	21:57:36	428941	61f2ab70a09e72f23cbaf3b0	558247117	1	main_slash	7	main_slash	107	stimuli_distractor_diamondtriangles.svg	stimuli_target_circlediamonds.svg	14	yes	53	1	569
6.6.1	mac	2022-12-19	21:50:25	21:57:36	428941	61f2ab70a09e72f23cbaf3b0	558247117	1	main_slash	7	advance_on_keypress_SLASH	108	stimuli_distractor_diamondtriangles.svg	stimuli_target_circlediamonds.svg	14	yes	57	0	367
6.6.1	mac	2022-12-19	21:50:25	21:57:38	430445	61f2ab70a09e72f23cbaf3b0	558247117	1	main_slash	7	main_slash	109	stimuli_distractor_trianglediamonds.svg	stimuli_distractor_diamondtriangles.svg	36	no	53	0	490
6.6.1	mac	2022-12-19	21:50:25	21:57:38	430445	61f2ab70a09e72f23cbaf3b0	558247117	1	main_slash	7	advance_on_keypress_SLASH	110	stimuli_distractor_trianglediamonds.svg	stimuli_distractor_diamondtriangles.svg	36	no	57	0	376
6.6.1	mac	2022-12-19	21:50:25	21:57:41	433454	61f2ab70a09e72f23cbaf3b0	558247117	1	main_slash	7	main_slash	111	stimuli_target_trianglesquares.svg	stimuli_distractor_trianglediamonds.svg	18	yes	0	0	2000
6.6.1	mac	2022-12-19	21:50:25	21:57:41	433454	61f2ab70a09e72f23cbaf3b0	558247117	1	main_slash	7	advance_on_keypress_SLASH	112	stimuli_target_trianglesquares.svg	stimuli_distractor_trianglediamonds.svg	18	yes	57	0	680
6.6.1	mac	2022-12-19	21:50:25	21:57:43	435611	61f2ab70a09e72f23cbaf3b0	558247117	1	main_slash	7	main_slash	113	stimuli_target_diamondsquares.svg	stimuli_distractor_trianglediamonds.svg	20	yes	53	1	839
6.6.1	mac	2022-12-19	21:50:25	21:57:43	435611	61f2ab70a09e72f23cbaf3b0	558247117	1	main_slash	7	advance_on_keypress_SLASH	114	stimuli_target_diamondsquares.svg	stimuli_distractor_trianglediamonds.svg	20	yes	57	0	511
6.6.1	mac	2022-12-19	21:50:25	21:57:45	437374	61f2ab70a09e72f23cbaf3b0	558247117	1	main_slash	7	main_slash	115	stimuli_target_squarediamonds.svg	stimuli_distractor_trianglediamonds.svg	4	yes	53	1	617
6.6.1	mac	2022-12-19	21:50:25	21:57:45	437374	61f2ab70a09e72f23cbaf3b0	558247117	1	main_slash	7	advance_on_keypress_SLASH	116	stimuli_target_squarediamonds.svg	stimuli_distractor_trianglediamonds.svg	4	yes	57	0	438
6.6.1	mac	2022-12-19	21:50:25	21:57:46	438941	61f2ab70a09e72f23cbaf3b0	558247117	1	main_slash	7	main_slash	117	stimuli_target_diamondcircles.svg	stimuli_distractor_trianglediamonds.svg	19	yes	53	1	501
6.6.1	mac	2022-12-19	21:50:25	21:57:46	438941	61f2ab70a09e72f23cbaf3b0	558247117	1	main_slash	7	advance_on_keypress_SLASH	118	stimuli_target_diamondcircles.svg	stimuli_distractor_trianglediamonds.svg	19	yes	57	0	400
6.6.1	mac	2022-12-19	21:50:25	21:57:48	440369	61f2ab70a09e72f23cbaf3b0	558247117	1	main_slash	7	main_slash	119	stimuli_distractor_trianglediamonds.svg	stimuli_target_trianglecircles.svg	25	yes	53	1	394
6.6.1	mac	2022-12-19	21:50:25	21:57:48	440369	61f2ab70a09e72f23cbaf3b0	558247117	1	main_slash	7	advance_on_keypress_SLASH	120	stimuli_distractor_trianglediamonds.svg	stimuli_target_trianglecircles.svg	25	yes	57	0	398
6.6.1	mac	2022-12-19	21:50:25	21:57:49	441805	61f2ab70a09e72f23cbaf3b0	558247117	1	main_slash	7	main_slash	121	stimuli_target_circlediamonds.svg	stimuli_distractor_diamondtriangles.svg	6	yes	53	1	399
6.6.1	mac	2022-12-19	21:50:25	21:57:49	441805	61f2ab70a09e72f23cbaf3b0	558247117	1	main_slash	7	advance_on_keypress_SLASH	122	stimuli_target_circlediamonds.svg	stimuli_distractor_diamondtriangles.svg	6	yes	57	0	377
6.6.1	mac	2022-12-19	21:50:25	21:57:51	443331	61f2ab70a09e72f23cbaf3b0	558247117	1	main_slash	7	main_slash	123	stimuli_distractor_diamondtriangles.svg	stimuli_target_trianglesquares.svg	30	yes	53	1	507
6.6.1	mac	2022-12-19	21:50:25	21:57:51	443331	61f2ab70a09e72f23cbaf3b0	558247117	1	main_slash	7	advance_on_keypress_SLASH	124	stimuli_distractor_diamondtriangles.svg	stimuli_target_trianglesquares.svg	30	yes	57	0	352
6.6.1	mac	2022-12-19	21:50:25	21:57:52	444877	61f2ab70a09e72f23cbaf3b0	558247117	1	main_slash	7	main_slash	125	stimuli_target_circlediamonds.svg	stimuli_distractor_trianglediamonds.svg	2	yes	53	1	554
6.6.1	mac	2022-12-19	21:50:25	21:57:52	444877	61f2ab70a09e72f23cbaf3b0	558247117	1	main_slash	7	advance_on_keypress_SLASH	126	stimuli_target_circlediamonds.svg	stimuli_distractor_trianglediamonds.svg	2	yes	57	0	352
6.6.1	mac	2022-12-19	21:50:25	21:57:53	446125	61f2ab70a09e72f23cbaf3b0	558247117	1	main_slash	7	main_slash	127	stimuli_distractor_diamondtriangles.svg	stimuli_distractor_diamondtriangles.svg	40	no	53	0	252
6.6.1	mac	2022-12-19	21:50:25	21:57:53	446125	61f2ab70a09e72f23cbaf3b0	558247117	1	main_slash	7	advance_on_keypress_SLASH	128	stimuli_distractor_diamondtriangles.svg	stimuli_distractor_diamondtriangles.svg	40	no	57	0	852
6.6.1	mac	2022-12-19	21:50:25	21:57:55	448167	61f2ab70a09e72f23cbaf3b0	558247117	1	main_slash	7	main_slash	129	stimuli_distractor_trianglediamonds.svg	stimuli_target_circlediamonds.svg	10	yes	53	1	560
6.6.1	mac	2022-12-19	21:50:25	21:57:55	448167	61f2ab70a09e72f23cbaf3b0	558247117	1	main_slash	7	advance_on_keypress_SLASH	130	stimuli_distractor_trianglediamonds.svg	stimuli_target_circlediamonds.svg	10	yes	57	0	344
6.6.1	mac	2022-12-19	21:50:25	21:57:57	449657	61f2ab70a09e72f23cbaf3b0	558247117	1	main_slash	7	main_slash	131	stimuli_target_squaretriangles.svg	stimuli_distractor_trianglediamonds.svg	3	yes	53	1	499
6.6.1	mac	2022-12-19	21:50:25	21:57:57	449657	61f2ab70a09e72f23cbaf3b0	558247117	1	main_slash	7	advance_on_keypress_SLASH	132	stimuli_target_squaretriangles.svg	stimuli_distractor_trianglediamonds.svg	3	yes	57	0	345
6.6.1	mac	2022-12-19	21:50:25	21:57:58	451112	61f2ab70a09e72f23cbaf3b0	558247117	1	main_slash	7	main_slash	133	stimuli_target_trianglecircles.svg	stimuli_distractor_trianglediamonds.svg	17	yes	53	1	473
6.6.1	mac	2022-12-19	21:50:25	21:57:58	451112	61f2ab70a09e72f23cbaf3b0	558247117	1	main_slash	7	advance_on_keypress_SLASH	134	stimuli_target_trianglecircles.svg	stimuli_distractor_trianglediamonds.svg	17	yes	57	0	329
6.6.1	mac	2022-12-19	21:50:25	21:58:00	452537	61f2ab70a09e72f23cbaf3b0	558247117	1	main_slash	7	main_slash	135	stimuli_distractor_trianglediamonds.svg	stimuli_target_diamondcircles.svg	27	yes	53	1	462
6.6.1	mac	2022-12-19	21:50:25	21:58:00	452537	61f2ab70a09e72f23cbaf3b0	558247117	1	main_slash	7	advance_on_keypress_SLASH	136	stimuli_distractor_trianglediamonds.svg	stimuli_target_diamondcircles.svg	27	yes	57	0	327
6.6.1	mac	2022-12-19	21:50:25	21:58:01	453836	61f2ab70a09e72f23cbaf3b0	558247117	1	main_slash	7	main_slash	137	stimuli_distractor_diamondtriangles.svg	stimuli_target_trianglecircles.svg	29	yes	53	1	329
6.6.1	mac	2022-12-19	21:50:25	21:58:01	453836	61f2ab70a09e72f23cbaf3b0	558247117	1	main_slash	7	advance_on_keypress_SLASH	138	stimuli_distractor_diamondtriangles.svg	stimuli_target_trianglecircles.svg	29	yes	57	0	348
6.6.1	mac	2022-12-19	21:50:25	21:58:03	455444	61f2ab70a09e72f23cbaf3b0	558247117	1	main_slash	7	main_slash	139	stimuli_distractor_trianglediamonds.svg	stimuli_target_diamondsquares.svg	28	yes	53	1	620
6.6.1	mac	2022-12-19	21:50:25	21:58:03	455444	61f2ab70a09e72f23cbaf3b0	558247117	1	main_slash	7	advance_on_keypress_SLASH	140	stimuli_distractor_trianglediamonds.svg	stimuli_target_diamondsquares.svg	28	yes	57	0	353
6.6.1	mac	2022-12-19	21:50:25	21:58:06	458423	61f2ab70a09e72f23cbaf3b0	558247117	1	main_slash	7	main_slash	141	stimuli_distractor_diamondtriangles.svg	stimuli_distractor_diamondtriangles.svg	39	no	0	1	2000
6.6.1	mac	2022-12-19	21:50:25	21:58:06	458423	61f2ab70a09e72f23cbaf3b0	558247117	1	main_slash	7	advance_on_keypress_SLASH	142	stimuli_distractor_diamondtriangles.svg	stimuli_distractor_diamondtriangles.svg	39	no	57	0	872
6.6.1	mac	2022-12-19	21:50:25	21:58:08	460397	61f2ab70a09e72f23cbaf3b0	558247117	1	main_slash	7	main_slash	143	stimuli_distractor_diamondtriangles.svg	stimuli_target_squarediamonds.svg	16	yes	53	1	472
6.6.1	mac	2022-12-19	21:50:25	21:58:08	460397	61f2ab70a09e72f23cbaf3b0	558247117	1	main_slash	7	advance_on_keypress_SLASH	144	stimuli_distractor_diamondtriangles.svg	stimuli_target_squarediamonds.svg	16	yes	57	0	471
6.6.1	mac	2022-12-19	21:50:25	21:58:11	463489	61f2ab70a09e72f23cbaf3b0	558247117	1	main_slash	7	main_slash	145	stimuli_distractor_trianglediamonds.svg	stimuli_distractor_trianglediamonds.svg	33	no	0	1	2000
6.6.1	mac	2022-12-19	21:50:25	21:58:11	463489	61f2ab70a09e72f23cbaf3b0	558247117	1	main_slash	7	advance_on_keypress_SLASH	146	stimuli_distractor_trianglediamonds.svg	stimuli_distractor_trianglediamonds.svg	33	no	57	0	632
6.6.1	mac	2022-12-19	21:50:25	21:58:13	465256	61f2ab70a09e72f23cbaf3b0	558247117	1	main_slash	7	main_slash	147	stimuli_target_trianglecircles.svg	stimuli_distractor_diamondtriangles.svg	21	yes	53	1	497
6.6.1	mac	2022-12-19	21:50:25	21:58:13	465256	61f2ab70a09e72f23cbaf3b0	558247117	1	main_slash	7	advance_on_keypress_SLASH	148	stimuli_target_trianglecircles.svg	stimuli_distractor_diamondtriangles.svg	21	yes	57	0	539
6.6.1	mac	2022-12-19	21:50:25	21:58:14	466912	61f2ab70a09e72f23cbaf3b0	558247117	1	main_slash	7	main_slash	149	stimuli_target_squaretriangles.svg	stimuli_distractor_diamondtriangles.svg	7	yes	53	1	487
6.6.1	mac	2022-12-19	21:50:25	21:58:14	466912	61f2ab70a09e72f23cbaf3b0	558247117	1	main_slash	7	advance_on_keypress_SLASH	150	stimuli_target_squaretriangles.svg	stimuli_distractor_diamondtriangles.svg	7	yes	57	0	411
6.6.1	mac	2022-12-19	21:50:25	21:58:16	468597	61f2ab70a09e72f23cbaf3b0	558247117	1	main_slash	7	main_slash	151	stimuli_target_diamondsquares.svg	stimuli_distractor_diamondtriangles.svg	24	yes	53	1	639
6.6.1	mac	2022-12-19	21:50:25	21:58:16	468597	61f2ab70a09e72f23cbaf3b0	558247117	1	main_slash	7	advance_on_keypress_SLASH	152	stimuli_target_diamondsquares.svg	stimuli_distractor_diamondtriangles.svg	24	yes	57	0	346
6.6.1	mac	2022-12-19	21:50:25	21:58:17	470028	61f2ab70a09e72f23cbaf3b0	558247117	1	main_slash	7	main_slash	153	stimuli_target_circletriangles.svg	stimuli_distractor_diamondtriangles.svg	5	yes	53	1	453
6.6.1	mac	2022-12-19	21:50:25	21:58:17	470028	61f2ab70a09e72f23cbaf3b0	558247117	1	main_slash	7	advance_on_keypress_SLASH	154	stimuli_target_circletriangles.svg	stimuli_distractor_diamondtriangles.svg	5	yes	57	0	400
6.6.1	mac	2022-12-19	21:50:25	21:58:19	471488	61f2ab70a09e72f23cbaf3b0	558247117	1	main_slash	7	main_slash	155	stimuli_distractor_diamondtriangles.svg	stimuli_target_circletriangles.svg	13	yes	53	1	430
6.6.1	mac	2022-12-19	21:50:25	21:58:19	471488	61f2ab70a09e72f23cbaf3b0	558247117	1	main_slash	7	advance_on_keypress_SLASH	156	stimuli_distractor_diamondtriangles.svg	stimuli_target_circletriangles.svg	13	yes	57	0	353
6.6.1	mac	2022-12-19	21:50:25	21:58:20	473007	61f2ab70a09e72f23cbaf3b0	558247117	1	main_slash	7	main_slash	157	stimuli_target_squarediamonds.svg	stimuli_distractor_diamondtriangles.svg	8	yes	53	1	531
6.6.1	mac	2022-12-19	21:50:25	21:58:20	473007	61f2ab70a09e72f23cbaf3b0	558247117	1	main_slash	7	advance_on_keypress_SLASH	158	stimuli_target_squarediamonds.svg	stimuli_distractor_diamondtriangles.svg	8	yes	57	0	374
6.6.1	mac	2022-12-19	21:50:25	21:58:22	474611	61f2ab70a09e72f23cbaf3b0	558247117	1	main_slash	7	main_slash	159	stimuli_distractor_diamondtriangles.svg	stimuli_target_diamondsquares.svg	32	yes	53	1	586
6.6.1	mac	2022-12-19	21:50:25	21:58:22	474611	61f2ab70a09e72f23cbaf3b0	558247117	1	main_slash	7	advance_on_keypress_SLASH	160	stimuli_distractor_diamondtriangles.svg	stimuli_target_diamondsquares.svg	32	yes	57	0	548
6.6.1	mac	2022-12-19	21:50:25	21:58:48	500799	61f2ab70a09e72f23cbaf3b0	558247117	1	practice_z	9	practice_z	1	stimuli_target_diamondsquares.svg	stimuli_distractor_trianglediamonds.svg	6	yes	44	1	671
6.6.1	mac	2022-12-19	21:50:25	21:58:48	500799	61f2ab70a09e72f23cbaf3b0	558247117	1	practice_z	9	advance_on_keypress_ZEE	2	stimuli_target_diamondsquares.svg	stimuli_distractor_trianglediamonds.svg	6	yes	57	0	522
6.6.1	mac	2022-12-19	21:50:25	21:58:51	503353	61f2ab70a09e72f23cbaf3b0	558247117	1	practice_z	9	practice_z	3	stimuli_target_squarediamonds.svg	stimuli_distractor_diamondtriangles.svg	2	yes	44	1	392
6.6.1	mac	2022-12-19	21:50:25	21:58:51	503353	61f2ab70a09e72f23cbaf3b0	558247117	1	practice_z	9	advance_on_keypress_ZEE	4	stimuli_target_squarediamonds.svg	stimuli_distractor_diamondtriangles.svg	2	yes	57	0	444
6.6.1	mac	2022-12-19	21:50:25	21:58:55	507444	61f2ab70a09e72f23cbaf3b0	558247117	1	practice_z	9	practice_z	5	stimuli_distractor_diamondtriangles.svg	stimuli_distractor_diamondtriangles.svg	13	no	0	1	2000
6.6.1	mac	2022-12-19	21:50:25	21:58:55	507444	61f2ab70a09e72f23cbaf3b0	558247117	1	practice_z	9	advance_on_keypress_ZEE	6	stimuli_distractor_diamondtriangles.svg	stimuli_distractor_diamondtriangles.svg	13	no	57	0	1257
6.6.1	mac	2022-12-19	21:50:25	21:58:58	510632	61f2ab70a09e72f23cbaf3b0	558247117	1	practice_z	9	practice_z	7	stimuli_distractor_trianglediamonds.svg	stimuli_distractor_trianglediamonds.svg	15	no	44	0	286
6.6.1	mac	2022-12-19	21:50:25	21:58:58	510632	61f2ab70a09e72f23cbaf3b0	558247117	1	practice_z	9	advance_on_keypress_ZEE	8	stimuli_distractor_trianglediamonds.svg	stimuli_distractor_trianglediamonds.svg	15	no	57	0	713
6.6.1	mac	2022-12-19	21:50:25	21:59:01	513576	61f2ab70a09e72f23cbaf3b0	558247117	1	practice_z	9	practice_z	9	stimuli_distractor_trianglediamonds.svg	stimuli_target_squarediamonds.svg	11	yes	44	1	597
6.6.1	mac	2022-12-19	21:50:25	21:59:01	513576	61f2ab70a09e72f23cbaf3b0	558247117	1	practice_z	9	advance_on_keypress_ZEE	10	stimuli_distractor_trianglediamonds.svg	stimuli_target_squarediamonds.svg	11	yes	57	0	568
6.6.1	mac	2022-12-19	21:50:25	21:59:03	516197	61f2ab70a09e72f23cbaf3b0	558247117	1	practice_z	9	practice_z	11	stimuli_distractor_diamondtriangles.svg	stimuli_target_trianglecircles.svg	9	yes	44	1	417
6.6.1	mac	2022-12-19	21:50:25	21:59:03	516197	61f2ab70a09e72f23cbaf3b0	558247117	1	practice_z	9	advance_on_keypress_ZEE	12	stimuli_distractor_diamondtriangles.svg	stimuli_target_trianglecircles.svg	9	yes	57	0	642
6.6.1	mac	2022-12-19	21:50:25	21:59:06	518919	61f2ab70a09e72f23cbaf3b0	558247117	1	practice_z	9	practice_z	13	stimuli_target_squarediamonds.svg	stimuli_distractor_trianglediamonds.svg	5	yes	44	1	440
6.6.1	mac	2022-12-19	21:50:25	21:59:06	518919	61f2ab70a09e72f23cbaf3b0	558247117	1	practice_z	9	advance_on_keypress_ZEE	14	stimuli_target_squarediamonds.svg	stimuli_distractor_trianglediamonds.svg	5	yes	57	0	577
6.6.1	mac	2022-12-19	21:50:25	21:59:09	521533	61f2ab70a09e72f23cbaf3b0	558247117	1	practice_z	9	practice_z	15	stimuli_distractor_diamondtriangles.svg	stimuli_distractor_trianglediamonds.svg	14	no	44	0	404
6.6.1	mac	2022-12-19	21:50:25	21:59:09	521533	61f2ab70a09e72f23cbaf3b0	558247117	1	practice_z	9	advance_on_keypress_ZEE	16	stimuli_distractor_diamondtriangles.svg	stimuli_distractor_trianglediamonds.svg	14	no	57	0	653
6.6.1	mac	2022-12-19	21:50:25	21:59:12	524250	61f2ab70a09e72f23cbaf3b0	558247117	1	practice_z	9	practice_z	17	stimuli_distractor_trianglediamonds.svg	stimuli_target_circlediamonds.svg	10	yes	44	1	436
6.6.1	mac	2022-12-19	21:50:25	21:59:12	524250	61f2ab70a09e72f23cbaf3b0	558247117	1	practice_z	9	advance_on_keypress_ZEE	18	stimuli_distractor_trianglediamonds.svg	stimuli_target_circlediamonds.svg	10	yes	57	0	432
6.6.1	mac	2022-12-19	21:50:25	21:59:15	527225	61f2ab70a09e72f23cbaf3b0	558247117	1	practice_z	9	practice_z	19	stimuli_distractor_diamondtriangles.svg	stimuli_target_circletriangles.svg	7	yes	44	1	911
6.6.1	mac	2022-12-19	21:50:25	21:59:15	527225	61f2ab70a09e72f23cbaf3b0	558247117	1	practice_z	9	advance_on_keypress_ZEE	20	stimuli_distractor_diamondtriangles.svg	stimuli_target_circletriangles.svg	7	yes	57	0	753
6.6.1	mac	2022-12-19	21:50:25	21:59:17	530005	61f2ab70a09e72f23cbaf3b0	558247117	1	practice_z	9	practice_z	21	stimuli_target_circlediamonds.svg	stimuli_distractor_diamondtriangles.svg	1	yes	44	1	393
6.6.1	mac	2022-12-19	21:50:25	21:59:17	530005	61f2ab70a09e72f23cbaf3b0	558247117	1	practice_z	9	advance_on_keypress_ZEE	22	stimuli_target_circlediamonds.svg	stimuli_distractor_diamondtriangles.svg	1	yes	57	0	660
6.6.1	mac	2022-12-19	21:50:25	21:59:20	532616	61f2ab70a09e72f23cbaf3b0	558247117	1	practice_z	9	practice_z	23	stimuli_distractor_trianglediamonds.svg	stimuli_target_diamondcircles.svg	12	yes	44	1	302
6.6.1	mac	2022-12-19	21:50:25	21:59:20	532616	61f2ab70a09e72f23cbaf3b0	558247117	1	practice_z	9	advance_on_keypress_ZEE	24	stimuli_distractor_trianglediamonds.svg	stimuli_target_diamondcircles.svg	12	yes	57	0	620
6.6.1	mac	2022-12-19	21:50:25	21:59:23	535363	61f2ab70a09e72f23cbaf3b0	558247117	1	practice_z	9	practice_z	25	stimuli_distractor_diamondtriangles.svg	stimuli_target_diamondcircles.svg	8	yes	44	1	498
6.6.1	mac	2022-12-19	21:50:25	21:59:23	535363	61f2ab70a09e72f23cbaf3b0	558247117	1	practice_z	9	advance_on_keypress_ZEE	26	stimuli_distractor_diamondtriangles.svg	stimuli_target_diamondcircles.svg	8	yes	57	0	752
6.6.1	mac	2022-12-19	21:50:25	21:59:25	538110	61f2ab70a09e72f23cbaf3b0	558247117	1	practice_z	9	practice_z	27	stimuli_distractor_trianglediamonds.svg	stimuli_distractor_diamondtriangles.svg	16	no	44	0	362
6.6.1	mac	2022-12-19	21:50:25	21:59:25	538110	61f2ab70a09e72f23cbaf3b0	558247117	1	practice_z	9	advance_on_keypress_ZEE	28	stimuli_distractor_trianglediamonds.svg	stimuli_distractor_diamondtriangles.svg	16	no	57	0	469
6.6.1	mac	2022-12-19	21:50:25	21:59:28	540732	61f2ab70a09e72f23cbaf3b0	558247117	1	practice_z	9	practice_z	29	stimuli_target_diamondsquares.svg	stimuli_distractor_diamondtriangles.svg	3	yes	44	1	518
6.6.1	mac	2022-12-19	21:50:25	21:59:28	540732	61f2ab70a09e72f23cbaf3b0	558247117	1	practice_z	9	advance_on_keypress_ZEE	30	stimuli_target_diamondsquares.svg	stimuli_distractor_diamondtriangles.svg	3	yes	57	0	573
6.6.1	mac	2022-12-19	21:50:25	21:59:31	543375	61f2ab70a09e72f23cbaf3b0	558247117	1	practice_z	9	practice_z	31	stimuli_target_circlediamonds.svg	stimuli_distractor_trianglediamonds.svg	4	yes	44	1	427
6.6.1	mac	2022-12-19	21:50:25	21:59:31	543375	61f2ab70a09e72f23cbaf3b0	558247117	1	practice_z	9	advance_on_keypress_ZEE	32	stimuli_target_circlediamonds.svg	stimuli_distractor_trianglediamonds.svg	4	yes	57	0	674
6.6.1	mac	2022-12-19	21:50:25	21:59:35	548004	61f2ab70a09e72f23cbaf3b0	558247117	1	main_z	11	main_z	1	stimuli_distractor_trianglediamonds.svg	stimuli_target_squaretriangles.svg	11	yes	44	1	306
6.6.1	mac	2022-12-19	21:50:25	21:59:35	548004	61f2ab70a09e72f23cbaf3b0	558247117	1	main_z	11	advance_on_keypress_ZEE	2	stimuli_distractor_trianglediamonds.svg	stimuli_target_squaretriangles.svg	11	yes	57	0	512
6.6.1	mac	2022-12-19	21:50:25	21:59:37	549521	61f2ab70a09e72f23cbaf3b0	558247117	1	main_z	11	main_z	3	stimuli_target_squaretriangles.svg	stimuli_distractor_diamondtriangles.svg	7	yes	44	1	357
6.6.1	mac	2022-12-19	21:50:25	21:59:37	549521	61f2ab70a09e72f23cbaf3b0	558247117	1	main_z	11	advance_on_keypress_ZEE	4	stimuli_target_squaretriangles.svg	stimuli_distractor_diamondtriangles.svg	7	yes	57	0	550
6.6.1	mac	2022-12-19	21:50:25	21:59:39	551488	61f2ab70a09e72f23cbaf3b0	558247117	1	main_z	11	main_z	5	stimuli_target_diamondsquares.svg	stimuli_distractor_trianglediamonds.svg	20	yes	44	1	774
6.6.1	mac	2022-12-19	21:50:25	21:59:39	551488	61f2ab70a09e72f23cbaf3b0	558247117	1	main_z	11	advance_on_keypress_ZEE	6	stimuli_target_diamondsquares.svg	stimuli_distractor_trianglediamonds.svg	20	yes	57	0	908
6.6.1	mac	2022-12-19	21:50:25	21:59:42	555046	61f2ab70a09e72f23cbaf3b0	558247117	1	main_z	11	main_z	7	stimuli_distractor_diamondtriangles.svg	stimuli_distractor_diamondtriangles.svg	39	no	0	1	2000
6.6.1	mac	2022-12-19	21:50:25	21:59:42	555046	61f2ab70a09e72f23cbaf3b0	558247117	1	main_z	11	advance_on_keypress_ZEE	8	stimuli_distractor_diamondtriangles.svg	stimuli_distractor_diamondtriangles.svg	39	no	57	0	580
6.6.1	mac	2022-12-19	21:50:25	21:59:44	556670	61f2ab70a09e72f23cbaf3b0	558247117	1	main_z	11	main_z	9	stimuli_distractor_trianglediamonds.svg	stimuli_target_trianglecircles.svg	25	yes	44	1	406
6.6.1	mac	2022-12-19	21:50:25	21:59:44	556670	61f2ab70a09e72f23cbaf3b0	558247117	1	main_z	11	advance_on_keypress_ZEE	10	stimuli_distractor_trianglediamonds.svg	stimuli_target_trianglecircles.svg	25	yes	57	0	490
6.6.1	mac	2022-12-19	21:50:25	21:59:47	559796	61f2ab70a09e72f23cbaf3b0	558247117	1	main_z	11	main_z	11	stimuli_distractor_diamondtriangles.svg	stimuli_distractor_diamondtriangles.svg	40	no	0	1	2000
6.6.1	mac	2022-12-19	21:50:25	21:59:47	559796	61f2ab70a09e72f23cbaf3b0	558247117	1	main_z	11	advance_on_keypress_ZEE	12	stimuli_distractor_diamondtriangles.svg	stimuli_distractor_diamondtriangles.svg	40	no	57	0	312
6.6.1	mac	2022-12-19	21:50:25	21:59:49	561305	61f2ab70a09e72f23cbaf3b0	558247117	1	main_z	11	main_z	13	stimuli_distractor_trianglediamonds.svg	stimuli_target_squarediamonds.svg	12	yes	44	1	558
6.6.1	mac	2022-12-19	21:50:25	21:59:49	561305	61f2ab70a09e72f23cbaf3b0	558247117	1	main_z	11	advance_on_keypress_ZEE	14	stimuli_distractor_trianglediamonds.svg	stimuli_target_squarediamonds.svg	12	yes	57	0	792
6.6.1	mac	2022-12-19	21:50:25	21:59:50	563180	61f2ab70a09e72f23cbaf3b0	558247117	1	main_z	11	main_z	15	stimuli_distractor_diamondtriangles.svg	stimuli_target_diamondcircles.svg	31	yes	44	1	432
6.6.1	mac	2022-12-19	21:50:25	21:59:50	563180	61f2ab70a09e72f23cbaf3b0	558247117	1	main_z	11	advance_on_keypress_ZEE	16	stimuli_distractor_diamondtriangles.svg	stimuli_target_diamondcircles.svg	31	yes	57	0	492
6.6.1	mac	2022-12-19	21:50:25	21:59:54	566314	61f2ab70a09e72f23cbaf3b0	558247117	1	main_z	11	main_z	17	stimuli_distractor_diamondtriangles.svg	stimuli_distractor_trianglediamonds.svg	38	no	0	1	2000
6.6.1	mac	2022-12-19	21:50:25	21:59:54	566314	61f2ab70a09e72f23cbaf3b0	558247117	1	main_z	11	advance_on_keypress_ZEE	18	stimuli_distractor_diamondtriangles.svg	stimuli_distractor_trianglediamonds.svg	38	no	57	0	25
6.6.1	mac	2022-12-19	21:50:25	21:59:55	567561	61f2ab70a09e72f23cbaf3b0	558247117	1	main_z	11	main_z	19	stimuli_target_squarediamonds.svg	stimuli_distractor_trianglediamonds.svg	4	yes	44	1	596
6.6.1	mac	2022-12-19	21:50:25	21:59:55	567561	61f2ab70a09e72f23cbaf3b0	558247117	1	main_z	11	advance_on_keypress_ZEE	20	stimuli_target_squarediamonds.svg	stimuli_distractor_trianglediamonds.svg	4	yes	57	0	493
6.6.1	mac	2022-12-19	21:50:25	21:59:58	570697	61f2ab70a09e72f23cbaf3b0	558247117	1	main_z	11	main_z	21	stimuli_distractor_trianglediamonds.svg	stimuli_distractor_trianglediamonds.svg	34	no	0	1	2000
6.6.1	mac	2022-12-19	21:50:25	21:59:58	570697	61f2ab70a09e72f23cbaf3b0	558247117	1	main_z	11	advance_on_keypress_ZEE	22	stimuli_distractor_trianglediamonds.svg	stimuli_distractor_trianglediamonds.svg	34	no	57	0	465
6.6.1	mac	2022-12-19	21:50:25	22:00:00	572372	61f2ab70a09e72f23cbaf3b0	558247117	1	main_z	11	main_z	23	stimuli_target_diamondsquares.svg	stimuli_distractor_diamondtriangles.svg	24	yes	44	1	574
6.6.1	mac	2022-12-19	21:50:25	22:00:00	572372	61f2ab70a09e72f23cbaf3b0	558247117	1	main_z	11	advance_on_keypress_ZEE	24	stimuli_target_diamondsquares.svg	stimuli_distractor_diamondtriangles.svg	24	yes	57	0	435
6.6.1	mac	2022-12-19	21:50:25	22:00:03	575448	61f2ab70a09e72f23cbaf3b0	558247117	1	main_z	11	main_z	25	stimuli_distractor_trianglediamonds.svg	stimuli_distractor_trianglediamonds.svg	33	no	0	1	2000
6.6.1	mac	2022-12-19	21:50:25	22:00:03	575448	61f2ab70a09e72f23cbaf3b0	558247117	1	main_z	11	advance_on_keypress_ZEE	26	stimuli_distractor_trianglediamonds.svg	stimuli_distractor_trianglediamonds.svg	33	no	57	0	429
6.6.1	mac	2022-12-19	21:50:25	22:00:04	577176	61f2ab70a09e72f23cbaf3b0	558247117	1	main_z	11	main_z	27	stimuli_distractor_diamondtriangles.svg	stimuli_target_circlediamonds.svg	14	yes	44	1	660
6.6.1	mac	2022-12-19	21:50:25	22:00:04	577176	61f2ab70a09e72f23cbaf3b0	558247117	1	main_z	11	advance_on_keypress_ZEE	28	stimuli_distractor_diamondtriangles.svg	stimuli_target_circlediamonds.svg	14	yes	57	0	351
6.6.1	mac	2022-12-19	21:50:25	22:00:06	578934	61f2ab70a09e72f23cbaf3b0	558247117	1	main_z	11	main_z	29	stimuli_distractor_diamondtriangles.svg	stimuli_target_trianglesquares.svg	30	yes	44	1	768
6.6.1	mac	2022-12-19	21:50:25	22:00:06	578934	61f2ab70a09e72f23cbaf3b0	558247117	1	main_z	11	advance_on_keypress_ZEE	30	stimuli_distractor_diamondtriangles.svg	stimuli_target_trianglesquares.svg	30	yes	57	0	875
6.6.1	mac	2022-12-19	21:50:25	22:00:08	580973	61f2ab70a09e72f23cbaf3b0	558247117	1	main_z	11	main_z	31	stimuli_target_diamondcircles.svg	stimuli_distractor_trianglediamonds.svg	19	yes	44	1	526
6.6.1	mac	2022-12-19	21:50:25	22:00:08	580973	61f2ab70a09e72f23cbaf3b0	558247117	1	main_z	11	advance_on_keypress_ZEE	32	stimuli_target_diamondcircles.svg	stimuli_distractor_trianglediamonds.svg	19	yes	57	0	587
6.6.1	mac	2022-12-19	21:50:25	22:00:12	584198	61f2ab70a09e72f23cbaf3b0	558247117	1	main_z	11	main_z	33	stimuli_distractor_trianglediamonds.svg	stimuli_distractor_diamondtriangles.svg	35	no	0	1	2000
6.6.1	mac	2022-12-19	21:50:25	22:00:12	584198	61f2ab70a09e72f23cbaf3b0	558247117	1	main_z	11	advance_on_keypress_ZEE	34	stimuli_distractor_trianglediamonds.svg	stimuli_distractor_diamondtriangles.svg	35	no	57	0	384
6.6.1	mac	2022-12-19	21:50:25	22:00:13	585684	61f2ab70a09e72f23cbaf3b0	558247117	1	main_z	11	main_z	35	stimuli_distractor_diamondtriangles.svg	stimuli_target_diamondsquares.svg	32	yes	44	1	468
6.6.1	mac	2022-12-19	21:50:25	22:00:13	585684	61f2ab70a09e72f23cbaf3b0	558247117	1	main_z	11	advance_on_keypress_ZEE	36	stimuli_distractor_diamondtriangles.svg	stimuli_target_diamondsquares.svg	32	yes	57	0	444
6.6.1	mac	2022-12-19	21:50:25	22:00:16	588765	61f2ab70a09e72f23cbaf3b0	558247117	1	main_z	11	main_z	37	stimuli_distractor_diamondtriangles.svg	stimuli_distractor_trianglediamonds.svg	37	no	0	1	2000
6.6.1	mac	2022-12-19	21:50:25	22:00:16	588765	61f2ab70a09e72f23cbaf3b0	558247117	1	main_z	11	advance_on_keypress_ZEE	38	stimuli_distractor_diamondtriangles.svg	stimuli_distractor_trianglediamonds.svg	37	no	57	0	334
6.6.1	mac	2022-12-19	21:50:25	22:00:18	590250	61f2ab70a09e72f23cbaf3b0	558247117	1	main_z	11	main_z	39	stimuli_target_trianglecircles.svg	stimuli_distractor_trianglediamonds.svg	17	yes	44	1	516
6.6.1	mac	2022-12-19	21:50:25	22:00:18	590250	61f2ab70a09e72f23cbaf3b0	558247117	1	main_z	11	advance_on_keypress_ZEE	40	stimuli_target_trianglecircles.svg	stimuli_distractor_trianglediamonds.svg	17	yes	57	0	449
6.6.1	mac	2022-12-19	21:50:25	22:00:19	591778	61f2ab70a09e72f23cbaf3b0	558247117	1	main_z	11	main_z	41	stimuli_target_diamondcircles.svg	stimuli_distractor_diamondtriangles.svg	23	yes	44	1	444
6.6.1	mac	2022-12-19	21:50:25	22:00:19	591778	61f2ab70a09e72f23cbaf3b0	558247117	1	main_z	11	advance_on_keypress_ZEE	42	stimuli_target_diamondcircles.svg	stimuli_distractor_diamondtriangles.svg	23	yes	57	0	444
6.6.1	mac	2022-12-19	21:50:25	22:00:21	593265	61f2ab70a09e72f23cbaf3b0	558247117	1	main_z	11	main_z	43	stimuli_target_circletriangles.svg	stimuli_distractor_trianglediamonds.svg	1	yes	44	1	399
6.6.1	mac	2022-12-19	21:50:25	22:00:21	593265	61f2ab70a09e72f23cbaf3b0	558247117	1	main_z	11	advance_on_keypress_ZEE	44	stimuli_target_circletriangles.svg	stimuli_distractor_trianglediamonds.svg	1	yes	57	0	555
6.6.1	mac	2022-12-19	21:50:25	22:00:23	595421	61f2ab70a09e72f23cbaf3b0	558247117	1	main_z	11	main_z	45	stimuli_distractor_trianglediamonds.svg	stimuli_target_diamondsquares.svg	28	yes	44	1	971
6.6.1	mac	2022-12-19	21:50:25	22:00:23	595421	61f2ab70a09e72f23cbaf3b0	558247117	1	main_z	11	advance_on_keypress_ZEE	46	stimuli_distractor_trianglediamonds.svg	stimuli_target_diamondsquares.svg	28	yes	57	0	717
6.6.1	mac	2022-12-19	21:50:25	22:00:25	597331	61f2ab70a09e72f23cbaf3b0	558247117	1	main_z	11	main_z	47	stimuli_distractor_trianglediamonds.svg	stimuli_target_trianglesquares.svg	26	yes	44	1	564
6.6.1	mac	2022-12-19	21:50:25	22:00:25	597331	61f2ab70a09e72f23cbaf3b0	558247117	1	main_z	11	advance_on_keypress_ZEE	48	stimuli_distractor_trianglediamonds.svg	stimuli_target_trianglesquares.svg	26	yes	57	0	476
6.6.1	mac	2022-12-19	21:50:25	22:00:26	599021	61f2ab70a09e72f23cbaf3b0	558247117	1	main_z	11	main_z	49	stimuli_distractor_trianglediamonds.svg	stimuli_target_circletriangles.svg	9	yes	44	1	571
6.6.1	mac	2022-12-19	21:50:25	22:00:26	599021	61f2ab70a09e72f23cbaf3b0	558247117	1	main_z	11	advance_on_keypress_ZEE	50	stimuli_distractor_trianglediamonds.svg	stimuli_target_circletriangles.svg	9	yes	57	0	379
6.6.1	mac	2022-12-19	21:50:25	22:00:28	600516	61f2ab70a09e72f23cbaf3b0	558247117	1	main_z	11	main_z	51	stimuli_target_squaretriangles.svg	stimuli_distractor_trianglediamonds.svg	3	yes	44	1	481
6.6.1	mac	2022-12-19	21:50:25	22:00:28	600516	61f2ab70a09e72f23cbaf3b0	558247117	1	main_z	11	advance_on_keypress_ZEE	52	stimuli_target_squaretriangles.svg	stimuli_distractor_trianglediamonds.svg	3	yes	57	0	425
6.6.1	mac	2022-12-19	21:50:25	22:00:29	602074	61f2ab70a09e72f23cbaf3b0	558247117	1	main_z	11	main_z	53	stimuli_distractor_trianglediamonds.svg	stimuli_target_circlediamonds.svg	10	yes	44	1	489
6.6.1	mac	2022-12-19	21:50:25	22:00:29	602074	61f2ab70a09e72f23cbaf3b0	558247117	1	main_z	11	advance_on_keypress_ZEE	54	stimuli_distractor_trianglediamonds.svg	stimuli_target_circlediamonds.svg	10	yes	57	0	449
6.6.1	mac	2022-12-19	21:50:25	22:00:31	603592	61f2ab70a09e72f23cbaf3b0	558247117	1	main_z	11	main_z	55	stimuli_target_circlediamonds.svg	stimuli_distractor_diamondtriangles.svg	6	yes	44	1	441
6.6.1	mac	2022-12-19	21:50:25	22:00:31	603592	61f2ab70a09e72f23cbaf3b0	558247117	1	main_z	11	advance_on_keypress_ZEE	56	stimuli_target_circlediamonds.svg	stimuli_distractor_diamondtriangles.svg	6	yes	57	0	406
6.6.1	mac	2022-12-19	21:50:25	22:00:32	604997	61f2ab70a09e72f23cbaf3b0	558247117	1	main_z	11	main_z	57	stimuli_target_trianglecircles.svg	stimuli_distractor_diamondtriangles.svg	21	yes	44	1	345
6.6.1	mac	2022-12-19	21:50:25	22:00:32	604997	61f2ab70a09e72f23cbaf3b0	558247117	1	main_z	11	advance_on_keypress_ZEE	58	stimuli_target_trianglecircles.svg	stimuli_distractor_diamondtriangles.svg	21	yes	57	0	553
6.6.1	mac	2022-12-19	21:50:25	22:00:34	606786	61f2ab70a09e72f23cbaf3b0	558247117	1	main_z	11	main_z	59	stimuli_target_circletriangles.svg	stimuli_distractor_diamondtriangles.svg	5	yes	44	1	602
6.6.1	mac	2022-12-19	21:50:25	22:00:34	606786	61f2ab70a09e72f23cbaf3b0	558247117	1	main_z	11	advance_on_keypress_ZEE	60	stimuli_target_circletriangles.svg	stimuli_distractor_diamondtriangles.svg	5	yes	57	0	373
6.6.1	mac	2022-12-19	21:50:25	22:00:36	608245	61f2ab70a09e72f23cbaf3b0	558247117	1	main_z	11	main_z	61	stimuli_distractor_trianglediamonds.svg	stimuli_target_diamondcircles.svg	27	yes	44	1	461
6.6.1	mac	2022-12-19	21:50:25	22:00:36	608245	61f2ab70a09e72f23cbaf3b0	558247117	1	main_z	11	advance_on_keypress_ZEE	62	stimuli_distractor_trianglediamonds.svg	stimuli_target_diamondcircles.svg	27	yes	57	0	431
6.6.1	mac	2022-12-19	21:50:25	22:00:39	611317	61f2ab70a09e72f23cbaf3b0	558247117	1	main_z	11	main_z	63	stimuli_target_circlediamonds.svg	stimuli_distractor_trianglediamonds.svg	2	yes	0	0	2000
6.6.1	mac	2022-12-19	21:50:25	22:00:39	611317	61f2ab70a09e72f23cbaf3b0	558247117	1	main_z	11	advance_on_keypress_ZEE	64	stimuli_target_circlediamonds.svg	stimuli_distractor_trianglediamonds.svg	2	yes	57	0	929
6.6.1	mac	2022-12-19	21:50:25	22:00:41	613386	61f2ab70a09e72f23cbaf3b0	558247117	1	main_z	11	main_z	65	stimuli_target_squarediamonds.svg	stimuli_distractor_diamondtriangles.svg	8	yes	44	1	501
6.6.1	mac	2022-12-19	21:50:25	22:00:41	613386	61f2ab70a09e72f23cbaf3b0	558247117	1	main_z	11	advance_on_keypress_ZEE	66	stimuli_target_squarediamonds.svg	stimuli_distractor_diamondtriangles.svg	8	yes	57	0	266
6.6.1	mac	2022-12-19	21:50:25	22:00:42	614769	61f2ab70a09e72f23cbaf3b0	558247117	1	main_z	11	main_z	67	stimuli_distractor_diamondtriangles.svg	stimuli_target_trianglecircles.svg	29	yes	44	1	468
6.6.1	mac	2022-12-19	21:50:25	22:00:42	614769	61f2ab70a09e72f23cbaf3b0	558247117	1	main_z	11	advance_on_keypress_ZEE	68	stimuli_distractor_diamondtriangles.svg	stimuli_target_trianglecircles.svg	29	yes	57	0	412
6.6.1	mac	2022-12-19	21:50:25	22:00:44	616839	61f2ab70a09e72f23cbaf3b0	558247117	1	main_z	11	main_z	69	stimuli_target_trianglesquares.svg	stimuli_distractor_diamondtriangles.svg	22	yes	44	1	1021
6.6.1	mac	2022-12-19	21:50:25	22:00:44	616839	61f2ab70a09e72f23cbaf3b0	558247117	1	main_z	11	advance_on_keypress_ZEE	70	stimuli_target_trianglesquares.svg	stimuli_distractor_diamondtriangles.svg	22	yes	57	0	310
6.6.1	mac	2022-12-19	21:50:25	22:00:46	618203	61f2ab70a09e72f23cbaf3b0	558247117	1	main_z	11	main_z	71	stimuli_distractor_diamondtriangles.svg	stimuli_target_squarediamonds.svg	16	yes	44	1	418
6.6.1	mac	2022-12-19	21:50:25	22:00:46	618203	61f2ab70a09e72f23cbaf3b0	558247117	1	main_z	11	advance_on_keypress_ZEE	72	stimuli_distractor_diamondtriangles.svg	stimuli_target_squarediamonds.svg	16	yes	57	0	263
6.6.1	mac	2022-12-19	21:50:25	22:00:47	619575	61f2ab70a09e72f23cbaf3b0	558247117	1	main_z	11	main_z	73	stimuli_distractor_diamondtriangles.svg	stimuli_target_circletriangles.svg	13	yes	44	1	473
6.6.1	mac	2022-12-19	21:50:25	22:00:47	619575	61f2ab70a09e72f23cbaf3b0	558247117	1	main_z	11	advance_on_keypress_ZEE	74	stimuli_distractor_diamondtriangles.svg	stimuli_target_circletriangles.svg	13	yes	57	0	312
6.6.1	mac	2022-12-19	21:50:25	22:00:48	621041	61f2ab70a09e72f23cbaf3b0	558247117	1	main_z	11	main_z	75	stimuli_distractor_diamondtriangles.svg	stimuli_target_squaretriangles.svg	15	yes	44	1	523
6.6.1	mac	2022-12-19	21:50:25	22:00:48	621041	61f2ab70a09e72f23cbaf3b0	558247117	1	main_z	11	advance_on_keypress_ZEE	76	stimuli_distractor_diamondtriangles.svg	stimuli_target_squaretriangles.svg	15	yes	57	0	278
6.6.1	mac	2022-12-19	21:50:25	22:00:51	623951	61f2ab70a09e72f23cbaf3b0	558247117	1	main_z	11	main_z	77	stimuli_distractor_trianglediamonds.svg	stimuli_distractor_diamondtriangles.svg	36	no	0	1	2000
6.6.1	mac	2022-12-19	21:50:25	22:00:51	623951	61f2ab70a09e72f23cbaf3b0	558247117	1	main_z	11	advance_on_keypress_ZEE	78	stimuli_distractor_trianglediamonds.svg	stimuli_distractor_diamondtriangles.svg	36	no	57	0	1129
6.6.1	mac	2022-12-19	21:50:25	22:00:54	626305	61f2ab70a09e72f23cbaf3b0	558247117	1	main_z	11	main_z	79	stimuli_target_trianglesquares.svg	stimuli_distractor_trianglediamonds.svg	18	yes	44	1	585
6.6.1	mac	2022-12-19	21:50:25	22:00:54	626305	61f2ab70a09e72f23cbaf3b0	558247117	1	main_z	11	advance_on_keypress_ZEE	80	stimuli_target_trianglesquares.svg	stimuli_distractor_trianglediamonds.svg	18	yes	57	0	744
6.6.1	mac	2022-12-19	21:50:25	22:00:55	628066	61f2ab70a09e72f23cbaf3b0	558247117	1	main_z	11	main_z	81	stimuli_target_squarediamonds.svg	stimuli_distractor_diamondtriangles.svg	8	yes	44	1	378
6.6.1	mac	2022-12-19	21:50:25	22:00:55	628066	61f2ab70a09e72f23cbaf3b0	558247117	1	main_z	11	advance_on_keypress_ZEE	82	stimuli_target_squarediamonds.svg	stimuli_distractor_diamondtriangles.svg	8	yes	57	0	393
6.6.1	mac	2022-12-19	21:50:25	22:00:57	629683	61f2ab70a09e72f23cbaf3b0	558247117	1	main_z	11	main_z	83	stimuli_distractor_trianglediamonds.svg	stimuli_target_trianglecircles.svg	25	yes	44	1	580
6.6.1	mac	2022-12-19	21:50:25	22:00:57	629683	61f2ab70a09e72f23cbaf3b0	558247117	1	main_z	11	advance_on_keypress_ZEE	84	stimuli_distractor_trianglediamonds.svg	stimuli_target_trianglecircles.svg	25	yes	57	0	339
6.6.1	mac	2022-12-19	21:50:25	22:00:58	631002	61f2ab70a09e72f23cbaf3b0	558247117	1	main_z	11	main_z	85	stimuli_distractor_diamondtriangles.svg	stimuli_distractor_trianglediamonds.svg	37	no	44	0	350
6.6.1	mac	2022-12-19	21:50:25	22:00:58	631002	61f2ab70a09e72f23cbaf3b0	558247117	1	main_z	11	advance_on_keypress_ZEE	86	stimuli_distractor_diamondtriangles.svg	stimuli_distractor_trianglediamonds.svg	37	no	57	0	415
6.6.1	mac	2022-12-19	21:50:25	22:01:00	632799	61f2ab70a09e72f23cbaf3b0	558247117	1	main_z	11	main_z	87	stimuli_distractor_diamondtriangles.svg	stimuli_target_diamondsquares.svg	32	yes	44	1	746
6.6.1	mac	2022-12-19	21:50:25	22:01:00	632799	61f2ab70a09e72f23cbaf3b0	558247117	1	main_z	11	advance_on_keypress_ZEE	88	stimuli_distractor_diamondtriangles.svg	stimuli_target_diamondsquares.svg	32	yes	57	0	249
6.6.1	mac	2022-12-19	21:50:25	22:01:02	634342	61f2ab70a09e72f23cbaf3b0	558247117	1	main_z	11	main_z	89	stimuli_target_squaretriangles.svg	stimuli_distractor_trianglediamonds.svg	3	yes	44	1	656
6.6.1	mac	2022-12-19	21:50:25	22:01:02	634342	61f2ab70a09e72f23cbaf3b0	558247117	1	main_z	11	advance_on_keypress_ZEE	90	stimuli_target_squaretriangles.svg	stimuli_distractor_trianglediamonds.svg	3	yes	57	0	343
6.6.1	mac	2022-12-19	21:50:25	22:01:05	637318	61f2ab70a09e72f23cbaf3b0	558247117	1	main_z	11	main_z	91	stimuli_distractor_diamondtriangles.svg	stimuli_distractor_diamondtriangles.svg	39	no	0	1	2000
6.6.1	mac	2022-12-19	21:50:25	22:01:05	637318	61f2ab70a09e72f23cbaf3b0	558247117	1	main_z	11	advance_on_keypress_ZEE	92	stimuli_distractor_diamondtriangles.svg	stimuli_distractor_diamondtriangles.svg	39	no	57	0	884
6.6.1	mac	2022-12-19	21:50:25	22:01:07	639318	61f2ab70a09e72f23cbaf3b0	558247117	1	main_z	11	main_z	93	stimuli_target_squarediamonds.svg	stimuli_distractor_trianglediamonds.svg	4	yes	44	1	481
6.6.1	mac	2022-12-19	21:50:25	22:01:07	639318	61f2ab70a09e72f23cbaf3b0	558247117	1	main_z	11	advance_on_keypress_ZEE	94	stimuli_target_squarediamonds.svg	stimuli_distractor_trianglediamonds.svg	4	yes	57	0	831
6.6.1	mac	2022-12-19	21:50:25	22:01:09	641572	61f2ab70a09e72f23cbaf3b0	558247117	1	main_z	11	main_z	95	stimuli_target_circletriangles.svg	stimuli_distractor_diamondtriangles.svg	5	yes	44	1	785
6.6.1	mac	2022-12-19	21:50:25	22:01:09	641572	61f2ab70a09e72f23cbaf3b0	558247117	1	main_z	11	advance_on_keypress_ZEE	96	stimuli_target_circletriangles.svg	stimuli_distractor_diamondtriangles.svg	5	yes	57	0	494
6.6.1	mac	2022-12-19	21:50:25	22:01:10	643101	61f2ab70a09e72f23cbaf3b0	558247117	1	main_z	11	main_z	97	stimuli_distractor_diamondtriangles.svg	stimuli_target_circlediamonds.svg	14	yes	44	1	397
6.6.1	mac	2022-12-19	21:50:25	22:01:10	643101	61f2ab70a09e72f23cbaf3b0	558247117	1	main_z	11	advance_on_keypress_ZEE	98	stimuli_distractor_diamondtriangles.svg	stimuli_target_circlediamonds.svg	14	yes	57	0	345
6.6.1	mac	2022-12-19	21:50:25	22:01:12	644354	61f2ab70a09e72f23cbaf3b0	558247117	1	main_z	11	main_z	99	stimuli_target_trianglesquares.svg	stimuli_distractor_diamondtriangles.svg	22	yes	44	1	267
6.6.1	mac	2022-12-19	21:50:25	22:01:12	644354	61f2ab70a09e72f23cbaf3b0	558247117	1	main_z	11	advance_on_keypress_ZEE	100	stimuli_target_trianglesquares.svg	stimuli_distractor_diamondtriangles.svg	22	yes	57	0	431
6.6.1	mac	2022-12-19	21:50:25	22:01:13	645896	61f2ab70a09e72f23cbaf3b0	558247117	1	main_z	11	main_z	101	stimuli_distractor_diamondtriangles.svg	stimuli_target_diamondcircles.svg	31	yes	44	1	476
6.6.1	mac	2022-12-19	21:50:25	22:01:13	645896	61f2ab70a09e72f23cbaf3b0	558247117	1	main_z	11	advance_on_keypress_ZEE	102	stimuli_distractor_diamondtriangles.svg	stimuli_target_diamondcircles.svg	31	yes	57	0	348
6.6.1	mac	2022-12-19	21:50:25	22:01:15	647299	61f2ab70a09e72f23cbaf3b0	558247117	1	main_z	11	main_z	103	stimuli_distractor_diamondtriangles.svg	stimuli_target_squarediamonds.svg	16	yes	44	1	412
6.6.1	mac	2022-12-19	21:50:25	22:01:15	647299	61f2ab70a09e72f23cbaf3b0	558247117	1	main_z	11	advance_on_keypress_ZEE	104	stimuli_distractor_diamondtriangles.svg	stimuli_target_squarediamonds.svg	16	yes	57	0	400
6.6.1	mac	2022-12-19	21:50:25	22:01:16	648842	61f2ab70a09e72f23cbaf3b0	558247117	1	main_z	11	main_z	105	stimuli_distractor_trianglediamonds.svg	stimuli_target_squarediamonds.svg	12	yes	44	1	504
6.6.1	mac	2022-12-19	21:50:25	22:01:16	648842	61f2ab70a09e72f23cbaf3b0	558247117	1	main_z	11	advance_on_keypress_ZEE	106	stimuli_distractor_trianglediamonds.svg	stimuli_target_squarediamonds.svg	12	yes	57	0	322
6.6.1	mac	2022-12-19	21:50:25	22:01:19	651803	61f2ab70a09e72f23cbaf3b0	558247117	1	main_z	11	main_z	107	stimuli_target_diamondsquares.svg	stimuli_distractor_diamondtriangles.svg	24	yes	0	0	2000
6.6.1	mac	2022-12-19	21:50:25	22:01:19	651803	61f2ab70a09e72f23cbaf3b0	558247117	1	main_z	11	advance_on_keypress_ZEE	108	stimuli_target_diamondsquares.svg	stimuli_distractor_diamondtriangles.svg	24	yes	57	0	450
6.6.1	mac	2022-12-19	21:50:25	22:01:21	653312	61f2ab70a09e72f23cbaf3b0	558247117	1	main_z	11	main_z	109	stimuli_target_diamondcircles.svg	stimuli_distractor_trianglediamonds.svg	19	yes	44	1	424
6.6.1	mac	2022-12-19	21:50:25	22:01:21	653312	61f2ab70a09e72f23cbaf3b0	558247117	1	main_z	11	advance_on_keypress_ZEE	110	stimuli_target_diamondcircles.svg	stimuli_distractor_trianglediamonds.svg	19	yes	57	0	266
6.6.1	mac	2022-12-19	21:50:25	22:01:22	654698	61f2ab70a09e72f23cbaf3b0	558247117	1	main_z	11	main_z	111	stimuli_distractor_diamondtriangles.svg	stimuli_target_squaretriangles.svg	15	yes	44	1	477
6.6.1	mac	2022-12-19	21:50:25	22:01:22	654698	61f2ab70a09e72f23cbaf3b0	558247117	1	main_z	11	advance_on_keypress_ZEE	112	stimuli_distractor_diamondtriangles.svg	stimuli_target_squaretriangles.svg	15	yes	57	0	287
6.6.1	mac	2022-12-19	21:50:25	22:01:23	656030	61f2ab70a09e72f23cbaf3b0	558247117	1	main_z	11	main_z	113	stimuli_distractor_trianglediamonds.svg	stimuli_target_circletriangles.svg	9	yes	44	1	409
6.6.1	mac	2022-12-19	21:50:25	22:01:23	656030	61f2ab70a09e72f23cbaf3b0	558247117	1	main_z	11	advance_on_keypress_ZEE	114	stimuli_distractor_trianglediamonds.svg	stimuli_target_circletriangles.svg	9	yes	57	0	280
6.6.1	mac	2022-12-19	21:50:25	22:01:26	658953	61f2ab70a09e72f23cbaf3b0	558247117	1	main_z	11	main_z	115	stimuli_distractor_diamondtriangles.svg	stimuli_distractor_diamondtriangles.svg	40	no	0	1	2000
6.6.1	mac	2022-12-19	21:50:25	22:01:26	658953	61f2ab70a09e72f23cbaf3b0	558247117	1	main_z	11	advance_on_keypress_ZEE	116	stimuli_distractor_diamondtriangles.svg	stimuli_distractor_diamondtriangles.svg	40	no	57	0	377
6.6.1	mac	2022-12-19	21:50:25	22:01:28	660457	61f2ab70a09e72f23cbaf3b0	558247117	1	main_z	11	main_z	117	stimuli_distractor_trianglediamonds.svg	stimuli_target_squaretriangles.svg	11	yes	44	1	486
6.6.1	mac	2022-12-19	21:50:25	22:01:28	660457	61f2ab70a09e72f23cbaf3b0	558247117	1	main_z	11	advance_on_keypress_ZEE	118	stimuli_distractor_trianglediamonds.svg	stimuli_target_squaretriangles.svg	11	yes	57	0	374
6.6.1	mac	2022-12-19	21:50:25	22:01:29	661898	61f2ab70a09e72f23cbaf3b0	558247117	1	main_z	11	main_z	119	stimuli_target_squaretriangles.svg	stimuli_distractor_diamondtriangles.svg	7	yes	44	1	426
6.6.1	mac	2022-12-19	21:50:25	22:01:29	661898	61f2ab70a09e72f23cbaf3b0	558247117	1	main_z	11	advance_on_keypress_ZEE	120	stimuli_target_squaretriangles.svg	stimuli_distractor_diamondtriangles.svg	7	yes	57	0	376
6.6.1	mac	2022-12-19	21:50:25	22:01:31	663773	61f2ab70a09e72f23cbaf3b0	558247117	1	main_z	11	main_z	121	stimuli_target_diamondsquares.svg	stimuli_distractor_trianglediamonds.svg	20	yes	44	1	853
6.6.1	mac	2022-12-19	21:50:25	22:01:31	663773	61f2ab70a09e72f23cbaf3b0	558247117	1	main_z	11	advance_on_keypress_ZEE	122	stimuli_target_diamondsquares.svg	stimuli_distractor_trianglediamonds.svg	20	yes	57	0	216
6.6.1	mac	2022-12-19	21:50:25	22:01:33	665463	61f2ab70a09e72f23cbaf3b0	558247117	1	main_z	11	main_z	123	stimuli_target_diamondcircles.svg	stimuli_distractor_diamondtriangles.svg	23	yes	44	1	842
6.6.1	mac	2022-12-19	21:50:25	22:01:33	665463	61f2ab70a09e72f23cbaf3b0	558247117	1	main_z	11	advance_on_keypress_ZEE	124	stimuli_target_diamondcircles.svg	stimuli_distractor_diamondtriangles.svg	23	yes	57	0	252
6.6.1	mac	2022-12-19	21:50:25	22:01:36	668354	61f2ab70a09e72f23cbaf3b0	558247117	1	main_z	11	main_z	125	stimuli_distractor_trianglediamonds.svg	stimuli_distractor_diamondtriangles.svg	35	no	0	1	2000
6.6.1	mac	2022-12-19	21:50:25	22:01:36	668354	61f2ab70a09e72f23cbaf3b0	558247117	1	main_z	11	advance_on_keypress_ZEE	126	stimuli_distractor_trianglediamonds.svg	stimuli_distractor_diamondtriangles.svg	35	no	57	0	595
6.6.1	mac	2022-12-19	21:50:25	22:01:37	670061	61f2ab70a09e72f23cbaf3b0	558247117	1	main_z	11	main_z	127	stimuli_target_circlediamonds.svg	stimuli_distractor_trianglediamonds.svg	2	yes	44	1	472
6.6.1	mac	2022-12-19	21:50:25	22:01:37	670061	61f2ab70a09e72f23cbaf3b0	558247117	1	main_z	11	advance_on_keypress_ZEE	128	stimuli_target_circlediamonds.svg	stimuli_distractor_trianglediamonds.svg	2	yes	57	0	201
6.6.1	mac	2022-12-19	21:50:25	22:01:40	672887	61f2ab70a09e72f23cbaf3b0	558247117	1	main_z	11	main_z	129	stimuli_distractor_diamondtriangles.svg	stimuli_distractor_trianglediamonds.svg	38	no	0	1	2000
6.6.1	mac	2022-12-19	21:50:25	22:01:40	672887	61f2ab70a09e72f23cbaf3b0	558247117	1	main_z	11	advance_on_keypress_ZEE	130	stimuli_distractor_diamondtriangles.svg	stimuli_distractor_trianglediamonds.svg	38	no	57	0	659
6.6.1	mac	2022-12-19	21:50:25	22:01:42	674681	61f2ab70a09e72f23cbaf3b0	558247117	1	main_z	11	main_z	131	stimuli_target_circletriangles.svg	stimuli_distractor_trianglediamonds.svg	1	yes	44	1	492
6.6.1	mac	2022-12-19	21:50:25	22:01:42	674681	61f2ab70a09e72f23cbaf3b0	558247117	1	main_z	11	advance_on_keypress_ZEE	132	stimuli_target_circletriangles.svg	stimuli_distractor_trianglediamonds.svg	1	yes	57	0	230
6.6.1	mac	2022-12-19	21:50:25	22:01:45	677554	61f2ab70a09e72f23cbaf3b0	558247117	1	main_z	11	main_z	133	stimuli_distractor_trianglediamonds.svg	stimuli_distractor_trianglediamonds.svg	33	no	0	1	2000
6.6.1	mac	2022-12-19	21:50:25	22:01:45	677554	61f2ab70a09e72f23cbaf3b0	558247117	1	main_z	11	advance_on_keypress_ZEE	134	stimuli_distractor_trianglediamonds.svg	stimuli_distractor_trianglediamonds.svg	33	no	57	0	724
6.6.1	mac	2022-12-19	21:50:25	22:01:47	679655	61f2ab70a09e72f23cbaf3b0	558247117	1	main_z	11	main_z	135	stimuli_distractor_diamondtriangles.svg	stimuli_target_trianglesquares.svg	30	yes	44	1	732
6.6.1	mac	2022-12-19	21:50:25	22:01:47	679655	61f2ab70a09e72f23cbaf3b0	558247117	1	main_z	11	advance_on_keypress_ZEE	136	stimuli_distractor_diamondtriangles.svg	stimuli_target_trianglesquares.svg	30	yes	57	0	241
6.6.1	mac	2022-12-19	21:50:25	22:01:49	681325	61f2ab70a09e72f23cbaf3b0	558247117	1	main_z	11	main_z	137	stimuli_target_circlediamonds.svg	stimuli_distractor_diamondtriangles.svg	6	yes	44	1	786
6.6.1	mac	2022-12-19	21:50:25	22:01:49	681325	61f2ab70a09e72f23cbaf3b0	558247117	1	main_z	11	advance_on_keypress_ZEE	138	stimuli_target_circlediamonds.svg	stimuli_distractor_diamondtriangles.svg	6	yes	57	0	264
6.6.1	mac	2022-12-19	21:50:25	22:01:50	683036	61f2ab70a09e72f23cbaf3b0	558247117	1	main_z	11	main_z	139	stimuli_distractor_trianglediamonds.svg	stimuli_target_trianglesquares.svg	26	yes	44	1	813
6.6.1	mac	2022-12-19	21:50:25	22:01:50	683036	61f2ab70a09e72f23cbaf3b0	558247117	1	main_z	11	advance_on_keypress_ZEE	140	stimuli_distractor_trianglediamonds.svg	stimuli_target_trianglesquares.svg	26	yes	57	0	369
6.6.1	mac	2022-12-19	21:50:25	22:01:52	684521	61f2ab70a09e72f23cbaf3b0	558247117	1	main_z	11	main_z	141	stimuli_target_trianglesquares.svg	stimuli_distractor_trianglediamonds.svg	18	yes	44	1	481
6.6.1	mac	2022-12-19	21:50:25	22:01:52	684521	61f2ab70a09e72f23cbaf3b0	558247117	1	main_z	11	advance_on_keypress_ZEE	142	stimuli_target_trianglesquares.svg	stimuli_distractor_trianglediamonds.svg	18	yes	57	0	307
6.6.1	mac	2022-12-19	21:50:25	22:01:53	685979	61f2ab70a09e72f23cbaf3b0	558247117	1	main_z	11	main_z	143	stimuli_distractor_trianglediamonds.svg	stimuli_target_diamondcircles.svg	27	yes	44	1	505
6.6.1	mac	2022-12-19	21:50:25	22:01:53	685979	61f2ab70a09e72f23cbaf3b0	558247117	1	main_z	11	advance_on_keypress_ZEE	144	stimuli_distractor_trianglediamonds.svg	stimuli_target_diamondcircles.svg	27	yes	57	0	261
6.6.1	mac	2022-12-19	21:50:25	22:01:56	688888	61f2ab70a09e72f23cbaf3b0	558247117	1	main_z	11	main_z	145	stimuli_distractor_trianglediamonds.svg	stimuli_distractor_diamondtriangles.svg	36	no	0	1	2000
6.6.1	mac	2022-12-19	21:50:25	22:01:56	688888	61f2ab70a09e72f23cbaf3b0	558247117	1	main_z	11	advance_on_keypress_ZEE	146	stimuli_distractor_trianglediamonds.svg	stimuli_distractor_diamondtriangles.svg	36	no	57	0	322
6.6.1	mac	2022-12-19	21:50:25	22:01:58	690277	61f2ab70a09e72f23cbaf3b0	558247117	1	main_z	11	main_z	147	stimuli_target_trianglecircles.svg	stimuli_distractor_trianglediamonds.svg	17	yes	44	1	437
6.6.1	mac	2022-12-19	21:50:25	22:01:58	690277	61f2ab70a09e72f23cbaf3b0	558247117	1	main_z	11	advance_on_keypress_ZEE	148	stimuli_target_trianglecircles.svg	stimuli_distractor_trianglediamonds.svg	17	yes	57	0	634
6.6.1	mac	2022-12-19	21:50:25	22:01:59	692019	61f2ab70a09e72f23cbaf3b0	558247117	1	main_z	11	main_z	149	stimuli_distractor_diamondtriangles.svg	stimuli_target_trianglecircles.svg	29	yes	44	1	462
6.6.1	mac	2022-12-19	21:50:25	22:01:59	692019	61f2ab70a09e72f23cbaf3b0	558247117	1	main_z	11	advance_on_keypress_ZEE	150	stimuli_distractor_diamondtriangles.svg	stimuli_target_trianglecircles.svg	29	yes	57	0	435
6.6.1	mac	2022-12-19	21:50:25	22:02:01	693484	61f2ab70a09e72f23cbaf3b0	558247117	1	main_z	11	main_z	151	stimuli_target_trianglecircles.svg	stimuli_distractor_diamondtriangles.svg	21	yes	44	1	395
6.6.1	mac	2022-12-19	21:50:25	22:02:01	693484	61f2ab70a09e72f23cbaf3b0	558247117	1	main_z	11	advance_on_keypress_ZEE	152	stimuli_target_trianglecircles.svg	stimuli_distractor_diamondtriangles.svg	21	yes	57	0	334
6.6.1	mac	2022-12-19	21:50:25	22:02:04	696456	61f2ab70a09e72f23cbaf3b0	558247117	1	main_z	11	main_z	153	stimuli_distractor_trianglediamonds.svg	stimuli_distractor_trianglediamonds.svg	34	no	0	1	2000
6.6.1	mac	2022-12-19	21:50:25	22:02:04	696456	61f2ab70a09e72f23cbaf3b0	558247117	1	main_z	11	advance_on_keypress_ZEE	154	stimuli_distractor_trianglediamonds.svg	stimuli_distractor_trianglediamonds.svg	34	no	57	0	673
6.6.1	mac	2022-12-19	21:50:25	22:02:05	698126	61f2ab70a09e72f23cbaf3b0	558247117	1	main_z	11	main_z	155	stimuli_distractor_trianglediamonds.svg	stimuli_target_circlediamonds.svg	10	yes	44	1	368
6.6.1	mac	2022-12-19	21:50:25	22:02:05	698126	61f2ab70a09e72f23cbaf3b0	558247117	1	main_z	11	advance_on_keypress_ZEE	156	stimuli_distractor_trianglediamonds.svg	stimuli_target_circlediamonds.svg	10	yes	57	0	293
6.6.1	mac	2022-12-19	21:50:25	22:02:07	699546	61f2ab70a09e72f23cbaf3b0	558247117	1	main_z	11	main_z	157	stimuli_distractor_trianglediamonds.svg	stimuli_target_diamondsquares.svg	28	yes	44	1	489
6.6.1	mac	2022-12-19	21:50:25	22:02:07	699546	61f2ab70a09e72f23cbaf3b0	558247117	1	main_z	11	advance_on_keypress_ZEE	158	stimuli_distractor_trianglediamonds.svg	stimuli_target_diamondsquares.svg	28	yes	57	0	264
6.6.1	mac	2022-12-19	21:50:25	22:02:08	700854	61f2ab70a09e72f23cbaf3b0	558247117	1	main_z	11	main_z	159	stimuli_distractor_diamondtriangles.svg	stimuli_target_circletriangles.svg	13	yes	44	1	413
6.6.1	mac	2022-12-19	21:50:25	22:02:08	700854	61f2ab70a09e72f23cbaf3b0	558247117	1	main_z	11	advance_on_keypress_ZEE	160	stimuli_distractor_diamondtriangles.svg	stimuli_target_circletriangles.svg	13	yes	57	0	278