build	computer.platform	date	time	timestamp	time_elapsed_ms	subject	group	session	blockcode	blocknum	trialcode	trialnum	stimulus_left	stimulus_right	stim_index	target_present	response	correct	latency
6.6.1	win	2022-12-14	16:00:41	16:03:44	179971	59715b4b50e2f000016fe00e	522786543	1	practice_slash	5	practice_slash	1	stimuli_target_squarediamonds.svg	stimuli_distractor_diamondtriangles.svg	2	yes	53	1	343
6.6.1	win	2022-12-14	16:00:41	16:03:44	179971	59715b4b50e2f000016fe00e	522786543	1	practice_slash	5	advance_on_keypress_SLASH	2	stimuli_target_squarediamonds.svg	stimuli_distractor_diamondtriangles.svg	2	yes	57	0	288
6.6.1	win	2022-12-14	16:00:41	16:03:46	182203	59715b4b50e2f000016fe00e	522786543	1	practice_slash	5	practice_slash	3	stimuli_distractor_diamondtriangles.svg	stimuli_distractor_trianglediamonds.svg	14	no	53	0	275
6.6.1	win	2022-12-14	16:00:41	16:03:46	182203	59715b4b50e2f000016fe00e	522786543	1	practice_slash	5	advance_on_keypress_SLASH	4	stimuli_distractor_diamondtriangles.svg	stimuli_distractor_trianglediamonds.svg	14	no	57	0	312
6.6.1	win	2022-12-14	16:00:41	16:03:49	184796	59715b4b50e2f000016fe00e	522786543	1	practice_slash	5	practice_slash	5	stimuli_distractor_trianglediamonds.svg	stimuli_distractor_trianglediamonds.svg	15	no	53	0	618
6.6.1	win	2022-12-14	16:00:41	16:03:49	184796	59715b4b50e2f000016fe00e	522786543	1	practice_slash	5	advance_on_keypress_SLASH	6	stimuli_distractor_trianglediamonds.svg	stimuli_distractor_trianglediamonds.svg	15	no	57	0	425
6.6.1	win	2022-12-14	16:00:41	16:03:51	187387	59715b4b50e2f000016fe00e	522786543	1	practice_slash	5	practice_slash	7	stimuli_distractor_trianglediamonds.svg	stimuli_target_squarediamonds.svg	11	yes	53	1	527
6.6.1	win	2022-12-14	16:00:41	16:03:51	187387	59715b4b50e2f000016fe00e	522786543	1	practice_slash	5	advance_on_keypress_SLASH	8	stimuli_distractor_trianglediamonds.svg	stimuli_target_squarediamonds.svg	11	yes	57	0	201
6.6.1	win	2022-12-14	16:00:41	16:03:55	191244	59715b4b50e2f000016fe00e	522786543	1	practice_slash	5	practice_slash	9	stimuli_target_diamondsquares.svg	stimuli_distractor_diamondtriangles.svg	3	yes	0	0	2000
6.6.1	win	2022-12-14	16:00:41	16:03:55	191244	59715b4b50e2f000016fe00e	522786543	1	practice_slash	5	advance_on_keypress_SLASH	10	stimuli_target_diamondsquares.svg	stimuli_distractor_diamondtriangles.svg	3	yes	57	0	599
6.6.1	win	2022-12-14	16:00:41	16:03:58	194050	59715b4b50e2f000016fe00e	522786543	1	practice_slash	5	practice_slash	11	stimuli_distractor_diamondtriangles.svg	stimuli_target_trianglecircles.svg	9	yes	53	1	533
6.6.1	win	2022-12-14	16:00:41	16:03:58	194050	59715b4b50e2f000016fe00e	522786543	1	practice_slash	5	advance_on_keypress_SLASH	12	stimuli_distractor_diamondtriangles.svg	stimuli_target_trianglecircles.svg	9	yes	57	0	263
6.6.1	win	2022-12-14	16:00:41	16:04:00	196252	59715b4b50e2f000016fe00e	522786543	1	practice_slash	5	practice_slash	13	stimuli_target_circlediamonds.svg	stimuli_distractor_diamondtriangles.svg	1	yes	53	1	275
6.6.1	win	2022-12-14	16:00:41	16:04:00	196252	59715b4b50e2f000016fe00e	522786543	1	practice_slash	5	advance_on_keypress_SLASH	14	stimuli_target_circlediamonds.svg	stimuli_distractor_diamondtriangles.svg	1	yes	57	0	1455
6.6.1	win	2022-12-14	16:00:41	16:04:04	200059	59715b4b50e2f000016fe00e	522786543	1	practice_slash	5	practice_slash	15	stimuli_target_diamondsquares.svg	stimuli_distractor_trianglediamonds.svg	6	yes	53	1	676
6.6.1	win	2022-12-14	16:00:41	16:04:04	200059	59715b4b50e2f000016fe00e	522786543	1	practice_slash	5	advance_on_keypress_SLASH	16	stimuli_target_diamondsquares.svg	stimuli_distractor_trianglediamonds.svg	6	yes	57	0	919
6.6.1	win	2022-12-14	16:00:41	16:04:07	203428	59715b4b50e2f000016fe00e	522786543	1	practice_slash	5	practice_slash	17	stimuli_distractor_trianglediamonds.svg	stimuli_distractor_diamondtriangles.svg	16	no	53	0	778
6.6.1	win	2022-12-14	16:00:41	16:04:07	203428	59715b4b50e2f000016fe00e	522786543	1	practice_slash	5	advance_on_keypress_SLASH	18	stimuli_distractor_trianglediamonds.svg	stimuli_distractor_diamondtriangles.svg	16	no	57	0	2121
6.6.1	win	2022-12-14	16:00:41	16:04:12	207764	59715b4b50e2f000016fe00e	522786543	1	practice_slash	5	practice_slash	19	stimuli_target_circlediamonds.svg	stimuli_distractor_trianglediamonds.svg	4	yes	53	1	571
6.6.1	win	2022-12-14	16:00:41	16:04:12	207764	59715b4b50e2f000016fe00e	522786543	1	practice_slash	5	advance_on_keypress_SLASH	20	stimuli_target_circlediamonds.svg	stimuli_distractor_trianglediamonds.svg	4	yes	57	0	292
6.6.1	win	2022-12-14	16:00:41	16:04:15	211727	59715b4b50e2f000016fe00e	522786543	1	practice_slash	5	practice_slash	21	stimuli_distractor_trianglediamonds.svg	stimuli_target_diamondcircles.svg	12	yes	0	0	2000
6.6.1	win	2022-12-14	16:00:41	16:04:15	211727	59715b4b50e2f000016fe00e	522786543	1	practice_slash	5	advance_on_keypress_SLASH	22	stimuli_distractor_trianglediamonds.svg	stimuli_target_diamondcircles.svg	12	yes	57	0	1357
6.6.1	win	2022-12-14	16:00:41	16:04:19	215316	59715b4b50e2f000016fe00e	522786543	1	practice_slash	5	practice_slash	23	stimuli_distractor_trianglediamonds.svg	stimuli_target_circlediamonds.svg	10	yes	53	1	574
6.6.1	win	2022-12-14	16:00:41	16:04:19	215316	59715b4b50e2f000016fe00e	522786543	1	practice_slash	5	advance_on_keypress_SLASH	24	stimuli_distractor_trianglediamonds.svg	stimuli_target_circlediamonds.svg	10	yes	57	0	686
6.6.1	win	2022-12-14	16:00:41	16:04:22	217749	59715b4b50e2f000016fe00e	522786543	1	practice_slash	5	practice_slash	25	stimuli_distractor_diamondtriangles.svg	stimuli_target_diamondcircles.svg	8	yes	53	1	106
6.6.1	win	2022-12-14	16:00:41	16:04:22	217749	59715b4b50e2f000016fe00e	522786543	1	practice_slash	5	advance_on_keypress_SLASH	26	stimuli_distractor_diamondtriangles.svg	stimuli_target_diamondcircles.svg	8	yes	57	0	54
6.6.1	win	2022-12-14	16:00:41	16:04:23	219532	59715b4b50e2f000016fe00e	522786543	1	practice_slash	5	practice_slash	27	stimuli_distractor_diamondtriangles.svg	stimuli_distractor_diamondtriangles.svg	13	no	53	0	91
6.6.1	win	2022-12-14	16:00:41	16:04:23	219532	59715b4b50e2f000016fe00e	522786543	1	practice_slash	5	advance_on_keypress_SLASH	28	stimuli_distractor_diamondtriangles.svg	stimuli_distractor_diamondtriangles.svg	13	no	57	0	399
6.6.1	win	2022-12-14	16:00:41	16:04:26	222013	59715b4b50e2f000016fe00e	522786543	1	practice_slash	5	practice_slash	29	stimuli_distractor_diamondtriangles.svg	stimuli_target_circletriangles.svg	7	yes	53	1	437
6.6.1	win	2022-12-14	16:00:41	16:04:26	222013	59715b4b50e2f000016fe00e	522786543	1	practice_slash	5	advance_on_keypress_SLASH	30	stimuli_distractor_diamondtriangles.svg	stimuli_target_circletriangles.svg	7	yes	57	0	331
6.6.1	win	2022-12-14	16:00:41	16:04:30	225992	59715b4b50e2f000016fe00e	522786543	1	practice_slash	5	practice_slash	31	stimuli_target_squarediamonds.svg	stimuli_distractor_trianglediamonds.svg	5	yes	0	0	2000
6.6.1	win	2022-12-14	16:00:41	16:04:30	225992	59715b4b50e2f000016fe00e	522786543	1	practice_slash	5	advance_on_keypress_SLASH	32	stimuli_target_squarediamonds.svg	stimuli_distractor_trianglediamonds.svg	5	yes	57	0	220
6.6.1	win	2022-12-14	16:00:41	16:04:34	230154	59715b4b50e2f000016fe00e	522786543	1	main_slash	7	main_slash	1	stimuli_distractor_diamondtriangles.svg	stimuli_distractor_trianglediamonds.svg	38	no	53	0	515
6.6.1	win	2022-12-14	16:00:41	16:04:34	230154	59715b4b50e2f000016fe00e	522786543	1	main_slash	7	advance_on_keypress_SLASH	2	stimuli_distractor_diamondtriangles.svg	stimuli_distractor_trianglediamonds.svg	38	no	57	0	22
6.6.1	win	2022-12-14	16:00:41	16:04:35	231203	59715b4b50e2f000016fe00e	522786543	1	main_slash	7	main_slash	3	stimuli_distractor_diamondtriangles.svg	stimuli_target_squarediamonds.svg	16	yes	53	1	372
6.6.1	win	2022-12-14	16:00:41	16:04:35	231203	59715b4b50e2f000016fe00e	522786543	1	main_slash	7	advance_on_keypress_SLASH	4	stimuli_distractor_diamondtriangles.svg	stimuli_target_squarediamonds.svg	16	yes	57	0	1028
6.6.1	win	2022-12-14	16:00:41	16:04:39	234872	59715b4b50e2f000016fe00e	522786543	1	main_slash	7	main_slash	5	stimuli_distractor_diamondtriangles.svg	stimuli_distractor_diamondtriangles.svg	40	no	0	1	2000
6.6.1	win	2022-12-14	16:00:41	16:04:39	234872	59715b4b50e2f000016fe00e	522786543	1	main_slash	7	advance_on_keypress_SLASH	6	stimuli_distractor_diamondtriangles.svg	stimuli_distractor_diamondtriangles.svg	40	no	57	0	113
6.6.1	win	2022-12-14	16:00:41	16:04:41	237639	59715b4b50e2f000016fe00e	522786543	1	main_slash	7	main_slash	7	stimuli_target_diamondsquares.svg	stimuli_distractor_trianglediamonds.svg	20	yes	0	0	2000
6.6.1	win	2022-12-14	16:00:41	16:04:41	237639	59715b4b50e2f000016fe00e	522786543	1	main_slash	7	advance_on_keypress_SLASH	8	stimuli_target_diamondsquares.svg	stimuli_distractor_trianglediamonds.svg	20	yes	57	0	35
6.6.1	win	2022-12-14	16:00:41	16:04:43	238866	59715b4b50e2f000016fe00e	522786543	1	main_slash	7	main_slash	9	stimuli_distractor_diamondtriangles.svg	stimuli_target_circletriangles.svg	13	yes	53	1	544
6.6.1	win	2022-12-14	16:00:41	16:04:43	238866	59715b4b50e2f000016fe00e	522786543	1	main_slash	7	advance_on_keypress_SLASH	10	stimuli_distractor_diamondtriangles.svg	stimuli_target_circletriangles.svg	13	yes	57	0	434
6.6.1	win	2022-12-14	16:00:41	16:04:44	240053	59715b4b50e2f000016fe00e	522786543	1	main_slash	7	main_slash	11	stimuli_distractor_trianglediamonds.svg	stimuli_distractor_trianglediamonds.svg	33	no	53	0	96
6.6.1	win	2022-12-14	16:00:41	16:04:44	240053	59715b4b50e2f000016fe00e	522786543	1	main_slash	7	advance_on_keypress_SLASH	12	stimuli_distractor_trianglediamonds.svg	stimuli_distractor_trianglediamonds.svg	33	no	57	0	706
6.6.1	win	2022-12-14	16:00:41	16:04:46	242010	59715b4b50e2f000016fe00e	522786543	1	main_slash	7	main_slash	13	stimuli_distractor_diamondtriangles.svg	stimuli_target_circlediamonds.svg	14	yes	53	1	605
6.6.1	win	2022-12-14	16:00:41	16:04:46	242010	59715b4b50e2f000016fe00e	522786543	1	main_slash	7	advance_on_keypress_SLASH	14	stimuli_distractor_diamondtriangles.svg	stimuli_target_circlediamonds.svg	14	yes	57	0	1357
6.6.1	win	2022-12-14	16:00:41	16:04:49	244938	59715b4b50e2f000016fe00e	522786543	1	main_slash	7	main_slash	15	stimuli_target_squarediamonds.svg	stimuli_distractor_diamondtriangles.svg	8	yes	53	1	934
6.6.1	win	2022-12-14	16:00:41	16:04:49	244938	59715b4b50e2f000016fe00e	522786543	1	main_slash	7	advance_on_keypress_SLASH	16	stimuli_target_squarediamonds.svg	stimuli_distractor_diamondtriangles.svg	8	yes	57	0	24
6.6.1	win	2022-12-14	16:00:41	16:04:50	246555	59715b4b50e2f000016fe00e	522786543	1	main_slash	7	main_slash	17	stimuli_distractor_diamondtriangles.svg	stimuli_target_squaretriangles.svg	15	yes	53	1	950
6.6.1	win	2022-12-14	16:00:41	16:04:50	246555	59715b4b50e2f000016fe00e	522786543	1	main_slash	7	advance_on_keypress_SLASH	18	stimuli_distractor_diamondtriangles.svg	stimuli_target_squaretriangles.svg	15	yes	57	0	0
6.6.1	win	2022-12-14	16:00:41	16:04:52	248451	59715b4b50e2f000016fe00e	522786543	1	main_slash	7	main_slash	19	stimuli_distractor_trianglediamonds.svg	stimuli_distractor_diamondtriangles.svg	36	no	53	0	1230
6.6.1	win	2022-12-14	16:00:41	16:04:52	248451	59715b4b50e2f000016fe00e	522786543	1	main_slash	7	advance_on_keypress_SLASH	20	stimuli_distractor_trianglediamonds.svg	stimuli_distractor_diamondtriangles.svg	36	no	57	0	876
6.6.1	win	2022-12-14	16:00:41	16:04:55	251315	59715b4b50e2f000016fe00e	522786543	1	main_slash	7	main_slash	21	stimuli_target_trianglecircles.svg	stimuli_distractor_trianglediamonds.svg	17	yes	53	1	1344
6.6.1	win	2022-12-14	16:00:41	16:04:55	251315	59715b4b50e2f000016fe00e	522786543	1	main_slash	7	advance_on_keypress_SLASH	22	stimuli_target_trianglecircles.svg	stimuli_distractor_trianglediamonds.svg	17	yes	57	0	810
6.6.1	win	2022-12-14	16:00:41	16:04:58	253811	59715b4b50e2f000016fe00e	522786543	1	main_slash	7	main_slash	23	stimuli_distractor_trianglediamonds.svg	stimuli_target_diamondcircles.svg	27	yes	53	1	1057
6.6.1	win	2022-12-14	16:00:41	16:04:58	253811	59715b4b50e2f000016fe00e	522786543	1	main_slash	7	advance_on_keypress_SLASH	24	stimuli_distractor_trianglediamonds.svg	stimuli_target_diamondcircles.svg	27	yes	57	0	0
6.6.1	win	2022-12-14	16:00:41	16:04:58	254523	59715b4b50e2f000016fe00e	522786543	1	main_slash	7	main_slash	25	stimuli_target_diamondcircles.svg	stimuli_distractor_trianglediamonds.svg	19	yes	53	1	52
6.6.1	win	2022-12-14	16:00:41	16:04:58	254523	59715b4b50e2f000016fe00e	522786543	1	main_slash	7	advance_on_keypress_SLASH	26	stimuli_target_diamondcircles.svg	stimuli_distractor_trianglediamonds.svg	19	yes	57	0	458
6.6.1	win	2022-12-14	16:00:41	16:04:59	255627	59715b4b50e2f000016fe00e	522786543	1	main_slash	7	main_slash	27	stimuli_target_diamondsquares.svg	stimuli_distractor_diamondtriangles.svg	24	yes	53	1	6
6.6.1	win	2022-12-14	16:00:41	16:04:59	255627	59715b4b50e2f000016fe00e	522786543	1	main_slash	7	advance_on_keypress_SLASH	28	stimuli_target_diamondsquares.svg	stimuli_distractor_diamondtriangles.svg	24	yes	57	0	1782
6.6.1	win	2022-12-14	16:00:41	16:05:04	259971	59715b4b50e2f000016fe00e	522786543	1	main_slash	7	main_slash	29	stimuli_distractor_diamondtriangles.svg	stimuli_target_trianglecircles.svg	29	yes	53	1	1917
6.6.1	win	2022-12-14	16:00:41	16:05:04	259971	59715b4b50e2f000016fe00e	522786543	1	main_slash	7	advance_on_keypress_SLASH	30	stimuli_distractor_diamondtriangles.svg	stimuli_target_trianglecircles.svg	29	yes	57	0	88
6.6.1	win	2022-12-14	16:00:41	16:05:05	260771	59715b4b50e2f000016fe00e	522786543	1	main_slash	7	main_slash	31	stimuli_distractor_diamondtriangles.svg	stimuli_distractor_trianglediamonds.svg	37	no	53	0	67
6.6.1	win	2022-12-14	16:00:41	16:05:05	260771	59715b4b50e2f000016fe00e	522786543	1	main_slash	7	advance_on_keypress_SLASH	32	stimuli_distractor_diamondtriangles.svg	stimuli_distractor_trianglediamonds.svg	37	no	57	0	112
6.6.1	win	2022-12-14	16:00:41	16:05:05	261587	59715b4b50e2f000016fe00e	522786543	1	main_slash	7	main_slash	33	stimuli_distractor_diamondtriangles.svg	stimuli_target_trianglesquares.svg	30	yes	53	1	50
6.6.1	win	2022-12-14	16:00:41	16:05:05	261587	59715b4b50e2f000016fe00e	522786543	1	main_slash	7	advance_on_keypress_SLASH	34	stimuli_distractor_diamondtriangles.svg	stimuli_target_trianglesquares.svg	30	yes	57	0	87
6.6.1	win	2022-12-14	16:00:41	16:05:06	262339	59715b4b50e2f000016fe00e	522786543	1	main_slash	7	main_slash	35	stimuli_target_trianglesquares.svg	stimuli_distractor_diamondtriangles.svg	22	yes	53	1	19
6.6.1	win	2022-12-14	16:00:41	16:05:06	262339	59715b4b50e2f000016fe00e	522786543	1	main_slash	7	advance_on_keypress_SLASH	36	stimuli_target_trianglesquares.svg	stimuli_distractor_diamondtriangles.svg	22	yes	57	0	113
6.6.1	win	2022-12-14	16:00:41	16:05:07	263299	59715b4b50e2f000016fe00e	522786543	1	main_slash	7	main_slash	37	stimuli_distractor_trianglediamonds.svg	stimuli_target_squaretriangles.svg	11	yes	53	1	195
6.6.1	win	2022-12-14	16:00:41	16:05:07	263299	59715b4b50e2f000016fe00e	522786543	1	main_slash	7	advance_on_keypress_SLASH	38	stimuli_distractor_trianglediamonds.svg	stimuli_target_squaretriangles.svg	11	yes	57	0	114
6.6.1	win	2022-12-14	16:00:41	16:05:08	264251	59715b4b50e2f000016fe00e	522786543	1	main_slash	7	main_slash	39	stimuli_target_circlediamonds.svg	stimuli_distractor_diamondtriangles.svg	6	yes	53	1	181
6.6.1	win	2022-12-14	16:00:41	16:05:08	264251	59715b4b50e2f000016fe00e	522786543	1	main_slash	7	advance_on_keypress_SLASH	40	stimuli_target_circlediamonds.svg	stimuli_distractor_diamondtriangles.svg	6	yes	57	0	92
6.6.1	win	2022-12-14	16:00:41	16:05:09	265683	59715b4b50e2f000016fe00e	522786543	1	main_slash	7	main_slash	41	stimuli_distractor_trianglediamonds.svg	stimuli_target_diamondsquares.svg	28	yes	53	1	696
6.6.1	win	2022-12-14	16:00:41	16:05:09	265683	59715b4b50e2f000016fe00e	522786543	1	main_slash	7	advance_on_keypress_SLASH	42	stimuli_distractor_trianglediamonds.svg	stimuli_target_diamondsquares.svg	28	yes	57	0	99
6.6.1	win	2022-12-14	16:00:41	16:05:10	266619	59715b4b50e2f000016fe00e	522786543	1	main_slash	7	main_slash	43	stimuli_target_circletriangles.svg	stimuli_distractor_diamondtriangles.svg	5	yes	53	1	182
6.6.1	win	2022-12-14	16:00:41	16:05:10	266619	59715b4b50e2f000016fe00e	522786543	1	main_slash	7	advance_on_keypress_SLASH	44	stimuli_target_circletriangles.svg	stimuli_distractor_diamondtriangles.svg	5	yes	57	0	94
6.6.1	win	2022-12-14	16:00:41	16:05:11	267523	59715b4b50e2f000016fe00e	522786543	1	main_slash	7	main_slash	45	stimuli_target_squarediamonds.svg	stimuli_distractor_trianglediamonds.svg	4	yes	53	1	169
6.6.1	win	2022-12-14	16:00:41	16:05:11	267523	59715b4b50e2f000016fe00e	522786543	1	main_slash	7	advance_on_keypress_SLASH	46	stimuli_target_squarediamonds.svg	stimuli_distractor_trianglediamonds.svg	4	yes	57	0	114
6.6.1	win	2022-12-14	16:00:41	16:05:12	268451	59715b4b50e2f000016fe00e	522786543	1	main_slash	7	main_slash	47	stimuli_distractor_diamondtriangles.svg	stimuli_target_diamondsquares.svg	32	yes	53	1	164
6.6.1	win	2022-12-14	16:00:41	16:05:12	268451	59715b4b50e2f000016fe00e	522786543	1	main_slash	7	advance_on_keypress_SLASH	48	stimuli_distractor_diamondtriangles.svg	stimuli_target_diamondsquares.svg	32	yes	57	0	93
6.6.1	win	2022-12-14	16:00:41	16:05:13	269355	59715b4b50e2f000016fe00e	522786543	1	main_slash	7	main_slash	49	stimuli_target_trianglesquares.svg	stimuli_distractor_trianglediamonds.svg	18	yes	53	1	168
6.6.1	win	2022-12-14	16:00:41	16:05:13	269355	59715b4b50e2f000016fe00e	522786543	1	main_slash	7	advance_on_keypress_SLASH	50	stimuli_target_trianglesquares.svg	stimuli_distractor_trianglediamonds.svg	18	yes	57	0	81
6.6.1	win	2022-12-14	16:00:41	16:05:14	270227	59715b4b50e2f000016fe00e	522786543	1	main_slash	7	main_slash	51	stimuli_target_circletriangles.svg	stimuli_distractor_trianglediamonds.svg	1	yes	53	1	140
6.6.1	win	2022-12-14	16:00:41	16:05:14	270227	59715b4b50e2f000016fe00e	522786543	1	main_slash	7	advance_on_keypress_SLASH	52	stimuli_target_circletriangles.svg	stimuli_distractor_trianglediamonds.svg	1	yes	57	0	142
6.6.1	win	2022-12-14	16:00:41	16:05:15	271091	59715b4b50e2f000016fe00e	522786543	1	main_slash	7	main_slash	53	stimuli_distractor_trianglediamonds.svg	stimuli_target_trianglecircles.svg	25	yes	53	1	87
6.6.1	win	2022-12-14	16:00:41	16:05:15	271091	59715b4b50e2f000016fe00e	522786543	1	main_slash	7	advance_on_keypress_SLASH	54	stimuli_distractor_trianglediamonds.svg	stimuli_target_trianglecircles.svg	25	yes	57	0	20
6.6.1	win	2022-12-14	16:00:41	16:05:16	271803	59715b4b50e2f000016fe00e	522786543	1	main_slash	7	main_slash	55	stimuli_target_diamondcircles.svg	stimuli_distractor_diamondtriangles.svg	23	yes	53	1	50
6.6.1	win	2022-12-14	16:00:41	16:05:16	271803	59715b4b50e2f000016fe00e	522786543	1	main_slash	7	advance_on_keypress_SLASH	56	stimuli_target_diamondcircles.svg	stimuli_distractor_diamondtriangles.svg	23	yes	57	0	15
6.6.1	win	2022-12-14	16:00:41	16:05:16	272523	59715b4b50e2f000016fe00e	522786543	1	main_slash	7	main_slash	57	stimuli_distractor_trianglediamonds.svg	stimuli_target_squarediamonds.svg	12	yes	53	1	54
6.6.1	win	2022-12-14	16:00:41	16:05:16	272523	59715b4b50e2f000016fe00e	522786543	1	main_slash	7	advance_on_keypress_SLASH	58	stimuli_distractor_trianglediamonds.svg	stimuli_target_squarediamonds.svg	12	yes	57	0	4
6.6.1	win	2022-12-14	16:00:41	16:05:17	273235	59715b4b50e2f000016fe00e	522786543	1	main_slash	7	main_slash	59	stimuli_distractor_trianglediamonds.svg	stimuli_target_trianglesquares.svg	26	yes	53	1	49
6.6.1	win	2022-12-14	16:00:41	16:05:17	273235	59715b4b50e2f000016fe00e	522786543	1	main_slash	7	advance_on_keypress_SLASH	60	stimuli_distractor_trianglediamonds.svg	stimuli_target_trianglesquares.svg	26	yes	57	0	14
6.6.1	win	2022-12-14	16:00:41	16:05:18	273947	59715b4b50e2f000016fe00e	522786543	1	main_slash	7	main_slash	61	stimuli_target_squaretriangles.svg	stimuli_distractor_diamondtriangles.svg	7	yes	53	1	45
6.6.1	win	2022-12-14	16:00:41	16:05:18	273947	59715b4b50e2f000016fe00e	522786543	1	main_slash	7	advance_on_keypress_SLASH	62	stimuli_target_squaretriangles.svg	stimuli_distractor_diamondtriangles.svg	7	yes	57	0	19
6.6.1	win	2022-12-14	16:00:41	16:05:19	274803	59715b4b50e2f000016fe00e	522786543	1	main_slash	7	main_slash	63	stimuli_distractor_trianglediamonds.svg	stimuli_target_circlediamonds.svg	10	yes	53	1	184
6.6.1	win	2022-12-14	16:00:41	16:05:19	274803	59715b4b50e2f000016fe00e	522786543	1	main_slash	7	advance_on_keypress_SLASH	64	stimuli_distractor_trianglediamonds.svg	stimuli_target_circlediamonds.svg	10	yes	57	0	72
6.6.1	win	2022-12-14	16:00:41	16:05:19	275635	59715b4b50e2f000016fe00e	522786543	1	main_slash	7	main_slash	65	stimuli_target_squaretriangles.svg	stimuli_distractor_trianglediamonds.svg	3	yes	53	1	116
6.6.1	win	2022-12-14	16:00:41	16:05:19	275635	59715b4b50e2f000016fe00e	522786543	1	main_slash	7	advance_on_keypress_SLASH	66	stimuli_target_squaretriangles.svg	stimuli_distractor_trianglediamonds.svg	3	yes	57	0	119
6.6.1	win	2022-12-14	16:00:41	16:05:20	276483	59715b4b50e2f000016fe00e	522786543	1	main_slash	7	main_slash	67	stimuli_distractor_trianglediamonds.svg	stimuli_distractor_trianglediamonds.svg	34	no	53	0	81
6.6.1	win	2022-12-14	16:00:41	16:05:20	276483	59715b4b50e2f000016fe00e	522786543	1	main_slash	7	advance_on_keypress_SLASH	68	stimuli_distractor_trianglediamonds.svg	stimuli_distractor_trianglediamonds.svg	34	no	57	0	0
6.6.1	win	2022-12-14	16:00:41	16:05:21	277163	59715b4b50e2f000016fe00e	522786543	1	main_slash	7	main_slash	69	stimuli_distractor_diamondtriangles.svg	stimuli_target_diamondcircles.svg	31	yes	53	1	11
6.6.1	win	2022-12-14	16:00:41	16:05:21	277163	59715b4b50e2f000016fe00e	522786543	1	main_slash	7	advance_on_keypress_SLASH	70	stimuli_distractor_diamondtriangles.svg	stimuli_target_diamondcircles.svg	31	yes	57	0	18
6.6.1	win	2022-12-14	16:00:41	16:05:22	277987	59715b4b50e2f000016fe00e	522786543	1	main_slash	7	main_slash	71	stimuli_distractor_trianglediamonds.svg	stimuli_target_circletriangles.svg	9	yes	53	1	152
6.6.1	win	2022-12-14	16:00:41	16:05:22	277987	59715b4b50e2f000016fe00e	522786543	1	main_slash	7	advance_on_keypress_SLASH	72	stimuli_distractor_trianglediamonds.svg	stimuli_target_circletriangles.svg	9	yes	57	0	89
6.6.1	win	2022-12-14	16:00:41	16:05:23	278827	59715b4b50e2f000016fe00e	522786543	1	main_slash	7	main_slash	73	stimuli_target_trianglecircles.svg	stimuli_distractor_diamondtriangles.svg	21	yes	53	1	108
6.6.1	win	2022-12-14	16:00:41	16:05:23	278827	59715b4b50e2f000016fe00e	522786543	1	main_slash	7	advance_on_keypress_SLASH	74	stimuli_target_trianglecircles.svg	stimuli_distractor_diamondtriangles.svg	21	yes	57	0	152
6.6.1	win	2022-12-14	16:00:41	16:05:23	279684	59715b4b50e2f000016fe00e	522786543	1	main_slash	7	main_slash	75	stimuli_target_circlediamonds.svg	stimuli_distractor_trianglediamonds.svg	2	yes	53	1	65
6.6.1	win	2022-12-14	16:00:41	16:05:23	279684	59715b4b50e2f000016fe00e	522786543	1	main_slash	7	advance_on_keypress_SLASH	76	stimuli_target_circlediamonds.svg	stimuli_distractor_trianglediamonds.svg	2	yes	57	0	0
6.6.1	win	2022-12-14	16:00:41	16:05:24	280356	59715b4b50e2f000016fe00e	522786543	1	main_slash	7	main_slash	77	stimuli_distractor_trianglediamonds.svg	stimuli_distractor_diamondtriangles.svg	35	no	53	0	3
6.6.1	win	2022-12-14	16:00:41	16:05:24	280356	59715b4b50e2f000016fe00e	522786543	1	main_slash	7	advance_on_keypress_SLASH	78	stimuli_distractor_trianglediamonds.svg	stimuli_distractor_diamondtriangles.svg	35	no	57	0	19
6.6.1	win	2022-12-14	16:00:41	16:05:25	281064	59715b4b50e2f000016fe00e	522786543	1	main_slash	7	main_slash	79	stimuli_distractor_diamondtriangles.svg	stimuli_distractor_diamondtriangles.svg	39	no	53	0	41
6.6.1	win	2022-12-14	16:00:41	16:05:25	281064	59715b4b50e2f000016fe00e	522786543	1	main_slash	7	advance_on_keypress_SLASH	80	stimuli_distractor_diamondtriangles.svg	stimuli_distractor_diamondtriangles.svg	39	no	57	0	23
6.6.1	win	2022-12-14	16:00:41	16:05:26	281755	59715b4b50e2f000016fe00e	522786543	1	main_slash	7	main_slash	81	stimuli_distractor_diamondtriangles.svg	stimuli_distractor_diamondtriangles.svg	40	no	53	0	20
6.6.1	win	2022-12-14	16:00:41	16:05:26	281755	59715b4b50e2f000016fe00e	522786543	1	main_slash	7	advance_on_keypress_SLASH	82	stimuli_distractor_diamondtriangles.svg	stimuli_distractor_diamondtriangles.svg	40	no	57	0	27
6.6.1	win	2022-12-14	16:00:41	16:05:26	282451	59715b4b50e2f000016fe00e	522786543	1	main_slash	7	main_slash	83	stimuli_distractor_diamondtriangles.svg	stimuli_target_squaretriangles.svg	15	yes	53	1	33
6.6.1	win	2022-12-14	16:00:41	16:05:26	282451	59715b4b50e2f000016fe00e	522786543	1	main_slash	7	advance_on_keypress_SLASH	84	stimuli_distractor_diamondtriangles.svg	stimuli_target_squaretriangles.svg	15	yes	57	0	39
6.6.1	win	2022-12-14	16:00:41	16:05:27	283155	59715b4b50e2f000016fe00e	522786543	1	main_slash	7	main_slash	85	stimuli_distractor_diamondtriangles.svg	stimuli_target_trianglesquares.svg	30	yes	53	1	20
6.6.1	win	2022-12-14	16:00:41	16:05:27	283155	59715b4b50e2f000016fe00e	522786543	1	main_slash	7	advance_on_keypress_SLASH	86	stimuli_distractor_diamondtriangles.svg	stimuli_target_trianglesquares.svg	30	yes	57	0	4
6.6.1	win	2022-12-14	16:00:41	16:05:28	283860	59715b4b50e2f000016fe00e	522786543	1	main_slash	7	main_slash	87	stimuli_distractor_trianglediamonds.svg	stimuli_target_trianglesquares.svg	26	yes	53	1	41
6.6.1	win	2022-12-14	16:00:41	16:05:28	283860	59715b4b50e2f000016fe00e	522786543	1	main_slash	7	advance_on_keypress_SLASH	88	stimuli_distractor_trianglediamonds.svg	stimuli_target_trianglesquares.svg	26	yes	57	0	19
6.6.1	win	2022-12-14	16:00:41	16:05:28	284564	59715b4b50e2f000016fe00e	522786543	1	main_slash	7	main_slash	89	stimuli_distractor_trianglediamonds.svg	stimuli_target_trianglecircles.svg	25	yes	53	1	28
6.6.1	win	2022-12-14	16:00:41	16:05:28	284564	59715b4b50e2f000016fe00e	522786543	1	main_slash	7	advance_on_keypress_SLASH	90	stimuli_distractor_trianglediamonds.svg	stimuli_target_trianglecircles.svg	25	yes	57	0	19
6.6.1	win	2022-12-14	16:00:41	16:05:29	285284	59715b4b50e2f000016fe00e	522786543	1	main_slash	7	main_slash	91	stimuli_target_trianglesquares.svg	stimuli_distractor_trianglediamonds.svg	18	yes	53	1	48
6.6.1	win	2022-12-14	16:00:41	16:05:29	285284	59715b4b50e2f000016fe00e	522786543	1	main_slash	7	advance_on_keypress_SLASH	92	stimuli_target_trianglesquares.svg	stimuli_distractor_trianglediamonds.svg	18	yes	57	0	14
6.6.1	win	2022-12-14	16:00:41	16:05:30	285972	59715b4b50e2f000016fe00e	522786543	1	main_slash	7	main_slash	93	stimuli_distractor_trianglediamonds.svg	stimuli_target_circletriangles.svg	9	yes	53	1	20
6.6.1	win	2022-12-14	16:00:41	16:05:30	285972	59715b4b50e2f000016fe00e	522786543	1	main_slash	7	advance_on_keypress_SLASH	94	stimuli_distractor_trianglediamonds.svg	stimuli_target_circletriangles.svg	9	yes	57	0	58
6.6.1	win	2022-12-14	16:00:41	16:05:31	286828	59715b4b50e2f000016fe00e	522786543	1	main_slash	7	main_slash	95	stimuli_distractor_diamondtriangles.svg	stimuli_target_circletriangles.svg	13	yes	53	1	159
6.6.1	win	2022-12-14	16:00:41	16:05:31	286828	59715b4b50e2f000016fe00e	522786543	1	main_slash	7	advance_on_keypress_SLASH	96	stimuli_distractor_diamondtriangles.svg	stimuli_target_circletriangles.svg	13	yes	57	0	136
6.6.1	win	2022-12-14	16:00:41	16:05:31	287684	59715b4b50e2f000016fe00e	522786543	1	main_slash	7	main_slash	97	stimuli_distractor_trianglediamonds.svg	stimuli_distractor_diamondtriangles.svg	35	no	53	0	82
6.6.1	win	2022-12-14	16:00:41	16:05:31	287684	59715b4b50e2f000016fe00e	522786543	1	main_slash	7	advance_on_keypress_SLASH	98	stimuli_distractor_trianglediamonds.svg	stimuli_distractor_diamondtriangles.svg	35	no	57	0	6
6.6.1	win	2022-12-14	16:00:41	16:05:32	288380	59715b4b50e2f000016fe00e	522786543	1	main_slash	7	main_slash	99	stimuli_target_diamondcircles.svg	stimuli_distractor_diamondtriangles.svg	23	yes	53	1	28
6.6.1	win	2022-12-14	16:00:41	16:05:32	288380	59715b4b50e2f000016fe00e	522786543	1	main_slash	7	advance_on_keypress_SLASH	100	stimuli_target_diamondcircles.svg	stimuli_distractor_diamondtriangles.svg	23	yes	57	0	18
6.6.1	win	2022-12-14	16:00:41	16:05:33	289076	59715b4b50e2f000016fe00e	522786543	1	main_slash	7	main_slash	101	stimuli_target_trianglecircles.svg	stimuli_distractor_trianglediamonds.svg	17	yes	53	1	22
6.6.1	win	2022-12-14	16:00:41	16:05:33	289076	59715b4b50e2f000016fe00e	522786543	1	main_slash	7	advance_on_keypress_SLASH	102	stimuli_target_trianglecircles.svg	stimuli_distractor_trianglediamonds.svg	17	yes	57	0	0
6.6.1	win	2022-12-14	16:00:41	16:05:34	289764	59715b4b50e2f000016fe00e	522786543	1	main_slash	7	main_slash	103	stimuli_distractor_diamondtriangles.svg	stimuli_target_circlediamonds.svg	14	yes	53	1	28
6.6.1	win	2022-12-14	16:00:41	16:05:34	289764	59715b4b50e2f000016fe00e	522786543	1	main_slash	7	advance_on_keypress_SLASH	104	stimuli_distractor_diamondtriangles.svg	stimuli_target_circlediamonds.svg	14	yes	57	0	0
6.6.1	win	2022-12-14	16:00:41	16:05:34	290467	59715b4b50e2f000016fe00e	522786543	1	main_slash	7	main_slash	105	stimuli_target_diamondsquares.svg	stimuli_distractor_trianglediamonds.svg	20	yes	53	1	32
6.6.1	win	2022-12-14	16:00:41	16:05:34	290467	59715b4b50e2f000016fe00e	522786543	1	main_slash	7	advance_on_keypress_SLASH	106	stimuli_target_diamondsquares.svg	stimuli_distractor_trianglediamonds.svg	20	yes	57	0	118
6.6.1	win	2022-12-14	16:00:41	16:05:35	291308	59715b4b50e2f000016fe00e	522786543	1	main_slash	7	main_slash	107	stimuli_target_diamondsquares.svg	stimuli_distractor_diamondtriangles.svg	24	yes	53	1	72
6.6.1	win	2022-12-14	16:00:41	16:05:35	291308	59715b4b50e2f000016fe00e	522786543	1	main_slash	7	advance_on_keypress_SLASH	108	stimuli_target_diamondsquares.svg	stimuli_distractor_diamondtriangles.svg	24	yes	57	0	13
6.6.1	win	2022-12-14	16:00:41	16:05:36	292012	59715b4b50e2f000016fe00e	522786543	1	main_slash	7	main_slash	109	stimuli_distractor_diamondtriangles.svg	stimuli_target_squarediamonds.svg	16	yes	53	1	43
6.6.1	win	2022-12-14	16:00:41	16:05:36	292012	59715b4b50e2f000016fe00e	522786543	1	main_slash	7	advance_on_keypress_SLASH	110	stimuli_distractor_diamondtriangles.svg	stimuli_target_squarediamonds.svg	16	yes	57	0	19
6.6.1	win	2022-12-14	16:00:41	16:05:36	292732	59715b4b50e2f000016fe00e	522786543	1	main_slash	7	main_slash	111	stimuli_target_squaretriangles.svg	stimuli_distractor_trianglediamonds.svg	3	yes	53	1	46
6.6.1	win	2022-12-14	16:00:41	16:05:36	292732	59715b4b50e2f000016fe00e	522786543	1	main_slash	7	advance_on_keypress_SLASH	112	stimuli_target_squaretriangles.svg	stimuli_distractor_trianglediamonds.svg	3	yes	57	0	116
6.6.1	win	2022-12-14	16:00:41	16:05:37	293638	59715b4b50e2f000016fe00e	522786543	1	main_slash	7	main_slash	113	stimuli_distractor_diamondtriangles.svg	stimuli_target_diamondsquares.svg	32	yes	53	1	134
6.6.1	win	2022-12-14	16:00:41	16:05:37	293638	59715b4b50e2f000016fe00e	522786543	1	main_slash	7	advance_on_keypress_SLASH	114	stimuli_distractor_diamondtriangles.svg	stimuli_target_diamondsquares.svg	32	yes	57	0	160
6.6.1	win	2022-12-14	16:00:41	16:05:38	294508	59715b4b50e2f000016fe00e	522786543	1	main_slash	7	main_slash	115	stimuli_distractor_trianglediamonds.svg	stimuli_distractor_trianglediamonds.svg	33	no	53	0	73
6.6.1	win	2022-12-14	16:00:41	16:05:38	294508	59715b4b50e2f000016fe00e	522786543	1	main_slash	7	advance_on_keypress_SLASH	116	stimuli_distractor_trianglediamonds.svg	stimuli_distractor_trianglediamonds.svg	33	no	57	0	165
6.6.1	win	2022-12-14	16:00:41	16:05:39	295412	59715b4b50e2f000016fe00e	522786543	1	main_slash	7	main_slash	117	stimuli_target_trianglecircles.svg	stimuli_distractor_diamondtriangles.svg	21	yes	53	1	93
6.6.1	win	2022-12-14	16:00:41	16:05:39	295412	59715b4b50e2f000016fe00e	522786543	1	main_slash	7	advance_on_keypress_SLASH	118	stimuli_target_trianglecircles.svg	stimuli_distractor_diamondtriangles.svg	21	yes	57	0	145
6.6.1	win	2022-12-14	16:00:41	16:05:40	296292	59715b4b50e2f000016fe00e	522786543	1	main_slash	7	main_slash	119	stimuli_distractor_trianglediamonds.svg	stimuli_target_diamondsquares.svg	28	yes	53	1	90
6.6.1	win	2022-12-14	16:00:41	16:05:40	296292	59715b4b50e2f000016fe00e	522786543	1	main_slash	7	advance_on_keypress_SLASH	120	stimuli_distractor_trianglediamonds.svg	stimuli_target_diamondsquares.svg	28	yes	57	0	142
6.6.1	win	2022-12-14	16:00:41	16:05:41	297164	59715b4b50e2f000016fe00e	522786543	1	main_slash	7	main_slash	121	stimuli_target_circletriangles.svg	stimuli_distractor_trianglediamonds.svg	1	yes	53	1	95
6.6.1	win	2022-12-14	16:00:41	16:05:41	297164	59715b4b50e2f000016fe00e	522786543	1	main_slash	7	advance_on_keypress_SLASH	122	stimuli_target_circletriangles.svg	stimuli_distractor_trianglediamonds.svg	1	yes	57	0	123
6.6.1	win	2022-12-14	16:00:41	16:05:42	298038	59715b4b50e2f000016fe00e	522786543	1	main_slash	7	main_slash	123	stimuli_distractor_trianglediamonds.svg	stimuli_distractor_trianglediamonds.svg	34	no	53	0	102
6.6.1	win	2022-12-14	16:00:41	16:05:42	298038	59715b4b50e2f000016fe00e	522786543	1	main_slash	7	advance_on_keypress_SLASH	124	stimuli_distractor_trianglediamonds.svg	stimuli_distractor_trianglediamonds.svg	34	no	57	0	144
6.6.1	win	2022-12-14	16:00:41	16:05:43	298892	59715b4b50e2f000016fe00e	522786543	1	main_slash	7	main_slash	125	stimuli_distractor_trianglediamonds.svg	stimuli_distractor_diamondtriangles.svg	36	no	53	0	74
6.6.1	win	2022-12-14	16:00:41	16:05:43	298892	59715b4b50e2f000016fe00e	522786543	1	main_slash	7	advance_on_keypress_SLASH	126	stimuli_distractor_trianglediamonds.svg	stimuli_distractor_diamondtriangles.svg	36	no	57	0	18
6.6.1	win	2022-12-14	16:00:41	16:05:43	299724	59715b4b50e2f000016fe00e	522786543	1	main_slash	7	main_slash	127	stimuli_distractor_diamondtriangles.svg	stimuli_distractor_trianglediamonds.svg	37	no	53	0	156
6.6.1	win	2022-12-14	16:00:41	16:05:43	299724	59715b4b50e2f000016fe00e	522786543	1	main_slash	7	advance_on_keypress_SLASH	128	stimuli_distractor_diamondtriangles.svg	stimuli_distractor_trianglediamonds.svg	37	no	57	0	61
6.6.1	win	2022-12-14	16:00:41	16:05:44	300567	59715b4b50e2f000016fe00e	522786543	1	main_slash	7	main_slash	129	stimuli_distractor_trianglediamonds.svg	stimuli_target_squarediamonds.svg	12	yes	53	1	121
6.6.1	win	2022-12-14	16:00:41	16:05:44	300567	59715b4b50e2f000016fe00e	522786543	1	main_slash	7	advance_on_keypress_SLASH	130	stimuli_distractor_trianglediamonds.svg	stimuli_target_squarediamonds.svg	12	yes	57	0	123
6.6.1	win	2022-12-14	16:00:41	16:05:45	301466	59715b4b50e2f000016fe00e	522786543	1	main_slash	7	main_slash	131	stimuli_target_circlediamonds.svg	stimuli_distractor_diamondtriangles.svg	6	yes	53	1	125
6.6.1	win	2022-12-14	16:00:41	16:05:45	301466	59715b4b50e2f000016fe00e	522786543	1	main_slash	7	advance_on_keypress_SLASH	132	stimuli_target_circlediamonds.svg	stimuli_distractor_diamondtriangles.svg	6	yes	57	0	103
6.6.1	win	2022-12-14	16:00:41	16:05:46	302300	59715b4b50e2f000016fe00e	522786543	1	main_slash	7	main_slash	133	stimuli_target_diamondcircles.svg	stimuli_distractor_trianglediamonds.svg	19	yes	53	1	82
6.6.1	win	2022-12-14	16:00:41	16:05:46	302300	59715b4b50e2f000016fe00e	522786543	1	main_slash	7	advance_on_keypress_SLASH	134	stimuli_target_diamondcircles.svg	stimuli_distractor_trianglediamonds.svg	19	yes	57	0	134
6.6.1	win	2022-12-14	16:00:41	16:05:47	303156	59715b4b50e2f000016fe00e	522786543	1	main_slash	7	main_slash	135	stimuli_target_squarediamonds.svg	stimuli_distractor_diamondtriangles.svg	8	yes	53	1	71
6.6.1	win	2022-12-14	16:00:41	16:05:47	303156	59715b4b50e2f000016fe00e	522786543	1	main_slash	7	advance_on_keypress_SLASH	136	stimuli_target_squarediamonds.svg	stimuli_distractor_diamondtriangles.svg	8	yes	57	0	12
6.6.1	win	2022-12-14	16:00:41	16:05:48	303844	59715b4b50e2f000016fe00e	522786543	1	main_slash	7	main_slash	137	stimuli_distractor_diamondtriangles.svg	stimuli_target_trianglecircles.svg	29	yes	53	1	27
6.6.1	win	2022-12-14	16:00:41	16:05:48	303844	59715b4b50e2f000016fe00e	522786543	1	main_slash	7	advance_on_keypress_SLASH	138	stimuli_distractor_diamondtriangles.svg	stimuli_target_trianglecircles.svg	29	yes	57	0	33
6.6.1	win	2022-12-14	16:00:41	16:05:48	304524	59715b4b50e2f000016fe00e	522786543	1	main_slash	7	main_slash	139	stimuli_target_circletriangles.svg	stimuli_distractor_diamondtriangles.svg	5	yes	53	1	6
6.6.1	win	2022-12-14	16:00:41	16:05:48	304524	59715b4b50e2f000016fe00e	522786543	1	main_slash	7	advance_on_keypress_SLASH	140	stimuli_target_circletriangles.svg	stimuli_distractor_diamondtriangles.svg	5	yes	57	0	54
6.6.1	win	2022-12-14	16:00:41	16:05:49	305356	59715b4b50e2f000016fe00e	522786543	1	main_slash	7	main_slash	141	stimuli_target_trianglesquares.svg	stimuli_distractor_diamondtriangles.svg	22	yes	53	1	139
6.6.1	win	2022-12-14	16:00:41	16:05:49	305356	59715b4b50e2f000016fe00e	522786543	1	main_slash	7	advance_on_keypress_SLASH	142	stimuli_target_trianglesquares.svg	stimuli_distractor_diamondtriangles.svg	22	yes	57	0	157
6.6.1	win	2022-12-14	16:00:41	16:05:50	306229	59715b4b50e2f000016fe00e	522786543	1	main_slash	7	main_slash	143	stimuli_distractor_diamondtriangles.svg	stimuli_distractor_diamondtriangles.svg	39	no	53	0	78
6.6.1	win	2022-12-14	16:00:41	16:05:50	306229	59715b4b50e2f000016fe00e	522786543	1	main_slash	7	advance_on_keypress_SLASH	144	stimuli_distractor_diamondtriangles.svg	stimuli_distractor_diamondtriangles.svg	39	no	57	0	0
6.6.1	win	2022-12-14	16:00:41	16:05:51	306988	59715b4b50e2f000016fe00e	522786543	1	main_slash	7	main_slash	145	stimuli_distractor_trianglediamonds.svg	stimuli_target_squaretriangles.svg	11	yes	53	1	87
6.6.1	win	2022-12-14	16:00:41	16:05:51	306988	59715b4b50e2f000016fe00e	522786543	1	main_slash	7	advance_on_keypress_SLASH	146	stimuli_distractor_trianglediamonds.svg	stimuli_target_squaretriangles.svg	11	yes	57	0	164
6.6.1	win	2022-12-14	16:00:41	16:05:52	307852	59715b4b50e2f000016fe00e	522786543	1	main_slash	7	main_slash	147	stimuli_target_squaretriangles.svg	stimuli_distractor_diamondtriangles.svg	7	yes	53	1	51
6.6.1	win	2022-12-14	16:00:41	16:05:52	307852	59715b4b50e2f000016fe00e	522786543	1	main_slash	7	advance_on_keypress_SLASH	148	stimuli_target_squaretriangles.svg	stimuli_distractor_diamondtriangles.svg	7	yes	57	0	193
6.6.1	win	2022-12-14	16:00:41	16:05:52	308716	59715b4b50e2f000016fe00e	522786543	1	main_slash	7	main_slash	149	stimuli_distractor_trianglediamonds.svg	stimuli_target_circlediamonds.svg	10	yes	53	1	32
6.6.1	win	2022-12-14	16:00:41	16:05:52	308716	59715b4b50e2f000016fe00e	522786543	1	main_slash	7	advance_on_keypress_SLASH	150	stimuli_distractor_trianglediamonds.svg	stimuli_target_circlediamonds.svg	10	yes	57	0	182
6.6.1	win	2022-12-14	16:00:41	16:05:53	309566	59715b4b50e2f000016fe00e	522786543	1	main_slash	7	main_slash	151	stimuli_distractor_trianglediamonds.svg	stimuli_target_diamondcircles.svg	27	yes	53	1	14
6.6.1	win	2022-12-14	16:00:41	16:05:53	309566	59715b4b50e2f000016fe00e	522786543	1	main_slash	7	advance_on_keypress_SLASH	152	stimuli_distractor_trianglediamonds.svg	stimuli_target_diamondcircles.svg	27	yes	57	0	173
6.6.1	win	2022-12-14	16:00:41	16:05:54	310396	59715b4b50e2f000016fe00e	522786543	1	main_slash	7	main_slash	153	stimuli_target_squarediamonds.svg	stimuli_distractor_trianglediamonds.svg	4	yes	53	1	13
6.6.1	win	2022-12-14	16:00:41	16:05:54	310396	59715b4b50e2f000016fe00e	522786543	1	main_slash	7	advance_on_keypress_SLASH	154	stimuli_target_squarediamonds.svg	stimuli_distractor_trianglediamonds.svg	4	yes	57	0	267
6.6.1	win	2022-12-14	16:00:41	16:05:55	311340	59715b4b50e2f000016fe00e	522786543	1	main_slash	7	main_slash	155	stimuli_target_circlediamonds.svg	stimuli_distractor_trianglediamonds.svg	2	yes	53	1	23
6.6.1	win	2022-12-14	16:00:41	16:05:55	311340	59715b4b50e2f000016fe00e	522786543	1	main_slash	7	advance_on_keypress_SLASH	156	stimuli_target_circlediamonds.svg	stimuli_distractor_trianglediamonds.svg	2	yes	57	0	286
6.6.1	win	2022-12-14	16:00:41	16:05:56	312271	59715b4b50e2f000016fe00e	522786543	1	main_slash	7	main_slash	157	stimuli_distractor_diamondtriangles.svg	stimuli_target_diamondcircles.svg	31	yes	53	1	1
6.6.1	win	2022-12-14	16:00:41	16:05:56	312271	59715b4b50e2f000016fe00e	522786543	1	main_slash	7	advance_on_keypress_SLASH	158	stimuli_distractor_diamondtriangles.svg	stimuli_target_diamondcircles.svg	31	yes	57	0	265
6.6.1	win	2022-12-14	16:00:41	16:05:57	313501	59715b4b50e2f000016fe00e	522786543	1	main_slash	7	main_slash	159	stimuli_distractor_diamondtriangles.svg	stimuli_distractor_trianglediamonds.svg	38	no	53	0	317
6.6.1	win	2022-12-14	16:00:41	16:05:57	313501	59715b4b50e2f000016fe00e	522786543	1	main_slash	7	advance_on_keypress_SLASH	160	stimuli_distractor_diamondtriangles.svg	stimuli_distractor_trianglediamonds.svg	38	no	57	0	295
6.6.1	win	2022-12-14	16:00:41	16:06:05	321204	59715b4b50e2f000016fe00e	522786543	1	practice_z	9	practice_z	1	stimuli_distractor_diamondtriangles.svg	stimuli_distractor_trianglediamonds.svg	14	no	0	1	2000
6.6.1	win	2022-12-14	16:00:41	16:06:05	321204	59715b4b50e2f000016fe00e	522786543	1	practice_z	9	advance_on_keypress_ZEE	2	stimuli_distractor_diamondtriangles.svg	stimuli_distractor_trianglediamonds.svg	14	no	57	0	28
6.6.1	win	2022-12-14	16:00:41	16:06:09	324887	59715b4b50e2f000016fe00e	522786543	1	practice_z	9	practice_z	3	stimuli_target_squarediamonds.svg	stimuli_distractor_diamondtriangles.svg	2	yes	0	0	2000
6.6.1	win	2022-12-14	16:00:41	16:06:09	324887	59715b4b50e2f000016fe00e	522786543	1	practice_z	9	advance_on_keypress_ZEE	4	stimuli_target_squarediamonds.svg	stimuli_distractor_diamondtriangles.svg	2	yes	57	0	49
6.6.1	win	2022-12-14	16:00:41	16:06:12	328587	59715b4b50e2f000016fe00e	522786543	1	practice_z	9	practice_z	5	stimuli_distractor_diamondtriangles.svg	stimuli_target_circletriangles.svg	7	yes	0	0	2000
6.6.1	win	2022-12-14	16:00:41	16:06:12	328587	59715b4b50e2f000016fe00e	522786543	1	practice_z	9	advance_on_keypress_ZEE	6	stimuli_distractor_diamondtriangles.svg	stimuli_target_circletriangles.svg	7	yes	57	0	621
6.6.1	win	2022-12-14	16:00:41	16:06:17	332853	59715b4b50e2f000016fe00e	522786543	1	practice_z	9	practice_z	7	stimuli_distractor_diamondtriangles.svg	stimuli_distractor_diamondtriangles.svg	13	no	0	1	2000
6.6.1	win	2022-12-14	16:00:41	16:06:17	332853	59715b4b50e2f000016fe00e	522786543	1	practice_z	9	advance_on_keypress_ZEE	8	stimuli_distractor_diamondtriangles.svg	stimuli_distractor_diamondtriangles.svg	13	no	57	0	634
6.6.1	win	2022-12-14	16:00:41	16:06:21	337136	59715b4b50e2f000016fe00e	522786543	1	practice_z	9	practice_z	9	stimuli_distractor_trianglediamonds.svg	stimuli_distractor_diamondtriangles.svg	16	no	0	1	2000
6.6.1	win	2022-12-14	16:00:41	16:06:21	337136	59715b4b50e2f000016fe00e	522786543	1	practice_z	9	advance_on_keypress_ZEE	10	stimuli_distractor_trianglediamonds.svg	stimuli_distractor_diamondtriangles.svg	16	no	57	0	0
6.6.1	win	2022-12-14	16:00:41	16:06:25	340803	59715b4b50e2f000016fe00e	522786543	1	practice_z	9	practice_z	11	stimuli_target_diamondsquares.svg	stimuli_distractor_trianglediamonds.svg	6	yes	0	0	2000
6.6.1	win	2022-12-14	16:00:41	16:06:25	340803	59715b4b50e2f000016fe00e	522786543	1	practice_z	9	advance_on_keypress_ZEE	12	stimuli_target_diamondsquares.svg	stimuli_distractor_trianglediamonds.svg	6	yes	57	0	1374
6.6.1	win	2022-12-14	16:00:41	16:06:30	345819	59715b4b50e2f000016fe00e	522786543	1	practice_z	9	practice_z	13	stimuli_distractor_diamondtriangles.svg	stimuli_target_trianglecircles.svg	9	yes	0	0	2000
6.6.1	win	2022-12-14	16:00:41	16:06:30	345819	59715b4b50e2f000016fe00e	522786543	1	practice_z	9	advance_on_keypress_ZEE	14	stimuli_distractor_diamondtriangles.svg	stimuli_target_trianglecircles.svg	9	yes	57	0	766
6.6.1	win	2022-12-14	16:00:41	16:06:34	350236	59715b4b50e2f000016fe00e	522786543	1	practice_z	9	practice_z	15	stimuli_distractor_diamondtriangles.svg	stimuli_target_diamondcircles.svg	8	yes	0	0	2000
6.6.1	win	2022-12-14	16:00:41	16:06:34	350236	59715b4b50e2f000016fe00e	522786543	1	practice_z	9	advance_on_keypress_ZEE	16	stimuli_distractor_diamondtriangles.svg	stimuli_target_diamondcircles.svg	8	yes	57	0	125
6.6.1	win	2022-12-14	16:00:41	16:06:38	354019	59715b4b50e2f000016fe00e	522786543	1	practice_z	9	practice_z	17	stimuli_distractor_trianglediamonds.svg	stimuli_target_diamondcircles.svg	12	yes	0	0	2000
6.6.1	win	2022-12-14	16:00:41	16:06:38	354019	59715b4b50e2f000016fe00e	522786543	1	practice_z	9	advance_on_keypress_ZEE	18	stimuli_distractor_trianglediamonds.svg	stimuli_target_diamondcircles.svg	12	yes	57	0	662
6.6.1	win	2022-12-14	16:00:41	16:06:42	358335	59715b4b50e2f000016fe00e	522786543	1	practice_z	9	practice_z	19	stimuli_distractor_trianglediamonds.svg	stimuli_target_squarediamonds.svg	11	yes	0	0	2000
6.6.1	win	2022-12-14	16:00:41	16:06:42	358335	59715b4b50e2f000016fe00e	522786543	1	practice_z	9	advance_on_keypress_ZEE	20	stimuli_distractor_trianglediamonds.svg	stimuli_target_squarediamonds.svg	11	yes	57	0	930
6.6.1	win	2022-12-14	16:00:41	16:06:47	362918	59715b4b50e2f000016fe00e	522786543	1	practice_z	9	practice_z	21	stimuli_distractor_trianglediamonds.svg	stimuli_target_circlediamonds.svg	10	yes	0	0	2000
6.6.1	win	2022-12-14	16:00:41	16:06:47	362918	59715b4b50e2f000016fe00e	522786543	1	practice_z	9	advance_on_keypress_ZEE	22	stimuli_distractor_trianglediamonds.svg	stimuli_target_circlediamonds.svg	10	yes	57	0	58
6.6.1	win	2022-12-14	16:00:41	16:06:50	366618	59715b4b50e2f000016fe00e	522786543	1	practice_z	9	practice_z	23	stimuli_target_squarediamonds.svg	stimuli_distractor_trianglediamonds.svg	5	yes	0	0	2000
6.6.1	win	2022-12-14	16:00:41	16:06:50	366618	59715b4b50e2f000016fe00e	522786543	1	practice_z	9	advance_on_keypress_ZEE	24	stimuli_target_squarediamonds.svg	stimuli_distractor_trianglediamonds.svg	5	yes	57	0	71
6.6.1	win	2022-12-14	16:00:41	16:06:54	370351	59715b4b50e2f000016fe00e	522786543	1	practice_z	9	practice_z	25	stimuli_distractor_trianglediamonds.svg	stimuli_distractor_trianglediamonds.svg	15	no	0	1	2000
6.6.1	win	2022-12-14	16:00:41	16:06:54	370351	59715b4b50e2f000016fe00e	522786543	1	practice_z	9	advance_on_keypress_ZEE	26	stimuli_distractor_trianglediamonds.svg	stimuli_distractor_trianglediamonds.svg	15	no	57	0	83
6.6.1	win	2022-12-14	16:00:41	16:06:58	374084	59715b4b50e2f000016fe00e	522786543	1	practice_z	9	practice_z	27	stimuli_target_circlediamonds.svg	stimuli_distractor_trianglediamonds.svg	4	yes	0	0	2000
6.6.1	win	2022-12-14	16:00:41	16:06:58	374084	59715b4b50e2f000016fe00e	522786543	1	practice_z	9	advance_on_keypress_ZEE	28	stimuli_target_circlediamonds.svg	stimuli_distractor_trianglediamonds.svg	4	yes	57	0	525
6.6.1	win	2022-12-14	16:00:41	16:07:02	378267	59715b4b50e2f000016fe00e	522786543	1	practice_z	9	practice_z	29	stimuli_target_diamondsquares.svg	stimuli_distractor_diamondtriangles.svg	3	yes	0	0	2000
6.6.1	win	2022-12-14	16:00:41	16:07:02	378267	59715b4b50e2f000016fe00e	522786543	1	practice_z	9	advance_on_keypress_ZEE	30	stimuli_target_diamondsquares.svg	stimuli_distractor_diamondtriangles.svg	3	yes	57	0	214
6.6.1	win	2022-12-14	16:00:41	16:07:06	382154	59715b4b50e2f000016fe00e	522786543	1	practice_z	9	practice_z	31	stimuli_target_circlediamonds.svg	stimuli_distractor_diamondtriangles.svg	1	yes	0	0	2000
6.6.1	win	2022-12-14	16:00:41	16:07:06	382154	59715b4b50e2f000016fe00e	522786543	1	practice_z	9	advance_on_keypress_ZEE	32	stimuli_target_circlediamonds.svg	stimuli_distractor_diamondtriangles.svg	1	yes	57	0	59
6.6.1	win	2022-12-14	16:00:41	16:07:12	388023	59715b4b50e2f000016fe00e	522786543	1	main_z	11	main_z	1	stimuli_distractor_trianglediamonds.svg	stimuli_target_trianglecircles.svg	25	yes	44	1	393
6.6.1	win	2022-12-14	16:00:41	16:07:12	388023	59715b4b50e2f000016fe00e	522786543	1	main_z	11	advance_on_keypress_ZEE	2	stimuli_distractor_trianglediamonds.svg	stimuli_target_trianglecircles.svg	25	yes	57	0	183
6.6.1	win	2022-12-14	16:00:41	16:07:13	388919	59715b4b50e2f000016fe00e	522786543	1	main_z	11	main_z	3	stimuli_target_squaretriangles.svg	stimuli_distractor_diamondtriangles.svg	7	yes	44	1	55
6.6.1	win	2022-12-14	16:00:41	16:07:13	388919	59715b4b50e2f000016fe00e	522786543	1	main_z	11	advance_on_keypress_ZEE	4	stimuli_target_squaretriangles.svg	stimuli_distractor_diamondtriangles.svg	7	yes	57	0	13
6.6.1	win	2022-12-14	16:00:41	16:07:14	389751	59715b4b50e2f000016fe00e	522786543	1	main_z	11	main_z	5	stimuli_target_circletriangles.svg	stimuli_distractor_diamondtriangles.svg	5	yes	44	1	171
6.6.1	win	2022-12-14	16:00:41	16:07:14	389751	59715b4b50e2f000016fe00e	522786543	1	main_z	11	advance_on_keypress_ZEE	6	stimuli_target_circletriangles.svg	stimuli_distractor_diamondtriangles.svg	5	yes	57	0	44
6.6.1	win	2022-12-14	16:00:41	16:07:14	390527	59715b4b50e2f000016fe00e	522786543	1	main_z	11	main_z	7	stimuli_target_trianglecircles.svg	stimuli_distractor_trianglediamonds.svg	17	yes	44	1	97
6.6.1	win	2022-12-14	16:00:41	16:07:14	390527	59715b4b50e2f000016fe00e	522786543	1	main_z	11	advance_on_keypress_ZEE	8	stimuli_target_trianglecircles.svg	stimuli_distractor_trianglediamonds.svg	17	yes	57	0	12
6.6.1	win	2022-12-14	16:00:41	16:07:15	391287	59715b4b50e2f000016fe00e	522786543	1	main_z	11	main_z	9	stimuli_target_squarediamonds.svg	stimuli_distractor_diamondtriangles.svg	8	yes	44	1	90
6.6.1	win	2022-12-14	16:00:41	16:07:15	391287	59715b4b50e2f000016fe00e	522786543	1	main_z	11	advance_on_keypress_ZEE	10	stimuli_target_squarediamonds.svg	stimuli_distractor_diamondtriangles.svg	8	yes	57	0	382
6.6.1	win	2022-12-14	16:00:41	16:07:16	392487	59715b4b50e2f000016fe00e	522786543	1	main_z	11	main_z	11	stimuli_target_trianglesquares.svg	stimuli_distractor_diamondtriangles.svg	22	yes	44	1	174
6.6.1	win	2022-12-14	16:00:41	16:07:16	392487	59715b4b50e2f000016fe00e	522786543	1	main_z	11	advance_on_keypress_ZEE	12	stimuli_target_trianglesquares.svg	stimuli_distractor_diamondtriangles.svg	22	yes	57	0	142
6.6.1	win	2022-12-14	16:00:41	16:07:17	393395	59715b4b50e2f000016fe00e	522786543	1	main_z	11	main_z	13	stimuli_target_diamondcircles.svg	stimuli_distractor_trianglediamonds.svg	19	yes	44	1	121
6.6.1	win	2022-12-14	16:00:41	16:07:17	393395	59715b4b50e2f000016fe00e	522786543	1	main_z	11	advance_on_keypress_ZEE	14	stimuli_target_diamondcircles.svg	stimuli_distractor_trianglediamonds.svg	19	yes	57	0	98
6.6.1	win	2022-12-14	16:00:41	16:07:18	394207	59715b4b50e2f000016fe00e	522786543	1	main_z	11	main_z	15	stimuli_distractor_diamondtriangles.svg	stimuli_distractor_trianglediamonds.svg	38	no	44	0	60
6.6.1	win	2022-12-14	16:00:41	16:07:18	394207	59715b4b50e2f000016fe00e	522786543	1	main_z	11	advance_on_keypress_ZEE	16	stimuli_distractor_diamondtriangles.svg	stimuli_distractor_trianglediamonds.svg	38	no	57	0	82
6.6.1	win	2022-12-14	16:00:41	16:07:19	394991	59715b4b50e2f000016fe00e	522786543	1	main_z	11	main_z	17	stimuli_distractor_trianglediamonds.svg	stimuli_target_squaretriangles.svg	11	yes	44	1	61
6.6.1	win	2022-12-14	16:00:41	16:07:19	394991	59715b4b50e2f000016fe00e	522786543	1	main_z	11	advance_on_keypress_ZEE	18	stimuli_distractor_trianglediamonds.svg	stimuli_target_squaretriangles.svg	11	yes	57	0	98
6.6.1	win	2022-12-14	16:00:41	16:07:20	395783	59715b4b50e2f000016fe00e	522786543	1	main_z	11	main_z	19	stimuli_distractor_trianglediamonds.svg	stimuli_target_circlediamonds.svg	10	yes	44	1	37
6.6.1	win	2022-12-14	16:00:41	16:07:20	395783	59715b4b50e2f000016fe00e	522786543	1	main_z	11	advance_on_keypress_ZEE	20	stimuli_distractor_trianglediamonds.svg	stimuli_target_circlediamonds.svg	10	yes	57	0	123
6.6.1	win	2022-12-14	16:00:41	16:07:20	396591	59715b4b50e2f000016fe00e	522786543	1	main_z	11	main_z	21	stimuli_distractor_diamondtriangles.svg	stimuli_target_diamondcircles.svg	31	yes	44	1	45
6.6.1	win	2022-12-14	16:00:41	16:07:20	396591	59715b4b50e2f000016fe00e	522786543	1	main_z	11	advance_on_keypress_ZEE	22	stimuli_distractor_diamondtriangles.svg	stimuli_target_diamondcircles.svg	31	yes	57	0	108
6.6.1	win	2022-12-14	16:00:41	16:07:21	397655	59715b4b50e2f000016fe00e	522786543	1	main_z	11	main_z	23	stimuli_distractor_diamondtriangles.svg	stimuli_target_circlediamonds.svg	14	yes	44	1	325
6.6.1	win	2022-12-14	16:00:41	16:07:21	397655	59715b4b50e2f000016fe00e	522786543	1	main_z	11	advance_on_keypress_ZEE	24	stimuli_distractor_diamondtriangles.svg	stimuli_target_circlediamonds.svg	14	yes	57	0	233
6.6.1	win	2022-12-14	16:00:41	16:07:23	398935	59715b4b50e2f000016fe00e	522786543	1	main_z	11	main_z	25	stimuli_target_diamondsquares.svg	stimuli_distractor_diamondtriangles.svg	24	yes	44	1	406
6.6.1	win	2022-12-14	16:00:41	16:07:23	398935	59715b4b50e2f000016fe00e	522786543	1	main_z	11	advance_on_keypress_ZEE	26	stimuli_target_diamondsquares.svg	stimuli_distractor_diamondtriangles.svg	24	yes	57	0	182
6.6.1	win	2022-12-14	16:00:41	16:07:24	400056	59715b4b50e2f000016fe00e	522786543	1	main_z	11	main_z	27	stimuli_target_diamondsquares.svg	stimuli_distractor_trianglediamonds.svg	20	yes	44	1	293
6.6.1	win	2022-12-14	16:00:41	16:07:24	400056	59715b4b50e2f000016fe00e	522786543	1	main_z	11	advance_on_keypress_ZEE	28	stimuli_target_diamondsquares.svg	stimuli_distractor_trianglediamonds.svg	20	yes	57	0	169
6.6.1	win	2022-12-14	16:00:41	16:07:25	401150	59715b4b50e2f000016fe00e	522786543	1	main_z	11	main_z	29	stimuli_distractor_diamondtriangles.svg	stimuli_distractor_diamondtriangles.svg	39	no	44	0	281
6.6.1	win	2022-12-14	16:00:41	16:07:25	401150	59715b4b50e2f000016fe00e	522786543	1	main_z	11	advance_on_keypress_ZEE	30	stimuli_distractor_diamondtriangles.svg	stimuli_distractor_diamondtriangles.svg	39	no	57	0	157
6.6.1	win	2022-12-14	16:00:41	16:07:26	402239	59715b4b50e2f000016fe00e	522786543	1	main_z	11	main_z	31	stimuli_target_squarediamonds.svg	stimuli_distractor_trianglediamonds.svg	4	yes	44	1	294
6.6.1	win	2022-12-14	16:00:41	16:07:26	402239	59715b4b50e2f000016fe00e	522786543	1	main_z	11	advance_on_keypress_ZEE	32	stimuli_target_squarediamonds.svg	stimuli_distractor_trianglediamonds.svg	4	yes	57	0	178
6.6.1	win	2022-12-14	16:00:41	16:07:27	403303	59715b4b50e2f000016fe00e	522786543	1	main_z	11	main_z	33	stimuli_distractor_trianglediamonds.svg	stimuli_target_circletriangles.svg	9	yes	44	1	258
6.6.1	win	2022-12-14	16:00:41	16:07:27	403303	59715b4b50e2f000016fe00e	522786543	1	main_z	11	advance_on_keypress_ZEE	34	stimuli_distractor_trianglediamonds.svg	stimuli_target_circletriangles.svg	9	yes	57	0	175
6.6.1	win	2022-12-14	16:00:41	16:07:28	404360	59715b4b50e2f000016fe00e	522786543	1	main_z	11	main_z	35	stimuli_target_diamondcircles.svg	stimuli_distractor_diamondtriangles.svg	23	yes	44	1	247
6.6.1	win	2022-12-14	16:00:41	16:07:28	404360	59715b4b50e2f000016fe00e	522786543	1	main_z	11	advance_on_keypress_ZEE	36	stimuli_target_diamondcircles.svg	stimuli_distractor_diamondtriangles.svg	23	yes	57	0	157
6.6.1	win	2022-12-14	16:00:41	16:07:29	405408	59715b4b50e2f000016fe00e	522786543	1	main_z	11	main_z	37	stimuli_distractor_diamondtriangles.svg	stimuli_distractor_diamondtriangles.svg	40	no	44	0	245
6.6.1	win	2022-12-14	16:00:41	16:07:29	405408	59715b4b50e2f000016fe00e	522786543	1	main_z	11	advance_on_keypress_ZEE	38	stimuli_distractor_diamondtriangles.svg	stimuli_distractor_diamondtriangles.svg	40	no	57	0	147
6.6.1	win	2022-12-14	16:00:41	16:07:30	406432	59715b4b50e2f000016fe00e	522786543	1	main_z	11	main_z	39	stimuli_distractor_trianglediamonds.svg	stimuli_target_diamondsquares.svg	28	yes	44	1	219
6.6.1	win	2022-12-14	16:00:41	16:07:30	406432	59715b4b50e2f000016fe00e	522786543	1	main_z	11	advance_on_keypress_ZEE	40	stimuli_distractor_trianglediamonds.svg	stimuli_target_diamondsquares.svg	28	yes	57	0	162
6.6.1	win	2022-12-14	16:00:41	16:07:31	407472	59715b4b50e2f000016fe00e	522786543	1	main_z	11	main_z	41	stimuli_distractor_diamondtriangles.svg	stimuli_target_trianglecircles.svg	29	yes	44	1	226
6.6.1	win	2022-12-14	16:00:41	16:07:31	407472	59715b4b50e2f000016fe00e	522786543	1	main_z	11	advance_on_keypress_ZEE	42	stimuli_distractor_diamondtriangles.svg	stimuli_target_trianglecircles.svg	29	yes	57	0	169
6.6.1	win	2022-12-14	16:00:41	16:07:32	408536	59715b4b50e2f000016fe00e	522786543	1	main_z	11	main_z	43	stimuli_distractor_diamondtriangles.svg	stimuli_distractor_trianglediamonds.svg	37	no	44	0	257
6.6.1	win	2022-12-14	16:00:41	16:07:32	408536	59715b4b50e2f000016fe00e	522786543	1	main_z	11	advance_on_keypress_ZEE	44	stimuli_distractor_diamondtriangles.svg	stimuli_distractor_trianglediamonds.svg	37	no	57	0	142
6.6.1	win	2022-12-14	16:00:41	16:07:33	409544	59715b4b50e2f000016fe00e	522786543	1	main_z	11	main_z	45	stimuli_distractor_trianglediamonds.svg	stimuli_distractor_diamondtriangles.svg	35	no	44	0	232
6.6.1	win	2022-12-14	16:00:41	16:07:33	409544	59715b4b50e2f000016fe00e	522786543	1	main_z	11	advance_on_keypress_ZEE	46	stimuli_distractor_trianglediamonds.svg	stimuli_distractor_diamondtriangles.svg	35	no	57	0	142
6.6.1	win	2022-12-14	16:00:41	16:07:34	410648	59715b4b50e2f000016fe00e	522786543	1	main_z	11	main_z	47	stimuli_target_trianglecircles.svg	stimuli_distractor_diamondtriangles.svg	21	yes	44	1	319
6.6.1	win	2022-12-14	16:00:41	16:07:34	410648	59715b4b50e2f000016fe00e	522786543	1	main_z	11	advance_on_keypress_ZEE	48	stimuli_target_trianglecircles.svg	stimuli_distractor_diamondtriangles.svg	21	yes	57	0	146
6.6.1	win	2022-12-14	16:00:41	16:07:36	411827	59715b4b50e2f000016fe00e	522786543	1	main_z	11	main_z	49	stimuli_distractor_trianglediamonds.svg	stimuli_target_squarediamonds.svg	12	yes	44	1	370
6.6.1	win	2022-12-14	16:00:41	16:07:36	411827	59715b4b50e2f000016fe00e	522786543	1	main_z	11	advance_on_keypress_ZEE	50	stimuli_distractor_trianglediamonds.svg	stimuli_target_squarediamonds.svg	12	yes	57	0	194
6.6.1	win	2022-12-14	16:00:41	16:07:37	413192	59715b4b50e2f000016fe00e	522786543	1	main_z	11	main_z	51	stimuli_distractor_diamondtriangles.svg	stimuli_target_circletriangles.svg	13	yes	44	1	530
6.6.1	win	2022-12-14	16:00:41	16:07:37	413192	59715b4b50e2f000016fe00e	522786543	1	main_z	11	advance_on_keypress_ZEE	52	stimuli_distractor_diamondtriangles.svg	stimuli_target_circletriangles.svg	13	yes	57	0	116
6.6.1	win	2022-12-14	16:00:41	16:07:38	414608	59715b4b50e2f000016fe00e	522786543	1	main_z	11	main_z	53	stimuli_distractor_trianglediamonds.svg	stimuli_target_trianglesquares.svg	26	yes	44	1	646
6.6.1	win	2022-12-14	16:00:41	16:07:38	414608	59715b4b50e2f000016fe00e	522786543	1	main_z	11	advance_on_keypress_ZEE	54	stimuli_distractor_trianglediamonds.svg	stimuli_target_trianglesquares.svg	26	yes	57	0	131
6.6.1	win	2022-12-14	16:00:41	16:07:39	415416	59715b4b50e2f000016fe00e	522786543	1	main_z	11	main_z	55	stimuli_target_squaretriangles.svg	stimuli_distractor_trianglediamonds.svg	3	yes	44	1	21
6.6.1	win	2022-12-14	16:00:41	16:07:39	415416	59715b4b50e2f000016fe00e	522786543	1	main_z	11	advance_on_keypress_ZEE	56	stimuli_target_squaretriangles.svg	stimuli_distractor_trianglediamonds.svg	3	yes	57	0	131
6.6.1	win	2022-12-14	16:00:41	16:07:40	416504	59715b4b50e2f000016fe00e	522786543	1	main_z	11	main_z	57	stimuli_distractor_diamondtriangles.svg	stimuli_target_squaretriangles.svg	15	yes	44	1	309
6.6.1	win	2022-12-14	16:00:41	16:07:40	416504	59715b4b50e2f000016fe00e	522786543	1	main_z	11	advance_on_keypress_ZEE	58	stimuli_distractor_diamondtriangles.svg	stimuli_target_squaretriangles.svg	15	yes	57	0	152
6.6.1	win	2022-12-14	16:00:41	16:07:41	417536	59715b4b50e2f000016fe00e	522786543	1	main_z	11	main_z	59	stimuli_distractor_diamondtriangles.svg	stimuli_target_trianglesquares.svg	30	yes	44	1	241
6.6.1	win	2022-12-14	16:00:41	16:07:41	417536	59715b4b50e2f000016fe00e	522786543	1	main_z	11	advance_on_keypress_ZEE	60	stimuli_distractor_diamondtriangles.svg	stimuli_target_trianglesquares.svg	30	yes	57	0	159
6.6.1	win	2022-12-14	16:00:41	16:07:42	418584	59715b4b50e2f000016fe00e	522786543	1	main_z	11	main_z	61	stimuli_target_circlediamonds.svg	stimuli_distractor_diamondtriangles.svg	6	yes	44	1	255
6.6.1	win	2022-12-14	16:00:41	16:07:42	418584	59715b4b50e2f000016fe00e	522786543	1	main_z	11	advance_on_keypress_ZEE	62	stimuli_target_circlediamonds.svg	stimuli_distractor_diamondtriangles.svg	6	yes	57	0	149
6.6.1	win	2022-12-14	16:00:41	16:07:43	419584	59715b4b50e2f000016fe00e	522786543	1	main_z	11	main_z	63	stimuli_target_circletriangles.svg	stimuli_distractor_trianglediamonds.svg	1	yes	44	1	205
6.6.1	win	2022-12-14	16:00:41	16:07:43	419584	59715b4b50e2f000016fe00e	522786543	1	main_z	11	advance_on_keypress_ZEE	64	stimuli_target_circletriangles.svg	stimuli_distractor_trianglediamonds.svg	1	yes	57	0	165
6.6.1	win	2022-12-14	16:00:41	16:07:44	420648	59715b4b50e2f000016fe00e	522786543	1	main_z	11	main_z	65	stimuli_distractor_trianglediamonds.svg	stimuli_distractor_diamondtriangles.svg	36	no	44	0	253
6.6.1	win	2022-12-14	16:00:41	16:07:44	420648	59715b4b50e2f000016fe00e	522786543	1	main_z	11	advance_on_keypress_ZEE	66	stimuli_distractor_trianglediamonds.svg	stimuli_distractor_diamondtriangles.svg	36	no	57	0	154
6.6.1	win	2022-12-14	16:00:41	16:07:45	421688	59715b4b50e2f000016fe00e	522786543	1	main_z	11	main_z	67	stimuli_distractor_trianglediamonds.svg	stimuli_distractor_trianglediamonds.svg	33	no	44	0	243
6.6.1	win	2022-12-14	16:00:41	16:07:45	421688	59715b4b50e2f000016fe00e	522786543	1	main_z	11	advance_on_keypress_ZEE	68	stimuli_distractor_trianglediamonds.svg	stimuli_distractor_trianglediamonds.svg	33	no	57	0	144
6.6.1	win	2022-12-14	16:00:41	16:07:46	422728	59715b4b50e2f000016fe00e	522786543	1	main_z	11	main_z	69	stimuli_distractor_diamondtriangles.svg	stimuli_target_squarediamonds.svg	16	yes	44	1	233
6.6.1	win	2022-12-14	16:00:41	16:07:46	422728	59715b4b50e2f000016fe00e	522786543	1	main_z	11	advance_on_keypress_ZEE	70	stimuli_distractor_diamondtriangles.svg	stimuli_target_squarediamonds.svg	16	yes	57	0	143
6.6.1	win	2022-12-14	16:00:41	16:07:48	423776	59715b4b50e2f000016fe00e	522786543	1	main_z	11	main_z	71	stimuli_target_trianglesquares.svg	stimuli_distractor_trianglediamonds.svg	18	yes	44	1	264
6.6.1	win	2022-12-14	16:00:41	16:07:48	423776	59715b4b50e2f000016fe00e	522786543	1	main_z	11	advance_on_keypress_ZEE	72	stimuli_target_trianglesquares.svg	stimuli_distractor_trianglediamonds.svg	18	yes	57	0	157
6.6.1	win	2022-12-14	16:00:41	16:07:49	424816	59715b4b50e2f000016fe00e	522786543	1	main_z	11	main_z	73	stimuli_distractor_trianglediamonds.svg	stimuli_target_diamondcircles.svg	27	yes	44	1	238
6.6.1	win	2022-12-14	16:00:41	16:07:49	424816	59715b4b50e2f000016fe00e	522786543	1	main_z	11	advance_on_keypress_ZEE	74	stimuli_distractor_trianglediamonds.svg	stimuli_target_diamondcircles.svg	27	yes	57	0	173
6.6.1	win	2022-12-14	16:00:41	16:07:50	425856	59715b4b50e2f000016fe00e	522786543	1	main_z	11	main_z	75	stimuli_target_circlediamonds.svg	stimuli_distractor_trianglediamonds.svg	2	yes	44	1	228
6.6.1	win	2022-12-14	16:00:41	16:07:50	425856	59715b4b50e2f000016fe00e	522786543	1	main_z	11	advance_on_keypress_ZEE	76	stimuli_target_circlediamonds.svg	stimuli_distractor_trianglediamonds.svg	2	yes	57	0	138
6.6.1	win	2022-12-14	16:00:41	16:07:51	426848	59715b4b50e2f000016fe00e	522786543	1	main_z	11	main_z	77	stimuli_distractor_trianglediamonds.svg	stimuli_distractor_trianglediamonds.svg	34	no	44	0	203
6.6.1	win	2022-12-14	16:00:41	16:07:51	426848	59715b4b50e2f000016fe00e	522786543	1	main_z	11	advance_on_keypress_ZEE	78	stimuli_distractor_trianglediamonds.svg	stimuli_distractor_trianglediamonds.svg	34	no	57	0	155
6.6.1	win	2022-12-14	16:00:41	16:07:52	427864	59715b4b50e2f000016fe00e	522786543	1	main_z	11	main_z	79	stimuli_distractor_diamondtriangles.svg	stimuli_target_diamondsquares.svg	32	yes	44	1	220
6.6.1	win	2022-12-14	16:00:41	16:07:52	427864	59715b4b50e2f000016fe00e	522786543	1	main_z	11	advance_on_keypress_ZEE	80	stimuli_distractor_diamondtriangles.svg	stimuli_target_diamondsquares.svg	32	yes	57	0	138
6.6.1	win	2022-12-14	16:00:41	16:07:53	428840	59715b4b50e2f000016fe00e	522786543	1	main_z	11	main_z	81	stimuli_target_diamondsquares.svg	stimuli_distractor_diamondtriangles.svg	24	yes	44	1	196
6.6.1	win	2022-12-14	16:00:41	16:07:53	428840	59715b4b50e2f000016fe00e	522786543	1	main_z	11	advance_on_keypress_ZEE	82	stimuli_target_diamondsquares.svg	stimuli_distractor_diamondtriangles.svg	24	yes	57	0	156
6.6.1	win	2022-12-14	16:00:41	16:07:54	429889	59715b4b50e2f000016fe00e	522786543	1	main_z	11	main_z	83	stimuli_distractor_diamondtriangles.svg	stimuli_distractor_diamondtriangles.svg	39	no	44	0	244
6.6.1	win	2022-12-14	16:00:41	16:07:54	429889	59715b4b50e2f000016fe00e	522786543	1	main_z	11	advance_on_keypress_ZEE	84	stimuli_distractor_diamondtriangles.svg	stimuli_distractor_diamondtriangles.svg	39	no	57	0	146
6.6.1	win	2022-12-14	16:00:41	16:07:55	430872	59715b4b50e2f000016fe00e	522786543	1	main_z	11	main_z	85	stimuli_distractor_diamondtriangles.svg	stimuli_target_diamondsquares.svg	32	yes	44	1	195
6.6.1	win	2022-12-14	16:00:41	16:07:55	430872	59715b4b50e2f000016fe00e	522786543	1	main_z	11	advance_on_keypress_ZEE	86	stimuli_distractor_diamondtriangles.svg	stimuli_target_diamondsquares.svg	32	yes	57	0	147
6.6.1	win	2022-12-14	16:00:41	16:07:56	431840	59715b4b50e2f000016fe00e	522786543	1	main_z	11	main_z	87	stimuli_distractor_diamondtriangles.svg	stimuli_target_circlediamonds.svg	14	yes	44	1	173
6.6.1	win	2022-12-14	16:00:41	16:07:56	431840	59715b4b50e2f000016fe00e	522786543	1	main_z	11	advance_on_keypress_ZEE	88	stimuli_distractor_diamondtriangles.svg	stimuli_target_circlediamonds.svg	14	yes	57	0	148
6.6.1	win	2022-12-14	16:00:41	16:07:57	432864	59715b4b50e2f000016fe00e	522786543	1	main_z	11	main_z	89	stimuli_distractor_diamondtriangles.svg	stimuli_target_trianglesquares.svg	30	yes	44	1	220
6.6.1	win	2022-12-14	16:00:41	16:07:57	432864	59715b4b50e2f000016fe00e	522786543	1	main_z	11	advance_on_keypress_ZEE	90	stimuli_distractor_diamondtriangles.svg	stimuli_target_trianglesquares.svg	30	yes	57	0	115
6.6.1	win	2022-12-14	16:00:41	16:07:58	433913	59715b4b50e2f000016fe00e	522786543	1	main_z	11	main_z	91	stimuli_distractor_trianglediamonds.svg	stimuli_distractor_diamondtriangles.svg	35	no	44	0	285
6.6.1	win	2022-12-14	16:00:41	16:07:58	433913	59715b4b50e2f000016fe00e	522786543	1	main_z	11	advance_on_keypress_ZEE	92	stimuli_distractor_trianglediamonds.svg	stimuli_distractor_diamondtriangles.svg	35	no	57	0	145
6.6.1	win	2022-12-14	16:00:41	16:07:59	434937	59715b4b50e2f000016fe00e	522786543	1	main_z	11	main_z	93	stimuli_distractor_diamondtriangles.svg	stimuli_target_squarediamonds.svg	16	yes	44	1	226
6.6.1	win	2022-12-14	16:00:41	16:07:59	434937	59715b4b50e2f000016fe00e	522786543	1	main_z	11	advance_on_keypress_ZEE	94	stimuli_distractor_diamondtriangles.svg	stimuli_target_squarediamonds.svg	16	yes	57	0	169
6.6.1	win	2022-12-14	16:00:41	16:08:00	435969	59715b4b50e2f000016fe00e	522786543	1	main_z	11	main_z	95	stimuli_distractor_diamondtriangles.svg	stimuli_distractor_trianglediamonds.svg	38	no	44	0	225
6.6.1	win	2022-12-14	16:00:41	16:08:00	435969	59715b4b50e2f000016fe00e	522786543	1	main_z	11	advance_on_keypress_ZEE	96	stimuli_distractor_diamondtriangles.svg	stimuli_distractor_trianglediamonds.svg	38	no	57	0	159
6.6.1	win	2022-12-14	16:00:41	16:08:01	437001	59715b4b50e2f000016fe00e	522786543	1	main_z	11	main_z	97	stimuli_target_circlediamonds.svg	stimuli_distractor_diamondtriangles.svg	6	yes	44	1	240
6.6.1	win	2022-12-14	16:00:41	16:08:01	437001	59715b4b50e2f000016fe00e	522786543	1	main_z	11	advance_on_keypress_ZEE	98	stimuli_target_circlediamonds.svg	stimuli_distractor_diamondtriangles.svg	6	yes	57	0	142
6.6.1	win	2022-12-14	16:00:41	16:08:02	437985	59715b4b50e2f000016fe00e	522786543	1	main_z	11	main_z	99	stimuli_target_diamondcircles.svg	stimuli_distractor_trianglediamonds.svg	19	yes	44	1	207
6.6.1	win	2022-12-14	16:00:41	16:08:02	437985	59715b4b50e2f000016fe00e	522786543	1	main_z	11	advance_on_keypress_ZEE	100	stimuli_target_diamondcircles.svg	stimuli_distractor_trianglediamonds.svg	19	yes	57	0	143
6.6.1	win	2022-12-14	16:00:41	16:08:03	438961	59715b4b50e2f000016fe00e	522786543	1	main_z	11	main_z	101	stimuli_distractor_diamondtriangles.svg	stimuli_target_squaretriangles.svg	15	yes	44	1	200
6.6.1	win	2022-12-14	16:00:41	16:08:03	438961	59715b4b50e2f000016fe00e	522786543	1	main_z	11	advance_on_keypress_ZEE	102	stimuli_distractor_diamondtriangles.svg	stimuli_target_squaretriangles.svg	15	yes	57	0	136
6.6.1	win	2022-12-14	16:00:41	16:08:04	439945	59715b4b50e2f000016fe00e	522786543	1	main_z	11	main_z	103	stimuli_target_squarediamonds.svg	stimuli_distractor_trianglediamonds.svg	4	yes	44	1	201
6.6.1	win	2022-12-14	16:00:41	16:08:04	439945	59715b4b50e2f000016fe00e	522786543	1	main_z	11	advance_on_keypress_ZEE	104	stimuli_target_squarediamonds.svg	stimuli_distractor_trianglediamonds.svg	4	yes	57	0	112
6.6.1	win	2022-12-14	16:00:41	16:08:05	440881	59715b4b50e2f000016fe00e	522786543	1	main_z	11	main_z	105	stimuli_distractor_trianglediamonds.svg	stimuli_target_diamondsquares.svg	28	yes	44	1	170
6.6.1	win	2022-12-14	16:00:41	16:08:05	440881	59715b4b50e2f000016fe00e	522786543	1	main_z	11	advance_on_keypress_ZEE	106	stimuli_distractor_trianglediamonds.svg	stimuli_target_diamondsquares.svg	28	yes	57	0	139
6.6.1	win	2022-12-14	16:00:41	16:08:06	441857	59715b4b50e2f000016fe00e	522786543	1	main_z	11	main_z	107	stimuli_target_circletriangles.svg	stimuli_distractor_trianglediamonds.svg	1	yes	44	1	179
6.6.1	win	2022-12-14	16:00:41	16:08:06	441857	59715b4b50e2f000016fe00e	522786543	1	main_z	11	advance_on_keypress_ZEE	108	stimuli_target_circletriangles.svg	stimuli_distractor_trianglediamonds.svg	1	yes	57	0	100
6.6.1	win	2022-12-14	16:00:41	16:08:07	442793	59715b4b50e2f000016fe00e	522786543	1	main_z	11	main_z	109	stimuli_distractor_diamondtriangles.svg	stimuli_target_trianglecircles.svg	29	yes	44	1	182
6.6.1	win	2022-12-14	16:00:41	16:08:07	442793	59715b4b50e2f000016fe00e	522786543	1	main_z	11	advance_on_keypress_ZEE	110	stimuli_distractor_diamondtriangles.svg	stimuli_target_trianglecircles.svg	29	yes	57	0	126
6.6.1	win	2022-12-14	16:00:41	16:08:08	443809	59715b4b50e2f000016fe00e	522786543	1	main_z	11	main_z	111	stimuli_distractor_trianglediamonds.svg	stimuli_target_diamondcircles.svg	27	yes	44	1	248
6.6.1	win	2022-12-14	16:00:41	16:08:08	443809	59715b4b50e2f000016fe00e	522786543	1	main_z	11	advance_on_keypress_ZEE	112	stimuli_distractor_trianglediamonds.svg	stimuli_target_diamondcircles.svg	27	yes	57	0	126
6.6.1	win	2022-12-14	16:00:41	16:08:09	444761	59715b4b50e2f000016fe00e	522786543	1	main_z	11	main_z	113	stimuli_distractor_diamondtriangles.svg	stimuli_distractor_diamondtriangles.svg	40	no	44	0	184
6.6.1	win	2022-12-14	16:00:41	16:08:09	444761	59715b4b50e2f000016fe00e	522786543	1	main_z	11	advance_on_keypress_ZEE	114	stimuli_distractor_diamondtriangles.svg	stimuli_distractor_diamondtriangles.svg	40	no	57	0	128
6.6.1	win	2022-12-14	16:00:41	16:08:09	445697	59715b4b50e2f000016fe00e	522786543	1	main_z	11	main_z	115	stimuli_target_circlediamonds.svg	stimuli_distractor_trianglediamonds.svg	2	yes	44	1	170
6.6.1	win	2022-12-14	16:00:41	16:08:09	445697	59715b4b50e2f000016fe00e	522786543	1	main_z	11	advance_on_keypress_ZEE	116	stimuli_target_circlediamonds.svg	stimuli_distractor_trianglediamonds.svg	2	yes	57	0	139
6.6.1	win	2022-12-14	16:00:41	16:08:10	446649	59715b4b50e2f000016fe00e	522786543	1	main_z	11	main_z	117	stimuli_distractor_diamondtriangles.svg	stimuli_target_diamondcircles.svg	31	yes	44	1	172
6.6.1	win	2022-12-14	16:00:41	16:08:10	446649	59715b4b50e2f000016fe00e	522786543	1	main_z	11	advance_on_keypress_ZEE	118	stimuli_distractor_diamondtriangles.svg	stimuli_target_diamondcircles.svg	31	yes	57	0	141
6.6.1	win	2022-12-14	16:00:41	16:08:11	447537	59715b4b50e2f000016fe00e	522786543	1	main_z	11	main_z	119	stimuli_distractor_trianglediamonds.svg	stimuli_target_trianglesquares.svg	26	yes	44	1	110
6.6.1	win	2022-12-14	16:00:41	16:08:11	447537	59715b4b50e2f000016fe00e	522786543	1	main_z	11	advance_on_keypress_ZEE	120	stimuli_distractor_trianglediamonds.svg	stimuli_target_trianglesquares.svg	26	yes	57	0	121
6.6.1	win	2022-12-14	16:00:41	16:08:12	448369	59715b4b50e2f000016fe00e	522786543	1	main_z	11	main_z	121	stimuli_distractor_trianglediamonds.svg	stimuli_target_circlediamonds.svg	10	yes	44	1	75
6.6.1	win	2022-12-14	16:00:41	16:08:12	448369	59715b4b50e2f000016fe00e	522786543	1	main_z	11	advance_on_keypress_ZEE	122	stimuli_distractor_trianglediamonds.svg	stimuli_target_circlediamonds.svg	10	yes	57	0	96
6.6.1	win	2022-12-14	16:00:41	16:08:13	449145	59715b4b50e2f000016fe00e	522786543	1	main_z	11	main_z	123	stimuli_distractor_trianglediamonds.svg	stimuli_target_squaretriangles.svg	11	yes	44	1	35
6.6.1	win	2022-12-14	16:00:41	16:08:13	449145	59715b4b50e2f000016fe00e	522786543	1	main_z	11	advance_on_keypress_ZEE	124	stimuli_distractor_trianglediamonds.svg	stimuli_target_squaretriangles.svg	11	yes	57	0	129
6.6.1	win	2022-12-14	16:00:41	16:08:14	449993	59715b4b50e2f000016fe00e	522786543	1	main_z	11	main_z	125	stimuli_target_diamondcircles.svg	stimuli_distractor_diamondtriangles.svg	23	yes	44	1	66
6.6.1	win	2022-12-14	16:00:41	16:08:14	449993	59715b4b50e2f000016fe00e	522786543	1	main_z	11	advance_on_keypress_ZEE	126	stimuli_target_diamondcircles.svg	stimuli_distractor_diamondtriangles.svg	23	yes	57	0	119
6.6.1	win	2022-12-14	16:00:41	16:08:15	450833	59715b4b50e2f000016fe00e	522786543	1	main_z	11	main_z	127	stimuli_distractor_trianglediamonds.svg	stimuli_target_circletriangles.svg	9	yes	44	1	73
6.6.1	win	2022-12-14	16:00:41	16:08:15	450833	59715b4b50e2f000016fe00e	522786543	1	main_z	11	advance_on_keypress_ZEE	128	stimuli_distractor_trianglediamonds.svg	stimuli_target_circletriangles.svg	9	yes	57	0	118
6.6.1	win	2022-12-14	16:00:41	16:08:15	451633	59715b4b50e2f000016fe00e	522786543	1	main_z	11	main_z	129	stimuli_target_squaretriangles.svg	stimuli_distractor_diamondtriangles.svg	7	yes	44	1	40
6.6.1	win	2022-12-14	16:00:41	16:08:15	451633	59715b4b50e2f000016fe00e	522786543	1	main_z	11	advance_on_keypress_ZEE	130	stimuli_target_squaretriangles.svg	stimuli_distractor_diamondtriangles.svg	7	yes	57	0	110
6.6.1	win	2022-12-14	16:00:41	16:08:16	452449	59715b4b50e2f000016fe00e	522786543	1	main_z	11	main_z	131	stimuli_target_trianglecircles.svg	stimuli_distractor_diamondtriangles.svg	21	yes	44	1	72
6.6.1	win	2022-12-14	16:00:41	16:08:16	452449	59715b4b50e2f000016fe00e	522786543	1	main_z	11	advance_on_keypress_ZEE	132	stimuli_target_trianglecircles.svg	stimuli_distractor_diamondtriangles.svg	21	yes	57	0	125
6.6.1	win	2022-12-14	16:00:41	16:08:17	453265	59715b4b50e2f000016fe00e	522786543	1	main_z	11	main_z	133	stimuli_target_squarediamonds.svg	stimuli_distractor_diamondtriangles.svg	8	yes	44	1	55
6.6.1	win	2022-12-14	16:00:41	16:08:17	453265	59715b4b50e2f000016fe00e	522786543	1	main_z	11	advance_on_keypress_ZEE	134	stimuli_target_squarediamonds.svg	stimuli_distractor_diamondtriangles.svg	8	yes	57	0	92
6.6.1	win	2022-12-14	16:00:41	16:08:18	454081	59715b4b50e2f000016fe00e	522786543	1	main_z	11	main_z	135	stimuli_target_diamondsquares.svg	stimuli_distractor_trianglediamonds.svg	20	yes	44	1	88
6.6.1	win	2022-12-14	16:00:41	16:08:18	454081	59715b4b50e2f000016fe00e	522786543	1	main_z	11	advance_on_keypress_ZEE	136	stimuli_target_diamondsquares.svg	stimuli_distractor_trianglediamonds.svg	20	yes	57	0	92
6.6.1	win	2022-12-14	16:00:41	16:08:19	454889	59715b4b50e2f000016fe00e	522786543	1	main_z	11	main_z	137	stimuli_distractor_trianglediamonds.svg	stimuli_distractor_trianglediamonds.svg	34	no	44	0	79
6.6.1	win	2022-12-14	16:00:41	16:08:19	454889	59715b4b50e2f000016fe00e	522786543	1	main_z	11	advance_on_keypress_ZEE	138	stimuli_distractor_trianglediamonds.svg	stimuli_distractor_trianglediamonds.svg	34	no	57	0	91
6.6.1	win	2022-12-14	16:00:41	16:08:20	455801	59715b4b50e2f000016fe00e	522786543	1	main_z	11	main_z	139	stimuli_distractor_trianglediamonds.svg	stimuli_target_squarediamonds.svg	12	yes	44	1	174
6.6.1	win	2022-12-14	16:00:41	16:08:20	455801	59715b4b50e2f000016fe00e	522786543	1	main_z	11	advance_on_keypress_ZEE	140	stimuli_distractor_trianglediamonds.svg	stimuli_target_squarediamonds.svg	12	yes	57	0	127
6.6.1	win	2022-12-14	16:00:41	16:08:20	456721	59715b4b50e2f000016fe00e	522786543	1	main_z	11	main_z	141	stimuli_distractor_trianglediamonds.svg	stimuli_distractor_trianglediamonds.svg	33	no	44	0	161
6.6.1	win	2022-12-14	16:00:41	16:08:20	456721	59715b4b50e2f000016fe00e	522786543	1	main_z	11	advance_on_keypress_ZEE	142	stimuli_distractor_trianglediamonds.svg	stimuli_distractor_trianglediamonds.svg	33	no	57	0	50
6.6.1	win	2022-12-14	16:00:41	16:08:21	457585	59715b4b50e2f000016fe00e	522786543	1	main_z	11	main_z	143	stimuli_target_trianglesquares.svg	stimuli_distractor_diamondtriangles.svg	22	yes	44	1	159
6.6.1	win	2022-12-14	16:00:41	16:08:21	457585	59715b4b50e2f000016fe00e	522786543	1	main_z	11	advance_on_keypress_ZEE	144	stimuli_target_trianglesquares.svg	stimuli_distractor_diamondtriangles.svg	22	yes	57	0	104
6.6.1	win	2022-12-14	16:00:41	16:08:22	458465	59715b4b50e2f000016fe00e	522786543	1	main_z	11	main_z	145	stimuli_distractor_trianglediamonds.svg	stimuli_distractor_diamondtriangles.svg	36	no	44	0	140
6.6.1	win	2022-12-14	16:00:41	16:08:22	458465	59715b4b50e2f000016fe00e	522786543	1	main_z	11	advance_on_keypress_ZEE	146	stimuli_distractor_trianglediamonds.svg	stimuli_distractor_diamondtriangles.svg	36	no	57	0	118
6.6.1	win	2022-12-14	16:00:41	16:08:23	459377	59715b4b50e2f000016fe00e	522786543	1	main_z	11	main_z	147	stimuli_distractor_trianglediamonds.svg	stimuli_target_trianglecircles.svg	25	yes	44	1	152
6.6.1	win	2022-12-14	16:00:41	16:08:23	459377	59715b4b50e2f000016fe00e	522786543	1	main_z	11	advance_on_keypress_ZEE	148	stimuli_distractor_trianglediamonds.svg	stimuli_target_trianglecircles.svg	25	yes	57	0	104
6.6.1	win	2022-12-14	16:00:41	16:08:24	460297	59715b4b50e2f000016fe00e	522786543	1	main_z	11	main_z	149	stimuli_target_trianglesquares.svg	stimuli_distractor_trianglediamonds.svg	18	yes	44	1	172
6.6.1	win	2022-12-14	16:00:41	16:08:24	460297	59715b4b50e2f000016fe00e	522786543	1	main_z	11	advance_on_keypress_ZEE	150	stimuli_target_trianglesquares.svg	stimuli_distractor_trianglediamonds.svg	18	yes	57	0	84
6.6.1	win	2022-12-14	16:00:41	16:08:25	461177	59715b4b50e2f000016fe00e	522786543	1	main_z	11	main_z	151	stimuli_distractor_diamondtriangles.svg	stimuli_target_circletriangles.svg	13	yes	44	1	152
6.6.1	win	2022-12-14	16:00:41	16:08:25	461177	59715b4b50e2f000016fe00e	522786543	1	main_z	11	advance_on_keypress_ZEE	152	stimuli_distractor_diamondtriangles.svg	stimuli_target_circletriangles.svg	13	yes	57	0	64
6.6.1	win	2022-12-14	16:00:41	16:08:26	462090	59715b4b50e2f000016fe00e	522786543	1	main_z	11	main_z	153	stimuli_target_circletriangles.svg	stimuli_distractor_diamondtriangles.svg	5	yes	44	1	197
6.6.1	win	2022-12-14	16:00:41	16:08:26	462090	59715b4b50e2f000016fe00e	522786543	1	main_z	11	advance_on_keypress_ZEE	154	stimuli_target_circletriangles.svg	stimuli_distractor_diamondtriangles.svg	5	yes	57	0	68
6.6.1	win	2022-12-14	16:00:41	16:08:27	462961	59715b4b50e2f000016fe00e	522786543	1	main_z	11	main_z	155	stimuli_target_trianglecircles.svg	stimuli_distractor_trianglediamonds.svg	17	yes	44	1	152
6.6.1	win	2022-12-14	16:00:41	16:08:27	462961	59715b4b50e2f000016fe00e	522786543	1	main_z	11	advance_on_keypress_ZEE	156	stimuli_target_trianglecircles.svg	stimuli_distractor_trianglediamonds.svg	17	yes	57	0	90
6.6.1	win	2022-12-14	16:00:41	16:08:28	463826	59715b4b50e2f000016fe00e	522786543	1	main_z	11	main_z	157	stimuli_distractor_diamondtriangles.svg	stimuli_distractor_trianglediamonds.svg	37	no	44	0	127
6.6.1	win	2022-12-14	16:00:41	16:08:28	463826	59715b4b50e2f000016fe00e	522786543	1	main_z	11	advance_on_keypress_ZEE	158	stimuli_distractor_diamondtriangles.svg	stimuli_distractor_trianglediamonds.svg	37	no	57	0	111
6.6.1	win	2022-12-14	16:00:41	16:08:28	464707	59715b4b50e2f000016fe00e	522786543	1	main_z	11	main_z	159	stimuli_target_squaretriangles.svg	stimuli_distractor_trianglediamonds.svg	3	yes	44	1	122
6.6.1	win	2022-12-14	16:00:41	16:08:28	464707	59715b4b50e2f000016fe00e	522786543	1	main_z	11	advance_on_keypress_ZEE	160	stimuli_target_squaretriangles.svg	stimuli_distractor_trianglediamonds.svg	3	yes	57	0	116