build	computer.platform	date	time	timestamp	time_elapsed_ms	subject	group	session	blockcode	blocknum	trialcode	trialnum	stimulus_left	stimulus_right	stim_index	target_present	response	correct	latency
6.6.1	win	2022-12-14	15:09:34	15:15:00	323347	5e387f2c0d70ef099d5e5a4f	596661261	1	practice_slash	5	practice_slash	1	stimuli_distractor_trianglediamonds.svg	stimuli_distractor_trianglediamonds.svg	15	no	53	0	1257
6.6.1	win	2022-12-14	15:09:34	15:15:00	323347	5e387f2c0d70ef099d5e5a4f	596661261	1	practice_slash	5	advance_on_keypress_SLASH	2	stimuli_distractor_trianglediamonds.svg	stimuli_distractor_trianglediamonds.svg	15	no	57	0	1776
6.6.1	win	2022-12-14	15:09:34	15:15:05	328790	5e387f2c0d70ef099d5e5a4f	596661261	1	practice_slash	5	practice_slash	3	stimuli_distractor_diamondtriangles.svg	stimuli_target_diamondcircles.svg	8	yes	0	0	2000
6.6.1	win	2022-12-14	15:09:34	15:15:05	328790	5e387f2c0d70ef099d5e5a4f	596661261	1	practice_slash	5	advance_on_keypress_SLASH	4	stimuli_distractor_diamondtriangles.svg	stimuli_target_diamondcircles.svg	8	yes	57	0	1248
6.6.1	win	2022-12-14	15:09:34	15:15:09	332630	5e387f2c0d70ef099d5e5a4f	596661261	1	practice_slash	5	practice_slash	5	stimuli_target_squarediamonds.svg	stimuli_distractor_trianglediamonds.svg	5	yes	53	1	923
6.6.1	win	2022-12-14	15:09:34	15:15:09	332630	5e387f2c0d70ef099d5e5a4f	596661261	1	practice_slash	5	advance_on_keypress_SLASH	6	stimuli_target_squarediamonds.svg	stimuli_distractor_trianglediamonds.svg	5	yes	57	0	645
6.6.1	win	2022-12-14	15:09:34	15:15:13	336227	5e387f2c0d70ef099d5e5a4f	596661261	1	practice_slash	5	practice_slash	7	stimuli_distractor_diamondtriangles.svg	stimuli_target_trianglecircles.svg	9	yes	53	1	1304
6.6.1	win	2022-12-14	15:09:34	15:15:13	336227	5e387f2c0d70ef099d5e5a4f	596661261	1	practice_slash	5	advance_on_keypress_SLASH	8	stimuli_distractor_diamondtriangles.svg	stimuli_target_trianglecircles.svg	9	yes	57	0	605
6.6.1	win	2022-12-14	15:09:34	15:15:17	340475	5e387f2c0d70ef099d5e5a4f	596661261	1	practice_slash	5	practice_slash	9	stimuli_distractor_diamondtriangles.svg	stimuli_distractor_diamondtriangles.svg	13	no	0	1	2000
6.6.1	win	2022-12-14	15:09:34	15:15:17	340475	5e387f2c0d70ef099d5e5a4f	596661261	1	practice_slash	5	advance_on_keypress_SLASH	10	stimuli_distractor_diamondtriangles.svg	stimuli_distractor_diamondtriangles.svg	13	no	57	0	493
6.6.1	win	2022-12-14	15:09:34	15:15:21	344624	5e387f2c0d70ef099d5e5a4f	596661261	1	practice_slash	5	practice_slash	11	stimuli_distractor_trianglediamonds.svg	stimuli_distractor_diamondtriangles.svg	16	no	0	1	2000
6.6.1	win	2022-12-14	15:09:34	15:15:21	344624	5e387f2c0d70ef099d5e5a4f	596661261	1	practice_slash	5	advance_on_keypress_SLASH	12	stimuli_distractor_trianglediamonds.svg	stimuli_distractor_diamondtriangles.svg	16	no	57	0	483
6.6.1	win	2022-12-14	15:09:34	15:15:25	348757	5e387f2c0d70ef099d5e5a4f	596661261	1	practice_slash	5	practice_slash	13	stimuli_distractor_trianglediamonds.svg	stimuli_target_diamondcircles.svg	12	yes	0	0	2000
6.6.1	win	2022-12-14	15:09:34	15:15:25	348757	5e387f2c0d70ef099d5e5a4f	596661261	1	practice_slash	5	advance_on_keypress_SLASH	14	stimuli_distractor_trianglediamonds.svg	stimuli_target_diamondcircles.svg	12	yes	57	0	714
6.6.1	win	2022-12-14	15:09:34	15:15:30	353125	5e387f2c0d70ef099d5e5a4f	596661261	1	practice_slash	5	practice_slash	15	stimuli_target_diamondsquares.svg	stimuli_distractor_trianglediamonds.svg	6	yes	0	0	2000
6.6.1	win	2022-12-14	15:09:34	15:15:30	353125	5e387f2c0d70ef099d5e5a4f	596661261	1	practice_slash	5	advance_on_keypress_SLASH	16	stimuli_target_diamondsquares.svg	stimuli_distractor_trianglediamonds.svg	6	yes	57	0	593
6.6.1	win	2022-12-14	15:09:34	15:15:33	356546	5e387f2c0d70ef099d5e5a4f	596661261	1	practice_slash	5	practice_slash	17	stimuli_target_squarediamonds.svg	stimuli_distractor_diamondtriangles.svg	2	yes	53	1	1171
6.6.1	win	2022-12-14	15:09:34	15:15:33	356546	5e387f2c0d70ef099d5e5a4f	596661261	1	practice_slash	5	advance_on_keypress_SLASH	18	stimuli_target_squarediamonds.svg	stimuli_distractor_diamondtriangles.svg	2	yes	57	0	572
6.6.1	win	2022-12-14	15:09:34	15:15:36	359770	5e387f2c0d70ef099d5e5a4f	596661261	1	practice_slash	5	practice_slash	19	stimuli_target_circlediamonds.svg	stimuli_distractor_trianglediamonds.svg	4	yes	53	1	996
6.6.1	win	2022-12-14	15:09:34	15:15:36	359770	5e387f2c0d70ef099d5e5a4f	596661261	1	practice_slash	5	advance_on_keypress_SLASH	20	stimuli_target_circlediamonds.svg	stimuli_distractor_trianglediamonds.svg	4	yes	57	0	537
6.6.1	win	2022-12-14	15:09:34	15:15:39	362959	5e387f2c0d70ef099d5e5a4f	596661261	1	practice_slash	5	practice_slash	21	stimuli_distractor_trianglediamonds.svg	stimuli_target_squarediamonds.svg	11	yes	53	1	1001
6.6.1	win	2022-12-14	15:09:34	15:15:39	362959	5e387f2c0d70ef099d5e5a4f	596661261	1	practice_slash	5	advance_on_keypress_SLASH	22	stimuli_distractor_trianglediamonds.svg	stimuli_target_squarediamonds.svg	11	yes	57	0	736
6.6.1	win	2022-12-14	15:09:34	15:15:44	367342	5e387f2c0d70ef099d5e5a4f	596661261	1	practice_slash	5	practice_slash	23	stimuli_distractor_diamondtriangles.svg	stimuli_distractor_trianglediamonds.svg	14	no	0	1	2000
6.6.1	win	2022-12-14	15:09:34	15:15:44	367342	5e387f2c0d70ef099d5e5a4f	596661261	1	practice_slash	5	advance_on_keypress_SLASH	24	stimuli_distractor_diamondtriangles.svg	stimuli_distractor_trianglediamonds.svg	14	no	57	0	644
6.6.1	win	2022-12-14	15:09:34	15:15:47	370520	5e387f2c0d70ef099d5e5a4f	596661261	1	practice_slash	5	practice_slash	25	stimuli_distractor_trianglediamonds.svg	stimuli_target_circlediamonds.svg	10	yes	53	1	879
6.6.1	win	2022-12-14	15:09:34	15:15:47	370520	5e387f2c0d70ef099d5e5a4f	596661261	1	practice_slash	5	advance_on_keypress_SLASH	26	stimuli_distractor_trianglediamonds.svg	stimuli_target_circlediamonds.svg	10	yes	57	0	1622
6.6.1	win	2022-12-14	15:09:34	15:15:51	374713	5e387f2c0d70ef099d5e5a4f	596661261	1	practice_slash	5	practice_slash	27	stimuli_target_circlediamonds.svg	stimuli_distractor_diamondtriangles.svg	1	yes	53	1	922
6.6.1	win	2022-12-14	15:09:34	15:15:51	374713	5e387f2c0d70ef099d5e5a4f	596661261	1	practice_slash	5	advance_on_keypress_SLASH	28	stimuli_target_circlediamonds.svg	stimuli_distractor_diamondtriangles.svg	1	yes	57	0	836
6.6.1	win	2022-12-14	15:09:34	15:15:54	377870	5e387f2c0d70ef099d5e5a4f	596661261	1	practice_slash	5	practice_slash	29	stimuli_distractor_diamondtriangles.svg	stimuli_target_circletriangles.svg	7	yes	53	1	679
6.6.1	win	2022-12-14	15:09:34	15:15:54	377870	5e387f2c0d70ef099d5e5a4f	596661261	1	practice_slash	5	advance_on_keypress_SLASH	30	stimuli_distractor_diamondtriangles.svg	stimuli_target_circletriangles.svg	7	yes	57	0	386
6.6.1	win	2022-12-14	15:09:34	15:15:58	381909	5e387f2c0d70ef099d5e5a4f	596661261	1	practice_slash	5	practice_slash	31	stimuli_target_diamondsquares.svg	stimuli_distractor_diamondtriangles.svg	3	yes	0	0	2000
6.6.1	win	2022-12-14	15:09:34	15:15:58	381909	5e387f2c0d70ef099d5e5a4f	596661261	1	practice_slash	5	advance_on_keypress_SLASH	32	stimuli_target_diamondsquares.svg	stimuli_distractor_diamondtriangles.svg	3	yes	57	0	303
6.6.1	win	2022-12-14	15:09:34	15:16:07	390790	5e387f2c0d70ef099d5e5a4f	596661261	1	main_slash	7	main_slash	1	stimuli_target_circletriangles.svg	stimuli_distractor_diamondtriangles.svg	5	yes	0	0	2000
6.6.1	win	2022-12-14	15:09:34	15:16:07	390790	5e387f2c0d70ef099d5e5a4f	596661261	1	main_slash	7	advance_on_keypress_SLASH	2	stimuli_target_circletriangles.svg	stimuli_distractor_diamondtriangles.svg	5	yes	57	0	1451
6.6.1	win	2022-12-14	15:09:34	15:16:10	393717	5e387f2c0d70ef099d5e5a4f	596661261	1	main_slash	7	main_slash	3	stimuli_target_squaretriangles.svg	stimuli_distractor_diamondtriangles.svg	7	yes	53	1	827
6.6.1	win	2022-12-14	15:09:34	15:16:10	393717	5e387f2c0d70ef099d5e5a4f	596661261	1	main_slash	7	advance_on_keypress_SLASH	4	stimuli_target_squaretriangles.svg	stimuli_distractor_diamondtriangles.svg	7	yes	57	0	729
6.6.1	win	2022-12-14	15:09:34	15:16:12	395728	5e387f2c0d70ef099d5e5a4f	596661261	1	main_slash	7	main_slash	5	stimuli_distractor_trianglediamonds.svg	stimuli_target_squaretriangles.svg	11	yes	53	1	622
6.6.1	win	2022-12-14	15:09:34	15:16:12	395728	5e387f2c0d70ef099d5e5a4f	596661261	1	main_slash	7	advance_on_keypress_SLASH	6	stimuli_distractor_trianglediamonds.svg	stimuli_target_squaretriangles.svg	11	yes	57	0	878
6.6.1	win	2022-12-14	15:09:34	15:16:15	399040	5e387f2c0d70ef099d5e5a4f	596661261	1	main_slash	7	main_slash	7	stimuli_distractor_diamondtriangles.svg	stimuli_target_diamondsquares.svg	32	yes	53	1	1783
6.6.1	win	2022-12-14	15:09:34	15:16:15	399040	5e387f2c0d70ef099d5e5a4f	596661261	1	main_slash	7	advance_on_keypress_SLASH	8	stimuli_distractor_diamondtriangles.svg	stimuli_target_diamondsquares.svg	32	yes	57	0	700
6.6.1	win	2022-12-14	15:09:34	15:16:19	402181	5e387f2c0d70ef099d5e5a4f	596661261	1	main_slash	7	main_slash	9	stimuli_target_trianglecircles.svg	stimuli_distractor_trianglediamonds.svg	17	yes	53	1	1791
6.6.1	win	2022-12-14	15:09:34	15:16:19	402181	5e387f2c0d70ef099d5e5a4f	596661261	1	main_slash	7	advance_on_keypress_SLASH	10	stimuli_target_trianglecircles.svg	stimuli_distractor_trianglediamonds.svg	17	yes	57	0	721
6.6.1	win	2022-12-14	15:09:34	15:16:22	405437	5e387f2c0d70ef099d5e5a4f	596661261	1	main_slash	7	main_slash	11	stimuli_distractor_trianglediamonds.svg	stimuli_target_trianglecircles.svg	25	yes	53	1	1897
6.6.1	win	2022-12-14	15:09:34	15:16:22	405437	5e387f2c0d70ef099d5e5a4f	596661261	1	main_slash	7	advance_on_keypress_SLASH	12	stimuli_distractor_trianglediamonds.svg	stimuli_target_trianglecircles.svg	25	yes	57	0	624
6.6.1	win	2022-12-14	15:09:34	15:16:25	408710	5e387f2c0d70ef099d5e5a4f	596661261	1	main_slash	7	main_slash	13	stimuli_target_diamondsquares.svg	stimuli_distractor_trianglediamonds.svg	20	yes	0	0	2000
6.6.1	win	2022-12-14	15:09:34	15:16:25	408710	5e387f2c0d70ef099d5e5a4f	596661261	1	main_slash	7	advance_on_keypress_SLASH	14	stimuli_target_diamondsquares.svg	stimuli_distractor_trianglediamonds.svg	20	yes	57	0	761
6.6.1	win	2022-12-14	15:09:34	15:16:29	412123	5e387f2c0d70ef099d5e5a4f	596661261	1	main_slash	7	main_slash	15	stimuli_distractor_trianglediamonds.svg	stimuli_distractor_diamondtriangles.svg	36	no	0	1	2000
6.6.1	win	2022-12-14	15:09:34	15:16:29	412123	5e387f2c0d70ef099d5e5a4f	596661261	1	main_slash	7	advance_on_keypress_SLASH	16	stimuli_distractor_trianglediamonds.svg	stimuli_distractor_diamondtriangles.svg	36	no	57	0	634
6.6.1	win	2022-12-14	15:09:34	15:16:32	415407	5e387f2c0d70ef099d5e5a4f	596661261	1	main_slash	7	main_slash	17	stimuli_distractor_diamondtriangles.svg	stimuli_distractor_diamondtriangles.svg	40	no	0	1	2000
6.6.1	win	2022-12-14	15:09:34	15:16:32	415407	5e387f2c0d70ef099d5e5a4f	596661261	1	main_slash	7	advance_on_keypress_SLASH	18	stimuli_distractor_diamondtriangles.svg	stimuli_distractor_diamondtriangles.svg	40	no	57	0	424
6.6.1	win	2022-12-14	15:09:34	15:16:34	417762	5e387f2c0d70ef099d5e5a4f	596661261	1	main_slash	7	main_slash	19	stimuli_target_trianglesquares.svg	stimuli_distractor_trianglediamonds.svg	18	yes	53	1	1288
6.6.1	win	2022-12-14	15:09:34	15:16:34	417762	5e387f2c0d70ef099d5e5a4f	596661261	1	main_slash	7	advance_on_keypress_SLASH	20	stimuli_target_trianglesquares.svg	stimuli_distractor_trianglediamonds.svg	18	yes	57	0	664
6.6.1	win	2022-12-14	15:09:34	15:16:37	421073	5e387f2c0d70ef099d5e5a4f	596661261	1	main_slash	7	main_slash	21	stimuli_distractor_diamondtriangles.svg	stimuli_target_trianglecircles.svg	29	yes	0	0	2000
6.6.1	win	2022-12-14	15:09:34	15:16:37	421073	5e387f2c0d70ef099d5e5a4f	596661261	1	main_slash	7	advance_on_keypress_SLASH	22	stimuli_distractor_diamondtriangles.svg	stimuli_target_trianglecircles.svg	29	yes	57	0	483
6.6.1	win	2022-12-14	15:09:34	15:16:41	424207	5e387f2c0d70ef099d5e5a4f	596661261	1	main_slash	7	main_slash	23	stimuli_distractor_diamondtriangles.svg	stimuli_distractor_diamondtriangles.svg	39	no	0	1	2000
6.6.1	win	2022-12-14	15:09:34	15:16:41	424207	5e387f2c0d70ef099d5e5a4f	596661261	1	main_slash	7	advance_on_keypress_SLASH	24	stimuli_distractor_diamondtriangles.svg	stimuli_distractor_diamondtriangles.svg	39	no	57	0	452
6.6.1	win	2022-12-14	15:09:34	15:16:43	426092	5e387f2c0d70ef099d5e5a4f	596661261	1	main_slash	7	main_slash	25	stimuli_target_circlediamonds.svg	stimuli_distractor_trianglediamonds.svg	2	yes	53	1	785
6.6.1	win	2022-12-14	15:09:34	15:16:43	426092	5e387f2c0d70ef099d5e5a4f	596661261	1	main_slash	7	advance_on_keypress_SLASH	26	stimuli_target_circlediamonds.svg	stimuli_distractor_trianglediamonds.svg	2	yes	57	0	591
6.6.1	win	2022-12-14	15:09:34	15:16:44	427880	5e387f2c0d70ef099d5e5a4f	596661261	1	main_slash	7	main_slash	27	stimuli_distractor_diamondtriangles.svg	stimuli_target_circletriangles.svg	13	yes	53	1	557
6.6.1	win	2022-12-14	15:09:34	15:16:44	427880	5e387f2c0d70ef099d5e5a4f	596661261	1	main_slash	7	advance_on_keypress_SLASH	28	stimuli_distractor_diamondtriangles.svg	stimuli_target_circletriangles.svg	13	yes	57	0	666
6.6.1	win	2022-12-14	15:09:34	15:16:48	431191	5e387f2c0d70ef099d5e5a4f	596661261	1	main_slash	7	main_slash	29	stimuli_distractor_trianglediamonds.svg	stimuli_distractor_diamondtriangles.svg	35	no	0	1	2000
6.6.1	win	2022-12-14	15:09:34	15:16:48	431191	5e387f2c0d70ef099d5e5a4f	596661261	1	main_slash	7	advance_on_keypress_SLASH	30	stimuli_distractor_trianglediamonds.svg	stimuli_distractor_diamondtriangles.svg	35	no	57	0	632
6.6.1	win	2022-12-14	15:09:34	15:16:51	434474	5e387f2c0d70ef099d5e5a4f	596661261	1	main_slash	7	main_slash	31	stimuli_distractor_trianglediamonds.svg	stimuli_distractor_trianglediamonds.svg	34	no	0	1	2000
6.6.1	win	2022-12-14	15:09:34	15:16:51	434474	5e387f2c0d70ef099d5e5a4f	596661261	1	main_slash	7	advance_on_keypress_SLASH	32	stimuli_distractor_trianglediamonds.svg	stimuli_distractor_trianglediamonds.svg	34	no	57	0	664
6.6.1	win	2022-12-14	15:09:34	15:16:53	436977	5e387f2c0d70ef099d5e5a4f	596661261	1	main_slash	7	main_slash	33	stimuli_target_trianglesquares.svg	stimuli_distractor_diamondtriangles.svg	22	yes	53	1	1186
6.6.1	win	2022-12-14	15:09:34	15:16:53	436977	5e387f2c0d70ef099d5e5a4f	596661261	1	main_slash	7	advance_on_keypress_SLASH	34	stimuli_target_trianglesquares.svg	stimuli_distractor_diamondtriangles.svg	22	yes	57	0	707
6.6.1	win	2022-12-14	15:09:34	15:16:57	440324	5e387f2c0d70ef099d5e5a4f	596661261	1	main_slash	7	main_slash	35	stimuli_distractor_diamondtriangles.svg	stimuli_target_squaretriangles.svg	15	yes	0	0	2000
6.6.1	win	2022-12-14	15:09:34	15:16:57	440324	5e387f2c0d70ef099d5e5a4f	596661261	1	main_slash	7	advance_on_keypress_SLASH	36	stimuli_distractor_diamondtriangles.svg	stimuli_target_squaretriangles.svg	15	yes	57	0	625
6.6.1	win	2022-12-14	15:09:34	15:16:59	442566	5e387f2c0d70ef099d5e5a4f	596661261	1	main_slash	7	main_slash	37	stimuli_target_diamondcircles.svg	stimuli_distractor_diamondtriangles.svg	23	yes	53	1	975
6.6.1	win	2022-12-14	15:09:34	15:16:59	442566	5e387f2c0d70ef099d5e5a4f	596661261	1	main_slash	7	advance_on_keypress_SLASH	38	stimuli_target_diamondcircles.svg	stimuli_distractor_diamondtriangles.svg	23	yes	57	0	1042
6.6.1	win	2022-12-14	15:09:34	15:17:02	446073	5e387f2c0d70ef099d5e5a4f	596661261	1	main_slash	7	main_slash	39	stimuli_distractor_trianglediamonds.svg	stimuli_target_diamondsquares.svg	28	yes	53	1	1832
6.6.1	win	2022-12-14	15:09:34	15:17:02	446073	5e387f2c0d70ef099d5e5a4f	596661261	1	main_slash	7	advance_on_keypress_SLASH	40	stimuli_distractor_trianglediamonds.svg	stimuli_target_diamondsquares.svg	28	yes	57	0	620
6.6.1	win	2022-12-14	15:09:34	15:17:05	448534	5e387f2c0d70ef099d5e5a4f	596661261	1	main_slash	7	main_slash	41	stimuli_target_squarediamonds.svg	stimuli_distractor_diamondtriangles.svg	8	yes	53	1	1194
6.6.1	win	2022-12-14	15:09:34	15:17:05	448534	5e387f2c0d70ef099d5e5a4f	596661261	1	main_slash	7	advance_on_keypress_SLASH	42	stimuli_target_squarediamonds.svg	stimuli_distractor_diamondtriangles.svg	8	yes	57	0	519
6.6.1	win	2022-12-14	15:09:34	15:17:07	450395	5e387f2c0d70ef099d5e5a4f	596661261	1	main_slash	7	main_slash	43	stimuli_target_circlediamonds.svg	stimuli_distractor_diamondtriangles.svg	6	yes	53	1	705
6.6.1	win	2022-12-14	15:09:34	15:17:07	450395	5e387f2c0d70ef099d5e5a4f	596661261	1	main_slash	7	advance_on_keypress_SLASH	44	stimuli_target_circlediamonds.svg	stimuli_distractor_diamondtriangles.svg	6	yes	57	0	568
6.6.1	win	2022-12-14	15:09:34	15:17:09	452297	5e387f2c0d70ef099d5e5a4f	596661261	1	main_slash	7	main_slash	45	stimuli_distractor_trianglediamonds.svg	stimuli_target_circlediamonds.svg	10	yes	53	1	690
6.6.1	win	2022-12-14	15:09:34	15:17:09	452297	5e387f2c0d70ef099d5e5a4f	596661261	1	main_slash	7	advance_on_keypress_SLASH	46	stimuli_distractor_trianglediamonds.svg	stimuli_target_circlediamonds.svg	10	yes	57	0	762
6.6.1	win	2022-12-14	15:09:34	15:17:12	455626	5e387f2c0d70ef099d5e5a4f	596661261	1	main_slash	7	main_slash	47	stimuli_target_diamondcircles.svg	stimuli_distractor_trianglediamonds.svg	19	yes	53	1	1918
6.6.1	win	2022-12-14	15:09:34	15:17:12	455626	5e387f2c0d70ef099d5e5a4f	596661261	1	main_slash	7	advance_on_keypress_SLASH	48	stimuli_target_diamondcircles.svg	stimuli_distractor_trianglediamonds.svg	19	yes	57	0	513
6.6.1	win	2022-12-14	15:09:34	15:17:14	457587	5e387f2c0d70ef099d5e5a4f	596661261	1	main_slash	7	main_slash	49	stimuli_distractor_trianglediamonds.svg	stimuli_target_circletriangles.svg	9	yes	53	1	796
6.6.1	win	2022-12-14	15:09:34	15:17:14	457587	5e387f2c0d70ef099d5e5a4f	596661261	1	main_slash	7	advance_on_keypress_SLASH	50	stimuli_distractor_trianglediamonds.svg	stimuli_target_circletriangles.svg	9	yes	57	0	695
6.6.1	win	2022-12-14	15:09:34	15:17:16	459756	5e387f2c0d70ef099d5e5a4f	596661261	1	main_slash	7	main_slash	51	stimuli_target_squarediamonds.svg	stimuli_distractor_trianglediamonds.svg	4	yes	53	1	815
6.6.1	win	2022-12-14	15:09:34	15:17:16	459756	5e387f2c0d70ef099d5e5a4f	596661261	1	main_slash	7	advance_on_keypress_SLASH	52	stimuli_target_squarediamonds.svg	stimuli_distractor_trianglediamonds.svg	4	yes	57	0	548
6.6.1	win	2022-12-14	15:09:34	15:17:18	461723	5e387f2c0d70ef099d5e5a4f	596661261	1	main_slash	7	main_slash	53	stimuli_target_squaretriangles.svg	stimuli_distractor_trianglediamonds.svg	3	yes	53	1	765
6.6.1	win	2022-12-14	15:09:34	15:17:18	461723	5e387f2c0d70ef099d5e5a4f	596661261	1	main_slash	7	advance_on_keypress_SLASH	54	stimuli_target_squaretriangles.svg	stimuli_distractor_trianglediamonds.svg	3	yes	57	0	605
6.6.1	win	2022-12-14	15:09:34	15:17:20	463835	5e387f2c0d70ef099d5e5a4f	596661261	1	main_slash	7	main_slash	55	stimuli_target_trianglecircles.svg	stimuli_distractor_diamondtriangles.svg	21	yes	53	1	860
6.6.1	win	2022-12-14	15:09:34	15:17:20	463835	5e387f2c0d70ef099d5e5a4f	596661261	1	main_slash	7	advance_on_keypress_SLASH	56	stimuli_target_trianglecircles.svg	stimuli_distractor_diamondtriangles.svg	21	yes	57	0	628
6.6.1	win	2022-12-14	15:09:34	15:17:23	466423	5e387f2c0d70ef099d5e5a4f	596661261	1	main_slash	7	main_slash	57	stimuli_distractor_trianglediamonds.svg	stimuli_target_squarediamonds.svg	12	yes	53	1	1315
6.6.1	win	2022-12-14	15:09:34	15:17:23	466423	5e387f2c0d70ef099d5e5a4f	596661261	1	main_slash	7	advance_on_keypress_SLASH	58	stimuli_distractor_trianglediamonds.svg	stimuli_target_squarediamonds.svg	12	yes	57	0	549
6.6.1	win	2022-12-14	15:09:34	15:17:26	469625	5e387f2c0d70ef099d5e5a4f	596661261	1	main_slash	7	main_slash	59	stimuli_distractor_trianglediamonds.svg	stimuli_target_diamondcircles.svg	27	yes	0	0	2000
6.6.1	win	2022-12-14	15:09:34	15:17:26	469625	5e387f2c0d70ef099d5e5a4f	596661261	1	main_slash	7	advance_on_keypress_SLASH	60	stimuli_distractor_trianglediamonds.svg	stimuli_target_diamondcircles.svg	27	yes	57	0	498
6.6.1	win	2022-12-14	15:09:34	15:17:29	472808	5e387f2c0d70ef099d5e5a4f	596661261	1	main_slash	7	main_slash	61	stimuli_distractor_trianglediamonds.svg	stimuli_distractor_trianglediamonds.svg	33	no	0	1	2000
6.6.1	win	2022-12-14	15:09:34	15:17:29	472808	5e387f2c0d70ef099d5e5a4f	596661261	1	main_slash	7	advance_on_keypress_SLASH	62	stimuli_distractor_trianglediamonds.svg	stimuli_distractor_trianglediamonds.svg	33	no	57	0	435
6.6.1	win	2022-12-14	15:09:34	15:17:32	475892	5e387f2c0d70ef099d5e5a4f	596661261	1	main_slash	7	main_slash	63	stimuli_distractor_diamondtriangles.svg	stimuli_distractor_trianglediamonds.svg	38	no	0	1	2000
6.6.1	win	2022-12-14	15:09:34	15:17:32	475892	5e387f2c0d70ef099d5e5a4f	596661261	1	main_slash	7	advance_on_keypress_SLASH	64	stimuli_distractor_diamondtriangles.svg	stimuli_distractor_trianglediamonds.svg	38	no	57	0	461
6.6.1	win	2022-12-14	15:09:34	15:17:34	477875	5e387f2c0d70ef099d5e5a4f	596661261	1	main_slash	7	main_slash	65	stimuli_distractor_diamondtriangles.svg	stimuli_target_circlediamonds.svg	14	yes	53	1	884
6.6.1	win	2022-12-14	15:09:34	15:17:34	477875	5e387f2c0d70ef099d5e5a4f	596661261	1	main_slash	7	advance_on_keypress_SLASH	66	stimuli_distractor_diamondtriangles.svg	stimuli_target_circlediamonds.svg	14	yes	57	0	576
6.6.1	win	2022-12-14	15:09:34	15:17:37	480204	5e387f2c0d70ef099d5e5a4f	596661261	1	main_slash	7	main_slash	67	stimuli_target_diamondsquares.svg	stimuli_distractor_diamondtriangles.svg	24	yes	53	1	1111
6.6.1	win	2022-12-14	15:09:34	15:17:37	480204	5e387f2c0d70ef099d5e5a4f	596661261	1	main_slash	7	advance_on_keypress_SLASH	68	stimuli_target_diamondsquares.svg	stimuli_distractor_diamondtriangles.svg	24	yes	57	0	452
6.6.1	win	2022-12-14	15:09:34	15:17:39	482225	5e387f2c0d70ef099d5e5a4f	596661261	1	main_slash	7	main_slash	69	stimuli_distractor_diamondtriangles.svg	stimuli_target_trianglesquares.svg	30	yes	53	1	916
6.6.1	win	2022-12-14	15:09:34	15:17:39	482225	5e387f2c0d70ef099d5e5a4f	596661261	1	main_slash	7	advance_on_keypress_SLASH	70	stimuli_distractor_diamondtriangles.svg	stimuli_target_trianglesquares.svg	30	yes	57	0	522
6.6.1	win	2022-12-14	15:09:34	15:17:41	484335	5e387f2c0d70ef099d5e5a4f	596661261	1	main_slash	7	main_slash	71	stimuli_distractor_diamondtriangles.svg	stimuli_target_diamondcircles.svg	31	yes	53	1	943
6.6.1	win	2022-12-14	15:09:34	15:17:41	484335	5e387f2c0d70ef099d5e5a4f	596661261	1	main_slash	7	advance_on_keypress_SLASH	72	stimuli_distractor_diamondtriangles.svg	stimuli_target_diamondcircles.svg	31	yes	57	0	435
6.6.1	win	2022-12-14	15:09:34	15:17:44	487408	5e387f2c0d70ef099d5e5a4f	596661261	1	main_slash	7	main_slash	73	stimuli_distractor_diamondtriangles.svg	stimuli_distractor_trianglediamonds.svg	37	no	0	1	2000
6.6.1	win	2022-12-14	15:09:34	15:17:44	487408	5e387f2c0d70ef099d5e5a4f	596661261	1	main_slash	7	advance_on_keypress_SLASH	74	stimuli_distractor_diamondtriangles.svg	stimuli_distractor_trianglediamonds.svg	37	no	57	0	462
6.6.1	win	2022-12-14	15:09:34	15:17:46	489338	5e387f2c0d70ef099d5e5a4f	596661261	1	main_slash	7	main_slash	75	stimuli_distractor_diamondtriangles.svg	stimuli_target_squarediamonds.svg	16	yes	53	1	813
6.6.1	win	2022-12-14	15:09:34	15:17:46	489338	5e387f2c0d70ef099d5e5a4f	596661261	1	main_slash	7	advance_on_keypress_SLASH	76	stimuli_distractor_diamondtriangles.svg	stimuli_target_squarediamonds.svg	16	yes	57	0	572
6.6.1	win	2022-12-14	15:09:34	15:17:48	491639	5e387f2c0d70ef099d5e5a4f	596661261	1	main_slash	7	main_slash	77	stimuli_distractor_trianglediamonds.svg	stimuli_target_trianglesquares.svg	26	yes	53	1	1080
6.6.1	win	2022-12-14	15:09:34	15:17:48	491639	5e387f2c0d70ef099d5e5a4f	596661261	1	main_slash	7	advance_on_keypress_SLASH	78	stimuli_distractor_trianglediamonds.svg	stimuli_target_trianglesquares.svg	26	yes	57	0	495
6.6.1	win	2022-12-14	15:09:34	15:17:50	493837	5e387f2c0d70ef099d5e5a4f	596661261	1	main_slash	7	main_slash	79	stimuli_target_circletriangles.svg	stimuli_distractor_trianglediamonds.svg	1	yes	53	1	1045
6.6.1	win	2022-12-14	15:09:34	15:17:50	493837	5e387f2c0d70ef099d5e5a4f	596661261	1	main_slash	7	advance_on_keypress_SLASH	80	stimuli_target_circletriangles.svg	stimuli_distractor_trianglediamonds.svg	1	yes	57	0	457
6.6.1	win	2022-12-14	15:09:34	15:17:53	496212	5e387f2c0d70ef099d5e5a4f	596661261	1	main_slash	7	main_slash	81	stimuli_distractor_trianglediamonds.svg	stimuli_target_trianglecircles.svg	25	yes	53	1	1288
6.6.1	win	2022-12-14	15:09:34	15:17:53	496212	5e387f2c0d70ef099d5e5a4f	596661261	1	main_slash	7	advance_on_keypress_SLASH	82	stimuli_distractor_trianglediamonds.svg	stimuli_target_trianglecircles.svg	25	yes	57	0	434
6.6.1	win	2022-12-14	15:09:34	15:17:55	498213	5e387f2c0d70ef099d5e5a4f	596661261	1	main_slash	7	main_slash	83	stimuli_target_circlediamonds.svg	stimuli_distractor_trianglediamonds.svg	2	yes	53	1	921
6.6.1	win	2022-12-14	15:09:34	15:17:55	498213	5e387f2c0d70ef099d5e5a4f	596661261	1	main_slash	7	advance_on_keypress_SLASH	84	stimuli_target_circlediamonds.svg	stimuli_distractor_trianglediamonds.svg	2	yes	57	0	462
6.6.1	win	2022-12-14	15:09:34	15:17:57	500805	5e387f2c0d70ef099d5e5a4f	596661261	1	main_slash	7	main_slash	85	stimuli_target_diamondcircles.svg	stimuli_distractor_trianglediamonds.svg	19	yes	53	1	1479
6.6.1	win	2022-12-14	15:09:34	15:17:57	500805	5e387f2c0d70ef099d5e5a4f	596661261	1	main_slash	7	advance_on_keypress_SLASH	86	stimuli_target_diamondcircles.svg	stimuli_distractor_trianglediamonds.svg	19	yes	57	0	397
6.6.1	win	2022-12-14	15:09:34	15:17:59	502874	5e387f2c0d70ef099d5e5a4f	596661261	1	main_slash	7	main_slash	87	stimuli_distractor_trianglediamonds.svg	stimuli_target_trianglesquares.svg	26	yes	53	1	1015
6.6.1	win	2022-12-14	15:09:34	15:17:59	502874	5e387f2c0d70ef099d5e5a4f	596661261	1	main_slash	7	advance_on_keypress_SLASH	88	stimuli_distractor_trianglediamonds.svg	stimuli_target_trianglesquares.svg	26	yes	57	0	482
6.6.1	win	2022-12-14	15:09:34	15:18:02	505130	5e387f2c0d70ef099d5e5a4f	596661261	1	main_slash	7	main_slash	89	stimuli_distractor_trianglediamonds.svg	stimuli_target_squarediamonds.svg	12	yes	53	1	1121
6.6.1	win	2022-12-14	15:09:34	15:18:02	505130	5e387f2c0d70ef099d5e5a4f	596661261	1	main_slash	7	advance_on_keypress_SLASH	90	stimuli_distractor_trianglediamonds.svg	stimuli_target_squarediamonds.svg	12	yes	57	0	373
6.6.1	win	2022-12-14	15:09:34	15:18:05	508142	5e387f2c0d70ef099d5e5a4f	596661261	1	main_slash	7	main_slash	91	stimuli_distractor_trianglediamonds.svg	stimuli_distractor_trianglediamonds.svg	33	no	0	1	2000
6.6.1	win	2022-12-14	15:09:34	15:18:05	508142	5e387f2c0d70ef099d5e5a4f	596661261	1	main_slash	7	advance_on_keypress_SLASH	92	stimuli_distractor_trianglediamonds.svg	stimuli_distractor_trianglediamonds.svg	33	no	57	0	667
6.6.1	win	2022-12-14	15:09:34	15:18:08	511459	5e387f2c0d70ef099d5e5a4f	596661261	1	main_slash	7	main_slash	93	stimuli_target_diamondsquares.svg	stimuli_distractor_trianglediamonds.svg	20	yes	0	0	2000
6.6.1	win	2022-12-14	15:09:34	15:18:08	511459	5e387f2c0d70ef099d5e5a4f	596661261	1	main_slash	7	advance_on_keypress_SLASH	94	stimuli_target_diamondsquares.svg	stimuli_distractor_trianglediamonds.svg	20	yes	57	0	687
6.6.1	win	2022-12-14	15:09:34	15:18:10	513587	5e387f2c0d70ef099d5e5a4f	596661261	1	main_slash	7	main_slash	95	stimuli_target_squarediamonds.svg	stimuli_distractor_trianglediamonds.svg	4	yes	53	1	794
6.6.1	win	2022-12-14	15:09:34	15:18:10	513587	5e387f2c0d70ef099d5e5a4f	596661261	1	main_slash	7	advance_on_keypress_SLASH	96	stimuli_target_squarediamonds.svg	stimuli_distractor_trianglediamonds.svg	4	yes	57	0	453
6.6.1	win	2022-12-14	15:09:34	15:18:12	515767	5e387f2c0d70ef099d5e5a4f	596661261	1	main_slash	7	main_slash	97	stimuli_distractor_diamondtriangles.svg	stimuli_target_diamondcircles.svg	31	yes	53	1	1075
6.6.1	win	2022-12-14	15:09:34	15:18:12	515767	5e387f2c0d70ef099d5e5a4f	596661261	1	main_slash	7	advance_on_keypress_SLASH	98	stimuli_distractor_diamondtriangles.svg	stimuli_target_diamondcircles.svg	31	yes	57	0	508
6.6.1	win	2022-12-14	15:09:34	15:18:15	518909	5e387f2c0d70ef099d5e5a4f	596661261	1	main_slash	7	main_slash	99	stimuli_distractor_trianglediamonds.svg	stimuli_distractor_trianglediamonds.svg	34	no	0	1	2000
6.6.1	win	2022-12-14	15:09:34	15:18:15	518909	5e387f2c0d70ef099d5e5a4f	596661261	1	main_slash	7	advance_on_keypress_SLASH	100	stimuli_distractor_trianglediamonds.svg	stimuli_distractor_trianglediamonds.svg	34	no	57	0	366
6.6.1	win	2022-12-14	15:09:34	15:18:17	520844	5e387f2c0d70ef099d5e5a4f	596661261	1	main_slash	7	main_slash	101	stimuli_distractor_diamondtriangles.svg	stimuli_target_squaretriangles.svg	15	yes	53	1	918
6.6.1	win	2022-12-14	15:09:34	15:18:17	520844	5e387f2c0d70ef099d5e5a4f	596661261	1	main_slash	7	advance_on_keypress_SLASH	102	stimuli_distractor_diamondtriangles.svg	stimuli_target_squaretriangles.svg	15	yes	57	0	523
6.6.1	win	2022-12-14	15:09:34	15:18:19	522846	5e387f2c0d70ef099d5e5a4f	596661261	1	main_slash	7	main_slash	103	stimuli_target_squarediamonds.svg	stimuli_distractor_diamondtriangles.svg	8	yes	53	1	837
6.6.1	win	2022-12-14	15:09:34	15:18:19	522846	5e387f2c0d70ef099d5e5a4f	596661261	1	main_slash	7	advance_on_keypress_SLASH	104	stimuli_target_squarediamonds.svg	stimuli_distractor_diamondtriangles.svg	8	yes	57	0	569
6.6.1	win	2022-12-14	15:09:34	15:18:21	524817	5e387f2c0d70ef099d5e5a4f	596661261	1	main_slash	7	main_slash	105	stimuli_target_circletriangles.svg	stimuli_distractor_diamondtriangles.svg	5	yes	53	1	758
6.6.1	win	2022-12-14	15:09:34	15:18:21	524817	5e387f2c0d70ef099d5e5a4f	596661261	1	main_slash	7	advance_on_keypress_SLASH	106	stimuli_target_circletriangles.svg	stimuli_distractor_diamondtriangles.svg	5	yes	57	0	504
6.6.1	win	2022-12-14	15:09:34	15:18:23	526628	5e387f2c0d70ef099d5e5a4f	596661261	1	main_slash	7	main_slash	107	stimuli_distractor_diamondtriangles.svg	stimuli_target_circletriangles.svg	13	yes	53	1	667
6.6.1	win	2022-12-14	15:09:34	15:18:23	526628	5e387f2c0d70ef099d5e5a4f	596661261	1	main_slash	7	advance_on_keypress_SLASH	108	stimuli_distractor_diamondtriangles.svg	stimuli_target_circletriangles.svg	13	yes	57	0	819
6.6.1	win	2022-12-14	15:09:34	15:18:26	529249	5e387f2c0d70ef099d5e5a4f	596661261	1	main_slash	7	main_slash	109	stimuli_distractor_diamondtriangles.svg	stimuli_target_trianglesquares.svg	30	yes	53	1	1156
6.6.1	win	2022-12-14	15:09:34	15:18:26	529249	5e387f2c0d70ef099d5e5a4f	596661261	1	main_slash	7	advance_on_keypress_SLASH	110	stimuli_distractor_diamondtriangles.svg	stimuli_target_trianglesquares.svg	30	yes	57	0	394
6.6.1	win	2022-12-14	15:09:34	15:18:29	532276	5e387f2c0d70ef099d5e5a4f	596661261	1	main_slash	7	main_slash	111	stimuli_distractor_diamondtriangles.svg	stimuli_distractor_diamondtriangles.svg	39	no	0	1	2000
6.6.1	win	2022-12-14	15:09:34	15:18:29	532276	5e387f2c0d70ef099d5e5a4f	596661261	1	main_slash	7	advance_on_keypress_SLASH	112	stimuli_distractor_diamondtriangles.svg	stimuli_distractor_diamondtriangles.svg	39	no	57	0	682
6.6.1	win	2022-12-14	15:09:34	15:18:31	534592	5e387f2c0d70ef099d5e5a4f	596661261	1	main_slash	7	main_slash	113	stimuli_target_trianglecircles.svg	stimuli_distractor_diamondtriangles.svg	21	yes	53	1	982
6.6.1	win	2022-12-14	15:09:34	15:18:31	534592	5e387f2c0d70ef099d5e5a4f	596661261	1	main_slash	7	advance_on_keypress_SLASH	114	stimuli_target_trianglecircles.svg	stimuli_distractor_diamondtriangles.svg	21	yes	57	0	455
6.6.1	win	2022-12-14	15:09:34	15:18:34	537693	5e387f2c0d70ef099d5e5a4f	596661261	1	main_slash	7	main_slash	115	stimuli_distractor_trianglediamonds.svg	stimuli_distractor_diamondtriangles.svg	35	no	0	1	2000
6.6.1	win	2022-12-14	15:09:34	15:18:34	537693	5e387f2c0d70ef099d5e5a4f	596661261	1	main_slash	7	advance_on_keypress_SLASH	116	stimuli_distractor_trianglediamonds.svg	stimuli_distractor_diamondtriangles.svg	35	no	57	0	326
6.6.1	win	2022-12-14	15:09:34	15:18:36	539599	5e387f2c0d70ef099d5e5a4f	596661261	1	main_slash	7	main_slash	117	stimuli_target_diamondsquares.svg	stimuli_distractor_diamondtriangles.svg	24	yes	53	1	940
6.6.1	win	2022-12-14	15:09:34	15:18:36	539599	5e387f2c0d70ef099d5e5a4f	596661261	1	main_slash	7	advance_on_keypress_SLASH	118	stimuli_target_diamondsquares.svg	stimuli_distractor_diamondtriangles.svg	24	yes	57	0	353
6.6.1	win	2022-12-14	15:09:34	15:18:38	541529	5e387f2c0d70ef099d5e5a4f	596661261	1	main_slash	7	main_slash	119	stimuli_distractor_diamondtriangles.svg	stimuli_target_diamondsquares.svg	32	yes	53	1	936
6.6.1	win	2022-12-14	15:09:34	15:18:38	541529	5e387f2c0d70ef099d5e5a4f	596661261	1	main_slash	7	advance_on_keypress_SLASH	120	stimuli_distractor_diamondtriangles.svg	stimuli_target_diamondsquares.svg	32	yes	57	0	410
6.6.1	win	2022-12-14	15:09:34	15:18:40	543496	5e387f2c0d70ef099d5e5a4f	596661261	1	main_slash	7	main_slash	121	stimuli_distractor_trianglediamonds.svg	stimuli_target_circlediamonds.svg	10	yes	53	1	919
6.6.1	win	2022-12-14	15:09:34	15:18:40	543496	5e387f2c0d70ef099d5e5a4f	596661261	1	main_slash	7	advance_on_keypress_SLASH	122	stimuli_distractor_trianglediamonds.svg	stimuli_target_circlediamonds.svg	10	yes	57	0	395
6.6.1	win	2022-12-14	15:09:34	15:18:43	546428	5e387f2c0d70ef099d5e5a4f	596661261	1	main_slash	7	main_slash	123	stimuli_target_diamondcircles.svg	stimuli_distractor_diamondtriangles.svg	23	yes	53	1	1885
6.6.1	win	2022-12-14	15:09:34	15:18:43	546428	5e387f2c0d70ef099d5e5a4f	596661261	1	main_slash	7	advance_on_keypress_SLASH	124	stimuli_target_diamondcircles.svg	stimuli_distractor_diamondtriangles.svg	23	yes	57	0	549
6.6.1	win	2022-12-14	15:09:34	15:18:45	548579	5e387f2c0d70ef099d5e5a4f	596661261	1	main_slash	7	main_slash	125	stimuli_target_squaretriangles.svg	stimuli_distractor_trianglediamonds.svg	3	yes	53	1	951
6.6.1	win	2022-12-14	15:09:34	15:18:45	548579	5e387f2c0d70ef099d5e5a4f	596661261	1	main_slash	7	advance_on_keypress_SLASH	126	stimuli_target_squaretriangles.svg	stimuli_distractor_trianglediamonds.svg	3	yes	57	0	565
6.6.1	win	2022-12-14	15:09:34	15:18:47	550614	5e387f2c0d70ef099d5e5a4f	596661261	1	main_slash	7	main_slash	127	stimuli_target_squaretriangles.svg	stimuli_distractor_diamondtriangles.svg	7	yes	53	1	821
6.6.1	win	2022-12-14	15:09:34	15:18:47	550614	5e387f2c0d70ef099d5e5a4f	596661261	1	main_slash	7	advance_on_keypress_SLASH	128	stimuli_target_squaretriangles.svg	stimuli_distractor_diamondtriangles.svg	7	yes	57	0	436
6.6.1	win	2022-12-14	15:09:34	15:18:49	552582	5e387f2c0d70ef099d5e5a4f	596661261	1	main_slash	7	main_slash	129	stimuli_distractor_trianglediamonds.svg	stimuli_target_circletriangles.svg	9	yes	53	1	887
6.6.1	win	2022-12-14	15:09:34	15:18:49	552582	5e387f2c0d70ef099d5e5a4f	596661261	1	main_slash	7	advance_on_keypress_SLASH	130	stimuli_distractor_trianglediamonds.svg	stimuli_target_circletriangles.svg	9	yes	57	0	465
6.6.1	win	2022-12-14	15:09:34	15:18:51	554587	5e387f2c0d70ef099d5e5a4f	596661261	1	main_slash	7	main_slash	131	stimuli_distractor_trianglediamonds.svg	stimuli_target_squaretriangles.svg	11	yes	53	1	894
6.6.1	win	2022-12-14	15:09:34	15:18:51	554587	5e387f2c0d70ef099d5e5a4f	596661261	1	main_slash	7	advance_on_keypress_SLASH	132	stimuli_distractor_trianglediamonds.svg	stimuli_target_squaretriangles.svg	11	yes	57	0	706
6.6.1	win	2022-12-14	15:09:34	15:18:53	556811	5e387f2c0d70ef099d5e5a4f	596661261	1	main_slash	7	main_slash	133	stimuli_target_circlediamonds.svg	stimuli_distractor_diamondtriangles.svg	6	yes	53	1	884
6.6.1	win	2022-12-14	15:09:34	15:18:53	556811	5e387f2c0d70ef099d5e5a4f	596661261	1	main_slash	7	advance_on_keypress_SLASH	134	stimuli_target_circlediamonds.svg	stimuli_distractor_diamondtriangles.svg	6	yes	57	0	1110
6.6.1	win	2022-12-14	15:09:34	15:18:56	559263	5e387f2c0d70ef099d5e5a4f	596661261	1	main_slash	7	main_slash	135	stimuli_distractor_diamondtriangles.svg	stimuli_target_squarediamonds.svg	16	yes	53	1	703
6.6.1	win	2022-12-14	15:09:34	15:18:56	559263	5e387f2c0d70ef099d5e5a4f	596661261	1	main_slash	7	advance_on_keypress_SLASH	136	stimuli_distractor_diamondtriangles.svg	stimuli_target_squarediamonds.svg	16	yes	57	0	618
6.6.1	win	2022-12-14	15:09:34	15:18:59	562527	5e387f2c0d70ef099d5e5a4f	596661261	1	main_slash	7	main_slash	137	stimuli_distractor_trianglediamonds.svg	stimuli_distractor_diamondtriangles.svg	36	no	0	1	2000
6.6.1	win	2022-12-14	15:09:34	15:18:59	562527	5e387f2c0d70ef099d5e5a4f	596661261	1	main_slash	7	advance_on_keypress_SLASH	138	stimuli_distractor_trianglediamonds.svg	stimuli_distractor_diamondtriangles.svg	36	no	57	0	323
6.6.1	win	2022-12-14	15:09:34	15:19:02	565494	5e387f2c0d70ef099d5e5a4f	596661261	1	main_slash	7	main_slash	139	stimuli_distractor_diamondtriangles.svg	stimuli_distractor_trianglediamonds.svg	38	no	0	1	2000
6.6.1	win	2022-12-14	15:09:34	15:19:02	565494	5e387f2c0d70ef099d5e5a4f	596661261	1	main_slash	7	advance_on_keypress_SLASH	140	stimuli_distractor_diamondtriangles.svg	stimuli_distractor_trianglediamonds.svg	38	no	57	0	276
6.6.1	win	2022-12-14	15:09:34	15:19:04	567143	5e387f2c0d70ef099d5e5a4f	596661261	1	main_slash	7	main_slash	141	stimuli_target_circletriangles.svg	stimuli_distractor_trianglediamonds.svg	1	yes	53	1	733
6.6.1	win	2022-12-14	15:09:34	15:19:04	567143	5e387f2c0d70ef099d5e5a4f	596661261	1	main_slash	7	advance_on_keypress_SLASH	142	stimuli_target_circletriangles.svg	stimuli_distractor_trianglediamonds.svg	1	yes	57	0	547
6.6.1	win	2022-12-14	15:09:34	15:19:07	570343	5e387f2c0d70ef099d5e5a4f	596661261	1	main_slash	7	main_slash	143	stimuli_distractor_trianglediamonds.svg	stimuli_target_diamondcircles.svg	27	yes	0	0	2000
6.6.1	win	2022-12-14	15:09:34	15:19:07	570343	5e387f2c0d70ef099d5e5a4f	596661261	1	main_slash	7	advance_on_keypress_SLASH	144	stimuli_distractor_trianglediamonds.svg	stimuli_target_diamondcircles.svg	27	yes	57	0	494
6.6.1	win	2022-12-14	15:09:34	15:19:09	572353	5e387f2c0d70ef099d5e5a4f	596661261	1	main_slash	7	main_slash	145	stimuli_target_trianglesquares.svg	stimuli_distractor_diamondtriangles.svg	22	yes	53	1	876
6.6.1	win	2022-12-14	15:09:34	15:19:09	572353	5e387f2c0d70ef099d5e5a4f	596661261	1	main_slash	7	advance_on_keypress_SLASH	146	stimuli_target_trianglesquares.svg	stimuli_distractor_diamondtriangles.svg	22	yes	57	0	560
6.6.1	win	2022-12-14	15:09:34	15:19:12	575544	5e387f2c0d70ef099d5e5a4f	596661261	1	main_slash	7	main_slash	147	stimuli_distractor_diamondtriangles.svg	stimuli_distractor_diamondtriangles.svg	40	no	0	1	2000
6.6.1	win	2022-12-14	15:09:34	15:19:12	575544	5e387f2c0d70ef099d5e5a4f	596661261	1	main_slash	7	advance_on_keypress_SLASH	148	stimuli_distractor_diamondtriangles.svg	stimuli_distractor_diamondtriangles.svg	40	no	57	0	415
6.6.1	win	2022-12-14	15:09:34	15:19:14	577505	5e387f2c0d70ef099d5e5a4f	596661261	1	main_slash	7	main_slash	149	stimuli_distractor_diamondtriangles.svg	stimuli_target_circlediamonds.svg	14	yes	53	1	894
6.6.1	win	2022-12-14	15:09:34	15:19:14	577505	5e387f2c0d70ef099d5e5a4f	596661261	1	main_slash	7	advance_on_keypress_SLASH	150	stimuli_distractor_diamondtriangles.svg	stimuli_target_circlediamonds.svg	14	yes	57	0	553
6.6.1	win	2022-12-14	15:09:34	15:19:17	580694	5e387f2c0d70ef099d5e5a4f	596661261	1	main_slash	7	main_slash	151	stimuli_distractor_diamondtriangles.svg	stimuli_target_trianglecircles.svg	29	yes	0	0	2000
6.6.1	win	2022-12-14	15:09:34	15:19:17	580694	5e387f2c0d70ef099d5e5a4f	596661261	1	main_slash	7	advance_on_keypress_SLASH	152	stimuli_distractor_diamondtriangles.svg	stimuli_target_trianglecircles.svg	29	yes	57	0	428
6.6.1	win	2022-12-14	15:09:34	15:19:20	583777	5e387f2c0d70ef099d5e5a4f	596661261	1	main_slash	7	main_slash	153	stimuli_target_trianglecircles.svg	stimuli_distractor_trianglediamonds.svg	17	yes	0	0	2000
6.6.1	win	2022-12-14	15:09:34	15:19:20	583777	5e387f2c0d70ef099d5e5a4f	596661261	1	main_slash	7	advance_on_keypress_SLASH	154	stimuli_target_trianglecircles.svg	stimuli_distractor_trianglediamonds.svg	17	yes	57	0	437
6.6.1	win	2022-12-14	15:09:34	15:19:22	585641	5e387f2c0d70ef099d5e5a4f	596661261	1	main_slash	7	main_slash	155	stimuli_target_trianglesquares.svg	stimuli_distractor_trianglediamonds.svg	18	yes	53	1	781
6.6.1	win	2022-12-14	15:09:34	15:19:22	585641	5e387f2c0d70ef099d5e5a4f	596661261	1	main_slash	7	advance_on_keypress_SLASH	156	stimuli_target_trianglesquares.svg	stimuli_distractor_trianglediamonds.svg	18	yes	57	0	547
6.6.1	win	2022-12-14	15:09:34	15:19:25	588844	5e387f2c0d70ef099d5e5a4f	596661261	1	main_slash	7	main_slash	157	stimuli_distractor_diamondtriangles.svg	stimuli_distractor_trianglediamonds.svg	37	no	0	1	2000
6.6.1	win	2022-12-14	15:09:34	15:19:25	588844	5e387f2c0d70ef099d5e5a4f	596661261	1	main_slash	7	advance_on_keypress_SLASH	158	stimuli_distractor_diamondtriangles.svg	stimuli_distractor_trianglediamonds.svg	37	no	57	0	668
6.6.1	win	2022-12-14	15:09:34	15:19:27	590989	5e387f2c0d70ef099d5e5a4f	596661261	1	main_slash	7	main_slash	159	stimuli_distractor_trianglediamonds.svg	stimuli_target_diamondsquares.svg	28	yes	53	1	828
6.6.1	win	2022-12-14	15:09:34	15:19:27	590989	5e387f2c0d70ef099d5e5a4f	596661261	1	main_slash	7	advance_on_keypress_SLASH	160	stimuli_distractor_trianglediamonds.svg	stimuli_target_diamondsquares.svg	28	yes	57	0	1016
6.6.1	win	2022-12-14	15:09:34	15:19:48	611455	5e387f2c0d70ef099d5e5a4f	596661261	1	practice_z	9	practice_z	1	stimuli_target_circlediamonds.svg	stimuli_distractor_diamondtriangles.svg	1	yes	44	1	542
6.6.1	win	2022-12-14	15:09:34	15:19:48	611455	5e387f2c0d70ef099d5e5a4f	596661261	1	practice_z	9	advance_on_keypress_ZEE	2	stimuli_target_circlediamonds.svg	stimuli_distractor_diamondtriangles.svg	1	yes	57	0	497
6.6.1	win	2022-12-14	15:09:34	15:19:52	615614	5e387f2c0d70ef099d5e5a4f	596661261	1	practice_z	9	practice_z	3	stimuli_distractor_diamondtriangles.svg	stimuli_distractor_trianglediamonds.svg	14	no	0	1	2000
6.6.1	win	2022-12-14	15:09:34	15:19:52	615614	5e387f2c0d70ef099d5e5a4f	596661261	1	practice_z	9	advance_on_keypress_ZEE	4	stimuli_distractor_diamondtriangles.svg	stimuli_distractor_trianglediamonds.svg	14	no	57	0	484
6.6.1	win	2022-12-14	15:09:34	15:19:55	618670	5e387f2c0d70ef099d5e5a4f	596661261	1	practice_z	9	practice_z	5	stimuli_target_diamondsquares.svg	stimuli_distractor_diamondtriangles.svg	3	yes	44	1	922
6.6.1	win	2022-12-14	15:09:34	15:19:55	618670	5e387f2c0d70ef099d5e5a4f	596661261	1	practice_z	9	advance_on_keypress_ZEE	6	stimuli_target_diamondsquares.svg	stimuli_distractor_diamondtriangles.svg	3	yes	57	0	464
6.6.1	win	2022-12-14	15:09:34	15:19:58	621515	5e387f2c0d70ef099d5e5a4f	596661261	1	practice_z	9	practice_z	7	stimuli_distractor_diamondtriangles.svg	stimuli_target_circletriangles.svg	7	yes	44	1	735
6.6.1	win	2022-12-14	15:09:34	15:19:58	621515	5e387f2c0d70ef099d5e5a4f	596661261	1	practice_z	9	advance_on_keypress_ZEE	8	stimuli_distractor_diamondtriangles.svg	stimuli_target_circletriangles.svg	7	yes	57	0	386
6.6.1	win	2022-12-14	15:09:34	15:20:01	624119	5e387f2c0d70ef099d5e5a4f	596661261	1	practice_z	9	practice_z	9	stimuli_target_circlediamonds.svg	stimuli_distractor_trianglediamonds.svg	4	yes	44	1	572
6.6.1	win	2022-12-14	15:09:34	15:20:01	624119	5e387f2c0d70ef099d5e5a4f	596661261	1	practice_z	9	advance_on_keypress_ZEE	10	stimuli_target_circlediamonds.svg	stimuli_distractor_trianglediamonds.svg	4	yes	57	0	513
6.6.1	win	2022-12-14	15:09:34	15:20:03	626990	5e387f2c0d70ef099d5e5a4f	596661261	1	practice_z	9	practice_z	11	stimuli_target_squarediamonds.svg	stimuli_distractor_diamondtriangles.svg	2	yes	44	1	709
6.6.1	win	2022-12-14	15:09:34	15:20:03	626990	5e387f2c0d70ef099d5e5a4f	596661261	1	practice_z	9	advance_on_keypress_ZEE	12	stimuli_target_squarediamonds.svg	stimuli_distractor_diamondtriangles.svg	2	yes	57	0	488
6.6.1	win	2022-12-14	15:09:34	15:20:08	631130	5e387f2c0d70ef099d5e5a4f	596661261	1	practice_z	9	practice_z	13	stimuli_distractor_diamondtriangles.svg	stimuli_distractor_diamondtriangles.svg	13	no	0	1	2000
6.6.1	win	2022-12-14	15:09:34	15:20:08	631130	5e387f2c0d70ef099d5e5a4f	596661261	1	practice_z	9	advance_on_keypress_ZEE	14	stimuli_distractor_diamondtriangles.svg	stimuli_distractor_diamondtriangles.svg	13	no	57	0	481
6.6.1	win	2022-12-14	15:09:34	15:20:12	635265	5e387f2c0d70ef099d5e5a4f	596661261	1	practice_z	9	practice_z	15	stimuli_distractor_trianglediamonds.svg	stimuli_distractor_trianglediamonds.svg	15	no	0	1	2000
6.6.1	win	2022-12-14	15:09:34	15:20:12	635265	5e387f2c0d70ef099d5e5a4f	596661261	1	practice_z	9	advance_on_keypress_ZEE	16	stimuli_distractor_trianglediamonds.svg	stimuli_distractor_trianglediamonds.svg	15	no	57	0	463
6.6.1	win	2022-12-14	15:09:34	15:20:16	639384	5e387f2c0d70ef099d5e5a4f	596661261	1	practice_z	9	practice_z	17	stimuli_distractor_trianglediamonds.svg	stimuli_distractor_diamondtriangles.svg	16	no	0	1	2000
6.6.1	win	2022-12-14	15:09:34	15:20:16	639384	5e387f2c0d70ef099d5e5a4f	596661261	1	practice_z	9	advance_on_keypress_ZEE	18	stimuli_distractor_trianglediamonds.svg	stimuli_distractor_diamondtriangles.svg	16	no	57	0	491
6.6.1	win	2022-12-14	15:09:34	15:20:19	642570	5e387f2c0d70ef099d5e5a4f	596661261	1	practice_z	9	practice_z	19	stimuli_distractor_diamondtriangles.svg	stimuli_target_trianglecircles.svg	9	yes	44	1	1038
6.6.1	win	2022-12-14	15:09:34	15:20:19	642570	5e387f2c0d70ef099d5e5a4f	596661261	1	practice_z	9	advance_on_keypress_ZEE	20	stimuli_distractor_diamondtriangles.svg	stimuli_target_trianglecircles.svg	9	yes	57	0	676
6.6.1	win	2022-12-14	15:09:34	15:20:22	645567	5e387f2c0d70ef099d5e5a4f	596661261	1	practice_z	9	practice_z	21	stimuli_distractor_trianglediamonds.svg	stimuli_target_circlediamonds.svg	10	yes	44	1	685
6.6.1	win	2022-12-14	15:09:34	15:20:22	645567	5e387f2c0d70ef099d5e5a4f	596661261	1	practice_z	9	advance_on_keypress_ZEE	22	stimuli_distractor_trianglediamonds.svg	stimuli_target_circlediamonds.svg	10	yes	57	0	542
6.6.1	win	2022-12-14	15:09:34	15:20:25	648857	5e387f2c0d70ef099d5e5a4f	596661261	1	practice_z	9	practice_z	23	stimuli_target_diamondsquares.svg	stimuli_distractor_trianglediamonds.svg	6	yes	44	1	1092
6.6.1	win	2022-12-14	15:09:34	15:20:25	648857	5e387f2c0d70ef099d5e5a4f	596661261	1	practice_z	9	advance_on_keypress_ZEE	24	stimuli_target_diamondsquares.svg	stimuli_distractor_trianglediamonds.svg	6	yes	57	0	1265
6.6.1	win	2022-12-14	15:09:34	15:20:29	652676	5e387f2c0d70ef099d5e5a4f	596661261	1	practice_z	9	practice_z	25	stimuli_distractor_diamondtriangles.svg	stimuli_target_diamondcircles.svg	8	yes	44	1	894
6.6.1	win	2022-12-14	15:09:34	15:20:29	652676	5e387f2c0d70ef099d5e5a4f	596661261	1	practice_z	9	advance_on_keypress_ZEE	26	stimuli_distractor_diamondtriangles.svg	stimuli_target_diamondcircles.svg	8	yes	57	0	568
6.6.1	win	2022-12-14	15:09:34	15:20:32	655904	5e387f2c0d70ef099d5e5a4f	596661261	1	practice_z	9	practice_z	27	stimuli_distractor_trianglediamonds.svg	stimuli_target_squarediamonds.svg	11	yes	44	1	1005
6.6.1	win	2022-12-14	15:09:34	15:20:32	655904	5e387f2c0d70ef099d5e5a4f	596661261	1	practice_z	9	advance_on_keypress_ZEE	28	stimuli_distractor_trianglediamonds.svg	stimuli_target_squarediamonds.svg	11	yes	57	0	879
6.6.1	win	2022-12-14	15:09:34	15:20:36	659782	5e387f2c0d70ef099d5e5a4f	596661261	1	practice_z	9	practice_z	29	stimuli_distractor_trianglediamonds.svg	stimuli_target_diamondcircles.svg	12	yes	44	1	1351
6.6.1	win	2022-12-14	15:09:34	15:20:36	659782	5e387f2c0d70ef099d5e5a4f	596661261	1	practice_z	9	advance_on_keypress_ZEE	30	stimuli_distractor_trianglediamonds.svg	stimuli_target_diamondcircles.svg	12	yes	57	0	472
6.6.1	win	2022-12-14	15:09:34	15:20:39	662829	5e387f2c0d70ef099d5e5a4f	596661261	1	practice_z	9	practice_z	31	stimuli_target_squarediamonds.svg	stimuli_distractor_trianglediamonds.svg	5	yes	44	1	931
6.6.1	win	2022-12-14	15:09:34	15:20:39	662829	5e387f2c0d70ef099d5e5a4f	596661261	1	practice_z	9	advance_on_keypress_ZEE	32	stimuli_target_squarediamonds.svg	stimuli_distractor_trianglediamonds.svg	5	yes	57	0	644
6.6.1	win	2022-12-14	15:09:34	15:20:56	679203	5e387f2c0d70ef099d5e5a4f	596661261	1	main_z	11	main_z	1	stimuli_distractor_diamondtriangles.svg	stimuli_target_diamondsquares.svg	32	yes	44	1	641
6.6.1	win	2022-12-14	15:09:34	15:20:56	679203	5e387f2c0d70ef099d5e5a4f	596661261	1	main_z	11	advance_on_keypress_ZEE	2	stimuli_distractor_diamondtriangles.svg	stimuli_target_diamondsquares.svg	32	yes	57	0	1355
6.6.1	win	2022-12-14	15:09:34	15:20:58	682053	5e387f2c0d70ef099d5e5a4f	596661261	1	main_z	11	main_z	3	stimuli_target_squaretriangles.svg	stimuli_distractor_diamondtriangles.svg	7	yes	44	1	840
6.6.1	win	2022-12-14	15:09:34	15:20:58	682053	5e387f2c0d70ef099d5e5a4f	596661261	1	main_z	11	advance_on_keypress_ZEE	4	stimuli_target_squaretriangles.svg	stimuli_distractor_diamondtriangles.svg	7	yes	57	0	1089
6.6.1	win	2022-12-14	15:09:34	15:21:01	684608	5e387f2c0d70ef099d5e5a4f	596661261	1	main_z	11	main_z	5	stimuli_distractor_diamondtriangles.svg	stimuli_target_circlediamonds.svg	14	yes	44	1	828
6.6.1	win	2022-12-14	15:09:34	15:21:01	684608	5e387f2c0d70ef099d5e5a4f	596661261	1	main_z	11	advance_on_keypress_ZEE	6	stimuli_distractor_diamondtriangles.svg	stimuli_target_circlediamonds.svg	14	yes	57	0	475
6.6.1	win	2022-12-14	15:09:34	15:21:04	687730	5e387f2c0d70ef099d5e5a4f	596661261	1	main_z	11	main_z	7	stimuli_distractor_diamondtriangles.svg	stimuli_distractor_trianglediamonds.svg	37	no	0	1	2000
6.6.1	win	2022-12-14	15:09:34	15:21:04	687730	5e387f2c0d70ef099d5e5a4f	596661261	1	main_z	11	advance_on_keypress_ZEE	8	stimuli_distractor_diamondtriangles.svg	stimuli_distractor_trianglediamonds.svg	37	no	57	0	616
6.6.1	win	2022-12-14	15:09:34	15:21:06	689795	5e387f2c0d70ef099d5e5a4f	596661261	1	main_z	11	main_z	9	stimuli_distractor_diamondtriangles.svg	stimuli_target_circletriangles.svg	13	yes	44	1	798
6.6.1	win	2022-12-14	15:09:34	15:21:06	689795	5e387f2c0d70ef099d5e5a4f	596661261	1	main_z	11	advance_on_keypress_ZEE	10	stimuli_distractor_diamondtriangles.svg	stimuli_target_circletriangles.svg	13	yes	57	0	260
6.6.1	win	2022-12-14	15:09:34	15:21:08	691596	5e387f2c0d70ef099d5e5a4f	596661261	1	main_z	11	main_z	11	stimuli_distractor_trianglediamonds.svg	stimuli_target_trianglesquares.svg	26	yes	44	1	866
6.6.1	win	2022-12-14	15:09:34	15:21:08	691596	5e387f2c0d70ef099d5e5a4f	596661261	1	main_z	11	advance_on_keypress_ZEE	12	stimuli_distractor_trianglediamonds.svg	stimuli_target_trianglesquares.svg	26	yes	57	0	325
6.6.1	win	2022-12-14	15:09:34	15:21:10	693437	5e387f2c0d70ef099d5e5a4f	596661261	1	main_z	11	main_z	13	stimuli_target_squarediamonds.svg	stimuli_distractor_trianglediamonds.svg	4	yes	44	1	857
6.6.1	win	2022-12-14	15:09:34	15:21:10	693437	5e387f2c0d70ef099d5e5a4f	596661261	1	main_z	11	advance_on_keypress_ZEE	14	stimuli_target_squarediamonds.svg	stimuli_distractor_trianglediamonds.svg	4	yes	57	0	567
6.6.1	win	2022-12-14	15:09:34	15:21:13	696646	5e387f2c0d70ef099d5e5a4f	596661261	1	main_z	11	main_z	15	stimuli_distractor_diamondtriangles.svg	stimuli_distractor_trianglediamonds.svg	38	no	0	1	2000
6.6.1	win	2022-12-14	15:09:34	15:21:13	696646	5e387f2c0d70ef099d5e5a4f	596661261	1	main_z	11	advance_on_keypress_ZEE	16	stimuli_distractor_diamondtriangles.svg	stimuli_distractor_trianglediamonds.svg	38	no	57	0	780
6.6.1	win	2022-12-14	15:09:34	15:21:15	698754	5e387f2c0d70ef099d5e5a4f	596661261	1	main_z	11	main_z	17	stimuli_target_circletriangles.svg	stimuli_distractor_diamondtriangles.svg	5	yes	44	1	673
6.6.1	win	2022-12-14	15:09:34	15:21:15	698754	5e387f2c0d70ef099d5e5a4f	596661261	1	main_z	11	advance_on_keypress_ZEE	18	stimuli_target_circletriangles.svg	stimuli_distractor_diamondtriangles.svg	5	yes	57	0	526
6.6.1	win	2022-12-14	15:09:34	15:21:18	701913	5e387f2c0d70ef099d5e5a4f	596661261	1	main_z	11	main_z	19	stimuli_distractor_trianglediamonds.svg	stimuli_distractor_trianglediamonds.svg	33	no	0	1	2000
6.6.1	win	2022-12-14	15:09:34	15:21:18	701913	5e387f2c0d70ef099d5e5a4f	596661261	1	main_z	11	advance_on_keypress_ZEE	20	stimuli_distractor_trianglediamonds.svg	stimuli_distractor_trianglediamonds.svg	33	no	57	0	538
6.6.1	win	2022-12-14	15:09:34	15:21:20	703766	5e387f2c0d70ef099d5e5a4f	596661261	1	main_z	11	main_z	21	stimuli_distractor_diamondtriangles.svg	stimuli_target_diamondcircles.svg	31	yes	44	1	670
6.6.1	win	2022-12-14	15:09:34	15:21:20	703766	5e387f2c0d70ef099d5e5a4f	596661261	1	main_z	11	advance_on_keypress_ZEE	22	stimuli_distractor_diamondtriangles.svg	stimuli_target_diamondcircles.svg	31	yes	57	0	493
6.6.1	win	2022-12-14	15:09:34	15:21:22	705758	5e387f2c0d70ef099d5e5a4f	596661261	1	main_z	11	main_z	23	stimuli_target_trianglesquares.svg	stimuli_distractor_trianglediamonds.svg	18	yes	44	1	845
6.6.1	win	2022-12-14	15:09:34	15:21:22	705758	5e387f2c0d70ef099d5e5a4f	596661261	1	main_z	11	advance_on_keypress_ZEE	24	stimuli_target_trianglesquares.svg	stimuli_distractor_trianglediamonds.svg	18	yes	57	0	475
6.6.1	win	2022-12-14	15:09:34	15:21:25	708172	5e387f2c0d70ef099d5e5a4f	596661261	1	main_z	11	main_z	25	stimuli_distractor_trianglediamonds.svg	stimuli_target_trianglecircles.svg	25	yes	44	1	1308
6.6.1	win	2022-12-14	15:09:34	15:21:25	708172	5e387f2c0d70ef099d5e5a4f	596661261	1	main_z	11	advance_on_keypress_ZEE	26	stimuli_distractor_trianglediamonds.svg	stimuli_target_trianglecircles.svg	25	yes	57	0	627
6.6.1	win	2022-12-14	15:09:34	15:21:27	710354	5e387f2c0d70ef099d5e5a4f	596661261	1	main_z	11	main_z	27	stimuli_target_trianglecircles.svg	stimuli_distractor_trianglediamonds.svg	17	yes	44	1	923
6.6.1	win	2022-12-14	15:09:34	15:21:27	710354	5e387f2c0d70ef099d5e5a4f	596661261	1	main_z	11	advance_on_keypress_ZEE	28	stimuli_target_trianglecircles.svg	stimuli_distractor_trianglediamonds.svg	17	yes	57	0	545
6.6.1	win	2022-12-14	15:09:34	15:21:30	713547	5e387f2c0d70ef099d5e5a4f	596661261	1	main_z	11	main_z	29	stimuli_distractor_trianglediamonds.svg	stimuli_distractor_trianglediamonds.svg	34	no	0	1	2000
6.6.1	win	2022-12-14	15:09:34	15:21:30	713547	5e387f2c0d70ef099d5e5a4f	596661261	1	main_z	11	advance_on_keypress_ZEE	30	stimuli_distractor_trianglediamonds.svg	stimuli_distractor_trianglediamonds.svg	34	no	57	0	834
6.6.1	win	2022-12-14	15:09:34	15:21:32	715951	5e387f2c0d70ef099d5e5a4f	596661261	1	main_z	11	main_z	31	stimuli_distractor_trianglediamonds.svg	stimuli_target_circlediamonds.svg	10	yes	44	1	921
6.6.1	win	2022-12-14	15:09:34	15:21:32	715951	5e387f2c0d70ef099d5e5a4f	596661261	1	main_z	11	advance_on_keypress_ZEE	32	stimuli_distractor_trianglediamonds.svg	stimuli_target_circlediamonds.svg	10	yes	57	0	1068
6.6.1	win	2022-12-14	15:09:34	15:21:35	718826	5e387f2c0d70ef099d5e5a4f	596661261	1	main_z	11	main_z	33	stimuli_distractor_trianglediamonds.svg	stimuli_target_squaretriangles.svg	11	yes	44	1	1162
6.6.1	win	2022-12-14	15:09:34	15:21:35	718826	5e387f2c0d70ef099d5e5a4f	596661261	1	main_z	11	advance_on_keypress_ZEE	34	stimuli_distractor_trianglediamonds.svg	stimuli_target_squaretriangles.svg	11	yes	57	0	1027
6.6.1	win	2022-12-14	15:09:34	15:21:38	721285	5e387f2c0d70ef099d5e5a4f	596661261	1	main_z	11	main_z	35	stimuli_distractor_trianglediamonds.svg	stimuli_target_circletriangles.svg	9	yes	44	1	788
6.6.1	win	2022-12-14	15:09:34	15:21:38	721285	5e387f2c0d70ef099d5e5a4f	596661261	1	main_z	11	advance_on_keypress_ZEE	36	stimuli_distractor_trianglediamonds.svg	stimuli_target_circletriangles.svg	9	yes	57	0	568
6.6.1	win	2022-12-14	15:09:34	15:21:40	723466	5e387f2c0d70ef099d5e5a4f	596661261	1	main_z	11	main_z	37	stimuli_target_circletriangles.svg	stimuli_distractor_trianglediamonds.svg	1	yes	44	1	970
6.6.1	win	2022-12-14	15:09:34	15:21:40	723466	5e387f2c0d70ef099d5e5a4f	596661261	1	main_z	11	advance_on_keypress_ZEE	38	stimuli_target_circletriangles.svg	stimuli_distractor_trianglediamonds.svg	1	yes	57	0	1081
6.6.1	win	2022-12-14	15:09:34	15:21:44	727197	5e387f2c0d70ef099d5e5a4f	596661261	1	main_z	11	main_z	39	stimuli_distractor_trianglediamonds.svg	stimuli_distractor_diamondtriangles.svg	35	no	0	1	2000
6.6.1	win	2022-12-14	15:09:34	15:21:44	727197	5e387f2c0d70ef099d5e5a4f	596661261	1	main_z	11	advance_on_keypress_ZEE	40	stimuli_distractor_trianglediamonds.svg	stimuli_distractor_diamondtriangles.svg	35	no	57	0	909
6.6.1	win	2022-12-14	15:09:34	15:21:46	729665	5e387f2c0d70ef099d5e5a4f	596661261	1	main_z	11	main_z	41	stimuli_distractor_diamondtriangles.svg	stimuli_target_squarediamonds.svg	16	yes	44	1	917
6.6.1	win	2022-12-14	15:09:34	15:21:46	729665	5e387f2c0d70ef099d5e5a4f	596661261	1	main_z	11	advance_on_keypress_ZEE	42	stimuli_distractor_diamondtriangles.svg	stimuli_target_squarediamonds.svg	16	yes	57	0	450
6.6.1	win	2022-12-14	15:09:34	15:21:49	732764	5e387f2c0d70ef099d5e5a4f	596661261	1	main_z	11	main_z	43	stimuli_distractor_trianglediamonds.svg	stimuli_distractor_diamondtriangles.svg	36	no	0	1	2000
6.6.1	win	2022-12-14	15:09:34	15:21:49	732764	5e387f2c0d70ef099d5e5a4f	596661261	1	main_z	11	advance_on_keypress_ZEE	44	stimuli_distractor_trianglediamonds.svg	stimuli_distractor_diamondtriangles.svg	36	no	57	0	623
6.6.1	win	2022-12-14	15:09:34	15:21:51	734993	5e387f2c0d70ef099d5e5a4f	596661261	1	main_z	11	main_z	45	stimuli_distractor_diamondtriangles.svg	stimuli_target_trianglesquares.svg	30	yes	44	1	962
6.6.1	win	2022-12-14	15:09:34	15:21:51	734993	5e387f2c0d70ef099d5e5a4f	596661261	1	main_z	11	advance_on_keypress_ZEE	46	stimuli_distractor_diamondtriangles.svg	stimuli_target_trianglesquares.svg	30	yes	57	0	488
6.6.1	win	2022-12-14	15:09:34	15:21:54	737435	5e387f2c0d70ef099d5e5a4f	596661261	1	main_z	11	main_z	47	stimuli_distractor_trianglediamonds.svg	stimuli_target_diamondcircles.svg	27	yes	44	1	1249
6.6.1	win	2022-12-14	15:09:34	15:21:54	737435	5e387f2c0d70ef099d5e5a4f	596661261	1	main_z	11	advance_on_keypress_ZEE	48	stimuli_distractor_trianglediamonds.svg	stimuli_target_diamondcircles.svg	27	yes	57	0	483
6.6.1	win	2022-12-14	15:09:34	15:21:56	739523	5e387f2c0d70ef099d5e5a4f	596661261	1	main_z	11	main_z	49	stimuli_target_trianglecircles.svg	stimuli_distractor_diamondtriangles.svg	21	yes	44	1	959
6.6.1	win	2022-12-14	15:09:34	15:21:56	739523	5e387f2c0d70ef099d5e5a4f	596661261	1	main_z	11	advance_on_keypress_ZEE	50	stimuli_target_trianglecircles.svg	stimuli_distractor_diamondtriangles.svg	21	yes	57	0	478
6.6.1	win	2022-12-14	15:09:34	15:21:58	741871	5e387f2c0d70ef099d5e5a4f	596661261	1	main_z	11	main_z	51	stimuli_target_circlediamonds.svg	stimuli_distractor_diamondtriangles.svg	6	yes	44	1	1240
6.6.1	win	2022-12-14	15:09:34	15:21:58	741871	5e387f2c0d70ef099d5e5a4f	596661261	1	main_z	11	advance_on_keypress_ZEE	52	stimuli_target_circlediamonds.svg	stimuli_distractor_diamondtriangles.svg	6	yes	57	0	553
6.6.1	win	2022-12-14	15:09:34	15:22:01	744548	5e387f2c0d70ef099d5e5a4f	596661261	1	main_z	11	main_z	53	stimuli_target_trianglesquares.svg	stimuli_distractor_diamondtriangles.svg	22	yes	44	1	1484
6.6.1	win	2022-12-14	15:09:34	15:22:01	744548	5e387f2c0d70ef099d5e5a4f	596661261	1	main_z	11	advance_on_keypress_ZEE	54	stimuli_target_trianglesquares.svg	stimuli_distractor_diamondtriangles.svg	22	yes	57	0	1179
6.6.1	win	2022-12-14	15:09:34	15:22:04	747307	5e387f2c0d70ef099d5e5a4f	596661261	1	main_z	11	main_z	55	stimuli_distractor_trianglediamonds.svg	stimuli_target_diamondsquares.svg	28	yes	44	1	926
6.6.1	win	2022-12-14	15:09:34	15:22:04	747307	5e387f2c0d70ef099d5e5a4f	596661261	1	main_z	11	advance_on_keypress_ZEE	56	stimuli_distractor_trianglediamonds.svg	stimuli_target_diamondsquares.svg	28	yes	57	0	485
6.6.1	win	2022-12-14	15:09:34	15:22:06	749486	5e387f2c0d70ef099d5e5a4f	596661261	1	main_z	11	main_z	57	stimuli_target_circlediamonds.svg	stimuli_distractor_trianglediamonds.svg	2	yes	44	1	1056
6.6.1	win	2022-12-14	15:09:34	15:22:06	749486	5e387f2c0d70ef099d5e5a4f	596661261	1	main_z	11	advance_on_keypress_ZEE	58	stimuli_target_circlediamonds.svg	stimuli_distractor_trianglediamonds.svg	2	yes	57	0	427
6.6.1	win	2022-12-14	15:09:34	15:22:08	751277	5e387f2c0d70ef099d5e5a4f	596661261	1	main_z	11	main_z	59	stimuli_target_squarediamonds.svg	stimuli_distractor_diamondtriangles.svg	8	yes	44	1	728
6.6.1	win	2022-12-14	15:09:34	15:22:08	751277	5e387f2c0d70ef099d5e5a4f	596661261	1	main_z	11	advance_on_keypress_ZEE	60	stimuli_target_squarediamonds.svg	stimuli_distractor_diamondtriangles.svg	8	yes	57	0	828
6.6.1	win	2022-12-14	15:09:34	15:22:11	754749	5e387f2c0d70ef099d5e5a4f	596661261	1	main_z	11	main_z	61	stimuli_distractor_diamondtriangles.svg	stimuli_distractor_diamondtriangles.svg	40	no	0	1	2000
6.6.1	win	2022-12-14	15:09:34	15:22:11	754749	5e387f2c0d70ef099d5e5a4f	596661261	1	main_z	11	advance_on_keypress_ZEE	62	stimuli_distractor_diamondtriangles.svg	stimuli_distractor_diamondtriangles.svg	40	no	57	0	504
6.6.1	win	2022-12-14	15:09:34	15:22:13	756761	5e387f2c0d70ef099d5e5a4f	596661261	1	main_z	11	main_z	63	stimuli_distractor_diamondtriangles.svg	stimuli_target_trianglecircles.svg	29	yes	44	1	863
6.6.1	win	2022-12-14	15:09:34	15:22:13	756761	5e387f2c0d70ef099d5e5a4f	596661261	1	main_z	11	advance_on_keypress_ZEE	64	stimuli_distractor_diamondtriangles.svg	stimuli_target_trianglecircles.svg	29	yes	57	0	547
6.6.1	win	2022-12-14	15:09:34	15:22:15	758835	5e387f2c0d70ef099d5e5a4f	596661261	1	main_z	11	main_z	65	stimuli_distractor_trianglediamonds.svg	stimuli_target_squarediamonds.svg	12	yes	44	1	871
6.6.1	win	2022-12-14	15:09:34	15:22:15	758835	5e387f2c0d70ef099d5e5a4f	596661261	1	main_z	11	advance_on_keypress_ZEE	66	stimuli_distractor_trianglediamonds.svg	stimuli_target_squarediamonds.svg	12	yes	57	0	370
6.6.1	win	2022-12-14	15:09:34	15:22:17	760835	5e387f2c0d70ef099d5e5a4f	596661261	1	main_z	11	main_z	67	stimuli_target_diamondcircles.svg	stimuli_distractor_diamondtriangles.svg	23	yes	44	1	988
6.6.1	win	2022-12-14	15:09:34	15:22:17	760835	5e387f2c0d70ef099d5e5a4f	596661261	1	main_z	11	advance_on_keypress_ZEE	68	stimuli_target_diamondcircles.svg	stimuli_distractor_diamondtriangles.svg	23	yes	57	0	472
6.6.1	win	2022-12-14	15:09:34	15:22:19	762945	5e387f2c0d70ef099d5e5a4f	596661261	1	main_z	11	main_z	69	stimuli_target_diamondsquares.svg	stimuli_distractor_diamondtriangles.svg	24	yes	44	1	997
6.6.1	win	2022-12-14	15:09:34	15:22:19	762945	5e387f2c0d70ef099d5e5a4f	596661261	1	main_z	11	advance_on_keypress_ZEE	70	stimuli_target_diamondsquares.svg	stimuli_distractor_diamondtriangles.svg	24	yes	57	0	871
6.6.1	win	2022-12-14	15:09:34	15:22:22	765805	5e387f2c0d70ef099d5e5a4f	596661261	1	main_z	11	main_z	71	stimuli_target_diamondcircles.svg	stimuli_distractor_trianglediamonds.svg	19	yes	44	1	1340
6.6.1	win	2022-12-14	15:09:34	15:22:22	765805	5e387f2c0d70ef099d5e5a4f	596661261	1	main_z	11	advance_on_keypress_ZEE	72	stimuli_target_diamondcircles.svg	stimuli_distractor_trianglediamonds.svg	19	yes	57	0	2072
6.6.1	win	2022-12-14	15:09:34	15:22:27	770515	5e387f2c0d70ef099d5e5a4f	596661261	1	main_z	11	main_z	73	stimuli_distractor_diamondtriangles.svg	stimuli_distractor_diamondtriangles.svg	39	no	0	1	2000
6.6.1	win	2022-12-14	15:09:34	15:22:27	770515	5e387f2c0d70ef099d5e5a4f	596661261	1	main_z	11	advance_on_keypress_ZEE	74	stimuli_distractor_diamondtriangles.svg	stimuli_distractor_diamondtriangles.svg	39	no	57	0	280
6.6.1	win	2022-12-14	15:09:34	15:22:29	772299	5e387f2c0d70ef099d5e5a4f	596661261	1	main_z	11	main_z	75	stimuli_distractor_diamondtriangles.svg	stimuli_target_squaretriangles.svg	15	yes	44	1	851
6.6.1	win	2022-12-14	15:09:34	15:22:29	772299	5e387f2c0d70ef099d5e5a4f	596661261	1	main_z	11	advance_on_keypress_ZEE	76	stimuli_distractor_diamondtriangles.svg	stimuli_target_squaretriangles.svg	15	yes	57	0	432
6.6.1	win	2022-12-14	15:09:34	15:22:31	774344	5e387f2c0d70ef099d5e5a4f	596661261	1	main_z	11	main_z	77	stimuli_target_diamondsquares.svg	stimuli_distractor_trianglediamonds.svg	20	yes	44	1	962
6.6.1	win	2022-12-14	15:09:34	15:22:31	774344	5e387f2c0d70ef099d5e5a4f	596661261	1	main_z	11	advance_on_keypress_ZEE	78	stimuli_target_diamondsquares.svg	stimuli_distractor_trianglediamonds.svg	20	yes	57	0	430
6.6.1	win	2022-12-14	15:09:34	15:22:33	776397	5e387f2c0d70ef099d5e5a4f	596661261	1	main_z	11	main_z	79	stimuli_target_squaretriangles.svg	stimuli_distractor_trianglediamonds.svg	3	yes	44	1	965
6.6.1	win	2022-12-14	15:09:34	15:22:33	776397	5e387f2c0d70ef099d5e5a4f	596661261	1	main_z	11	advance_on_keypress_ZEE	80	stimuli_target_squaretriangles.svg	stimuli_distractor_trianglediamonds.svg	3	yes	57	0	491
6.6.1	win	2022-12-14	15:09:34	15:22:35	778623	5e387f2c0d70ef099d5e5a4f	596661261	1	main_z	11	main_z	81	stimuli_target_trianglecircles.svg	stimuli_distractor_trianglediamonds.svg	17	yes	44	1	1091
6.6.1	win	2022-12-14	15:09:34	15:22:35	778623	5e387f2c0d70ef099d5e5a4f	596661261	1	main_z	11	advance_on_keypress_ZEE	82	stimuli_target_trianglecircles.svg	stimuli_distractor_trianglediamonds.svg	17	yes	57	0	990
6.6.1	win	2022-12-14	15:09:34	15:22:38	781254	5e387f2c0d70ef099d5e5a4f	596661261	1	main_z	11	main_z	83	stimuli_distractor_diamondtriangles.svg	stimuli_target_squarediamonds.svg	16	yes	44	1	1006
6.6.1	win	2022-12-14	15:09:34	15:22:38	781254	5e387f2c0d70ef099d5e5a4f	596661261	1	main_z	11	advance_on_keypress_ZEE	84	stimuli_distractor_diamondtriangles.svg	stimuli_target_squarediamonds.svg	16	yes	57	0	566
6.6.1	win	2022-12-14	15:09:34	15:22:41	784465	5e387f2c0d70ef099d5e5a4f	596661261	1	main_z	11	main_z	85	stimuli_distractor_trianglediamonds.svg	stimuli_distractor_diamondtriangles.svg	35	no	0	1	2000
6.6.1	win	2022-12-14	15:09:34	15:22:41	784465	5e387f2c0d70ef099d5e5a4f	596661261	1	main_z	11	advance_on_keypress_ZEE	86	stimuli_distractor_trianglediamonds.svg	stimuli_distractor_diamondtriangles.svg	35	no	57	0	1284
6.6.1	win	2022-12-14	15:09:34	15:22:44	787265	5e387f2c0d70ef099d5e5a4f	596661261	1	main_z	11	main_z	87	stimuli_distractor_trianglediamonds.svg	stimuli_target_trianglecircles.svg	25	yes	44	1	867
6.6.1	win	2022-12-14	15:09:34	15:22:44	787265	5e387f2c0d70ef099d5e5a4f	596661261	1	main_z	11	advance_on_keypress_ZEE	88	stimuli_distractor_trianglediamonds.svg	stimuli_target_trianglecircles.svg	25	yes	57	0	444
6.6.1	win	2022-12-14	15:09:34	15:22:46	789209	5e387f2c0d70ef099d5e5a4f	596661261	1	main_z	11	main_z	89	stimuli_distractor_diamondtriangles.svg	stimuli_target_diamondsquares.svg	32	yes	44	1	843
6.6.1	win	2022-12-14	15:09:34	15:22:46	789209	5e387f2c0d70ef099d5e5a4f	596661261	1	main_z	11	advance_on_keypress_ZEE	90	stimuli_distractor_diamondtriangles.svg	stimuli_target_diamondsquares.svg	32	yes	57	0	500
6.6.1	win	2022-12-14	15:09:34	15:22:48	791148	5e387f2c0d70ef099d5e5a4f	596661261	1	main_z	11	main_z	91	stimuli_target_squarediamonds.svg	stimuli_distractor_diamondtriangles.svg	8	yes	44	1	800
6.6.1	win	2022-12-14	15:09:34	15:22:48	791148	5e387f2c0d70ef099d5e5a4f	596661261	1	main_z	11	advance_on_keypress_ZEE	92	stimuli_target_squarediamonds.svg	stimuli_distractor_diamondtriangles.svg	8	yes	57	0	454
6.6.1	win	2022-12-14	15:09:34	15:22:49	793082	5e387f2c0d70ef099d5e5a4f	596661261	1	main_z	11	main_z	93	stimuli_target_diamondsquares.svg	stimuli_distractor_trianglediamonds.svg	20	yes	44	1	833
6.6.1	win	2022-12-14	15:09:34	15:22:49	793082	5e387f2c0d70ef099d5e5a4f	596661261	1	main_z	11	advance_on_keypress_ZEE	94	stimuli_target_diamondsquares.svg	stimuli_distractor_trianglediamonds.svg	20	yes	57	0	426
6.6.1	win	2022-12-14	15:09:34	15:22:51	795009	5e387f2c0d70ef099d5e5a4f	596661261	1	main_z	11	main_z	95	stimuli_distractor_diamondtriangles.svg	stimuli_target_squaretriangles.svg	15	yes	44	1	860
6.6.1	win	2022-12-14	15:09:34	15:22:51	795009	5e387f2c0d70ef099d5e5a4f	596661261	1	main_z	11	advance_on_keypress_ZEE	96	stimuli_distractor_diamondtriangles.svg	stimuli_target_squaretriangles.svg	15	yes	57	0	502
6.6.1	win	2022-12-14	15:09:34	15:22:55	798149	5e387f2c0d70ef099d5e5a4f	596661261	1	main_z	11	main_z	97	stimuli_distractor_diamondtriangles.svg	stimuli_distractor_trianglediamonds.svg	37	no	0	1	2000
6.6.1	win	2022-12-14	15:09:34	15:22:55	798149	5e387f2c0d70ef099d5e5a4f	596661261	1	main_z	11	advance_on_keypress_ZEE	98	stimuli_distractor_diamondtriangles.svg	stimuli_distractor_trianglediamonds.svg	37	no	57	0	5168
6.6.1	win	2022-12-14	15:09:34	15:23:01	804804	5e387f2c0d70ef099d5e5a4f	596661261	1	main_z	11	main_z	99	stimuli_distractor_trianglediamonds.svg	stimuli_target_squarediamonds.svg	12	yes	44	1	838
6.6.1	win	2022-12-14	15:09:34	15:23:01	804804	5e387f2c0d70ef099d5e5a4f	596661261	1	main_z	11	advance_on_keypress_ZEE	100	stimuli_distractor_trianglediamonds.svg	stimuli_target_squarediamonds.svg	12	yes	57	0	488
6.6.1	win	2022-12-14	15:09:34	15:23:04	807932	5e387f2c0d70ef099d5e5a4f	596661261	1	main_z	11	main_z	101	stimuli_distractor_trianglediamonds.svg	stimuli_distractor_trianglediamonds.svg	34	no	0	1	2000
6.6.1	win	2022-12-14	15:09:34	15:23:04	807932	5e387f2c0d70ef099d5e5a4f	596661261	1	main_z	11	advance_on_keypress_ZEE	102	stimuli_distractor_trianglediamonds.svg	stimuli_distractor_trianglediamonds.svg	34	no	57	0	580
6.6.1	win	2022-12-14	15:09:34	15:23:06	810011	5e387f2c0d70ef099d5e5a4f	596661261	1	main_z	11	main_z	103	stimuli_target_trianglesquares.svg	stimuli_distractor_trianglediamonds.svg	18	yes	44	1	845
6.6.1	win	2022-12-14	15:09:34	15:23:06	810011	5e387f2c0d70ef099d5e5a4f	596661261	1	main_z	11	advance_on_keypress_ZEE	104	stimuli_target_trianglesquares.svg	stimuli_distractor_trianglediamonds.svg	18	yes	57	0	536
6.6.1	win	2022-12-14	15:09:34	15:23:08	812030	5e387f2c0d70ef099d5e5a4f	596661261	1	main_z	11	main_z	105	stimuli_distractor_trianglediamonds.svg	stimuli_target_circletriangles.svg	9	yes	44	1	830
6.6.1	win	2022-12-14	15:09:34	15:23:08	812030	5e387f2c0d70ef099d5e5a4f	596661261	1	main_z	11	advance_on_keypress_ZEE	106	stimuli_distractor_trianglediamonds.svg	stimuli_target_circletriangles.svg	9	yes	57	0	374
6.6.1	win	2022-12-14	15:09:34	15:23:11	814100	5e387f2c0d70ef099d5e5a4f	596661261	1	main_z	11	main_z	107	stimuli_distractor_trianglediamonds.svg	stimuli_target_diamondsquares.svg	28	yes	44	1	1050
6.6.1	win	2022-12-14	15:09:34	15:23:11	814100	5e387f2c0d70ef099d5e5a4f	596661261	1	main_z	11	advance_on_keypress_ZEE	108	stimuli_distractor_trianglediamonds.svg	stimuli_target_diamondsquares.svg	28	yes	57	0	366
6.6.1	win	2022-12-14	15:09:34	15:23:12	816053	5e387f2c0d70ef099d5e5a4f	596661261	1	main_z	11	main_z	109	stimuli_distractor_diamondtriangles.svg	stimuli_target_trianglesquares.svg	30	yes	44	1	937
6.6.1	win	2022-12-14	15:09:34	15:23:12	816053	5e387f2c0d70ef099d5e5a4f	596661261	1	main_z	11	advance_on_keypress_ZEE	110	stimuli_distractor_diamondtriangles.svg	stimuli_target_trianglesquares.svg	30	yes	57	0	453
6.6.1	win	2022-12-14	15:09:34	15:23:15	818241	5e387f2c0d70ef099d5e5a4f	596661261	1	main_z	11	main_z	111	stimuli_distractor_diamondtriangles.svg	stimuli_target_trianglecircles.svg	29	yes	44	1	1091
6.6.1	win	2022-12-14	15:09:34	15:23:15	818241	5e387f2c0d70ef099d5e5a4f	596661261	1	main_z	11	advance_on_keypress_ZEE	112	stimuli_distractor_diamondtriangles.svg	stimuli_target_trianglecircles.svg	29	yes	57	0	387
6.6.1	win	2022-12-14	15:09:34	15:23:17	820160	5e387f2c0d70ef099d5e5a4f	596661261	1	main_z	11	main_z	113	stimuli_target_circlediamonds.svg	stimuli_distractor_trianglediamonds.svg	2	yes	44	1	894
6.6.1	win	2022-12-14	15:09:34	15:23:17	820160	5e387f2c0d70ef099d5e5a4f	596661261	1	main_z	11	advance_on_keypress_ZEE	114	stimuli_target_circlediamonds.svg	stimuli_distractor_trianglediamonds.svg	2	yes	57	0	4150
6.6.1	win	2022-12-14	15:09:34	15:23:22	825617	5e387f2c0d70ef099d5e5a4f	596661261	1	main_z	11	main_z	115	stimuli_distractor_trianglediamonds.svg	stimuli_target_squaretriangles.svg	11	yes	44	1	652
6.6.1	win	2022-12-14	15:09:34	15:23:22	825617	5e387f2c0d70ef099d5e5a4f	596661261	1	main_z	11	advance_on_keypress_ZEE	116	stimuli_distractor_trianglediamonds.svg	stimuli_target_squaretriangles.svg	11	yes	57	0	535
6.6.1	win	2022-12-14	15:09:34	15:23:24	827583	5e387f2c0d70ef099d5e5a4f	596661261	1	main_z	11	main_z	117	stimuli_target_trianglecircles.svg	stimuli_distractor_diamondtriangles.svg	21	yes	44	1	783
6.6.1	win	2022-12-14	15:09:34	15:23:24	827583	5e387f2c0d70ef099d5e5a4f	596661261	1	main_z	11	advance_on_keypress_ZEE	118	stimuli_target_trianglecircles.svg	stimuli_distractor_diamondtriangles.svg	21	yes	57	0	361
6.6.1	win	2022-12-14	15:09:34	15:23:26	829259	5e387f2c0d70ef099d5e5a4f	596661261	1	main_z	11	main_z	119	stimuli_target_circletriangles.svg	stimuli_distractor_diamondtriangles.svg	5	yes	44	1	657
6.6.1	win	2022-12-14	15:09:34	15:23:26	829259	5e387f2c0d70ef099d5e5a4f	596661261	1	main_z	11	advance_on_keypress_ZEE	120	stimuli_target_circletriangles.svg	stimuli_distractor_diamondtriangles.svg	5	yes	57	0	446
6.6.1	win	2022-12-14	15:09:34	15:23:29	832366	5e387f2c0d70ef099d5e5a4f	596661261	1	main_z	11	main_z	121	stimuli_distractor_diamondtriangles.svg	stimuli_distractor_diamondtriangles.svg	40	no	0	1	2000
6.6.1	win	2022-12-14	15:09:34	15:23:29	832366	5e387f2c0d70ef099d5e5a4f	596661261	1	main_z	11	advance_on_keypress_ZEE	122	stimuli_distractor_diamondtriangles.svg	stimuli_distractor_diamondtriangles.svg	40	no	57	0	1151
6.6.1	win	2022-12-14	15:09:34	15:23:31	834978	5e387f2c0d70ef099d5e5a4f	596661261	1	main_z	11	main_z	123	stimuli_target_squarediamonds.svg	stimuli_distractor_trianglediamonds.svg	4	yes	44	1	811
6.6.1	win	2022-12-14	15:09:34	15:23:31	834978	5e387f2c0d70ef099d5e5a4f	596661261	1	main_z	11	advance_on_keypress_ZEE	124	stimuli_target_squarediamonds.svg	stimuli_distractor_trianglediamonds.svg	4	yes	57	0	444
6.6.1	win	2022-12-14	15:09:34	15:23:34	838067	5e387f2c0d70ef099d5e5a4f	596661261	1	main_z	11	main_z	125	stimuli_distractor_trianglediamonds.svg	stimuli_distractor_diamondtriangles.svg	36	no	0	1	2000
6.6.1	win	2022-12-14	15:09:34	15:23:34	838067	5e387f2c0d70ef099d5e5a4f	596661261	1	main_z	11	advance_on_keypress_ZEE	126	stimuli_distractor_trianglediamonds.svg	stimuli_distractor_diamondtriangles.svg	36	no	57	0	458
6.6.1	win	2022-12-14	15:09:34	15:23:36	840006	5e387f2c0d70ef099d5e5a4f	596661261	1	main_z	11	main_z	127	stimuli_target_diamondcircles.svg	stimuli_distractor_diamondtriangles.svg	23	yes	44	1	839
6.6.1	win	2022-12-14	15:09:34	15:23:36	840006	5e387f2c0d70ef099d5e5a4f	596661261	1	main_z	11	advance_on_keypress_ZEE	128	stimuli_target_diamondcircles.svg	stimuli_distractor_diamondtriangles.svg	23	yes	57	0	473
6.6.1	win	2022-12-14	15:09:34	15:23:39	842205	5e387f2c0d70ef099d5e5a4f	596661261	1	main_z	11	main_z	129	stimuli_target_circletriangles.svg	stimuli_distractor_trianglediamonds.svg	1	yes	44	1	1088
6.6.1	win	2022-12-14	15:09:34	15:23:39	842205	5e387f2c0d70ef099d5e5a4f	596661261	1	main_z	11	advance_on_keypress_ZEE	130	stimuli_target_circletriangles.svg	stimuli_distractor_trianglediamonds.svg	1	yes	57	0	373
6.6.1	win	2022-12-14	15:09:34	15:23:41	844467	5e387f2c0d70ef099d5e5a4f	596661261	1	main_z	11	main_z	131	stimuli_distractor_trianglediamonds.svg	stimuli_target_trianglesquares.svg	26	yes	44	1	1250
6.6.1	win	2022-12-14	15:09:34	15:23:41	844467	5e387f2c0d70ef099d5e5a4f	596661261	1	main_z	11	advance_on_keypress_ZEE	132	stimuli_distractor_trianglediamonds.svg	stimuli_target_trianglesquares.svg	26	yes	57	0	2147
6.6.1	win	2022-12-14	15:09:34	15:23:45	848179	5e387f2c0d70ef099d5e5a4f	596661261	1	main_z	11	main_z	133	stimuli_target_diamondcircles.svg	stimuli_distractor_trianglediamonds.svg	19	yes	44	1	912
6.6.1	win	2022-12-14	15:09:34	15:23:45	848179	5e387f2c0d70ef099d5e5a4f	596661261	1	main_z	11	advance_on_keypress_ZEE	134	stimuli_target_diamondcircles.svg	stimuli_distractor_trianglediamonds.svg	19	yes	57	0	437
6.6.1	win	2022-12-14	15:09:34	15:23:47	850261	5e387f2c0d70ef099d5e5a4f	596661261	1	main_z	11	main_z	135	stimuli_target_squaretriangles.svg	stimuli_distractor_diamondtriangles.svg	7	yes	44	1	994
6.6.1	win	2022-12-14	15:09:34	15:23:47	850261	5e387f2c0d70ef099d5e5a4f	596661261	1	main_z	11	advance_on_keypress_ZEE	136	stimuli_target_squaretriangles.svg	stimuli_distractor_diamondtriangles.svg	7	yes	57	0	439
6.6.1	win	2022-12-14	15:09:34	15:23:50	853334	5e387f2c0d70ef099d5e5a4f	596661261	1	main_z	11	main_z	137	stimuli_distractor_diamondtriangles.svg	stimuli_target_circlediamonds.svg	14	yes	0	0	2000
6.6.1	win	2022-12-14	15:09:34	15:23:50	853334	5e387f2c0d70ef099d5e5a4f	596661261	1	main_z	11	advance_on_keypress_ZEE	138	stimuli_distractor_diamondtriangles.svg	stimuli_target_circlediamonds.svg	14	yes	57	0	1298
6.6.1	win	2022-12-14	15:09:34	15:23:54	857284	5e387f2c0d70ef099d5e5a4f	596661261	1	main_z	11	main_z	139	stimuli_distractor_diamondtriangles.svg	stimuli_distractor_trianglediamonds.svg	38	no	0	1	2000
6.6.1	win	2022-12-14	15:09:34	15:23:54	857284	5e387f2c0d70ef099d5e5a4f	596661261	1	main_z	11	advance_on_keypress_ZEE	140	stimuli_distractor_diamondtriangles.svg	stimuli_distractor_trianglediamonds.svg	38	no	57	0	2191
6.6.1	win	2022-12-14	15:09:34	15:23:58	861237	5e387f2c0d70ef099d5e5a4f	596661261	1	main_z	11	main_z	141	stimuli_distractor_trianglediamonds.svg	stimuli_target_diamondcircles.svg	27	yes	44	1	1120
6.6.1	win	2022-12-14	15:09:34	15:23:58	861237	5e387f2c0d70ef099d5e5a4f	596661261	1	main_z	11	advance_on_keypress_ZEE	142	stimuli_distractor_trianglediamonds.svg	stimuli_target_diamondcircles.svg	27	yes	57	0	750
6.6.1	win	2022-12-14	15:09:34	15:24:00	863529	5e387f2c0d70ef099d5e5a4f	596661261	1	main_z	11	main_z	143	stimuli_target_circlediamonds.svg	stimuli_distractor_diamondtriangles.svg	6	yes	44	1	895
6.6.1	win	2022-12-14	15:09:34	15:24:00	863529	5e387f2c0d70ef099d5e5a4f	596661261	1	main_z	11	advance_on_keypress_ZEE	144	stimuli_target_circlediamonds.svg	stimuli_distractor_diamondtriangles.svg	6	yes	57	0	393
6.6.1	win	2022-12-14	15:09:34	15:24:02	865500	5e387f2c0d70ef099d5e5a4f	596661261	1	main_z	11	main_z	145	stimuli_target_diamondsquares.svg	stimuli_distractor_diamondtriangles.svg	24	yes	44	1	933
6.6.1	win	2022-12-14	15:09:34	15:24:02	865500	5e387f2c0d70ef099d5e5a4f	596661261	1	main_z	11	advance_on_keypress_ZEE	146	stimuli_target_diamondsquares.svg	stimuli_distractor_diamondtriangles.svg	24	yes	57	0	417
6.6.1	win	2022-12-14	15:09:34	15:24:05	868567	5e387f2c0d70ef099d5e5a4f	596661261	1	main_z	11	main_z	147	stimuli_distractor_diamondtriangles.svg	stimuli_distractor_diamondtriangles.svg	39	no	0	1	2000
6.6.1	win	2022-12-14	15:09:34	15:24:05	868567	5e387f2c0d70ef099d5e5a4f	596661261	1	main_z	11	advance_on_keypress_ZEE	148	stimuli_distractor_diamondtriangles.svg	stimuli_distractor_diamondtriangles.svg	39	no	57	0	488
6.6.1	win	2022-12-14	15:09:34	15:24:08	871701	5e387f2c0d70ef099d5e5a4f	596661261	1	main_z	11	main_z	149	stimuli_distractor_trianglediamonds.svg	stimuli_distractor_trianglediamonds.svg	33	no	0	1	2000
6.6.1	win	2022-12-14	15:09:34	15:24:08	871701	5e387f2c0d70ef099d5e5a4f	596661261	1	main_z	11	advance_on_keypress_ZEE	150	stimuli_distractor_trianglediamonds.svg	stimuli_distractor_trianglediamonds.svg	33	no	57	0	3823
6.6.1	win	2022-12-14	15:09:34	15:24:13	876872	5e387f2c0d70ef099d5e5a4f	596661261	1	main_z	11	main_z	151	stimuli_target_squaretriangles.svg	stimuli_distractor_trianglediamonds.svg	3	yes	44	1	704
6.6.1	win	2022-12-14	15:09:34	15:24:13	876872	5e387f2c0d70ef099d5e5a4f	596661261	1	main_z	11	advance_on_keypress_ZEE	152	stimuli_target_squaretriangles.svg	stimuli_distractor_trianglediamonds.svg	3	yes	57	0	419
6.6.1	win	2022-12-14	15:09:34	15:24:15	878688	5e387f2c0d70ef099d5e5a4f	596661261	1	main_z	11	main_z	153	stimuli_distractor_trianglediamonds.svg	stimuli_target_circlediamonds.svg	10	yes	44	1	754
6.6.1	win	2022-12-14	15:09:34	15:24:15	878688	5e387f2c0d70ef099d5e5a4f	596661261	1	main_z	11	advance_on_keypress_ZEE	154	stimuli_distractor_trianglediamonds.svg	stimuli_target_circlediamonds.svg	10	yes	57	0	488
6.6.1	win	2022-12-14	15:09:34	15:24:17	880737	5e387f2c0d70ef099d5e5a4f	596661261	1	main_z	11	main_z	155	stimuli_target_trianglesquares.svg	stimuli_distractor_diamondtriangles.svg	22	yes	44	1	919
6.6.1	win	2022-12-14	15:09:34	15:24:17	880737	5e387f2c0d70ef099d5e5a4f	596661261	1	main_z	11	advance_on_keypress_ZEE	156	stimuli_target_trianglesquares.svg	stimuli_distractor_diamondtriangles.svg	22	yes	57	0	695
6.6.1	win	2022-12-14	15:09:34	15:24:20	884084	5e387f2c0d70ef099d5e5a4f	596661261	1	main_z	11	main_z	157	stimuli_distractor_diamondtriangles.svg	stimuli_target_diamondcircles.svg	31	yes	0	0	2000
6.6.1	win	2022-12-14	15:09:34	15:24:20	884084	5e387f2c0d70ef099d5e5a4f	596661261	1	main_z	11	advance_on_keypress_ZEE	158	stimuli_distractor_diamondtriangles.svg	stimuli_target_diamondcircles.svg	31	yes	57	0	2969
6.6.1	win	2022-12-14	15:09:34	15:24:25	888576	5e387f2c0d70ef099d5e5a4f	596661261	1	main_z	11	main_z	159	stimuli_distractor_diamondtriangles.svg	stimuli_target_circletriangles.svg	13	yes	44	1	875
6.6.1	win	2022-12-14	15:09:34	15:24:25	888576	5e387f2c0d70ef099d5e5a4f	596661261	1	main_z	11	advance_on_keypress_ZEE	160	stimuli_distractor_diamondtriangles.svg	stimuli_target_circletriangles.svg	13	yes	57	0	604