build	computer.platform	date	time	timestamp	time_elapsed_ms	subject	group	session	blockcode	blocknum	trialcode	trialnum	stimulus_left	stimulus_right	stim_index	target_present	response	correct	latency
6.6.1	win	2022-12-16	11:42:05	11:47:34	327131	634811ed1f5bcbea7adcaf69	378784676	1	practice_z	5	practice_z	1	stimuli_target_circlediamonds.svg	stimuli_distractor_trianglediamonds.svg	4	yes	44	1	472
6.6.1	win	2022-12-16	11:42:05	11:47:34	327131	634811ed1f5bcbea7adcaf69	378784676	1	practice_z	5	advance_on_keypress_ZEE	2	stimuli_target_circlediamonds.svg	stimuli_distractor_trianglediamonds.svg	4	yes	57	0	830
6.6.1	win	2022-12-16	11:42:05	11:47:37	330250	634811ed1f5bcbea7adcaf69	378784676	1	practice_z	5	practice_z	3	stimuli_distractor_diamondtriangles.svg	stimuli_target_trianglecircles.svg	9	yes	44	1	610
6.6.1	win	2022-12-16	11:42:05	11:47:37	330250	634811ed1f5bcbea7adcaf69	378784676	1	practice_z	5	advance_on_keypress_ZEE	4	stimuli_distractor_diamondtriangles.svg	stimuli_target_trianglecircles.svg	9	yes	57	0	986
6.6.1	win	2022-12-16	11:42:05	11:47:41	334885	634811ed1f5bcbea7adcaf69	378784676	1	practice_z	5	practice_z	5	stimuli_distractor_diamondtriangles.svg	stimuli_distractor_trianglediamonds.svg	14	no	0	1	2000
6.6.1	win	2022-12-16	11:42:05	11:47:41	334885	634811ed1f5bcbea7adcaf69	378784676	1	practice_z	5	advance_on_keypress_ZEE	6	stimuli_distractor_diamondtriangles.svg	stimuli_distractor_trianglediamonds.svg	14	no	57	0	331
6.6.1	win	2022-12-16	11:42:05	11:47:44	337700	634811ed1f5bcbea7adcaf69	378784676	1	practice_z	5	practice_z	7	stimuli_distractor_trianglediamonds.svg	stimuli_target_diamondcircles.svg	12	yes	44	1	818
6.6.1	win	2022-12-16	11:42:05	11:47:44	337700	634811ed1f5bcbea7adcaf69	378784676	1	practice_z	5	advance_on_keypress_ZEE	8	stimuli_distractor_trianglediamonds.svg	stimuli_target_diamondcircles.svg	12	yes	57	0	811
6.6.1	win	2022-12-16	11:42:05	11:47:47	340873	634811ed1f5bcbea7adcaf69	378784676	1	practice_z	5	practice_z	9	stimuli_distractor_diamondtriangles.svg	stimuli_target_circletriangles.svg	7	yes	44	1	696
6.6.1	win	2022-12-16	11:42:05	11:47:47	340873	634811ed1f5bcbea7adcaf69	378784676	1	practice_z	5	advance_on_keypress_ZEE	10	stimuli_distractor_diamondtriangles.svg	stimuli_target_circletriangles.svg	7	yes	57	0	1126
6.6.1	win	2022-12-16	11:42:05	11:47:51	344569	634811ed1f5bcbea7adcaf69	378784676	1	practice_z	5	practice_z	11	stimuli_target_squarediamonds.svg	stimuli_distractor_diamondtriangles.svg	2	yes	44	1	911
6.6.1	win	2022-12-16	11:42:05	11:47:51	344569	634811ed1f5bcbea7adcaf69	378784676	1	practice_z	5	advance_on_keypress_ZEE	12	stimuli_target_squarediamonds.svg	stimuli_distractor_diamondtriangles.svg	2	yes	57	0	604
6.6.1	win	2022-12-16	11:42:05	11:47:54	347723	634811ed1f5bcbea7adcaf69	378784676	1	practice_z	5	practice_z	13	stimuli_target_circlediamonds.svg	stimuli_distractor_diamondtriangles.svg	1	yes	44	1	903
6.6.1	win	2022-12-16	11:42:05	11:47:54	347723	634811ed1f5bcbea7adcaf69	378784676	1	practice_z	5	advance_on_keypress_ZEE	14	stimuli_target_circlediamonds.svg	stimuli_distractor_diamondtriangles.svg	1	yes	57	0	569
6.6.1	win	2022-12-16	11:42:05	11:47:58	351966	634811ed1f5bcbea7adcaf69	378784676	1	practice_z	5	practice_z	15	stimuli_target_diamondsquares.svg	stimuli_distractor_trianglediamonds.svg	6	yes	0	0	2000
6.6.1	win	2022-12-16	11:42:05	11:47:58	351966	634811ed1f5bcbea7adcaf69	378784676	1	practice_z	5	advance_on_keypress_ZEE	16	stimuli_target_diamondsquares.svg	stimuli_distractor_trianglediamonds.svg	6	yes	57	0	456
6.6.1	win	2022-12-16	11:42:05	11:48:03	356078	634811ed1f5bcbea7adcaf69	378784676	1	practice_z	5	practice_z	17	stimuli_distractor_diamondtriangles.svg	stimuli_distractor_diamondtriangles.svg	13	no	0	1	2000
6.6.1	win	2022-12-16	11:42:05	11:48:03	356078	634811ed1f5bcbea7adcaf69	378784676	1	practice_z	5	advance_on_keypress_ZEE	18	stimuli_distractor_diamondtriangles.svg	stimuli_distractor_diamondtriangles.svg	13	no	57	0	1673
6.6.1	win	2022-12-16	11:42:05	11:48:08	361282	634811ed1f5bcbea7adcaf69	378784676	1	practice_z	5	practice_z	19	stimuli_target_diamondsquares.svg	stimuli_distractor_diamondtriangles.svg	3	yes	44	1	1858
6.6.1	win	2022-12-16	11:42:05	11:48:08	361282	634811ed1f5bcbea7adcaf69	378784676	1	practice_z	5	advance_on_keypress_ZEE	20	stimuli_target_diamondsquares.svg	stimuli_distractor_diamondtriangles.svg	3	yes	57	0	1180
6.6.1	win	2022-12-16	11:42:05	11:48:11	365003	634811ed1f5bcbea7adcaf69	378784676	1	practice_z	5	practice_z	21	stimuli_target_squarediamonds.svg	stimuli_distractor_trianglediamonds.svg	5	yes	44	1	884
6.6.1	win	2022-12-16	11:42:05	11:48:11	365003	634811ed1f5bcbea7adcaf69	378784676	1	practice_z	5	advance_on_keypress_ZEE	22	stimuli_target_squarediamonds.svg	stimuli_distractor_trianglediamonds.svg	5	yes	57	0	608
6.6.1	win	2022-12-16	11:42:05	11:48:15	368216	634811ed1f5bcbea7adcaf69	378784676	1	practice_z	5	practice_z	23	stimuli_distractor_trianglediamonds.svg	stimuli_target_circlediamonds.svg	10	yes	44	1	935
6.6.1	win	2022-12-16	11:42:05	11:48:15	368216	634811ed1f5bcbea7adcaf69	378784676	1	practice_z	5	advance_on_keypress_ZEE	24	stimuli_distractor_trianglediamonds.svg	stimuli_target_circlediamonds.svg	10	yes	57	0	503
6.6.1	win	2022-12-16	11:42:05	11:48:19	372377	634811ed1f5bcbea7adcaf69	378784676	1	practice_z	5	practice_z	25	stimuli_distractor_trianglediamonds.svg	stimuli_distractor_diamondtriangles.svg	16	no	0	1	2000
6.6.1	win	2022-12-16	11:42:05	11:48:19	372377	634811ed1f5bcbea7adcaf69	378784676	1	practice_z	5	advance_on_keypress_ZEE	26	stimuli_distractor_trianglediamonds.svg	stimuli_distractor_diamondtriangles.svg	16	no	57	0	616
6.6.1	win	2022-12-16	11:42:05	11:48:23	376657	634811ed1f5bcbea7adcaf69	378784676	1	practice_z	5	practice_z	27	stimuli_distractor_trianglediamonds.svg	stimuli_distractor_trianglediamonds.svg	15	no	0	1	2000
6.6.1	win	2022-12-16	11:42:05	11:48:23	376657	634811ed1f5bcbea7adcaf69	378784676	1	practice_z	5	advance_on_keypress_ZEE	28	stimuli_distractor_trianglediamonds.svg	stimuli_distractor_trianglediamonds.svg	15	no	57	0	249
6.6.1	win	2022-12-16	11:42:05	11:48:26	379275	634811ed1f5bcbea7adcaf69	378784676	1	practice_z	5	practice_z	29	stimuli_distractor_trianglediamonds.svg	stimuli_target_squarediamonds.svg	11	yes	44	1	707
6.6.1	win	2022-12-16	11:42:05	11:48:26	379275	634811ed1f5bcbea7adcaf69	378784676	1	practice_z	5	advance_on_keypress_ZEE	30	stimuli_distractor_trianglediamonds.svg	stimuli_target_squarediamonds.svg	11	yes	57	0	553
6.6.1	win	2022-12-16	11:42:05	11:48:29	382265	634811ed1f5bcbea7adcaf69	378784676	1	practice_z	5	practice_z	31	stimuli_distractor_diamondtriangles.svg	stimuli_target_diamondcircles.svg	8	yes	44	1	782
6.6.1	win	2022-12-16	11:42:05	11:48:29	382265	634811ed1f5bcbea7adcaf69	378784676	1	practice_z	5	advance_on_keypress_ZEE	32	stimuli_distractor_diamondtriangles.svg	stimuli_target_diamondcircles.svg	8	yes	57	0	460
6.6.1	win	2022-12-16	11:42:05	11:48:38	391944	634811ed1f5bcbea7adcaf69	378784676	1	main_z	7	main_z	1	stimuli_target_diamondsquares.svg	stimuli_distractor_trianglediamonds.svg	20	yes	44	1	1010
6.6.1	win	2022-12-16	11:42:05	11:48:38	391944	634811ed1f5bcbea7adcaf69	378784676	1	main_z	7	advance_on_keypress_ZEE	2	stimuli_target_diamondsquares.svg	stimuli_distractor_trianglediamonds.svg	20	yes	57	0	677
6.6.1	win	2022-12-16	11:42:05	11:48:41	394287	634811ed1f5bcbea7adcaf69	378784676	1	main_z	7	main_z	3	stimuli_distractor_trianglediamonds.svg	stimuli_target_diamondsquares.svg	28	yes	44	1	1005
6.6.1	win	2022-12-16	11:42:05	11:48:41	394287	634811ed1f5bcbea7adcaf69	378784676	1	main_z	7	advance_on_keypress_ZEE	4	stimuli_distractor_trianglediamonds.svg	stimuli_target_diamondsquares.svg	28	yes	57	0	504
6.6.1	win	2022-12-16	11:42:05	11:48:43	396228	634811ed1f5bcbea7adcaf69	378784676	1	main_z	7	main_z	5	stimuli_distractor_trianglediamonds.svg	stimuli_target_circlediamonds.svg	10	yes	44	1	782
6.6.1	win	2022-12-16	11:42:05	11:48:43	396228	634811ed1f5bcbea7adcaf69	378784676	1	main_z	7	advance_on_keypress_ZEE	6	stimuli_distractor_trianglediamonds.svg	stimuli_target_circlediamonds.svg	10	yes	57	0	329
6.6.1	win	2022-12-16	11:42:05	11:48:45	398264	634811ed1f5bcbea7adcaf69	378784676	1	main_z	7	main_z	7	stimuli_target_trianglesquares.svg	stimuli_distractor_diamondtriangles.svg	22	yes	44	1	1053
6.6.1	win	2022-12-16	11:42:05	11:48:45	398264	634811ed1f5bcbea7adcaf69	378784676	1	main_z	7	advance_on_keypress_ZEE	8	stimuli_target_trianglesquares.svg	stimuli_distractor_diamondtriangles.svg	22	yes	57	0	251
6.6.1	win	2022-12-16	11:42:05	11:48:47	400042	634811ed1f5bcbea7adcaf69	378784676	1	main_z	7	main_z	9	stimuli_distractor_trianglediamonds.svg	stimuli_target_circletriangles.svg	9	yes	44	1	867
6.6.1	win	2022-12-16	11:42:05	11:48:47	400042	634811ed1f5bcbea7adcaf69	378784676	1	main_z	7	advance_on_keypress_ZEE	10	stimuli_distractor_trianglediamonds.svg	stimuli_target_circletriangles.svg	9	yes	57	0	270
6.6.1	win	2022-12-16	11:42:05	11:48:48	401889	634811ed1f5bcbea7adcaf69	378784676	1	main_z	7	main_z	11	stimuli_distractor_trianglediamonds.svg	stimuli_target_trianglesquares.svg	26	yes	44	1	932
6.6.1	win	2022-12-16	11:42:05	11:48:48	401889	634811ed1f5bcbea7adcaf69	378784676	1	main_z	7	advance_on_keypress_ZEE	12	stimuli_distractor_trianglediamonds.svg	stimuli_target_trianglesquares.svg	26	yes	57	0	224
6.6.1	win	2022-12-16	11:42:05	11:48:50	403644	634811ed1f5bcbea7adcaf69	378784676	1	main_z	7	main_z	13	stimuli_distractor_diamondtriangles.svg	stimuli_target_circlediamonds.svg	14	yes	44	1	889
6.6.1	win	2022-12-16	11:42:05	11:48:50	403644	634811ed1f5bcbea7adcaf69	378784676	1	main_z	7	advance_on_keypress_ZEE	14	stimuli_distractor_diamondtriangles.svg	stimuli_target_circlediamonds.svg	14	yes	57	0	173
6.6.1	win	2022-12-16	11:42:05	11:48:52	405486	634811ed1f5bcbea7adcaf69	378784676	1	main_z	7	main_z	15	stimuli_target_squaretriangles.svg	stimuli_distractor_trianglediamonds.svg	3	yes	44	1	1016
6.6.1	win	2022-12-16	11:42:05	11:48:52	405486	634811ed1f5bcbea7adcaf69	378784676	1	main_z	7	advance_on_keypress_ZEE	16	stimuli_target_squaretriangles.svg	stimuli_distractor_trianglediamonds.svg	3	yes	57	0	235
6.6.1	win	2022-12-16	11:42:05	11:48:55	408367	634811ed1f5bcbea7adcaf69	378784676	1	main_z	7	main_z	17	stimuli_distractor_trianglediamonds.svg	stimuli_distractor_trianglediamonds.svg	33	no	0	1	2000
6.6.1	win	2022-12-16	11:42:05	11:48:55	408367	634811ed1f5bcbea7adcaf69	378784676	1	main_z	7	advance_on_keypress_ZEE	18	stimuli_distractor_trianglediamonds.svg	stimuli_distractor_trianglediamonds.svg	33	no	57	0	425
6.6.1	win	2022-12-16	11:42:05	11:48:57	410369	634811ed1f5bcbea7adcaf69	378784676	1	main_z	7	main_z	19	stimuli_target_squarediamonds.svg	stimuli_distractor_trianglediamonds.svg	4	yes	44	1	939
6.6.1	win	2022-12-16	11:42:05	11:48:57	410369	634811ed1f5bcbea7adcaf69	378784676	1	main_z	7	advance_on_keypress_ZEE	20	stimuli_target_squarediamonds.svg	stimuli_distractor_trianglediamonds.svg	4	yes	57	0	252
6.6.1	win	2022-12-16	11:42:05	11:48:59	412150	634811ed1f5bcbea7adcaf69	378784676	1	main_z	7	main_z	21	stimuli_distractor_diamondtriangles.svg	stimuli_target_trianglecircles.svg	29	yes	44	1	871
6.6.1	win	2022-12-16	11:42:05	11:48:59	412150	634811ed1f5bcbea7adcaf69	378784676	1	main_z	7	advance_on_keypress_ZEE	22	stimuli_distractor_diamondtriangles.svg	stimuli_target_trianglecircles.svg	29	yes	57	0	127
6.6.1	win	2022-12-16	11:42:05	11:49:00	413867	634811ed1f5bcbea7adcaf69	378784676	1	main_z	7	main_z	23	stimuli_target_circlediamonds.svg	stimuli_distractor_trianglediamonds.svg	2	yes	44	1	940
6.6.1	win	2022-12-16	11:42:05	11:49:00	413867	634811ed1f5bcbea7adcaf69	378784676	1	main_z	7	advance_on_keypress_ZEE	24	stimuli_target_circlediamonds.svg	stimuli_distractor_trianglediamonds.svg	2	yes	57	0	136
6.6.1	win	2022-12-16	11:42:05	11:49:02	415561	634811ed1f5bcbea7adcaf69	378784676	1	main_z	7	main_z	25	stimuli_target_circletriangles.svg	stimuli_distractor_diamondtriangles.svg	5	yes	44	1	903
6.6.1	win	2022-12-16	11:42:05	11:49:02	415561	634811ed1f5bcbea7adcaf69	378784676	1	main_z	7	advance_on_keypress_ZEE	26	stimuli_target_circletriangles.svg	stimuli_distractor_diamondtriangles.svg	5	yes	57	0	122
6.6.1	win	2022-12-16	11:42:05	11:49:04	417350	634811ed1f5bcbea7adcaf69	378784676	1	main_z	7	main_z	27	stimuli_target_squarediamonds.svg	stimuli_distractor_diamondtriangles.svg	8	yes	44	1	1011
6.6.1	win	2022-12-16	11:42:05	11:49:04	417350	634811ed1f5bcbea7adcaf69	378784676	1	main_z	7	advance_on_keypress_ZEE	28	stimuli_target_squarediamonds.svg	stimuli_distractor_diamondtriangles.svg	8	yes	57	0	144
6.6.1	win	2022-12-16	11:42:05	11:49:06	419077	634811ed1f5bcbea7adcaf69	378784676	1	main_z	7	main_z	29	stimuli_distractor_diamondtriangles.svg	stimuli_target_squaretriangles.svg	15	yes	44	1	940
6.6.1	win	2022-12-16	11:42:05	11:49:06	419077	634811ed1f5bcbea7adcaf69	378784676	1	main_z	7	advance_on_keypress_ZEE	30	stimuli_distractor_diamondtriangles.svg	stimuli_target_squaretriangles.svg	15	yes	57	0	111
6.6.1	win	2022-12-16	11:42:05	11:49:07	420888	634811ed1f5bcbea7adcaf69	378784676	1	main_z	7	main_z	31	stimuli_distractor_diamondtriangles.svg	stimuli_target_diamondsquares.svg	32	yes	44	1	1037
6.6.1	win	2022-12-16	11:42:05	11:49:07	420888	634811ed1f5bcbea7adcaf69	378784676	1	main_z	7	advance_on_keypress_ZEE	32	stimuli_distractor_diamondtriangles.svg	stimuli_target_diamondsquares.svg	32	yes	57	0	113
6.6.1	win	2022-12-16	11:42:05	11:49:10	423667	634811ed1f5bcbea7adcaf69	378784676	1	main_z	7	main_z	33	stimuli_distractor_diamondtriangles.svg	stimuli_distractor_diamondtriangles.svg	39	no	0	1	2000
6.6.1	win	2022-12-16	11:42:05	11:49:10	423667	634811ed1f5bcbea7adcaf69	378784676	1	main_z	7	advance_on_keypress_ZEE	34	stimuli_distractor_diamondtriangles.svg	stimuli_distractor_diamondtriangles.svg	39	no	57	0	694
6.6.1	win	2022-12-16	11:42:05	11:49:12	425757	634811ed1f5bcbea7adcaf69	378784676	1	main_z	7	main_z	35	stimuli_target_squaretriangles.svg	stimuli_distractor_diamondtriangles.svg	7	yes	44	1	745
6.6.1	win	2022-12-16	11:42:05	11:49:12	425757	634811ed1f5bcbea7adcaf69	378784676	1	main_z	7	advance_on_keypress_ZEE	36	stimuli_target_squaretriangles.svg	stimuli_distractor_diamondtriangles.svg	7	yes	57	0	150
6.6.1	win	2022-12-16	11:42:05	11:49:14	427392	634811ed1f5bcbea7adcaf69	378784676	1	main_z	7	main_z	37	stimuli_distractor_diamondtriangles.svg	stimuli_target_squarediamonds.svg	16	yes	44	1	830
6.6.1	win	2022-12-16	11:42:05	11:49:14	427392	634811ed1f5bcbea7adcaf69	378784676	1	main_z	7	advance_on_keypress_ZEE	38	stimuli_distractor_diamondtriangles.svg	stimuli_target_squarediamonds.svg	16	yes	57	0	159
6.6.1	win	2022-12-16	11:42:05	11:49:17	430193	634811ed1f5bcbea7adcaf69	378784676	1	main_z	7	main_z	39	stimuli_distractor_trianglediamonds.svg	stimuli_distractor_diamondtriangles.svg	36	no	0	1	2000
6.6.1	win	2022-12-16	11:42:05	11:49:17	430193	634811ed1f5bcbea7adcaf69	378784676	1	main_z	7	advance_on_keypress_ZEE	40	stimuli_distractor_trianglediamonds.svg	stimuli_distractor_diamondtriangles.svg	36	no	57	0	290
6.6.1	win	2022-12-16	11:42:05	11:49:19	432096	634811ed1f5bcbea7adcaf69	378784676	1	main_z	7	main_z	41	stimuli_distractor_diamondtriangles.svg	stimuli_target_circletriangles.svg	13	yes	44	1	971
6.6.1	win	2022-12-16	11:42:05	11:49:19	432096	634811ed1f5bcbea7adcaf69	378784676	1	main_z	7	advance_on_keypress_ZEE	42	stimuli_distractor_diamondtriangles.svg	stimuli_target_circletriangles.svg	13	yes	57	0	188
6.6.1	win	2022-12-16	11:42:05	11:49:20	433830	634811ed1f5bcbea7adcaf69	378784676	1	main_z	7	main_z	43	stimuli_distractor_trianglediamonds.svg	stimuli_target_squaretriangles.svg	11	yes	44	1	893
6.6.1	win	2022-12-16	11:42:05	11:49:20	433830	634811ed1f5bcbea7adcaf69	378784676	1	main_z	7	advance_on_keypress_ZEE	44	stimuli_distractor_trianglediamonds.svg	stimuli_target_squaretriangles.svg	11	yes	57	0	414
6.6.1	win	2022-12-16	11:42:05	11:49:22	435769	634811ed1f5bcbea7adcaf69	378784676	1	main_z	7	main_z	45	stimuli_distractor_trianglediamonds.svg	stimuli_target_squarediamonds.svg	12	yes	44	1	866
6.6.1	win	2022-12-16	11:42:05	11:49:22	435769	634811ed1f5bcbea7adcaf69	378784676	1	main_z	7	advance_on_keypress_ZEE	46	stimuli_distractor_trianglediamonds.svg	stimuli_target_squarediamonds.svg	12	yes	57	0	122
6.6.1	win	2022-12-16	11:42:05	11:49:25	438534	634811ed1f5bcbea7adcaf69	378784676	1	main_z	7	main_z	47	stimuli_distractor_trianglediamonds.svg	stimuli_distractor_trianglediamonds.svg	34	no	0	1	2000
6.6.1	win	2022-12-16	11:42:05	11:49:25	438534	634811ed1f5bcbea7adcaf69	378784676	1	main_z	7	advance_on_keypress_ZEE	48	stimuli_distractor_trianglediamonds.svg	stimuli_distractor_trianglediamonds.svg	34	no	57	0	344
6.6.1	win	2022-12-16	11:42:05	11:49:27	440443	634811ed1f5bcbea7adcaf69	378784676	1	main_z	7	main_z	49	stimuli_target_trianglecircles.svg	stimuli_distractor_diamondtriangles.svg	21	yes	44	1	913
6.6.1	win	2022-12-16	11:42:05	11:49:27	440443	634811ed1f5bcbea7adcaf69	378784676	1	main_z	7	advance_on_keypress_ZEE	50	stimuli_target_trianglecircles.svg	stimuli_distractor_diamondtriangles.svg	21	yes	57	0	131
6.6.1	win	2022-12-16	11:42:05	11:49:30	443229	634811ed1f5bcbea7adcaf69	378784676	1	main_z	7	main_z	51	stimuli_distractor_diamondtriangles.svg	stimuli_distractor_trianglediamonds.svg	38	no	0	1	2000
6.6.1	win	2022-12-16	11:42:05	11:49:30	443229	634811ed1f5bcbea7adcaf69	378784676	1	main_z	7	advance_on_keypress_ZEE	52	stimuli_distractor_diamondtriangles.svg	stimuli_distractor_trianglediamonds.svg	38	no	57	0	566
6.6.1	win	2022-12-16	11:42:05	11:49:32	445293	634811ed1f5bcbea7adcaf69	378784676	1	main_z	7	main_z	53	stimuli_target_circlediamonds.svg	stimuli_distractor_diamondtriangles.svg	6	yes	44	1	851
6.6.1	win	2022-12-16	11:42:05	11:49:32	445293	634811ed1f5bcbea7adcaf69	378784676	1	main_z	7	advance_on_keypress_ZEE	54	stimuli_target_circlediamonds.svg	stimuli_distractor_diamondtriangles.svg	6	yes	57	0	155
6.6.1	win	2022-12-16	11:42:05	11:49:35	448090	634811ed1f5bcbea7adcaf69	378784676	1	main_z	7	main_z	55	stimuli_distractor_trianglediamonds.svg	stimuli_distractor_diamondtriangles.svg	35	no	0	1	2000
6.6.1	win	2022-12-16	11:42:05	11:49:35	448090	634811ed1f5bcbea7adcaf69	378784676	1	main_z	7	advance_on_keypress_ZEE	56	stimuli_distractor_trianglediamonds.svg	stimuli_distractor_diamondtriangles.svg	35	no	57	0	903
6.6.1	win	2022-12-16	11:42:05	11:49:37	450306	634811ed1f5bcbea7adcaf69	378784676	1	main_z	7	main_z	57	stimuli_target_trianglecircles.svg	stimuli_distractor_trianglediamonds.svg	17	yes	44	1	671
6.6.1	win	2022-12-16	11:42:05	11:49:37	450306	634811ed1f5bcbea7adcaf69	378784676	1	main_z	7	advance_on_keypress_ZEE	58	stimuli_target_trianglecircles.svg	stimuli_distractor_trianglediamonds.svg	17	yes	57	0	144
6.6.1	win	2022-12-16	11:42:05	11:49:40	453101	634811ed1f5bcbea7adcaf69	378784676	1	main_z	7	main_z	59	stimuli_distractor_diamondtriangles.svg	stimuli_distractor_trianglediamonds.svg	37	no	0	1	2000
6.6.1	win	2022-12-16	11:42:05	11:49:40	453101	634811ed1f5bcbea7adcaf69	378784676	1	main_z	7	advance_on_keypress_ZEE	60	stimuli_distractor_diamondtriangles.svg	stimuli_distractor_trianglediamonds.svg	37	no	57	0	370
6.6.1	win	2022-12-16	11:42:05	11:49:42	455137	634811ed1f5bcbea7adcaf69	378784676	1	main_z	7	main_z	61	stimuli_target_diamondsquares.svg	stimuli_distractor_diamondtriangles.svg	24	yes	44	1	1023
6.6.1	win	2022-12-16	11:42:05	11:49:42	455137	634811ed1f5bcbea7adcaf69	378784676	1	main_z	7	advance_on_keypress_ZEE	62	stimuli_target_diamondsquares.svg	stimuli_distractor_diamondtriangles.svg	24	yes	57	0	107
6.6.1	win	2022-12-16	11:42:05	11:49:43	456867	634811ed1f5bcbea7adcaf69	378784676	1	main_z	7	main_z	63	stimuli_distractor_trianglediamonds.svg	stimuli_target_diamondcircles.svg	27	yes	44	1	971
6.6.1	win	2022-12-16	11:42:05	11:49:43	456867	634811ed1f5bcbea7adcaf69	378784676	1	main_z	7	advance_on_keypress_ZEE	64	stimuli_distractor_trianglediamonds.svg	stimuli_target_diamondcircles.svg	27	yes	57	0	268
6.6.1	win	2022-12-16	11:42:05	11:49:45	458881	634811ed1f5bcbea7adcaf69	378784676	1	main_z	7	main_z	65	stimuli_distractor_diamondtriangles.svg	stimuli_target_trianglesquares.svg	30	yes	44	1	1088
6.6.1	win	2022-12-16	11:42:05	11:49:45	458881	634811ed1f5bcbea7adcaf69	378784676	1	main_z	7	advance_on_keypress_ZEE	66	stimuli_distractor_diamondtriangles.svg	stimuli_target_trianglesquares.svg	30	yes	57	0	144
6.6.1	win	2022-12-16	11:42:05	11:49:47	460726	634811ed1f5bcbea7adcaf69	378784676	1	main_z	7	main_z	67	stimuli_target_trianglesquares.svg	stimuli_distractor_trianglediamonds.svg	18	yes	44	1	1035
6.6.1	win	2022-12-16	11:42:05	11:49:47	460726	634811ed1f5bcbea7adcaf69	378784676	1	main_z	7	advance_on_keypress_ZEE	68	stimuli_target_trianglesquares.svg	stimuli_distractor_trianglediamonds.svg	18	yes	57	0	146
6.6.1	win	2022-12-16	11:42:05	11:49:49	462508	634811ed1f5bcbea7adcaf69	378784676	1	main_z	7	main_z	69	stimuli_distractor_trianglediamonds.svg	stimuli_target_trianglecircles.svg	25	yes	44	1	985
6.6.1	win	2022-12-16	11:42:05	11:49:49	462508	634811ed1f5bcbea7adcaf69	378784676	1	main_z	7	advance_on_keypress_ZEE	70	stimuli_distractor_trianglediamonds.svg	stimuli_target_trianglecircles.svg	25	yes	57	0	97
6.6.1	win	2022-12-16	11:42:05	11:49:51	464102	634811ed1f5bcbea7adcaf69	378784676	1	main_z	7	main_z	71	stimuli_distractor_diamondtriangles.svg	stimuli_target_diamondcircles.svg	31	yes	44	1	847
6.6.1	win	2022-12-16	11:42:05	11:49:51	464102	634811ed1f5bcbea7adcaf69	378784676	1	main_z	7	advance_on_keypress_ZEE	72	stimuli_distractor_diamondtriangles.svg	stimuli_target_diamondcircles.svg	31	yes	57	0	72
6.6.1	win	2022-12-16	11:42:05	11:49:52	465727	634811ed1f5bcbea7adcaf69	378784676	1	main_z	7	main_z	73	stimuli_target_diamondcircles.svg	stimuli_distractor_diamondtriangles.svg	23	yes	44	1	907
6.6.1	win	2022-12-16	11:42:05	11:49:52	465727	634811ed1f5bcbea7adcaf69	378784676	1	main_z	7	advance_on_keypress_ZEE	74	stimuli_target_diamondcircles.svg	stimuli_distractor_diamondtriangles.svg	23	yes	57	0	104
6.6.1	win	2022-12-16	11:42:05	11:49:54	467368	634811ed1f5bcbea7adcaf69	378784676	1	main_z	7	main_z	75	stimuli_target_diamondcircles.svg	stimuli_distractor_trianglediamonds.svg	19	yes	44	1	882
6.6.1	win	2022-12-16	11:42:05	11:49:54	467368	634811ed1f5bcbea7adcaf69	378784676	1	main_z	7	advance_on_keypress_ZEE	76	stimuli_target_diamondcircles.svg	stimuli_distractor_trianglediamonds.svg	19	yes	57	0	93
6.6.1	win	2022-12-16	11:42:05	11:49:57	470100	634811ed1f5bcbea7adcaf69	378784676	1	main_z	7	main_z	77	stimuli_distractor_diamondtriangles.svg	stimuli_distractor_diamondtriangles.svg	40	no	0	1	2000
6.6.1	win	2022-12-16	11:42:05	11:49:57	470100	634811ed1f5bcbea7adcaf69	378784676	1	main_z	7	advance_on_keypress_ZEE	78	stimuli_distractor_diamondtriangles.svg	stimuli_distractor_diamondtriangles.svg	40	no	57	0	455
6.6.1	win	2022-12-16	11:42:05	11:49:59	472055	634811ed1f5bcbea7adcaf69	378784676	1	main_z	7	main_z	79	stimuli_target_circletriangles.svg	stimuli_distractor_trianglediamonds.svg	1	yes	44	1	842
6.6.1	win	2022-12-16	11:42:05	11:49:59	472055	634811ed1f5bcbea7adcaf69	378784676	1	main_z	7	advance_on_keypress_ZEE	80	stimuli_target_circletriangles.svg	stimuli_distractor_trianglediamonds.svg	1	yes	57	0	106
6.6.1	win	2022-12-16	11:42:05	11:50:00	473648	634811ed1f5bcbea7adcaf69	378784676	1	main_z	7	main_z	81	stimuli_target_diamondcircles.svg	stimuli_distractor_diamondtriangles.svg	23	yes	44	1	837
6.6.1	win	2022-12-16	11:42:05	11:50:00	473648	634811ed1f5bcbea7adcaf69	378784676	1	main_z	7	advance_on_keypress_ZEE	82	stimuli_target_diamondcircles.svg	stimuli_distractor_diamondtriangles.svg	23	yes	57	0	104
6.6.1	win	2022-12-16	11:42:05	11:50:02	475309	634811ed1f5bcbea7adcaf69	378784676	1	main_z	7	main_z	83	stimuli_target_squaretriangles.svg	stimuli_distractor_trianglediamonds.svg	3	yes	44	1	900
6.6.1	win	2022-12-16	11:42:05	11:50:02	475309	634811ed1f5bcbea7adcaf69	378784676	1	main_z	7	advance_on_keypress_ZEE	84	stimuli_target_squaretriangles.svg	stimuli_distractor_trianglediamonds.svg	3	yes	57	0	143
6.6.1	win	2022-12-16	11:42:05	11:50:03	476954	634811ed1f5bcbea7adcaf69	378784676	1	main_z	7	main_z	85	stimuli_distractor_trianglediamonds.svg	stimuli_target_circletriangles.svg	9	yes	44	1	863
6.6.1	win	2022-12-16	11:42:05	11:50:03	476954	634811ed1f5bcbea7adcaf69	378784676	1	main_z	7	advance_on_keypress_ZEE	86	stimuli_distractor_trianglediamonds.svg	stimuli_target_circletriangles.svg	9	yes	57	0	138
6.6.1	win	2022-12-16	11:42:05	11:50:05	478642	634811ed1f5bcbea7adcaf69	378784676	1	main_z	7	main_z	87	stimuli_distractor_trianglediamonds.svg	stimuli_target_squaretriangles.svg	11	yes	44	1	903
6.6.1	win	2022-12-16	11:42:05	11:50:05	478642	634811ed1f5bcbea7adcaf69	378784676	1	main_z	7	advance_on_keypress_ZEE	88	stimuli_distractor_trianglediamonds.svg	stimuli_target_squaretriangles.svg	11	yes	57	0	129
6.6.1	win	2022-12-16	11:42:05	11:50:07	480329	634811ed1f5bcbea7adcaf69	378784676	1	main_z	7	main_z	89	stimuli_target_diamondcircles.svg	stimuli_distractor_trianglediamonds.svg	19	yes	44	1	892
6.6.1	win	2022-12-16	11:42:05	11:50:07	480329	634811ed1f5bcbea7adcaf69	378784676	1	main_z	7	advance_on_keypress_ZEE	90	stimuli_target_diamondcircles.svg	stimuli_distractor_trianglediamonds.svg	19	yes	57	0	154
6.6.1	win	2022-12-16	11:42:05	11:50:09	482091	634811ed1f5bcbea7adcaf69	378784676	1	main_z	7	main_z	91	stimuli_target_diamondsquares.svg	stimuli_distractor_trianglediamonds.svg	20	yes	44	1	957
6.6.1	win	2022-12-16	11:42:05	11:50:09	482091	634811ed1f5bcbea7adcaf69	378784676	1	main_z	7	advance_on_keypress_ZEE	92	stimuli_target_diamondsquares.svg	stimuli_distractor_trianglediamonds.svg	20	yes	57	0	132
6.6.1	win	2022-12-16	11:42:05	11:50:10	483752	634811ed1f5bcbea7adcaf69	378784676	1	main_z	7	main_z	93	stimuli_target_squarediamonds.svg	stimuli_distractor_diamondtriangles.svg	8	yes	44	1	869
6.6.1	win	2022-12-16	11:42:05	11:50:10	483752	634811ed1f5bcbea7adcaf69	378784676	1	main_z	7	advance_on_keypress_ZEE	94	stimuli_target_squarediamonds.svg	stimuli_distractor_diamondtriangles.svg	8	yes	57	0	107
6.6.1	win	2022-12-16	11:42:05	11:50:12	485729	634811ed1f5bcbea7adcaf69	378784676	1	main_z	7	main_z	95	stimuli_distractor_diamondtriangles.svg	stimuli_distractor_trianglediamonds.svg	37	no	44	0	1231
6.6.1	win	2022-12-16	11:42:05	11:50:12	485729	634811ed1f5bcbea7adcaf69	378784676	1	main_z	7	advance_on_keypress_ZEE	96	stimuli_distractor_diamondtriangles.svg	stimuli_distractor_trianglediamonds.svg	37	no	57	0	104
6.6.1	win	2022-12-16	11:42:05	11:50:14	487270	634811ed1f5bcbea7adcaf69	378784676	1	main_z	7	main_z	97	stimuli_distractor_diamondtriangles.svg	stimuli_target_squarediamonds.svg	16	yes	44	1	791
6.6.1	win	2022-12-16	11:42:05	11:50:14	487270	634811ed1f5bcbea7adcaf69	378784676	1	main_z	7	advance_on_keypress_ZEE	98	stimuli_distractor_diamondtriangles.svg	stimuli_target_squarediamonds.svg	16	yes	57	0	158
6.6.1	win	2022-12-16	11:42:05	11:50:15	488956	634811ed1f5bcbea7adcaf69	378784676	1	main_z	7	main_z	99	stimuli_target_squaretriangles.svg	stimuli_distractor_diamondtriangles.svg	7	yes	44	1	878
6.6.1	win	2022-12-16	11:42:05	11:50:15	488956	634811ed1f5bcbea7adcaf69	378784676	1	main_z	7	advance_on_keypress_ZEE	100	stimuli_target_squaretriangles.svg	stimuli_distractor_diamondtriangles.svg	7	yes	57	0	117
6.6.1	win	2022-12-16	11:42:05	11:50:18	491727	634811ed1f5bcbea7adcaf69	378784676	1	main_z	7	main_z	101	stimuli_distractor_trianglediamonds.svg	stimuli_distractor_diamondtriangles.svg	35	no	0	1	2000
6.6.1	win	2022-12-16	11:42:05	11:50:18	491727	634811ed1f5bcbea7adcaf69	378784676	1	main_z	7	advance_on_keypress_ZEE	102	stimuli_distractor_trianglediamonds.svg	stimuli_distractor_diamondtriangles.svg	35	no	57	0	540
6.6.1	win	2022-12-16	11:42:05	11:50:20	493842	634811ed1f5bcbea7adcaf69	378784676	1	main_z	7	main_z	103	stimuli_target_diamondsquares.svg	stimuli_distractor_diamondtriangles.svg	24	yes	44	1	921
6.6.1	win	2022-12-16	11:42:05	11:50:20	493842	634811ed1f5bcbea7adcaf69	378784676	1	main_z	7	advance_on_keypress_ZEE	104	stimuli_target_diamondsquares.svg	stimuli_distractor_diamondtriangles.svg	24	yes	57	0	150
6.6.1	win	2022-12-16	11:42:05	11:50:22	495510	634811ed1f5bcbea7adcaf69	378784676	1	main_z	7	main_z	105	stimuli_distractor_trianglediamonds.svg	stimuli_target_circlediamonds.svg	10	yes	44	1	856
6.6.1	win	2022-12-16	11:42:05	11:50:22	495510	634811ed1f5bcbea7adcaf69	378784676	1	main_z	7	advance_on_keypress_ZEE	106	stimuli_distractor_trianglediamonds.svg	stimuli_target_circlediamonds.svg	10	yes	57	0	92
6.6.1	win	2022-12-16	11:42:05	11:50:24	497206	634811ed1f5bcbea7adcaf69	378784676	1	main_z	7	main_z	107	stimuli_target_circletriangles.svg	stimuli_distractor_trianglediamonds.svg	1	yes	44	1	955
6.6.1	win	2022-12-16	11:42:05	11:50:24	497206	634811ed1f5bcbea7adcaf69	378784676	1	main_z	7	advance_on_keypress_ZEE	108	stimuli_target_circletriangles.svg	stimuli_distractor_trianglediamonds.svg	1	yes	57	0	104
6.6.1	win	2022-12-16	11:42:05	11:50:25	498935	634811ed1f5bcbea7adcaf69	378784676	1	main_z	7	main_z	109	stimuli_distractor_diamondtriangles.svg	stimuli_target_diamondsquares.svg	32	yes	44	1	969
6.6.1	win	2022-12-16	11:42:05	11:50:25	498935	634811ed1f5bcbea7adcaf69	378784676	1	main_z	7	advance_on_keypress_ZEE	110	stimuli_distractor_diamondtriangles.svg	stimuli_target_diamondsquares.svg	32	yes	57	0	139
6.6.1	win	2022-12-16	11:42:05	11:50:27	500632	634811ed1f5bcbea7adcaf69	378784676	1	main_z	7	main_z	111	stimuli_target_trianglesquares.svg	stimuli_distractor_diamondtriangles.svg	22	yes	44	1	901
6.6.1	win	2022-12-16	11:42:05	11:50:27	500632	634811ed1f5bcbea7adcaf69	378784676	1	main_z	7	advance_on_keypress_ZEE	112	stimuli_target_trianglesquares.svg	stimuli_distractor_diamondtriangles.svg	22	yes	57	0	377
6.6.1	win	2022-12-16	11:42:05	11:50:29	502536	634811ed1f5bcbea7adcaf69	378784676	1	main_z	7	main_z	113	stimuli_distractor_trianglediamonds.svg	stimuli_target_squarediamonds.svg	12	yes	44	1	890
6.6.1	win	2022-12-16	11:42:05	11:50:29	502536	634811ed1f5bcbea7adcaf69	378784676	1	main_z	7	advance_on_keypress_ZEE	114	stimuli_distractor_trianglediamonds.svg	stimuli_target_squarediamonds.svg	12	yes	57	0	105
6.6.1	win	2022-12-16	11:42:05	11:50:31	504129	634811ed1f5bcbea7adcaf69	378784676	1	main_z	7	main_z	115	stimuli_distractor_diamondtriangles.svg	stimuli_target_circletriangles.svg	13	yes	44	1	835
6.6.1	win	2022-12-16	11:42:05	11:50:31	504129	634811ed1f5bcbea7adcaf69	378784676	1	main_z	7	advance_on_keypress_ZEE	116	stimuli_distractor_diamondtriangles.svg	stimuli_target_circletriangles.svg	13	yes	57	0	171
6.6.1	win	2022-12-16	11:42:05	11:50:32	505922	634811ed1f5bcbea7adcaf69	378784676	1	main_z	7	main_z	117	stimuli_target_circlediamonds.svg	stimuli_distractor_diamondtriangles.svg	6	yes	44	1	978
6.6.1	win	2022-12-16	11:42:05	11:50:32	505922	634811ed1f5bcbea7adcaf69	378784676	1	main_z	7	advance_on_keypress_ZEE	118	stimuli_target_circlediamonds.svg	stimuli_distractor_diamondtriangles.svg	6	yes	57	0	107
6.6.1	win	2022-12-16	11:42:05	11:50:34	507484	634811ed1f5bcbea7adcaf69	378784676	1	main_z	7	main_z	119	stimuli_distractor_trianglediamonds.svg	stimuli_target_trianglesquares.svg	26	yes	44	1	811
6.6.1	win	2022-12-16	11:42:05	11:50:34	507484	634811ed1f5bcbea7adcaf69	378784676	1	main_z	7	advance_on_keypress_ZEE	120	stimuli_distractor_trianglediamonds.svg	stimuli_target_trianglesquares.svg	26	yes	57	0	157
6.6.1	win	2022-12-16	11:42:05	11:50:37	510289	634811ed1f5bcbea7adcaf69	378784676	1	main_z	7	main_z	121	stimuli_distractor_trianglediamonds.svg	stimuli_distractor_trianglediamonds.svg	34	no	0	1	2000
6.6.1	win	2022-12-16	11:42:05	11:50:37	510289	634811ed1f5bcbea7adcaf69	378784676	1	main_z	7	advance_on_keypress_ZEE	122	stimuli_distractor_trianglediamonds.svg	stimuli_distractor_trianglediamonds.svg	34	no	57	0	620
6.6.1	win	2022-12-16	11:42:05	11:50:39	512432	634811ed1f5bcbea7adcaf69	378784676	1	main_z	7	main_z	123	stimuli_distractor_trianglediamonds.svg	stimuli_target_diamondcircles.svg	27	yes	44	1	863
6.6.1	win	2022-12-16	11:42:05	11:50:39	512432	634811ed1f5bcbea7adcaf69	378784676	1	main_z	7	advance_on_keypress_ZEE	124	stimuli_distractor_trianglediamonds.svg	stimuli_target_diamondcircles.svg	27	yes	57	0	118
6.6.1	win	2022-12-16	11:42:05	11:50:40	513920	634811ed1f5bcbea7adcaf69	378784676	1	main_z	7	main_z	125	stimuli_distractor_diamondtriangles.svg	stimuli_target_trianglesquares.svg	30	yes	44	1	721
6.6.1	win	2022-12-16	11:42:05	11:50:40	513920	634811ed1f5bcbea7adcaf69	378784676	1	main_z	7	advance_on_keypress_ZEE	126	stimuli_distractor_diamondtriangles.svg	stimuli_target_trianglesquares.svg	30	yes	57	0	116
6.6.1	win	2022-12-16	11:42:05	11:50:43	516699	634811ed1f5bcbea7adcaf69	378784676	1	main_z	7	main_z	127	stimuli_distractor_trianglediamonds.svg	stimuli_distractor_trianglediamonds.svg	33	no	0	1	2000
6.6.1	win	2022-12-16	11:42:05	11:50:43	516699	634811ed1f5bcbea7adcaf69	378784676	1	main_z	7	advance_on_keypress_ZEE	128	stimuli_distractor_trianglediamonds.svg	stimuli_distractor_trianglediamonds.svg	33	no	57	0	491
6.6.1	win	2022-12-16	11:42:05	11:50:45	518547	634811ed1f5bcbea7adcaf69	378784676	1	main_z	7	main_z	129	stimuli_distractor_diamondtriangles.svg	stimuli_target_diamondcircles.svg	31	yes	44	1	703
6.6.1	win	2022-12-16	11:42:05	11:50:45	518547	634811ed1f5bcbea7adcaf69	378784676	1	main_z	7	advance_on_keypress_ZEE	130	stimuli_distractor_diamondtriangles.svg	stimuli_target_diamondcircles.svg	31	yes	57	0	95
6.6.1	win	2022-12-16	11:42:05	11:50:47	520094	634811ed1f5bcbea7adcaf69	378784676	1	main_z	7	main_z	131	stimuli_distractor_trianglediamonds.svg	stimuli_target_trianglecircles.svg	25	yes	44	1	784
6.6.1	win	2022-12-16	11:42:05	11:50:47	520094	634811ed1f5bcbea7adcaf69	378784676	1	main_z	7	advance_on_keypress_ZEE	132	stimuli_distractor_trianglediamonds.svg	stimuli_target_trianglecircles.svg	25	yes	57	0	177
6.6.1	win	2022-12-16	11:42:05	11:50:49	522275	634811ed1f5bcbea7adcaf69	378784676	1	main_z	7	main_z	133	stimuli_distractor_diamondtriangles.svg	stimuli_distractor_trianglediamonds.svg	38	no	44	0	1368
6.6.1	win	2022-12-16	11:42:05	11:50:49	522275	634811ed1f5bcbea7adcaf69	378784676	1	main_z	7	advance_on_keypress_ZEE	134	stimuli_distractor_diamondtriangles.svg	stimuli_distractor_trianglediamonds.svg	38	no	57	0	129
6.6.1	win	2022-12-16	11:42:05	11:50:50	523788	634811ed1f5bcbea7adcaf69	378784676	1	main_z	7	main_z	135	stimuli_target_trianglecircles.svg	stimuli_distractor_trianglediamonds.svg	17	yes	44	1	731
6.6.1	win	2022-12-16	11:42:05	11:50:50	523788	634811ed1f5bcbea7adcaf69	378784676	1	main_z	7	advance_on_keypress_ZEE	136	stimuli_target_trianglecircles.svg	stimuli_distractor_trianglediamonds.svg	17	yes	57	0	194
6.6.1	win	2022-12-16	11:42:05	11:50:52	525454	634811ed1f5bcbea7adcaf69	378784676	1	main_z	7	main_z	137	stimuli_target_circletriangles.svg	stimuli_distractor_diamondtriangles.svg	5	yes	44	1	833
6.6.1	win	2022-12-16	11:42:05	11:50:52	525454	634811ed1f5bcbea7adcaf69	378784676	1	main_z	7	advance_on_keypress_ZEE	138	stimuli_target_circletriangles.svg	stimuli_distractor_diamondtriangles.svg	5	yes	57	0	233
6.6.1	win	2022-12-16	11:42:05	11:50:54	527607	634811ed1f5bcbea7adcaf69	378784676	1	main_z	7	main_z	139	stimuli_target_trianglecircles.svg	stimuli_distractor_diamondtriangles.svg	21	yes	44	1	1272
6.6.1	win	2022-12-16	11:42:05	11:50:54	527607	634811ed1f5bcbea7adcaf69	378784676	1	main_z	7	advance_on_keypress_ZEE	140	stimuli_target_trianglecircles.svg	stimuli_distractor_diamondtriangles.svg	21	yes	57	0	204
6.6.1	win	2022-12-16	11:42:05	11:50:56	529301	634811ed1f5bcbea7adcaf69	378784676	1	main_z	7	main_z	141	stimuli_target_squarediamonds.svg	stimuli_distractor_trianglediamonds.svg	4	yes	44	1	834
6.6.1	win	2022-12-16	11:42:05	11:50:56	529301	634811ed1f5bcbea7adcaf69	378784676	1	main_z	7	advance_on_keypress_ZEE	142	stimuli_target_squarediamonds.svg	stimuli_distractor_trianglediamonds.svg	4	yes	57	0	337
6.6.1	win	2022-12-16	11:42:05	11:50:59	532298	634811ed1f5bcbea7adcaf69	378784676	1	main_z	7	main_z	143	stimuli_distractor_diamondtriangles.svg	stimuli_distractor_diamondtriangles.svg	40	no	0	1	2000
6.6.1	win	2022-12-16	11:42:05	11:50:59	532298	634811ed1f5bcbea7adcaf69	378784676	1	main_z	7	advance_on_keypress_ZEE	144	stimuli_distractor_diamondtriangles.svg	stimuli_distractor_diamondtriangles.svg	40	no	57	0	444
6.6.1	win	2022-12-16	11:42:05	11:51:01	534198	634811ed1f5bcbea7adcaf69	378784676	1	main_z	7	main_z	145	stimuli_distractor_diamondtriangles.svg	stimuli_target_circlediamonds.svg	14	yes	44	1	821
6.6.1	win	2022-12-16	11:42:05	11:51:01	534198	634811ed1f5bcbea7adcaf69	378784676	1	main_z	7	advance_on_keypress_ZEE	146	stimuli_distractor_diamondtriangles.svg	stimuli_target_circlediamonds.svg	14	yes	57	0	127
6.6.1	win	2022-12-16	11:42:05	11:51:03	536976	634811ed1f5bcbea7adcaf69	378784676	1	main_z	7	main_z	147	stimuli_distractor_diamondtriangles.svg	stimuli_distractor_diamondtriangles.svg	39	no	0	1	2000
6.6.1	win	2022-12-16	11:42:05	11:51:03	536976	634811ed1f5bcbea7adcaf69	378784676	1	main_z	7	advance_on_keypress_ZEE	148	stimuli_distractor_diamondtriangles.svg	stimuli_distractor_diamondtriangles.svg	39	no	57	0	503
6.6.1	win	2022-12-16	11:42:05	11:51:06	539075	634811ed1f5bcbea7adcaf69	378784676	1	main_z	7	main_z	149	stimuli_distractor_diamondtriangles.svg	stimuli_target_squaretriangles.svg	15	yes	44	1	952
6.6.1	win	2022-12-16	11:42:05	11:51:06	539075	634811ed1f5bcbea7adcaf69	378784676	1	main_z	7	advance_on_keypress_ZEE	150	stimuli_distractor_diamondtriangles.svg	stimuli_target_squaretriangles.svg	15	yes	57	0	161
6.6.1	win	2022-12-16	11:42:05	11:51:07	540720	634811ed1f5bcbea7adcaf69	378784676	1	main_z	7	main_z	151	stimuli_target_trianglesquares.svg	stimuli_distractor_trianglediamonds.svg	18	yes	44	1	833
6.6.1	win	2022-12-16	11:42:05	11:51:07	540720	634811ed1f5bcbea7adcaf69	378784676	1	main_z	7	advance_on_keypress_ZEE	152	stimuli_target_trianglesquares.svg	stimuli_distractor_trianglediamonds.svg	18	yes	57	0	182
6.6.1	win	2022-12-16	11:42:05	11:51:09	542476	634811ed1f5bcbea7adcaf69	378784676	1	main_z	7	main_z	153	stimuli_target_circlediamonds.svg	stimuli_distractor_trianglediamonds.svg	2	yes	44	1	924
6.6.1	win	2022-12-16	11:42:05	11:51:09	542476	634811ed1f5bcbea7adcaf69	378784676	1	main_z	7	advance_on_keypress_ZEE	154	stimuli_target_circlediamonds.svg	stimuli_distractor_trianglediamonds.svg	2	yes	57	0	113
6.6.1	win	2022-12-16	11:42:05	11:51:11	544160	634811ed1f5bcbea7adcaf69	378784676	1	main_z	7	main_z	155	stimuli_distractor_diamondtriangles.svg	stimuli_target_trianglecircles.svg	29	yes	44	1	909
6.6.1	win	2022-12-16	11:42:05	11:51:11	544160	634811ed1f5bcbea7adcaf69	378784676	1	main_z	7	advance_on_keypress_ZEE	156	stimuli_distractor_diamondtriangles.svg	stimuli_target_trianglecircles.svg	29	yes	57	0	173
6.6.1	win	2022-12-16	11:42:05	11:51:12	545977	634811ed1f5bcbea7adcaf69	378784676	1	main_z	7	main_z	157	stimuli_distractor_trianglediamonds.svg	stimuli_target_diamondsquares.svg	28	yes	44	1	996
6.6.1	win	2022-12-16	11:42:05	11:51:12	545977	634811ed1f5bcbea7adcaf69	378784676	1	main_z	7	advance_on_keypress_ZEE	158	stimuli_distractor_trianglediamonds.svg	stimuli_target_diamondsquares.svg	28	yes	57	0	241
6.6.1	win	2022-12-16	11:42:05	11:51:15	548863	634811ed1f5bcbea7adcaf69	378784676	1	main_z	7	main_z	159	stimuli_distractor_trianglediamonds.svg	stimuli_distractor_diamondtriangles.svg	36	no	0	1	2000
6.6.1	win	2022-12-16	11:42:05	11:51:15	548863	634811ed1f5bcbea7adcaf69	378784676	1	main_z	7	advance_on_keypress_ZEE	160	stimuli_distractor_trianglediamonds.svg	stimuli_distractor_diamondtriangles.svg	36	no	57	0	587
6.6.1	win	2022-12-16	11:42:05	11:51:37	570975	634811ed1f5bcbea7adcaf69	378784676	1	practice_slash	9	practice_slash	1	stimuli_target_squarediamonds.svg	stimuli_distractor_diamondtriangles.svg	2	yes	53	1	584
6.6.1	win	2022-12-16	11:42:05	11:51:37	570975	634811ed1f5bcbea7adcaf69	378784676	1	practice_slash	9	advance_on_keypress_SLASH	2	stimuli_target_squarediamonds.svg	stimuli_distractor_diamondtriangles.svg	2	yes	57	0	295
6.6.1	win	2022-12-16	11:42:05	11:51:40	573725	634811ed1f5bcbea7adcaf69	378784676	1	practice_slash	9	practice_slash	3	stimuli_target_circlediamonds.svg	stimuli_distractor_diamondtriangles.svg	1	yes	53	1	786
6.6.1	win	2022-12-16	11:42:05	11:51:40	573725	634811ed1f5bcbea7adcaf69	378784676	1	practice_slash	9	advance_on_keypress_SLASH	4	stimuli_target_circlediamonds.svg	stimuli_distractor_diamondtriangles.svg	1	yes	57	0	758
6.6.1	win	2022-12-16	11:42:05	11:51:43	576928	634811ed1f5bcbea7adcaf69	378784676	1	practice_slash	9	practice_slash	5	stimuli_distractor_trianglediamonds.svg	stimuli_target_circlediamonds.svg	10	yes	53	1	776
6.6.1	win	2022-12-16	11:42:05	11:51:43	576928	634811ed1f5bcbea7adcaf69	378784676	1	practice_slash	9	advance_on_keypress_SLASH	6	stimuli_distractor_trianglediamonds.svg	stimuli_target_circlediamonds.svg	10	yes	57	0	536
6.6.1	win	2022-12-16	11:42:05	11:51:48	581115	634811ed1f5bcbea7adcaf69	378784676	1	practice_slash	9	practice_slash	7	stimuli_distractor_trianglediamonds.svg	stimuli_distractor_trianglediamonds.svg	15	no	0	1	2000
6.6.1	win	2022-12-16	11:42:05	11:51:48	581115	634811ed1f5bcbea7adcaf69	378784676	1	practice_slash	9	advance_on_keypress_SLASH	8	stimuli_distractor_trianglediamonds.svg	stimuli_distractor_trianglediamonds.svg	15	no	57	0	459
6.6.1	win	2022-12-16	11:42:05	11:51:52	585245	634811ed1f5bcbea7adcaf69	378784676	1	practice_slash	9	practice_slash	9	stimuli_distractor_diamondtriangles.svg	stimuli_distractor_diamondtriangles.svg	13	no	0	1	2000
6.6.1	win	2022-12-16	11:42:05	11:51:52	585245	634811ed1f5bcbea7adcaf69	378784676	1	practice_slash	9	advance_on_keypress_SLASH	10	stimuli_distractor_diamondtriangles.svg	stimuli_distractor_diamondtriangles.svg	13	no	57	0	304
6.6.1	win	2022-12-16	11:42:05	11:51:55	588155	634811ed1f5bcbea7adcaf69	378784676	1	practice_slash	9	practice_slash	11	stimuli_target_diamondsquares.svg	stimuli_distractor_diamondtriangles.svg	3	yes	53	1	948
6.6.1	win	2022-12-16	11:42:05	11:51:55	588155	634811ed1f5bcbea7adcaf69	378784676	1	practice_slash	9	advance_on_keypress_SLASH	12	stimuli_target_diamondsquares.svg	stimuli_distractor_diamondtriangles.svg	3	yes	57	0	451
6.6.1	win	2022-12-16	11:42:05	11:51:58	591246	634811ed1f5bcbea7adcaf69	378784676	1	practice_slash	9	practice_slash	13	stimuli_target_diamondsquares.svg	stimuli_distractor_trianglediamonds.svg	6	yes	53	1	975
6.6.1	win	2022-12-16	11:42:05	11:51:58	591246	634811ed1f5bcbea7adcaf69	378784676	1	practice_slash	9	advance_on_keypress_SLASH	14	stimuli_target_diamondsquares.svg	stimuli_distractor_trianglediamonds.svg	6	yes	57	0	541
6.6.1	win	2022-12-16	11:42:05	11:52:01	594403	634811ed1f5bcbea7adcaf69	378784676	1	practice_slash	9	practice_slash	15	stimuli_distractor_diamondtriangles.svg	stimuli_target_circletriangles.svg	7	yes	53	1	954
6.6.1	win	2022-12-16	11:42:05	11:52:01	594403	634811ed1f5bcbea7adcaf69	378784676	1	practice_slash	9	advance_on_keypress_SLASH	16	stimuli_distractor_diamondtriangles.svg	stimuli_target_circletriangles.svg	7	yes	57	0	448
6.6.1	win	2022-12-16	11:42:05	11:52:04	597559	634811ed1f5bcbea7adcaf69	378784676	1	practice_slash	9	practice_slash	17	stimuli_distractor_diamondtriangles.svg	stimuli_distractor_trianglediamonds.svg	14	no	53	0	1046
6.6.1	win	2022-12-16	11:42:05	11:52:04	597559	634811ed1f5bcbea7adcaf69	378784676	1	practice_slash	9	advance_on_keypress_SLASH	18	stimuli_distractor_diamondtriangles.svg	stimuli_distractor_trianglediamonds.svg	14	no	57	0	481
6.6.1	win	2022-12-16	11:42:05	11:52:07	600605	634811ed1f5bcbea7adcaf69	378784676	1	practice_slash	9	practice_slash	19	stimuli_target_squarediamonds.svg	stimuli_distractor_trianglediamonds.svg	5	yes	53	1	912
6.6.1	win	2022-12-16	11:42:05	11:52:07	600605	634811ed1f5bcbea7adcaf69	378784676	1	practice_slash	9	advance_on_keypress_SLASH	20	stimuli_target_squarediamonds.svg	stimuli_distractor_trianglediamonds.svg	5	yes	57	0	532
6.6.1	win	2022-12-16	11:42:05	11:52:10	603661	634811ed1f5bcbea7adcaf69	378784676	1	practice_slash	9	practice_slash	21	stimuli_distractor_diamondtriangles.svg	stimuli_target_diamondcircles.svg	8	yes	53	1	872
6.6.1	win	2022-12-16	11:42:05	11:52:10	603661	634811ed1f5bcbea7adcaf69	378784676	1	practice_slash	9	advance_on_keypress_SLASH	22	stimuli_distractor_diamondtriangles.svg	stimuli_target_diamondcircles.svg	8	yes	57	0	502
6.6.1	win	2022-12-16	11:42:05	11:52:13	606900	634811ed1f5bcbea7adcaf69	378784676	1	practice_slash	9	practice_slash	23	stimuli_distractor_trianglediamonds.svg	stimuli_distractor_diamondtriangles.svg	16	no	53	0	1081
6.6.1	win	2022-12-16	11:42:05	11:52:13	606900	634811ed1f5bcbea7adcaf69	378784676	1	practice_slash	9	advance_on_keypress_SLASH	24	stimuli_distractor_trianglediamonds.svg	stimuli_distractor_diamondtriangles.svg	16	no	57	0	423
6.6.1	win	2022-12-16	11:42:05	11:52:16	609915	634811ed1f5bcbea7adcaf69	378784676	1	practice_slash	9	practice_slash	25	stimuli_target_circlediamonds.svg	stimuli_distractor_trianglediamonds.svg	4	yes	53	1	916
6.6.1	win	2022-12-16	11:42:05	11:52:16	609915	634811ed1f5bcbea7adcaf69	378784676	1	practice_slash	9	advance_on_keypress_SLASH	26	stimuli_target_circlediamonds.svg	stimuli_distractor_trianglediamonds.svg	4	yes	57	0	421
6.6.1	win	2022-12-16	11:42:05	11:52:19	612780	634811ed1f5bcbea7adcaf69	378784676	1	practice_slash	9	practice_slash	27	stimuli_distractor_diamondtriangles.svg	stimuli_target_trianglecircles.svg	9	yes	53	1	784
6.6.1	win	2022-12-16	11:42:05	11:52:19	612780	634811ed1f5bcbea7adcaf69	378784676	1	practice_slash	9	advance_on_keypress_SLASH	28	stimuli_distractor_diamondtriangles.svg	stimuli_target_trianglecircles.svg	9	yes	57	0	436
6.6.1	win	2022-12-16	11:42:05	11:52:22	615726	634811ed1f5bcbea7adcaf69	378784676	1	practice_slash	9	practice_slash	29	stimuli_distractor_trianglediamonds.svg	stimuli_target_squarediamonds.svg	11	yes	53	1	849
6.6.1	win	2022-12-16	11:42:05	11:52:22	615726	634811ed1f5bcbea7adcaf69	378784676	1	practice_slash	9	advance_on_keypress_SLASH	30	stimuli_distractor_trianglediamonds.svg	stimuli_target_squarediamonds.svg	11	yes	57	0	430
6.6.1	win	2022-12-16	11:42:05	11:52:25	618720	634811ed1f5bcbea7adcaf69	378784676	1	practice_slash	9	practice_slash	31	stimuli_distractor_trianglediamonds.svg	stimuli_target_diamondcircles.svg	12	yes	53	1	898
6.6.1	win	2022-12-16	11:42:05	11:52:25	618720	634811ed1f5bcbea7adcaf69	378784676	1	practice_slash	9	advance_on_keypress_SLASH	32	stimuli_distractor_trianglediamonds.svg	stimuli_target_diamondcircles.svg	12	yes	57	0	476
6.6.1	win	2022-12-16	11:42:05	11:52:30	623721	634811ed1f5bcbea7adcaf69	378784676	1	main_slash	11	main_slash	1	stimuli_distractor_diamondtriangles.svg	stimuli_target_trianglecircles.svg	29	yes	53	1	591
6.6.1	win	2022-12-16	11:42:05	11:52:30	623721	634811ed1f5bcbea7adcaf69	378784676	1	main_slash	11	advance_on_keypress_SLASH	2	stimuli_distractor_diamondtriangles.svg	stimuli_target_trianglecircles.svg	29	yes	57	0	607
6.6.1	win	2022-12-16	11:42:05	11:52:32	625768	634811ed1f5bcbea7adcaf69	378784676	1	main_slash	11	main_slash	3	stimuli_target_circlediamonds.svg	stimuli_distractor_trianglediamonds.svg	2	yes	53	1	791
6.6.1	win	2022-12-16	11:42:05	11:52:32	625768	634811ed1f5bcbea7adcaf69	378784676	1	main_slash	11	advance_on_keypress_SLASH	4	stimuli_target_circlediamonds.svg	stimuli_distractor_trianglediamonds.svg	2	yes	57	0	478
6.6.1	win	2022-12-16	11:42:05	11:52:35	628909	634811ed1f5bcbea7adcaf69	378784676	1	main_slash	11	main_slash	5	stimuli_distractor_diamondtriangles.svg	stimuli_distractor_diamondtriangles.svg	40	no	0	1	2000
6.6.1	win	2022-12-16	11:42:05	11:52:35	628909	634811ed1f5bcbea7adcaf69	378784676	1	main_slash	11	advance_on_keypress_SLASH	6	stimuli_distractor_diamondtriangles.svg	stimuli_distractor_diamondtriangles.svg	40	no	57	0	399
6.6.1	win	2022-12-16	11:42:05	11:52:37	630678	634811ed1f5bcbea7adcaf69	378784676	1	main_slash	11	main_slash	7	stimuli_distractor_trianglediamonds.svg	stimuli_target_circlediamonds.svg	10	yes	53	1	707
6.6.1	win	2022-12-16	11:42:05	11:52:37	630678	634811ed1f5bcbea7adcaf69	378784676	1	main_slash	11	advance_on_keypress_SLASH	8	stimuli_distractor_trianglediamonds.svg	stimuli_target_circlediamonds.svg	10	yes	57	0	525
6.6.1	win	2022-12-16	11:42:05	11:52:40	633853	634811ed1f5bcbea7adcaf69	378784676	1	main_slash	11	main_slash	9	stimuli_distractor_trianglediamonds.svg	stimuli_distractor_diamondtriangles.svg	36	no	0	1	2000
6.6.1	win	2022-12-16	11:42:05	11:52:40	633853	634811ed1f5bcbea7adcaf69	378784676	1	main_slash	11	advance_on_keypress_SLASH	10	stimuli_distractor_trianglediamonds.svg	stimuli_distractor_diamondtriangles.svg	36	no	57	0	307
6.6.1	win	2022-12-16	11:42:05	11:52:42	635968	634811ed1f5bcbea7adcaf69	378784676	1	main_slash	11	main_slash	11	stimuli_distractor_diamondtriangles.svg	stimuli_target_circlediamonds.svg	14	yes	53	1	1168
6.6.1	win	2022-12-16	11:42:05	11:52:42	635968	634811ed1f5bcbea7adcaf69	378784676	1	main_slash	11	advance_on_keypress_SLASH	12	stimuli_distractor_diamondtriangles.svg	stimuli_target_circlediamonds.svg	14	yes	57	0	892
6.6.1	win	2022-12-16	11:42:05	11:52:45	638352	634811ed1f5bcbea7adcaf69	378784676	1	main_slash	11	main_slash	13	stimuli_distractor_diamondtriangles.svg	stimuli_target_squaretriangles.svg	15	yes	53	1	839
6.6.1	win	2022-12-16	11:42:05	11:52:45	638352	634811ed1f5bcbea7adcaf69	378784676	1	main_slash	11	advance_on_keypress_SLASH	14	stimuli_distractor_diamondtriangles.svg	stimuli_target_squaretriangles.svg	15	yes	57	0	293
6.6.1	win	2022-12-16	11:42:05	11:52:47	640216	634811ed1f5bcbea7adcaf69	378784676	1	main_slash	11	main_slash	15	stimuli_target_diamondsquares.svg	stimuli_distractor_trianglediamonds.svg	20	yes	53	1	922
6.6.1	win	2022-12-16	11:42:05	11:52:47	640216	634811ed1f5bcbea7adcaf69	378784676	1	main_slash	11	advance_on_keypress_SLASH	16	stimuli_target_diamondsquares.svg	stimuli_distractor_trianglediamonds.svg	20	yes	57	0	249
6.6.1	win	2022-12-16	11:42:05	11:52:50	643126	634811ed1f5bcbea7adcaf69	378784676	1	main_slash	11	main_slash	17	stimuli_distractor_diamondtriangles.svg	stimuli_distractor_trianglediamonds.svg	37	no	0	1	2000
6.6.1	win	2022-12-16	11:42:05	11:52:50	643126	634811ed1f5bcbea7adcaf69	378784676	1	main_slash	11	advance_on_keypress_SLASH	18	stimuli_distractor_diamondtriangles.svg	stimuli_distractor_trianglediamonds.svg	37	no	57	0	483
6.6.1	win	2022-12-16	11:42:05	11:52:52	645053	634811ed1f5bcbea7adcaf69	378784676	1	main_slash	11	main_slash	19	stimuli_distractor_trianglediamonds.svg	stimuli_target_circletriangles.svg	9	yes	53	1	796
6.6.1	win	2022-12-16	11:42:05	11:52:52	645053	634811ed1f5bcbea7adcaf69	378784676	1	main_slash	11	advance_on_keypress_SLASH	20	stimuli_distractor_trianglediamonds.svg	stimuli_target_circletriangles.svg	9	yes	57	0	523
6.6.1	win	2022-12-16	11:42:05	11:52:54	647103	634811ed1f5bcbea7adcaf69	378784676	1	main_slash	11	main_slash	21	stimuli_target_squaretriangles.svg	stimuli_distractor_trianglediamonds.svg	3	yes	53	1	883
6.6.1	win	2022-12-16	11:42:05	11:52:54	647103	634811ed1f5bcbea7adcaf69	378784676	1	main_slash	11	advance_on_keypress_SLASH	22	stimuli_target_squaretriangles.svg	stimuli_distractor_trianglediamonds.svg	3	yes	57	0	385
6.6.1	win	2022-12-16	11:42:05	11:52:55	649023	634811ed1f5bcbea7adcaf69	378784676	1	main_slash	11	main_slash	23	stimuli_target_trianglecircles.svg	stimuli_distractor_diamondtriangles.svg	21	yes	53	1	887
6.6.1	win	2022-12-16	11:42:05	11:52:55	649023	634811ed1f5bcbea7adcaf69	378784676	1	main_slash	11	advance_on_keypress_SLASH	24	stimuli_target_trianglecircles.svg	stimuli_distractor_diamondtriangles.svg	21	yes	57	0	431
6.6.1	win	2022-12-16	11:42:05	11:52:57	650952	634811ed1f5bcbea7adcaf69	378784676	1	main_slash	11	main_slash	25	stimuli_target_squaretriangles.svg	stimuli_distractor_diamondtriangles.svg	7	yes	53	1	835
6.6.1	win	2022-12-16	11:42:05	11:52:57	650952	634811ed1f5bcbea7adcaf69	378784676	1	main_slash	11	advance_on_keypress_SLASH	26	stimuli_target_squaretriangles.svg	stimuli_distractor_diamondtriangles.svg	7	yes	57	0	570
6.6.1	win	2022-12-16	11:42:05	11:53:01	654181	634811ed1f5bcbea7adcaf69	378784676	1	main_slash	11	main_slash	27	stimuli_distractor_diamondtriangles.svg	stimuli_target_circletriangles.svg	13	yes	0	0	2000
6.6.1	win	2022-12-16	11:42:05	11:53:01	654181	634811ed1f5bcbea7adcaf69	378784676	1	main_slash	11	advance_on_keypress_SLASH	28	stimuli_distractor_diamondtriangles.svg	stimuli_target_circletriangles.svg	13	yes	57	0	477
6.6.1	win	2022-12-16	11:42:05	11:53:03	656190	634811ed1f5bcbea7adcaf69	378784676	1	main_slash	11	main_slash	29	stimuli_distractor_trianglediamonds.svg	stimuli_target_trianglecircles.svg	25	yes	53	1	896
6.6.1	win	2022-12-16	11:42:05	11:53:03	656190	634811ed1f5bcbea7adcaf69	378784676	1	main_slash	11	advance_on_keypress_SLASH	30	stimuli_distractor_trianglediamonds.svg	stimuli_target_trianglecircles.svg	25	yes	57	0	489
6.6.1	win	2022-12-16	11:42:05	11:53:05	658245	634811ed1f5bcbea7adcaf69	378784676	1	main_slash	11	main_slash	31	stimuli_distractor_trianglediamonds.svg	stimuli_target_trianglesquares.svg	26	yes	53	1	919
6.6.1	win	2022-12-16	11:42:05	11:53:05	658245	634811ed1f5bcbea7adcaf69	378784676	1	main_slash	11	advance_on_keypress_SLASH	32	stimuli_distractor_trianglediamonds.svg	stimuli_target_trianglesquares.svg	26	yes	57	0	451
6.6.1	win	2022-12-16	11:42:05	11:53:07	660215	634811ed1f5bcbea7adcaf69	378784676	1	main_slash	11	main_slash	33	stimuli_distractor_diamondtriangles.svg	stimuli_target_diamondsquares.svg	32	yes	53	1	859
6.6.1	win	2022-12-16	11:42:05	11:53:07	660215	634811ed1f5bcbea7adcaf69	378784676	1	main_slash	11	advance_on_keypress_SLASH	34	stimuli_distractor_diamondtriangles.svg	stimuli_target_diamondsquares.svg	32	yes	57	0	290
6.6.1	win	2022-12-16	11:42:05	11:53:10	663154	634811ed1f5bcbea7adcaf69	378784676	1	main_slash	11	main_slash	35	stimuli_distractor_trianglediamonds.svg	stimuli_distractor_diamondtriangles.svg	35	no	0	1	2000
6.6.1	win	2022-12-16	11:42:05	11:53:10	663154	634811ed1f5bcbea7adcaf69	378784676	1	main_slash	11	advance_on_keypress_SLASH	36	stimuli_distractor_trianglediamonds.svg	stimuli_distractor_diamondtriangles.svg	35	no	57	0	502
6.6.1	win	2022-12-16	11:42:05	11:53:12	665257	634811ed1f5bcbea7adcaf69	378784676	1	main_slash	11	main_slash	37	stimuli_target_circlediamonds.svg	stimuli_distractor_diamondtriangles.svg	6	yes	53	1	956
6.6.1	win	2022-12-16	11:42:05	11:53:12	665257	634811ed1f5bcbea7adcaf69	378784676	1	main_slash	11	advance_on_keypress_SLASH	38	stimuli_target_circlediamonds.svg	stimuli_distractor_diamondtriangles.svg	6	yes	57	0	324
6.6.1	win	2022-12-16	11:42:05	11:53:14	667109	634811ed1f5bcbea7adcaf69	378784676	1	main_slash	11	main_slash	39	stimuli_distractor_trianglediamonds.svg	stimuli_target_diamondcircles.svg	27	yes	53	1	877
6.6.1	win	2022-12-16	11:42:05	11:53:14	667109	634811ed1f5bcbea7adcaf69	378784676	1	main_slash	11	advance_on_keypress_SLASH	40	stimuli_distractor_trianglediamonds.svg	stimuli_target_diamondcircles.svg	27	yes	57	0	279
6.6.1	win	2022-12-16	11:42:05	11:53:17	670047	634811ed1f5bcbea7adcaf69	378784676	1	main_slash	11	main_slash	41	stimuli_distractor_trianglediamonds.svg	stimuli_distractor_trianglediamonds.svg	33	no	0	1	2000
6.6.1	win	2022-12-16	11:42:05	11:53:17	670047	634811ed1f5bcbea7adcaf69	378784676	1	main_slash	11	advance_on_keypress_SLASH	42	stimuli_distractor_trianglediamonds.svg	stimuli_distractor_trianglediamonds.svg	33	no	57	0	300
6.6.1	win	2022-12-16	11:42:05	11:53:18	671837	634811ed1f5bcbea7adcaf69	378784676	1	main_slash	11	main_slash	43	stimuli_distractor_diamondtriangles.svg	stimuli_target_trianglesquares.svg	30	yes	53	1	843
6.6.1	win	2022-12-16	11:42:05	11:53:18	671837	634811ed1f5bcbea7adcaf69	378784676	1	main_slash	11	advance_on_keypress_SLASH	44	stimuli_distractor_diamondtriangles.svg	stimuli_target_trianglesquares.svg	30	yes	57	0	299
6.6.1	win	2022-12-16	11:42:05	11:53:20	673690	634811ed1f5bcbea7adcaf69	378784676	1	main_slash	11	main_slash	45	stimuli_distractor_trianglediamonds.svg	stimuli_target_squarediamonds.svg	12	yes	53	1	898
6.6.1	win	2022-12-16	11:42:05	11:53:20	673690	634811ed1f5bcbea7adcaf69	378784676	1	main_slash	11	advance_on_keypress_SLASH	46	stimuli_distractor_trianglediamonds.svg	stimuli_target_squarediamonds.svg	12	yes	57	0	271
6.6.1	win	2022-12-16	11:42:05	11:53:22	675559	634811ed1f5bcbea7adcaf69	378784676	1	main_slash	11	main_slash	47	stimuli_distractor_trianglediamonds.svg	stimuli_target_diamondsquares.svg	28	yes	53	1	952
6.6.1	win	2022-12-16	11:42:05	11:53:22	675559	634811ed1f5bcbea7adcaf69	378784676	1	main_slash	11	advance_on_keypress_SLASH	48	stimuli_distractor_trianglediamonds.svg	stimuli_target_diamondsquares.svg	28	yes	57	0	281
6.6.1	win	2022-12-16	11:42:05	11:53:25	678504	634811ed1f5bcbea7adcaf69	378784676	1	main_slash	11	main_slash	49	stimuli_distractor_diamondtriangles.svg	stimuli_distractor_diamondtriangles.svg	39	no	0	1	2000
6.6.1	win	2022-12-16	11:42:05	11:53:25	678504	634811ed1f5bcbea7adcaf69	378784676	1	main_slash	11	advance_on_keypress_SLASH	50	stimuli_distractor_diamondtriangles.svg	stimuli_distractor_diamondtriangles.svg	39	no	57	0	245
6.6.1	win	2022-12-16	11:42:05	11:53:27	680369	634811ed1f5bcbea7adcaf69	378784676	1	main_slash	11	main_slash	51	stimuli_target_trianglesquares.svg	stimuli_distractor_diamondtriangles.svg	22	yes	53	1	951
6.6.1	win	2022-12-16	11:42:05	11:53:27	680369	634811ed1f5bcbea7adcaf69	378784676	1	main_slash	11	advance_on_keypress_SLASH	52	stimuli_target_trianglesquares.svg	stimuli_distractor_diamondtriangles.svg	22	yes	57	0	300
6.6.1	win	2022-12-16	11:42:05	11:53:30	683333	634811ed1f5bcbea7adcaf69	378784676	1	main_slash	11	main_slash	53	stimuli_distractor_diamondtriangles.svg	stimuli_distractor_trianglediamonds.svg	38	no	0	1	2000
6.6.1	win	2022-12-16	11:42:05	11:53:30	683333	634811ed1f5bcbea7adcaf69	378784676	1	main_slash	11	advance_on_keypress_SLASH	54	stimuli_distractor_diamondtriangles.svg	stimuli_distractor_trianglediamonds.svg	38	no	57	0	555
6.6.1	win	2022-12-16	11:42:05	11:53:32	685499	634811ed1f5bcbea7adcaf69	378784676	1	main_slash	11	main_slash	55	stimuli_target_squarediamonds.svg	stimuli_distractor_trianglediamonds.svg	4	yes	53	1	953
6.6.1	win	2022-12-16	11:42:05	11:53:32	685499	634811ed1f5bcbea7adcaf69	378784676	1	main_slash	11	advance_on_keypress_SLASH	56	stimuli_target_squarediamonds.svg	stimuli_distractor_trianglediamonds.svg	4	yes	57	0	273
6.6.1	win	2022-12-16	11:42:05	11:53:34	687317	634811ed1f5bcbea7adcaf69	378784676	1	main_slash	11	main_slash	57	stimuli_target_diamondsquares.svg	stimuli_distractor_diamondtriangles.svg	24	yes	53	1	890
6.6.1	win	2022-12-16	11:42:05	11:53:34	687317	634811ed1f5bcbea7adcaf69	378784676	1	main_slash	11	advance_on_keypress_SLASH	58	stimuli_target_diamondsquares.svg	stimuli_distractor_diamondtriangles.svg	24	yes	57	0	292
6.6.1	win	2022-12-16	11:42:05	11:53:36	689146	634811ed1f5bcbea7adcaf69	378784676	1	main_slash	11	main_slash	59	stimuli_target_circletriangles.svg	stimuli_distractor_trianglediamonds.svg	1	yes	53	1	889
6.6.1	win	2022-12-16	11:42:05	11:53:36	689146	634811ed1f5bcbea7adcaf69	378784676	1	main_slash	11	advance_on_keypress_SLASH	60	stimuli_target_circletriangles.svg	stimuli_distractor_trianglediamonds.svg	1	yes	57	0	265
6.6.1	win	2022-12-16	11:42:05	11:53:37	690925	634811ed1f5bcbea7adcaf69	378784676	1	main_slash	11	main_slash	61	stimuli_target_diamondcircles.svg	stimuli_distractor_trianglediamonds.svg	19	yes	53	1	852
6.6.1	win	2022-12-16	11:42:05	11:53:37	690925	634811ed1f5bcbea7adcaf69	378784676	1	main_slash	11	advance_on_keypress_SLASH	62	stimuli_target_diamondcircles.svg	stimuli_distractor_trianglediamonds.svg	19	yes	57	0	243
6.6.1	win	2022-12-16	11:42:05	11:53:39	692712	634811ed1f5bcbea7adcaf69	378784676	1	main_slash	11	main_slash	63	stimuli_target_circletriangles.svg	stimuli_distractor_diamondtriangles.svg	5	yes	53	1	891
6.6.1	win	2022-12-16	11:42:05	11:53:39	692712	634811ed1f5bcbea7adcaf69	378784676	1	main_slash	11	advance_on_keypress_SLASH	64	stimuli_target_circletriangles.svg	stimuli_distractor_diamondtriangles.svg	5	yes	57	0	246
6.6.1	win	2022-12-16	11:42:05	11:53:42	695619	634811ed1f5bcbea7adcaf69	378784676	1	main_slash	11	main_slash	65	stimuli_distractor_trianglediamonds.svg	stimuli_distractor_trianglediamonds.svg	34	no	0	1	2000
6.6.1	win	2022-12-16	11:42:05	11:53:42	695619	634811ed1f5bcbea7adcaf69	378784676	1	main_slash	11	advance_on_keypress_SLASH	66	stimuli_distractor_trianglediamonds.svg	stimuli_distractor_trianglediamonds.svg	34	no	57	0	377
6.6.1	win	2022-12-16	11:42:05	11:53:44	697526	634811ed1f5bcbea7adcaf69	378784676	1	main_slash	11	main_slash	67	stimuli_target_squarediamonds.svg	stimuli_distractor_diamondtriangles.svg	8	yes	53	1	877
6.6.1	win	2022-12-16	11:42:05	11:53:44	697526	634811ed1f5bcbea7adcaf69	378784676	1	main_slash	11	advance_on_keypress_SLASH	68	stimuli_target_squarediamonds.svg	stimuli_distractor_diamondtriangles.svg	8	yes	57	0	345
6.6.1	win	2022-12-16	11:42:05	11:53:46	699357	634811ed1f5bcbea7adcaf69	378784676	1	main_slash	11	main_slash	69	stimuli_target_diamondcircles.svg	stimuli_distractor_diamondtriangles.svg	23	yes	53	1	828
6.6.1	win	2022-12-16	11:42:05	11:53:46	699357	634811ed1f5bcbea7adcaf69	378784676	1	main_slash	11	advance_on_keypress_SLASH	70	stimuli_target_diamondcircles.svg	stimuli_distractor_diamondtriangles.svg	23	yes	57	0	339
6.6.1	win	2022-12-16	11:42:05	11:53:48	701312	634811ed1f5bcbea7adcaf69	378784676	1	main_slash	11	main_slash	71	stimuli_target_trianglesquares.svg	stimuli_distractor_trianglediamonds.svg	18	yes	53	1	966
6.6.1	win	2022-12-16	11:42:05	11:53:48	701312	634811ed1f5bcbea7adcaf69	378784676	1	main_slash	11	advance_on_keypress_SLASH	72	stimuli_target_trianglesquares.svg	stimuli_distractor_trianglediamonds.svg	18	yes	57	0	405
6.6.1	win	2022-12-16	11:42:05	11:53:50	703215	634811ed1f5bcbea7adcaf69	378784676	1	main_slash	11	main_slash	73	stimuli_distractor_diamondtriangles.svg	stimuli_target_squarediamonds.svg	16	yes	53	1	857
6.6.1	win	2022-12-16	11:42:05	11:53:50	703215	634811ed1f5bcbea7adcaf69	378784676	1	main_slash	11	advance_on_keypress_SLASH	74	stimuli_distractor_diamondtriangles.svg	stimuli_target_squarediamonds.svg	16	yes	57	0	351
6.6.1	win	2022-12-16	11:42:05	11:53:52	705095	634811ed1f5bcbea7adcaf69	378784676	1	main_slash	11	main_slash	75	stimuli_distractor_diamondtriangles.svg	stimuli_target_diamondcircles.svg	31	yes	53	1	872
6.6.1	win	2022-12-16	11:42:05	11:53:52	705095	634811ed1f5bcbea7adcaf69	378784676	1	main_slash	11	advance_on_keypress_SLASH	76	stimuli_distractor_diamondtriangles.svg	stimuli_target_diamondcircles.svg	31	yes	57	0	318
6.6.1	win	2022-12-16	11:42:05	11:53:53	706998	634811ed1f5bcbea7adcaf69	378784676	1	main_slash	11	main_slash	77	stimuli_distractor_trianglediamonds.svg	stimuli_target_squaretriangles.svg	11	yes	53	1	926
6.6.1	win	2022-12-16	11:42:05	11:53:53	706998	634811ed1f5bcbea7adcaf69	378784676	1	main_slash	11	advance_on_keypress_SLASH	78	stimuli_distractor_trianglediamonds.svg	stimuli_target_squaretriangles.svg	11	yes	57	0	416
6.6.1	win	2022-12-16	11:42:05	11:53:55	708954	634811ed1f5bcbea7adcaf69	378784676	1	main_slash	11	main_slash	79	stimuli_target_trianglecircles.svg	stimuli_distractor_trianglediamonds.svg	17	yes	53	1	884
6.6.1	win	2022-12-16	11:42:05	11:53:55	708954	634811ed1f5bcbea7adcaf69	378784676	1	main_slash	11	advance_on_keypress_SLASH	80	stimuli_target_trianglecircles.svg	stimuli_distractor_trianglediamonds.svg	17	yes	57	0	423
6.6.1	win	2022-12-16	11:42:05	11:53:57	711000	634811ed1f5bcbea7adcaf69	378784676	1	main_slash	11	main_slash	81	stimuli_target_trianglecircles.svg	stimuli_distractor_diamondtriangles.svg	21	yes	53	1	982
6.6.1	win	2022-12-16	11:42:05	11:53:57	711000	634811ed1f5bcbea7adcaf69	378784676	1	main_slash	11	advance_on_keypress_SLASH	82	stimuli_target_trianglecircles.svg	stimuli_distractor_diamondtriangles.svg	21	yes	57	0	302
6.6.1	win	2022-12-16	11:42:05	11:53:59	712785	634811ed1f5bcbea7adcaf69	378784676	1	main_slash	11	main_slash	83	stimuli_target_diamondsquares.svg	stimuli_distractor_trianglediamonds.svg	20	yes	53	1	836
6.6.1	win	2022-12-16	11:42:05	11:53:59	712785	634811ed1f5bcbea7adcaf69	378784676	1	main_slash	11	advance_on_keypress_SLASH	84	stimuli_target_diamondsquares.svg	stimuli_distractor_trianglediamonds.svg	20	yes	57	0	261
6.6.1	win	2022-12-16	11:42:05	11:54:01	714932	634811ed1f5bcbea7adcaf69	378784676	1	main_slash	11	main_slash	85	stimuli_distractor_diamondtriangles.svg	stimuli_target_circlediamonds.svg	14	yes	53	1	1218
6.6.1	win	2022-12-16	11:42:05	11:54:01	714932	634811ed1f5bcbea7adcaf69	378784676	1	main_slash	11	advance_on_keypress_SLASH	86	stimuli_distractor_diamondtriangles.svg	stimuli_target_circlediamonds.svg	14	yes	57	0	270
6.6.1	win	2022-12-16	11:42:05	11:54:03	716751	634811ed1f5bcbea7adcaf69	378784676	1	main_slash	11	main_slash	87	stimuli_target_circletriangles.svg	stimuli_distractor_diamondtriangles.svg	5	yes	53	1	890
6.6.1	win	2022-12-16	11:42:05	11:54:03	716751	634811ed1f5bcbea7adcaf69	378784676	1	main_slash	11	advance_on_keypress_SLASH	88	stimuli_target_circletriangles.svg	stimuli_distractor_diamondtriangles.svg	5	yes	57	0	366
6.6.1	win	2022-12-16	11:42:05	11:54:06	719776	634811ed1f5bcbea7adcaf69	378784676	1	main_slash	11	main_slash	89	stimuli_distractor_diamondtriangles.svg	stimuli_distractor_diamondtriangles.svg	40	no	0	1	2000
6.6.1	win	2022-12-16	11:42:05	11:54:06	719776	634811ed1f5bcbea7adcaf69	378784676	1	main_slash	11	advance_on_keypress_SLASH	90	stimuli_distractor_diamondtriangles.svg	stimuli_distractor_diamondtriangles.svg	40	no	57	0	491
6.6.1	win	2022-12-16	11:42:05	11:54:08	721829	634811ed1f5bcbea7adcaf69	378784676	1	main_slash	11	main_slash	91	stimuli_target_circlediamonds.svg	stimuli_distractor_diamondtriangles.svg	6	yes	53	1	906
6.6.1	win	2022-12-16	11:42:05	11:54:08	721829	634811ed1f5bcbea7adcaf69	378784676	1	main_slash	11	advance_on_keypress_SLASH	92	stimuli_target_circlediamonds.svg	stimuli_distractor_diamondtriangles.svg	6	yes	57	0	345
6.6.1	win	2022-12-16	11:42:05	11:54:10	723693	634811ed1f5bcbea7adcaf69	378784676	1	main_slash	11	main_slash	93	stimuli_target_squaretriangles.svg	stimuli_distractor_diamondtriangles.svg	7	yes	53	1	856
6.6.1	win	2022-12-16	11:42:05	11:54:10	723693	634811ed1f5bcbea7adcaf69	378784676	1	main_slash	11	advance_on_keypress_SLASH	94	stimuli_target_squaretriangles.svg	stimuli_distractor_diamondtriangles.svg	7	yes	57	0	340
6.6.1	win	2022-12-16	11:42:05	11:54:12	725692	634811ed1f5bcbea7adcaf69	378784676	1	main_slash	11	main_slash	95	stimuli_target_squarediamonds.svg	stimuli_distractor_trianglediamonds.svg	4	yes	53	1	1007
6.6.1	win	2022-12-16	11:42:05	11:54:12	725692	634811ed1f5bcbea7adcaf69	378784676	1	main_slash	11	advance_on_keypress_SLASH	96	stimuli_target_squarediamonds.svg	stimuli_distractor_trianglediamonds.svg	4	yes	57	0	476
6.6.1	win	2022-12-16	11:42:05	11:54:14	727696	634811ed1f5bcbea7adcaf69	378784676	1	main_slash	11	main_slash	97	stimuli_distractor_trianglediamonds.svg	stimuli_target_trianglesquares.svg	26	yes	53	1	879
6.6.1	win	2022-12-16	11:42:05	11:54:14	727696	634811ed1f5bcbea7adcaf69	378784676	1	main_slash	11	advance_on_keypress_SLASH	98	stimuli_distractor_trianglediamonds.svg	stimuli_target_trianglesquares.svg	26	yes	57	0	486
6.6.1	win	2022-12-16	11:42:05	11:54:16	729794	634811ed1f5bcbea7adcaf69	378784676	1	main_slash	11	main_slash	99	stimuli_target_trianglesquares.svg	stimuli_distractor_diamondtriangles.svg	22	yes	53	1	963
6.6.1	win	2022-12-16	11:42:05	11:54:16	729794	634811ed1f5bcbea7adcaf69	378784676	1	main_slash	11	advance_on_keypress_SLASH	100	stimuli_target_trianglesquares.svg	stimuli_distractor_diamondtriangles.svg	22	yes	57	0	492
6.6.1	win	2022-12-16	11:42:05	11:54:19	732928	634811ed1f5bcbea7adcaf69	378784676	1	main_slash	11	main_slash	101	stimuli_distractor_trianglediamonds.svg	stimuli_distractor_trianglediamonds.svg	34	no	0	1	2000
6.6.1	win	2022-12-16	11:42:05	11:54:19	732928	634811ed1f5bcbea7adcaf69	378784676	1	main_slash	11	advance_on_keypress_SLASH	102	stimuli_distractor_trianglediamonds.svg	stimuli_distractor_trianglediamonds.svg	34	no	57	0	11979
6.6.1	win	2022-12-16	11:42:05	11:54:33	746350	634811ed1f5bcbea7adcaf69	378784676	1	main_slash	11	main_slash	103	stimuli_target_circletriangles.svg	stimuli_distractor_trianglediamonds.svg	1	yes	53	1	788
6.6.1	win	2022-12-16	11:42:05	11:54:33	746350	634811ed1f5bcbea7adcaf69	378784676	1	main_slash	11	advance_on_keypress_SLASH	104	stimuli_target_circletriangles.svg	stimuli_distractor_trianglediamonds.svg	1	yes	57	0	399
6.6.1	win	2022-12-16	11:42:05	11:54:36	749410	634811ed1f5bcbea7adcaf69	378784676	1	main_slash	11	main_slash	105	stimuli_distractor_diamondtriangles.svg	stimuli_distractor_trianglediamonds.svg	37	no	0	1	2000
6.6.1	win	2022-12-16	11:42:05	11:54:36	749410	634811ed1f5bcbea7adcaf69	378784676	1	main_slash	11	advance_on_keypress_SLASH	106	stimuli_distractor_diamondtriangles.svg	stimuli_distractor_trianglediamonds.svg	37	no	57	0	636
6.6.1	win	2022-12-16	11:42:05	11:54:38	751548	634811ed1f5bcbea7adcaf69	378784676	1	main_slash	11	main_slash	107	stimuli_distractor_trianglediamonds.svg	stimuli_target_squaretriangles.svg	11	yes	53	1	843
6.6.1	win	2022-12-16	11:42:05	11:54:38	751548	634811ed1f5bcbea7adcaf69	378784676	1	main_slash	11	advance_on_keypress_SLASH	108	stimuli_distractor_trianglediamonds.svg	stimuli_target_squaretriangles.svg	11	yes	57	0	348
6.6.1	win	2022-12-16	11:42:05	11:54:40	753536	634811ed1f5bcbea7adcaf69	378784676	1	main_slash	11	main_slash	109	stimuli_distractor_trianglediamonds.svg	stimuli_target_trianglecircles.svg	25	yes	53	1	981
6.6.1	win	2022-12-16	11:42:05	11:54:40	753536	634811ed1f5bcbea7adcaf69	378784676	1	main_slash	11	advance_on_keypress_SLASH	110	stimuli_distractor_trianglediamonds.svg	stimuli_target_trianglecircles.svg	25	yes	57	0	590
6.6.1	win	2022-12-16	11:42:05	11:54:42	755596	634811ed1f5bcbea7adcaf69	378784676	1	main_slash	11	main_slash	111	stimuli_distractor_diamondtriangles.svg	stimuli_target_trianglesquares.svg	30	yes	53	1	827
6.6.1	win	2022-12-16	11:42:05	11:54:42	755596	634811ed1f5bcbea7adcaf69	378784676	1	main_slash	11	advance_on_keypress_SLASH	112	stimuli_distractor_diamondtriangles.svg	stimuli_target_trianglesquares.svg	30	yes	57	0	320
6.6.1	win	2022-12-16	11:42:05	11:54:44	757408	634811ed1f5bcbea7adcaf69	378784676	1	main_slash	11	main_slash	113	stimuli_distractor_trianglediamonds.svg	stimuli_target_diamondcircles.svg	27	yes	53	1	841
6.6.1	win	2022-12-16	11:42:05	11:54:44	757408	634811ed1f5bcbea7adcaf69	378784676	1	main_slash	11	advance_on_keypress_SLASH	114	stimuli_distractor_trianglediamonds.svg	stimuli_target_diamondcircles.svg	27	yes	57	0	337
6.6.1	win	2022-12-16	11:42:05	11:54:46	759333	634811ed1f5bcbea7adcaf69	378784676	1	main_slash	11	main_slash	115	stimuli_target_diamondsquares.svg	stimuli_distractor_diamondtriangles.svg	24	yes	53	1	935
6.6.1	win	2022-12-16	11:42:05	11:54:46	759333	634811ed1f5bcbea7adcaf69	378784676	1	main_slash	11	advance_on_keypress_SLASH	116	stimuli_target_diamondsquares.svg	stimuli_distractor_diamondtriangles.svg	24	yes	57	0	319
6.6.1	win	2022-12-16	11:42:05	11:54:48	761164	634811ed1f5bcbea7adcaf69	378784676	1	main_slash	11	main_slash	117	stimuli_distractor_diamondtriangles.svg	stimuli_target_trianglecircles.svg	29	yes	53	1	852
6.6.1	win	2022-12-16	11:42:05	11:54:48	761164	634811ed1f5bcbea7adcaf69	378784676	1	main_slash	11	advance_on_keypress_SLASH	118	stimuli_distractor_diamondtriangles.svg	stimuli_target_trianglecircles.svg	29	yes	57	0	280
6.6.1	win	2022-12-16	11:42:05	11:54:49	762980	634811ed1f5bcbea7adcaf69	378784676	1	main_slash	11	main_slash	119	stimuli_target_trianglecircles.svg	stimuli_distractor_trianglediamonds.svg	17	yes	53	1	869
6.6.1	win	2022-12-16	11:42:05	11:54:49	762980	634811ed1f5bcbea7adcaf69	378784676	1	main_slash	11	advance_on_keypress_SLASH	120	stimuli_target_trianglecircles.svg	stimuli_distractor_trianglediamonds.svg	17	yes	57	0	249
6.6.1	win	2022-12-16	11:42:05	11:54:52	765892	634811ed1f5bcbea7adcaf69	378784676	1	main_slash	11	main_slash	121	stimuli_distractor_trianglediamonds.svg	stimuli_distractor_trianglediamonds.svg	33	no	0	1	2000
6.6.1	win	2022-12-16	11:42:05	11:54:52	765892	634811ed1f5bcbea7adcaf69	378784676	1	main_slash	11	advance_on_keypress_SLASH	122	stimuli_distractor_trianglediamonds.svg	stimuli_distractor_trianglediamonds.svg	33	no	57	0	291
6.6.1	win	2022-12-16	11:42:05	11:54:54	767745	634811ed1f5bcbea7adcaf69	378784676	1	main_slash	11	main_slash	123	stimuli_distractor_trianglediamonds.svg	stimuli_distractor_diamondtriangles.svg	36	no	53	0	906
6.6.1	win	2022-12-16	11:42:05	11:54:54	767745	634811ed1f5bcbea7adcaf69	378784676	1	main_slash	11	advance_on_keypress_SLASH	124	stimuli_distractor_trianglediamonds.svg	stimuli_distractor_diamondtriangles.svg	36	no	57	0	336
6.6.1	win	2022-12-16	11:42:05	11:54:56	769658	634811ed1f5bcbea7adcaf69	378784676	1	main_slash	11	main_slash	125	stimuli_target_diamondcircles.svg	stimuli_distractor_trianglediamonds.svg	19	yes	53	1	921
6.6.1	win	2022-12-16	11:42:05	11:54:56	769658	634811ed1f5bcbea7adcaf69	378784676	1	main_slash	11	advance_on_keypress_SLASH	126	stimuli_target_diamondcircles.svg	stimuli_distractor_trianglediamonds.svg	19	yes	57	0	256
6.6.1	win	2022-12-16	11:42:05	11:54:58	771516	634811ed1f5bcbea7adcaf69	378784676	1	main_slash	11	main_slash	127	stimuli_distractor_diamondtriangles.svg	stimuli_target_circletriangles.svg	13	yes	53	1	948
6.6.1	win	2022-12-16	11:42:05	11:54:58	771516	634811ed1f5bcbea7adcaf69	378784676	1	main_slash	11	advance_on_keypress_SLASH	128	stimuli_distractor_diamondtriangles.svg	stimuli_target_circletriangles.svg	13	yes	57	0	299
6.6.1	win	2022-12-16	11:42:05	11:55:00	773317	634811ed1f5bcbea7adcaf69	378784676	1	main_slash	11	main_slash	129	stimuli_distractor_trianglediamonds.svg	stimuli_target_circletriangles.svg	9	yes	53	1	851
6.6.1	win	2022-12-16	11:42:05	11:55:00	773317	634811ed1f5bcbea7adcaf69	378784676	1	main_slash	11	advance_on_keypress_SLASH	130	stimuli_distractor_trianglediamonds.svg	stimuli_target_circletriangles.svg	9	yes	57	0	298
6.6.1	win	2022-12-16	11:42:05	11:55:02	775168	634811ed1f5bcbea7adcaf69	378784676	1	main_slash	11	main_slash	131	stimuli_distractor_trianglediamonds.svg	stimuli_target_circlediamonds.svg	10	yes	53	1	887
6.6.1	win	2022-12-16	11:42:05	11:55:02	775168	634811ed1f5bcbea7adcaf69	378784676	1	main_slash	11	advance_on_keypress_SLASH	132	stimuli_distractor_trianglediamonds.svg	stimuli_target_circlediamonds.svg	10	yes	57	0	398
6.6.1	win	2022-12-16	11:42:05	11:55:05	778228	634811ed1f5bcbea7adcaf69	378784676	1	main_slash	11	main_slash	133	stimuli_distractor_diamondtriangles.svg	stimuli_distractor_diamondtriangles.svg	39	no	0	1	2000
6.6.1	win	2022-12-16	11:42:05	11:55:05	778228	634811ed1f5bcbea7adcaf69	378784676	1	main_slash	11	advance_on_keypress_SLASH	134	stimuli_distractor_diamondtriangles.svg	stimuli_distractor_diamondtriangles.svg	39	no	57	0	582
6.6.1	win	2022-12-16	11:42:05	11:55:07	780371	634811ed1f5bcbea7adcaf69	378784676	1	main_slash	11	main_slash	135	stimuli_distractor_diamondtriangles.svg	stimuli_target_diamondsquares.svg	32	yes	53	1	896
6.6.1	win	2022-12-16	11:42:05	11:55:07	780371	634811ed1f5bcbea7adcaf69	378784676	1	main_slash	11	advance_on_keypress_SLASH	136	stimuli_distractor_diamondtriangles.svg	stimuli_target_diamondsquares.svg	32	yes	57	0	367
6.6.1	win	2022-12-16	11:42:05	11:55:09	782560	634811ed1f5bcbea7adcaf69	378784676	1	main_slash	11	main_slash	137	stimuli_target_squaretriangles.svg	stimuli_distractor_trianglediamonds.svg	3	yes	53	1	1171
6.6.1	win	2022-12-16	11:42:05	11:55:09	782560	634811ed1f5bcbea7adcaf69	378784676	1	main_slash	11	advance_on_keypress_SLASH	138	stimuli_target_squaretriangles.svg	stimuli_distractor_trianglediamonds.svg	3	yes	57	0	301
6.6.1	win	2022-12-16	11:42:05	11:55:11	784544	634811ed1f5bcbea7adcaf69	378784676	1	main_slash	11	main_slash	139	stimuli_distractor_trianglediamonds.svg	stimuli_target_diamondsquares.svg	28	yes	53	1	1024
6.6.1	win	2022-12-16	11:42:05	11:55:11	784544	634811ed1f5bcbea7adcaf69	378784676	1	main_slash	11	advance_on_keypress_SLASH	140	stimuli_distractor_trianglediamonds.svg	stimuli_target_diamondsquares.svg	28	yes	57	0	304
6.6.1	win	2022-12-16	11:42:05	11:55:13	786365	634811ed1f5bcbea7adcaf69	378784676	1	main_slash	11	main_slash	141	stimuli_target_squarediamonds.svg	stimuli_distractor_diamondtriangles.svg	8	yes	53	1	863
6.6.1	win	2022-12-16	11:42:05	11:55:13	786365	634811ed1f5bcbea7adcaf69	378784676	1	main_slash	11	advance_on_keypress_SLASH	142	stimuli_target_squarediamonds.svg	stimuli_distractor_diamondtriangles.svg	8	yes	57	0	311
6.6.1	win	2022-12-16	11:42:05	11:55:15	788191	634811ed1f5bcbea7adcaf69	378784676	1	main_slash	11	main_slash	143	stimuli_distractor_diamondtriangles.svg	stimuli_target_squarediamonds.svg	16	yes	53	1	858
6.6.1	win	2022-12-16	11:42:05	11:55:15	788191	634811ed1f5bcbea7adcaf69	378784676	1	main_slash	11	advance_on_keypress_SLASH	144	stimuli_distractor_diamondtriangles.svg	stimuli_target_squarediamonds.svg	16	yes	57	0	324
6.6.1	win	2022-12-16	11:42:05	11:55:17	790088	634811ed1f5bcbea7adcaf69	378784676	1	main_slash	11	main_slash	145	stimuli_target_circlediamonds.svg	stimuli_distractor_trianglediamonds.svg	2	yes	53	1	924
6.6.1	win	2022-12-16	11:42:05	11:55:17	790088	634811ed1f5bcbea7adcaf69	378784676	1	main_slash	11	advance_on_keypress_SLASH	146	stimuli_target_circlediamonds.svg	stimuli_distractor_trianglediamonds.svg	2	yes	57	0	326
6.6.1	win	2022-12-16	11:42:05	11:55:18	791946	634811ed1f5bcbea7adcaf69	378784676	1	main_slash	11	main_slash	147	stimuli_distractor_diamondtriangles.svg	stimuli_target_squaretriangles.svg	15	yes	53	1	884
6.6.1	win	2022-12-16	11:42:05	11:55:18	791946	634811ed1f5bcbea7adcaf69	378784676	1	main_slash	11	advance_on_keypress_SLASH	148	stimuli_distractor_diamondtriangles.svg	stimuli_target_squaretriangles.svg	15	yes	57	0	335
6.6.1	win	2022-12-16	11:42:05	11:55:20	793862	634811ed1f5bcbea7adcaf69	378784676	1	main_slash	11	main_slash	149	stimuli_distractor_trianglediamonds.svg	stimuli_target_squarediamonds.svg	12	yes	53	1	934
6.6.1	win	2022-12-16	11:42:05	11:55:20	793862	634811ed1f5bcbea7adcaf69	378784676	1	main_slash	11	advance_on_keypress_SLASH	150	stimuli_distractor_trianglediamonds.svg	stimuli_target_squarediamonds.svg	12	yes	57	0	327
6.6.1	win	2022-12-16	11:42:05	11:55:23	796307	634811ed1f5bcbea7adcaf69	378784676	1	main_slash	11	main_slash	151	stimuli_distractor_trianglediamonds.svg	stimuli_distractor_diamondtriangles.svg	35	no	53	0	1466
6.6.1	win	2022-12-16	11:42:05	11:55:23	796307	634811ed1f5bcbea7adcaf69	378784676	1	main_slash	11	advance_on_keypress_SLASH	152	stimuli_distractor_trianglediamonds.svg	stimuli_distractor_diamondtriangles.svg	35	no	57	0	481
6.6.1	win	2022-12-16	11:42:05	11:55:25	798322	634811ed1f5bcbea7adcaf69	378784676	1	main_slash	11	main_slash	153	stimuli_target_trianglesquares.svg	stimuli_distractor_trianglediamonds.svg	18	yes	53	1	884
6.6.1	win	2022-12-16	11:42:05	11:55:25	798322	634811ed1f5bcbea7adcaf69	378784676	1	main_slash	11	advance_on_keypress_SLASH	154	stimuli_target_trianglesquares.svg	stimuli_distractor_trianglediamonds.svg	18	yes	57	0	330
6.6.1	win	2022-12-16	11:42:05	11:55:28	801303	634811ed1f5bcbea7adcaf69	378784676	1	main_slash	11	main_slash	155	stimuli_distractor_diamondtriangles.svg	stimuli_distractor_trianglediamonds.svg	38	no	0	1	2000
6.6.1	win	2022-12-16	11:42:05	11:55:28	801303	634811ed1f5bcbea7adcaf69	378784676	1	main_slash	11	advance_on_keypress_SLASH	156	stimuli_distractor_diamondtriangles.svg	stimuli_distractor_trianglediamonds.svg	38	no	57	0	734
6.6.1	win	2022-12-16	11:42:05	11:55:30	803578	634811ed1f5bcbea7adcaf69	378784676	1	main_slash	11	main_slash	157	stimuli_target_diamondcircles.svg	stimuli_distractor_diamondtriangles.svg	23	yes	53	1	878
6.6.1	win	2022-12-16	11:42:05	11:55:30	803578	634811ed1f5bcbea7adcaf69	378784676	1	main_slash	11	advance_on_keypress_SLASH	158	stimuli_target_diamondcircles.svg	stimuli_distractor_diamondtriangles.svg	23	yes	57	0	304
6.6.1	win	2022-12-16	11:42:05	11:55:32	805502	634811ed1f5bcbea7adcaf69	378784676	1	main_slash	11	main_slash	159	stimuli_distractor_diamondtriangles.svg	stimuli_target_diamondcircles.svg	31	yes	53	1	971
6.6.1	win	2022-12-16	11:42:05	11:55:32	805502	634811ed1f5bcbea7adcaf69	378784676	1	main_slash	11	advance_on_keypress_SLASH	160	stimuli_distractor_diamondtriangles.svg	stimuli_target_diamondcircles.svg	31	yes	57	0	290