build	computer.platform	date	time	timestamp	time_elapsed_ms	subject	group	session	blockcode	blocknum	trialcode	trialnum	stimulus_left	stimulus_right	stim_index	target_present	response	correct	latency
6.6.1	win	2022-12-19	14:48:53	14:51:16	142163	5e44cd061aedc43572ba58b3	98098255	1	practice_slash	5	practice_slash	1	stimuli_target_circlediamonds.svg	stimuli_distractor_diamondtriangles.svg	1	yes	0	0	2000
6.6.1	win	2022-12-19	14:48:53	14:51:16	142163	5e44cd061aedc43572ba58b3	98098255	1	practice_slash	5	advance_on_keypress_SLASH	2	stimuli_target_circlediamonds.svg	stimuli_distractor_diamondtriangles.svg	1	yes	57	0	6830
6.6.1	win	2022-12-19	14:48:53	14:51:25	151174	5e44cd061aedc43572ba58b3	98098255	1	practice_slash	5	practice_slash	3	stimuli_distractor_diamondtriangles.svg	stimuli_distractor_trianglediamonds.svg	14	no	53	0	502
6.6.1	win	2022-12-19	14:48:53	14:51:25	151174	5e44cd061aedc43572ba58b3	98098255	1	practice_slash	5	advance_on_keypress_SLASH	4	stimuli_distractor_diamondtriangles.svg	stimuli_distractor_trianglediamonds.svg	14	no	57	0	2963
6.6.1	win	2022-12-19	14:48:53	14:51:30	156006	5e44cd061aedc43572ba58b3	98098255	1	practice_slash	5	practice_slash	5	stimuli_distractor_trianglediamonds.svg	stimuli_distractor_diamondtriangles.svg	16	no	53	0	196
6.6.1	win	2022-12-19	14:48:53	14:51:30	156006	5e44cd061aedc43572ba58b3	98098255	1	practice_slash	5	advance_on_keypress_SLASH	6	stimuli_distractor_trianglediamonds.svg	stimuli_distractor_diamondtriangles.svg	16	no	57	0	1430
6.6.1	win	2022-12-19	14:48:53	14:51:35	160973	5e44cd061aedc43572ba58b3	98098255	1	practice_slash	5	practice_slash	7	stimuli_distractor_trianglediamonds.svg	stimuli_target_diamondcircles.svg	12	yes	53	1	1901
6.6.1	win	2022-12-19	14:48:53	14:51:35	160973	5e44cd061aedc43572ba58b3	98098255	1	practice_slash	5	advance_on_keypress_SLASH	8	stimuli_distractor_trianglediamonds.svg	stimuli_target_diamondcircles.svg	12	yes	57	0	2077
6.6.1	win	2022-12-19	14:48:53	14:51:40	165646	5e44cd061aedc43572ba58b3	98098255	1	practice_slash	5	practice_slash	9	stimuli_target_diamondsquares.svg	stimuli_distractor_trianglediamonds.svg	6	yes	53	1	923
6.6.1	win	2022-12-19	14:48:53	14:51:40	165646	5e44cd061aedc43572ba58b3	98098255	1	practice_slash	5	advance_on_keypress_SLASH	10	stimuli_target_diamondsquares.svg	stimuli_distractor_trianglediamonds.svg	6	yes	57	0	546
6.6.1	win	2022-12-19	14:48:53	14:51:42	168493	5e44cd061aedc43572ba58b3	98098255	1	practice_slash	5	practice_slash	11	stimuli_distractor_diamondtriangles.svg	stimuli_target_circletriangles.svg	7	yes	53	1	631
6.6.1	win	2022-12-19	14:48:53	14:51:42	168493	5e44cd061aedc43572ba58b3	98098255	1	practice_slash	5	advance_on_keypress_SLASH	12	stimuli_distractor_diamondtriangles.svg	stimuli_target_circletriangles.svg	7	yes	57	0	344
6.6.1	win	2022-12-19	14:48:53	14:51:46	172521	5e44cd061aedc43572ba58b3	98098255	1	practice_slash	5	practice_slash	13	stimuli_distractor_trianglediamonds.svg	stimuli_distractor_trianglediamonds.svg	15	no	0	1	2000
6.6.1	win	2022-12-19	14:48:53	14:51:46	172521	5e44cd061aedc43572ba58b3	98098255	1	practice_slash	5	advance_on_keypress_SLASH	14	stimuli_distractor_trianglediamonds.svg	stimuli_distractor_trianglediamonds.svg	15	no	57	0	555
6.6.1	win	2022-12-19	14:48:53	14:51:49	175246	5e44cd061aedc43572ba58b3	98098255	1	practice_slash	5	practice_slash	15	stimuli_distractor_diamondtriangles.svg	stimuli_target_trianglecircles.svg	9	yes	53	1	524
6.6.1	win	2022-12-19	14:48:53	14:51:49	175246	5e44cd061aedc43572ba58b3	98098255	1	practice_slash	5	advance_on_keypress_SLASH	16	stimuli_distractor_diamondtriangles.svg	stimuli_target_trianglecircles.svg	9	yes	57	0	1352
6.6.1	win	2022-12-19	14:48:53	14:51:53	179310	5e44cd061aedc43572ba58b3	98098255	1	practice_slash	5	practice_slash	17	stimuli_distractor_trianglediamonds.svg	stimuli_target_squarediamonds.svg	11	yes	53	1	1040
6.6.1	win	2022-12-19	14:48:53	14:51:53	179310	5e44cd061aedc43572ba58b3	98098255	1	practice_slash	5	advance_on_keypress_SLASH	18	stimuli_distractor_trianglediamonds.svg	stimuli_target_squarediamonds.svg	11	yes	57	0	1462
6.6.1	win	2022-12-19	14:48:53	14:51:57	183390	5e44cd061aedc43572ba58b3	98098255	1	practice_slash	5	practice_slash	19	stimuli_target_squarediamonds.svg	stimuli_distractor_diamondtriangles.svg	2	yes	53	1	951
6.6.1	win	2022-12-19	14:48:53	14:51:57	183390	5e44cd061aedc43572ba58b3	98098255	1	practice_slash	5	advance_on_keypress_SLASH	20	stimuli_target_squarediamonds.svg	stimuli_distractor_diamondtriangles.svg	2	yes	57	0	874
6.6.1	win	2022-12-19	14:48:53	14:52:01	186830	5e44cd061aedc43572ba58b3	98098255	1	practice_slash	5	practice_slash	21	stimuli_target_squarediamonds.svg	stimuli_distractor_trianglediamonds.svg	5	yes	53	1	900
6.6.1	win	2022-12-19	14:48:53	14:52:01	186830	5e44cd061aedc43572ba58b3	98098255	1	practice_slash	5	advance_on_keypress_SLASH	22	stimuli_target_squarediamonds.svg	stimuli_distractor_trianglediamonds.svg	5	yes	57	0	542
6.6.1	win	2022-12-19	14:48:53	14:52:04	190213	5e44cd061aedc43572ba58b3	98098255	1	practice_slash	5	practice_slash	23	stimuli_target_diamondsquares.svg	stimuli_distractor_diamondtriangles.svg	3	yes	53	1	1198
6.6.1	win	2022-12-19	14:48:53	14:52:04	190213	5e44cd061aedc43572ba58b3	98098255	1	practice_slash	5	advance_on_keypress_SLASH	24	stimuli_target_diamondsquares.svg	stimuli_distractor_diamondtriangles.svg	3	yes	57	0	879
6.6.1	win	2022-12-19	14:48:53	14:52:07	193334	5e44cd061aedc43572ba58b3	98098255	1	practice_slash	5	practice_slash	25	stimuli_distractor_diamondtriangles.svg	stimuli_target_diamondcircles.svg	8	yes	53	1	601
6.6.1	win	2022-12-19	14:48:53	14:52:07	193334	5e44cd061aedc43572ba58b3	98098255	1	practice_slash	5	advance_on_keypress_SLASH	26	stimuli_distractor_diamondtriangles.svg	stimuli_target_diamondcircles.svg	8	yes	57	0	526
6.6.1	win	2022-12-19	14:48:53	14:52:10	196326	5e44cd061aedc43572ba58b3	98098255	1	practice_slash	5	practice_slash	27	stimuli_distractor_trianglediamonds.svg	stimuli_target_circlediamonds.svg	10	yes	53	1	825
6.6.1	win	2022-12-19	14:48:53	14:52:10	196326	5e44cd061aedc43572ba58b3	98098255	1	practice_slash	5	advance_on_keypress_SLASH	28	stimuli_distractor_trianglediamonds.svg	stimuli_target_circlediamonds.svg	10	yes	57	0	940
6.6.1	win	2022-12-19	14:48:53	14:52:13	199485	5e44cd061aedc43572ba58b3	98098255	1	practice_slash	5	practice_slash	29	stimuli_target_circlediamonds.svg	stimuli_distractor_trianglediamonds.svg	4	yes	53	1	546
6.6.1	win	2022-12-19	14:48:53	14:52:13	199485	5e44cd061aedc43572ba58b3	98098255	1	practice_slash	5	advance_on_keypress_SLASH	30	stimuli_target_circlediamonds.svg	stimuli_distractor_trianglediamonds.svg	4	yes	57	0	950
6.6.1	win	2022-12-19	14:48:53	14:52:18	204069	5e44cd061aedc43572ba58b3	98098255	1	practice_slash	5	practice_slash	31	stimuli_distractor_diamondtriangles.svg	stimuli_distractor_diamondtriangles.svg	13	no	0	1	2000
6.6.1	win	2022-12-19	14:48:53	14:52:18	204069	5e44cd061aedc43572ba58b3	98098255	1	practice_slash	5	advance_on_keypress_SLASH	32	stimuli_distractor_diamondtriangles.svg	stimuli_distractor_diamondtriangles.svg	13	no	57	0	799
6.6.1	win	2022-12-19	14:48:53	14:52:30	216198	5e44cd061aedc43572ba58b3	98098255	1	main_slash	7	main_slash	1	stimuli_target_trianglecircles.svg	stimuli_distractor_diamondtriangles.svg	21	yes	53	1	531
6.6.1	win	2022-12-19	14:48:53	14:52:30	216198	5e44cd061aedc43572ba58b3	98098255	1	main_slash	7	advance_on_keypress_SLASH	2	stimuli_target_trianglecircles.svg	stimuli_distractor_diamondtriangles.svg	21	yes	57	0	1040
6.6.1	win	2022-12-19	14:48:53	14:52:33	218933	5e44cd061aedc43572ba58b3	98098255	1	main_slash	7	main_slash	3	stimuli_distractor_diamondtriangles.svg	stimuli_distractor_trianglediamonds.svg	38	no	53	0	1027
6.6.1	win	2022-12-19	14:48:53	14:52:33	218933	5e44cd061aedc43572ba58b3	98098255	1	main_slash	7	advance_on_keypress_SLASH	4	stimuli_distractor_diamondtriangles.svg	stimuli_distractor_trianglediamonds.svg	38	no	57	0	1334
6.6.1	win	2022-12-19	14:48:53	14:52:36	221670	5e44cd061aedc43572ba58b3	98098255	1	main_slash	7	main_slash	5	stimuli_target_trianglecircles.svg	stimuli_distractor_trianglediamonds.svg	17	yes	53	1	793
6.6.1	win	2022-12-19	14:48:53	14:52:36	221670	5e44cd061aedc43572ba58b3	98098255	1	main_slash	7	advance_on_keypress_SLASH	6	stimuli_target_trianglecircles.svg	stimuli_distractor_trianglediamonds.svg	17	yes	57	0	758
6.6.1	win	2022-12-19	14:48:53	14:52:38	223789	5e44cd061aedc43572ba58b3	98098255	1	main_slash	7	main_slash	7	stimuli_distractor_trianglediamonds.svg	stimuli_target_trianglecircles.svg	25	yes	53	1	754
6.6.1	win	2022-12-19	14:48:53	14:52:38	223789	5e44cd061aedc43572ba58b3	98098255	1	main_slash	7	advance_on_keypress_SLASH	8	stimuli_distractor_trianglediamonds.svg	stimuli_target_trianglecircles.svg	25	yes	57	0	551
6.6.1	win	2022-12-19	14:48:53	14:52:40	225685	5e44cd061aedc43572ba58b3	98098255	1	main_slash	7	main_slash	9	stimuli_distractor_diamondtriangles.svg	stimuli_target_trianglecircles.svg	29	yes	53	1	738
6.6.1	win	2022-12-19	14:48:53	14:52:40	225685	5e44cd061aedc43572ba58b3	98098255	1	main_slash	7	advance_on_keypress_SLASH	10	stimuli_distractor_diamondtriangles.svg	stimuli_target_trianglecircles.svg	29	yes	57	0	494
6.6.1	win	2022-12-19	14:48:53	14:52:42	227805	5e44cd061aedc43572ba58b3	98098255	1	main_slash	7	main_slash	11	stimuli_distractor_diamondtriangles.svg	stimuli_target_squarediamonds.svg	16	yes	53	1	1018
6.6.1	win	2022-12-19	14:48:53	14:52:42	227805	5e44cd061aedc43572ba58b3	98098255	1	main_slash	7	advance_on_keypress_SLASH	12	stimuli_distractor_diamondtriangles.svg	stimuli_target_squarediamonds.svg	16	yes	57	0	622
6.6.1	win	2022-12-19	14:48:53	14:52:44	229893	5e44cd061aedc43572ba58b3	98098255	1	main_slash	7	main_slash	13	stimuli_target_diamondsquares.svg	stimuli_distractor_diamondtriangles.svg	24	yes	53	1	825
6.6.1	win	2022-12-19	14:48:53	14:52:44	229893	5e44cd061aedc43572ba58b3	98098255	1	main_slash	7	advance_on_keypress_SLASH	14	stimuli_target_diamondsquares.svg	stimuli_distractor_diamondtriangles.svg	24	yes	57	0	486
6.6.1	win	2022-12-19	14:48:53	14:52:46	231829	5e44cd061aedc43572ba58b3	98098255	1	main_slash	7	main_slash	15	stimuli_distractor_trianglediamonds.svg	stimuli_target_trianglesquares.svg	26	yes	53	1	842
6.6.1	win	2022-12-19	14:48:53	14:52:46	231829	5e44cd061aedc43572ba58b3	98098255	1	main_slash	7	advance_on_keypress_SLASH	16	stimuli_distractor_trianglediamonds.svg	stimuli_target_trianglesquares.svg	26	yes	57	0	510
6.6.1	win	2022-12-19	14:48:53	14:52:49	234948	5e44cd061aedc43572ba58b3	98098255	1	main_slash	7	main_slash	17	stimuli_distractor_trianglediamonds.svg	stimuli_distractor_trianglediamonds.svg	33	no	0	1	2000
6.6.1	win	2022-12-19	14:48:53	14:52:49	234948	5e44cd061aedc43572ba58b3	98098255	1	main_slash	7	advance_on_keypress_SLASH	18	stimuli_distractor_trianglediamonds.svg	stimuli_distractor_trianglediamonds.svg	33	no	57	0	1024
6.6.1	win	2022-12-19	14:48:53	14:52:51	237309	5e44cd061aedc43572ba58b3	98098255	1	main_slash	7	main_slash	19	stimuli_target_diamondcircles.svg	stimuli_distractor_trianglediamonds.svg	19	yes	53	1	730
6.6.1	win	2022-12-19	14:48:53	14:52:51	237309	5e44cd061aedc43572ba58b3	98098255	1	main_slash	7	advance_on_keypress_SLASH	20	stimuli_target_diamondcircles.svg	stimuli_distractor_trianglediamonds.svg	19	yes	57	0	550
6.6.1	win	2022-12-19	14:48:53	14:52:53	239389	5e44cd061aedc43572ba58b3	98098255	1	main_slash	7	main_slash	21	stimuli_distractor_trianglediamonds.svg	stimuli_target_circlediamonds.svg	10	yes	53	1	922
6.6.1	win	2022-12-19	14:48:53	14:52:53	239389	5e44cd061aedc43572ba58b3	98098255	1	main_slash	7	advance_on_keypress_SLASH	22	stimuli_distractor_trianglediamonds.svg	stimuli_target_circlediamonds.svg	10	yes	57	0	446
6.6.1	win	2022-12-19	14:48:53	14:52:56	242444	5e44cd061aedc43572ba58b3	98098255	1	main_slash	7	main_slash	23	stimuli_distractor_trianglediamonds.svg	stimuli_distractor_diamondtriangles.svg	35	no	0	1	2000
6.6.1	win	2022-12-19	14:48:53	14:52:56	242444	5e44cd061aedc43572ba58b3	98098255	1	main_slash	7	advance_on_keypress_SLASH	24	stimuli_distractor_trianglediamonds.svg	stimuli_distractor_diamondtriangles.svg	35	no	57	0	368
6.6.1	win	2022-12-19	14:48:53	14:52:58	244157	5e44cd061aedc43572ba58b3	98098255	1	main_slash	7	main_slash	25	stimuli_target_squarediamonds.svg	stimuli_distractor_diamondtriangles.svg	8	yes	53	1	738
6.6.1	win	2022-12-19	14:48:53	14:52:58	244157	5e44cd061aedc43572ba58b3	98098255	1	main_slash	7	advance_on_keypress_SLASH	26	stimuli_target_squarediamonds.svg	stimuli_distractor_diamondtriangles.svg	8	yes	57	0	526
6.6.1	win	2022-12-19	14:48:53	14:53:00	246095	5e44cd061aedc43572ba58b3	98098255	1	main_slash	7	main_slash	27	stimuli_target_squaretriangles.svg	stimuli_distractor_diamondtriangles.svg	7	yes	53	1	763
6.6.1	win	2022-12-19	14:48:53	14:53:00	246095	5e44cd061aedc43572ba58b3	98098255	1	main_slash	7	advance_on_keypress_SLASH	28	stimuli_target_squaretriangles.svg	stimuli_distractor_diamondtriangles.svg	7	yes	57	0	420
6.6.1	win	2022-12-19	14:48:53	14:53:02	248037	5e44cd061aedc43572ba58b3	98098255	1	main_slash	7	main_slash	29	stimuli_distractor_diamondtriangles.svg	stimuli_target_squaretriangles.svg	15	yes	53	1	847
6.6.1	win	2022-12-19	14:48:53	14:53:02	248037	5e44cd061aedc43572ba58b3	98098255	1	main_slash	7	advance_on_keypress_SLASH	30	stimuli_distractor_diamondtriangles.svg	stimuli_target_squaretriangles.svg	15	yes	57	0	398
6.6.1	win	2022-12-19	14:48:53	14:53:04	249869	5e44cd061aedc43572ba58b3	98098255	1	main_slash	7	main_slash	31	stimuli_target_trianglesquares.svg	stimuli_distractor_trianglediamonds.svg	18	yes	53	1	826
6.6.1	win	2022-12-19	14:48:53	14:53:04	249869	5e44cd061aedc43572ba58b3	98098255	1	main_slash	7	advance_on_keypress_SLASH	32	stimuli_target_trianglesquares.svg	stimuli_distractor_trianglediamonds.svg	18	yes	57	0	326
6.6.1	win	2022-12-19	14:48:53	14:53:06	251701	5e44cd061aedc43572ba58b3	98098255	1	main_slash	7	main_slash	33	stimuli_distractor_diamondtriangles.svg	stimuli_target_diamondcircles.svg	31	yes	53	1	898
6.6.1	win	2022-12-19	14:48:53	14:53:06	251701	5e44cd061aedc43572ba58b3	98098255	1	main_slash	7	advance_on_keypress_SLASH	34	stimuli_distractor_diamondtriangles.svg	stimuli_target_diamondcircles.svg	31	yes	57	0	470
6.6.1	win	2022-12-19	14:48:53	14:53:09	254780	5e44cd061aedc43572ba58b3	98098255	1	main_slash	7	main_slash	35	stimuli_distractor_diamondtriangles.svg	stimuli_distractor_diamondtriangles.svg	39	no	0	1	2000
6.6.1	win	2022-12-19	14:48:53	14:53:09	254780	5e44cd061aedc43572ba58b3	98098255	1	main_slash	7	advance_on_keypress_SLASH	36	stimuli_distractor_diamondtriangles.svg	stimuli_distractor_diamondtriangles.svg	39	no	57	0	504
6.6.1	win	2022-12-19	14:48:53	14:53:11	256709	5e44cd061aedc43572ba58b3	98098255	1	main_slash	7	main_slash	37	stimuli_distractor_diamondtriangles.svg	stimuli_target_diamondsquares.svg	32	yes	53	1	818
6.6.1	win	2022-12-19	14:48:53	14:53:11	256709	5e44cd061aedc43572ba58b3	98098255	1	main_slash	7	advance_on_keypress_SLASH	38	stimuli_distractor_diamondtriangles.svg	stimuli_target_diamondsquares.svg	32	yes	57	0	885
6.6.1	win	2022-12-19	14:48:53	14:53:13	258949	5e44cd061aedc43572ba58b3	98098255	1	main_slash	7	main_slash	39	stimuli_target_circlediamonds.svg	stimuli_distractor_diamondtriangles.svg	6	yes	53	1	746
6.6.1	win	2022-12-19	14:48:53	14:53:13	258949	5e44cd061aedc43572ba58b3	98098255	1	main_slash	7	advance_on_keypress_SLASH	40	stimuli_target_circlediamonds.svg	stimuli_distractor_diamondtriangles.svg	6	yes	57	0	646
6.6.1	win	2022-12-19	14:48:53	14:53:15	261397	5e44cd061aedc43572ba58b3	98098255	1	main_slash	7	main_slash	41	stimuli_distractor_trianglediamonds.svg	stimuli_target_squaretriangles.svg	11	yes	53	1	1194
6.6.1	win	2022-12-19	14:48:53	14:53:15	261397	5e44cd061aedc43572ba58b3	98098255	1	main_slash	7	advance_on_keypress_SLASH	42	stimuli_distractor_trianglediamonds.svg	stimuli_target_squaretriangles.svg	11	yes	57	0	486
6.6.1	win	2022-12-19	14:48:53	14:53:17	263365	5e44cd061aedc43572ba58b3	98098255	1	main_slash	7	main_slash	43	stimuli_target_squarediamonds.svg	stimuli_distractor_trianglediamonds.svg	4	yes	53	1	841
6.6.1	win	2022-12-19	14:48:53	14:53:17	263365	5e44cd061aedc43572ba58b3	98098255	1	main_slash	7	advance_on_keypress_SLASH	44	stimuli_target_squarediamonds.svg	stimuli_distractor_trianglediamonds.svg	4	yes	57	0	510
6.6.1	win	2022-12-19	14:48:53	14:53:19	265373	5e44cd061aedc43572ba58b3	98098255	1	main_slash	7	main_slash	45	stimuli_distractor_diamondtriangles.svg	stimuli_target_circlediamonds.svg	14	yes	53	1	890
6.6.1	win	2022-12-19	14:48:53	14:53:19	265373	5e44cd061aedc43572ba58b3	98098255	1	main_slash	7	advance_on_keypress_SLASH	46	stimuli_distractor_diamondtriangles.svg	stimuli_target_circlediamonds.svg	14	yes	57	0	662
6.6.1	win	2022-12-19	14:48:53	14:53:21	267453	5e44cd061aedc43572ba58b3	98098255	1	main_slash	7	main_slash	47	stimuli_distractor_trianglediamonds.svg	stimuli_target_squarediamonds.svg	12	yes	53	1	810
6.6.1	win	2022-12-19	14:48:53	14:53:21	267453	5e44cd061aedc43572ba58b3	98098255	1	main_slash	7	advance_on_keypress_SLASH	48	stimuli_distractor_trianglediamonds.svg	stimuli_target_squarediamonds.svg	12	yes	57	0	598
6.6.1	win	2022-12-19	14:48:53	14:53:23	269413	5e44cd061aedc43572ba58b3	98098255	1	main_slash	7	main_slash	49	stimuli_target_circlediamonds.svg	stimuli_distractor_trianglediamonds.svg	2	yes	53	1	754
6.6.1	win	2022-12-19	14:48:53	14:53:23	269413	5e44cd061aedc43572ba58b3	98098255	1	main_slash	7	advance_on_keypress_SLASH	50	stimuli_target_circlediamonds.svg	stimuli_distractor_trianglediamonds.svg	2	yes	57	0	511
6.6.1	win	2022-12-19	14:48:53	14:53:26	272567	5e44cd061aedc43572ba58b3	98098255	1	main_slash	7	main_slash	51	stimuli_distractor_diamondtriangles.svg	stimuli_distractor_diamondtriangles.svg	40	no	0	1	2000
6.6.1	win	2022-12-19	14:48:53	14:53:26	272567	5e44cd061aedc43572ba58b3	98098255	1	main_slash	7	advance_on_keypress_SLASH	52	stimuli_distractor_diamondtriangles.svg	stimuli_distractor_diamondtriangles.svg	40	no	57	0	436
6.6.1	win	2022-12-19	14:48:53	14:53:29	275612	5e44cd061aedc43572ba58b3	98098255	1	main_slash	7	main_slash	53	stimuli_distractor_trianglediamonds.svg	stimuli_distractor_trianglediamonds.svg	34	no	0	1	2000
6.6.1	win	2022-12-19	14:48:53	14:53:29	275612	5e44cd061aedc43572ba58b3	98098255	1	main_slash	7	advance_on_keypress_SLASH	54	stimuli_distractor_trianglediamonds.svg	stimuli_distractor_trianglediamonds.svg	34	no	57	0	440
6.6.1	win	2022-12-19	14:48:53	14:53:31	277565	5e44cd061aedc43572ba58b3	98098255	1	main_slash	7	main_slash	55	stimuli_target_diamondsquares.svg	stimuli_distractor_trianglediamonds.svg	20	yes	53	1	904
6.6.1	win	2022-12-19	14:48:53	14:53:31	277565	5e44cd061aedc43572ba58b3	98098255	1	main_slash	7	advance_on_keypress_SLASH	56	stimuli_target_diamondsquares.svg	stimuli_distractor_trianglediamonds.svg	20	yes	57	0	846
6.6.1	win	2022-12-19	14:48:53	14:53:34	279845	5e44cd061aedc43572ba58b3	98098255	1	main_slash	7	main_slash	57	stimuli_distractor_trianglediamonds.svg	stimuli_target_diamondsquares.svg	28	yes	53	1	823
6.6.1	win	2022-12-19	14:48:53	14:53:34	279845	5e44cd061aedc43572ba58b3	98098255	1	main_slash	7	advance_on_keypress_SLASH	58	stimuli_distractor_trianglediamonds.svg	stimuli_target_diamondsquares.svg	28	yes	57	0	526
6.6.1	win	2022-12-19	14:48:53	14:53:37	282980	5e44cd061aedc43572ba58b3	98098255	1	main_slash	7	main_slash	59	stimuli_distractor_trianglediamonds.svg	stimuli_distractor_diamondtriangles.svg	36	no	0	1	2000
6.6.1	win	2022-12-19	14:48:53	14:53:37	282980	5e44cd061aedc43572ba58b3	98098255	1	main_slash	7	advance_on_keypress_SLASH	60	stimuli_distractor_trianglediamonds.svg	stimuli_distractor_diamondtriangles.svg	36	no	57	0	496
6.6.1	win	2022-12-19	14:48:53	14:53:39	285069	5e44cd061aedc43572ba58b3	98098255	1	main_slash	7	main_slash	61	stimuli_distractor_trianglediamonds.svg	stimuli_target_circletriangles.svg	9	yes	53	1	986
6.6.1	win	2022-12-19	14:48:53	14:53:39	285069	5e44cd061aedc43572ba58b3	98098255	1	main_slash	7	advance_on_keypress_SLASH	62	stimuli_distractor_trianglediamonds.svg	stimuli_target_circletriangles.svg	9	yes	57	0	438
6.6.1	win	2022-12-19	14:48:53	14:53:41	287046	5e44cd061aedc43572ba58b3	98098255	1	main_slash	7	main_slash	63	stimuli_distractor_diamondtriangles.svg	stimuli_target_trianglesquares.svg	30	yes	53	1	930
6.6.1	win	2022-12-19	14:48:53	14:53:41	287046	5e44cd061aedc43572ba58b3	98098255	1	main_slash	7	advance_on_keypress_SLASH	64	stimuli_distractor_diamondtriangles.svg	stimuli_target_trianglesquares.svg	30	yes	57	0	403
6.6.1	win	2022-12-19	14:48:53	14:53:43	288901	5e44cd061aedc43572ba58b3	98098255	1	main_slash	7	main_slash	65	stimuli_target_diamondcircles.svg	stimuli_distractor_diamondtriangles.svg	23	yes	53	1	807
6.6.1	win	2022-12-19	14:48:53	14:53:43	288901	5e44cd061aedc43572ba58b3	98098255	1	main_slash	7	advance_on_keypress_SLASH	66	stimuli_target_diamondcircles.svg	stimuli_distractor_diamondtriangles.svg	23	yes	57	0	886
6.6.1	win	2022-12-19	14:48:53	14:53:45	291357	5e44cd061aedc43572ba58b3	98098255	1	main_slash	7	main_slash	67	stimuli_target_squaretriangles.svg	stimuli_distractor_trianglediamonds.svg	3	yes	53	1	962
6.6.1	win	2022-12-19	14:48:53	14:53:45	291357	5e44cd061aedc43572ba58b3	98098255	1	main_slash	7	advance_on_keypress_SLASH	68	stimuli_target_squaretriangles.svg	stimuli_distractor_trianglediamonds.svg	3	yes	57	0	494
6.6.1	win	2022-12-19	14:48:53	14:53:48	294459	5e44cd061aedc43572ba58b3	98098255	1	main_slash	7	main_slash	69	stimuli_distractor_diamondtriangles.svg	stimuli_distractor_trianglediamonds.svg	37	no	0	1	2000
6.6.1	win	2022-12-19	14:48:53	14:53:48	294459	5e44cd061aedc43572ba58b3	98098255	1	main_slash	7	advance_on_keypress_SLASH	70	stimuli_distractor_diamondtriangles.svg	stimuli_distractor_trianglediamonds.svg	37	no	57	0	368
6.6.1	win	2022-12-19	14:48:53	14:53:50	296165	5e44cd061aedc43572ba58b3	98098255	1	main_slash	7	main_slash	71	stimuli_distractor_trianglediamonds.svg	stimuli_target_diamondcircles.svg	27	yes	53	1	730
6.6.1	win	2022-12-19	14:48:53	14:53:50	296165	5e44cd061aedc43572ba58b3	98098255	1	main_slash	7	advance_on_keypress_SLASH	72	stimuli_distractor_trianglediamonds.svg	stimuli_target_diamondcircles.svg	27	yes	57	0	414
6.6.1	win	2022-12-19	14:48:53	14:53:52	297957	5e44cd061aedc43572ba58b3	98098255	1	main_slash	7	main_slash	73	stimuli_target_trianglesquares.svg	stimuli_distractor_diamondtriangles.svg	22	yes	53	1	770
6.6.1	win	2022-12-19	14:48:53	14:53:52	297957	5e44cd061aedc43572ba58b3	98098255	1	main_slash	7	advance_on_keypress_SLASH	74	stimuli_target_trianglesquares.svg	stimuli_distractor_diamondtriangles.svg	22	yes	57	0	366
6.6.1	win	2022-12-19	14:48:53	14:53:54	299733	5e44cd061aedc43572ba58b3	98098255	1	main_slash	7	main_slash	75	stimuli_distractor_diamondtriangles.svg	stimuli_target_circletriangles.svg	13	yes	53	1	802
6.6.1	win	2022-12-19	14:48:53	14:53:54	299733	5e44cd061aedc43572ba58b3	98098255	1	main_slash	7	advance_on_keypress_SLASH	76	stimuli_distractor_diamondtriangles.svg	stimuli_target_circletriangles.svg	13	yes	57	0	294
6.6.1	win	2022-12-19	14:48:53	14:53:55	301469	5e44cd061aedc43572ba58b3	98098255	1	main_slash	7	main_slash	77	stimuli_target_circletriangles.svg	stimuli_distractor_diamondtriangles.svg	5	yes	53	1	834
6.6.1	win	2022-12-19	14:48:53	14:53:55	301469	5e44cd061aedc43572ba58b3	98098255	1	main_slash	7	advance_on_keypress_SLASH	78	stimuli_target_circletriangles.svg	stimuli_distractor_diamondtriangles.svg	5	yes	57	0	358
6.6.1	win	2022-12-19	14:48:53	14:53:57	303213	5e44cd061aedc43572ba58b3	98098255	1	main_slash	7	main_slash	79	stimuli_target_circletriangles.svg	stimuli_distractor_trianglediamonds.svg	1	yes	53	1	778
6.6.1	win	2022-12-19	14:48:53	14:53:57	303213	5e44cd061aedc43572ba58b3	98098255	1	main_slash	7	advance_on_keypress_SLASH	80	stimuli_target_circletriangles.svg	stimuli_distractor_trianglediamonds.svg	1	yes	57	0	358
6.6.1	win	2022-12-19	14:48:53	14:53:59	304965	5e44cd061aedc43572ba58b3	98098255	1	main_slash	7	main_slash	81	stimuli_target_trianglecircles.svg	stimuli_distractor_diamondtriangles.svg	21	yes	53	1	784
6.6.1	win	2022-12-19	14:48:53	14:53:59	304965	5e44cd061aedc43572ba58b3	98098255	1	main_slash	7	advance_on_keypress_SLASH	82	stimuli_target_trianglecircles.svg	stimuli_distractor_diamondtriangles.svg	21	yes	57	0	278
6.6.1	win	2022-12-19	14:48:53	14:54:02	307851	5e44cd061aedc43572ba58b3	98098255	1	main_slash	7	main_slash	83	stimuli_distractor_trianglediamonds.svg	stimuli_distractor_trianglediamonds.svg	34	no	0	1	2000
6.6.1	win	2022-12-19	14:48:53	14:54:02	307851	5e44cd061aedc43572ba58b3	98098255	1	main_slash	7	advance_on_keypress_SLASH	84	stimuli_distractor_trianglediamonds.svg	stimuli_distractor_trianglediamonds.svg	34	no	57	0	344
6.6.1	win	2022-12-19	14:48:53	14:54:05	310803	5e44cd061aedc43572ba58b3	98098255	1	main_slash	7	main_slash	85	stimuli_distractor_diamondtriangles.svg	stimuli_distractor_diamondtriangles.svg	40	no	0	1	2000
6.6.1	win	2022-12-19	14:48:53	14:54:05	310803	5e44cd061aedc43572ba58b3	98098255	1	main_slash	7	advance_on_keypress_SLASH	86	stimuli_distractor_diamondtriangles.svg	stimuli_distractor_diamondtriangles.svg	40	no	57	0	360
6.6.1	win	2022-12-19	14:48:53	14:54:06	312565	5e44cd061aedc43572ba58b3	98098255	1	main_slash	7	main_slash	87	stimuli_target_diamondcircles.svg	stimuli_distractor_trianglediamonds.svg	19	yes	53	1	794
6.6.1	win	2022-12-19	14:48:53	14:54:06	312565	5e44cd061aedc43572ba58b3	98098255	1	main_slash	7	advance_on_keypress_SLASH	88	stimuli_target_diamondcircles.svg	stimuli_distractor_trianglediamonds.svg	19	yes	57	0	374
6.6.1	win	2022-12-19	14:48:53	14:54:08	314349	5e44cd061aedc43572ba58b3	98098255	1	main_slash	7	main_slash	89	stimuli_distractor_trianglediamonds.svg	stimuli_target_circletriangles.svg	9	yes	53	1	802
6.6.1	win	2022-12-19	14:48:53	14:54:08	314349	5e44cd061aedc43572ba58b3	98098255	1	main_slash	7	advance_on_keypress_SLASH	90	stimuli_distractor_trianglediamonds.svg	stimuli_target_circletriangles.svg	9	yes	57	0	422
6.6.1	win	2022-12-19	14:48:53	14:54:11	317379	5e44cd061aedc43572ba58b3	98098255	1	main_slash	7	main_slash	91	stimuli_distractor_trianglediamonds.svg	stimuli_distractor_trianglediamonds.svg	33	no	0	1	2000
6.6.1	win	2022-12-19	14:48:53	14:54:11	317379	5e44cd061aedc43572ba58b3	98098255	1	main_slash	7	advance_on_keypress_SLASH	92	stimuli_distractor_trianglediamonds.svg	stimuli_distractor_trianglediamonds.svg	33	no	57	0	472
6.6.1	win	2022-12-19	14:48:53	14:54:13	319053	5e44cd061aedc43572ba58b3	98098255	1	main_slash	7	main_slash	93	stimuli_target_circletriangles.svg	stimuli_distractor_trianglediamonds.svg	1	yes	53	1	594
6.6.1	win	2022-12-19	14:48:53	14:54:13	319053	5e44cd061aedc43572ba58b3	98098255	1	main_slash	7	advance_on_keypress_SLASH	94	stimuli_target_circletriangles.svg	stimuli_distractor_trianglediamonds.svg	1	yes	57	0	750
6.6.1	win	2022-12-19	14:48:53	14:54:16	322411	5e44cd061aedc43572ba58b3	98098255	1	main_slash	7	main_slash	95	stimuli_distractor_diamondtriangles.svg	stimuli_distractor_trianglediamonds.svg	37	no	0	1	2000
6.6.1	win	2022-12-19	14:48:53	14:54:16	322411	5e44cd061aedc43572ba58b3	98098255	1	main_slash	7	advance_on_keypress_SLASH	96	stimuli_distractor_diamondtriangles.svg	stimuli_distractor_trianglediamonds.svg	37	no	57	0	376
6.6.1	win	2022-12-19	14:48:53	14:54:18	324133	5e44cd061aedc43572ba58b3	98098255	1	main_slash	7	main_slash	97	stimuli_target_trianglecircles.svg	stimuli_distractor_trianglediamonds.svg	17	yes	53	1	738
6.6.1	win	2022-12-19	14:48:53	14:54:18	324133	5e44cd061aedc43572ba58b3	98098255	1	main_slash	7	advance_on_keypress_SLASH	98	stimuli_target_trianglecircles.svg	stimuli_distractor_trianglediamonds.svg	17	yes	57	0	398
6.6.1	win	2022-12-19	14:48:53	14:54:20	325933	5e44cd061aedc43572ba58b3	98098255	1	main_slash	7	main_slash	99	stimuli_distractor_diamondtriangles.svg	stimuli_target_circletriangles.svg	13	yes	53	1	760
6.6.1	win	2022-12-19	14:48:53	14:54:20	325933	5e44cd061aedc43572ba58b3	98098255	1	main_slash	7	advance_on_keypress_SLASH	100	stimuli_distractor_diamondtriangles.svg	stimuli_target_circletriangles.svg	13	yes	57	0	342
6.6.1	win	2022-12-19	14:48:53	14:54:22	327781	5e44cd061aedc43572ba58b3	98098255	1	main_slash	7	main_slash	101	stimuli_distractor_trianglediamonds.svg	stimuli_target_trianglesquares.svg	26	yes	53	1	898
6.6.1	win	2022-12-19	14:48:53	14:54:22	327781	5e44cd061aedc43572ba58b3	98098255	1	main_slash	7	advance_on_keypress_SLASH	102	stimuli_distractor_trianglediamonds.svg	stimuli_target_trianglesquares.svg	26	yes	57	0	446
6.6.1	win	2022-12-19	14:48:53	14:54:23	329573	5e44cd061aedc43572ba58b3	98098255	1	main_slash	7	main_slash	103	stimuli_distractor_diamondtriangles.svg	stimuli_target_trianglesquares.svg	30	yes	53	1	738
6.6.1	win	2022-12-19	14:48:53	14:54:23	329573	5e44cd061aedc43572ba58b3	98098255	1	main_slash	7	advance_on_keypress_SLASH	104	stimuli_distractor_diamondtriangles.svg	stimuli_target_trianglesquares.svg	30	yes	57	0	270
6.6.1	win	2022-12-19	14:48:53	14:54:26	332451	5e44cd061aedc43572ba58b3	98098255	1	main_slash	7	main_slash	105	stimuli_distractor_diamondtriangles.svg	stimuli_distractor_diamondtriangles.svg	39	no	0	1	2000
6.6.1	win	2022-12-19	14:48:53	14:54:26	332451	5e44cd061aedc43572ba58b3	98098255	1	main_slash	7	advance_on_keypress_SLASH	106	stimuli_distractor_diamondtriangles.svg	stimuli_distractor_diamondtriangles.svg	39	no	57	0	456
6.6.1	win	2022-12-19	14:48:53	14:54:28	334085	5e44cd061aedc43572ba58b3	98098255	1	main_slash	7	main_slash	107	stimuli_distractor_trianglediamonds.svg	stimuli_target_trianglecircles.svg	25	yes	53	1	570
6.6.1	win	2022-12-19	14:48:53	14:54:28	334085	5e44cd061aedc43572ba58b3	98098255	1	main_slash	7	advance_on_keypress_SLASH	108	stimuli_distractor_trianglediamonds.svg	stimuli_target_trianglecircles.svg	25	yes	57	0	398
6.6.1	win	2022-12-19	14:48:53	14:54:30	335797	5e44cd061aedc43572ba58b3	98098255	1	main_slash	7	main_slash	109	stimuli_target_trianglesquares.svg	stimuli_distractor_trianglediamonds.svg	18	yes	53	1	706
6.6.1	win	2022-12-19	14:48:53	14:54:30	335797	5e44cd061aedc43572ba58b3	98098255	1	main_slash	7	advance_on_keypress_SLASH	110	stimuli_target_trianglesquares.svg	stimuli_distractor_trianglediamonds.svg	18	yes	57	0	263
6.6.1	win	2022-12-19	14:48:53	14:54:31	337357	5e44cd061aedc43572ba58b3	98098255	1	main_slash	7	main_slash	111	stimuli_target_diamondcircles.svg	stimuli_distractor_diamondtriangles.svg	23	yes	53	1	690
6.6.1	win	2022-12-19	14:48:53	14:54:31	337357	5e44cd061aedc43572ba58b3	98098255	1	main_slash	7	advance_on_keypress_SLASH	112	stimuli_target_diamondcircles.svg	stimuli_distractor_diamondtriangles.svg	23	yes	57	0	302
6.6.1	win	2022-12-19	14:48:53	14:54:33	338957	5e44cd061aedc43572ba58b3	98098255	1	main_slash	7	main_slash	113	stimuli_distractor_trianglediamonds.svg	stimuli_target_squaretriangles.svg	11	yes	53	1	690
6.6.1	win	2022-12-19	14:48:53	14:54:33	338957	5e44cd061aedc43572ba58b3	98098255	1	main_slash	7	advance_on_keypress_SLASH	114	stimuli_distractor_trianglediamonds.svg	stimuli_target_squaretriangles.svg	11	yes	57	0	294
6.6.1	win	2022-12-19	14:48:53	14:54:34	340493	5e44cd061aedc43572ba58b3	98098255	1	main_slash	7	main_slash	115	stimuli_target_trianglesquares.svg	stimuli_distractor_diamondtriangles.svg	22	yes	53	1	634
6.6.1	win	2022-12-19	14:48:53	14:54:34	340493	5e44cd061aedc43572ba58b3	98098255	1	main_slash	7	advance_on_keypress_SLASH	116	stimuli_target_trianglesquares.svg	stimuli_distractor_diamondtriangles.svg	22	yes	57	0	334
6.6.1	win	2022-12-19	14:48:53	14:54:36	342173	5e44cd061aedc43572ba58b3	98098255	1	main_slash	7	main_slash	117	stimuli_target_circletriangles.svg	stimuli_distractor_diamondtriangles.svg	5	yes	53	1	738
6.6.1	win	2022-12-19	14:48:53	14:54:36	342173	5e44cd061aedc43572ba58b3	98098255	1	main_slash	7	advance_on_keypress_SLASH	118	stimuli_target_circletriangles.svg	stimuli_distractor_diamondtriangles.svg	5	yes	57	0	246
6.6.1	win	2022-12-19	14:48:53	14:54:38	343717	5e44cd061aedc43572ba58b3	98098255	1	main_slash	7	main_slash	119	stimuli_target_diamondsquares.svg	stimuli_distractor_diamondtriangles.svg	24	yes	53	1	690
6.6.1	win	2022-12-19	14:48:53	14:54:38	343717	5e44cd061aedc43572ba58b3	98098255	1	main_slash	7	advance_on_keypress_SLASH	120	stimuli_target_diamondsquares.svg	stimuli_distractor_diamondtriangles.svg	24	yes	57	0	238
6.6.1	win	2022-12-19	14:48:53	14:54:39	345221	5e44cd061aedc43572ba58b3	98098255	1	main_slash	7	main_slash	121	stimuli_distractor_trianglediamonds.svg	stimuli_target_squarediamonds.svg	12	yes	53	1	658
6.6.1	win	2022-12-19	14:48:53	14:54:39	345221	5e44cd061aedc43572ba58b3	98098255	1	main_slash	7	advance_on_keypress_SLASH	122	stimuli_distractor_trianglediamonds.svg	stimuli_target_squarediamonds.svg	12	yes	57	0	254
6.6.1	win	2022-12-19	14:48:53	14:54:41	346909	5e44cd061aedc43572ba58b3	98098255	1	main_slash	7	main_slash	123	stimuli_distractor_diamondtriangles.svg	stimuli_target_diamondsquares.svg	32	yes	53	1	826
6.6.1	win	2022-12-19	14:48:53	14:54:41	346909	5e44cd061aedc43572ba58b3	98098255	1	main_slash	7	advance_on_keypress_SLASH	124	stimuli_distractor_diamondtriangles.svg	stimuli_target_diamondsquares.svg	32	yes	57	0	350
6.6.1	win	2022-12-19	14:48:53	14:54:42	348517	5e44cd061aedc43572ba58b3	98098255	1	main_slash	7	main_slash	125	stimuli_distractor_diamondtriangles.svg	stimuli_target_diamondcircles.svg	31	yes	53	1	650
6.6.1	win	2022-12-19	14:48:53	14:54:42	348517	5e44cd061aedc43572ba58b3	98098255	1	main_slash	7	advance_on_keypress_SLASH	126	stimuli_distractor_diamondtriangles.svg	stimuli_target_diamondcircles.svg	31	yes	57	0	271
6.6.1	win	2022-12-19	14:48:53	14:54:44	350013	5e44cd061aedc43572ba58b3	98098255	1	main_slash	7	main_slash	127	stimuli_distractor_diamondtriangles.svg	stimuli_target_trianglecircles.svg	29	yes	53	1	618
6.6.1	win	2022-12-19	14:48:53	14:54:44	350013	5e44cd061aedc43572ba58b3	98098255	1	main_slash	7	advance_on_keypress_SLASH	128	stimuli_distractor_diamondtriangles.svg	stimuli_target_trianglecircles.svg	29	yes	57	0	299
6.6.1	win	2022-12-19	14:48:53	14:54:47	352956	5e44cd061aedc43572ba58b3	98098255	1	main_slash	7	main_slash	129	stimuli_distractor_diamondtriangles.svg	stimuli_distractor_trianglediamonds.svg	38	no	0	1	2000
6.6.1	win	2022-12-19	14:48:53	14:54:47	352956	5e44cd061aedc43572ba58b3	98098255	1	main_slash	7	advance_on_keypress_SLASH	130	stimuli_distractor_diamondtriangles.svg	stimuli_distractor_trianglediamonds.svg	38	no	57	0	488
6.6.1	win	2022-12-19	14:48:53	14:54:49	354661	5e44cd061aedc43572ba58b3	98098255	1	main_slash	7	main_slash	131	stimuli_target_circlediamonds.svg	stimuli_distractor_diamondtriangles.svg	6	yes	53	1	578
6.6.1	win	2022-12-19	14:48:53	14:54:49	354661	5e44cd061aedc43572ba58b3	98098255	1	main_slash	7	advance_on_keypress_SLASH	132	stimuli_target_circlediamonds.svg	stimuli_distractor_diamondtriangles.svg	6	yes	57	0	278
6.6.1	win	2022-12-19	14:48:53	14:54:51	357547	5e44cd061aedc43572ba58b3	98098255	1	main_slash	7	main_slash	133	stimuli_distractor_trianglediamonds.svg	stimuli_distractor_diamondtriangles.svg	36	no	0	1	2000
6.6.1	win	2022-12-19	14:48:53	14:54:51	357547	5e44cd061aedc43572ba58b3	98098255	1	main_slash	7	advance_on_keypress_SLASH	134	stimuli_distractor_trianglediamonds.svg	stimuli_distractor_diamondtriangles.svg	36	no	57	0	336
6.6.1	win	2022-12-19	14:48:53	14:54:54	360491	5e44cd061aedc43572ba58b3	98098255	1	main_slash	7	main_slash	135	stimuli_distractor_trianglediamonds.svg	stimuli_distractor_diamondtriangles.svg	35	no	0	1	2000
6.6.1	win	2022-12-19	14:48:53	14:54:54	360491	5e44cd061aedc43572ba58b3	98098255	1	main_slash	7	advance_on_keypress_SLASH	136	stimuli_distractor_trianglediamonds.svg	stimuli_distractor_diamondtriangles.svg	35	no	57	0	280
6.6.1	win	2022-12-19	14:48:53	14:54:56	362109	5e44cd061aedc43572ba58b3	98098255	1	main_slash	7	main_slash	137	stimuli_distractor_trianglediamonds.svg	stimuli_target_circlediamonds.svg	10	yes	53	1	730
6.6.1	win	2022-12-19	14:48:53	14:54:56	362109	5e44cd061aedc43572ba58b3	98098255	1	main_slash	7	advance_on_keypress_SLASH	138	stimuli_distractor_trianglediamonds.svg	stimuli_target_circlediamonds.svg	10	yes	57	0	294
6.6.1	win	2022-12-19	14:48:53	14:54:58	363749	5e44cd061aedc43572ba58b3	98098255	1	main_slash	7	main_slash	139	stimuli_distractor_trianglediamonds.svg	stimuli_target_diamondsquares.svg	28	yes	53	1	738
6.6.1	win	2022-12-19	14:48:53	14:54:58	363749	5e44cd061aedc43572ba58b3	98098255	1	main_slash	7	advance_on_keypress_SLASH	140	stimuli_distractor_trianglediamonds.svg	stimuli_target_diamondsquares.svg	28	yes	57	0	350
6.6.1	win	2022-12-19	14:48:53	14:55:00	365677	5e44cd061aedc43572ba58b3	98098255	1	main_slash	7	main_slash	141	stimuli_target_squaretriangles.svg	stimuli_distractor_diamondtriangles.svg	7	yes	53	1	970
6.6.1	win	2022-12-19	14:48:53	14:55:00	365677	5e44cd061aedc43572ba58b3	98098255	1	main_slash	7	advance_on_keypress_SLASH	142	stimuli_target_squaretriangles.svg	stimuli_distractor_diamondtriangles.svg	7	yes	57	0	414
6.6.1	win	2022-12-19	14:48:53	14:55:01	367293	5e44cd061aedc43572ba58b3	98098255	1	main_slash	7	main_slash	143	stimuli_distractor_diamondtriangles.svg	stimuli_target_squaretriangles.svg	15	yes	53	1	594
6.6.1	win	2022-12-19	14:48:53	14:55:01	367293	5e44cd061aedc43572ba58b3	98098255	1	main_slash	7	advance_on_keypress_SLASH	144	stimuli_distractor_diamondtriangles.svg	stimuli_target_squaretriangles.svg	15	yes	57	0	254
6.6.1	win	2022-12-19	14:48:53	14:55:03	368749	5e44cd061aedc43572ba58b3	98098255	1	main_slash	7	main_slash	145	stimuli_distractor_trianglediamonds.svg	stimuli_target_diamondcircles.svg	27	yes	53	1	593
6.6.1	win	2022-12-19	14:48:53	14:55:03	368749	5e44cd061aedc43572ba58b3	98098255	1	main_slash	7	advance_on_keypress_SLASH	146	stimuli_distractor_trianglediamonds.svg	stimuli_target_diamondcircles.svg	27	yes	57	0	254
6.6.1	win	2022-12-19	14:48:53	14:55:05	370725	5e44cd061aedc43572ba58b3	98098255	1	main_slash	7	main_slash	147	stimuli_target_squaretriangles.svg	stimuli_distractor_trianglediamonds.svg	3	yes	53	1	1114
6.6.1	win	2022-12-19	14:48:53	14:55:05	370725	5e44cd061aedc43572ba58b3	98098255	1	main_slash	7	advance_on_keypress_SLASH	148	stimuli_target_squaretriangles.svg	stimuli_distractor_trianglediamonds.svg	3	yes	57	0	302
6.6.1	win	2022-12-19	14:48:53	14:55:06	372269	5e44cd061aedc43572ba58b3	98098255	1	main_slash	7	main_slash	149	stimuli_target_squarediamonds.svg	stimuli_distractor_trianglediamonds.svg	4	yes	53	1	634
6.6.1	win	2022-12-19	14:48:53	14:55:06	372269	5e44cd061aedc43572ba58b3	98098255	1	main_slash	7	advance_on_keypress_SLASH	150	stimuli_target_squarediamonds.svg	stimuli_distractor_trianglediamonds.svg	4	yes	57	0	214
6.6.1	win	2022-12-19	14:48:53	14:55:08	373733	5e44cd061aedc43572ba58b3	98098255	1	main_slash	7	main_slash	151	stimuli_target_diamondsquares.svg	stimuli_distractor_trianglediamonds.svg	20	yes	53	1	642
6.6.1	win	2022-12-19	14:48:53	14:55:08	373733	5e44cd061aedc43572ba58b3	98098255	1	main_slash	7	advance_on_keypress_SLASH	152	stimuli_target_diamondsquares.svg	stimuli_distractor_trianglediamonds.svg	20	yes	57	0	270
6.6.1	win	2022-12-19	14:48:53	14:55:09	375261	5e44cd061aedc43572ba58b3	98098255	1	main_slash	7	main_slash	153	stimuli_target_squarediamonds.svg	stimuli_distractor_diamondtriangles.svg	8	yes	53	1	625
6.6.1	win	2022-12-19	14:48:53	14:55:09	375261	5e44cd061aedc43572ba58b3	98098255	1	main_slash	7	advance_on_keypress_SLASH	154	stimuli_target_squarediamonds.svg	stimuli_distractor_diamondtriangles.svg	8	yes	57	0	254
6.6.1	win	2022-12-19	14:48:53	14:55:11	376806	5e44cd061aedc43572ba58b3	98098255	1	main_slash	7	main_slash	155	stimuli_distractor_diamondtriangles.svg	stimuli_target_squarediamonds.svg	16	yes	53	1	682
6.6.1	win	2022-12-19	14:48:53	14:55:11	376806	5e44cd061aedc43572ba58b3	98098255	1	main_slash	7	advance_on_keypress_SLASH	156	stimuli_distractor_diamondtriangles.svg	stimuli_target_squarediamonds.svg	16	yes	57	0	310
6.6.1	win	2022-12-19	14:48:53	14:55:12	378325	5e44cd061aedc43572ba58b3	98098255	1	main_slash	7	main_slash	157	stimuli_target_circlediamonds.svg	stimuli_distractor_trianglediamonds.svg	2	yes	53	1	573
6.6.1	win	2022-12-19	14:48:53	14:55:12	378325	5e44cd061aedc43572ba58b3	98098255	1	main_slash	7	advance_on_keypress_SLASH	158	stimuli_target_circlediamonds.svg	stimuli_distractor_trianglediamonds.svg	2	yes	57	0	294
6.6.1	win	2022-12-19	14:48:53	14:55:14	379661	5e44cd061aedc43572ba58b3	98098255	1	main_slash	7	main_slash	159	stimuli_distractor_diamondtriangles.svg	stimuli_target_circlediamonds.svg	14	yes	53	1	434
6.6.1	win	2022-12-19	14:48:53	14:55:14	379661	5e44cd061aedc43572ba58b3	98098255	1	main_slash	7	advance_on_keypress_SLASH	160	stimuli_distractor_diamondtriangles.svg	stimuli_target_circlediamonds.svg	14	yes	57	0	855
6.6.1	win	2022-12-19	14:48:53	14:55:41	407142	5e44cd061aedc43572ba58b3	98098255	1	practice_z	9	practice_z	1	stimuli_distractor_diamondtriangles.svg	stimuli_distractor_trianglediamonds.svg	14	no	44	0	571
6.6.1	win	2022-12-19	14:48:53	14:55:41	407142	5e44cd061aedc43572ba58b3	98098255	1	practice_z	9	advance_on_keypress_ZEE	2	stimuli_distractor_diamondtriangles.svg	stimuli_distractor_trianglediamonds.svg	14	no	57	0	1123
6.6.1	win	2022-12-19	14:48:53	14:55:44	410333	5e44cd061aedc43572ba58b3	98098255	1	practice_z	9	practice_z	3	stimuli_target_diamondsquares.svg	stimuli_distractor_diamondtriangles.svg	3	yes	44	1	402
6.6.1	win	2022-12-19	14:48:53	14:55:44	410333	5e44cd061aedc43572ba58b3	98098255	1	practice_z	9	advance_on_keypress_ZEE	4	stimuli_target_diamondsquares.svg	stimuli_distractor_diamondtriangles.svg	3	yes	57	0	398
6.6.1	win	2022-12-19	14:48:53	14:55:47	412734	5e44cd061aedc43572ba58b3	98098255	1	practice_z	9	practice_z	5	stimuli_target_squarediamonds.svg	stimuli_distractor_trianglediamonds.svg	5	yes	44	1	360
6.6.1	win	2022-12-19	14:48:53	14:55:47	412734	5e44cd061aedc43572ba58b3	98098255	1	practice_z	9	advance_on_keypress_ZEE	6	stimuli_target_squarediamonds.svg	stimuli_distractor_trianglediamonds.svg	5	yes	57	0	254
6.6.1	win	2022-12-19	14:48:53	14:55:49	415069	5e44cd061aedc43572ba58b3	98098255	1	practice_z	9	practice_z	7	stimuli_distractor_diamondtriangles.svg	stimuli_target_circletriangles.svg	7	yes	44	1	471
6.6.1	win	2022-12-19	14:48:53	14:55:49	415069	5e44cd061aedc43572ba58b3	98098255	1	practice_z	9	advance_on_keypress_ZEE	8	stimuli_distractor_diamondtriangles.svg	stimuli_target_circletriangles.svg	7	yes	57	0	231
6.6.1	win	2022-12-19	14:48:53	14:55:51	417397	5e44cd061aedc43572ba58b3	98098255	1	practice_z	9	practice_z	9	stimuli_distractor_diamondtriangles.svg	stimuli_target_diamondcircles.svg	8	yes	44	1	451
6.6.1	win	2022-12-19	14:48:53	14:55:51	417397	5e44cd061aedc43572ba58b3	98098255	1	practice_z	9	advance_on_keypress_ZEE	10	stimuli_distractor_diamondtriangles.svg	stimuli_target_diamondcircles.svg	8	yes	57	0	263
6.6.1	win	2022-12-19	14:48:53	14:55:53	419630	5e44cd061aedc43572ba58b3	98098255	1	practice_z	9	practice_z	11	stimuli_target_circlediamonds.svg	stimuli_distractor_diamondtriangles.svg	1	yes	44	1	334
6.6.1	win	2022-12-19	14:48:53	14:55:53	419630	5e44cd061aedc43572ba58b3	98098255	1	practice_z	9	advance_on_keypress_ZEE	12	stimuli_target_circlediamonds.svg	stimuli_distractor_diamondtriangles.svg	1	yes	57	0	302
6.6.1	win	2022-12-19	14:48:53	14:55:56	421933	5e44cd061aedc43572ba58b3	98098255	1	practice_z	9	practice_z	13	stimuli_distractor_trianglediamonds.svg	stimuli_target_circlediamonds.svg	10	yes	44	1	360
6.6.1	win	2022-12-19	14:48:53	14:55:56	421933	5e44cd061aedc43572ba58b3	98098255	1	practice_z	9	advance_on_keypress_ZEE	14	stimuli_distractor_trianglediamonds.svg	stimuli_target_circlediamonds.svg	10	yes	57	0	222
6.6.1	win	2022-12-19	14:48:53	14:56:00	425791	5e44cd061aedc43572ba58b3	98098255	1	practice_z	9	practice_z	15	stimuli_distractor_diamondtriangles.svg	stimuli_distractor_diamondtriangles.svg	13	no	0	1	2000
6.6.1	win	2022-12-19	14:48:53	14:56:00	425791	5e44cd061aedc43572ba58b3	98098255	1	practice_z	9	advance_on_keypress_ZEE	16	stimuli_distractor_diamondtriangles.svg	stimuli_distractor_diamondtriangles.svg	13	no	57	0	253
6.6.1	win	2022-12-19	14:48:53	14:56:04	429681	5e44cd061aedc43572ba58b3	98098255	1	practice_z	9	practice_z	17	stimuli_distractor_trianglediamonds.svg	stimuli_distractor_trianglediamonds.svg	15	no	0	1	2000
6.6.1	win	2022-12-19	14:48:53	14:56:04	429681	5e44cd061aedc43572ba58b3	98098255	1	practice_z	9	advance_on_keypress_ZEE	18	stimuli_distractor_trianglediamonds.svg	stimuli_distractor_trianglediamonds.svg	15	no	57	0	243
6.6.1	win	2022-12-19	14:48:53	14:56:06	431990	5e44cd061aedc43572ba58b3	98098255	1	practice_z	9	practice_z	19	stimuli_target_squarediamonds.svg	stimuli_distractor_diamondtriangles.svg	2	yes	44	1	423
6.6.1	win	2022-12-19	14:48:53	14:56:06	431990	5e44cd061aedc43572ba58b3	98098255	1	practice_z	9	advance_on_keypress_ZEE	20	stimuli_target_squarediamonds.svg	stimuli_distractor_diamondtriangles.svg	2	yes	57	0	238
6.6.1	win	2022-12-19	14:48:53	14:56:08	434557	5e44cd061aedc43572ba58b3	98098255	1	practice_z	9	practice_z	21	stimuli_distractor_trianglediamonds.svg	stimuli_target_diamondcircles.svg	12	yes	44	1	696
6.6.1	win	2022-12-19	14:48:53	14:56:08	434557	5e44cd061aedc43572ba58b3	98098255	1	practice_z	9	advance_on_keypress_ZEE	22	stimuli_distractor_trianglediamonds.svg	stimuli_target_diamondcircles.svg	12	yes	57	0	223
6.6.1	win	2022-12-19	14:48:53	14:56:11	436886	5e44cd061aedc43572ba58b3	98098255	1	practice_z	9	practice_z	23	stimuli_distractor_trianglediamonds.svg	stimuli_target_squarediamonds.svg	11	yes	44	1	462
6.6.1	win	2022-12-19	14:48:53	14:56:11	436886	5e44cd061aedc43572ba58b3	98098255	1	practice_z	9	advance_on_keypress_ZEE	24	stimuli_distractor_trianglediamonds.svg	stimuli_target_squarediamonds.svg	11	yes	57	0	194
6.6.1	win	2022-12-19	14:48:53	14:56:15	440749	5e44cd061aedc43572ba58b3	98098255	1	practice_z	9	practice_z	25	stimuli_distractor_trianglediamonds.svg	stimuli_distractor_diamondtriangles.svg	16	no	0	1	2000
6.6.1	win	2022-12-19	14:48:53	14:56:15	440749	5e44cd061aedc43572ba58b3	98098255	1	practice_z	9	advance_on_keypress_ZEE	26	stimuli_distractor_trianglediamonds.svg	stimuli_distractor_diamondtriangles.svg	16	no	57	0	358
6.6.1	win	2022-12-19	14:48:53	14:56:17	443165	5e44cd061aedc43572ba58b3	98098255	1	practice_z	9	practice_z	27	stimuli_target_diamondsquares.svg	stimuli_distractor_trianglediamonds.svg	6	yes	44	1	422
6.6.1	win	2022-12-19	14:48:53	14:56:17	443165	5e44cd061aedc43572ba58b3	98098255	1	practice_z	9	advance_on_keypress_ZEE	28	stimuli_target_diamondsquares.svg	stimuli_distractor_trianglediamonds.svg	6	yes	57	0	191
6.6.1	win	2022-12-19	14:48:53	14:56:19	445382	5e44cd061aedc43572ba58b3	98098255	1	practice_z	9	practice_z	29	stimuli_distractor_diamondtriangles.svg	stimuli_target_trianglecircles.svg	9	yes	44	1	361
6.6.1	win	2022-12-19	14:48:53	14:56:19	445382	5e44cd061aedc43572ba58b3	98098255	1	practice_z	9	advance_on_keypress_ZEE	30	stimuli_distractor_diamondtriangles.svg	stimuli_target_trianglecircles.svg	9	yes	57	0	213
6.6.1	win	2022-12-19	14:48:53	14:56:22	447782	5e44cd061aedc43572ba58b3	98098255	1	practice_z	9	practice_z	31	stimuli_target_circlediamonds.svg	stimuli_distractor_trianglediamonds.svg	4	yes	44	1	512
6.6.1	win	2022-12-19	14:48:53	14:56:22	447782	5e44cd061aedc43572ba58b3	98098255	1	practice_z	9	advance_on_keypress_ZEE	32	stimuli_target_circlediamonds.svg	stimuli_distractor_trianglediamonds.svg	4	yes	57	0	134
6.6.1	win	2022-12-19	14:48:53	14:56:27	453245	5e44cd061aedc43572ba58b3	98098255	1	main_z	11	main_z	1	stimuli_target_circletriangles.svg	stimuli_distractor_diamondtriangles.svg	5	yes	44	1	519
6.6.1	win	2022-12-19	14:48:53	14:56:27	453245	5e44cd061aedc43572ba58b3	98098255	1	main_z	11	advance_on_keypress_ZEE	2	stimuli_target_circletriangles.svg	stimuli_distractor_diamondtriangles.svg	5	yes	57	0	547
6.6.1	win	2022-12-19	14:48:53	14:56:29	454845	5e44cd061aedc43572ba58b3	98098255	1	main_z	11	main_z	3	stimuli_target_diamondsquares.svg	stimuli_distractor_trianglediamonds.svg	20	yes	44	1	386
6.6.1	win	2022-12-19	14:48:53	14:56:29	454845	5e44cd061aedc43572ba58b3	98098255	1	main_z	11	advance_on_keypress_ZEE	4	stimuli_target_diamondsquares.svg	stimuli_distractor_trianglediamonds.svg	20	yes	57	0	470
6.6.1	win	2022-12-19	14:48:53	14:56:30	456357	5e44cd061aedc43572ba58b3	98098255	1	main_z	11	main_z	5	stimuli_distractor_diamondtriangles.svg	stimuli_target_trianglecircles.svg	29	yes	44	1	431
6.6.1	win	2022-12-19	14:48:53	14:56:30	456357	5e44cd061aedc43572ba58b3	98098255	1	main_z	11	advance_on_keypress_ZEE	6	stimuli_distractor_diamondtriangles.svg	stimuli_target_trianglecircles.svg	29	yes	57	0	326
6.6.1	win	2022-12-19	14:48:53	14:56:32	458421	5e44cd061aedc43572ba58b3	98098255	1	main_z	11	main_z	7	stimuli_distractor_trianglediamonds.svg	stimuli_target_squarediamonds.svg	12	yes	44	1	1130
6.6.1	win	2022-12-19	14:48:53	14:56:32	458421	5e44cd061aedc43572ba58b3	98098255	1	main_z	11	advance_on_keypress_ZEE	8	stimuli_distractor_trianglediamonds.svg	stimuli_target_squarediamonds.svg	12	yes	57	0	502
6.6.1	win	2022-12-19	14:48:53	14:56:34	460085	5e44cd061aedc43572ba58b3	98098255	1	main_z	11	main_z	9	stimuli_target_diamondcircles.svg	stimuli_distractor_diamondtriangles.svg	23	yes	44	1	554
6.6.1	win	2022-12-19	14:48:53	14:56:34	460085	5e44cd061aedc43572ba58b3	98098255	1	main_z	11	advance_on_keypress_ZEE	10	stimuli_target_diamondcircles.svg	stimuli_distractor_diamondtriangles.svg	23	yes	57	0	342
6.6.1	win	2022-12-19	14:48:53	14:56:36	461741	5e44cd061aedc43572ba58b3	98098255	1	main_z	11	main_z	11	stimuli_target_circlediamonds.svg	stimuli_distractor_diamondtriangles.svg	6	yes	44	1	706
6.6.1	win	2022-12-19	14:48:53	14:56:36	461741	5e44cd061aedc43572ba58b3	98098255	1	main_z	11	advance_on_keypress_ZEE	12	stimuli_target_circlediamonds.svg	stimuli_distractor_diamondtriangles.svg	6	yes	57	0	334
6.6.1	win	2022-12-19	14:48:53	14:56:37	463317	5e44cd061aedc43572ba58b3	98098255	1	main_z	11	main_z	13	stimuli_distractor_trianglediamonds.svg	stimuli_target_circlediamonds.svg	10	yes	44	1	594
6.6.1	win	2022-12-19	14:48:53	14:56:37	463317	5e44cd061aedc43572ba58b3	98098255	1	main_z	11	advance_on_keypress_ZEE	14	stimuli_distractor_trianglediamonds.svg	stimuli_target_circlediamonds.svg	10	yes	57	0	302
6.6.1	win	2022-12-19	14:48:53	14:56:40	466227	5e44cd061aedc43572ba58b3	98098255	1	main_z	11	main_z	15	stimuli_distractor_diamondtriangles.svg	stimuli_distractor_diamondtriangles.svg	40	no	0	1	2000
6.6.1	win	2022-12-19	14:48:53	14:56:40	466227	5e44cd061aedc43572ba58b3	98098255	1	main_z	11	advance_on_keypress_ZEE	16	stimuli_distractor_diamondtriangles.svg	stimuli_distractor_diamondtriangles.svg	40	no	57	0	336
6.6.1	win	2022-12-19	14:48:53	14:56:41	467581	5e44cd061aedc43572ba58b3	98098255	1	main_z	11	main_z	17	stimuli_distractor_diamondtriangles.svg	stimuli_target_trianglesquares.svg	30	yes	44	1	410
6.6.1	win	2022-12-19	14:48:53	14:56:41	467581	5e44cd061aedc43572ba58b3	98098255	1	main_z	11	advance_on_keypress_ZEE	18	stimuli_distractor_diamondtriangles.svg	stimuli_target_trianglesquares.svg	30	yes	57	0	382
6.6.1	win	2022-12-19	14:48:53	14:56:43	469085	5e44cd061aedc43572ba58b3	98098255	1	main_z	11	main_z	19	stimuli_distractor_trianglediamonds.svg	stimuli_target_circletriangles.svg	9	yes	44	1	514
6.6.1	win	2022-12-19	14:48:53	14:56:43	469085	5e44cd061aedc43572ba58b3	98098255	1	main_z	11	advance_on_keypress_ZEE	20	stimuli_distractor_trianglediamonds.svg	stimuli_target_circletriangles.svg	9	yes	57	0	318
6.6.1	win	2022-12-19	14:48:53	14:56:44	470613	5e44cd061aedc43572ba58b3	98098255	1	main_z	11	main_z	21	stimuli_distractor_trianglediamonds.svg	stimuli_target_trianglecircles.svg	25	yes	44	1	602
6.6.1	win	2022-12-19	14:48:53	14:56:44	470613	5e44cd061aedc43572ba58b3	98098255	1	main_z	11	advance_on_keypress_ZEE	22	stimuli_distractor_trianglediamonds.svg	stimuli_target_trianglecircles.svg	25	yes	57	0	286
6.6.1	win	2022-12-19	14:48:53	14:56:46	472029	5e44cd061aedc43572ba58b3	98098255	1	main_z	11	main_z	23	stimuli_target_squaretriangles.svg	stimuli_distractor_diamondtriangles.svg	7	yes	44	1	491
6.6.1	win	2022-12-19	14:48:53	14:56:46	472029	5e44cd061aedc43572ba58b3	98098255	1	main_z	11	advance_on_keypress_ZEE	24	stimuli_target_squaretriangles.svg	stimuli_distractor_diamondtriangles.svg	7	yes	57	0	326
6.6.1	win	2022-12-19	14:48:53	14:56:49	474964	5e44cd061aedc43572ba58b3	98098255	1	main_z	11	main_z	25	stimuli_distractor_diamondtriangles.svg	stimuli_distractor_trianglediamonds.svg	38	no	0	1	2000
6.6.1	win	2022-12-19	14:48:53	14:56:49	474964	5e44cd061aedc43572ba58b3	98098255	1	main_z	11	advance_on_keypress_ZEE	26	stimuli_distractor_diamondtriangles.svg	stimuli_distractor_trianglediamonds.svg	38	no	57	0	296
6.6.1	win	2022-12-19	14:48:53	14:56:50	476229	5e44cd061aedc43572ba58b3	98098255	1	main_z	11	main_z	27	stimuli_distractor_diamondtriangles.svg	stimuli_target_diamondcircles.svg	31	yes	44	1	362
6.6.1	win	2022-12-19	14:48:53	14:56:50	476229	5e44cd061aedc43572ba58b3	98098255	1	main_z	11	advance_on_keypress_ZEE	28	stimuli_distractor_diamondtriangles.svg	stimuli_target_diamondcircles.svg	31	yes	57	0	406
6.6.1	win	2022-12-19	14:48:53	14:56:51	477581	5e44cd061aedc43572ba58b3	98098255	1	main_z	11	main_z	29	stimuli_target_circlediamonds.svg	stimuli_distractor_trianglediamonds.svg	2	yes	44	1	338
6.6.1	win	2022-12-19	14:48:53	14:56:51	477581	5e44cd061aedc43572ba58b3	98098255	1	main_z	11	advance_on_keypress_ZEE	30	stimuli_target_circlediamonds.svg	stimuli_distractor_trianglediamonds.svg	2	yes	57	0	286
6.6.1	win	2022-12-19	14:48:53	14:56:53	478805	5e44cd061aedc43572ba58b3	98098255	1	main_z	11	main_z	31	stimuli_distractor_diamondtriangles.svg	stimuli_distractor_trianglediamonds.svg	37	no	44	0	330
6.6.1	win	2022-12-19	14:48:53	14:56:53	478805	5e44cd061aedc43572ba58b3	98098255	1	main_z	11	advance_on_keypress_ZEE	32	stimuli_distractor_diamondtriangles.svg	stimuli_distractor_trianglediamonds.svg	37	no	57	0	278
6.6.1	win	2022-12-19	14:48:53	14:56:56	481720	5e44cd061aedc43572ba58b3	98098255	1	main_z	11	main_z	33	stimuli_distractor_trianglediamonds.svg	stimuli_distractor_trianglediamonds.svg	34	no	0	1	2000
6.6.1	win	2022-12-19	14:48:53	14:56:56	481720	5e44cd061aedc43572ba58b3	98098255	1	main_z	11	advance_on_keypress_ZEE	34	stimuli_distractor_trianglediamonds.svg	stimuli_distractor_trianglediamonds.svg	34	no	57	0	340
6.6.1	win	2022-12-19	14:48:53	14:56:57	483117	5e44cd061aedc43572ba58b3	98098255	1	main_z	11	main_z	35	stimuli_distractor_trianglediamonds.svg	stimuli_target_squaretriangles.svg	11	yes	44	1	450
6.6.1	win	2022-12-19	14:48:53	14:56:57	483117	5e44cd061aedc43572ba58b3	98098255	1	main_z	11	advance_on_keypress_ZEE	36	stimuli_distractor_trianglediamonds.svg	stimuli_target_squaretriangles.svg	11	yes	57	0	582
6.6.1	win	2022-12-19	14:48:53	14:57:00	486307	5e44cd061aedc43572ba58b3	98098255	1	main_z	11	main_z	37	stimuli_distractor_trianglediamonds.svg	stimuli_distractor_diamondtriangles.svg	35	no	0	1	2000
6.6.1	win	2022-12-19	14:48:53	14:57:00	486307	5e44cd061aedc43572ba58b3	98098255	1	main_z	11	advance_on_keypress_ZEE	38	stimuli_distractor_trianglediamonds.svg	stimuli_distractor_diamondtriangles.svg	35	no	57	0	296
6.6.1	win	2022-12-19	14:48:53	14:57:02	488333	5e44cd061aedc43572ba58b3	98098255	1	main_z	11	main_z	39	stimuli_distractor_trianglediamonds.svg	stimuli_target_diamondsquares.svg	28	yes	44	1	1122
6.6.1	win	2022-12-19	14:48:53	14:57:02	488333	5e44cd061aedc43572ba58b3	98098255	1	main_z	11	advance_on_keypress_ZEE	40	stimuli_distractor_trianglediamonds.svg	stimuli_target_diamondsquares.svg	28	yes	57	0	438
6.6.1	win	2022-12-19	14:48:53	14:57:04	490077	5e44cd061aedc43572ba58b3	98098255	1	main_z	11	main_z	41	stimuli_distractor_diamondtriangles.svg	stimuli_target_squaretriangles.svg	15	yes	44	1	698
6.6.1	win	2022-12-19	14:48:53	14:57:04	490077	5e44cd061aedc43572ba58b3	98098255	1	main_z	11	advance_on_keypress_ZEE	42	stimuli_distractor_diamondtriangles.svg	stimuli_target_squaretriangles.svg	15	yes	57	0	294
6.6.1	win	2022-12-19	14:48:53	14:57:07	492979	5e44cd061aedc43572ba58b3	98098255	1	main_z	11	main_z	43	stimuli_distractor_trianglediamonds.svg	stimuli_target_diamondcircles.svg	27	yes	0	0	2000
6.6.1	win	2022-12-19	14:48:53	14:57:07	492979	5e44cd061aedc43572ba58b3	98098255	1	main_z	11	advance_on_keypress_ZEE	44	stimuli_distractor_trianglediamonds.svg	stimuli_target_diamondcircles.svg	27	yes	57	0	296
6.6.1	win	2022-12-19	14:48:53	14:57:08	494413	5e44cd061aedc43572ba58b3	98098255	1	main_z	11	main_z	45	stimuli_target_trianglesquares.svg	stimuli_distractor_trianglediamonds.svg	18	yes	44	1	530
6.6.1	win	2022-12-19	14:48:53	14:57:08	494413	5e44cd061aedc43572ba58b3	98098255	1	main_z	11	advance_on_keypress_ZEE	46	stimuli_target_trianglesquares.svg	stimuli_distractor_trianglediamonds.svg	18	yes	57	0	351
6.6.1	win	2022-12-19	14:48:53	14:57:10	495782	5e44cd061aedc43572ba58b3	98098255	1	main_z	11	main_z	47	stimuli_target_diamondcircles.svg	stimuli_distractor_trianglediamonds.svg	19	yes	44	1	410
6.6.1	win	2022-12-19	14:48:53	14:57:10	495782	5e44cd061aedc43572ba58b3	98098255	1	main_z	11	advance_on_keypress_ZEE	48	stimuli_target_diamondcircles.svg	stimuli_distractor_trianglediamonds.svg	19	yes	57	0	358
6.6.1	win	2022-12-19	14:48:53	14:57:13	498747	5e44cd061aedc43572ba58b3	98098255	1	main_z	11	main_z	49	stimuli_distractor_diamondtriangles.svg	stimuli_distractor_diamondtriangles.svg	39	no	0	1	2000
6.6.1	win	2022-12-19	14:48:53	14:57:13	498747	5e44cd061aedc43572ba58b3	98098255	1	main_z	11	advance_on_keypress_ZEE	50	stimuli_distractor_diamondtriangles.svg	stimuli_distractor_diamondtriangles.svg	39	no	57	0	295
6.6.1	win	2022-12-19	14:48:53	14:57:14	500101	5e44cd061aedc43572ba58b3	98098255	1	main_z	11	main_z	51	stimuli_target_trianglesquares.svg	stimuli_distractor_diamondtriangles.svg	22	yes	44	1	417
6.6.1	win	2022-12-19	14:48:53	14:57:14	500101	5e44cd061aedc43572ba58b3	98098255	1	main_z	11	advance_on_keypress_ZEE	52	stimuli_target_trianglesquares.svg	stimuli_distractor_diamondtriangles.svg	22	yes	57	0	358
6.6.1	win	2022-12-19	14:48:53	14:57:17	503067	5e44cd061aedc43572ba58b3	98098255	1	main_z	11	main_z	53	stimuli_distractor_trianglediamonds.svg	stimuli_distractor_diamondtriangles.svg	36	no	0	1	2000
6.6.1	win	2022-12-19	14:48:53	14:57:17	503067	5e44cd061aedc43572ba58b3	98098255	1	main_z	11	advance_on_keypress_ZEE	54	stimuli_distractor_trianglediamonds.svg	stimuli_distractor_diamondtriangles.svg	36	no	57	0	688
6.6.1	win	2022-12-19	14:48:53	14:57:19	504709	5e44cd061aedc43572ba58b3	98098255	1	main_z	11	main_z	55	stimuli_distractor_diamondtriangles.svg	stimuli_target_diamondsquares.svg	32	yes	44	1	346
6.6.1	win	2022-12-19	14:48:53	14:57:19	504709	5e44cd061aedc43572ba58b3	98098255	1	main_z	11	advance_on_keypress_ZEE	56	stimuli_distractor_diamondtriangles.svg	stimuli_target_diamondsquares.svg	32	yes	57	0	503
6.6.1	win	2022-12-19	14:48:53	14:57:20	506405	5e44cd061aedc43572ba58b3	98098255	1	main_z	11	main_z	57	stimuli_target_squaretriangles.svg	stimuli_distractor_trianglediamonds.svg	3	yes	44	1	586
6.6.1	win	2022-12-19	14:48:53	14:57:20	506405	5e44cd061aedc43572ba58b3	98098255	1	main_z	11	advance_on_keypress_ZEE	58	stimuli_target_squaretriangles.svg	stimuli_distractor_trianglediamonds.svg	3	yes	57	0	374
6.6.1	win	2022-12-19	14:48:53	14:57:23	509387	5e44cd061aedc43572ba58b3	98098255	1	main_z	11	main_z	59	stimuli_distractor_trianglediamonds.svg	stimuli_distractor_trianglediamonds.svg	33	no	0	1	2000
6.6.1	win	2022-12-19	14:48:53	14:57:23	509387	5e44cd061aedc43572ba58b3	98098255	1	main_z	11	advance_on_keypress_ZEE	60	stimuli_distractor_trianglediamonds.svg	stimuli_distractor_trianglediamonds.svg	33	no	57	0	264
6.6.1	win	2022-12-19	14:48:53	14:57:25	510765	5e44cd061aedc43572ba58b3	98098255	1	main_z	11	main_z	61	stimuli_distractor_diamondtriangles.svg	stimuli_target_circletriangles.svg	13	yes	44	1	506
6.6.1	win	2022-12-19	14:48:53	14:57:25	510765	5e44cd061aedc43572ba58b3	98098255	1	main_z	11	advance_on_keypress_ZEE	62	stimuli_distractor_diamondtriangles.svg	stimuli_target_circletriangles.svg	13	yes	57	0	326
6.6.1	win	2022-12-19	14:48:53	14:57:26	512166	5e44cd061aedc43572ba58b3	98098255	1	main_z	11	main_z	63	stimuli_target_trianglecircles.svg	stimuli_distractor_diamondtriangles.svg	21	yes	44	1	464
6.6.1	win	2022-12-19	14:48:53	14:57:26	512166	5e44cd061aedc43572ba58b3	98098255	1	main_z	11	advance_on_keypress_ZEE	64	stimuli_target_trianglecircles.svg	stimuli_distractor_diamondtriangles.svg	21	yes	57	0	340
6.6.1	win	2022-12-19	14:48:53	14:57:28	513701	5e44cd061aedc43572ba58b3	98098255	1	main_z	11	main_z	65	stimuli_target_squarediamonds.svg	stimuli_distractor_trianglediamonds.svg	4	yes	44	1	546
6.6.1	win	2022-12-19	14:48:53	14:57:28	513701	5e44cd061aedc43572ba58b3	98098255	1	main_z	11	advance_on_keypress_ZEE	66	stimuli_target_squarediamonds.svg	stimuli_distractor_trianglediamonds.svg	4	yes	57	0	303
6.6.1	win	2022-12-19	14:48:53	14:57:29	515061	5e44cd061aedc43572ba58b3	98098255	1	main_z	11	main_z	67	stimuli_distractor_diamondtriangles.svg	stimuli_target_circlediamonds.svg	14	yes	44	1	450
6.6.1	win	2022-12-19	14:48:53	14:57:29	515061	5e44cd061aedc43572ba58b3	98098255	1	main_z	11	advance_on_keypress_ZEE	68	stimuli_distractor_diamondtriangles.svg	stimuli_target_circlediamonds.svg	14	yes	57	0	302
6.6.1	win	2022-12-19	14:48:53	14:57:30	516429	5e44cd061aedc43572ba58b3	98098255	1	main_z	11	main_z	69	stimuli_distractor_trianglediamonds.svg	stimuli_target_trianglesquares.svg	26	yes	44	1	458
6.6.1	win	2022-12-19	14:48:53	14:57:30	516429	5e44cd061aedc43572ba58b3	98098255	1	main_z	11	advance_on_keypress_ZEE	70	stimuli_distractor_trianglediamonds.svg	stimuli_target_trianglesquares.svg	26	yes	57	0	284
6.6.1	win	2022-12-19	14:48:53	14:57:32	517741	5e44cd061aedc43572ba58b3	98098255	1	main_z	11	main_z	71	stimuli_target_trianglecircles.svg	stimuli_distractor_trianglediamonds.svg	17	yes	44	1	418
6.6.1	win	2022-12-19	14:48:53	14:57:32	517741	5e44cd061aedc43572ba58b3	98098255	1	main_z	11	advance_on_keypress_ZEE	72	stimuli_target_trianglecircles.svg	stimuli_distractor_trianglediamonds.svg	17	yes	57	0	270
6.6.1	win	2022-12-19	14:48:53	14:57:33	519189	5e44cd061aedc43572ba58b3	98098255	1	main_z	11	main_z	73	stimuli_target_circletriangles.svg	stimuli_distractor_trianglediamonds.svg	1	yes	44	1	570
6.6.1	win	2022-12-19	14:48:53	14:57:33	519189	5e44cd061aedc43572ba58b3	98098255	1	main_z	11	advance_on_keypress_ZEE	74	stimuli_target_circletriangles.svg	stimuli_distractor_trianglediamonds.svg	1	yes	57	0	263
6.6.1	win	2022-12-19	14:48:53	14:57:34	520573	5e44cd061aedc43572ba58b3	98098255	1	main_z	11	main_z	75	stimuli_distractor_diamondtriangles.svg	stimuli_target_squarediamonds.svg	16	yes	44	1	514
6.6.1	win	2022-12-19	14:48:53	14:57:34	520573	5e44cd061aedc43572ba58b3	98098255	1	main_z	11	advance_on_keypress_ZEE	76	stimuli_distractor_diamondtriangles.svg	stimuli_target_squarediamonds.svg	16	yes	57	0	276
6.6.1	win	2022-12-19	14:48:53	14:57:36	521869	5e44cd061aedc43572ba58b3	98098255	1	main_z	11	main_z	77	stimuli_target_squarediamonds.svg	stimuli_distractor_diamondtriangles.svg	8	yes	44	1	410
6.6.1	win	2022-12-19	14:48:53	14:57:36	521869	5e44cd061aedc43572ba58b3	98098255	1	main_z	11	advance_on_keypress_ZEE	78	stimuli_target_squarediamonds.svg	stimuli_distractor_diamondtriangles.svg	8	yes	57	0	254
6.6.1	win	2022-12-19	14:48:53	14:57:37	523173	5e44cd061aedc43572ba58b3	98098255	1	main_z	11	main_z	79	stimuli_target_diamondsquares.svg	stimuli_distractor_diamondtriangles.svg	24	yes	44	1	442
6.6.1	win	2022-12-19	14:48:53	14:57:37	523173	5e44cd061aedc43572ba58b3	98098255	1	main_z	11	advance_on_keypress_ZEE	80	stimuli_target_diamondsquares.svg	stimuli_distractor_diamondtriangles.svg	24	yes	57	0	246
6.6.1	win	2022-12-19	14:48:53	14:57:38	524477	5e44cd061aedc43572ba58b3	98098255	1	main_z	11	main_z	81	stimuli_distractor_trianglediamonds.svg	stimuli_target_trianglesquares.svg	26	yes	44	1	419
6.6.1	win	2022-12-19	14:48:53	14:57:38	524477	5e44cd061aedc43572ba58b3	98098255	1	main_z	11	advance_on_keypress_ZEE	82	stimuli_distractor_trianglediamonds.svg	stimuli_target_trianglesquares.svg	26	yes	57	0	238
6.6.1	win	2022-12-19	14:48:53	14:57:40	526005	5e44cd061aedc43572ba58b3	98098255	1	main_z	11	main_z	83	stimuli_target_circletriangles.svg	stimuli_distractor_trianglediamonds.svg	1	yes	44	1	682
6.6.1	win	2022-12-19	14:48:53	14:57:40	526005	5e44cd061aedc43572ba58b3	98098255	1	main_z	11	advance_on_keypress_ZEE	84	stimuli_target_circletriangles.svg	stimuli_distractor_trianglediamonds.svg	1	yes	57	0	214
6.6.1	win	2022-12-19	14:48:53	14:57:41	527221	5e44cd061aedc43572ba58b3	98098255	1	main_z	11	main_z	85	stimuli_distractor_trianglediamonds.svg	stimuli_target_circlediamonds.svg	10	yes	44	1	394
6.6.1	win	2022-12-19	14:48:53	14:57:41	527221	5e44cd061aedc43572ba58b3	98098255	1	main_z	11	advance_on_keypress_ZEE	86	stimuli_distractor_trianglediamonds.svg	stimuli_target_circlediamonds.svg	10	yes	57	0	223
6.6.1	win	2022-12-19	14:48:53	14:57:42	528397	5e44cd061aedc43572ba58b3	98098255	1	main_z	11	main_z	87	stimuli_target_squaretriangles.svg	stimuli_distractor_diamondtriangles.svg	7	yes	44	1	346
6.6.1	win	2022-12-19	14:48:53	14:57:42	528397	5e44cd061aedc43572ba58b3	98098255	1	main_z	11	advance_on_keypress_ZEE	88	stimuli_target_squaretriangles.svg	stimuli_distractor_diamondtriangles.svg	7	yes	57	0	191
6.6.1	win	2022-12-19	14:48:53	14:57:45	531196	5e44cd061aedc43572ba58b3	98098255	1	main_z	11	main_z	89	stimuli_distractor_diamondtriangles.svg	stimuli_distractor_diamondtriangles.svg	39	no	0	1	2000
6.6.1	win	2022-12-19	14:48:53	14:57:45	531196	5e44cd061aedc43572ba58b3	98098255	1	main_z	11	advance_on_keypress_ZEE	90	stimuli_distractor_diamondtriangles.svg	stimuli_distractor_diamondtriangles.svg	39	no	57	0	280
6.6.1	win	2022-12-19	14:48:53	14:57:46	532429	5e44cd061aedc43572ba58b3	98098255	1	main_z	11	main_z	91	stimuli_target_squaretriangles.svg	stimuli_distractor_trianglediamonds.svg	3	yes	44	1	346
6.6.1	win	2022-12-19	14:48:53	14:57:46	532429	5e44cd061aedc43572ba58b3	98098255	1	main_z	11	advance_on_keypress_ZEE	92	stimuli_target_squaretriangles.svg	stimuli_distractor_trianglediamonds.svg	3	yes	57	0	231
6.6.1	win	2022-12-19	14:48:53	14:57:49	535267	5e44cd061aedc43572ba58b3	98098255	1	main_z	11	main_z	93	stimuli_distractor_diamondtriangles.svg	stimuli_distractor_diamondtriangles.svg	40	no	0	1	2000
6.6.1	win	2022-12-19	14:48:53	14:57:49	535267	5e44cd061aedc43572ba58b3	98098255	1	main_z	11	advance_on_keypress_ZEE	94	stimuli_distractor_diamondtriangles.svg	stimuli_distractor_diamondtriangles.svg	40	no	57	0	272
6.6.1	win	2022-12-19	14:48:53	14:57:50	536533	5e44cd061aedc43572ba58b3	98098255	1	main_z	11	main_z	95	stimuli_distractor_trianglediamonds.svg	stimuli_distractor_diamondtriangles.svg	35	no	44	0	386
6.6.1	win	2022-12-19	14:48:53	14:57:50	536533	5e44cd061aedc43572ba58b3	98098255	1	main_z	11	advance_on_keypress_ZEE	96	stimuli_distractor_trianglediamonds.svg	stimuli_distractor_diamondtriangles.svg	35	no	57	0	244
6.6.1	win	2022-12-19	14:48:53	14:57:52	537981	5e44cd061aedc43572ba58b3	98098255	1	main_z	11	main_z	97	stimuli_distractor_trianglediamonds.svg	stimuli_target_diamondsquares.svg	28	yes	44	1	594
6.6.1	win	2022-12-19	14:48:53	14:57:52	537981	5e44cd061aedc43572ba58b3	98098255	1	main_z	11	advance_on_keypress_ZEE	98	stimuli_distractor_trianglediamonds.svg	stimuli_target_diamondsquares.svg	28	yes	57	0	246
6.6.1	win	2022-12-19	14:48:53	14:57:55	540836	5e44cd061aedc43572ba58b3	98098255	1	main_z	11	main_z	99	stimuli_distractor_diamondtriangles.svg	stimuli_distractor_trianglediamonds.svg	37	no	0	1	2000
6.6.1	win	2022-12-19	14:48:53	14:57:55	540836	5e44cd061aedc43572ba58b3	98098255	1	main_z	11	advance_on_keypress_ZEE	100	stimuli_distractor_diamondtriangles.svg	stimuli_distractor_trianglediamonds.svg	37	no	57	0	640
6.6.1	win	2022-12-19	14:48:53	14:57:56	542509	5e44cd061aedc43572ba58b3	98098255	1	main_z	11	main_z	101	stimuli_target_trianglecircles.svg	stimuli_distractor_diamondtriangles.svg	21	yes	44	1	426
6.6.1	win	2022-12-19	14:48:53	14:57:56	542509	5e44cd061aedc43572ba58b3	98098255	1	main_z	11	advance_on_keypress_ZEE	102	stimuli_target_trianglecircles.svg	stimuli_distractor_diamondtriangles.svg	21	yes	57	0	295
6.6.1	win	2022-12-19	14:48:53	14:57:58	543821	5e44cd061aedc43572ba58b3	98098255	1	main_z	11	main_z	103	stimuli_distractor_trianglediamonds.svg	stimuli_target_trianglecircles.svg	25	yes	44	1	410
6.6.1	win	2022-12-19	14:48:53	14:57:58	543821	5e44cd061aedc43572ba58b3	98098255	1	main_z	11	advance_on_keypress_ZEE	104	stimuli_distractor_trianglediamonds.svg	stimuli_target_trianglecircles.svg	25	yes	57	0	246
6.6.1	win	2022-12-19	14:48:53	14:57:59	545285	5e44cd061aedc43572ba58b3	98098255	1	main_z	11	main_z	105	stimuli_distractor_diamondtriangles.svg	stimuli_target_circlediamonds.svg	14	yes	44	1	610
6.6.1	win	2022-12-19	14:48:53	14:57:59	545285	5e44cd061aedc43572ba58b3	98098255	1	main_z	11	advance_on_keypress_ZEE	106	stimuli_distractor_diamondtriangles.svg	stimuli_target_circlediamonds.svg	14	yes	57	0	262
6.6.1	win	2022-12-19	14:48:53	14:58:01	546749	5e44cd061aedc43572ba58b3	98098255	1	main_z	11	main_z	107	stimuli_distractor_diamondtriangles.svg	stimuli_target_diamondsquares.svg	32	yes	44	1	594
6.6.1	win	2022-12-19	14:48:53	14:58:01	546749	5e44cd061aedc43572ba58b3	98098255	1	main_z	11	advance_on_keypress_ZEE	108	stimuli_distractor_diamondtriangles.svg	stimuli_target_diamondsquares.svg	32	yes	57	0	246
6.6.1	win	2022-12-19	14:48:53	14:58:02	548046	5e44cd061aedc43572ba58b3	98098255	1	main_z	11	main_z	109	stimuli_target_diamondcircles.svg	stimuli_distractor_diamondtriangles.svg	23	yes	44	1	442
6.6.1	win	2022-12-19	14:48:53	14:58:02	548046	5e44cd061aedc43572ba58b3	98098255	1	main_z	11	advance_on_keypress_ZEE	110	stimuli_target_diamondcircles.svg	stimuli_distractor_diamondtriangles.svg	23	yes	57	0	262
6.6.1	win	2022-12-19	14:48:53	14:58:03	549461	5e44cd061aedc43572ba58b3	98098255	1	main_z	11	main_z	111	stimuli_target_circlediamonds.svg	stimuli_distractor_trianglediamonds.svg	2	yes	44	1	546
6.6.1	win	2022-12-19	14:48:53	14:58:03	549461	5e44cd061aedc43572ba58b3	98098255	1	main_z	11	advance_on_keypress_ZEE	112	stimuli_target_circlediamonds.svg	stimuli_distractor_trianglediamonds.svg	2	yes	57	0	263
6.6.1	win	2022-12-19	14:48:53	14:58:05	550709	5e44cd061aedc43572ba58b3	98098255	1	main_z	11	main_z	113	stimuli_target_circlediamonds.svg	stimuli_distractor_diamondtriangles.svg	6	yes	44	1	376
6.6.1	win	2022-12-19	14:48:53	14:58:05	550709	5e44cd061aedc43572ba58b3	98098255	1	main_z	11	advance_on_keypress_ZEE	114	stimuli_target_circlediamonds.svg	stimuli_distractor_diamondtriangles.svg	6	yes	57	0	263
6.6.1	win	2022-12-19	14:48:53	14:58:07	553579	5e44cd061aedc43572ba58b3	98098255	1	main_z	11	main_z	115	stimuli_distractor_trianglediamonds.svg	stimuli_distractor_trianglediamonds.svg	34	no	0	1	2000
6.6.1	win	2022-12-19	14:48:53	14:58:07	553579	5e44cd061aedc43572ba58b3	98098255	1	main_z	11	advance_on_keypress_ZEE	116	stimuli_distractor_trianglediamonds.svg	stimuli_distractor_trianglediamonds.svg	34	no	57	0	376
6.6.1	win	2022-12-19	14:48:53	14:58:09	554973	5e44cd061aedc43572ba58b3	98098255	1	main_z	11	main_z	117	stimuli_distractor_trianglediamonds.svg	stimuli_target_circletriangles.svg	9	yes	44	1	410
6.6.1	win	2022-12-19	14:48:53	14:58:09	554973	5e44cd061aedc43572ba58b3	98098255	1	main_z	11	advance_on_keypress_ZEE	118	stimuli_distractor_trianglediamonds.svg	stimuli_target_circletriangles.svg	9	yes	57	0	230
6.6.1	win	2022-12-19	14:48:53	14:58:12	557811	5e44cd061aedc43572ba58b3	98098255	1	main_z	11	main_z	119	stimuli_distractor_trianglediamonds.svg	stimuli_distractor_trianglediamonds.svg	33	no	0	1	2000
6.6.1	win	2022-12-19	14:48:53	14:58:12	557811	5e44cd061aedc43572ba58b3	98098255	1	main_z	11	advance_on_keypress_ZEE	120	stimuli_distractor_trianglediamonds.svg	stimuli_distractor_trianglediamonds.svg	33	no	57	0	768
6.6.1	win	2022-12-19	14:48:53	14:58:13	559573	5e44cd061aedc43572ba58b3	98098255	1	main_z	11	main_z	121	stimuli_distractor_diamondtriangles.svg	stimuli_target_circletriangles.svg	13	yes	44	1	386
6.6.1	win	2022-12-19	14:48:53	14:58:13	559573	5e44cd061aedc43572ba58b3	98098255	1	main_z	11	advance_on_keypress_ZEE	122	stimuli_distractor_diamondtriangles.svg	stimuli_target_circletriangles.svg	13	yes	57	0	326
6.6.1	win	2022-12-19	14:48:53	14:58:15	560941	5e44cd061aedc43572ba58b3	98098255	1	main_z	11	main_z	123	stimuli_target_squarediamonds.svg	stimuli_distractor_trianglediamonds.svg	4	yes	44	1	434
6.6.1	win	2022-12-19	14:48:53	14:58:15	560941	5e44cd061aedc43572ba58b3	98098255	1	main_z	11	advance_on_keypress_ZEE	124	stimuli_target_squarediamonds.svg	stimuli_distractor_trianglediamonds.svg	4	yes	57	0	494
6.6.1	win	2022-12-19	14:48:53	14:58:16	562485	5e44cd061aedc43572ba58b3	98098255	1	main_z	11	main_z	125	stimuli_distractor_diamondtriangles.svg	stimuli_target_diamondcircles.svg	31	yes	44	1	442
6.6.1	win	2022-12-19	14:48:53	14:58:16	562485	5e44cd061aedc43572ba58b3	98098255	1	main_z	11	advance_on_keypress_ZEE	126	stimuli_distractor_diamondtriangles.svg	stimuli_target_diamondcircles.svg	31	yes	57	0	278
6.6.1	win	2022-12-19	14:48:53	14:58:19	565173	5e44cd061aedc43572ba58b3	98098255	1	main_z	11	main_z	127	stimuli_distractor_diamondtriangles.svg	stimuli_distractor_trianglediamonds.svg	38	no	44	0	1802
6.6.1	win	2022-12-19	14:48:53	14:58:19	565173	5e44cd061aedc43572ba58b3	98098255	1	main_z	11	advance_on_keypress_ZEE	128	stimuli_distractor_diamondtriangles.svg	stimuli_distractor_trianglediamonds.svg	38	no	57	0	302
6.6.1	win	2022-12-19	14:48:53	14:58:20	566589	5e44cd061aedc43572ba58b3	98098255	1	main_z	11	main_z	129	stimuli_target_diamondsquares.svg	stimuli_distractor_diamondtriangles.svg	24	yes	44	1	469
6.6.1	win	2022-12-19	14:48:53	14:58:20	566589	5e44cd061aedc43572ba58b3	98098255	1	main_z	11	advance_on_keypress_ZEE	130	stimuli_target_diamondsquares.svg	stimuli_distractor_diamondtriangles.svg	24	yes	57	0	271
6.6.1	win	2022-12-19	14:48:53	14:58:22	567909	5e44cd061aedc43572ba58b3	98098255	1	main_z	11	main_z	131	stimuli_target_diamondsquares.svg	stimuli_distractor_trianglediamonds.svg	20	yes	44	1	442
6.6.1	win	2022-12-19	14:48:53	14:58:22	567909	5e44cd061aedc43572ba58b3	98098255	1	main_z	11	advance_on_keypress_ZEE	132	stimuli_target_diamondsquares.svg	stimuli_distractor_trianglediamonds.svg	20	yes	57	0	279
6.6.1	win	2022-12-19	14:48:53	14:58:23	569245	5e44cd061aedc43572ba58b3	98098255	1	main_z	11	main_z	133	stimuli_target_trianglesquares.svg	stimuli_distractor_trianglediamonds.svg	18	yes	44	1	450
6.6.1	win	2022-12-19	14:48:53	14:58:23	569245	5e44cd061aedc43572ba58b3	98098255	1	main_z	11	advance_on_keypress_ZEE	134	stimuli_target_trianglesquares.svg	stimuli_distractor_trianglediamonds.svg	18	yes	57	0	262
6.6.1	win	2022-12-19	14:48:53	14:58:24	570565	5e44cd061aedc43572ba58b3	98098255	1	main_z	11	main_z	135	stimuli_target_diamondcircles.svg	stimuli_distractor_trianglediamonds.svg	19	yes	44	1	450
6.6.1	win	2022-12-19	14:48:53	14:58:24	570565	5e44cd061aedc43572ba58b3	98098255	1	main_z	11	advance_on_keypress_ZEE	136	stimuli_target_diamondcircles.svg	stimuli_distractor_trianglediamonds.svg	19	yes	57	0	287
6.6.1	win	2022-12-19	14:48:53	14:58:26	571869	5e44cd061aedc43572ba58b3	98098255	1	main_z	11	main_z	137	stimuli_target_trianglesquares.svg	stimuli_distractor_diamondtriangles.svg	22	yes	44	1	410
6.6.1	win	2022-12-19	14:48:53	14:58:26	571869	5e44cd061aedc43572ba58b3	98098255	1	main_z	11	advance_on_keypress_ZEE	138	stimuli_target_trianglesquares.svg	stimuli_distractor_diamondtriangles.svg	22	yes	57	0	302
6.6.1	win	2022-12-19	14:48:53	14:58:27	573149	5e44cd061aedc43572ba58b3	98098255	1	main_z	11	main_z	139	stimuli_distractor_trianglediamonds.svg	stimuli_target_diamondcircles.svg	27	yes	44	1	370
6.6.1	win	2022-12-19	14:48:53	14:58:27	573149	5e44cd061aedc43572ba58b3	98098255	1	main_z	11	advance_on_keypress_ZEE	140	stimuli_distractor_trianglediamonds.svg	stimuli_target_diamondcircles.svg	27	yes	57	0	262
6.6.1	win	2022-12-19	14:48:53	14:58:28	574469	5e44cd061aedc43572ba58b3	98098255	1	main_z	11	main_z	141	stimuli_distractor_diamondtriangles.svg	stimuli_target_trianglecircles.svg	29	yes	44	1	450
6.6.1	win	2022-12-19	14:48:53	14:58:28	574469	5e44cd061aedc43572ba58b3	98098255	1	main_z	11	advance_on_keypress_ZEE	142	stimuli_distractor_diamondtriangles.svg	stimuli_target_trianglecircles.svg	29	yes	57	0	271
6.6.1	win	2022-12-19	14:48:53	14:58:30	575870	5e44cd061aedc43572ba58b3	98098255	1	main_z	11	main_z	143	stimuli_distractor_trianglediamonds.svg	stimuli_distractor_diamondtriangles.svg	36	no	44	0	522
6.6.1	win	2022-12-19	14:48:53	14:58:30	575870	5e44cd061aedc43572ba58b3	98098255	1	main_z	11	advance_on_keypress_ZEE	144	stimuli_distractor_trianglediamonds.svg	stimuli_distractor_diamondtriangles.svg	36	no	57	0	267
6.6.1	win	2022-12-19	14:48:53	14:58:31	577245	5e44cd061aedc43572ba58b3	98098255	1	main_z	11	main_z	145	stimuli_distractor_diamondtriangles.svg	stimuli_target_trianglesquares.svg	30	yes	44	1	498
6.6.1	win	2022-12-19	14:48:53	14:58:31	577245	5e44cd061aedc43572ba58b3	98098255	1	main_z	11	advance_on_keypress_ZEE	146	stimuli_distractor_diamondtriangles.svg	stimuli_target_trianglesquares.svg	30	yes	57	0	270
6.6.1	win	2022-12-19	14:48:53	14:58:34	580124	5e44cd061aedc43572ba58b3	98098255	1	main_z	11	main_z	147	stimuli_target_squarediamonds.svg	stimuli_distractor_diamondtriangles.svg	8	yes	0	0	2000
6.6.1	win	2022-12-19	14:48:53	14:58:34	580124	5e44cd061aedc43572ba58b3	98098255	1	main_z	11	advance_on_keypress_ZEE	148	stimuli_target_squarediamonds.svg	stimuli_distractor_diamondtriangles.svg	8	yes	57	0	392
6.6.1	win	2022-12-19	14:48:53	14:58:36	581965	5e44cd061aedc43572ba58b3	98098255	1	main_z	11	main_z	149	stimuli_target_circletriangles.svg	stimuli_distractor_diamondtriangles.svg	5	yes	44	1	841
6.6.1	win	2022-12-19	14:48:53	14:58:36	581965	5e44cd061aedc43572ba58b3	98098255	1	main_z	11	advance_on_keypress_ZEE	150	stimuli_target_circletriangles.svg	stimuli_distractor_diamondtriangles.svg	5	yes	57	0	270
6.6.1	win	2022-12-19	14:48:53	14:58:37	583309	5e44cd061aedc43572ba58b3	98098255	1	main_z	11	main_z	151	stimuli_distractor_trianglediamonds.svg	stimuli_target_squaretriangles.svg	11	yes	44	1	466
6.6.1	win	2022-12-19	14:48:53	14:58:37	583309	5e44cd061aedc43572ba58b3	98098255	1	main_z	11	advance_on_keypress_ZEE	152	stimuli_distractor_trianglediamonds.svg	stimuli_target_squaretriangles.svg	11	yes	57	0	255
6.6.1	win	2022-12-19	14:48:53	14:58:38	584621	5e44cd061aedc43572ba58b3	98098255	1	main_z	11	main_z	153	stimuli_target_trianglecircles.svg	stimuli_distractor_trianglediamonds.svg	17	yes	44	1	450
6.6.1	win	2022-12-19	14:48:53	14:58:38	584621	5e44cd061aedc43572ba58b3	98098255	1	main_z	11	advance_on_keypress_ZEE	154	stimuli_target_trianglecircles.svg	stimuli_distractor_trianglediamonds.svg	17	yes	57	0	286
6.6.1	win	2022-12-19	14:48:53	14:58:40	585949	5e44cd061aedc43572ba58b3	98098255	1	main_z	11	main_z	155	stimuli_distractor_diamondtriangles.svg	stimuli_target_squarediamonds.svg	16	yes	44	1	434
6.6.1	win	2022-12-19	14:48:53	14:58:40	585949	5e44cd061aedc43572ba58b3	98098255	1	main_z	11	advance_on_keypress_ZEE	156	stimuli_distractor_diamondtriangles.svg	stimuli_target_squarediamonds.svg	16	yes	57	0	294
6.6.1	win	2022-12-19	14:48:53	14:58:41	587277	5e44cd061aedc43572ba58b3	98098255	1	main_z	11	main_z	157	stimuli_distractor_trianglediamonds.svg	stimuli_target_squarediamonds.svg	12	yes	44	1	426
6.6.1	win	2022-12-19	14:48:53	14:58:41	587277	5e44cd061aedc43572ba58b3	98098255	1	main_z	11	advance_on_keypress_ZEE	158	stimuli_distractor_trianglediamonds.svg	stimuli_target_squarediamonds.svg	12	yes	57	0	293
6.6.1	win	2022-12-19	14:48:53	14:58:42	588573	5e44cd061aedc43572ba58b3	98098255	1	main_z	11	main_z	159	stimuli_distractor_diamondtriangles.svg	stimuli_target_squaretriangles.svg	15	yes	44	1	394
6.6.1	win	2022-12-19	14:48:53	14:58:42	588573	5e44cd061aedc43572ba58b3	98098255	1	main_z	11	advance_on_keypress_ZEE	160	stimuli_distractor_diamondtriangles.svg	stimuli_target_squaretriangles.svg	15	yes	57	0	287