build	computer.platform	date	time	timestamp	time_elapsed_ms	subject	group	session	blockcode	blocknum	trialcode	trialnum	stimulus_left	stimulus_right	stim_index	target_present	response	correct	latency
6.6.1	win	2022-12-15	15:56:09	15:58:54	163345	62f9fbc07e4fc1bfe47070e5	86138434	1	practice_z	5	practice_z	1	stimuli_distractor_diamondtriangles.svg	stimuli_target_circletriangles.svg	7	yes	0	0	2003
6.6.1	win	2022-12-15	15:56:09	15:58:54	163345	62f9fbc07e4fc1bfe47070e5	86138434	1	practice_z	5	advance_on_keypress_ZEE	2	stimuli_distractor_diamondtriangles.svg	stimuli_target_circletriangles.svg	7	yes	57	0	884
6.6.1	win	2022-12-15	15:56:09	15:58:57	166354	62f9fbc07e4fc1bfe47070e5	86138434	1	practice_z	5	practice_z	3	stimuli_target_circlediamonds.svg	stimuli_distractor_trianglediamonds.svg	4	yes	44	1	499
6.6.1	win	2022-12-15	15:56:09	15:58:57	166354	62f9fbc07e4fc1bfe47070e5	86138434	1	practice_z	5	advance_on_keypress_ZEE	4	stimuli_target_circlediamonds.svg	stimuli_distractor_trianglediamonds.svg	4	yes	57	0	1322
6.6.1	win	2022-12-15	15:56:09	15:59:00	169668	62f9fbc07e4fc1bfe47070e5	86138434	1	practice_z	5	practice_z	5	stimuli_distractor_trianglediamonds.svg	stimuli_target_circlediamonds.svg	10	yes	44	1	369
6.6.1	win	2022-12-15	15:56:09	15:59:00	169668	62f9fbc07e4fc1bfe47070e5	86138434	1	practice_z	5	advance_on_keypress_ZEE	6	stimuli_distractor_trianglediamonds.svg	stimuli_target_circlediamonds.svg	10	yes	57	0	525
6.6.1	win	2022-12-15	15:56:09	15:59:03	172381	62f9fbc07e4fc1bfe47070e5	86138434	1	practice_z	5	practice_z	7	stimuli_target_squarediamonds.svg	stimuli_distractor_diamondtriangles.svg	2	yes	44	1	568
6.6.1	win	2022-12-15	15:56:09	15:59:03	172381	62f9fbc07e4fc1bfe47070e5	86138434	1	practice_z	5	advance_on_keypress_ZEE	8	stimuli_target_squarediamonds.svg	stimuli_distractor_diamondtriangles.svg	2	yes	57	0	472
6.6.1	win	2022-12-15	15:56:09	15:59:05	174789	62f9fbc07e4fc1bfe47070e5	86138434	1	practice_z	5	practice_z	9	stimuli_target_squarediamonds.svg	stimuli_distractor_trianglediamonds.svg	5	yes	44	1	316
6.6.1	win	2022-12-15	15:56:09	15:59:05	174789	62f9fbc07e4fc1bfe47070e5	86138434	1	practice_z	5	advance_on_keypress_ZEE	10	stimuli_target_squarediamonds.svg	stimuli_distractor_trianglediamonds.svg	5	yes	57	0	640
6.6.1	win	2022-12-15	15:56:09	15:59:08	177399	62f9fbc07e4fc1bfe47070e5	86138434	1	practice_z	5	practice_z	11	stimuli_target_diamondsquares.svg	stimuli_distractor_trianglediamonds.svg	6	yes	44	1	351
6.6.1	win	2022-12-15	15:56:09	15:59:08	177399	62f9fbc07e4fc1bfe47070e5	86138434	1	practice_z	5	advance_on_keypress_ZEE	12	stimuli_target_diamondsquares.svg	stimuli_distractor_trianglediamonds.svg	6	yes	57	0	516
6.6.1	win	2022-12-15	15:56:09	15:59:11	180100	62f9fbc07e4fc1bfe47070e5	86138434	1	practice_z	5	practice_z	13	stimuli_distractor_diamondtriangles.svg	stimuli_target_diamondcircles.svg	8	yes	44	1	560
6.6.1	win	2022-12-15	15:56:09	15:59:11	180100	62f9fbc07e4fc1bfe47070e5	86138434	1	practice_z	5	advance_on_keypress_ZEE	14	stimuli_distractor_diamondtriangles.svg	stimuli_target_diamondcircles.svg	8	yes	57	0	256
6.6.1	win	2022-12-15	15:56:09	15:59:13	182365	62f9fbc07e4fc1bfe47070e5	86138434	1	practice_z	5	practice_z	15	stimuli_distractor_trianglediamonds.svg	stimuli_target_squarediamonds.svg	11	yes	44	1	388
6.6.1	win	2022-12-15	15:56:09	15:59:13	182365	62f9fbc07e4fc1bfe47070e5	86138434	1	practice_z	5	advance_on_keypress_ZEE	16	stimuli_distractor_trianglediamonds.svg	stimuli_target_squarediamonds.svg	11	yes	57	0	368
6.6.1	win	2022-12-15	15:56:09	15:59:16	185724	62f9fbc07e4fc1bfe47070e5	86138434	1	practice_z	5	practice_z	17	stimuli_distractor_diamondtriangles.svg	stimuli_distractor_trianglediamonds.svg	14	no	44	0	1372
6.6.1	win	2022-12-15	15:56:09	15:59:16	185724	62f9fbc07e4fc1bfe47070e5	86138434	1	practice_z	5	advance_on_keypress_ZEE	18	stimuli_distractor_diamondtriangles.svg	stimuli_distractor_trianglediamonds.svg	14	no	57	0	2629
6.6.1	win	2022-12-15	15:56:09	15:59:21	190542	62f9fbc07e4fc1bfe47070e5	86138434	1	practice_z	5	practice_z	19	stimuli_target_circlediamonds.svg	stimuli_distractor_diamondtriangles.svg	1	yes	44	1	567
6.6.1	win	2022-12-15	15:56:09	15:59:21	190542	62f9fbc07e4fc1bfe47070e5	86138434	1	practice_z	5	advance_on_keypress_ZEE	20	stimuli_target_circlediamonds.svg	stimuli_distractor_diamondtriangles.svg	1	yes	57	0	464
6.6.1	win	2022-12-15	15:56:09	15:59:24	192964	62f9fbc07e4fc1bfe47070e5	86138434	1	practice_z	5	practice_z	21	stimuli_distractor_trianglediamonds.svg	stimuli_target_diamondcircles.svg	12	yes	44	1	335
6.6.1	win	2022-12-15	15:56:09	15:59:24	192964	62f9fbc07e4fc1bfe47070e5	86138434	1	practice_z	5	advance_on_keypress_ZEE	22	stimuli_distractor_trianglediamonds.svg	stimuli_target_diamondcircles.svg	12	yes	57	0	250
6.6.1	win	2022-12-15	15:56:09	15:59:26	195112	62f9fbc07e4fc1bfe47070e5	86138434	1	practice_z	5	practice_z	23	stimuli_distractor_trianglediamonds.svg	stimuli_distractor_trianglediamonds.svg	15	no	44	0	275
6.6.1	win	2022-12-15	15:56:09	15:59:26	195112	62f9fbc07e4fc1bfe47070e5	86138434	1	practice_z	5	advance_on_keypress_ZEE	24	stimuli_distractor_trianglediamonds.svg	stimuli_distractor_trianglediamonds.svg	15	no	57	0	408
6.6.1	win	2022-12-15	15:56:09	15:59:28	197696	62f9fbc07e4fc1bfe47070e5	86138434	1	practice_z	5	practice_z	25	stimuli_distractor_diamondtriangles.svg	stimuli_target_trianglecircles.svg	9	yes	44	1	554
6.6.1	win	2022-12-15	15:56:09	15:59:28	197696	62f9fbc07e4fc1bfe47070e5	86138434	1	practice_z	5	advance_on_keypress_ZEE	26	stimuli_distractor_diamondtriangles.svg	stimuli_target_trianglecircles.svg	9	yes	57	0	298
6.6.1	win	2022-12-15	15:56:09	15:59:31	200167	62f9fbc07e4fc1bfe47070e5	86138434	1	practice_z	5	practice_z	27	stimuli_target_diamondsquares.svg	stimuli_distractor_diamondtriangles.svg	3	yes	44	1	554
6.6.1	win	2022-12-15	15:56:09	15:59:31	200167	62f9fbc07e4fc1bfe47070e5	86138434	1	practice_z	5	advance_on_keypress_ZEE	28	stimuli_target_diamondsquares.svg	stimuli_distractor_diamondtriangles.svg	3	yes	57	0	271
6.6.1	win	2022-12-15	15:56:09	15:59:33	202590	62f9fbc07e4fc1bfe47070e5	86138434	1	practice_z	5	practice_z	29	stimuli_distractor_trianglediamonds.svg	stimuli_distractor_diamondtriangles.svg	16	no	44	0	529
6.6.1	win	2022-12-15	15:56:09	15:59:33	202590	62f9fbc07e4fc1bfe47070e5	86138434	1	practice_z	5	advance_on_keypress_ZEE	30	stimuli_distractor_trianglediamonds.svg	stimuli_distractor_diamondtriangles.svg	16	no	57	0	311
6.6.1	win	2022-12-15	15:56:09	15:59:37	206525	62f9fbc07e4fc1bfe47070e5	86138434	1	practice_z	5	practice_z	31	stimuli_distractor_diamondtriangles.svg	stimuli_distractor_diamondtriangles.svg	13	no	0	1	2003
6.6.1	win	2022-12-15	15:56:09	15:59:37	206525	62f9fbc07e4fc1bfe47070e5	86138434	1	practice_z	5	advance_on_keypress_ZEE	32	stimuli_distractor_diamondtriangles.svg	stimuli_distractor_diamondtriangles.svg	13	no	57	0	331
6.6.1	win	2022-12-15	15:56:09	15:59:58	227767	62f9fbc07e4fc1bfe47070e5	86138434	1	main_z	7	main_z	1	stimuli_target_squarediamonds.svg	stimuli_distractor_trianglediamonds.svg	4	yes	44	1	488
6.6.1	win	2022-12-15	15:56:09	15:59:58	227767	62f9fbc07e4fc1bfe47070e5	86138434	1	main_z	7	advance_on_keypress_ZEE	2	stimuli_target_squarediamonds.svg	stimuli_distractor_trianglediamonds.svg	4	yes	57	0	1063
6.6.1	win	2022-12-15	15:56:09	16:00:01	229934	62f9fbc07e4fc1bfe47070e5	86138434	1	main_z	7	main_z	3	stimuli_target_diamondsquares.svg	stimuli_distractor_diamondtriangles.svg	24	yes	44	1	482
6.6.1	win	2022-12-15	15:56:09	16:00:01	229934	62f9fbc07e4fc1bfe47070e5	86138434	1	main_z	7	advance_on_keypress_ZEE	4	stimuli_target_diamondsquares.svg	stimuli_distractor_diamondtriangles.svg	24	yes	57	0	602
6.6.1	win	2022-12-15	15:56:09	16:00:02	231558	62f9fbc07e4fc1bfe47070e5	86138434	1	main_z	7	main_z	5	stimuli_distractor_trianglediamonds.svg	stimuli_target_squaretriangles.svg	11	yes	44	1	405
6.6.1	win	2022-12-15	15:56:09	16:00:02	231558	62f9fbc07e4fc1bfe47070e5	86138434	1	main_z	7	advance_on_keypress_ZEE	6	stimuli_distractor_trianglediamonds.svg	stimuli_target_squaretriangles.svg	11	yes	57	0	507
6.6.1	win	2022-12-15	15:56:09	16:00:04	233090	62f9fbc07e4fc1bfe47070e5	86138434	1	main_z	7	main_z	7	stimuli_target_trianglecircles.svg	stimuli_distractor_diamondtriangles.svg	21	yes	44	1	410
6.6.1	win	2022-12-15	15:56:09	16:00:04	233090	62f9fbc07e4fc1bfe47070e5	86138434	1	main_z	7	advance_on_keypress_ZEE	8	stimuli_target_trianglecircles.svg	stimuli_distractor_diamondtriangles.svg	21	yes	57	0	388
6.6.1	win	2022-12-15	15:56:09	16:00:05	234525	62f9fbc07e4fc1bfe47070e5	86138434	1	main_z	7	main_z	9	stimuli_target_trianglesquares.svg	stimuli_distractor_trianglediamonds.svg	18	yes	44	1	427
6.6.1	win	2022-12-15	15:56:09	16:00:05	234525	62f9fbc07e4fc1bfe47070e5	86138434	1	main_z	7	advance_on_keypress_ZEE	10	stimuli_target_trianglesquares.svg	stimuli_distractor_trianglediamonds.svg	18	yes	57	0	370
6.6.1	win	2022-12-15	15:56:09	16:00:07	236730	62f9fbc07e4fc1bfe47070e5	86138434	1	main_z	7	main_z	11	stimuli_distractor_trianglediamonds.svg	stimuli_target_diamondsquares.svg	28	yes	44	1	1216
6.6.1	win	2022-12-15	15:56:09	16:00:07	236730	62f9fbc07e4fc1bfe47070e5	86138434	1	main_z	7	advance_on_keypress_ZEE	12	stimuli_distractor_trianglediamonds.svg	stimuli_target_diamondsquares.svg	28	yes	57	0	576
6.6.1	win	2022-12-15	15:56:09	16:00:11	239926	62f9fbc07e4fc1bfe47070e5	86138434	1	main_z	7	main_z	13	stimuli_distractor_trianglediamonds.svg	stimuli_distractor_trianglediamonds.svg	34	no	0	1	2003
6.6.1	win	2022-12-15	15:56:09	16:00:11	239926	62f9fbc07e4fc1bfe47070e5	86138434	1	main_z	7	advance_on_keypress_ZEE	14	stimuli_distractor_trianglediamonds.svg	stimuli_distractor_trianglediamonds.svg	34	no	57	0	428
6.6.1	win	2022-12-15	15:56:09	16:00:12	241399	62f9fbc07e4fc1bfe47070e5	86138434	1	main_z	7	main_z	15	stimuli_target_diamondcircles.svg	stimuli_distractor_diamondtriangles.svg	23	yes	44	1	421
6.6.1	win	2022-12-15	15:56:09	16:00:12	241399	62f9fbc07e4fc1bfe47070e5	86138434	1	main_z	7	advance_on_keypress_ZEE	16	stimuli_target_diamondcircles.svg	stimuli_distractor_diamondtriangles.svg	23	yes	57	0	490
6.6.1	win	2022-12-15	15:56:09	16:00:14	243008	62f9fbc07e4fc1bfe47070e5	86138434	1	main_z	7	main_z	17	stimuli_distractor_diamondtriangles.svg	stimuli_target_trianglecircles.svg	29	yes	44	1	495
6.6.1	win	2022-12-15	15:56:09	16:00:14	243008	62f9fbc07e4fc1bfe47070e5	86138434	1	main_z	7	advance_on_keypress_ZEE	18	stimuli_distractor_diamondtriangles.svg	stimuli_target_trianglecircles.svg	29	yes	57	0	393
6.6.1	win	2022-12-15	15:56:09	16:00:17	246022	62f9fbc07e4fc1bfe47070e5	86138434	1	main_z	7	main_z	19	stimuli_target_circletriangles.svg	stimuli_distractor_trianglediamonds.svg	1	yes	0	0	2003
6.6.1	win	2022-12-15	15:56:09	16:00:17	246022	62f9fbc07e4fc1bfe47070e5	86138434	1	main_z	7	advance_on_keypress_ZEE	20	stimuli_target_circletriangles.svg	stimuli_distractor_trianglediamonds.svg	1	yes	57	0	392
6.6.1	win	2022-12-15	15:56:09	16:00:19	248148	62f9fbc07e4fc1bfe47070e5	86138434	1	main_z	7	main_z	21	stimuli_distractor_diamondtriangles.svg	stimuli_target_circlediamonds.svg	14	yes	44	1	1109
6.6.1	win	2022-12-15	15:56:09	16:00:19	248148	62f9fbc07e4fc1bfe47070e5	86138434	1	main_z	7	advance_on_keypress_ZEE	22	stimuli_distractor_diamondtriangles.svg	stimuli_target_circlediamonds.svg	14	yes	57	0	500
6.6.1	win	2022-12-15	15:56:09	16:00:22	251271	62f9fbc07e4fc1bfe47070e5	86138434	1	main_z	7	main_z	23	stimuli_distractor_diamondtriangles.svg	stimuli_distractor_diamondtriangles.svg	40	no	0	1	2003
6.6.1	win	2022-12-15	15:56:09	16:00:22	251271	62f9fbc07e4fc1bfe47070e5	86138434	1	main_z	7	advance_on_keypress_ZEE	24	stimuli_distractor_diamondtriangles.svg	stimuli_distractor_diamondtriangles.svg	40	no	57	0	766
6.6.1	win	2022-12-15	15:56:09	16:00:25	254652	62f9fbc07e4fc1bfe47070e5	86138434	1	main_z	7	main_z	25	stimuli_distractor_trianglediamonds.svg	stimuli_distractor_diamondtriangles.svg	36	no	0	1	2003
6.6.1	win	2022-12-15	15:56:09	16:00:25	254652	62f9fbc07e4fc1bfe47070e5	86138434	1	main_z	7	advance_on_keypress_ZEE	26	stimuli_distractor_trianglediamonds.svg	stimuli_distractor_diamondtriangles.svg	36	no	57	0	368
6.6.1	win	2022-12-15	15:56:09	16:00:28	256930	62f9fbc07e4fc1bfe47070e5	86138434	1	main_z	7	main_z	27	stimuli_distractor_diamondtriangles.svg	stimuli_target_circletriangles.svg	13	yes	44	1	1288
6.6.1	win	2022-12-15	15:56:09	16:00:28	256930	62f9fbc07e4fc1bfe47070e5	86138434	1	main_z	7	advance_on_keypress_ZEE	28	stimuli_distractor_diamondtriangles.svg	stimuli_target_circletriangles.svg	13	yes	57	0	561
6.6.1	win	2022-12-15	15:56:09	16:00:30	258925	62f9fbc07e4fc1bfe47070e5	86138434	1	main_z	7	main_z	29	stimuli_target_diamondsquares.svg	stimuli_distractor_trianglediamonds.svg	20	yes	44	1	811
6.6.1	win	2022-12-15	15:56:09	16:00:30	258925	62f9fbc07e4fc1bfe47070e5	86138434	1	main_z	7	advance_on_keypress_ZEE	30	stimuli_target_diamondsquares.svg	stimuli_distractor_trianglediamonds.svg	20	yes	57	0	457
6.6.1	win	2022-12-15	15:56:09	16:00:31	260457	62f9fbc07e4fc1bfe47070e5	86138434	1	main_z	7	main_z	31	stimuli_distractor_diamondtriangles.svg	stimuli_target_trianglesquares.svg	30	yes	44	1	455
6.6.1	win	2022-12-15	15:56:09	16:00:31	260457	62f9fbc07e4fc1bfe47070e5	86138434	1	main_z	7	advance_on_keypress_ZEE	32	stimuli_distractor_diamondtriangles.svg	stimuli_target_trianglesquares.svg	30	yes	57	0	515
6.6.1	win	2022-12-15	15:56:09	16:00:33	262029	62f9fbc07e4fc1bfe47070e5	86138434	1	main_z	7	main_z	33	stimuli_distractor_diamondtriangles.svg	stimuli_target_diamondcircles.svg	31	yes	44	1	444
6.6.1	win	2022-12-15	15:56:09	16:00:33	262029	62f9fbc07e4fc1bfe47070e5	86138434	1	main_z	7	advance_on_keypress_ZEE	34	stimuli_distractor_diamondtriangles.svg	stimuli_target_diamondcircles.svg	31	yes	57	0	426
6.6.1	win	2022-12-15	15:56:09	16:00:34	263754	62f9fbc07e4fc1bfe47070e5	86138434	1	main_z	7	main_z	35	stimuli_distractor_trianglediamonds.svg	stimuli_target_squarediamonds.svg	12	yes	44	1	676
6.6.1	win	2022-12-15	15:56:09	16:00:34	263754	62f9fbc07e4fc1bfe47070e5	86138434	1	main_z	7	advance_on_keypress_ZEE	36	stimuli_distractor_trianglediamonds.svg	stimuli_target_squarediamonds.svg	12	yes	57	0	455
6.6.1	win	2022-12-15	15:56:09	16:00:36	265447	62f9fbc07e4fc1bfe47070e5	86138434	1	main_z	7	main_z	37	stimuli_distractor_trianglediamonds.svg	stimuli_target_trianglecircles.svg	25	yes	44	1	626
6.6.1	win	2022-12-15	15:56:09	16:00:36	265447	62f9fbc07e4fc1bfe47070e5	86138434	1	main_z	7	advance_on_keypress_ZEE	38	stimuli_distractor_trianglediamonds.svg	stimuli_target_trianglecircles.svg	25	yes	57	0	380
6.6.1	win	2022-12-15	15:56:09	16:00:39	268448	62f9fbc07e4fc1bfe47070e5	86138434	1	main_z	7	main_z	39	stimuli_distractor_trianglediamonds.svg	stimuli_distractor_trianglediamonds.svg	33	no	0	1	2003
6.6.1	win	2022-12-15	15:56:09	16:00:39	268448	62f9fbc07e4fc1bfe47070e5	86138434	1	main_z	7	advance_on_keypress_ZEE	40	stimuli_distractor_trianglediamonds.svg	stimuli_distractor_trianglediamonds.svg	33	no	57	0	242
6.6.1	win	2022-12-15	15:56:09	16:00:40	269723	62f9fbc07e4fc1bfe47070e5	86138434	1	main_z	7	main_z	41	stimuli_target_trianglecircles.svg	stimuli_distractor_trianglediamonds.svg	17	yes	44	1	411
6.6.1	win	2022-12-15	15:56:09	16:00:40	269723	62f9fbc07e4fc1bfe47070e5	86138434	1	main_z	7	advance_on_keypress_ZEE	42	stimuli_target_trianglecircles.svg	stimuli_distractor_trianglediamonds.svg	17	yes	57	0	397
6.6.1	win	2022-12-15	15:56:09	16:00:42	271236	62f9fbc07e4fc1bfe47070e5	86138434	1	main_z	7	main_z	43	stimuli_target_diamondcircles.svg	stimuli_distractor_trianglediamonds.svg	19	yes	44	1	500
6.6.1	win	2022-12-15	15:56:09	16:00:42	271236	62f9fbc07e4fc1bfe47070e5	86138434	1	main_z	7	advance_on_keypress_ZEE	44	stimuli_target_diamondcircles.svg	stimuli_distractor_trianglediamonds.svg	19	yes	57	0	371
6.6.1	win	2022-12-15	15:56:09	16:00:43	272558	62f9fbc07e4fc1bfe47070e5	86138434	1	main_z	7	main_z	45	stimuli_distractor_trianglediamonds.svg	stimuli_target_circlediamonds.svg	10	yes	44	1	337
6.6.1	win	2022-12-15	15:56:09	16:00:43	272558	62f9fbc07e4fc1bfe47070e5	86138434	1	main_z	7	advance_on_keypress_ZEE	46	stimuli_distractor_trianglediamonds.svg	stimuli_target_circlediamonds.svg	10	yes	57	0	554
6.6.1	win	2022-12-15	15:56:09	16:00:45	274165	62f9fbc07e4fc1bfe47070e5	86138434	1	main_z	7	main_z	47	stimuli_distractor_trianglediamonds.svg	stimuli_target_diamondcircles.svg	27	yes	44	1	436
6.6.1	win	2022-12-15	15:56:09	16:00:45	274165	62f9fbc07e4fc1bfe47070e5	86138434	1	main_z	7	advance_on_keypress_ZEE	48	stimuli_distractor_trianglediamonds.svg	stimuli_target_diamondcircles.svg	27	yes	57	0	400
6.6.1	win	2022-12-15	15:56:09	16:00:48	277189	62f9fbc07e4fc1bfe47070e5	86138434	1	main_z	7	main_z	49	stimuli_distractor_trianglediamonds.svg	stimuli_distractor_diamondtriangles.svg	35	no	0	1	2003
6.6.1	win	2022-12-15	15:56:09	16:00:48	277189	62f9fbc07e4fc1bfe47070e5	86138434	1	main_z	7	advance_on_keypress_ZEE	50	stimuli_distractor_trianglediamonds.svg	stimuli_distractor_diamondtriangles.svg	35	no	57	0	272
6.6.1	win	2022-12-15	15:56:09	16:00:49	278806	62f9fbc07e4fc1bfe47070e5	86138434	1	main_z	7	main_z	51	stimuli_target_squaretriangles.svg	stimuli_distractor_diamondtriangles.svg	7	yes	44	1	731
6.6.1	win	2022-12-15	15:56:09	16:00:49	278806	62f9fbc07e4fc1bfe47070e5	86138434	1	main_z	7	advance_on_keypress_ZEE	52	stimuli_target_squaretriangles.svg	stimuli_distractor_diamondtriangles.svg	7	yes	57	0	423
6.6.1	win	2022-12-15	15:56:09	16:00:53	281848	62f9fbc07e4fc1bfe47070e5	86138434	1	main_z	7	main_z	53	stimuli_distractor_diamondtriangles.svg	stimuli_distractor_diamondtriangles.svg	39	no	0	1	2003
6.6.1	win	2022-12-15	15:56:09	16:00:53	281848	62f9fbc07e4fc1bfe47070e5	86138434	1	main_z	7	advance_on_keypress_ZEE	54	stimuli_distractor_diamondtriangles.svg	stimuli_distractor_diamondtriangles.svg	39	no	57	0	262
6.6.1	win	2022-12-15	15:56:09	16:00:54	283290	62f9fbc07e4fc1bfe47070e5	86138434	1	main_z	7	main_z	55	stimuli_target_trianglesquares.svg	stimuli_distractor_diamondtriangles.svg	22	yes	44	1	563
6.6.1	win	2022-12-15	15:56:09	16:00:54	283290	62f9fbc07e4fc1bfe47070e5	86138434	1	main_z	7	advance_on_keypress_ZEE	56	stimuli_target_trianglesquares.svg	stimuli_distractor_diamondtriangles.svg	22	yes	57	0	438
6.6.1	win	2022-12-15	15:56:09	16:00:56	284862	62f9fbc07e4fc1bfe47070e5	86138434	1	main_z	7	main_z	57	stimuli_distractor_diamondtriangles.svg	stimuli_target_squaretriangles.svg	15	yes	44	1	517
6.6.1	win	2022-12-15	15:56:09	16:00:56	284862	62f9fbc07e4fc1bfe47070e5	86138434	1	main_z	7	advance_on_keypress_ZEE	58	stimuli_distractor_diamondtriangles.svg	stimuli_target_squaretriangles.svg	15	yes	57	0	343
6.6.1	win	2022-12-15	15:56:09	16:00:59	287827	62f9fbc07e4fc1bfe47070e5	86138434	1	main_z	7	main_z	59	stimuli_distractor_diamondtriangles.svg	stimuli_distractor_trianglediamonds.svg	37	no	0	1	2003
6.6.1	win	2022-12-15	15:56:09	16:00:59	287827	62f9fbc07e4fc1bfe47070e5	86138434	1	main_z	7	advance_on_keypress_ZEE	60	stimuli_distractor_diamondtriangles.svg	stimuli_distractor_trianglediamonds.svg	37	no	57	0	207
6.6.1	win	2022-12-15	15:56:09	16:01:00	289102	62f9fbc07e4fc1bfe47070e5	86138434	1	main_z	7	main_z	61	stimuli_target_squarediamonds.svg	stimuli_distractor_diamondtriangles.svg	8	yes	44	1	446
6.6.1	win	2022-12-15	15:56:09	16:01:00	289102	62f9fbc07e4fc1bfe47070e5	86138434	1	main_z	7	advance_on_keypress_ZEE	62	stimuli_target_squarediamonds.svg	stimuli_distractor_diamondtriangles.svg	8	yes	57	0	336
6.6.1	win	2022-12-15	15:56:09	16:01:01	290435	62f9fbc07e4fc1bfe47070e5	86138434	1	main_z	7	main_z	63	stimuli_target_squaretriangles.svg	stimuli_distractor_trianglediamonds.svg	3	yes	44	1	376
6.6.1	win	2022-12-15	15:56:09	16:01:01	290435	62f9fbc07e4fc1bfe47070e5	86138434	1	main_z	7	advance_on_keypress_ZEE	64	stimuli_target_squaretriangles.svg	stimuli_distractor_trianglediamonds.svg	3	yes	57	0	324
6.6.1	win	2022-12-15	15:56:09	16:01:02	291739	62f9fbc07e4fc1bfe47070e5	86138434	1	main_z	7	main_z	65	stimuli_distractor_diamondtriangles.svg	stimuli_target_diamondsquares.svg	32	yes	44	1	361
6.6.1	win	2022-12-15	15:56:09	16:01:02	291739	62f9fbc07e4fc1bfe47070e5	86138434	1	main_z	7	advance_on_keypress_ZEE	66	stimuli_distractor_diamondtriangles.svg	stimuli_target_diamondsquares.svg	32	yes	57	0	762
6.6.1	win	2022-12-15	15:56:09	16:01:05	294013	62f9fbc07e4fc1bfe47070e5	86138434	1	main_z	7	main_z	67	stimuli_target_circletriangles.svg	stimuli_distractor_diamondtriangles.svg	5	yes	44	1	892
6.6.1	win	2022-12-15	15:56:09	16:01:05	294013	62f9fbc07e4fc1bfe47070e5	86138434	1	main_z	7	advance_on_keypress_ZEE	68	stimuli_target_circletriangles.svg	stimuli_distractor_diamondtriangles.svg	5	yes	57	0	882
6.6.1	win	2022-12-15	15:56:09	16:01:07	296341	62f9fbc07e4fc1bfe47070e5	86138434	1	main_z	7	main_z	69	stimuli_distractor_trianglediamonds.svg	stimuli_target_trianglesquares.svg	26	yes	44	1	831
6.6.1	win	2022-12-15	15:56:09	16:01:07	296341	62f9fbc07e4fc1bfe47070e5	86138434	1	main_z	7	advance_on_keypress_ZEE	70	stimuli_distractor_trianglediamonds.svg	stimuli_target_trianglesquares.svg	26	yes	57	0	489
6.6.1	win	2022-12-15	15:56:09	16:01:09	298000	62f9fbc07e4fc1bfe47070e5	86138434	1	main_z	7	main_z	71	stimuli_distractor_diamondtriangles.svg	stimuli_target_squarediamonds.svg	16	yes	44	1	554
6.6.1	win	2022-12-15	15:56:09	16:01:09	298000	62f9fbc07e4fc1bfe47070e5	86138434	1	main_z	7	advance_on_keypress_ZEE	72	stimuli_distractor_diamondtriangles.svg	stimuli_target_squarediamonds.svg	16	yes	57	0	463
6.6.1	win	2022-12-15	15:56:09	16:01:10	299577	62f9fbc07e4fc1bfe47070e5	86138434	1	main_z	7	main_z	73	stimuli_target_circlediamonds.svg	stimuli_distractor_trianglediamonds.svg	2	yes	44	1	492
6.6.1	win	2022-12-15	15:56:09	16:01:10	299577	62f9fbc07e4fc1bfe47070e5	86138434	1	main_z	7	advance_on_keypress_ZEE	74	stimuli_target_circlediamonds.svg	stimuli_distractor_trianglediamonds.svg	2	yes	57	0	373
6.6.1	win	2022-12-15	15:56:09	16:01:12	300901	62f9fbc07e4fc1bfe47070e5	86138434	1	main_z	7	main_z	75	stimuli_distractor_trianglediamonds.svg	stimuli_target_circletriangles.svg	9	yes	44	1	330
6.6.1	win	2022-12-15	15:56:09	16:01:12	300901	62f9fbc07e4fc1bfe47070e5	86138434	1	main_z	7	advance_on_keypress_ZEE	76	stimuli_distractor_trianglediamonds.svg	stimuli_target_circletriangles.svg	9	yes	57	0	320
6.6.1	win	2022-12-15	15:56:09	16:01:15	303844	62f9fbc07e4fc1bfe47070e5	86138434	1	main_z	7	main_z	77	stimuli_distractor_diamondtriangles.svg	stimuli_distractor_trianglediamonds.svg	38	no	0	1	2003
6.6.1	win	2022-12-15	15:56:09	16:01:15	303844	62f9fbc07e4fc1bfe47070e5	86138434	1	main_z	7	advance_on_keypress_ZEE	78	stimuli_distractor_diamondtriangles.svg	stimuli_distractor_trianglediamonds.svg	38	no	57	0	209
6.6.1	win	2022-12-15	15:56:09	16:01:16	305168	62f9fbc07e4fc1bfe47070e5	86138434	1	main_z	7	main_z	79	stimuli_target_circlediamonds.svg	stimuli_distractor_diamondtriangles.svg	6	yes	44	1	502
6.6.1	win	2022-12-15	15:56:09	16:01:16	305168	62f9fbc07e4fc1bfe47070e5	86138434	1	main_z	7	advance_on_keypress_ZEE	80	stimuli_target_circlediamonds.svg	stimuli_distractor_diamondtriangles.svg	6	yes	57	0	424
6.6.1	win	2022-12-15	15:56:09	16:01:17	306744	62f9fbc07e4fc1bfe47070e5	86138434	1	main_z	7	main_z	81	stimuli_target_diamondcircles.svg	stimuli_distractor_trianglediamonds.svg	19	yes	44	1	535
6.6.1	win	2022-12-15	15:56:09	16:01:17	306744	62f9fbc07e4fc1bfe47070e5	86138434	1	main_z	7	advance_on_keypress_ZEE	82	stimuli_target_diamondcircles.svg	stimuli_distractor_trianglediamonds.svg	19	yes	57	0	386
6.6.1	win	2022-12-15	15:56:09	16:01:19	308379	62f9fbc07e4fc1bfe47070e5	86138434	1	main_z	7	main_z	83	stimuli_target_circlediamonds.svg	stimuli_distractor_trianglediamonds.svg	2	yes	44	1	629
6.6.1	win	2022-12-15	15:56:09	16:01:19	308379	62f9fbc07e4fc1bfe47070e5	86138434	1	main_z	7	advance_on_keypress_ZEE	84	stimuli_target_circlediamonds.svg	stimuli_distractor_trianglediamonds.svg	2	yes	57	0	345
6.6.1	win	2022-12-15	15:56:09	16:01:21	309828	62f9fbc07e4fc1bfe47070e5	86138434	1	main_z	7	main_z	85	stimuli_distractor_diamondtriangles.svg	stimuli_target_squaretriangles.svg	15	yes	44	1	481
6.6.1	win	2022-12-15	15:56:09	16:01:21	309828	62f9fbc07e4fc1bfe47070e5	86138434	1	main_z	7	advance_on_keypress_ZEE	86	stimuli_distractor_diamondtriangles.svg	stimuli_target_squaretriangles.svg	15	yes	57	0	353
6.6.1	win	2022-12-15	15:56:09	16:01:22	311244	62f9fbc07e4fc1bfe47070e5	86138434	1	main_z	7	main_z	87	stimuli_distractor_diamondtriangles.svg	stimuli_target_circletriangles.svg	13	yes	44	1	446
6.6.1	win	2022-12-15	15:56:09	16:01:22	311244	62f9fbc07e4fc1bfe47070e5	86138434	1	main_z	7	advance_on_keypress_ZEE	88	stimuli_distractor_diamondtriangles.svg	stimuli_target_circletriangles.svg	13	yes	57	0	324
6.6.1	win	2022-12-15	15:56:09	16:01:24	313007	62f9fbc07e4fc1bfe47070e5	86138434	1	main_z	7	main_z	89	stimuli_target_trianglesquares.svg	stimuli_distractor_trianglediamonds.svg	18	yes	44	1	820
6.6.1	win	2022-12-15	15:56:09	16:01:24	313007	62f9fbc07e4fc1bfe47070e5	86138434	1	main_z	7	advance_on_keypress_ZEE	90	stimuli_target_trianglesquares.svg	stimuli_distractor_trianglediamonds.svg	18	yes	57	0	338
6.6.1	win	2022-12-15	15:56:09	16:01:25	314371	62f9fbc07e4fc1bfe47070e5	86138434	1	main_z	7	main_z	91	stimuli_distractor_diamondtriangles.svg	stimuli_target_circlediamonds.svg	14	yes	44	1	407
6.6.1	win	2022-12-15	15:56:09	16:01:25	314371	62f9fbc07e4fc1bfe47070e5	86138434	1	main_z	7	advance_on_keypress_ZEE	92	stimuli_distractor_diamondtriangles.svg	stimuli_target_circlediamonds.svg	14	yes	57	0	324
6.6.1	win	2022-12-15	15:56:09	16:01:26	315736	62f9fbc07e4fc1bfe47070e5	86138434	1	main_z	7	main_z	93	stimuli_target_trianglecircles.svg	stimuli_distractor_trianglediamonds.svg	17	yes	44	1	418
6.6.1	win	2022-12-15	15:56:09	16:01:26	315736	62f9fbc07e4fc1bfe47070e5	86138434	1	main_z	7	advance_on_keypress_ZEE	94	stimuli_target_trianglecircles.svg	stimuli_distractor_trianglediamonds.svg	17	yes	57	0	312
6.6.1	win	2022-12-15	15:56:09	16:01:28	317127	62f9fbc07e4fc1bfe47070e5	86138434	1	main_z	7	main_z	95	stimuli_target_squarediamonds.svg	stimuli_distractor_diamondtriangles.svg	8	yes	44	1	462
6.6.1	win	2022-12-15	15:56:09	16:01:28	317127	62f9fbc07e4fc1bfe47070e5	86138434	1	main_z	7	advance_on_keypress_ZEE	96	stimuli_target_squarediamonds.svg	stimuli_distractor_diamondtriangles.svg	8	yes	57	0	298
6.6.1	win	2022-12-15	15:56:09	16:01:29	318686	62f9fbc07e4fc1bfe47070e5	86138434	1	main_z	7	main_z	97	stimuli_distractor_trianglediamonds.svg	stimuli_target_trianglesquares.svg	26	yes	44	1	639
6.6.1	win	2022-12-15	15:56:09	16:01:29	318686	62f9fbc07e4fc1bfe47070e5	86138434	1	main_z	7	advance_on_keypress_ZEE	98	stimuli_distractor_trianglediamonds.svg	stimuli_target_trianglesquares.svg	26	yes	57	0	291
6.6.1	win	2022-12-15	15:56:09	16:01:31	320074	62f9fbc07e4fc1bfe47070e5	86138434	1	main_z	7	main_z	99	stimuli_target_diamondcircles.svg	stimuli_distractor_diamondtriangles.svg	23	yes	44	1	479
6.6.1	win	2022-12-15	15:56:09	16:01:31	320074	62f9fbc07e4fc1bfe47070e5	86138434	1	main_z	7	advance_on_keypress_ZEE	100	stimuli_target_diamondcircles.svg	stimuli_distractor_diamondtriangles.svg	23	yes	57	0	340
6.6.1	win	2022-12-15	15:56:09	16:01:32	321414	62f9fbc07e4fc1bfe47070e5	86138434	1	main_z	7	main_z	101	stimuli_distractor_trianglediamonds.svg	stimuli_target_circlediamonds.svg	10	yes	44	1	382
6.6.1	win	2022-12-15	15:56:09	16:01:32	321414	62f9fbc07e4fc1bfe47070e5	86138434	1	main_z	7	advance_on_keypress_ZEE	102	stimuli_distractor_trianglediamonds.svg	stimuli_target_circlediamonds.svg	10	yes	57	0	315
6.6.1	win	2022-12-15	15:56:09	16:01:33	322789	62f9fbc07e4fc1bfe47070e5	86138434	1	main_z	7	main_z	103	stimuli_target_circlediamonds.svg	stimuli_distractor_diamondtriangles.svg	6	yes	44	1	445
6.6.1	win	2022-12-15	15:56:09	16:01:33	322789	62f9fbc07e4fc1bfe47070e5	86138434	1	main_z	7	advance_on_keypress_ZEE	104	stimuli_target_circlediamonds.svg	stimuli_distractor_diamondtriangles.svg	6	yes	57	0	318
6.6.1	win	2022-12-15	15:56:09	16:01:36	325729	62f9fbc07e4fc1bfe47070e5	86138434	1	main_z	7	main_z	105	stimuli_distractor_diamondtriangles.svg	stimuli_distractor_trianglediamonds.svg	37	no	0	1	2003
6.6.1	win	2022-12-15	15:56:09	16:01:36	325729	62f9fbc07e4fc1bfe47070e5	86138434	1	main_z	7	advance_on_keypress_ZEE	106	stimuli_distractor_diamondtriangles.svg	stimuli_distractor_trianglediamonds.svg	37	no	57	0	494
6.6.1	win	2022-12-15	15:56:09	16:01:38	327376	62f9fbc07e4fc1bfe47070e5	86138434	1	main_z	7	main_z	107	stimuli_distractor_trianglediamonds.svg	stimuli_target_diamondsquares.svg	28	yes	44	1	522
6.6.1	win	2022-12-15	15:56:09	16:01:38	327376	62f9fbc07e4fc1bfe47070e5	86138434	1	main_z	7	advance_on_keypress_ZEE	108	stimuli_distractor_trianglediamonds.svg	stimuli_target_diamondsquares.svg	28	yes	57	0	365
6.6.1	win	2022-12-15	15:56:09	16:01:39	328668	62f9fbc07e4fc1bfe47070e5	86138434	1	main_z	7	main_z	109	stimuli_target_circletriangles.svg	stimuli_distractor_diamondtriangles.svg	5	yes	44	1	304
6.6.1	win	2022-12-15	15:56:09	16:01:39	328668	62f9fbc07e4fc1bfe47070e5	86138434	1	main_z	7	advance_on_keypress_ZEE	110	stimuli_target_circletriangles.svg	stimuli_distractor_diamondtriangles.svg	5	yes	57	0	360
6.6.1	win	2022-12-15	15:56:09	16:01:41	330123	62f9fbc07e4fc1bfe47070e5	86138434	1	main_z	7	main_z	111	stimuli_distractor_trianglediamonds.svg	stimuli_target_trianglecircles.svg	25	yes	44	1	476
6.6.1	win	2022-12-15	15:56:09	16:01:41	330123	62f9fbc07e4fc1bfe47070e5	86138434	1	main_z	7	advance_on_keypress_ZEE	112	stimuli_distractor_trianglediamonds.svg	stimuli_target_trianglecircles.svg	25	yes	57	0	270
6.6.1	win	2022-12-15	15:56:09	16:01:42	331474	62f9fbc07e4fc1bfe47070e5	86138434	1	main_z	7	main_z	113	stimuli_target_trianglesquares.svg	stimuli_distractor_diamondtriangles.svg	22	yes	44	1	465
6.6.1	win	2022-12-15	15:56:09	16:01:42	331474	62f9fbc07e4fc1bfe47070e5	86138434	1	main_z	7	advance_on_keypress_ZEE	114	stimuli_target_trianglesquares.svg	stimuli_distractor_diamondtriangles.svg	22	yes	57	0	361
6.6.1	win	2022-12-15	15:56:09	16:01:44	332955	62f9fbc07e4fc1bfe47070e5	86138434	1	main_z	7	main_z	115	stimuli_distractor_trianglediamonds.svg	stimuli_target_squaretriangles.svg	11	yes	44	1	503
6.6.1	win	2022-12-15	15:56:09	16:01:44	332955	62f9fbc07e4fc1bfe47070e5	86138434	1	main_z	7	advance_on_keypress_ZEE	116	stimuli_distractor_trianglediamonds.svg	stimuli_target_squaretriangles.svg	11	yes	57	0	449
6.6.1	win	2022-12-15	15:56:09	16:01:47	336026	62f9fbc07e4fc1bfe47070e5	86138434	1	main_z	7	main_z	117	stimuli_distractor_trianglediamonds.svg	stimuli_distractor_diamondtriangles.svg	35	no	0	1	2003
6.6.1	win	2022-12-15	15:56:09	16:01:47	336026	62f9fbc07e4fc1bfe47070e5	86138434	1	main_z	7	advance_on_keypress_ZEE	118	stimuli_distractor_trianglediamonds.svg	stimuli_distractor_diamondtriangles.svg	35	no	57	0	549
6.6.1	win	2022-12-15	15:56:09	16:01:48	337600	62f9fbc07e4fc1bfe47070e5	86138434	1	main_z	7	main_z	119	stimuli_target_circletriangles.svg	stimuli_distractor_trianglediamonds.svg	1	yes	44	1	404
6.6.1	win	2022-12-15	15:56:09	16:01:48	337600	62f9fbc07e4fc1bfe47070e5	86138434	1	main_z	7	advance_on_keypress_ZEE	120	stimuli_target_circletriangles.svg	stimuli_distractor_trianglediamonds.svg	1	yes	57	0	269
6.6.1	win	2022-12-15	15:56:09	16:01:50	339199	62f9fbc07e4fc1bfe47070e5	86138434	1	main_z	7	main_z	121	stimuli_distractor_diamondtriangles.svg	stimuli_target_trianglecircles.svg	29	yes	44	1	713
6.6.1	win	2022-12-15	15:56:09	16:01:50	339199	62f9fbc07e4fc1bfe47070e5	86138434	1	main_z	7	advance_on_keypress_ZEE	122	stimuli_distractor_diamondtriangles.svg	stimuli_target_trianglecircles.svg	29	yes	57	0	339
6.6.1	win	2022-12-15	15:56:09	16:01:51	340600	62f9fbc07e4fc1bfe47070e5	86138434	1	main_z	7	main_z	123	stimuli_target_squarediamonds.svg	stimuli_distractor_trianglediamonds.svg	4	yes	44	1	440
6.6.1	win	2022-12-15	15:56:09	16:01:51	340600	62f9fbc07e4fc1bfe47070e5	86138434	1	main_z	7	advance_on_keypress_ZEE	124	stimuli_target_squarediamonds.svg	stimuli_distractor_trianglediamonds.svg	4	yes	57	0	235
6.6.1	win	2022-12-15	15:56:09	16:01:53	342231	62f9fbc07e4fc1bfe47070e5	86138434	1	main_z	7	main_z	125	stimuli_distractor_diamondtriangles.svg	stimuli_distractor_trianglediamonds.svg	38	no	44	0	780
6.6.1	win	2022-12-15	15:56:09	16:01:53	342231	62f9fbc07e4fc1bfe47070e5	86138434	1	main_z	7	advance_on_keypress_ZEE	126	stimuli_distractor_diamondtriangles.svg	stimuli_distractor_trianglediamonds.svg	38	no	57	0	317
6.6.1	win	2022-12-15	15:56:09	16:01:54	343619	62f9fbc07e4fc1bfe47070e5	86138434	1	main_z	7	main_z	127	stimuli_target_trianglecircles.svg	stimuli_distractor_diamondtriangles.svg	21	yes	44	1	453
6.6.1	win	2022-12-15	15:56:09	16:01:54	343619	62f9fbc07e4fc1bfe47070e5	86138434	1	main_z	7	advance_on_keypress_ZEE	128	stimuli_target_trianglecircles.svg	stimuli_distractor_diamondtriangles.svg	21	yes	57	0	307
6.6.1	win	2022-12-15	15:56:09	16:01:56	345115	62f9fbc07e4fc1bfe47070e5	86138434	1	main_z	7	main_z	129	stimuli_distractor_diamondtriangles.svg	stimuli_target_squarediamonds.svg	16	yes	44	1	575
6.6.1	win	2022-12-15	15:56:09	16:01:56	345115	62f9fbc07e4fc1bfe47070e5	86138434	1	main_z	7	advance_on_keypress_ZEE	130	stimuli_distractor_diamondtriangles.svg	stimuli_target_squarediamonds.svg	16	yes	57	0	368
6.6.1	win	2022-12-15	15:56:09	16:01:57	346520	62f9fbc07e4fc1bfe47070e5	86138434	1	main_z	7	main_z	131	stimuli_distractor_trianglediamonds.svg	stimuli_target_circletriangles.svg	9	yes	44	1	417
6.6.1	win	2022-12-15	15:56:09	16:01:57	346520	62f9fbc07e4fc1bfe47070e5	86138434	1	main_z	7	advance_on_keypress_ZEE	132	stimuli_distractor_trianglediamonds.svg	stimuli_target_circletriangles.svg	9	yes	57	0	292
6.6.1	win	2022-12-15	15:56:09	16:01:59	347986	62f9fbc07e4fc1bfe47070e5	86138434	1	main_z	7	main_z	133	stimuli_target_squaretriangles.svg	stimuli_distractor_trianglediamonds.svg	3	yes	44	1	557
6.6.1	win	2022-12-15	15:56:09	16:01:59	347986	62f9fbc07e4fc1bfe47070e5	86138434	1	main_z	7	advance_on_keypress_ZEE	134	stimuli_target_squaretriangles.svg	stimuli_distractor_trianglediamonds.svg	3	yes	57	0	387
6.6.1	win	2022-12-15	15:56:09	16:02:00	349474	62f9fbc07e4fc1bfe47070e5	86138434	1	main_z	7	main_z	135	stimuli_distractor_trianglediamonds.svg	stimuli_target_diamondcircles.svg	27	yes	44	1	483
6.6.1	win	2022-12-15	15:56:09	16:02:00	349474	62f9fbc07e4fc1bfe47070e5	86138434	1	main_z	7	advance_on_keypress_ZEE	136	stimuli_distractor_trianglediamonds.svg	stimuli_target_diamondcircles.svg	27	yes	57	0	333
6.6.1	win	2022-12-15	15:56:09	16:02:01	350785	62f9fbc07e4fc1bfe47070e5	86138434	1	main_z	7	main_z	137	stimuli_target_diamondsquares.svg	stimuli_distractor_trianglediamonds.svg	20	yes	44	1	356
6.6.1	win	2022-12-15	15:56:09	16:02:01	350785	62f9fbc07e4fc1bfe47070e5	86138434	1	main_z	7	advance_on_keypress_ZEE	138	stimuli_target_diamondsquares.svg	stimuli_distractor_trianglediamonds.svg	20	yes	57	0	271
6.6.1	win	2022-12-15	15:56:09	16:02:03	352289	62f9fbc07e4fc1bfe47070e5	86138434	1	main_z	7	main_z	139	stimuli_target_diamondsquares.svg	stimuli_distractor_diamondtriangles.svg	24	yes	44	1	617
6.6.1	win	2022-12-15	15:56:09	16:02:03	352289	62f9fbc07e4fc1bfe47070e5	86138434	1	main_z	7	advance_on_keypress_ZEE	140	stimuli_target_diamondsquares.svg	stimuli_distractor_diamondtriangles.svg	24	yes	57	0	348
6.6.1	win	2022-12-15	15:56:09	16:02:04	353657	62f9fbc07e4fc1bfe47070e5	86138434	1	main_z	7	main_z	141	stimuli_target_squaretriangles.svg	stimuli_distractor_diamondtriangles.svg	7	yes	44	1	402
6.6.1	win	2022-12-15	15:56:09	16:02:04	353657	62f9fbc07e4fc1bfe47070e5	86138434	1	main_z	7	advance_on_keypress_ZEE	142	stimuli_target_squaretriangles.svg	stimuli_distractor_diamondtriangles.svg	7	yes	57	0	833
6.6.1	win	2022-12-15	15:56:09	16:02:08	357111	62f9fbc07e4fc1bfe47070e5	86138434	1	main_z	7	main_z	143	stimuli_distractor_trianglediamonds.svg	stimuli_distractor_trianglediamonds.svg	34	no	0	1	2003
6.6.1	win	2022-12-15	15:56:09	16:02:08	357111	62f9fbc07e4fc1bfe47070e5	86138434	1	main_z	7	advance_on_keypress_ZEE	144	stimuli_distractor_trianglediamonds.svg	stimuli_distractor_trianglediamonds.svg	34	no	57	0	320
6.6.1	win	2022-12-15	15:56:09	16:02:09	358461	62f9fbc07e4fc1bfe47070e5	86138434	1	main_z	7	main_z	145	stimuli_distractor_diamondtriangles.svg	stimuli_target_trianglesquares.svg	30	yes	44	1	415
6.6.1	win	2022-12-15	15:56:09	16:02:09	358461	62f9fbc07e4fc1bfe47070e5	86138434	1	main_z	7	advance_on_keypress_ZEE	146	stimuli_distractor_diamondtriangles.svg	stimuli_target_trianglesquares.svg	30	yes	57	0	340
6.6.1	win	2022-12-15	15:56:09	16:02:12	361423	62f9fbc07e4fc1bfe47070e5	86138434	1	main_z	7	main_z	147	stimuli_distractor_trianglediamonds.svg	stimuli_distractor_diamondtriangles.svg	36	no	0	1	2003
6.6.1	win	2022-12-15	15:56:09	16:02:12	361423	62f9fbc07e4fc1bfe47070e5	86138434	1	main_z	7	advance_on_keypress_ZEE	148	stimuli_distractor_trianglediamonds.svg	stimuli_distractor_diamondtriangles.svg	36	no	57	0	269
6.6.1	win	2022-12-15	15:56:09	16:02:13	362789	62f9fbc07e4fc1bfe47070e5	86138434	1	main_z	7	main_z	149	stimuli_distractor_diamondtriangles.svg	stimuli_target_diamondsquares.svg	32	yes	44	1	480
6.6.1	win	2022-12-15	15:56:09	16:02:13	362789	62f9fbc07e4fc1bfe47070e5	86138434	1	main_z	7	advance_on_keypress_ZEE	150	stimuli_distractor_diamondtriangles.svg	stimuli_target_diamondsquares.svg	32	yes	57	0	462
6.6.1	win	2022-12-15	15:56:09	16:02:17	365874	62f9fbc07e4fc1bfe47070e5	86138434	1	main_z	7	main_z	151	stimuli_distractor_diamondtriangles.svg	stimuli_distractor_diamondtriangles.svg	40	no	0	1	2003
6.6.1	win	2022-12-15	15:56:09	16:02:17	365874	62f9fbc07e4fc1bfe47070e5	86138434	1	main_z	7	advance_on_keypress_ZEE	152	stimuli_distractor_diamondtriangles.svg	stimuli_distractor_diamondtriangles.svg	40	no	57	0	612
6.6.1	win	2022-12-15	15:56:09	16:02:20	369109	62f9fbc07e4fc1bfe47070e5	86138434	1	main_z	7	main_z	153	stimuli_distractor_trianglediamonds.svg	stimuli_distractor_trianglediamonds.svg	33	no	0	1	2003
6.6.1	win	2022-12-15	15:56:09	16:02:20	369109	62f9fbc07e4fc1bfe47070e5	86138434	1	main_z	7	advance_on_keypress_ZEE	154	stimuli_distractor_trianglediamonds.svg	stimuli_distractor_trianglediamonds.svg	33	no	57	0	494
6.6.1	win	2022-12-15	15:56:09	16:02:23	372227	62f9fbc07e4fc1bfe47070e5	86138434	1	main_z	7	main_z	155	stimuli_distractor_diamondtriangles.svg	stimuli_distractor_diamondtriangles.svg	39	no	0	1	2003
6.6.1	win	2022-12-15	15:56:09	16:02:23	372227	62f9fbc07e4fc1bfe47070e5	86138434	1	main_z	7	advance_on_keypress_ZEE	156	stimuli_distractor_diamondtriangles.svg	stimuli_distractor_diamondtriangles.svg	39	no	57	0	491
6.6.1	win	2022-12-15	15:56:09	16:02:24	373813	62f9fbc07e4fc1bfe47070e5	86138434	1	main_z	7	main_z	157	stimuli_distractor_trianglediamonds.svg	stimuli_target_squarediamonds.svg	12	yes	44	1	472
6.6.1	win	2022-12-15	15:56:09	16:02:24	373813	62f9fbc07e4fc1bfe47070e5	86138434	1	main_z	7	advance_on_keypress_ZEE	158	stimuli_distractor_trianglediamonds.svg	stimuli_target_squarediamonds.svg	12	yes	57	0	317
6.6.1	win	2022-12-15	15:56:09	16:02:26	375218	62f9fbc07e4fc1bfe47070e5	86138434	1	main_z	7	main_z	159	stimuli_distractor_diamondtriangles.svg	stimuli_target_diamondcircles.svg	31	yes	44	1	467
6.6.1	win	2022-12-15	15:56:09	16:02:26	375218	62f9fbc07e4fc1bfe47070e5	86138434	1	main_z	7	advance_on_keypress_ZEE	160	stimuli_distractor_diamondtriangles.svg	stimuli_target_diamondcircles.svg	31	yes	57	0	325
6.6.1	win	2022-12-15	15:56:09	16:02:51	400543	62f9fbc07e4fc1bfe47070e5	86138434	1	practice_slash	9	practice_slash	1	stimuli_target_circlediamonds.svg	stimuli_distractor_diamondtriangles.svg	1	yes	53	1	594
6.6.1	win	2022-12-15	15:56:09	16:02:51	400543	62f9fbc07e4fc1bfe47070e5	86138434	1	practice_slash	9	advance_on_keypress_SLASH	2	stimuli_target_circlediamonds.svg	stimuli_distractor_diamondtriangles.svg	1	yes	57	0	307
6.6.1	win	2022-12-15	15:56:09	16:02:54	402840	62f9fbc07e4fc1bfe47070e5	86138434	1	practice_slash	9	practice_slash	3	stimuli_distractor_trianglediamonds.svg	stimuli_target_diamondcircles.svg	12	yes	53	1	371
6.6.1	win	2022-12-15	15:56:09	16:02:54	402840	62f9fbc07e4fc1bfe47070e5	86138434	1	practice_slash	9	advance_on_keypress_SLASH	4	stimuli_distractor_trianglediamonds.svg	stimuli_target_diamondcircles.svg	12	yes	57	0	250
6.6.1	win	2022-12-15	15:56:09	16:02:56	405024	62f9fbc07e4fc1bfe47070e5	86138434	1	practice_slash	9	practice_slash	5	stimuli_distractor_trianglediamonds.svg	stimuli_target_circlediamonds.svg	10	yes	53	1	312
6.6.1	win	2022-12-15	15:56:09	16:02:56	405024	62f9fbc07e4fc1bfe47070e5	86138434	1	practice_slash	9	advance_on_keypress_SLASH	6	stimuli_distractor_trianglediamonds.svg	stimuli_target_circlediamonds.svg	10	yes	57	0	284
6.6.1	win	2022-12-15	15:56:09	16:02:58	407460	62f9fbc07e4fc1bfe47070e5	86138434	1	practice_slash	9	practice_slash	7	stimuli_target_diamondsquares.svg	stimuli_distractor_trianglediamonds.svg	6	yes	53	1	526
6.6.1	win	2022-12-15	15:56:09	16:02:58	407460	62f9fbc07e4fc1bfe47070e5	86138434	1	practice_slash	9	advance_on_keypress_SLASH	8	stimuli_target_diamondsquares.svg	stimuli_distractor_trianglediamonds.svg	6	yes	57	0	251
6.6.1	win	2022-12-15	15:56:09	16:03:02	411332	62f9fbc07e4fc1bfe47070e5	86138434	1	practice_slash	9	practice_slash	9	stimuli_distractor_diamondtriangles.svg	stimuli_distractor_diamondtriangles.svg	13	no	0	1	2003
6.6.1	win	2022-12-15	15:56:09	16:03:02	411332	62f9fbc07e4fc1bfe47070e5	86138434	1	practice_slash	9	advance_on_keypress_SLASH	10	stimuli_distractor_diamondtriangles.svg	stimuli_distractor_diamondtriangles.svg	13	no	57	0	509
6.6.1	win	2022-12-15	15:56:09	16:03:05	413875	62f9fbc07e4fc1bfe47070e5	86138434	1	practice_slash	9	practice_slash	11	stimuli_distractor_trianglediamonds.svg	stimuli_target_squarediamonds.svg	11	yes	53	1	407
6.6.1	win	2022-12-15	15:56:09	16:03:05	413875	62f9fbc07e4fc1bfe47070e5	86138434	1	practice_slash	9	advance_on_keypress_SLASH	12	stimuli_distractor_trianglediamonds.svg	stimuli_target_squarediamonds.svg	11	yes	57	0	347
6.6.1	win	2022-12-15	15:56:09	16:03:09	417845	62f9fbc07e4fc1bfe47070e5	86138434	1	practice_slash	9	practice_slash	13	stimuli_distractor_trianglediamonds.svg	stimuli_distractor_trianglediamonds.svg	15	no	0	1	2003
6.6.1	win	2022-12-15	15:56:09	16:03:09	417845	62f9fbc07e4fc1bfe47070e5	86138434	1	practice_slash	9	advance_on_keypress_SLASH	14	stimuli_distractor_trianglediamonds.svg	stimuli_distractor_trianglediamonds.svg	15	no	57	0	535
6.6.1	win	2022-12-15	15:56:09	16:03:11	420418	62f9fbc07e4fc1bfe47070e5	86138434	1	practice_slash	9	practice_slash	15	stimuli_target_diamondsquares.svg	stimuli_distractor_diamondtriangles.svg	3	yes	53	1	418
6.6.1	win	2022-12-15	15:56:09	16:03:11	420418	62f9fbc07e4fc1bfe47070e5	86138434	1	practice_slash	9	advance_on_keypress_SLASH	16	stimuli_target_diamondsquares.svg	stimuli_distractor_diamondtriangles.svg	3	yes	57	0	761
6.6.1	win	2022-12-15	15:56:09	16:03:14	423252	62f9fbc07e4fc1bfe47070e5	86138434	1	practice_slash	9	practice_slash	17	stimuli_distractor_diamondtriangles.svg	stimuli_target_circletriangles.svg	7	yes	53	1	446
6.6.1	win	2022-12-15	15:56:09	16:03:14	423252	62f9fbc07e4fc1bfe47070e5	86138434	1	practice_slash	9	advance_on_keypress_SLASH	18	stimuli_distractor_diamondtriangles.svg	stimuli_target_circletriangles.svg	7	yes	57	0	360
6.6.1	win	2022-12-15	15:56:09	16:03:18	427239	62f9fbc07e4fc1bfe47070e5	86138434	1	practice_slash	9	practice_slash	19	stimuli_distractor_diamondtriangles.svg	stimuli_distractor_trianglediamonds.svg	14	no	0	1	2003
6.6.1	win	2022-12-15	15:56:09	16:03:18	427239	62f9fbc07e4fc1bfe47070e5	86138434	1	practice_slash	9	advance_on_keypress_SLASH	20	stimuli_distractor_diamondtriangles.svg	stimuli_distractor_trianglediamonds.svg	14	no	57	0	413
6.6.1	win	2022-12-15	15:56:09	16:03:20	429737	62f9fbc07e4fc1bfe47070e5	86138434	1	practice_slash	9	practice_slash	21	stimuli_target_circlediamonds.svg	stimuli_distractor_trianglediamonds.svg	4	yes	53	1	461
6.6.1	win	2022-12-15	15:56:09	16:03:20	429737	62f9fbc07e4fc1bfe47070e5	86138434	1	practice_slash	9	advance_on_keypress_SLASH	22	stimuli_target_circlediamonds.svg	stimuli_distractor_trianglediamonds.svg	4	yes	57	0	337
6.6.1	win	2022-12-15	15:56:09	16:03:23	432172	62f9fbc07e4fc1bfe47070e5	86138434	1	practice_slash	9	practice_slash	23	stimuli_distractor_diamondtriangles.svg	stimuli_target_trianglecircles.svg	9	yes	53	1	472
6.6.1	win	2022-12-15	15:56:09	16:03:23	432172	62f9fbc07e4fc1bfe47070e5	86138434	1	practice_slash	9	advance_on_keypress_SLASH	24	stimuli_distractor_diamondtriangles.svg	stimuli_target_trianglecircles.svg	9	yes	57	0	392
6.6.1	win	2022-12-15	15:56:09	16:03:25	434644	62f9fbc07e4fc1bfe47070e5	86138434	1	practice_slash	9	practice_slash	25	stimuli_distractor_diamondtriangles.svg	stimuli_target_diamondcircles.svg	8	yes	53	1	458
6.6.1	win	2022-12-15	15:56:09	16:03:25	434644	62f9fbc07e4fc1bfe47070e5	86138434	1	practice_slash	9	advance_on_keypress_SLASH	26	stimuli_distractor_diamondtriangles.svg	stimuli_target_diamondcircles.svg	8	yes	57	0	414
6.6.1	win	2022-12-15	15:56:09	16:03:28	437129	62f9fbc07e4fc1bfe47070e5	86138434	1	practice_slash	9	practice_slash	27	stimuli_target_squarediamonds.svg	stimuli_distractor_diamondtriangles.svg	2	yes	53	1	451
6.6.1	win	2022-12-15	15:56:09	16:03:28	437129	62f9fbc07e4fc1bfe47070e5	86138434	1	practice_slash	9	advance_on_keypress_SLASH	28	stimuli_target_squarediamonds.svg	stimuli_distractor_diamondtriangles.svg	2	yes	57	0	414
6.6.1	win	2022-12-15	15:56:09	16:03:30	439550	62f9fbc07e4fc1bfe47070e5	86138434	1	practice_slash	9	practice_slash	29	stimuli_target_squarediamonds.svg	stimuli_distractor_trianglediamonds.svg	5	yes	53	1	386
6.6.1	win	2022-12-15	15:56:09	16:03:30	439550	62f9fbc07e4fc1bfe47070e5	86138434	1	practice_slash	9	advance_on_keypress_SLASH	30	stimuli_target_squarediamonds.svg	stimuli_distractor_trianglediamonds.svg	5	yes	57	0	541
6.6.1	win	2022-12-15	15:56:09	16:03:34	443715	62f9fbc07e4fc1bfe47070e5	86138434	1	practice_slash	9	practice_slash	31	stimuli_distractor_trianglediamonds.svg	stimuli_distractor_diamondtriangles.svg	16	no	0	1	2003
6.6.1	win	2022-12-15	15:56:09	16:03:34	443715	62f9fbc07e4fc1bfe47070e5	86138434	1	practice_slash	9	advance_on_keypress_SLASH	32	stimuli_distractor_trianglediamonds.svg	stimuli_distractor_diamondtriangles.svg	16	no	57	0	248
6.6.1	win	2022-12-15	15:56:09	16:03:43	452419	62f9fbc07e4fc1bfe47070e5	86138434	1	main_slash	11	main_slash	1	stimuli_target_squaretriangles.svg	stimuli_distractor_trianglediamonds.svg	3	yes	53	1	551
6.6.1	win	2022-12-15	15:56:09	16:03:43	452419	62f9fbc07e4fc1bfe47070e5	86138434	1	main_slash	11	advance_on_keypress_SLASH	2	stimuli_target_squaretriangles.svg	stimuli_distractor_trianglediamonds.svg	3	yes	57	0	1467
6.6.1	win	2022-12-15	15:56:09	16:03:46	454962	62f9fbc07e4fc1bfe47070e5	86138434	1	main_slash	11	main_slash	3	stimuli_target_trianglecircles.svg	stimuli_distractor_diamondtriangles.svg	21	yes	53	1	456
6.6.1	win	2022-12-15	15:56:09	16:03:46	454962	62f9fbc07e4fc1bfe47070e5	86138434	1	main_slash	11	advance_on_keypress_SLASH	4	stimuli_target_trianglecircles.svg	stimuli_distractor_diamondtriangles.svg	21	yes	57	0	522
6.6.1	win	2022-12-15	15:56:09	16:03:47	456504	62f9fbc07e4fc1bfe47070e5	86138434	1	main_slash	11	main_slash	5	stimuli_distractor_diamondtriangles.svg	stimuli_target_trianglecircles.svg	29	yes	53	1	393
6.6.1	win	2022-12-15	15:56:09	16:03:47	456504	62f9fbc07e4fc1bfe47070e5	86138434	1	main_slash	11	advance_on_keypress_SLASH	6	stimuli_distractor_diamondtriangles.svg	stimuli_target_trianglecircles.svg	29	yes	57	0	471
6.6.1	win	2022-12-15	15:56:09	16:03:50	459599	62f9fbc07e4fc1bfe47070e5	86138434	1	main_slash	11	main_slash	7	stimuli_distractor_diamondtriangles.svg	stimuli_distractor_trianglediamonds.svg	38	no	0	1	2003
6.6.1	win	2022-12-15	15:56:09	16:03:50	459599	62f9fbc07e4fc1bfe47070e5	86138434	1	main_slash	11	advance_on_keypress_SLASH	8	stimuli_distractor_diamondtriangles.svg	stimuli_distractor_trianglediamonds.svg	38	no	57	0	265
6.6.1	win	2022-12-15	15:56:09	16:03:53	462487	62f9fbc07e4fc1bfe47070e5	86138434	1	main_slash	11	main_slash	9	stimuli_distractor_trianglediamonds.svg	stimuli_distractor_diamondtriangles.svg	36	no	0	1	2003
6.6.1	win	2022-12-15	15:56:09	16:03:53	462487	62f9fbc07e4fc1bfe47070e5	86138434	1	main_slash	11	advance_on_keypress_SLASH	10	stimuli_distractor_trianglediamonds.svg	stimuli_distractor_diamondtriangles.svg	36	no	57	0	261
6.6.1	win	2022-12-15	15:56:09	16:03:55	463943	62f9fbc07e4fc1bfe47070e5	86138434	1	main_slash	11	main_slash	11	stimuli_target_diamondsquares.svg	stimuli_distractor_diamondtriangles.svg	24	yes	53	1	571
6.6.1	win	2022-12-15	15:56:09	16:03:55	463943	62f9fbc07e4fc1bfe47070e5	86138434	1	main_slash	11	advance_on_keypress_SLASH	12	stimuli_target_diamondsquares.svg	stimuli_distractor_diamondtriangles.svg	24	yes	57	0	390
6.6.1	win	2022-12-15	15:56:09	16:03:56	465331	62f9fbc07e4fc1bfe47070e5	86138434	1	main_slash	11	main_slash	13	stimuli_distractor_diamondtriangles.svg	stimuli_target_squaretriangles.svg	15	yes	53	1	382
6.6.1	win	2022-12-15	15:56:09	16:03:56	465331	62f9fbc07e4fc1bfe47070e5	86138434	1	main_slash	11	advance_on_keypress_SLASH	14	stimuli_distractor_diamondtriangles.svg	stimuli_target_squaretriangles.svg	15	yes	57	0	432
6.6.1	win	2022-12-15	15:56:09	16:03:58	466855	62f9fbc07e4fc1bfe47070e5	86138434	1	main_slash	11	main_slash	15	stimuli_target_diamondcircles.svg	stimuli_distractor_diamondtriangles.svg	23	yes	53	1	476
6.6.1	win	2022-12-15	15:56:09	16:03:58	466855	62f9fbc07e4fc1bfe47070e5	86138434	1	main_slash	11	advance_on_keypress_SLASH	16	stimuli_target_diamondcircles.svg	stimuli_distractor_diamondtriangles.svg	23	yes	57	0	444
6.6.1	win	2022-12-15	15:56:09	16:03:59	468318	62f9fbc07e4fc1bfe47070e5	86138434	1	main_slash	11	main_slash	17	stimuli_distractor_trianglediamonds.svg	stimuli_target_trianglecircles.svg	25	yes	53	1	398
6.6.1	win	2022-12-15	15:56:09	16:03:59	468318	62f9fbc07e4fc1bfe47070e5	86138434	1	main_slash	11	advance_on_keypress_SLASH	18	stimuli_distractor_trianglediamonds.svg	stimuli_target_trianglecircles.svg	25	yes	57	0	421
6.6.1	win	2022-12-15	15:56:09	16:04:00	469762	62f9fbc07e4fc1bfe47070e5	86138434	1	main_slash	11	main_slash	19	stimuli_target_trianglesquares.svg	stimuli_distractor_diamondtriangles.svg	22	yes	53	1	405
6.6.1	win	2022-12-15	15:56:09	16:04:00	469762	62f9fbc07e4fc1bfe47070e5	86138434	1	main_slash	11	advance_on_keypress_SLASH	20	stimuli_target_trianglesquares.svg	stimuli_distractor_diamondtriangles.svg	22	yes	57	0	872
6.6.1	win	2022-12-15	15:56:09	16:04:04	473256	62f9fbc07e4fc1bfe47070e5	86138434	1	main_slash	11	main_slash	21	stimuli_distractor_trianglediamonds.svg	stimuli_distractor_trianglediamonds.svg	33	no	0	1	2003
6.6.1	win	2022-12-15	15:56:09	16:04:04	473256	62f9fbc07e4fc1bfe47070e5	86138434	1	main_slash	11	advance_on_keypress_SLASH	22	stimuli_distractor_trianglediamonds.svg	stimuli_distractor_trianglediamonds.svg	33	no	57	0	262
6.6.1	win	2022-12-15	15:56:09	16:04:05	474542	62f9fbc07e4fc1bfe47070e5	86138434	1	main_slash	11	main_slash	23	stimuli_target_trianglecircles.svg	stimuli_distractor_trianglediamonds.svg	17	yes	53	1	397
6.6.1	win	2022-12-15	15:56:09	16:04:05	474542	62f9fbc07e4fc1bfe47070e5	86138434	1	main_slash	11	advance_on_keypress_SLASH	24	stimuli_target_trianglecircles.svg	stimuli_distractor_trianglediamonds.svg	17	yes	57	0	359
6.6.1	win	2022-12-15	15:56:09	16:04:07	476009	62f9fbc07e4fc1bfe47070e5	86138434	1	main_slash	11	main_slash	25	stimuli_distractor_diamondtriangles.svg	stimuli_target_squarediamonds.svg	16	yes	53	1	486
6.6.1	win	2022-12-15	15:56:09	16:04:07	476009	62f9fbc07e4fc1bfe47070e5	86138434	1	main_slash	11	advance_on_keypress_SLASH	26	stimuli_distractor_diamondtriangles.svg	stimuli_target_squarediamonds.svg	16	yes	57	0	399
6.6.1	win	2022-12-15	15:56:09	16:04:08	477549	62f9fbc07e4fc1bfe47070e5	86138434	1	main_slash	11	main_slash	27	stimuli_distractor_diamondtriangles.svg	stimuli_target_diamondcircles.svg	31	yes	53	1	519
6.6.1	win	2022-12-15	15:56:09	16:04:08	477549	62f9fbc07e4fc1bfe47070e5	86138434	1	main_slash	11	advance_on_keypress_SLASH	28	stimuli_distractor_diamondtriangles.svg	stimuli_target_diamondcircles.svg	31	yes	57	0	365
6.6.1	win	2022-12-15	15:56:09	16:04:10	479069	62f9fbc07e4fc1bfe47070e5	86138434	1	main_slash	11	main_slash	29	stimuli_target_diamondsquares.svg	stimuli_distractor_trianglediamonds.svg	20	yes	53	1	525
6.6.1	win	2022-12-15	15:56:09	16:04:10	479069	62f9fbc07e4fc1bfe47070e5	86138434	1	main_slash	11	advance_on_keypress_SLASH	30	stimuli_target_diamondsquares.svg	stimuli_distractor_trianglediamonds.svg	20	yes	57	0	375
6.6.1	win	2022-12-15	15:56:09	16:04:11	480564	62f9fbc07e4fc1bfe47070e5	86138434	1	main_slash	11	main_slash	31	stimuli_distractor_trianglediamonds.svg	stimuli_target_squaretriangles.svg	11	yes	53	1	500
6.6.1	win	2022-12-15	15:56:09	16:04:11	480564	62f9fbc07e4fc1bfe47070e5	86138434	1	main_slash	11	advance_on_keypress_SLASH	32	stimuli_distractor_trianglediamonds.svg	stimuli_target_squaretriangles.svg	11	yes	57	0	319
6.6.1	win	2022-12-15	15:56:09	16:04:13	481960	62f9fbc07e4fc1bfe47070e5	86138434	1	main_slash	11	main_slash	33	stimuli_target_circletriangles.svg	stimuli_distractor_diamondtriangles.svg	5	yes	53	1	459
6.6.1	win	2022-12-15	15:56:09	16:04:13	481960	62f9fbc07e4fc1bfe47070e5	86138434	1	main_slash	11	advance_on_keypress_SLASH	34	stimuli_target_circletriangles.svg	stimuli_distractor_diamondtriangles.svg	5	yes	57	0	331
6.6.1	win	2022-12-15	15:56:09	16:04:14	483243	62f9fbc07e4fc1bfe47070e5	86138434	1	main_slash	11	main_slash	35	stimuli_target_circlediamonds.svg	stimuli_distractor_trianglediamonds.svg	2	yes	53	1	333
6.6.1	win	2022-12-15	15:56:09	16:04:14	483243	62f9fbc07e4fc1bfe47070e5	86138434	1	main_slash	11	advance_on_keypress_SLASH	36	stimuli_target_circlediamonds.svg	stimuli_distractor_trianglediamonds.svg	2	yes	57	0	459
6.6.1	win	2022-12-15	15:56:09	16:04:16	484928	62f9fbc07e4fc1bfe47070e5	86138434	1	main_slash	11	main_slash	37	stimuli_distractor_trianglediamonds.svg	stimuli_target_diamondsquares.svg	28	yes	53	1	608
6.6.1	win	2022-12-15	15:56:09	16:04:16	484928	62f9fbc07e4fc1bfe47070e5	86138434	1	main_slash	11	advance_on_keypress_SLASH	38	stimuli_distractor_trianglediamonds.svg	stimuli_target_diamondsquares.svg	28	yes	57	0	359
6.6.1	win	2022-12-15	15:56:09	16:04:17	486447	62f9fbc07e4fc1bfe47070e5	86138434	1	main_slash	11	main_slash	39	stimuli_target_circlediamonds.svg	stimuli_distractor_diamondtriangles.svg	6	yes	53	1	538
6.6.1	win	2022-12-15	15:56:09	16:04:17	486447	62f9fbc07e4fc1bfe47070e5	86138434	1	main_slash	11	advance_on_keypress_SLASH	40	stimuli_target_circlediamonds.svg	stimuli_distractor_diamondtriangles.svg	6	yes	57	0	449
6.6.1	win	2022-12-15	15:56:09	16:04:20	489516	62f9fbc07e4fc1bfe47070e5	86138434	1	main_slash	11	main_slash	41	stimuli_distractor_diamondtriangles.svg	stimuli_distractor_diamondtriangles.svg	40	no	0	1	2003
6.6.1	win	2022-12-15	15:56:09	16:04:20	489516	62f9fbc07e4fc1bfe47070e5	86138434	1	main_slash	11	advance_on_keypress_SLASH	42	stimuli_distractor_diamondtriangles.svg	stimuli_distractor_diamondtriangles.svg	40	no	57	0	333
6.6.1	win	2022-12-15	15:56:09	16:04:22	490883	62f9fbc07e4fc1bfe47070e5	86138434	1	main_slash	11	main_slash	43	stimuli_target_squaretriangles.svg	stimuli_distractor_diamondtriangles.svg	7	yes	53	1	412
6.6.1	win	2022-12-15	15:56:09	16:04:22	490883	62f9fbc07e4fc1bfe47070e5	86138434	1	main_slash	11	advance_on_keypress_SLASH	44	stimuli_target_squaretriangles.svg	stimuli_distractor_diamondtriangles.svg	7	yes	57	0	298
6.6.1	win	2022-12-15	15:56:09	16:04:23	492215	62f9fbc07e4fc1bfe47070e5	86138434	1	main_slash	11	main_slash	45	stimuli_target_squarediamonds.svg	stimuli_distractor_diamondtriangles.svg	8	yes	53	1	418
6.6.1	win	2022-12-15	15:56:09	16:04:23	492215	62f9fbc07e4fc1bfe47070e5	86138434	1	main_slash	11	advance_on_keypress_SLASH	46	stimuli_target_squarediamonds.svg	stimuli_distractor_diamondtriangles.svg	8	yes	57	0	304
6.6.1	win	2022-12-15	15:56:09	16:04:24	493631	62f9fbc07e4fc1bfe47070e5	86138434	1	main_slash	11	main_slash	47	stimuli_distractor_diamondtriangles.svg	stimuli_target_circletriangles.svg	13	yes	53	1	494
6.6.1	win	2022-12-15	15:56:09	16:04:24	493631	62f9fbc07e4fc1bfe47070e5	86138434	1	main_slash	11	advance_on_keypress_SLASH	48	stimuli_distractor_diamondtriangles.svg	stimuli_target_circletriangles.svg	13	yes	57	0	452
6.6.1	win	2022-12-15	15:56:09	16:04:27	496702	62f9fbc07e4fc1bfe47070e5	86138434	1	main_slash	11	main_slash	49	stimuli_distractor_diamondtriangles.svg	stimuli_distractor_trianglediamonds.svg	37	no	0	1	2003
6.6.1	win	2022-12-15	15:56:09	16:04:27	496702	62f9fbc07e4fc1bfe47070e5	86138434	1	main_slash	11	advance_on_keypress_SLASH	50	stimuli_distractor_diamondtriangles.svg	stimuli_distractor_trianglediamonds.svg	37	no	57	0	260
6.6.1	win	2022-12-15	15:56:09	16:04:29	498211	62f9fbc07e4fc1bfe47070e5	86138434	1	main_slash	11	main_slash	51	stimuli_distractor_diamondtriangles.svg	stimuli_target_diamondsquares.svg	32	yes	53	1	630
6.6.1	win	2022-12-15	15:56:09	16:04:29	498211	62f9fbc07e4fc1bfe47070e5	86138434	1	main_slash	11	advance_on_keypress_SLASH	52	stimuli_distractor_diamondtriangles.svg	stimuli_target_diamondsquares.svg	32	yes	57	0	326
6.6.1	win	2022-12-15	15:56:09	16:04:30	499533	62f9fbc07e4fc1bfe47070e5	86138434	1	main_slash	11	main_slash	53	stimuli_distractor_diamondtriangles.svg	stimuli_target_trianglesquares.svg	30	yes	53	1	376
6.6.1	win	2022-12-15	15:56:09	16:04:30	499533	62f9fbc07e4fc1bfe47070e5	86138434	1	main_slash	11	advance_on_keypress_SLASH	54	stimuli_distractor_diamondtriangles.svg	stimuli_target_trianglesquares.svg	30	yes	57	0	818
6.6.1	win	2022-12-15	15:56:09	16:04:32	501502	62f9fbc07e4fc1bfe47070e5	86138434	1	main_slash	11	main_slash	55	stimuli_target_trianglesquares.svg	stimuli_distractor_trianglediamonds.svg	18	yes	53	1	531
6.6.1	win	2022-12-15	15:56:09	16:04:32	501502	62f9fbc07e4fc1bfe47070e5	86138434	1	main_slash	11	advance_on_keypress_SLASH	56	stimuli_target_trianglesquares.svg	stimuli_distractor_trianglediamonds.svg	18	yes	57	0	538
6.6.1	win	2022-12-15	15:56:09	16:04:34	503124	62f9fbc07e4fc1bfe47070e5	86138434	1	main_slash	11	main_slash	57	stimuli_target_squarediamonds.svg	stimuli_distractor_trianglediamonds.svg	4	yes	53	1	468
6.6.1	win	2022-12-15	15:56:09	16:04:34	503124	62f9fbc07e4fc1bfe47070e5	86138434	1	main_slash	11	advance_on_keypress_SLASH	58	stimuli_target_squarediamonds.svg	stimuli_distractor_trianglediamonds.svg	4	yes	57	0	362
6.6.1	win	2022-12-15	15:56:09	16:04:37	506103	62f9fbc07e4fc1bfe47070e5	86138434	1	main_slash	11	main_slash	59	stimuli_distractor_trianglediamonds.svg	stimuli_distractor_trianglediamonds.svg	34	no	0	1	2003
6.6.1	win	2022-12-15	15:56:09	16:04:37	506103	62f9fbc07e4fc1bfe47070e5	86138434	1	main_slash	11	advance_on_keypress_SLASH	60	stimuli_distractor_trianglediamonds.svg	stimuli_distractor_trianglediamonds.svg	34	no	57	0	351
6.6.1	win	2022-12-15	15:56:09	16:04:38	507590	62f9fbc07e4fc1bfe47070e5	86138434	1	main_slash	11	main_slash	61	stimuli_distractor_trianglediamonds.svg	stimuli_target_circletriangles.svg	9	yes	53	1	511
6.6.1	win	2022-12-15	15:56:09	16:04:38	507590	62f9fbc07e4fc1bfe47070e5	86138434	1	main_slash	11	advance_on_keypress_SLASH	62	stimuli_distractor_trianglediamonds.svg	stimuli_target_circletriangles.svg	9	yes	57	0	348
6.6.1	win	2022-12-15	15:56:09	16:04:40	509066	62f9fbc07e4fc1bfe47070e5	86138434	1	main_slash	11	main_slash	63	stimuli_distractor_trianglediamonds.svg	stimuli_target_trianglesquares.svg	26	yes	53	1	508
6.6.1	win	2022-12-15	15:56:09	16:04:40	509066	62f9fbc07e4fc1bfe47070e5	86138434	1	main_slash	11	advance_on_keypress_SLASH	64	stimuli_distractor_trianglediamonds.svg	stimuli_target_trianglesquares.svg	26	yes	57	0	303
6.6.1	win	2022-12-15	15:56:09	16:04:43	511991	62f9fbc07e4fc1bfe47070e5	86138434	1	main_slash	11	main_slash	65	stimuli_distractor_trianglediamonds.svg	stimuli_distractor_diamondtriangles.svg	35	no	0	1	2003
6.6.1	win	2022-12-15	15:56:09	16:04:43	511991	62f9fbc07e4fc1bfe47070e5	86138434	1	main_slash	11	advance_on_keypress_SLASH	66	stimuli_distractor_trianglediamonds.svg	stimuli_distractor_diamondtriangles.svg	35	no	57	0	319
6.6.1	win	2022-12-15	15:56:09	16:04:44	513637	62f9fbc07e4fc1bfe47070e5	86138434	1	main_slash	11	main_slash	67	stimuli_distractor_trianglediamonds.svg	stimuli_target_diamondcircles.svg	27	yes	53	1	705
6.6.1	win	2022-12-15	15:56:09	16:04:44	513637	62f9fbc07e4fc1bfe47070e5	86138434	1	main_slash	11	advance_on_keypress_SLASH	68	stimuli_distractor_trianglediamonds.svg	stimuli_target_diamondcircles.svg	27	yes	57	0	421
6.6.1	win	2022-12-15	15:56:09	16:04:46	515157	62f9fbc07e4fc1bfe47070e5	86138434	1	main_slash	11	main_slash	69	stimuli_distractor_diamondtriangles.svg	stimuli_target_circlediamonds.svg	14	yes	53	1	475
6.6.1	win	2022-12-15	15:56:09	16:04:46	515157	62f9fbc07e4fc1bfe47070e5	86138434	1	main_slash	11	advance_on_keypress_SLASH	70	stimuli_distractor_diamondtriangles.svg	stimuli_target_circlediamonds.svg	14	yes	57	0	421
6.6.1	win	2022-12-15	15:56:09	16:04:49	518205	62f9fbc07e4fc1bfe47070e5	86138434	1	main_slash	11	main_slash	71	stimuli_distractor_diamondtriangles.svg	stimuli_distractor_diamondtriangles.svg	39	no	0	1	2003
6.6.1	win	2022-12-15	15:56:09	16:04:49	518205	62f9fbc07e4fc1bfe47070e5	86138434	1	main_slash	11	advance_on_keypress_SLASH	72	stimuli_distractor_diamondtriangles.svg	stimuli_distractor_diamondtriangles.svg	39	no	57	0	112
6.6.1	win	2022-12-15	15:56:09	16:04:50	519433	62f9fbc07e4fc1bfe47070e5	86138434	1	main_slash	11	main_slash	73	stimuli_target_circletriangles.svg	stimuli_distractor_trianglediamonds.svg	1	yes	53	1	495
6.6.1	win	2022-12-15	15:56:09	16:04:50	519433	62f9fbc07e4fc1bfe47070e5	86138434	1	main_slash	11	advance_on_keypress_SLASH	74	stimuli_target_circletriangles.svg	stimuli_distractor_trianglediamonds.svg	1	yes	57	0	397
6.6.1	win	2022-12-15	15:56:09	16:04:51	520764	62f9fbc07e4fc1bfe47070e5	86138434	1	main_slash	11	main_slash	75	stimuli_distractor_trianglediamonds.svg	stimuli_target_squarediamonds.svg	12	yes	53	1	319
6.6.1	win	2022-12-15	15:56:09	16:04:51	520764	62f9fbc07e4fc1bfe47070e5	86138434	1	main_slash	11	advance_on_keypress_SLASH	76	stimuli_distractor_trianglediamonds.svg	stimuli_target_squarediamonds.svg	12	yes	57	0	312
6.6.1	win	2022-12-15	15:56:09	16:04:53	522292	62f9fbc07e4fc1bfe47070e5	86138434	1	main_slash	11	main_slash	77	stimuli_target_diamondcircles.svg	stimuli_distractor_trianglediamonds.svg	19	yes	53	1	598
6.6.1	win	2022-12-15	15:56:09	16:04:53	522292	62f9fbc07e4fc1bfe47070e5	86138434	1	main_slash	11	advance_on_keypress_SLASH	78	stimuli_target_diamondcircles.svg	stimuli_distractor_trianglediamonds.svg	19	yes	57	0	379
6.6.1	win	2022-12-15	15:56:09	16:04:54	523702	62f9fbc07e4fc1bfe47070e5	86138434	1	main_slash	11	main_slash	79	stimuli_distractor_trianglediamonds.svg	stimuli_target_circlediamonds.svg	10	yes	53	1	412
6.6.1	win	2022-12-15	15:56:09	16:04:54	523702	62f9fbc07e4fc1bfe47070e5	86138434	1	main_slash	11	advance_on_keypress_SLASH	80	stimuli_distractor_trianglediamonds.svg	stimuli_target_circlediamonds.svg	10	yes	57	0	330
6.6.1	win	2022-12-15	15:56:09	16:04:57	526655	62f9fbc07e4fc1bfe47070e5	86138434	1	main_slash	11	main_slash	81	stimuli_distractor_trianglediamonds.svg	stimuli_distractor_trianglediamonds.svg	33	no	0	1	2003
6.6.1	win	2022-12-15	15:56:09	16:04:57	526655	62f9fbc07e4fc1bfe47070e5	86138434	1	main_slash	11	advance_on_keypress_SLASH	82	stimuli_distractor_trianglediamonds.svg	stimuli_distractor_trianglediamonds.svg	33	no	57	0	224
6.6.1	win	2022-12-15	15:56:09	16:04:59	527936	62f9fbc07e4fc1bfe47070e5	86138434	1	main_slash	11	main_slash	83	stimuli_distractor_diamondtriangles.svg	stimuli_target_circlediamonds.svg	14	yes	53	1	444
6.6.1	win	2022-12-15	15:56:09	16:04:59	527936	62f9fbc07e4fc1bfe47070e5	86138434	1	main_slash	11	advance_on_keypress_SLASH	84	stimuli_distractor_diamondtriangles.svg	stimuli_target_circlediamonds.svg	14	yes	57	0	331
6.6.1	win	2022-12-15	15:56:09	16:05:02	530890	62f9fbc07e4fc1bfe47070e5	86138434	1	main_slash	11	main_slash	85	stimuli_distractor_trianglediamonds.svg	stimuli_distractor_diamondtriangles.svg	35	no	0	1	2003
6.6.1	win	2022-12-15	15:56:09	16:05:02	530890	62f9fbc07e4fc1bfe47070e5	86138434	1	main_slash	11	advance_on_keypress_SLASH	86	stimuli_distractor_trianglediamonds.svg	stimuli_distractor_diamondtriangles.svg	35	no	57	0	274
6.6.1	win	2022-12-15	15:56:09	16:05:03	532341	62f9fbc07e4fc1bfe47070e5	86138434	1	main_slash	11	main_slash	87	stimuli_target_trianglesquares.svg	stimuli_distractor_diamondtriangles.svg	22	yes	53	1	558
6.6.1	win	2022-12-15	15:56:09	16:05:03	532341	62f9fbc07e4fc1bfe47070e5	86138434	1	main_slash	11	advance_on_keypress_SLASH	88	stimuli_target_trianglesquares.svg	stimuli_distractor_diamondtriangles.svg	22	yes	57	0	349
6.6.1	win	2022-12-15	15:56:09	16:05:06	535306	62f9fbc07e4fc1bfe47070e5	86138434	1	main_slash	11	main_slash	89	stimuli_distractor_diamondtriangles.svg	stimuli_distractor_diamondtriangles.svg	39	no	0	1	2003
6.6.1	win	2022-12-15	15:56:09	16:05:06	535306	62f9fbc07e4fc1bfe47070e5	86138434	1	main_slash	11	advance_on_keypress_SLASH	90	stimuli_distractor_diamondtriangles.svg	stimuli_distractor_diamondtriangles.svg	39	no	57	0	810
6.6.1	win	2022-12-15	15:56:09	16:05:09	538743	62f9fbc07e4fc1bfe47070e5	86138434	1	main_slash	11	main_slash	91	stimuli_distractor_trianglediamonds.svg	stimuli_distractor_diamondtriangles.svg	36	no	0	1	2003
6.6.1	win	2022-12-15	15:56:09	16:05:09	538743	62f9fbc07e4fc1bfe47070e5	86138434	1	main_slash	11	advance_on_keypress_SLASH	92	stimuli_distractor_trianglediamonds.svg	stimuli_distractor_diamondtriangles.svg	36	no	57	0	260
6.6.1	win	2022-12-15	15:56:09	16:05:11	540107	62f9fbc07e4fc1bfe47070e5	86138434	1	main_slash	11	main_slash	93	stimuli_target_squaretriangles.svg	stimuli_distractor_diamondtriangles.svg	7	yes	53	1	492
6.6.1	win	2022-12-15	15:56:09	16:05:11	540107	62f9fbc07e4fc1bfe47070e5	86138434	1	main_slash	11	advance_on_keypress_SLASH	94	stimuli_target_squaretriangles.svg	stimuli_distractor_diamondtriangles.svg	7	yes	57	0	471
6.6.1	win	2022-12-15	15:56:09	16:05:12	541770	62f9fbc07e4fc1bfe47070e5	86138434	1	main_slash	11	main_slash	95	stimuli_distractor_trianglediamonds.svg	stimuli_target_diamondsquares.svg	28	yes	53	1	572
6.6.1	win	2022-12-15	15:56:09	16:05:12	541770	62f9fbc07e4fc1bfe47070e5	86138434	1	main_slash	11	advance_on_keypress_SLASH	96	stimuli_distractor_trianglediamonds.svg	stimuli_target_diamondsquares.svg	28	yes	57	0	312
6.6.1	win	2022-12-15	15:56:09	16:05:15	544707	62f9fbc07e4fc1bfe47070e5	86138434	1	main_slash	11	main_slash	97	stimuli_distractor_diamondtriangles.svg	stimuli_distractor_trianglediamonds.svg	38	no	0	1	2003
6.6.1	win	2022-12-15	15:56:09	16:05:15	544707	62f9fbc07e4fc1bfe47070e5	86138434	1	main_slash	11	advance_on_keypress_SLASH	98	stimuli_distractor_diamondtriangles.svg	stimuli_distractor_trianglediamonds.svg	38	no	57	0	312
6.6.1	win	2022-12-15	15:56:09	16:05:17	546186	62f9fbc07e4fc1bfe47070e5	86138434	1	main_slash	11	main_slash	99	stimuli_distractor_trianglediamonds.svg	stimuli_target_squaretriangles.svg	11	yes	53	1	552
6.6.1	win	2022-12-15	15:56:09	16:05:17	546186	62f9fbc07e4fc1bfe47070e5	86138434	1	main_slash	11	advance_on_keypress_SLASH	100	stimuli_distractor_trianglediamonds.svg	stimuli_target_squaretriangles.svg	11	yes	57	0	308
6.6.1	win	2022-12-15	15:56:09	16:05:18	547669	62f9fbc07e4fc1bfe47070e5	86138434	1	main_slash	11	main_slash	101	stimuli_target_circlediamonds.svg	stimuli_distractor_diamondtriangles.svg	6	yes	53	1	563
6.6.1	win	2022-12-15	15:56:09	16:05:18	547669	62f9fbc07e4fc1bfe47070e5	86138434	1	main_slash	11	advance_on_keypress_SLASH	102	stimuli_target_circlediamonds.svg	stimuli_distractor_diamondtriangles.svg	6	yes	57	0	471
6.6.1	win	2022-12-15	15:56:09	16:05:20	549309	62f9fbc07e4fc1bfe47070e5	86138434	1	main_slash	11	main_slash	103	stimuli_distractor_diamondtriangles.svg	stimuli_target_squarediamonds.svg	16	yes	53	1	550
6.6.1	win	2022-12-15	15:56:09	16:05:20	549309	62f9fbc07e4fc1bfe47070e5	86138434	1	main_slash	11	advance_on_keypress_SLASH	104	stimuli_distractor_diamondtriangles.svg	stimuli_target_squarediamonds.svg	16	yes	57	0	337
6.6.1	win	2022-12-15	15:56:09	16:05:22	551016	62f9fbc07e4fc1bfe47070e5	86138434	1	main_slash	11	main_slash	105	stimuli_distractor_diamondtriangles.svg	stimuli_target_trianglesquares.svg	30	yes	53	1	751
6.6.1	win	2022-12-15	15:56:09	16:05:22	551016	62f9fbc07e4fc1bfe47070e5	86138434	1	main_slash	11	advance_on_keypress_SLASH	106	stimuli_distractor_diamondtriangles.svg	stimuli_target_trianglesquares.svg	30	yes	57	0	366
6.6.1	win	2022-12-15	15:56:09	16:05:23	552387	62f9fbc07e4fc1bfe47070e5	86138434	1	main_slash	11	main_slash	107	stimuli_target_squaretriangles.svg	stimuli_distractor_trianglediamonds.svg	3	yes	53	1	386
6.6.1	win	2022-12-15	15:56:09	16:05:23	552387	62f9fbc07e4fc1bfe47070e5	86138434	1	main_slash	11	advance_on_keypress_SLASH	108	stimuli_target_squaretriangles.svg	stimuli_distractor_trianglediamonds.svg	3	yes	57	0	238
6.6.1	win	2022-12-15	15:56:09	16:05:26	555247	62f9fbc07e4fc1bfe47070e5	86138434	1	main_slash	11	main_slash	109	stimuli_distractor_diamondtriangles.svg	stimuli_distractor_diamondtriangles.svg	40	no	0	1	2003
6.6.1	win	2022-12-15	15:56:09	16:05:26	555247	62f9fbc07e4fc1bfe47070e5	86138434	1	main_slash	11	advance_on_keypress_SLASH	110	stimuli_distractor_diamondtriangles.svg	stimuli_distractor_diamondtriangles.svg	40	no	57	0	1076
6.6.1	win	2022-12-15	15:56:09	16:05:28	557588	62f9fbc07e4fc1bfe47070e5	86138434	1	main_slash	11	main_slash	111	stimuli_distractor_diamondtriangles.svg	stimuli_target_trianglecircles.svg	29	yes	53	1	644
6.6.1	win	2022-12-15	15:56:09	16:05:28	557588	62f9fbc07e4fc1bfe47070e5	86138434	1	main_slash	11	advance_on_keypress_SLASH	112	stimuli_distractor_diamondtriangles.svg	stimuli_target_trianglecircles.svg	29	yes	57	0	412
6.6.1	win	2022-12-15	15:56:09	16:05:31	560621	62f9fbc07e4fc1bfe47070e5	86138434	1	main_slash	11	main_slash	113	stimuli_distractor_trianglediamonds.svg	stimuli_distractor_trianglediamonds.svg	34	no	0	1	2003
6.6.1	win	2022-12-15	15:56:09	16:05:31	560621	62f9fbc07e4fc1bfe47070e5	86138434	1	main_slash	11	advance_on_keypress_SLASH	114	stimuli_distractor_trianglediamonds.svg	stimuli_distractor_trianglediamonds.svg	34	no	57	0	1512
6.6.1	win	2022-12-15	15:56:09	16:05:34	563257	62f9fbc07e4fc1bfe47070e5	86138434	1	main_slash	11	main_slash	115	stimuli_target_circlediamonds.svg	stimuli_distractor_trianglediamonds.svg	2	yes	53	1	502
6.6.1	win	2022-12-15	15:56:09	16:05:34	563257	62f9fbc07e4fc1bfe47070e5	86138434	1	main_slash	11	advance_on_keypress_SLASH	116	stimuli_target_circlediamonds.svg	stimuli_distractor_trianglediamonds.svg	2	yes	57	0	287
6.6.1	win	2022-12-15	15:56:09	16:05:35	564559	62f9fbc07e4fc1bfe47070e5	86138434	1	main_slash	11	main_slash	117	stimuli_distractor_trianglediamonds.svg	stimuli_target_circlediamonds.svg	10	yes	53	1	397
6.6.1	win	2022-12-15	15:56:09	16:05:35	564559	62f9fbc07e4fc1bfe47070e5	86138434	1	main_slash	11	advance_on_keypress_SLASH	118	stimuli_distractor_trianglediamonds.svg	stimuli_target_circlediamonds.svg	10	yes	57	0	565
6.6.1	win	2022-12-15	15:56:09	16:05:37	566152	62f9fbc07e4fc1bfe47070e5	86138434	1	main_slash	11	main_slash	119	stimuli_target_diamondsquares.svg	stimuli_distractor_trianglediamonds.svg	20	yes	53	1	411
6.6.1	win	2022-12-15	15:56:09	16:05:37	566152	62f9fbc07e4fc1bfe47070e5	86138434	1	main_slash	11	advance_on_keypress_SLASH	120	stimuli_target_diamondsquares.svg	stimuli_distractor_trianglediamonds.svg	20	yes	57	0	281
6.6.1	win	2022-12-15	15:56:09	16:05:38	567454	62f9fbc07e4fc1bfe47070e5	86138434	1	main_slash	11	main_slash	121	stimuli_target_trianglecircles.svg	stimuli_distractor_diamondtriangles.svg	21	yes	53	1	398
6.6.1	win	2022-12-15	15:56:09	16:05:38	567454	62f9fbc07e4fc1bfe47070e5	86138434	1	main_slash	11	advance_on_keypress_SLASH	122	stimuli_target_trianglecircles.svg	stimuli_distractor_diamondtriangles.svg	21	yes	57	0	231
6.6.1	win	2022-12-15	15:56:09	16:05:39	568623	62f9fbc07e4fc1bfe47070e5	86138434	1	main_slash	11	main_slash	123	stimuli_distractor_trianglediamonds.svg	stimuli_target_diamondcircles.svg	27	yes	53	1	320
6.6.1	win	2022-12-15	15:56:09	16:05:39	568623	62f9fbc07e4fc1bfe47070e5	86138434	1	main_slash	11	advance_on_keypress_SLASH	124	stimuli_distractor_trianglediamonds.svg	stimuli_target_diamondcircles.svg	27	yes	57	0	246
6.6.1	win	2022-12-15	15:56:09	16:05:41	569830	62f9fbc07e4fc1bfe47070e5	86138434	1	main_slash	11	main_slash	125	stimuli_distractor_trianglediamonds.svg	stimuli_target_trianglecircles.svg	25	yes	53	1	339
6.6.1	win	2022-12-15	15:56:09	16:05:41	569830	62f9fbc07e4fc1bfe47070e5	86138434	1	main_slash	11	advance_on_keypress_SLASH	126	stimuli_distractor_trianglediamonds.svg	stimuli_target_trianglecircles.svg	25	yes	57	0	192
6.6.1	win	2022-12-15	15:56:09	16:05:42	571142	62f9fbc07e4fc1bfe47070e5	86138434	1	main_slash	11	main_slash	127	stimuli_target_circletriangles.svg	stimuli_distractor_trianglediamonds.svg	1	yes	53	1	499
6.6.1	win	2022-12-15	15:56:09	16:05:42	571142	62f9fbc07e4fc1bfe47070e5	86138434	1	main_slash	11	advance_on_keypress_SLASH	128	stimuli_target_circletriangles.svg	stimuli_distractor_trianglediamonds.svg	1	yes	57	0	319
6.6.1	win	2022-12-15	15:56:09	16:05:43	572401	62f9fbc07e4fc1bfe47070e5	86138434	1	main_slash	11	main_slash	129	stimuli_distractor_diamondtriangles.svg	stimuli_target_circletriangles.svg	13	yes	53	1	321
6.6.1	win	2022-12-15	15:56:09	16:05:43	572401	62f9fbc07e4fc1bfe47070e5	86138434	1	main_slash	11	advance_on_keypress_SLASH	130	stimuli_distractor_diamondtriangles.svg	stimuli_target_circletriangles.svg	13	yes	57	0	216
6.6.1	win	2022-12-15	15:56:09	16:05:44	573570	62f9fbc07e4fc1bfe47070e5	86138434	1	main_slash	11	main_slash	131	stimuli_target_squarediamonds.svg	stimuli_distractor_trianglediamonds.svg	4	yes	53	1	338
6.6.1	win	2022-12-15	15:56:09	16:05:44	573570	62f9fbc07e4fc1bfe47070e5	86138434	1	main_slash	11	advance_on_keypress_SLASH	132	stimuli_target_squarediamonds.svg	stimuli_distractor_trianglediamonds.svg	4	yes	57	0	233
6.6.1	win	2022-12-15	15:56:09	16:05:46	574844	62f9fbc07e4fc1bfe47070e5	86138434	1	main_slash	11	main_slash	133	stimuli_target_circletriangles.svg	stimuli_distractor_diamondtriangles.svg	5	yes	53	1	418
6.6.1	win	2022-12-15	15:56:09	16:05:46	574844	62f9fbc07e4fc1bfe47070e5	86138434	1	main_slash	11	advance_on_keypress_SLASH	134	stimuli_target_circletriangles.svg	stimuli_distractor_diamondtriangles.svg	5	yes	57	0	304
6.6.1	win	2022-12-15	15:56:09	16:05:47	576360	62f9fbc07e4fc1bfe47070e5	86138434	1	main_slash	11	main_slash	135	stimuli_distractor_diamondtriangles.svg	stimuli_target_diamondsquares.svg	32	yes	53	1	593
6.6.1	win	2022-12-15	15:56:09	16:05:47	576360	62f9fbc07e4fc1bfe47070e5	86138434	1	main_slash	11	advance_on_keypress_SLASH	136	stimuli_distractor_diamondtriangles.svg	stimuli_target_diamondsquares.svg	32	yes	57	0	350
6.6.1	win	2022-12-15	15:56:09	16:05:48	577634	62f9fbc07e4fc1bfe47070e5	86138434	1	main_slash	11	main_slash	137	stimuli_distractor_trianglediamonds.svg	stimuli_target_circletriangles.svg	9	yes	53	1	312
6.6.1	win	2022-12-15	15:56:09	16:05:48	577634	62f9fbc07e4fc1bfe47070e5	86138434	1	main_slash	11	advance_on_keypress_SLASH	138	stimuli_distractor_trianglediamonds.svg	stimuli_target_circletriangles.svg	9	yes	57	0	298
6.6.1	win	2022-12-15	15:56:09	16:05:50	579038	62f9fbc07e4fc1bfe47070e5	86138434	1	main_slash	11	main_slash	139	stimuli_target_diamondsquares.svg	stimuli_distractor_diamondtriangles.svg	24	yes	53	1	487
6.6.1	win	2022-12-15	15:56:09	16:05:50	579038	62f9fbc07e4fc1bfe47070e5	86138434	1	main_slash	11	advance_on_keypress_SLASH	140	stimuli_target_diamondsquares.svg	stimuli_distractor_diamondtriangles.svg	24	yes	57	0	288
6.6.1	win	2022-12-15	15:56:09	16:05:51	580362	62f9fbc07e4fc1bfe47070e5	86138434	1	main_slash	11	main_slash	141	stimuli_target_trianglecircles.svg	stimuli_distractor_trianglediamonds.svg	17	yes	53	1	415
6.6.1	win	2022-12-15	15:56:09	16:05:51	580362	62f9fbc07e4fc1bfe47070e5	86138434	1	main_slash	11	advance_on_keypress_SLASH	142	stimuli_target_trianglecircles.svg	stimuli_distractor_trianglediamonds.svg	17	yes	57	0	257
6.6.1	win	2022-12-15	15:56:09	16:05:52	581551	62f9fbc07e4fc1bfe47070e5	86138434	1	main_slash	11	main_slash	143	stimuli_target_squarediamonds.svg	stimuli_distractor_diamondtriangles.svg	8	yes	53	1	313
6.6.1	win	2022-12-15	15:56:09	16:05:52	581551	62f9fbc07e4fc1bfe47070e5	86138434	1	main_slash	11	advance_on_keypress_SLASH	144	stimuli_target_squarediamonds.svg	stimuli_distractor_diamondtriangles.svg	8	yes	57	0	723
6.6.1	win	2022-12-15	15:56:09	16:05:54	583509	62f9fbc07e4fc1bfe47070e5	86138434	1	main_slash	11	main_slash	145	stimuli_distractor_trianglediamonds.svg	stimuli_target_trianglesquares.svg	26	yes	53	1	617
6.6.1	win	2022-12-15	15:56:09	16:05:54	583509	62f9fbc07e4fc1bfe47070e5	86138434	1	main_slash	11	advance_on_keypress_SLASH	146	stimuli_distractor_trianglediamonds.svg	stimuli_target_trianglesquares.svg	26	yes	57	0	330
6.6.1	win	2022-12-15	15:56:09	16:05:55	584817	62f9fbc07e4fc1bfe47070e5	86138434	1	main_slash	11	main_slash	147	stimuli_distractor_trianglediamonds.svg	stimuli_target_squarediamonds.svg	12	yes	53	1	357
6.6.1	win	2022-12-15	15:56:09	16:05:55	584817	62f9fbc07e4fc1bfe47070e5	86138434	1	main_slash	11	advance_on_keypress_SLASH	148	stimuli_distractor_trianglediamonds.svg	stimuli_target_squarediamonds.svg	12	yes	57	0	319
6.6.1	win	2022-12-15	15:56:09	16:05:57	586242	62f9fbc07e4fc1bfe47070e5	86138434	1	main_slash	11	main_slash	149	stimuli_distractor_diamondtriangles.svg	stimuli_distractor_trianglediamonds.svg	37	no	53	0	491
6.6.1	win	2022-12-15	15:56:09	16:05:57	586242	62f9fbc07e4fc1bfe47070e5	86138434	1	main_slash	11	advance_on_keypress_SLASH	150	stimuli_distractor_diamondtriangles.svg	stimuli_distractor_trianglediamonds.svg	37	no	57	0	1021
6.6.1	win	2022-12-15	15:56:09	16:05:59	588356	62f9fbc07e4fc1bfe47070e5	86138434	1	main_slash	11	main_slash	151	stimuli_target_diamondcircles.svg	stimuli_distractor_diamondtriangles.svg	23	yes	53	1	473
6.6.1	win	2022-12-15	15:56:09	16:05:59	588356	62f9fbc07e4fc1bfe47070e5	86138434	1	main_slash	11	advance_on_keypress_SLASH	152	stimuli_target_diamondcircles.svg	stimuli_distractor_diamondtriangles.svg	23	yes	57	0	344
6.6.1	win	2022-12-15	15:56:09	16:06:00	589788	62f9fbc07e4fc1bfe47070e5	86138434	1	main_slash	11	main_slash	153	stimuli_target_diamondcircles.svg	stimuli_distractor_trianglediamonds.svg	19	yes	53	1	469
6.6.1	win	2022-12-15	15:56:09	16:06:00	589788	62f9fbc07e4fc1bfe47070e5	86138434	1	main_slash	11	advance_on_keypress_SLASH	154	stimuli_target_diamondcircles.svg	stimuli_distractor_trianglediamonds.svg	19	yes	57	0	290
6.6.1	win	2022-12-15	15:56:09	16:06:02	591346	62f9fbc07e4fc1bfe47070e5	86138434	1	main_slash	11	main_slash	155	stimuli_distractor_diamondtriangles.svg	stimuli_target_diamondcircles.svg	31	yes	53	1	644
6.6.1	win	2022-12-15	15:56:09	16:06:02	591346	62f9fbc07e4fc1bfe47070e5	86138434	1	main_slash	11	advance_on_keypress_SLASH	156	stimuli_distractor_diamondtriangles.svg	stimuli_target_diamondcircles.svg	31	yes	57	0	397
6.6.1	win	2022-12-15	15:56:09	16:06:03	592774	62f9fbc07e4fc1bfe47070e5	86138434	1	main_slash	11	main_slash	157	stimuli_distractor_diamondtriangles.svg	stimuli_target_squaretriangles.svg	15	yes	53	1	413
6.6.1	win	2022-12-15	15:56:09	16:06:03	592774	62f9fbc07e4fc1bfe47070e5	86138434	1	main_slash	11	advance_on_keypress_SLASH	158	stimuli_distractor_diamondtriangles.svg	stimuli_target_squaretriangles.svg	15	yes	57	0	330
6.6.1	win	2022-12-15	15:56:09	16:06:05	594262	62f9fbc07e4fc1bfe47070e5	86138434	1	main_slash	11	main_slash	159	stimuli_target_trianglesquares.svg	stimuli_distractor_trianglediamonds.svg	18	yes	53	1	531
6.6.1	win	2022-12-15	15:56:09	16:06:05	594262	62f9fbc07e4fc1bfe47070e5	86138434	1	main_slash	11	advance_on_keypress_SLASH	160	stimuli_target_trianglesquares.svg	stimuli_distractor_trianglediamonds.svg	18	yes	57	0	446