build	computer.platform	date	time	timestamp	time_elapsed_ms	subject	group	session	blockcode	blocknum	trialcode	trialnum	stimulus_left	stimulus_right	stim_index	target_present	response	correct	latency
6.6.1	mac	2022-12-14	14:18:52	14:20:13	79399	5e7d09e7f0a5a00c4a1ccf96	735344531	1	practice_slash	5	practice_slash	1	stimuli_distractor_trianglediamonds.svg	stimuli_target_squarediamonds.svg	11	yes	53	1	590
6.6.1	mac	2022-12-14	14:18:52	14:20:13	79399	5e7d09e7f0a5a00c4a1ccf96	735344531	1	practice_slash	5	advance_on_keypress_SLASH	2	stimuli_distractor_trianglediamonds.svg	stimuli_target_squarediamonds.svg	11	yes	57	0	5081
6.6.1	mac	2022-12-14	14:18:52	14:20:20	86684	5e7d09e7f0a5a00c4a1ccf96	735344531	1	practice_slash	5	practice_slash	3	stimuli_target_squarediamonds.svg	stimuli_distractor_trianglediamonds.svg	5	yes	53	1	557
6.6.1	mac	2022-12-14	14:18:52	14:20:20	86684	5e7d09e7f0a5a00c4a1ccf96	735344531	1	practice_slash	5	advance_on_keypress_SLASH	4	stimuli_target_squarediamonds.svg	stimuli_distractor_trianglediamonds.svg	5	yes	57	0	526
6.6.1	mac	2022-12-14	14:18:52	14:20:23	89486	5e7d09e7f0a5a00c4a1ccf96	735344531	1	practice_slash	5	practice_slash	5	stimuli_distractor_diamondtriangles.svg	stimuli_distractor_diamondtriangles.svg	13	no	53	0	625
6.6.1	mac	2022-12-14	14:18:52	14:20:23	89486	5e7d09e7f0a5a00c4a1ccf96	735344531	1	practice_slash	5	advance_on_keypress_SLASH	6	stimuli_distractor_diamondtriangles.svg	stimuli_distractor_diamondtriangles.svg	13	no	57	0	992
6.6.1	mac	2022-12-14	14:18:52	14:20:26	92567	5e7d09e7f0a5a00c4a1ccf96	735344531	1	practice_slash	5	practice_slash	7	stimuli_target_circlediamonds.svg	stimuli_distractor_trianglediamonds.svg	4	yes	53	1	439
6.6.1	mac	2022-12-14	14:18:52	14:20:26	92567	5e7d09e7f0a5a00c4a1ccf96	735344531	1	practice_slash	5	advance_on_keypress_SLASH	8	stimuli_target_circlediamonds.svg	stimuli_distractor_trianglediamonds.svg	4	yes	57	0	389
6.6.1	mac	2022-12-14	14:18:52	14:20:29	95208	5e7d09e7f0a5a00c4a1ccf96	735344531	1	practice_slash	5	practice_slash	9	stimuli_target_circlediamonds.svg	stimuli_distractor_diamondtriangles.svg	1	yes	53	1	596
6.6.1	mac	2022-12-14	14:18:52	14:20:29	95208	5e7d09e7f0a5a00c4a1ccf96	735344531	1	practice_slash	5	advance_on_keypress_SLASH	10	stimuli_target_circlediamonds.svg	stimuli_distractor_diamondtriangles.svg	1	yes	57	0	453
6.6.1	mac	2022-12-14	14:18:52	14:20:31	98033	5e7d09e7f0a5a00c4a1ccf96	735344531	1	practice_slash	5	practice_slash	11	stimuli_distractor_diamondtriangles.svg	stimuli_target_circletriangles.svg	7	yes	53	1	721
6.6.1	mac	2022-12-14	14:18:52	14:20:31	98033	5e7d09e7f0a5a00c4a1ccf96	735344531	1	practice_slash	5	advance_on_keypress_SLASH	12	stimuli_distractor_diamondtriangles.svg	stimuli_target_circletriangles.svg	7	yes	57	0	452
6.6.1	mac	2022-12-14	14:18:52	14:20:35	101881	5e7d09e7f0a5a00c4a1ccf96	735344531	1	practice_slash	5	practice_slash	13	stimuli_distractor_diamondtriangles.svg	stimuli_target_trianglecircles.svg	9	yes	53	1	1735
6.6.1	mac	2022-12-14	14:18:52	14:20:35	101881	5e7d09e7f0a5a00c4a1ccf96	735344531	1	practice_slash	5	advance_on_keypress_SLASH	14	stimuli_distractor_diamondtriangles.svg	stimuli_target_trianglecircles.svg	9	yes	57	0	433
6.6.1	mac	2022-12-14	14:18:52	14:20:39	105942	5e7d09e7f0a5a00c4a1ccf96	735344531	1	practice_slash	5	practice_slash	15	stimuli_distractor_trianglediamonds.svg	stimuli_distractor_diamondtriangles.svg	16	no	0	1	2000
6.6.1	mac	2022-12-14	14:18:52	14:20:39	105942	5e7d09e7f0a5a00c4a1ccf96	735344531	1	practice_slash	5	advance_on_keypress_SLASH	16	stimuli_distractor_trianglediamonds.svg	stimuli_distractor_diamondtriangles.svg	16	no	57	0	358
6.6.1	mac	2022-12-14	14:18:52	14:20:43	109942	5e7d09e7f0a5a00c4a1ccf96	735344531	1	practice_slash	5	practice_slash	17	stimuli_distractor_diamondtriangles.svg	stimuli_distractor_trianglediamonds.svg	14	no	0	1	2000
6.6.1	mac	2022-12-14	14:18:52	14:20:43	109942	5e7d09e7f0a5a00c4a1ccf96	735344531	1	practice_slash	5	advance_on_keypress_SLASH	18	stimuli_distractor_diamondtriangles.svg	stimuli_distractor_trianglediamonds.svg	14	no	57	0	430
6.6.1	mac	2022-12-14	14:18:52	14:20:46	112828	5e7d09e7f0a5a00c4a1ccf96	735344531	1	practice_slash	5	practice_slash	19	stimuli_distractor_trianglediamonds.svg	stimuli_target_diamondcircles.svg	12	yes	53	1	814
6.6.1	mac	2022-12-14	14:18:52	14:20:46	112828	5e7d09e7f0a5a00c4a1ccf96	735344531	1	practice_slash	5	advance_on_keypress_SLASH	20	stimuli_distractor_trianglediamonds.svg	stimuli_target_diamondcircles.svg	12	yes	57	0	444
6.6.1	mac	2022-12-14	14:18:52	14:20:50	116909	5e7d09e7f0a5a00c4a1ccf96	735344531	1	practice_slash	5	practice_slash	21	stimuli_distractor_trianglediamonds.svg	stimuli_distractor_trianglediamonds.svg	15	no	0	1	2000
6.6.1	mac	2022-12-14	14:18:52	14:20:50	116909	5e7d09e7f0a5a00c4a1ccf96	735344531	1	practice_slash	5	advance_on_keypress_SLASH	22	stimuli_distractor_trianglediamonds.svg	stimuli_distractor_trianglediamonds.svg	15	no	57	0	306
6.6.1	mac	2022-12-14	14:18:52	14:20:54	120859	5e7d09e7f0a5a00c4a1ccf96	735344531	1	practice_slash	5	practice_slash	23	stimuli_target_diamondsquares.svg	stimuli_distractor_trianglediamonds.svg	6	yes	0	0	2000
6.6.1	mac	2022-12-14	14:18:52	14:20:54	120859	5e7d09e7f0a5a00c4a1ccf96	735344531	1	practice_slash	5	advance_on_keypress_SLASH	24	stimuli_target_diamondsquares.svg	stimuli_distractor_trianglediamonds.svg	6	yes	57	0	942
6.6.1	mac	2022-12-14	14:18:52	14:20:58	124514	5e7d09e7f0a5a00c4a1ccf96	735344531	1	practice_slash	5	practice_slash	25	stimuli_distractor_diamondtriangles.svg	stimuli_target_diamondcircles.svg	8	yes	53	1	1065
6.6.1	mac	2022-12-14	14:18:52	14:20:58	124514	5e7d09e7f0a5a00c4a1ccf96	735344531	1	practice_slash	5	advance_on_keypress_SLASH	26	stimuli_distractor_diamondtriangles.svg	stimuli_target_diamondcircles.svg	8	yes	57	0	999
6.6.1	mac	2022-12-14	14:18:52	14:21:02	128201	5e7d09e7f0a5a00c4a1ccf96	735344531	1	practice_slash	5	practice_slash	27	stimuli_target_diamondsquares.svg	stimuli_distractor_diamondtriangles.svg	3	yes	53	1	1052
6.6.1	mac	2022-12-14	14:18:52	14:21:02	128201	5e7d09e7f0a5a00c4a1ccf96	735344531	1	practice_slash	5	advance_on_keypress_SLASH	28	stimuli_target_diamondsquares.svg	stimuli_distractor_diamondtriangles.svg	3	yes	57	0	380
6.6.1	mac	2022-12-14	14:18:52	14:21:05	131178	5e7d09e7f0a5a00c4a1ccf96	735344531	1	practice_slash	5	practice_slash	29	stimuli_target_squarediamonds.svg	stimuli_distractor_diamondtriangles.svg	2	yes	53	1	963
6.6.1	mac	2022-12-14	14:18:52	14:21:05	131178	5e7d09e7f0a5a00c4a1ccf96	735344531	1	practice_slash	5	advance_on_keypress_SLASH	30	stimuli_target_squarediamonds.svg	stimuli_distractor_diamondtriangles.svg	2	yes	57	0	544
6.6.1	mac	2022-12-14	14:18:52	14:21:08	134164	5e7d09e7f0a5a00c4a1ccf96	735344531	1	practice_slash	5	practice_slash	31	stimuli_distractor_trianglediamonds.svg	stimuli_target_circlediamonds.svg	10	yes	53	1	800
6.6.1	mac	2022-12-14	14:18:52	14:21:08	134164	5e7d09e7f0a5a00c4a1ccf96	735344531	1	practice_slash	5	advance_on_keypress_SLASH	32	stimuli_distractor_trianglediamonds.svg	stimuli_target_circlediamonds.svg	10	yes	57	0	418
6.6.1	mac	2022-12-14	14:18:52	14:21:17	143467	5e7d09e7f0a5a00c4a1ccf96	735344531	1	main_slash	7	main_slash	1	stimuli_target_squaretriangles.svg	stimuli_distractor_diamondtriangles.svg	7	yes	53	1	600
6.6.1	mac	2022-12-14	14:18:52	14:21:17	143467	5e7d09e7f0a5a00c4a1ccf96	735344531	1	main_slash	7	advance_on_keypress_SLASH	2	stimuli_target_squaretriangles.svg	stimuli_distractor_diamondtriangles.svg	7	yes	57	0	895
6.6.1	mac	2022-12-14	14:18:52	14:21:19	145587	5e7d09e7f0a5a00c4a1ccf96	735344531	1	main_slash	7	main_slash	3	stimuli_target_trianglecircles.svg	stimuli_distractor_trianglediamonds.svg	17	yes	53	1	588
6.6.1	mac	2022-12-14	14:18:52	14:21:19	145587	5e7d09e7f0a5a00c4a1ccf96	735344531	1	main_slash	7	advance_on_keypress_SLASH	4	stimuli_target_trianglecircles.svg	stimuli_distractor_trianglediamonds.svg	17	yes	57	0	616
6.6.1	mac	2022-12-14	14:18:52	14:21:22	148846	5e7d09e7f0a5a00c4a1ccf96	735344531	1	main_slash	7	main_slash	5	stimuli_target_diamondsquares.svg	stimuli_distractor_trianglediamonds.svg	20	yes	0	0	2000
6.6.1	mac	2022-12-14	14:18:52	14:21:22	148846	5e7d09e7f0a5a00c4a1ccf96	735344531	1	main_slash	7	advance_on_keypress_SLASH	6	stimuli_target_diamondsquares.svg	stimuli_distractor_trianglediamonds.svg	20	yes	57	0	433
6.6.1	mac	2022-12-14	14:18:52	14:21:24	150589	5e7d09e7f0a5a00c4a1ccf96	735344531	1	main_slash	7	main_slash	7	stimuli_distractor_diamondtriangles.svg	stimuli_target_circlediamonds.svg	14	yes	53	1	674
6.6.1	mac	2022-12-14	14:18:52	14:21:24	150589	5e7d09e7f0a5a00c4a1ccf96	735344531	1	main_slash	7	advance_on_keypress_SLASH	8	stimuli_distractor_diamondtriangles.svg	stimuli_target_circlediamonds.svg	14	yes	57	0	511
6.6.1	mac	2022-12-14	14:18:52	14:21:27	153744	5e7d09e7f0a5a00c4a1ccf96	735344531	1	main_slash	7	main_slash	9	stimuli_distractor_trianglediamonds.svg	stimuli_distractor_trianglediamonds.svg	34	no	0	1	2000
6.6.1	mac	2022-12-14	14:18:52	14:21:27	153744	5e7d09e7f0a5a00c4a1ccf96	735344531	1	main_slash	7	advance_on_keypress_SLASH	10	stimuli_distractor_trianglediamonds.svg	stimuli_distractor_trianglediamonds.svg	34	no	57	0	481
6.6.1	mac	2022-12-14	14:18:52	14:21:30	156862	5e7d09e7f0a5a00c4a1ccf96	735344531	1	main_slash	7	main_slash	11	stimuli_distractor_trianglediamonds.svg	stimuli_distractor_trianglediamonds.svg	33	no	0	1	2000
6.6.1	mac	2022-12-14	14:18:52	14:21:30	156862	5e7d09e7f0a5a00c4a1ccf96	735344531	1	main_slash	7	advance_on_keypress_SLASH	12	stimuli_distractor_trianglediamonds.svg	stimuli_distractor_trianglediamonds.svg	33	no	57	0	301
6.6.1	mac	2022-12-14	14:18:52	14:21:32	158449	5e7d09e7f0a5a00c4a1ccf96	735344531	1	main_slash	7	main_slash	13	stimuli_distractor_trianglediamonds.svg	stimuli_target_circletriangles.svg	9	yes	53	1	651
6.6.1	mac	2022-12-14	14:18:52	14:21:32	158449	5e7d09e7f0a5a00c4a1ccf96	735344531	1	main_slash	7	advance_on_keypress_SLASH	14	stimuli_distractor_trianglediamonds.svg	stimuli_target_circletriangles.svg	9	yes	57	0	754
6.6.1	mac	2022-12-14	14:18:52	14:21:35	161829	5e7d09e7f0a5a00c4a1ccf96	735344531	1	main_slash	7	main_slash	15	stimuli_distractor_diamondtriangles.svg	stimuli_distractor_diamondtriangles.svg	40	no	0	1	2000
6.6.1	mac	2022-12-14	14:18:52	14:21:35	161829	5e7d09e7f0a5a00c4a1ccf96	735344531	1	main_slash	7	advance_on_keypress_SLASH	16	stimuli_distractor_diamondtriangles.svg	stimuli_distractor_diamondtriangles.svg	40	no	57	0	417
6.6.1	mac	2022-12-14	14:18:52	14:21:37	163645	5e7d09e7f0a5a00c4a1ccf96	735344531	1	main_slash	7	main_slash	17	stimuli_distractor_diamondtriangles.svg	stimuli_target_squarediamonds.svg	16	yes	53	1	763
6.6.1	mac	2022-12-14	14:18:52	14:21:37	163645	5e7d09e7f0a5a00c4a1ccf96	735344531	1	main_slash	7	advance_on_keypress_SLASH	18	stimuli_distractor_diamondtriangles.svg	stimuli_target_squarediamonds.svg	16	yes	57	0	851
6.6.1	mac	2022-12-14	14:18:52	14:21:40	167128	5e7d09e7f0a5a00c4a1ccf96	735344531	1	main_slash	7	main_slash	19	stimuli_distractor_diamondtriangles.svg	stimuli_distractor_trianglediamonds.svg	37	no	0	1	2000
6.6.1	mac	2022-12-14	14:18:52	14:21:40	167128	5e7d09e7f0a5a00c4a1ccf96	735344531	1	main_slash	7	advance_on_keypress_SLASH	20	stimuli_distractor_diamondtriangles.svg	stimuli_distractor_trianglediamonds.svg	37	no	57	0	447
6.6.1	mac	2022-12-14	14:18:52	14:21:44	170212	5e7d09e7f0a5a00c4a1ccf96	735344531	1	main_slash	7	main_slash	21	stimuli_distractor_trianglediamonds.svg	stimuli_distractor_diamondtriangles.svg	36	no	0	1	2000
6.6.1	mac	2022-12-14	14:18:52	14:21:44	170212	5e7d09e7f0a5a00c4a1ccf96	735344531	1	main_slash	7	advance_on_keypress_SLASH	22	stimuli_distractor_trianglediamonds.svg	stimuli_distractor_diamondtriangles.svg	36	no	57	0	407
6.6.1	mac	2022-12-14	14:18:52	14:21:45	171799	5e7d09e7f0a5a00c4a1ccf96	735344531	1	main_slash	7	main_slash	23	stimuli_distractor_diamondtriangles.svg	stimuli_target_diamondcircles.svg	31	yes	53	1	533
6.6.1	mac	2022-12-14	14:18:52	14:21:45	171799	5e7d09e7f0a5a00c4a1ccf96	735344531	1	main_slash	7	advance_on_keypress_SLASH	24	stimuli_distractor_diamondtriangles.svg	stimuli_target_diamondcircles.svg	31	yes	57	0	709
6.6.1	mac	2022-12-14	14:18:52	14:21:47	173754	5e7d09e7f0a5a00c4a1ccf96	735344531	1	main_slash	7	main_slash	25	stimuli_target_trianglecircles.svg	stimuli_distractor_diamondtriangles.svg	21	yes	53	1	604
6.6.1	mac	2022-12-14	14:18:52	14:21:47	173754	5e7d09e7f0a5a00c4a1ccf96	735344531	1	main_slash	7	advance_on_keypress_SLASH	26	stimuli_target_trianglecircles.svg	stimuli_distractor_diamondtriangles.svg	21	yes	57	0	762
6.6.1	mac	2022-12-14	14:18:52	14:21:49	175797	5e7d09e7f0a5a00c4a1ccf96	735344531	1	main_slash	7	main_slash	27	stimuli_distractor_trianglediamonds.svg	stimuli_target_trianglesquares.svg	26	yes	53	1	647
6.6.1	mac	2022-12-14	14:18:52	14:21:49	175797	5e7d09e7f0a5a00c4a1ccf96	735344531	1	main_slash	7	advance_on_keypress_SLASH	28	stimuli_distractor_trianglediamonds.svg	stimuli_target_trianglesquares.svg	26	yes	57	0	727
6.6.1	mac	2022-12-14	14:18:52	14:21:51	177802	5e7d09e7f0a5a00c4a1ccf96	735344531	1	main_slash	7	main_slash	29	stimuli_distractor_diamondtriangles.svg	stimuli_target_trianglesquares.svg	30	yes	53	1	636
6.6.1	mac	2022-12-14	14:18:52	14:21:51	177802	5e7d09e7f0a5a00c4a1ccf96	735344531	1	main_slash	7	advance_on_keypress_SLASH	30	stimuli_distractor_diamondtriangles.svg	stimuli_target_trianglesquares.svg	30	yes	57	0	729
6.6.1	mac	2022-12-14	14:18:52	14:21:53	179900	5e7d09e7f0a5a00c4a1ccf96	735344531	1	main_slash	7	main_slash	31	stimuli_distractor_trianglediamonds.svg	stimuli_target_diamondcircles.svg	27	yes	53	1	734
6.6.1	mac	2022-12-14	14:18:52	14:21:53	179900	5e7d09e7f0a5a00c4a1ccf96	735344531	1	main_slash	7	advance_on_keypress_SLASH	32	stimuli_distractor_trianglediamonds.svg	stimuli_target_diamondcircles.svg	27	yes	57	0	685
6.6.1	mac	2022-12-14	14:18:52	14:21:55	182080	5e7d09e7f0a5a00c4a1ccf96	735344531	1	main_slash	7	main_slash	33	stimuli_target_squarediamonds.svg	stimuli_distractor_diamondtriangles.svg	8	yes	53	1	863
6.6.1	mac	2022-12-14	14:18:52	14:21:55	182080	5e7d09e7f0a5a00c4a1ccf96	735344531	1	main_slash	7	advance_on_keypress_SLASH	34	stimuli_target_squarediamonds.svg	stimuli_distractor_diamondtriangles.svg	8	yes	57	0	707
6.6.1	mac	2022-12-14	14:18:52	14:21:57	184117	5e7d09e7f0a5a00c4a1ccf96	735344531	1	main_slash	7	main_slash	35	stimuli_target_circletriangles.svg	stimuli_distractor_diamondtriangles.svg	5	yes	53	1	683
6.6.1	mac	2022-12-14	14:18:52	14:21:57	184117	5e7d09e7f0a5a00c4a1ccf96	735344531	1	main_slash	7	advance_on_keypress_SLASH	36	stimuli_target_circletriangles.svg	stimuli_distractor_diamondtriangles.svg	5	yes	57	0	683
6.6.1	mac	2022-12-14	14:18:52	14:21:59	186128	5e7d09e7f0a5a00c4a1ccf96	735344531	1	main_slash	7	main_slash	37	stimuli_target_squarediamonds.svg	stimuli_distractor_trianglediamonds.svg	4	yes	53	1	695
6.6.1	mac	2022-12-14	14:18:52	14:21:59	186128	5e7d09e7f0a5a00c4a1ccf96	735344531	1	main_slash	7	advance_on_keypress_SLASH	38	stimuli_target_squarediamonds.svg	stimuli_distractor_trianglediamonds.svg	4	yes	57	0	665
6.6.1	mac	2022-12-14	14:18:52	14:22:01	188088	5e7d09e7f0a5a00c4a1ccf96	735344531	1	main_slash	7	main_slash	39	stimuli_target_circlediamonds.svg	stimuli_distractor_trianglediamonds.svg	2	yes	53	1	653
6.6.1	mac	2022-12-14	14:18:52	14:22:01	188088	5e7d09e7f0a5a00c4a1ccf96	735344531	1	main_slash	7	advance_on_keypress_SLASH	40	stimuli_target_circlediamonds.svg	stimuli_distractor_trianglediamonds.svg	2	yes	57	0	594
6.6.1	mac	2022-12-14	14:18:52	14:22:03	189975	5e7d09e7f0a5a00c4a1ccf96	735344531	1	main_slash	7	main_slash	41	stimuli_distractor_diamondtriangles.svg	stimuli_target_squaretriangles.svg	15	yes	53	1	658
6.6.1	mac	2022-12-14	14:18:52	14:22:03	189975	5e7d09e7f0a5a00c4a1ccf96	735344531	1	main_slash	7	advance_on_keypress_SLASH	42	stimuli_distractor_diamondtriangles.svg	stimuli_target_squaretriangles.svg	15	yes	57	0	578
6.6.1	mac	2022-12-14	14:18:52	14:22:06	192264	5e7d09e7f0a5a00c4a1ccf96	735344531	1	main_slash	7	main_slash	43	stimuli_target_trianglesquares.svg	stimuli_distractor_trianglediamonds.svg	18	yes	53	1	1064
6.6.1	mac	2022-12-14	14:18:52	14:22:06	192264	5e7d09e7f0a5a00c4a1ccf96	735344531	1	main_slash	7	advance_on_keypress_SLASH	44	stimuli_target_trianglesquares.svg	stimuli_distractor_trianglediamonds.svg	18	yes	57	0	512
6.6.1	mac	2022-12-14	14:18:52	14:22:07	194070	5e7d09e7f0a5a00c4a1ccf96	735344531	1	main_slash	7	main_slash	45	stimuli_distractor_diamondtriangles.svg	stimuli_target_trianglecircles.svg	29	yes	53	1	653
6.6.1	mac	2022-12-14	14:18:52	14:22:07	194070	5e7d09e7f0a5a00c4a1ccf96	735344531	1	main_slash	7	advance_on_keypress_SLASH	46	stimuli_distractor_diamondtriangles.svg	stimuli_target_trianglecircles.svg	29	yes	57	0	581
6.6.1	mac	2022-12-14	14:18:52	14:22:09	196037	5e7d09e7f0a5a00c4a1ccf96	735344531	1	main_slash	7	main_slash	47	stimuli_target_diamondcircles.svg	stimuli_distractor_diamondtriangles.svg	23	yes	53	1	754
6.6.1	mac	2022-12-14	14:18:52	14:22:09	196037	5e7d09e7f0a5a00c4a1ccf96	735344531	1	main_slash	7	advance_on_keypress_SLASH	48	stimuli_target_diamondcircles.svg	stimuli_distractor_diamondtriangles.svg	23	yes	57	0	544
6.6.1	mac	2022-12-14	14:18:52	14:22:11	197911	5e7d09e7f0a5a00c4a1ccf96	735344531	1	main_slash	7	main_slash	49	stimuli_distractor_trianglediamonds.svg	stimuli_target_squaretriangles.svg	11	yes	53	1	694
6.6.1	mac	2022-12-14	14:18:52	14:22:11	197911	5e7d09e7f0a5a00c4a1ccf96	735344531	1	main_slash	7	advance_on_keypress_SLASH	50	stimuli_distractor_trianglediamonds.svg	stimuli_target_squaretriangles.svg	11	yes	57	0	530
6.6.1	mac	2022-12-14	14:18:52	14:22:13	199790	5e7d09e7f0a5a00c4a1ccf96	735344531	1	main_slash	7	main_slash	51	stimuli_target_diamondcircles.svg	stimuli_distractor_trianglediamonds.svg	19	yes	53	1	699
6.6.1	mac	2022-12-14	14:18:52	14:22:13	199790	5e7d09e7f0a5a00c4a1ccf96	735344531	1	main_slash	7	advance_on_keypress_SLASH	52	stimuli_target_diamondcircles.svg	stimuli_distractor_trianglediamonds.svg	19	yes	57	0	393
6.6.1	mac	2022-12-14	14:18:52	14:22:15	201462	5e7d09e7f0a5a00c4a1ccf96	735344531	1	main_slash	7	main_slash	53	stimuli_distractor_trianglediamonds.svg	stimuli_target_trianglecircles.svg	25	yes	53	1	643
6.6.1	mac	2022-12-14	14:18:52	14:22:15	201462	5e7d09e7f0a5a00c4a1ccf96	735344531	1	main_slash	7	advance_on_keypress_SLASH	54	stimuli_distractor_trianglediamonds.svg	stimuli_target_trianglecircles.svg	25	yes	57	0	371
6.6.1	mac	2022-12-14	14:18:52	14:22:18	204465	5e7d09e7f0a5a00c4a1ccf96	735344531	1	main_slash	7	main_slash	55	stimuli_distractor_diamondtriangles.svg	stimuli_distractor_diamondtriangles.svg	39	no	0	1	2000
6.6.1	mac	2022-12-14	14:18:52	14:22:18	204465	5e7d09e7f0a5a00c4a1ccf96	735344531	1	main_slash	7	advance_on_keypress_SLASH	56	stimuli_distractor_diamondtriangles.svg	stimuli_distractor_diamondtriangles.svg	39	no	57	0	491
6.6.1	mac	2022-12-14	14:18:52	14:22:21	207598	5e7d09e7f0a5a00c4a1ccf96	735344531	1	main_slash	7	main_slash	57	stimuli_distractor_diamondtriangles.svg	stimuli_distractor_trianglediamonds.svg	38	no	0	1	2000
6.6.1	mac	2022-12-14	14:18:52	14:22:21	207598	5e7d09e7f0a5a00c4a1ccf96	735344531	1	main_slash	7	advance_on_keypress_SLASH	58	stimuli_distractor_diamondtriangles.svg	stimuli_distractor_trianglediamonds.svg	38	no	57	0	385
6.6.1	mac	2022-12-14	14:18:52	14:22:23	209296	5e7d09e7f0a5a00c4a1ccf96	735344531	1	main_slash	7	main_slash	59	stimuli_target_diamondsquares.svg	stimuli_distractor_diamondtriangles.svg	24	yes	53	1	679
6.6.1	mac	2022-12-14	14:18:52	14:22:23	209296	5e7d09e7f0a5a00c4a1ccf96	735344531	1	main_slash	7	advance_on_keypress_SLASH	60	stimuli_target_diamondsquares.svg	stimuli_distractor_diamondtriangles.svg	24	yes	57	0	568
6.6.1	mac	2022-12-14	14:18:52	14:22:25	211170	5e7d09e7f0a5a00c4a1ccf96	735344531	1	main_slash	7	main_slash	61	stimuli_target_circletriangles.svg	stimuli_distractor_trianglediamonds.svg	1	yes	53	1	668
6.6.1	mac	2022-12-14	14:18:52	14:22:25	211170	5e7d09e7f0a5a00c4a1ccf96	735344531	1	main_slash	7	advance_on_keypress_SLASH	62	stimuli_target_circletriangles.svg	stimuli_distractor_trianglediamonds.svg	1	yes	57	0	648
6.6.1	mac	2022-12-14	14:18:52	14:22:26	213098	5e7d09e7f0a5a00c4a1ccf96	735344531	1	main_slash	7	main_slash	63	stimuli_target_squaretriangles.svg	stimuli_distractor_trianglediamonds.svg	3	yes	53	1	645
6.6.1	mac	2022-12-14	14:18:52	14:22:26	213098	5e7d09e7f0a5a00c4a1ccf96	735344531	1	main_slash	7	advance_on_keypress_SLASH	64	stimuli_target_squaretriangles.svg	stimuli_distractor_trianglediamonds.svg	3	yes	57	0	381
6.6.1	mac	2022-12-14	14:18:52	14:22:28	214800	5e7d09e7f0a5a00c4a1ccf96	735344531	1	main_slash	7	main_slash	65	stimuli_distractor_trianglediamonds.svg	stimuli_target_circlediamonds.svg	10	yes	53	1	680
6.6.1	mac	2022-12-14	14:18:52	14:22:28	214800	5e7d09e7f0a5a00c4a1ccf96	735344531	1	main_slash	7	advance_on_keypress_SLASH	66	stimuli_distractor_trianglediamonds.svg	stimuli_target_circlediamonds.svg	10	yes	57	0	423
6.6.1	mac	2022-12-14	14:18:52	14:22:30	216894	5e7d09e7f0a5a00c4a1ccf96	735344531	1	main_slash	7	main_slash	67	stimuli_distractor_diamondtriangles.svg	stimuli_target_diamondsquares.svg	32	yes	53	1	1026
6.6.1	mac	2022-12-14	14:18:52	14:22:30	216894	5e7d09e7f0a5a00c4a1ccf96	735344531	1	main_slash	7	advance_on_keypress_SLASH	68	stimuli_distractor_diamondtriangles.svg	stimuli_target_diamondsquares.svg	32	yes	57	0	513
6.6.1	mac	2022-12-14	14:18:52	14:22:33	220048	5e7d09e7f0a5a00c4a1ccf96	735344531	1	main_slash	7	main_slash	69	stimuli_distractor_trianglediamonds.svg	stimuli_distractor_diamondtriangles.svg	35	no	0	1	2000
6.6.1	mac	2022-12-14	14:18:52	14:22:33	220048	5e7d09e7f0a5a00c4a1ccf96	735344531	1	main_slash	7	advance_on_keypress_SLASH	70	stimuli_distractor_trianglediamonds.svg	stimuli_distractor_diamondtriangles.svg	35	no	57	0	274
6.6.1	mac	2022-12-14	14:18:52	14:22:35	221608	5e7d09e7f0a5a00c4a1ccf96	735344531	1	main_slash	7	main_slash	71	stimuli_distractor_diamondtriangles.svg	stimuli_target_circletriangles.svg	13	yes	53	1	637
6.6.1	mac	2022-12-14	14:18:52	14:22:35	221608	5e7d09e7f0a5a00c4a1ccf96	735344531	1	main_slash	7	advance_on_keypress_SLASH	72	stimuli_distractor_diamondtriangles.svg	stimuli_target_circletriangles.svg	13	yes	57	0	498
6.6.1	mac	2022-12-14	14:18:52	14:22:37	223396	5e7d09e7f0a5a00c4a1ccf96	735344531	1	main_slash	7	main_slash	73	stimuli_distractor_trianglediamonds.svg	stimuli_target_squarediamonds.svg	12	yes	53	1	659
6.6.1	mac	2022-12-14	14:18:52	14:22:37	223396	5e7d09e7f0a5a00c4a1ccf96	735344531	1	main_slash	7	advance_on_keypress_SLASH	74	stimuli_distractor_trianglediamonds.svg	stimuli_target_squarediamonds.svg	12	yes	57	0	375
6.6.1	mac	2022-12-14	14:18:52	14:22:39	225595	5e7d09e7f0a5a00c4a1ccf96	735344531	1	main_slash	7	main_slash	75	stimuli_target_trianglesquares.svg	stimuli_distractor_diamondtriangles.svg	22	yes	53	1	1177
6.6.1	mac	2022-12-14	14:18:52	14:22:39	225595	5e7d09e7f0a5a00c4a1ccf96	735344531	1	main_slash	7	advance_on_keypress_SLASH	76	stimuli_target_trianglesquares.svg	stimuli_distractor_diamondtriangles.svg	22	yes	57	0	432
6.6.1	mac	2022-12-14	14:18:52	14:22:41	227492	5e7d09e7f0a5a00c4a1ccf96	735344531	1	main_slash	7	main_slash	77	stimuli_distractor_trianglediamonds.svg	stimuli_target_diamondsquares.svg	28	yes	53	1	823
6.6.1	mac	2022-12-14	14:18:52	14:22:41	227492	5e7d09e7f0a5a00c4a1ccf96	735344531	1	main_slash	7	advance_on_keypress_SLASH	78	stimuli_distractor_trianglediamonds.svg	stimuli_target_diamondsquares.svg	28	yes	57	0	384
6.6.1	mac	2022-12-14	14:18:52	14:22:43	229359	5e7d09e7f0a5a00c4a1ccf96	735344531	1	main_slash	7	main_slash	79	stimuli_target_circlediamonds.svg	stimuli_distractor_diamondtriangles.svg	6	yes	53	1	839
6.6.1	mac	2022-12-14	14:18:52	14:22:43	229359	5e7d09e7f0a5a00c4a1ccf96	735344531	1	main_slash	7	advance_on_keypress_SLASH	80	stimuli_target_circlediamonds.svg	stimuli_distractor_diamondtriangles.svg	6	yes	57	0	385
6.6.1	mac	2022-12-14	14:18:52	14:22:46	232367	5e7d09e7f0a5a00c4a1ccf96	735344531	1	main_slash	7	main_slash	81	stimuli_distractor_trianglediamonds.svg	stimuli_distractor_diamondtriangles.svg	36	no	0	1	2000
6.6.1	mac	2022-12-14	14:18:52	14:22:46	232367	5e7d09e7f0a5a00c4a1ccf96	735344531	1	main_slash	7	advance_on_keypress_SLASH	82	stimuli_distractor_trianglediamonds.svg	stimuli_distractor_diamondtriangles.svg	36	no	57	0	274
6.6.1	mac	2022-12-14	14:18:52	14:22:47	233964	5e7d09e7f0a5a00c4a1ccf96	735344531	1	main_slash	7	main_slash	83	stimuli_distractor_trianglediamonds.svg	stimuli_target_circletriangles.svg	9	yes	53	1	678
6.6.1	mac	2022-12-14	14:18:52	14:22:47	233964	5e7d09e7f0a5a00c4a1ccf96	735344531	1	main_slash	7	advance_on_keypress_SLASH	84	stimuli_distractor_trianglediamonds.svg	stimuli_target_circletriangles.svg	9	yes	57	0	383
6.6.1	mac	2022-12-14	14:18:52	14:22:50	236984	5e7d09e7f0a5a00c4a1ccf96	735344531	1	main_slash	7	main_slash	85	stimuli_distractor_trianglediamonds.svg	stimuli_distractor_trianglediamonds.svg	34	no	0	1	2000
6.6.1	mac	2022-12-14	14:18:52	14:22:50	236984	5e7d09e7f0a5a00c4a1ccf96	735344531	1	main_slash	7	advance_on_keypress_SLASH	86	stimuli_distractor_trianglediamonds.svg	stimuli_distractor_trianglediamonds.svg	34	no	57	0	285
6.6.1	mac	2022-12-14	14:18:52	14:22:52	238360	5e7d09e7f0a5a00c4a1ccf96	735344531	1	main_slash	7	main_slash	87	stimuli_target_circlediamonds.svg	stimuli_distractor_trianglediamonds.svg	2	yes	53	1	457
6.6.1	mac	2022-12-14	14:18:52	14:22:52	238360	5e7d09e7f0a5a00c4a1ccf96	735344531	1	main_slash	7	advance_on_keypress_SLASH	88	stimuli_target_circlediamonds.svg	stimuli_distractor_trianglediamonds.svg	2	yes	57	0	374
6.6.1	mac	2022-12-14	14:18:52	14:22:53	239870	5e7d09e7f0a5a00c4a1ccf96	735344531	1	main_slash	7	main_slash	89	stimuli_distractor_diamondtriangles.svg	stimuli_target_trianglesquares.svg	30	yes	53	1	484
6.6.1	mac	2022-12-14	14:18:52	14:22:53	239870	5e7d09e7f0a5a00c4a1ccf96	735344531	1	main_slash	7	advance_on_keypress_SLASH	90	stimuli_distractor_diamondtriangles.svg	stimuli_target_trianglesquares.svg	30	yes	57	0	425
6.6.1	mac	2022-12-14	14:18:52	14:22:56	242474	5e7d09e7f0a5a00c4a1ccf96	735344531	1	main_slash	7	main_slash	91	stimuli_target_diamondsquares.svg	stimuli_distractor_trianglediamonds.svg	20	yes	53	1	1537
6.6.1	mac	2022-12-14	14:18:52	14:22:56	242474	5e7d09e7f0a5a00c4a1ccf96	735344531	1	main_slash	7	advance_on_keypress_SLASH	92	stimuli_target_diamondsquares.svg	stimuli_distractor_trianglediamonds.svg	20	yes	57	0	496
6.6.1	mac	2022-12-14	14:18:52	14:22:58	244359	5e7d09e7f0a5a00c4a1ccf96	735344531	1	main_slash	7	main_slash	93	stimuli_target_circlediamonds.svg	stimuli_distractor_diamondtriangles.svg	6	yes	53	1	755
6.6.1	mac	2022-12-14	14:18:52	14:22:58	244359	5e7d09e7f0a5a00c4a1ccf96	735344531	1	main_slash	7	advance_on_keypress_SLASH	94	stimuli_target_circlediamonds.svg	stimuli_distractor_diamondtriangles.svg	6	yes	57	0	315
6.6.1	mac	2022-12-14	14:18:52	14:22:59	246088	5e7d09e7f0a5a00c4a1ccf96	735344531	1	main_slash	7	main_slash	95	stimuli_distractor_trianglediamonds.svg	stimuli_target_trianglesquares.svg	26	yes	53	1	766
6.6.1	mac	2022-12-14	14:18:52	14:22:59	246088	5e7d09e7f0a5a00c4a1ccf96	735344531	1	main_slash	7	advance_on_keypress_SLASH	96	stimuli_distractor_trianglediamonds.svg	stimuli_target_trianglesquares.svg	26	yes	57	0	367
6.6.1	mac	2022-12-14	14:18:52	14:23:02	248256	5e7d09e7f0a5a00c4a1ccf96	735344531	1	main_slash	7	main_slash	97	stimuli_distractor_diamondtriangles.svg	stimuli_target_trianglecircles.svg	29	yes	53	1	1169
6.6.1	mac	2022-12-14	14:18:52	14:23:02	248256	5e7d09e7f0a5a00c4a1ccf96	735344531	1	main_slash	7	advance_on_keypress_SLASH	98	stimuli_distractor_diamondtriangles.svg	stimuli_target_trianglecircles.svg	29	yes	57	0	347
6.6.1	mac	2022-12-14	14:18:52	14:23:03	249974	5e7d09e7f0a5a00c4a1ccf96	735344531	1	main_slash	7	main_slash	99	stimuli_target_squarediamonds.svg	stimuli_distractor_diamondtriangles.svg	8	yes	53	1	736
6.6.1	mac	2022-12-14	14:18:52	14:23:03	249974	5e7d09e7f0a5a00c4a1ccf96	735344531	1	main_slash	7	advance_on_keypress_SLASH	100	stimuli_target_squarediamonds.svg	stimuli_distractor_diamondtriangles.svg	8	yes	57	0	327
6.6.1	mac	2022-12-14	14:18:52	14:23:05	251543	5e7d09e7f0a5a00c4a1ccf96	735344531	1	main_slash	7	main_slash	101	stimuli_distractor_diamondtriangles.svg	stimuli_target_circlediamonds.svg	14	yes	53	1	606
6.6.1	mac	2022-12-14	14:18:52	14:23:05	251543	5e7d09e7f0a5a00c4a1ccf96	735344531	1	main_slash	7	advance_on_keypress_SLASH	102	stimuli_distractor_diamondtriangles.svg	stimuli_target_circlediamonds.svg	14	yes	57	0	285
6.6.1	mac	2022-12-14	14:18:52	14:23:07	253300	5e7d09e7f0a5a00c4a1ccf96	735344531	1	main_slash	7	main_slash	103	stimuli_target_trianglesquares.svg	stimuli_distractor_diamondtriangles.svg	22	yes	53	1	829
6.6.1	mac	2022-12-14	14:18:52	14:23:07	253300	5e7d09e7f0a5a00c4a1ccf96	735344531	1	main_slash	7	advance_on_keypress_SLASH	104	stimuli_target_trianglesquares.svg	stimuli_distractor_diamondtriangles.svg	22	yes	57	0	290
6.6.1	mac	2022-12-14	14:18:52	14:23:10	256234	5e7d09e7f0a5a00c4a1ccf96	735344531	1	main_slash	7	main_slash	105	stimuli_distractor_trianglediamonds.svg	stimuli_distractor_trianglediamonds.svg	33	no	0	1	2000
6.6.1	mac	2022-12-14	14:18:52	14:23:10	256234	5e7d09e7f0a5a00c4a1ccf96	735344531	1	main_slash	7	advance_on_keypress_SLASH	106	stimuli_distractor_trianglediamonds.svg	stimuli_distractor_trianglediamonds.svg	33	no	57	0	277
6.6.1	mac	2022-12-14	14:18:52	14:23:11	257721	5e7d09e7f0a5a00c4a1ccf96	735344531	1	main_slash	7	main_slash	107	stimuli_target_circletriangles.svg	stimuli_distractor_trianglediamonds.svg	1	yes	53	1	566
6.6.1	mac	2022-12-14	14:18:52	14:23:11	257721	5e7d09e7f0a5a00c4a1ccf96	735344531	1	main_slash	7	advance_on_keypress_SLASH	108	stimuli_target_circletriangles.svg	stimuli_distractor_trianglediamonds.svg	1	yes	57	0	281
6.6.1	mac	2022-12-14	14:18:52	14:23:13	259174	5e7d09e7f0a5a00c4a1ccf96	735344531	1	main_slash	7	main_slash	109	stimuli_target_circletriangles.svg	stimuli_distractor_diamondtriangles.svg	5	yes	53	1	535
6.6.1	mac	2022-12-14	14:18:52	14:23:13	259174	5e7d09e7f0a5a00c4a1ccf96	735344531	1	main_slash	7	advance_on_keypress_SLASH	110	stimuli_target_circletriangles.svg	stimuli_distractor_diamondtriangles.svg	5	yes	57	0	203
6.6.1	mac	2022-12-14	14:18:52	14:23:14	260780	5e7d09e7f0a5a00c4a1ccf96	735344531	1	main_slash	7	main_slash	111	stimuli_distractor_diamondtriangles.svg	stimuli_target_diamondsquares.svg	32	yes	53	1	757
6.6.1	mac	2022-12-14	14:18:52	14:23:14	260780	5e7d09e7f0a5a00c4a1ccf96	735344531	1	main_slash	7	advance_on_keypress_SLASH	112	stimuli_distractor_diamondtriangles.svg	stimuli_target_diamondsquares.svg	32	yes	57	0	256
6.6.1	mac	2022-12-14	14:18:52	14:23:17	263688	5e7d09e7f0a5a00c4a1ccf96	735344531	1	main_slash	7	main_slash	113	stimuli_distractor_trianglediamonds.svg	stimuli_distractor_diamondtriangles.svg	35	no	0	1	2000
6.6.1	mac	2022-12-14	14:18:52	14:23:17	263688	5e7d09e7f0a5a00c4a1ccf96	735344531	1	main_slash	7	advance_on_keypress_SLASH	114	stimuli_distractor_trianglediamonds.svg	stimuli_distractor_diamondtriangles.svg	35	no	57	0	394
6.6.1	mac	2022-12-14	14:18:52	14:23:19	265369	5e7d09e7f0a5a00c4a1ccf96	735344531	1	main_slash	7	main_slash	115	stimuli_target_diamondsquares.svg	stimuli_distractor_diamondtriangles.svg	24	yes	53	1	646
6.6.1	mac	2022-12-14	14:18:52	14:23:19	265369	5e7d09e7f0a5a00c4a1ccf96	735344531	1	main_slash	7	advance_on_keypress_SLASH	116	stimuli_target_diamondsquares.svg	stimuli_distractor_diamondtriangles.svg	24	yes	57	0	248
6.6.1	mac	2022-12-14	14:18:52	14:23:20	266927	5e7d09e7f0a5a00c4a1ccf96	735344531	1	main_slash	7	main_slash	117	stimuli_target_squaretriangles.svg	stimuli_distractor_trianglediamonds.svg	3	yes	53	1	673
6.6.1	mac	2022-12-14	14:18:52	14:23:20	266927	5e7d09e7f0a5a00c4a1ccf96	735344531	1	main_slash	7	advance_on_keypress_SLASH	118	stimuli_target_squaretriangles.svg	stimuli_distractor_trianglediamonds.svg	3	yes	57	0	379
6.6.1	mac	2022-12-14	14:18:52	14:23:22	268586	5e7d09e7f0a5a00c4a1ccf96	735344531	1	main_slash	7	main_slash	119	stimuli_target_diamondcircles.svg	stimuli_distractor_diamondtriangles.svg	23	yes	53	1	647
6.6.1	mac	2022-12-14	14:18:52	14:23:22	268586	5e7d09e7f0a5a00c4a1ccf96	735344531	1	main_slash	7	advance_on_keypress_SLASH	120	stimuli_target_diamondcircles.svg	stimuli_distractor_diamondtriangles.svg	23	yes	57	0	220
6.6.1	mac	2022-12-14	14:18:52	14:23:24	270214	5e7d09e7f0a5a00c4a1ccf96	735344531	1	main_slash	7	main_slash	121	stimuli_target_trianglesquares.svg	stimuli_distractor_trianglediamonds.svg	18	yes	53	1	771
6.6.1	mac	2022-12-14	14:18:52	14:23:24	270214	5e7d09e7f0a5a00c4a1ccf96	735344531	1	main_slash	7	advance_on_keypress_SLASH	122	stimuli_target_trianglesquares.svg	stimuli_distractor_trianglediamonds.svg	18	yes	57	0	282
6.6.1	mac	2022-12-14	14:18:52	14:23:25	271772	5e7d09e7f0a5a00c4a1ccf96	735344531	1	main_slash	7	main_slash	123	stimuli_target_trianglecircles.svg	stimuli_distractor_trianglediamonds.svg	17	yes	53	1	633
6.6.1	mac	2022-12-14	14:18:52	14:23:25	271772	5e7d09e7f0a5a00c4a1ccf96	735344531	1	main_slash	7	advance_on_keypress_SLASH	124	stimuli_target_trianglecircles.svg	stimuli_distractor_trianglediamonds.svg	17	yes	57	0	252
6.6.1	mac	2022-12-14	14:18:52	14:23:27	273474	5e7d09e7f0a5a00c4a1ccf96	735344531	1	main_slash	7	main_slash	125	stimuli_distractor_trianglediamonds.svg	stimuli_target_squaretriangles.svg	11	yes	53	1	818
6.6.1	mac	2022-12-14	14:18:52	14:23:27	273474	5e7d09e7f0a5a00c4a1ccf96	735344531	1	main_slash	7	advance_on_keypress_SLASH	126	stimuli_distractor_trianglediamonds.svg	stimuli_target_squaretriangles.svg	11	yes	57	0	331
6.6.1	mac	2022-12-14	14:18:52	14:23:28	275121	5e7d09e7f0a5a00c4a1ccf96	735344531	1	main_slash	7	main_slash	127	stimuli_distractor_diamondtriangles.svg	stimuli_target_diamondcircles.svg	31	yes	53	1	682
6.6.1	mac	2022-12-14	14:18:52	14:23:28	275121	5e7d09e7f0a5a00c4a1ccf96	735344531	1	main_slash	7	advance_on_keypress_SLASH	128	stimuli_distractor_diamondtriangles.svg	stimuli_target_diamondcircles.svg	31	yes	57	0	180
6.6.1	mac	2022-12-14	14:18:52	14:23:30	276828	5e7d09e7f0a5a00c4a1ccf96	735344531	1	main_slash	7	main_slash	129	stimuli_distractor_trianglediamonds.svg	stimuli_target_squarediamonds.svg	12	yes	53	1	889
6.6.1	mac	2022-12-14	14:18:52	14:23:30	276828	5e7d09e7f0a5a00c4a1ccf96	735344531	1	main_slash	7	advance_on_keypress_SLASH	130	stimuli_distractor_trianglediamonds.svg	stimuli_target_squarediamonds.svg	12	yes	57	0	384
6.6.1	mac	2022-12-14	14:18:52	14:23:32	278561	5e7d09e7f0a5a00c4a1ccf96	735344531	1	main_slash	7	main_slash	131	stimuli_target_squaretriangles.svg	stimuli_distractor_diamondtriangles.svg	7	yes	53	1	705
6.6.1	mac	2022-12-14	14:18:52	14:23:32	278561	5e7d09e7f0a5a00c4a1ccf96	735344531	1	main_slash	7	advance_on_keypress_SLASH	132	stimuli_target_squaretriangles.svg	stimuli_distractor_diamondtriangles.svg	7	yes	57	0	309
6.6.1	mac	2022-12-14	14:18:52	14:23:35	281503	5e7d09e7f0a5a00c4a1ccf96	735344531	1	main_slash	7	main_slash	133	stimuli_distractor_diamondtriangles.svg	stimuli_distractor_diamondtriangles.svg	40	no	0	1	2000
6.6.1	mac	2022-12-14	14:18:52	14:23:35	281503	5e7d09e7f0a5a00c4a1ccf96	735344531	1	main_slash	7	advance_on_keypress_SLASH	134	stimuli_distractor_diamondtriangles.svg	stimuli_distractor_diamondtriangles.svg	40	no	57	0	360
6.6.1	mac	2022-12-14	14:18:52	14:23:36	283130	5e7d09e7f0a5a00c4a1ccf96	735344531	1	main_slash	7	main_slash	135	stimuli_distractor_trianglediamonds.svg	stimuli_target_diamondsquares.svg	28	yes	53	1	623
6.6.1	mac	2022-12-14	14:18:52	14:23:36	283130	5e7d09e7f0a5a00c4a1ccf96	735344531	1	main_slash	7	advance_on_keypress_SLASH	136	stimuli_distractor_trianglediamonds.svg	stimuli_target_diamondsquares.svg	28	yes	57	0	469
6.6.1	mac	2022-12-14	14:18:52	14:23:40	286236	5e7d09e7f0a5a00c4a1ccf96	735344531	1	main_slash	7	main_slash	137	stimuli_distractor_diamondtriangles.svg	stimuli_distractor_trianglediamonds.svg	38	no	0	1	2000
6.6.1	mac	2022-12-14	14:18:52	14:23:40	286236	5e7d09e7f0a5a00c4a1ccf96	735344531	1	main_slash	7	advance_on_keypress_SLASH	138	stimuli_distractor_diamondtriangles.svg	stimuli_distractor_trianglediamonds.svg	38	no	57	0	485
6.6.1	mac	2022-12-14	14:18:52	14:23:41	287911	5e7d09e7f0a5a00c4a1ccf96	735344531	1	main_slash	7	main_slash	139	stimuli_distractor_trianglediamonds.svg	stimuli_target_diamondcircles.svg	27	yes	53	1	554
6.6.1	mac	2022-12-14	14:18:52	14:23:41	287911	5e7d09e7f0a5a00c4a1ccf96	735344531	1	main_slash	7	advance_on_keypress_SLASH	140	stimuli_distractor_trianglediamonds.svg	stimuli_target_diamondcircles.svg	27	yes	57	0	287
6.6.1	mac	2022-12-14	14:18:52	14:23:43	289443	5e7d09e7f0a5a00c4a1ccf96	735344531	1	main_slash	7	main_slash	141	stimuli_target_squarediamonds.svg	stimuli_distractor_trianglediamonds.svg	4	yes	53	1	603
6.6.1	mac	2022-12-14	14:18:52	14:23:43	289443	5e7d09e7f0a5a00c4a1ccf96	735344531	1	main_slash	7	advance_on_keypress_SLASH	142	stimuli_target_squarediamonds.svg	stimuli_distractor_trianglediamonds.svg	4	yes	57	0	257
6.6.1	mac	2022-12-14	14:18:52	14:23:46	292337	5e7d09e7f0a5a00c4a1ccf96	735344531	1	main_slash	7	main_slash	143	stimuli_distractor_diamondtriangles.svg	stimuli_distractor_trianglediamonds.svg	37	no	0	1	2000
6.6.1	mac	2022-12-14	14:18:52	14:23:46	292337	5e7d09e7f0a5a00c4a1ccf96	735344531	1	main_slash	7	advance_on_keypress_SLASH	144	stimuli_distractor_diamondtriangles.svg	stimuli_distractor_trianglediamonds.svg	37	no	57	0	479
6.6.1	mac	2022-12-14	14:18:52	14:23:47	294062	5e7d09e7f0a5a00c4a1ccf96	735344531	1	main_slash	7	main_slash	145	stimuli_target_diamondcircles.svg	stimuli_distractor_trianglediamonds.svg	19	yes	53	1	602
6.6.1	mac	2022-12-14	14:18:52	14:23:47	294062	5e7d09e7f0a5a00c4a1ccf96	735344531	1	main_slash	7	advance_on_keypress_SLASH	146	stimuli_target_diamondcircles.svg	stimuli_distractor_trianglediamonds.svg	19	yes	57	0	303
6.6.1	mac	2022-12-14	14:18:52	14:23:49	295616	5e7d09e7f0a5a00c4a1ccf96	735344531	1	main_slash	7	main_slash	147	stimuli_distractor_trianglediamonds.svg	stimuli_target_trianglecircles.svg	25	yes	53	1	624
6.6.1	mac	2022-12-14	14:18:52	14:23:49	295616	5e7d09e7f0a5a00c4a1ccf96	735344531	1	main_slash	7	advance_on_keypress_SLASH	148	stimuli_distractor_trianglediamonds.svg	stimuli_target_trianglecircles.svg	25	yes	57	0	284
6.6.1	mac	2022-12-14	14:18:52	14:23:52	298537	5e7d09e7f0a5a00c4a1ccf96	735344531	1	main_slash	7	main_slash	149	stimuli_distractor_diamondtriangles.svg	stimuli_target_circletriangles.svg	13	yes	0	0	2000
6.6.1	mac	2022-12-14	14:18:52	14:23:52	298537	5e7d09e7f0a5a00c4a1ccf96	735344531	1	main_slash	7	advance_on_keypress_SLASH	150	stimuli_distractor_diamondtriangles.svg	stimuli_target_circletriangles.svg	13	yes	57	0	358
6.6.1	mac	2022-12-14	14:18:52	14:23:55	301538	5e7d09e7f0a5a00c4a1ccf96	735344531	1	main_slash	7	main_slash	151	stimuli_distractor_diamondtriangles.svg	stimuli_distractor_diamondtriangles.svg	39	no	0	1	2000
6.6.1	mac	2022-12-14	14:18:52	14:23:55	301538	5e7d09e7f0a5a00c4a1ccf96	735344531	1	main_slash	7	advance_on_keypress_SLASH	152	stimuli_distractor_diamondtriangles.svg	stimuli_distractor_diamondtriangles.svg	39	no	57	0	101
6.6.1	mac	2022-12-14	14:18:52	14:23:56	302933	5e7d09e7f0a5a00c4a1ccf96	735344531	1	main_slash	7	main_slash	153	stimuli_distractor_diamondtriangles.svg	stimuli_target_squaretriangles.svg	15	yes	53	1	658
6.6.1	mac	2022-12-14	14:18:52	14:23:56	302933	5e7d09e7f0a5a00c4a1ccf96	735344531	1	main_slash	7	advance_on_keypress_SLASH	154	stimuli_distractor_diamondtriangles.svg	stimuli_target_squaretriangles.svg	15	yes	57	0	270
6.6.1	mac	2022-12-14	14:18:52	14:23:58	304477	5e7d09e7f0a5a00c4a1ccf96	735344531	1	main_slash	7	main_slash	155	stimuli_target_trianglecircles.svg	stimuli_distractor_diamondtriangles.svg	21	yes	53	1	636
6.6.1	mac	2022-12-14	14:18:52	14:23:58	304477	5e7d09e7f0a5a00c4a1ccf96	735344531	1	main_slash	7	advance_on_keypress_SLASH	156	stimuli_target_trianglecircles.svg	stimuli_distractor_diamondtriangles.svg	21	yes	57	0	255
6.6.1	mac	2022-12-14	14:18:52	14:23:59	306102	5e7d09e7f0a5a00c4a1ccf96	735344531	1	main_slash	7	main_slash	157	stimuli_distractor_diamondtriangles.svg	stimuli_target_squarediamonds.svg	16	yes	53	1	745
6.6.1	mac	2022-12-14	14:18:52	14:23:59	306102	5e7d09e7f0a5a00c4a1ccf96	735344531	1	main_slash	7	advance_on_keypress_SLASH	158	stimuli_distractor_diamondtriangles.svg	stimuli_target_squarediamonds.svg	16	yes	57	0	242
6.6.1	mac	2022-12-14	14:18:52	14:24:01	307688	5e7d09e7f0a5a00c4a1ccf96	735344531	1	main_slash	7	main_slash	159	stimuli_distractor_trianglediamonds.svg	stimuli_target_circlediamonds.svg	10	yes	53	1	696
6.6.1	mac	2022-12-14	14:18:52	14:24:01	307688	5e7d09e7f0a5a00c4a1ccf96	735344531	1	main_slash	7	advance_on_keypress_SLASH	160	stimuli_distractor_trianglediamonds.svg	stimuli_target_circlediamonds.svg	10	yes	57	0	242
6.6.1	mac	2022-12-14	14:18:52	14:24:19	325191	5e7d09e7f0a5a00c4a1ccf96	735344531	1	practice_z	9	practice_z	1	stimuli_target_circlediamonds.svg	stimuli_distractor_diamondtriangles.svg	1	yes	44	1	639
6.6.1	mac	2022-12-14	14:18:52	14:24:19	325191	5e7d09e7f0a5a00c4a1ccf96	735344531	1	practice_z	9	advance_on_keypress_ZEE	2	stimuli_target_circlediamonds.svg	stimuli_distractor_diamondtriangles.svg	1	yes	57	0	416
6.6.1	mac	2022-12-14	14:18:52	14:24:21	327925	5e7d09e7f0a5a00c4a1ccf96	735344531	1	practice_z	9	practice_z	3	stimuli_distractor_trianglediamonds.svg	stimuli_distractor_diamondtriangles.svg	16	no	44	0	680
6.6.1	mac	2022-12-14	14:18:52	14:24:21	327925	5e7d09e7f0a5a00c4a1ccf96	735344531	1	practice_z	9	advance_on_keypress_ZEE	4	stimuli_distractor_trianglediamonds.svg	stimuli_distractor_diamondtriangles.svg	16	no	57	0	359
6.6.1	mac	2022-12-14	14:18:52	14:24:25	331925	5e7d09e7f0a5a00c4a1ccf96	735344531	1	practice_z	9	practice_z	5	stimuli_distractor_diamondtriangles.svg	stimuli_distractor_trianglediamonds.svg	14	no	0	1	2000
6.6.1	mac	2022-12-14	14:18:52	14:24:25	331925	5e7d09e7f0a5a00c4a1ccf96	735344531	1	practice_z	9	advance_on_keypress_ZEE	6	stimuli_distractor_diamondtriangles.svg	stimuli_distractor_trianglediamonds.svg	14	no	57	0	513
6.6.1	mac	2022-12-14	14:18:52	14:24:28	334623	5e7d09e7f0a5a00c4a1ccf96	735344531	1	practice_z	9	practice_z	7	stimuli_target_squarediamonds.svg	stimuli_distractor_diamondtriangles.svg	2	yes	44	1	545
6.6.1	mac	2022-12-14	14:18:52	14:24:28	334623	5e7d09e7f0a5a00c4a1ccf96	735344531	1	practice_z	9	advance_on_keypress_ZEE	8	stimuli_target_squarediamonds.svg	stimuli_distractor_diamondtriangles.svg	2	yes	57	0	319
6.6.1	mac	2022-12-14	14:18:52	14:24:30	337126	5e7d09e7f0a5a00c4a1ccf96	735344531	1	practice_z	9	practice_z	9	stimuli_distractor_trianglediamonds.svg	stimuli_target_circlediamonds.svg	10	yes	44	1	548
6.6.1	mac	2022-12-14	14:18:52	14:24:30	337126	5e7d09e7f0a5a00c4a1ccf96	735344531	1	practice_z	9	advance_on_keypress_ZEE	10	stimuli_distractor_trianglediamonds.svg	stimuli_target_circlediamonds.svg	10	yes	57	0	225
6.6.1	mac	2022-12-14	14:18:52	14:24:33	339673	5e7d09e7f0a5a00c4a1ccf96	735344531	1	practice_z	9	practice_z	11	stimuli_distractor_trianglediamonds.svg	stimuli_target_diamondcircles.svg	12	yes	44	1	678
6.6.1	mac	2022-12-14	14:18:52	14:24:33	339673	5e7d09e7f0a5a00c4a1ccf96	735344531	1	practice_z	9	advance_on_keypress_ZEE	12	stimuli_distractor_trianglediamonds.svg	stimuli_target_diamondcircles.svg	12	yes	57	0	280
6.6.1	mac	2022-12-14	14:18:52	14:24:36	342177	5e7d09e7f0a5a00c4a1ccf96	735344531	1	practice_z	9	practice_z	13	stimuli_distractor_diamondtriangles.svg	stimuli_target_trianglecircles.svg	9	yes	44	1	582
6.6.1	mac	2022-12-14	14:18:52	14:24:36	342177	5e7d09e7f0a5a00c4a1ccf96	735344531	1	practice_z	9	advance_on_keypress_ZEE	14	stimuli_distractor_diamondtriangles.svg	stimuli_target_trianglecircles.svg	9	yes	57	0	233
6.6.1	mac	2022-12-14	14:18:52	14:24:38	344728	5e7d09e7f0a5a00c4a1ccf96	735344531	1	practice_z	9	practice_z	15	stimuli_target_squarediamonds.svg	stimuli_distractor_trianglediamonds.svg	5	yes	44	1	683
6.6.1	mac	2022-12-14	14:18:52	14:24:38	344728	5e7d09e7f0a5a00c4a1ccf96	735344531	1	practice_z	9	advance_on_keypress_ZEE	16	stimuli_target_squarediamonds.svg	stimuli_distractor_trianglediamonds.svg	5	yes	57	0	261
6.6.1	mac	2022-12-14	14:18:52	14:24:41	347163	5e7d09e7f0a5a00c4a1ccf96	735344531	1	practice_z	9	practice_z	17	stimuli_distractor_diamondtriangles.svg	stimuli_target_circletriangles.svg	7	yes	44	1	534
6.6.1	mac	2022-12-14	14:18:52	14:24:41	347163	5e7d09e7f0a5a00c4a1ccf96	735344531	1	practice_z	9	advance_on_keypress_ZEE	18	stimuli_distractor_diamondtriangles.svg	stimuli_target_circletriangles.svg	7	yes	57	0	223
6.6.1	mac	2022-12-14	14:18:52	14:24:43	349902	5e7d09e7f0a5a00c4a1ccf96	735344531	1	practice_z	9	practice_z	19	stimuli_target_diamondsquares.svg	stimuli_distractor_trianglediamonds.svg	6	yes	44	1	871
6.6.1	mac	2022-12-14	14:18:52	14:24:43	349902	5e7d09e7f0a5a00c4a1ccf96	735344531	1	practice_z	9	advance_on_keypress_ZEE	20	stimuli_target_diamondsquares.svg	stimuli_distractor_trianglediamonds.svg	6	yes	57	0	260
6.6.1	mac	2022-12-14	14:18:52	14:24:46	352526	5e7d09e7f0a5a00c4a1ccf96	735344531	1	practice_z	9	practice_z	21	stimuli_target_diamondsquares.svg	stimuli_distractor_diamondtriangles.svg	3	yes	44	1	712
6.6.1	mac	2022-12-14	14:18:52	14:24:46	352526	5e7d09e7f0a5a00c4a1ccf96	735344531	1	practice_z	9	advance_on_keypress_ZEE	22	stimuli_target_diamondsquares.svg	stimuli_distractor_diamondtriangles.svg	3	yes	57	0	269
6.6.1	mac	2022-12-14	14:18:52	14:24:48	355116	5e7d09e7f0a5a00c4a1ccf96	735344531	1	practice_z	9	practice_z	23	stimuli_distractor_diamondtriangles.svg	stimuli_target_diamondcircles.svg	8	yes	44	1	686
6.6.1	mac	2022-12-14	14:18:52	14:24:48	355116	5e7d09e7f0a5a00c4a1ccf96	735344531	1	practice_z	9	advance_on_keypress_ZEE	24	stimuli_distractor_diamondtriangles.svg	stimuli_target_diamondcircles.svg	8	yes	57	0	228
6.6.1	mac	2022-12-14	14:18:52	14:24:51	357612	5e7d09e7f0a5a00c4a1ccf96	735344531	1	practice_z	9	practice_z	25	stimuli_target_circlediamonds.svg	stimuli_distractor_trianglediamonds.svg	4	yes	44	1	626
6.6.1	mac	2022-12-14	14:18:52	14:24:51	357612	5e7d09e7f0a5a00c4a1ccf96	735344531	1	practice_z	9	advance_on_keypress_ZEE	26	stimuli_target_circlediamonds.svg	stimuli_distractor_trianglediamonds.svg	4	yes	57	0	221
6.6.1	mac	2022-12-14	14:18:52	14:24:55	361477	5e7d09e7f0a5a00c4a1ccf96	735344531	1	practice_z	9	practice_z	27	stimuli_distractor_diamondtriangles.svg	stimuli_distractor_diamondtriangles.svg	13	no	0	1	2000
6.6.1	mac	2022-12-14	14:18:52	14:24:55	361477	5e7d09e7f0a5a00c4a1ccf96	735344531	1	practice_z	9	advance_on_keypress_ZEE	28	stimuli_distractor_diamondtriangles.svg	stimuli_distractor_diamondtriangles.svg	13	no	57	0	401
6.6.1	mac	2022-12-14	14:18:52	14:24:59	365510	5e7d09e7f0a5a00c4a1ccf96	735344531	1	practice_z	9	practice_z	29	stimuli_distractor_trianglediamonds.svg	stimuli_distractor_trianglediamonds.svg	15	no	0	1	2000
6.6.1	mac	2022-12-14	14:18:52	14:24:59	365510	5e7d09e7f0a5a00c4a1ccf96	735344531	1	practice_z	9	advance_on_keypress_ZEE	30	stimuli_distractor_trianglediamonds.svg	stimuli_distractor_trianglediamonds.svg	15	no	57	0	349
6.6.1	mac	2022-12-14	14:18:52	14:25:01	368020	5e7d09e7f0a5a00c4a1ccf96	735344531	1	practice_z	9	practice_z	31	stimuli_distractor_trianglediamonds.svg	stimuli_target_squarediamonds.svg	11	yes	44	1	523
6.6.1	mac	2022-12-14	14:18:52	14:25:01	368020	5e7d09e7f0a5a00c4a1ccf96	735344531	1	practice_z	9	advance_on_keypress_ZEE	32	stimuli_distractor_trianglediamonds.svg	stimuli_target_squarediamonds.svg	11	yes	57	0	419
6.6.1	mac	2022-12-14	14:18:52	14:25:07	373476	5e7d09e7f0a5a00c4a1ccf96	735344531	1	main_z	11	main_z	1	stimuli_distractor_diamondtriangles.svg	stimuli_distractor_diamondtriangles.svg	40	no	0	1	2000
6.6.1	mac	2022-12-14	14:18:52	14:25:07	373476	5e7d09e7f0a5a00c4a1ccf96	735344531	1	main_z	11	advance_on_keypress_ZEE	2	stimuli_distractor_diamondtriangles.svg	stimuli_distractor_diamondtriangles.svg	40	no	57	0	446
6.6.1	mac	2022-12-14	14:18:52	14:25:09	375231	5e7d09e7f0a5a00c4a1ccf96	735344531	1	main_z	11	main_z	3	stimuli_distractor_trianglediamonds.svg	stimuli_target_circletriangles.svg	9	yes	44	1	665
6.6.1	mac	2022-12-14	14:18:52	14:25:09	375231	5e7d09e7f0a5a00c4a1ccf96	735344531	1	main_z	11	advance_on_keypress_ZEE	4	stimuli_distractor_trianglediamonds.svg	stimuli_target_circletriangles.svg	9	yes	57	0	693
6.6.1	mac	2022-12-14	14:18:52	14:25:11	377151	5e7d09e7f0a5a00c4a1ccf96	735344531	1	main_z	11	main_z	5	stimuli_target_diamondcircles.svg	stimuli_distractor_diamondtriangles.svg	23	yes	44	1	588
6.6.1	mac	2022-12-14	14:18:52	14:25:11	377151	5e7d09e7f0a5a00c4a1ccf96	735344531	1	main_z	11	advance_on_keypress_ZEE	6	stimuli_target_diamondcircles.svg	stimuli_distractor_diamondtriangles.svg	23	yes	57	0	543
6.6.1	mac	2022-12-14	14:18:52	14:25:12	378854	5e7d09e7f0a5a00c4a1ccf96	735344531	1	main_z	11	main_z	7	stimuli_target_circlediamonds.svg	stimuli_distractor_diamondtriangles.svg	6	yes	44	1	526
6.6.1	mac	2022-12-14	14:18:52	14:25:12	378854	5e7d09e7f0a5a00c4a1ccf96	735344531	1	main_z	11	advance_on_keypress_ZEE	8	stimuli_target_circlediamonds.svg	stimuli_distractor_diamondtriangles.svg	6	yes	57	0	488
6.6.1	mac	2022-12-14	14:18:52	14:25:14	380772	5e7d09e7f0a5a00c4a1ccf96	735344531	1	main_z	11	main_z	9	stimuli_target_trianglesquares.svg	stimuli_distractor_trianglediamonds.svg	18	yes	44	1	792
6.6.1	mac	2022-12-14	14:18:52	14:25:14	380772	5e7d09e7f0a5a00c4a1ccf96	735344531	1	main_z	11	advance_on_keypress_ZEE	10	stimuli_target_trianglesquares.svg	stimuli_distractor_trianglediamonds.svg	18	yes	57	0	401
6.6.1	mac	2022-12-14	14:18:52	14:25:16	382336	5e7d09e7f0a5a00c4a1ccf96	735344531	1	main_z	11	main_z	11	stimuli_distractor_trianglediamonds.svg	stimuli_target_trianglesquares.svg	26	yes	44	1	522
6.6.1	mac	2022-12-14	14:18:52	14:25:16	382336	5e7d09e7f0a5a00c4a1ccf96	735344531	1	main_z	11	advance_on_keypress_ZEE	12	stimuli_distractor_trianglediamonds.svg	stimuli_target_trianglesquares.svg	26	yes	57	0	418
6.6.1	mac	2022-12-14	14:18:52	14:25:19	385394	5e7d09e7f0a5a00c4a1ccf96	735344531	1	main_z	11	main_z	13	stimuli_distractor_trianglediamonds.svg	stimuli_distractor_diamondtriangles.svg	36	no	0	1	2000
6.6.1	mac	2022-12-14	14:18:52	14:25:19	385394	5e7d09e7f0a5a00c4a1ccf96	735344531	1	main_z	11	advance_on_keypress_ZEE	14	stimuli_distractor_trianglediamonds.svg	stimuli_distractor_diamondtriangles.svg	36	no	57	0	394
6.6.1	mac	2022-12-14	14:18:52	14:25:20	387055	5e7d09e7f0a5a00c4a1ccf96	735344531	1	main_z	11	main_z	15	stimuli_target_squarediamonds.svg	stimuli_distractor_diamondtriangles.svg	8	yes	44	1	626
6.6.1	mac	2022-12-14	14:18:52	14:25:20	387055	5e7d09e7f0a5a00c4a1ccf96	735344531	1	main_z	11	advance_on_keypress_ZEE	16	stimuli_target_squarediamonds.svg	stimuli_distractor_diamondtriangles.svg	8	yes	57	0	334
6.6.1	mac	2022-12-14	14:18:52	14:25:22	388544	5e7d09e7f0a5a00c4a1ccf96	735344531	1	main_z	11	main_z	17	stimuli_target_squarediamonds.svg	stimuli_distractor_trianglediamonds.svg	4	yes	44	1	512
6.6.1	mac	2022-12-14	14:18:52	14:25:22	388544	5e7d09e7f0a5a00c4a1ccf96	735344531	1	main_z	11	advance_on_keypress_ZEE	18	stimuli_target_squarediamonds.svg	stimuli_distractor_trianglediamonds.svg	4	yes	57	0	253
6.6.1	mac	2022-12-14	14:18:52	14:25:23	390105	5e7d09e7f0a5a00c4a1ccf96	735344531	1	main_z	11	main_z	19	stimuli_distractor_diamondtriangles.svg	stimuli_target_diamondsquares.svg	32	yes	44	1	674
6.6.1	mac	2022-12-14	14:18:52	14:25:23	390105	5e7d09e7f0a5a00c4a1ccf96	735344531	1	main_z	11	advance_on_keypress_ZEE	20	stimuli_distractor_diamondtriangles.svg	stimuli_target_diamondsquares.svg	32	yes	57	0	239
6.6.1	mac	2022-12-14	14:18:52	14:25:26	392993	5e7d09e7f0a5a00c4a1ccf96	735344531	1	main_z	11	main_z	21	stimuli_distractor_diamondtriangles.svg	stimuli_distractor_trianglediamonds.svg	37	no	0	1	2000
6.6.1	mac	2022-12-14	14:18:52	14:25:26	392993	5e7d09e7f0a5a00c4a1ccf96	735344531	1	main_z	11	advance_on_keypress_ZEE	22	stimuli_distractor_diamondtriangles.svg	stimuli_distractor_trianglediamonds.svg	37	no	57	0	281
6.6.1	mac	2022-12-14	14:18:52	14:25:28	394502	5e7d09e7f0a5a00c4a1ccf96	735344531	1	main_z	11	main_z	23	stimuli_target_trianglesquares.svg	stimuli_distractor_diamondtriangles.svg	22	yes	44	1	589
6.6.1	mac	2022-12-14	14:18:52	14:25:28	394502	5e7d09e7f0a5a00c4a1ccf96	735344531	1	main_z	11	advance_on_keypress_ZEE	24	stimuli_target_trianglesquares.svg	stimuli_distractor_diamondtriangles.svg	22	yes	57	0	314
6.6.1	mac	2022-12-14	14:18:52	14:25:30	396186	5e7d09e7f0a5a00c4a1ccf96	735344531	1	main_z	11	main_z	25	stimuli_distractor_trianglediamonds.svg	stimuli_target_diamondsquares.svg	28	yes	44	1	721
6.6.1	mac	2022-12-14	14:18:52	14:25:30	396186	5e7d09e7f0a5a00c4a1ccf96	735344531	1	main_z	11	advance_on_keypress_ZEE	26	stimuli_distractor_trianglediamonds.svg	stimuli_target_diamondsquares.svg	28	yes	57	0	303
6.6.1	mac	2022-12-14	14:18:52	14:25:31	397700	5e7d09e7f0a5a00c4a1ccf96	735344531	1	main_z	11	main_z	27	stimuli_target_trianglecircles.svg	stimuli_distractor_trianglediamonds.svg	17	yes	44	1	585
6.6.1	mac	2022-12-14	14:18:52	14:25:31	397700	5e7d09e7f0a5a00c4a1ccf96	735344531	1	main_z	11	advance_on_keypress_ZEE	28	stimuli_target_trianglecircles.svg	stimuli_distractor_trianglediamonds.svg	17	yes	57	0	216
6.6.1	mac	2022-12-14	14:18:52	14:25:33	399228	5e7d09e7f0a5a00c4a1ccf96	735344531	1	main_z	11	main_z	29	stimuli_distractor_diamondtriangles.svg	stimuli_target_circlediamonds.svg	14	yes	44	1	681
6.6.1	mac	2022-12-14	14:18:52	14:25:33	399228	5e7d09e7f0a5a00c4a1ccf96	735344531	1	main_z	11	advance_on_keypress_ZEE	30	stimuli_distractor_diamondtriangles.svg	stimuli_target_circlediamonds.svg	14	yes	57	0	307
6.6.1	mac	2022-12-14	14:18:52	14:25:34	400733	5e7d09e7f0a5a00c4a1ccf96	735344531	1	main_z	11	main_z	31	stimuli_target_squaretriangles.svg	stimuli_distractor_trianglediamonds.svg	3	yes	44	1	550
6.6.1	mac	2022-12-14	14:18:52	14:25:34	400733	5e7d09e7f0a5a00c4a1ccf96	735344531	1	main_z	11	advance_on_keypress_ZEE	32	stimuli_target_squaretriangles.svg	stimuli_distractor_trianglediamonds.svg	3	yes	57	0	307
6.6.1	mac	2022-12-14	14:18:52	14:25:36	402375	5e7d09e7f0a5a00c4a1ccf96	735344531	1	main_z	11	main_z	33	stimuli_target_diamondsquares.svg	stimuli_distractor_trianglediamonds.svg	20	yes	44	1	691
6.6.1	mac	2022-12-14	14:18:52	14:25:36	402375	5e7d09e7f0a5a00c4a1ccf96	735344531	1	main_z	11	advance_on_keypress_ZEE	34	stimuli_target_diamondsquares.svg	stimuli_distractor_trianglediamonds.svg	20	yes	57	0	290
6.6.1	mac	2022-12-14	14:18:52	14:25:37	403857	5e7d09e7f0a5a00c4a1ccf96	735344531	1	main_z	11	main_z	35	stimuli_target_diamondcircles.svg	stimuli_distractor_trianglediamonds.svg	19	yes	44	1	540
6.6.1	mac	2022-12-14	14:18:52	14:25:37	403857	5e7d09e7f0a5a00c4a1ccf96	735344531	1	main_z	11	advance_on_keypress_ZEE	36	stimuli_target_diamondcircles.svg	stimuli_distractor_trianglediamonds.svg	19	yes	57	0	314
6.6.1	mac	2022-12-14	14:18:52	14:25:39	405391	5e7d09e7f0a5a00c4a1ccf96	735344531	1	main_z	11	main_z	37	stimuli_distractor_trianglediamonds.svg	stimuli_target_trianglecircles.svg	25	yes	44	1	574
6.6.1	mac	2022-12-14	14:18:52	14:25:39	405391	5e7d09e7f0a5a00c4a1ccf96	735344531	1	main_z	11	advance_on_keypress_ZEE	38	stimuli_distractor_trianglediamonds.svg	stimuli_target_trianglecircles.svg	25	yes	57	0	303
6.6.1	mac	2022-12-14	14:18:52	14:25:40	406937	5e7d09e7f0a5a00c4a1ccf96	735344531	1	main_z	11	main_z	39	stimuli_distractor_diamondtriangles.svg	stimuli_target_squaretriangles.svg	15	yes	44	1	586
6.6.1	mac	2022-12-14	14:18:52	14:25:40	406937	5e7d09e7f0a5a00c4a1ccf96	735344531	1	main_z	11	advance_on_keypress_ZEE	40	stimuli_distractor_diamondtriangles.svg	stimuli_target_squaretriangles.svg	15	yes	57	0	318
6.6.1	mac	2022-12-14	14:18:52	14:25:43	409878	5e7d09e7f0a5a00c4a1ccf96	735344531	1	main_z	11	main_z	41	stimuli_distractor_trianglediamonds.svg	stimuli_distractor_diamondtriangles.svg	35	no	0	1	2000
6.6.1	mac	2022-12-14	14:18:52	14:25:43	409878	5e7d09e7f0a5a00c4a1ccf96	735344531	1	main_z	11	advance_on_keypress_ZEE	42	stimuli_distractor_trianglediamonds.svg	stimuli_distractor_diamondtriangles.svg	35	no	57	0	289
6.6.1	mac	2022-12-14	14:18:52	14:25:46	412812	5e7d09e7f0a5a00c4a1ccf96	735344531	1	main_z	11	main_z	43	stimuli_distractor_trianglediamonds.svg	stimuli_distractor_trianglediamonds.svg	33	no	0	1	2000
6.6.1	mac	2022-12-14	14:18:52	14:25:46	412812	5e7d09e7f0a5a00c4a1ccf96	735344531	1	main_z	11	advance_on_keypress_ZEE	44	stimuli_distractor_trianglediamonds.svg	stimuli_distractor_trianglediamonds.svg	33	no	57	0	308
6.6.1	mac	2022-12-14	14:18:52	14:25:49	415347	5e7d09e7f0a5a00c4a1ccf96	735344531	1	main_z	11	main_z	45	stimuli_distractor_diamondtriangles.svg	stimuli_target_squarediamonds.svg	16	yes	44	1	1582
6.6.1	mac	2022-12-14	14:18:52	14:25:49	415347	5e7d09e7f0a5a00c4a1ccf96	735344531	1	main_z	11	advance_on_keypress_ZEE	46	stimuli_distractor_diamondtriangles.svg	stimuli_target_squarediamonds.svg	16	yes	57	0	456
6.6.1	mac	2022-12-14	14:18:52	14:25:50	416962	5e7d09e7f0a5a00c4a1ccf96	735344531	1	main_z	11	main_z	47	stimuli_target_squaretriangles.svg	stimuli_distractor_diamondtriangles.svg	7	yes	44	1	510
6.6.1	mac	2022-12-14	14:18:52	14:25:50	416962	5e7d09e7f0a5a00c4a1ccf96	735344531	1	main_z	11	advance_on_keypress_ZEE	48	stimuli_target_squaretriangles.svg	stimuli_distractor_diamondtriangles.svg	7	yes	57	0	358
6.6.1	mac	2022-12-14	14:18:52	14:25:52	418773	5e7d09e7f0a5a00c4a1ccf96	735344531	1	main_z	11	main_z	49	stimuli_target_circletriangles.svg	stimuli_distractor_diamondtriangles.svg	5	yes	44	1	807
6.6.1	mac	2022-12-14	14:18:52	14:25:52	418773	5e7d09e7f0a5a00c4a1ccf96	735344531	1	main_z	11	advance_on_keypress_ZEE	50	stimuli_target_circletriangles.svg	stimuli_distractor_diamondtriangles.svg	5	yes	57	0	430
6.6.1	mac	2022-12-14	14:18:52	14:25:54	420537	5e7d09e7f0a5a00c4a1ccf96	735344531	1	main_z	11	main_z	51	stimuli_distractor_diamondtriangles.svg	stimuli_target_trianglesquares.svg	30	yes	44	1	685
6.6.1	mac	2022-12-14	14:18:52	14:25:54	420537	5e7d09e7f0a5a00c4a1ccf96	735344531	1	main_z	11	advance_on_keypress_ZEE	52	stimuli_distractor_diamondtriangles.svg	stimuli_target_trianglesquares.svg	30	yes	57	0	284
6.6.1	mac	2022-12-14	14:18:52	14:25:55	422064	5e7d09e7f0a5a00c4a1ccf96	735344531	1	main_z	11	main_z	53	stimuli_target_circletriangles.svg	stimuli_distractor_trianglediamonds.svg	1	yes	44	1	615
6.6.1	mac	2022-12-14	14:18:52	14:25:55	422064	5e7d09e7f0a5a00c4a1ccf96	735344531	1	main_z	11	advance_on_keypress_ZEE	54	stimuli_target_circletriangles.svg	stimuli_distractor_trianglediamonds.svg	1	yes	57	0	291
6.6.1	mac	2022-12-14	14:18:52	14:25:58	424995	5e7d09e7f0a5a00c4a1ccf96	735344531	1	main_z	11	main_z	55	stimuli_distractor_diamondtriangles.svg	stimuli_distractor_diamondtriangles.svg	39	no	0	1	2000
6.6.1	mac	2022-12-14	14:18:52	14:25:58	424995	5e7d09e7f0a5a00c4a1ccf96	735344531	1	main_z	11	advance_on_keypress_ZEE	56	stimuli_distractor_diamondtriangles.svg	stimuli_distractor_diamondtriangles.svg	39	no	57	0	316
6.6.1	mac	2022-12-14	14:18:52	14:26:01	427946	5e7d09e7f0a5a00c4a1ccf96	735344531	1	main_z	11	main_z	57	stimuli_distractor_diamondtriangles.svg	stimuli_distractor_trianglediamonds.svg	38	no	0	1	2000
6.6.1	mac	2022-12-14	14:18:52	14:26:01	427946	5e7d09e7f0a5a00c4a1ccf96	735344531	1	main_z	11	advance_on_keypress_ZEE	58	stimuli_distractor_diamondtriangles.svg	stimuli_distractor_trianglediamonds.svg	38	no	57	0	427
6.6.1	mac	2022-12-14	14:18:52	14:26:03	429636	5e7d09e7f0a5a00c4a1ccf96	735344531	1	main_z	11	main_z	59	stimuli_distractor_diamondtriangles.svg	stimuli_target_diamondcircles.svg	31	yes	44	1	618
6.6.1	mac	2022-12-14	14:18:52	14:26:03	429636	5e7d09e7f0a5a00c4a1ccf96	735344531	1	main_z	11	advance_on_keypress_ZEE	60	stimuli_distractor_diamondtriangles.svg	stimuli_target_diamondcircles.svg	31	yes	57	0	316
6.6.1	mac	2022-12-14	14:18:52	14:26:05	431682	5e7d09e7f0a5a00c4a1ccf96	735344531	1	main_z	11	main_z	61	stimuli_distractor_diamondtriangles.svg	stimuli_target_circletriangles.svg	13	yes	44	1	1097
6.6.1	mac	2022-12-14	14:18:52	14:26:05	431682	5e7d09e7f0a5a00c4a1ccf96	735344531	1	main_z	11	advance_on_keypress_ZEE	62	stimuli_distractor_diamondtriangles.svg	stimuli_target_circletriangles.svg	13	yes	57	0	302
6.6.1	mac	2022-12-14	14:18:52	14:26:07	433324	5e7d09e7f0a5a00c4a1ccf96	735344531	1	main_z	11	main_z	63	stimuli_target_diamondsquares.svg	stimuli_distractor_diamondtriangles.svg	24	yes	44	1	706
6.6.1	mac	2022-12-14	14:18:52	14:26:07	433324	5e7d09e7f0a5a00c4a1ccf96	735344531	1	main_z	11	advance_on_keypress_ZEE	64	stimuli_target_diamondsquares.svg	stimuli_distractor_diamondtriangles.svg	24	yes	57	0	282
6.6.1	mac	2022-12-14	14:18:52	14:26:08	434955	5e7d09e7f0a5a00c4a1ccf96	735344531	1	main_z	11	main_z	65	stimuli_distractor_trianglediamonds.svg	stimuli_target_squarediamonds.svg	12	yes	44	1	704
6.6.1	mac	2022-12-14	14:18:52	14:26:08	434955	5e7d09e7f0a5a00c4a1ccf96	735344531	1	main_z	11	advance_on_keypress_ZEE	66	stimuli_distractor_trianglediamonds.svg	stimuli_target_squarediamonds.svg	12	yes	57	0	262
6.6.1	mac	2022-12-14	14:18:52	14:26:10	436466	5e7d09e7f0a5a00c4a1ccf96	735344531	1	main_z	11	main_z	67	stimuli_distractor_trianglediamonds.svg	stimuli_target_squaretriangles.svg	11	yes	44	1	614
6.6.1	mac	2022-12-14	14:18:52	14:26:10	436466	5e7d09e7f0a5a00c4a1ccf96	735344531	1	main_z	11	advance_on_keypress_ZEE	68	stimuli_distractor_trianglediamonds.svg	stimuli_target_squaretriangles.svg	11	yes	57	0	189
6.6.1	mac	2022-12-14	14:18:52	14:26:11	437829	5e7d09e7f0a5a00c4a1ccf96	735344531	1	main_z	11	main_z	69	stimuli_target_circlediamonds.svg	stimuli_distractor_trianglediamonds.svg	2	yes	44	1	544
6.6.1	mac	2022-12-14	14:18:52	14:26:11	437829	5e7d09e7f0a5a00c4a1ccf96	735344531	1	main_z	11	advance_on_keypress_ZEE	70	stimuli_target_circlediamonds.svg	stimuli_distractor_trianglediamonds.svg	2	yes	57	0	238
6.6.1	mac	2022-12-14	14:18:52	14:26:13	439289	5e7d09e7f0a5a00c4a1ccf96	735344531	1	main_z	11	main_z	71	stimuli_target_trianglecircles.svg	stimuli_distractor_diamondtriangles.svg	21	yes	44	1	588
6.6.1	mac	2022-12-14	14:18:52	14:26:13	439289	5e7d09e7f0a5a00c4a1ccf96	735344531	1	main_z	11	advance_on_keypress_ZEE	72	stimuli_target_trianglecircles.svg	stimuli_distractor_diamondtriangles.svg	21	yes	57	0	183
6.6.1	mac	2022-12-14	14:18:52	14:26:14	440665	5e7d09e7f0a5a00c4a1ccf96	735344531	1	main_z	11	main_z	73	stimuli_distractor_trianglediamonds.svg	stimuli_target_circlediamonds.svg	10	yes	44	1	565
6.6.1	mac	2022-12-14	14:18:52	14:26:14	440665	5e7d09e7f0a5a00c4a1ccf96	735344531	1	main_z	11	advance_on_keypress_ZEE	74	stimuli_distractor_trianglediamonds.svg	stimuli_target_circlediamonds.svg	10	yes	57	0	252
6.6.1	mac	2022-12-14	14:18:52	14:26:17	443551	5e7d09e7f0a5a00c4a1ccf96	735344531	1	main_z	11	main_z	75	stimuli_distractor_trianglediamonds.svg	stimuli_distractor_trianglediamonds.svg	34	no	0	1	2000
6.6.1	mac	2022-12-14	14:18:52	14:26:17	443551	5e7d09e7f0a5a00c4a1ccf96	735344531	1	main_z	11	advance_on_keypress_ZEE	76	stimuli_distractor_trianglediamonds.svg	stimuli_distractor_trianglediamonds.svg	34	no	57	0	286
6.6.1	mac	2022-12-14	14:18:52	14:26:18	445025	5e7d09e7f0a5a00c4a1ccf96	735344531	1	main_z	11	main_z	77	stimuli_distractor_trianglediamonds.svg	stimuli_target_diamondcircles.svg	27	yes	44	1	557
6.6.1	mac	2022-12-14	14:18:52	14:26:18	445025	5e7d09e7f0a5a00c4a1ccf96	735344531	1	main_z	11	advance_on_keypress_ZEE	78	stimuli_distractor_trianglediamonds.svg	stimuli_target_diamondcircles.svg	27	yes	57	0	182
6.6.1	mac	2022-12-14	14:18:52	14:26:20	446340	5e7d09e7f0a5a00c4a1ccf96	735344531	1	main_z	11	main_z	79	stimuli_distractor_diamondtriangles.svg	stimuli_target_trianglecircles.svg	29	yes	44	1	488
6.6.1	mac	2022-12-14	14:18:52	14:26:20	446340	5e7d09e7f0a5a00c4a1ccf96	735344531	1	main_z	11	advance_on_keypress_ZEE	80	stimuli_distractor_diamondtriangles.svg	stimuli_target_trianglecircles.svg	29	yes	57	0	207
6.6.1	mac	2022-12-14	14:18:52	14:26:21	447770	5e7d09e7f0a5a00c4a1ccf96	735344531	1	main_z	11	main_z	81	stimuli_target_trianglesquares.svg	stimuli_distractor_trianglediamonds.svg	18	yes	44	1	585
6.6.1	mac	2022-12-14	14:18:52	14:26:21	447770	5e7d09e7f0a5a00c4a1ccf96	735344531	1	main_z	11	advance_on_keypress_ZEE	82	stimuli_target_trianglesquares.svg	stimuli_distractor_trianglediamonds.svg	18	yes	57	0	646
6.6.1	mac	2022-12-14	14:18:52	14:26:23	449671	5e7d09e7f0a5a00c4a1ccf96	735344531	1	main_z	11	main_z	83	stimuli_distractor_trianglediamonds.svg	stimuli_target_diamondcircles.svg	27	yes	44	1	620
6.6.1	mac	2022-12-14	14:18:52	14:26:23	449671	5e7d09e7f0a5a00c4a1ccf96	735344531	1	main_z	11	advance_on_keypress_ZEE	84	stimuli_distractor_trianglediamonds.svg	stimuli_target_diamondcircles.svg	27	yes	57	0	179
6.6.1	mac	2022-12-14	14:18:52	14:26:24	451071	5e7d09e7f0a5a00c4a1ccf96	735344531	1	main_z	11	main_z	85	stimuli_target_trianglecircles.svg	stimuli_distractor_diamondtriangles.svg	21	yes	44	1	584
6.6.1	mac	2022-12-14	14:18:52	14:26:24	451071	5e7d09e7f0a5a00c4a1ccf96	735344531	1	main_z	11	advance_on_keypress_ZEE	86	stimuli_target_trianglecircles.svg	stimuli_distractor_diamondtriangles.svg	21	yes	57	0	219
6.6.1	mac	2022-12-14	14:18:52	14:26:26	452538	5e7d09e7f0a5a00c4a1ccf96	735344531	1	main_z	11	main_z	87	stimuli_distractor_diamondtriangles.svg	stimuli_target_diamondcircles.svg	31	yes	44	1	620
6.6.1	mac	2022-12-14	14:18:52	14:26:26	452538	5e7d09e7f0a5a00c4a1ccf96	735344531	1	main_z	11	advance_on_keypress_ZEE	88	stimuli_distractor_diamondtriangles.svg	stimuli_target_diamondcircles.svg	31	yes	57	0	254
6.6.1	mac	2022-12-14	14:18:52	14:26:27	454035	5e7d09e7f0a5a00c4a1ccf96	735344531	1	main_z	11	main_z	89	stimuli_distractor_trianglediamonds.svg	stimuli_target_circlediamonds.svg	10	yes	44	1	618
6.6.1	mac	2022-12-14	14:18:52	14:26:27	454035	5e7d09e7f0a5a00c4a1ccf96	735344531	1	main_z	11	advance_on_keypress_ZEE	90	stimuli_distractor_trianglediamonds.svg	stimuli_target_circlediamonds.svg	10	yes	57	0	204
6.6.1	mac	2022-12-14	14:18:52	14:26:29	455479	5e7d09e7f0a5a00c4a1ccf96	735344531	1	main_z	11	main_z	91	stimuli_distractor_trianglediamonds.svg	stimuli_target_diamondsquares.svg	28	yes	44	1	611
6.6.1	mac	2022-12-14	14:18:52	14:26:29	455479	5e7d09e7f0a5a00c4a1ccf96	735344531	1	main_z	11	advance_on_keypress_ZEE	92	stimuli_distractor_trianglediamonds.svg	stimuli_target_diamondsquares.svg	28	yes	57	0	237
6.6.1	mac	2022-12-14	14:18:52	14:26:30	457074	5e7d09e7f0a5a00c4a1ccf96	735344531	1	main_z	11	main_z	93	stimuli_target_circletriangles.svg	stimuli_distractor_diamondtriangles.svg	5	yes	44	1	720
6.6.1	mac	2022-12-14	14:18:52	14:26:30	457074	5e7d09e7f0a5a00c4a1ccf96	735344531	1	main_z	11	advance_on_keypress_ZEE	94	stimuli_target_circletriangles.svg	stimuli_distractor_diamondtriangles.svg	5	yes	57	0	231
6.6.1	mac	2022-12-14	14:18:52	14:26:32	458604	5e7d09e7f0a5a00c4a1ccf96	735344531	1	main_z	11	main_z	95	stimuli_target_circletriangles.svg	stimuli_distractor_trianglediamonds.svg	1	yes	44	1	660
6.6.1	mac	2022-12-14	14:18:52	14:26:32	458604	5e7d09e7f0a5a00c4a1ccf96	735344531	1	main_z	11	advance_on_keypress_ZEE	96	stimuli_target_circletriangles.svg	stimuli_distractor_trianglediamonds.svg	1	yes	57	0	223
6.6.1	mac	2022-12-14	14:18:52	14:26:33	460046	5e7d09e7f0a5a00c4a1ccf96	735344531	1	main_z	11	main_z	97	stimuli_distractor_trianglediamonds.svg	stimuli_target_trianglecircles.svg	25	yes	44	1	576
6.6.1	mac	2022-12-14	14:18:52	14:26:33	460046	5e7d09e7f0a5a00c4a1ccf96	735344531	1	main_z	11	advance_on_keypress_ZEE	98	stimuli_distractor_trianglediamonds.svg	stimuli_target_trianglecircles.svg	25	yes	57	0	191
6.6.1	mac	2022-12-14	14:18:52	14:26:35	461551	5e7d09e7f0a5a00c4a1ccf96	735344531	1	main_z	11	main_z	99	stimuli_target_circlediamonds.svg	stimuli_distractor_trianglediamonds.svg	2	yes	44	1	666
6.6.1	mac	2022-12-14	14:18:52	14:26:35	461551	5e7d09e7f0a5a00c4a1ccf96	735344531	1	main_z	11	advance_on_keypress_ZEE	100	stimuli_target_circlediamonds.svg	stimuli_distractor_trianglediamonds.svg	2	yes	57	0	204
6.6.1	mac	2022-12-14	14:18:52	14:26:36	462954	5e7d09e7f0a5a00c4a1ccf96	735344531	1	main_z	11	main_z	101	stimuli_target_squaretriangles.svg	stimuli_distractor_diamondtriangles.svg	7	yes	44	1	567
6.6.1	mac	2022-12-14	14:18:52	14:26:36	462954	5e7d09e7f0a5a00c4a1ccf96	735344531	1	main_z	11	advance_on_keypress_ZEE	102	stimuli_target_squaretriangles.svg	stimuli_distractor_diamondtriangles.svg	7	yes	57	0	157
6.6.1	mac	2022-12-14	14:18:52	14:26:38	464282	5e7d09e7f0a5a00c4a1ccf96	735344531	1	main_z	11	main_z	103	stimuli_target_squarediamonds.svg	stimuli_distractor_diamondtriangles.svg	8	yes	44	1	530
6.6.1	mac	2022-12-14	14:18:52	14:26:38	464282	5e7d09e7f0a5a00c4a1ccf96	735344531	1	main_z	11	advance_on_keypress_ZEE	104	stimuli_target_squarediamonds.svg	stimuli_distractor_diamondtriangles.svg	8	yes	57	0	228
6.6.1	mac	2022-12-14	14:18:52	14:26:41	467149	5e7d09e7f0a5a00c4a1ccf96	735344531	1	main_z	11	main_z	105	stimuli_distractor_diamondtriangles.svg	stimuli_distractor_diamondtriangles.svg	40	no	0	1	2000
6.6.1	mac	2022-12-14	14:18:52	14:26:41	467149	5e7d09e7f0a5a00c4a1ccf96	735344531	1	main_z	11	advance_on_keypress_ZEE	106	stimuli_distractor_diamondtriangles.svg	stimuli_distractor_diamondtriangles.svg	40	no	57	0	301
6.6.1	mac	2022-12-14	14:18:52	14:26:42	468708	5e7d09e7f0a5a00c4a1ccf96	735344531	1	main_z	11	main_z	107	stimuli_distractor_diamondtriangles.svg	stimuli_target_squaretriangles.svg	15	yes	44	1	622
6.6.1	mac	2022-12-14	14:18:52	14:26:42	468708	5e7d09e7f0a5a00c4a1ccf96	735344531	1	main_z	11	advance_on_keypress_ZEE	108	stimuli_distractor_diamondtriangles.svg	stimuli_target_squaretriangles.svg	15	yes	57	0	171
6.6.1	mac	2022-12-14	14:18:52	14:26:43	470043	5e7d09e7f0a5a00c4a1ccf96	735344531	1	main_z	11	main_z	109	stimuli_distractor_diamondtriangles.svg	stimuli_target_circlediamonds.svg	14	yes	44	1	523
6.6.1	mac	2022-12-14	14:18:52	14:26:43	470043	5e7d09e7f0a5a00c4a1ccf96	735344531	1	main_z	11	advance_on_keypress_ZEE	110	stimuli_distractor_diamondtriangles.svg	stimuli_target_circlediamonds.svg	14	yes	57	0	174
6.6.1	mac	2022-12-14	14:18:52	14:26:45	471431	5e7d09e7f0a5a00c4a1ccf96	735344531	1	main_z	11	main_z	111	stimuli_target_trianglesquares.svg	stimuli_distractor_diamondtriangles.svg	22	yes	44	1	561
6.6.1	mac	2022-12-14	14:18:52	14:26:45	471431	5e7d09e7f0a5a00c4a1ccf96	735344531	1	main_z	11	advance_on_keypress_ZEE	112	stimuli_target_trianglesquares.svg	stimuli_distractor_diamondtriangles.svg	22	yes	57	0	178
6.6.1	mac	2022-12-14	14:18:52	14:26:46	472803	5e7d09e7f0a5a00c4a1ccf96	735344531	1	main_z	11	main_z	113	stimuli_distractor_diamondtriangles.svg	stimuli_target_diamondsquares.svg	32	yes	44	1	549
6.6.1	mac	2022-12-14	14:18:52	14:26:46	472803	5e7d09e7f0a5a00c4a1ccf96	735344531	1	main_z	11	advance_on_keypress_ZEE	114	stimuli_distractor_diamondtriangles.svg	stimuli_target_diamondsquares.svg	32	yes	57	0	185
6.6.1	mac	2022-12-14	14:18:52	14:26:49	475616	5e7d09e7f0a5a00c4a1ccf96	735344531	1	main_z	11	main_z	115	stimuli_distractor_trianglediamonds.svg	stimuli_distractor_diamondtriangles.svg	35	no	0	1	2000
6.6.1	mac	2022-12-14	14:18:52	14:26:49	475616	5e7d09e7f0a5a00c4a1ccf96	735344531	1	main_z	11	advance_on_keypress_ZEE	116	stimuli_distractor_trianglediamonds.svg	stimuli_distractor_diamondtriangles.svg	35	no	57	0	298
6.6.1	mac	2022-12-14	14:18:52	14:26:50	477078	5e7d09e7f0a5a00c4a1ccf96	735344531	1	main_z	11	main_z	117	stimuli_distractor_trianglediamonds.svg	stimuli_target_circletriangles.svg	9	yes	44	1	526
6.6.1	mac	2022-12-14	14:18:52	14:26:50	477078	5e7d09e7f0a5a00c4a1ccf96	735344531	1	main_z	11	advance_on_keypress_ZEE	118	stimuli_distractor_trianglediamonds.svg	stimuli_target_circletriangles.svg	9	yes	57	0	153
6.6.1	mac	2022-12-14	14:18:52	14:26:52	478449	5e7d09e7f0a5a00c4a1ccf96	735344531	1	main_z	11	main_z	119	stimuli_target_squarediamonds.svg	stimuli_distractor_trianglediamonds.svg	4	yes	44	1	579
6.6.1	mac	2022-12-14	14:18:52	14:26:52	478449	5e7d09e7f0a5a00c4a1ccf96	735344531	1	main_z	11	advance_on_keypress_ZEE	120	stimuli_target_squarediamonds.svg	stimuli_distractor_trianglediamonds.svg	4	yes	57	0	243
6.6.1	mac	2022-12-14	14:18:52	14:26:53	479807	5e7d09e7f0a5a00c4a1ccf96	735344531	1	main_z	11	main_z	121	stimuli_target_squaretriangles.svg	stimuli_distractor_trianglediamonds.svg	3	yes	44	1	470
6.6.1	mac	2022-12-14	14:18:52	14:26:53	479807	5e7d09e7f0a5a00c4a1ccf96	735344531	1	main_z	11	advance_on_keypress_ZEE	122	stimuli_target_squaretriangles.svg	stimuli_distractor_trianglediamonds.svg	3	yes	57	0	174
6.6.1	mac	2022-12-14	14:18:52	14:26:55	481205	5e7d09e7f0a5a00c4a1ccf96	735344531	1	main_z	11	main_z	123	stimuli_target_diamondsquares.svg	stimuli_distractor_diamondtriangles.svg	24	yes	44	1	584
6.6.1	mac	2022-12-14	14:18:52	14:26:55	481205	5e7d09e7f0a5a00c4a1ccf96	735344531	1	main_z	11	advance_on_keypress_ZEE	124	stimuli_target_diamondsquares.svg	stimuli_distractor_diamondtriangles.svg	24	yes	57	0	138
6.6.1	mac	2022-12-14	14:18:52	14:26:56	482811	5e7d09e7f0a5a00c4a1ccf96	735344531	1	main_z	11	main_z	125	stimuli_distractor_trianglediamonds.svg	stimuli_target_squarediamonds.svg	12	yes	44	1	842
6.6.1	mac	2022-12-14	14:18:52	14:26:56	482811	5e7d09e7f0a5a00c4a1ccf96	735344531	1	main_z	11	advance_on_keypress_ZEE	126	stimuli_distractor_trianglediamonds.svg	stimuli_target_squarediamonds.svg	12	yes	57	0	202
6.6.1	mac	2022-12-14	14:18:52	14:26:59	485651	5e7d09e7f0a5a00c4a1ccf96	735344531	1	main_z	11	main_z	127	stimuli_distractor_diamondtriangles.svg	stimuli_distractor_trianglediamonds.svg	38	no	0	1	2000
6.6.1	mac	2022-12-14	14:18:52	14:26:59	485651	5e7d09e7f0a5a00c4a1ccf96	735344531	1	main_z	11	advance_on_keypress_ZEE	128	stimuli_distractor_diamondtriangles.svg	stimuli_distractor_trianglediamonds.svg	38	no	57	0	289
6.6.1	mac	2022-12-14	14:18:52	14:27:02	488297	5e7d09e7f0a5a00c4a1ccf96	735344531	1	main_z	11	main_z	129	stimuli_distractor_diamondtriangles.svg	stimuli_target_trianglesquares.svg	30	yes	44	1	1710
6.6.1	mac	2022-12-14	14:18:52	14:27:02	488297	5e7d09e7f0a5a00c4a1ccf96	735344531	1	main_z	11	advance_on_keypress_ZEE	130	stimuli_distractor_diamondtriangles.svg	stimuli_target_trianglesquares.svg	30	yes	57	0	98
6.6.1	mac	2022-12-14	14:18:52	14:27:03	489745	5e7d09e7f0a5a00c4a1ccf96	735344531	1	main_z	11	main_z	131	stimuli_target_trianglecircles.svg	stimuli_distractor_trianglediamonds.svg	17	yes	44	1	707
6.6.1	mac	2022-12-14	14:18:52	14:27:03	489745	5e7d09e7f0a5a00c4a1ccf96	735344531	1	main_z	11	advance_on_keypress_ZEE	132	stimuli_target_trianglecircles.svg	stimuli_distractor_trianglediamonds.svg	17	yes	57	0	159
6.6.1	mac	2022-12-14	14:18:52	14:27:04	491029	5e7d09e7f0a5a00c4a1ccf96	735344531	1	main_z	11	main_z	133	stimuli_target_diamondcircles.svg	stimuli_distractor_diamondtriangles.svg	23	yes	44	1	474
6.6.1	mac	2022-12-14	14:18:52	14:27:04	491029	5e7d09e7f0a5a00c4a1ccf96	735344531	1	main_z	11	advance_on_keypress_ZEE	134	stimuli_target_diamondcircles.svg	stimuli_distractor_diamondtriangles.svg	23	yes	57	0	181
6.6.1	mac	2022-12-14	14:18:52	14:27:07	493852	5e7d09e7f0a5a00c4a1ccf96	735344531	1	main_z	11	main_z	135	stimuli_distractor_trianglediamonds.svg	stimuli_distractor_trianglediamonds.svg	33	no	0	1	2000
6.6.1	mac	2022-12-14	14:18:52	14:27:07	493852	5e7d09e7f0a5a00c4a1ccf96	735344531	1	main_z	11	advance_on_keypress_ZEE	136	stimuli_distractor_trianglediamonds.svg	stimuli_distractor_trianglediamonds.svg	33	no	57	0	571
6.6.1	mac	2022-12-14	14:18:52	14:27:10	497051	5e7d09e7f0a5a00c4a1ccf96	735344531	1	main_z	11	main_z	137	stimuli_distractor_diamondtriangles.svg	stimuli_distractor_diamondtriangles.svg	39	no	0	1	2000
6.6.1	mac	2022-12-14	14:18:52	14:27:10	497051	5e7d09e7f0a5a00c4a1ccf96	735344531	1	main_z	11	advance_on_keypress_ZEE	138	stimuli_distractor_diamondtriangles.svg	stimuli_distractor_diamondtriangles.svg	39	no	57	0	262
6.6.1	mac	2022-12-14	14:18:52	14:27:12	498490	5e7d09e7f0a5a00c4a1ccf96	735344531	1	main_z	11	main_z	139	stimuli_target_circlediamonds.svg	stimuli_distractor_diamondtriangles.svg	6	yes	44	1	533
6.6.1	mac	2022-12-14	14:18:52	14:27:12	498490	5e7d09e7f0a5a00c4a1ccf96	735344531	1	main_z	11	advance_on_keypress_ZEE	140	stimuli_target_circlediamonds.svg	stimuli_distractor_diamondtriangles.svg	6	yes	57	0	158
6.6.1	mac	2022-12-14	14:18:52	14:27:15	501284	5e7d09e7f0a5a00c4a1ccf96	735344531	1	main_z	11	main_z	141	stimuli_distractor_diamondtriangles.svg	stimuli_distractor_trianglediamonds.svg	37	no	0	1	2000
6.6.1	mac	2022-12-14	14:18:52	14:27:15	501284	5e7d09e7f0a5a00c4a1ccf96	735344531	1	main_z	11	advance_on_keypress_ZEE	142	stimuli_distractor_diamondtriangles.svg	stimuli_distractor_trianglediamonds.svg	37	no	57	0	276
6.6.1	mac	2022-12-14	14:18:52	14:27:16	502854	5e7d09e7f0a5a00c4a1ccf96	735344531	1	main_z	11	main_z	143	stimuli_distractor_trianglediamonds.svg	stimuli_target_trianglesquares.svg	26	yes	44	1	645
6.6.1	mac	2022-12-14	14:18:52	14:27:16	502854	5e7d09e7f0a5a00c4a1ccf96	735344531	1	main_z	11	advance_on_keypress_ZEE	144	stimuli_distractor_trianglediamonds.svg	stimuli_target_trianglesquares.svg	26	yes	57	0	146
6.6.1	mac	2022-12-14	14:18:52	14:27:18	504304	5e7d09e7f0a5a00c4a1ccf96	735344531	1	main_z	11	main_z	145	stimuli_distractor_diamondtriangles.svg	stimuli_target_circletriangles.svg	13	yes	44	1	665
6.6.1	mac	2022-12-14	14:18:52	14:27:18	504304	5e7d09e7f0a5a00c4a1ccf96	735344531	1	main_z	11	advance_on_keypress_ZEE	146	stimuli_distractor_diamondtriangles.svg	stimuli_target_circletriangles.svg	13	yes	57	0	179
6.6.1	mac	2022-12-14	14:18:52	14:27:20	507119	5e7d09e7f0a5a00c4a1ccf96	735344531	1	main_z	11	main_z	147	stimuli_target_diamondsquares.svg	stimuli_distractor_trianglediamonds.svg	20	yes	0	0	2000
6.6.1	mac	2022-12-14	14:18:52	14:27:20	507119	5e7d09e7f0a5a00c4a1ccf96	735344531	1	main_z	11	advance_on_keypress_ZEE	148	stimuli_target_diamondsquares.svg	stimuli_distractor_trianglediamonds.svg	20	yes	57	0	96
6.6.1	mac	2022-12-14	14:18:52	14:27:22	508432	5e7d09e7f0a5a00c4a1ccf96	735344531	1	main_z	11	main_z	149	stimuli_distractor_diamondtriangles.svg	stimuli_target_squarediamonds.svg	16	yes	44	1	576
6.6.1	mac	2022-12-14	14:18:52	14:27:22	508432	5e7d09e7f0a5a00c4a1ccf96	735344531	1	main_z	11	advance_on_keypress_ZEE	150	stimuli_distractor_diamondtriangles.svg	stimuli_target_squarediamonds.svg	16	yes	57	0	146
6.6.1	mac	2022-12-14	14:18:52	14:27:23	509754	5e7d09e7f0a5a00c4a1ccf96	735344531	1	main_z	11	main_z	151	stimuli_target_diamondcircles.svg	stimuli_distractor_trianglediamonds.svg	19	yes	44	1	532
6.6.1	mac	2022-12-14	14:18:52	14:27:23	509754	5e7d09e7f0a5a00c4a1ccf96	735344531	1	main_z	11	advance_on_keypress_ZEE	152	stimuli_target_diamondcircles.svg	stimuli_distractor_trianglediamonds.svg	19	yes	57	0	160
6.6.1	mac	2022-12-14	14:18:52	14:27:26	512553	5e7d09e7f0a5a00c4a1ccf96	735344531	1	main_z	11	main_z	153	stimuli_distractor_trianglediamonds.svg	stimuli_distractor_trianglediamonds.svg	34	no	0	1	2000
6.6.1	mac	2022-12-14	14:18:52	14:27:26	512553	5e7d09e7f0a5a00c4a1ccf96	735344531	1	main_z	11	advance_on_keypress_ZEE	154	stimuli_distractor_trianglediamonds.svg	stimuli_distractor_trianglediamonds.svg	34	no	57	0	368
6.6.1	mac	2022-12-14	14:18:52	14:27:27	514088	5e7d09e7f0a5a00c4a1ccf96	735344531	1	main_z	11	main_z	155	stimuli_distractor_trianglediamonds.svg	stimuli_target_squaretriangles.svg	11	yes	44	1	530
6.6.1	mac	2022-12-14	14:18:52	14:27:27	514088	5e7d09e7f0a5a00c4a1ccf96	735344531	1	main_z	11	advance_on_keypress_ZEE	156	stimuli_distractor_trianglediamonds.svg	stimuli_target_squaretriangles.svg	11	yes	57	0	145
6.6.1	mac	2022-12-14	14:18:52	14:27:29	515400	5e7d09e7f0a5a00c4a1ccf96	735344531	1	main_z	11	main_z	157	stimuli_distractor_diamondtriangles.svg	stimuli_target_trianglecircles.svg	29	yes	44	1	528
6.6.1	mac	2022-12-14	14:18:52	14:27:29	515400	5e7d09e7f0a5a00c4a1ccf96	735344531	1	main_z	11	advance_on_keypress_ZEE	158	stimuli_distractor_diamondtriangles.svg	stimuli_target_trianglecircles.svg	29	yes	57	0	139
6.6.1	mac	2022-12-14	14:18:52	14:27:30	516702	5e7d09e7f0a5a00c4a1ccf96	735344531	1	main_z	11	main_z	159	stimuli_distractor_trianglediamonds.svg	stimuli_distractor_diamondtriangles.svg	36	no	44	0	510
6.6.1	mac	2022-12-14	14:18:52	14:27:30	516702	5e7d09e7f0a5a00c4a1ccf96	735344531	1	main_z	11	advance_on_keypress_ZEE	160	stimuli_distractor_trianglediamonds.svg	stimuli_distractor_diamondtriangles.svg	36	no	57	0	714