build	computer.platform	date	time	timestamp	time_elapsed_ms	subject	group	session	blockcode	blocknum	trialcode	trialnum	stimulus_left	stimulus_right	stim_index	target_present	response	correct	latency
6.6.1	win	2023-01-01	13:46:17	13:51:01	281372	5f77e8c2d3a6412174d44f04	942112926	1	practice_z	5	practice_z	1	stimuli_target_circlediamonds.svg	stimuli_distractor_trianglediamonds.svg	4	yes	0	0	2000
6.6.1	win	2023-01-01	13:46:17	13:51:01	281372	5f77e8c2d3a6412174d44f04	942112926	1	practice_z	5	advance_on_keypress_ZEE	2	stimuli_target_circlediamonds.svg	stimuli_distractor_trianglediamonds.svg	4	yes	57	0	798
6.6.1	win	2023-01-01	13:46:17	13:51:05	285825	5f77e8c2d3a6412174d44f04	942112926	1	practice_z	5	practice_z	3	stimuli_target_diamondsquares.svg	stimuli_distractor_diamondtriangles.svg	3	yes	0	0	2000
6.6.1	win	2023-01-01	13:46:17	13:51:05	285825	5f77e8c2d3a6412174d44f04	942112926	1	practice_z	5	advance_on_keypress_ZEE	4	stimuli_target_diamondsquares.svg	stimuli_distractor_diamondtriangles.svg	3	yes	57	0	709
6.6.1	win	2023-01-01	13:46:17	13:51:09	290176	5f77e8c2d3a6412174d44f04	942112926	1	practice_z	5	practice_z	5	stimuli_target_diamondsquares.svg	stimuli_distractor_trianglediamonds.svg	6	yes	0	0	2000
6.6.1	win	2023-01-01	13:46:17	13:51:09	290176	5f77e8c2d3a6412174d44f04	942112926	1	practice_z	5	advance_on_keypress_ZEE	6	stimuli_target_diamondsquares.svg	stimuli_distractor_trianglediamonds.svg	6	yes	57	0	3480
6.6.1	win	2023-01-01	13:46:17	13:51:17	297313	5f77e8c2d3a6412174d44f04	942112926	1	practice_z	5	practice_z	7	stimuli_target_squarediamonds.svg	stimuli_distractor_trianglediamonds.svg	5	yes	0	0	2000
6.6.1	win	2023-01-01	13:46:17	13:51:17	297313	5f77e8c2d3a6412174d44f04	942112926	1	practice_z	5	advance_on_keypress_ZEE	8	stimuli_target_squarediamonds.svg	stimuli_distractor_trianglediamonds.svg	5	yes	57	0	1853
6.6.1	win	2023-01-01	13:46:17	13:51:22	302321	5f77e8c2d3a6412174d44f04	942112926	1	practice_z	5	practice_z	9	stimuli_target_circlediamonds.svg	stimuli_distractor_diamondtriangles.svg	1	yes	44	1	1507
6.6.1	win	2023-01-01	13:46:17	13:51:22	302321	5f77e8c2d3a6412174d44f04	942112926	1	practice_z	5	advance_on_keypress_ZEE	10	stimuli_target_circlediamonds.svg	stimuli_distractor_diamondtriangles.svg	1	yes	57	0	2166
6.6.1	win	2023-01-01	13:46:17	13:51:27	307250	5f77e8c2d3a6412174d44f04	942112926	1	practice_z	5	practice_z	11	stimuli_distractor_diamondtriangles.svg	stimuli_target_diamondcircles.svg	8	yes	44	1	1117
6.6.1	win	2023-01-01	13:46:17	13:51:27	307250	5f77e8c2d3a6412174d44f04	942112926	1	practice_z	5	advance_on_keypress_ZEE	12	stimuli_distractor_diamondtriangles.svg	stimuli_target_diamondcircles.svg	8	yes	57	0	813
6.6.1	win	2023-01-01	13:46:17	13:51:31	311717	5f77e8c2d3a6412174d44f04	942112926	1	practice_z	5	practice_z	13	stimuli_distractor_trianglediamonds.svg	stimuli_distractor_trianglediamonds.svg	15	no	0	1	2000
6.6.1	win	2023-01-01	13:46:17	13:51:31	311717	5f77e8c2d3a6412174d44f04	942112926	1	practice_z	5	advance_on_keypress_ZEE	14	stimuli_distractor_trianglediamonds.svg	stimuli_distractor_trianglediamonds.svg	15	no	57	0	456
6.6.1	win	2023-01-01	13:46:17	13:51:34	314844	5f77e8c2d3a6412174d44f04	942112926	1	practice_z	5	practice_z	15	stimuli_target_squarediamonds.svg	stimuli_distractor_diamondtriangles.svg	2	yes	44	1	1025
6.6.1	win	2023-01-01	13:46:17	13:51:34	314844	5f77e8c2d3a6412174d44f04	942112926	1	practice_z	5	advance_on_keypress_ZEE	16	stimuli_target_squarediamonds.svg	stimuli_distractor_diamondtriangles.svg	2	yes	57	0	634
6.6.1	win	2023-01-01	13:46:17	13:51:37	318117	5f77e8c2d3a6412174d44f04	942112926	1	practice_z	5	practice_z	17	stimuli_distractor_trianglediamonds.svg	stimuli_target_circlediamonds.svg	10	yes	44	1	997
6.6.1	win	2023-01-01	13:46:17	13:51:37	318117	5f77e8c2d3a6412174d44f04	942112926	1	practice_z	5	advance_on_keypress_ZEE	18	stimuli_distractor_trianglediamonds.svg	stimuli_target_circlediamonds.svg	10	yes	57	0	414
6.6.1	win	2023-01-01	13:46:17	13:51:41	322188	5f77e8c2d3a6412174d44f04	942112926	1	practice_z	5	practice_z	19	stimuli_distractor_trianglediamonds.svg	stimuli_distractor_diamondtriangles.svg	16	no	0	1	2000
6.6.1	win	2023-01-01	13:46:17	13:51:41	322188	5f77e8c2d3a6412174d44f04	942112926	1	practice_z	5	advance_on_keypress_ZEE	20	stimuli_distractor_trianglediamonds.svg	stimuli_distractor_diamondtriangles.svg	16	no	57	0	532
6.6.1	win	2023-01-01	13:46:17	13:51:44	324965	5f77e8c2d3a6412174d44f04	942112926	1	practice_z	5	practice_z	21	stimuli_distractor_trianglediamonds.svg	stimuli_target_squarediamonds.svg	11	yes	44	1	592
6.6.1	win	2023-01-01	13:46:17	13:51:44	324965	5f77e8c2d3a6412174d44f04	942112926	1	practice_z	5	advance_on_keypress_ZEE	22	stimuli_distractor_trianglediamonds.svg	stimuli_target_squarediamonds.svg	11	yes	57	0	522
6.6.1	win	2023-01-01	13:46:17	13:51:47	328214	5f77e8c2d3a6412174d44f04	942112926	1	practice_z	5	practice_z	23	stimuli_distractor_trianglediamonds.svg	stimuli_target_diamondcircles.svg	12	yes	44	1	1090
6.6.1	win	2023-01-01	13:46:17	13:51:47	328214	5f77e8c2d3a6412174d44f04	942112926	1	practice_z	5	advance_on_keypress_ZEE	24	stimuli_distractor_trianglediamonds.svg	stimuli_target_diamondcircles.svg	12	yes	57	0	573
6.6.1	win	2023-01-01	13:46:17	13:51:51	331529	5f77e8c2d3a6412174d44f04	942112926	1	practice_z	5	practice_z	25	stimuli_distractor_diamondtriangles.svg	stimuli_distractor_trianglediamonds.svg	14	no	44	0	1104
6.6.1	win	2023-01-01	13:46:17	13:51:51	331529	5f77e8c2d3a6412174d44f04	942112926	1	practice_z	5	advance_on_keypress_ZEE	26	stimuli_distractor_diamondtriangles.svg	stimuli_distractor_trianglediamonds.svg	14	no	57	0	2247
6.6.1	win	2023-01-01	13:46:17	13:51:55	336095	5f77e8c2d3a6412174d44f04	942112926	1	practice_z	5	practice_z	27	stimuli_distractor_diamondtriangles.svg	stimuli_target_circletriangles.svg	7	yes	44	1	669
6.6.1	win	2023-01-01	13:46:17	13:51:55	336095	5f77e8c2d3a6412174d44f04	942112926	1	practice_z	5	advance_on_keypress_ZEE	28	stimuli_distractor_diamondtriangles.svg	stimuli_target_circletriangles.svg	7	yes	57	0	956
6.6.1	win	2023-01-01	13:46:17	13:52:00	340694	5f77e8c2d3a6412174d44f04	942112926	1	practice_z	5	practice_z	29	stimuli_distractor_diamondtriangles.svg	stimuli_distractor_diamondtriangles.svg	13	no	0	1	2000
6.6.1	win	2023-01-01	13:46:17	13:52:00	340694	5f77e8c2d3a6412174d44f04	942112926	1	practice_z	5	advance_on_keypress_ZEE	30	stimuli_distractor_diamondtriangles.svg	stimuli_distractor_diamondtriangles.svg	13	no	57	0	584
6.6.1	win	2023-01-01	13:46:17	13:52:03	343714	5f77e8c2d3a6412174d44f04	942112926	1	practice_z	5	practice_z	31	stimuli_distractor_diamondtriangles.svg	stimuli_target_trianglecircles.svg	9	yes	44	1	785
6.6.1	win	2023-01-01	13:46:17	13:52:03	343714	5f77e8c2d3a6412174d44f04	942112926	1	practice_z	5	advance_on_keypress_ZEE	32	stimuli_distractor_diamondtriangles.svg	stimuli_target_trianglecircles.svg	9	yes	57	0	403
6.6.1	win	2023-01-01	13:46:17	13:52:13	353355	5f77e8c2d3a6412174d44f04	942112926	1	main_z	7	main_z	1	stimuli_distractor_trianglediamonds.svg	stimuli_target_trianglesquares.svg	26	yes	44	1	957
6.6.1	win	2023-01-01	13:46:17	13:52:13	353355	5f77e8c2d3a6412174d44f04	942112926	1	main_z	7	advance_on_keypress_ZEE	2	stimuli_distractor_trianglediamonds.svg	stimuli_target_trianglesquares.svg	26	yes	57	0	1199
6.6.1	win	2023-01-01	13:46:17	13:52:15	355807	5f77e8c2d3a6412174d44f04	942112926	1	main_z	7	main_z	3	stimuli_target_squarediamonds.svg	stimuli_distractor_trianglediamonds.svg	4	yes	44	1	608
6.6.1	win	2023-01-01	13:46:17	13:52:15	355807	5f77e8c2d3a6412174d44f04	942112926	1	main_z	7	advance_on_keypress_ZEE	4	stimuli_target_squarediamonds.svg	stimuli_distractor_trianglediamonds.svg	4	yes	57	0	1259
6.6.1	win	2023-01-01	13:46:17	13:52:18	358239	5f77e8c2d3a6412174d44f04	942112926	1	main_z	7	main_z	5	stimuli_target_trianglesquares.svg	stimuli_distractor_trianglediamonds.svg	18	yes	44	1	539
6.6.1	win	2023-01-01	13:46:17	13:52:18	358239	5f77e8c2d3a6412174d44f04	942112926	1	main_z	7	advance_on_keypress_ZEE	6	stimuli_target_trianglesquares.svg	stimuli_distractor_trianglediamonds.svg	18	yes	57	0	884
6.6.1	win	2023-01-01	13:46:17	13:52:21	361767	5f77e8c2d3a6412174d44f04	942112926	1	main_z	7	main_z	7	stimuli_distractor_trianglediamonds.svg	stimuli_distractor_trianglediamonds.svg	34	no	0	1	2000
6.6.1	win	2023-01-01	13:46:17	13:52:21	361767	5f77e8c2d3a6412174d44f04	942112926	1	main_z	7	advance_on_keypress_ZEE	8	stimuli_distractor_trianglediamonds.svg	stimuli_distractor_trianglediamonds.svg	34	no	57	0	808
6.6.1	win	2023-01-01	13:46:17	13:52:23	363646	5f77e8c2d3a6412174d44f04	942112926	1	main_z	7	main_z	9	stimuli_distractor_trianglediamonds.svg	stimuli_target_circletriangles.svg	9	yes	44	1	428
6.6.1	win	2023-01-01	13:46:17	13:52:23	363646	5f77e8c2d3a6412174d44f04	942112926	1	main_z	7	advance_on_keypress_ZEE	10	stimuli_distractor_trianglediamonds.svg	stimuli_target_circletriangles.svg	9	yes	57	0	1162
6.6.1	win	2023-01-01	13:46:17	13:52:26	366472	5f77e8c2d3a6412174d44f04	942112926	1	main_z	7	main_z	11	stimuli_target_trianglesquares.svg	stimuli_distractor_diamondtriangles.svg	22	yes	44	1	1035
6.6.1	win	2023-01-01	13:46:17	13:52:26	366472	5f77e8c2d3a6412174d44f04	942112926	1	main_z	7	advance_on_keypress_ZEE	12	stimuli_target_trianglesquares.svg	stimuli_distractor_diamondtriangles.svg	22	yes	57	0	865
6.6.1	win	2023-01-01	13:46:17	13:52:28	368391	5f77e8c2d3a6412174d44f04	942112926	1	main_z	7	main_z	13	stimuli_distractor_diamondtriangles.svg	stimuli_target_trianglesquares.svg	30	yes	44	1	404
6.6.1	win	2023-01-01	13:46:17	13:52:28	368391	5f77e8c2d3a6412174d44f04	942112926	1	main_z	7	advance_on_keypress_ZEE	14	stimuli_distractor_diamondtriangles.svg	stimuli_target_trianglesquares.svg	30	yes	57	0	950
6.6.1	win	2023-01-01	13:46:17	13:52:30	370464	5f77e8c2d3a6412174d44f04	942112926	1	main_z	7	main_z	15	stimuli_distractor_diamondtriangles.svg	stimuli_target_trianglecircles.svg	29	yes	44	1	476
6.6.1	win	2023-01-01	13:46:17	13:52:30	370464	5f77e8c2d3a6412174d44f04	942112926	1	main_z	7	advance_on_keypress_ZEE	16	stimuli_distractor_diamondtriangles.svg	stimuli_target_trianglecircles.svg	29	yes	57	0	805
6.6.1	win	2023-01-01	13:46:17	13:52:33	373905	5f77e8c2d3a6412174d44f04	942112926	1	main_z	7	main_z	17	stimuli_target_diamondsquares.svg	stimuli_distractor_diamondtriangles.svg	24	yes	0	0	2000
6.6.1	win	2023-01-01	13:46:17	13:52:33	373905	5f77e8c2d3a6412174d44f04	942112926	1	main_z	7	advance_on_keypress_ZEE	18	stimuli_target_diamondsquares.svg	stimuli_distractor_diamondtriangles.svg	24	yes	57	0	864
6.6.1	win	2023-01-01	13:46:17	13:52:36	376393	5f77e8c2d3a6412174d44f04	942112926	1	main_z	7	main_z	19	stimuli_distractor_trianglediamonds.svg	stimuli_distractor_diamondtriangles.svg	36	no	44	0	970
6.6.1	win	2023-01-01	13:46:17	13:52:36	376393	5f77e8c2d3a6412174d44f04	942112926	1	main_z	7	advance_on_keypress_ZEE	20	stimuli_distractor_trianglediamonds.svg	stimuli_distractor_diamondtriangles.svg	36	no	57	0	660
6.6.1	win	2023-01-01	13:46:17	13:52:37	378160	5f77e8c2d3a6412174d44f04	942112926	1	main_z	7	main_z	21	stimuli_distractor_diamondtriangles.svg	stimuli_target_circlediamonds.svg	14	yes	44	1	470
6.6.1	win	2023-01-01	13:46:17	13:52:37	378160	5f77e8c2d3a6412174d44f04	942112926	1	main_z	7	advance_on_keypress_ZEE	22	stimuli_distractor_diamondtriangles.svg	stimuli_target_circlediamonds.svg	14	yes	57	0	728
6.6.1	win	2023-01-01	13:46:17	13:52:41	381525	5f77e8c2d3a6412174d44f04	942112926	1	main_z	7	main_z	23	stimuli_distractor_diamondtriangles.svg	stimuli_distractor_trianglediamonds.svg	37	no	0	1	2000
6.6.1	win	2023-01-01	13:46:17	13:52:41	381525	5f77e8c2d3a6412174d44f04	942112926	1	main_z	7	advance_on_keypress_ZEE	24	stimuli_distractor_diamondtriangles.svg	stimuli_distractor_trianglediamonds.svg	37	no	57	0	778
6.6.1	win	2023-01-01	13:46:17	13:52:43	383573	5f77e8c2d3a6412174d44f04	942112926	1	main_z	7	main_z	25	stimuli_distractor_trianglediamonds.svg	stimuli_target_trianglecircles.svg	25	yes	44	1	631
6.6.1	win	2023-01-01	13:46:17	13:52:43	383573	5f77e8c2d3a6412174d44f04	942112926	1	main_z	7	advance_on_keypress_ZEE	26	stimuli_distractor_trianglediamonds.svg	stimuli_target_trianglecircles.svg	25	yes	57	0	775
6.6.1	win	2023-01-01	13:46:17	13:52:45	385627	5f77e8c2d3a6412174d44f04	942112926	1	main_z	7	main_z	27	stimuli_distractor_trianglediamonds.svg	stimuli_target_squarediamonds.svg	12	yes	44	1	633
6.6.1	win	2023-01-01	13:46:17	13:52:45	385627	5f77e8c2d3a6412174d44f04	942112926	1	main_z	7	advance_on_keypress_ZEE	28	stimuli_distractor_trianglediamonds.svg	stimuli_target_squarediamonds.svg	12	yes	57	0	695
6.6.1	win	2023-01-01	13:46:17	13:52:47	387479	5f77e8c2d3a6412174d44f04	942112926	1	main_z	7	main_z	29	stimuli_target_circletriangles.svg	stimuli_distractor_diamondtriangles.svg	5	yes	44	1	518
6.6.1	win	2023-01-01	13:46:17	13:52:47	387479	5f77e8c2d3a6412174d44f04	942112926	1	main_z	7	advance_on_keypress_ZEE	30	stimuli_target_circletriangles.svg	stimuli_distractor_diamondtriangles.svg	5	yes	57	0	715
6.6.1	win	2023-01-01	13:46:17	13:52:50	390845	5f77e8c2d3a6412174d44f04	942112926	1	main_z	7	main_z	31	stimuli_distractor_trianglediamonds.svg	stimuli_distractor_diamondtriangles.svg	35	no	0	1	2000
6.6.1	win	2023-01-01	13:46:17	13:52:50	390845	5f77e8c2d3a6412174d44f04	942112926	1	main_z	7	advance_on_keypress_ZEE	32	stimuli_distractor_trianglediamonds.svg	stimuli_distractor_diamondtriangles.svg	35	no	57	0	1155
6.6.1	win	2023-01-01	13:46:17	13:52:54	394646	5f77e8c2d3a6412174d44f04	942112926	1	main_z	7	main_z	33	stimuli_distractor_diamondtriangles.svg	stimuli_distractor_trianglediamonds.svg	38	no	0	1	2000
6.6.1	win	2023-01-01	13:46:17	13:52:54	394646	5f77e8c2d3a6412174d44f04	942112926	1	main_z	7	advance_on_keypress_ZEE	34	stimuli_distractor_diamondtriangles.svg	stimuli_distractor_trianglediamonds.svg	38	no	57	0	369
6.6.1	win	2023-01-01	13:46:17	13:52:56	396304	5f77e8c2d3a6412174d44f04	942112926	1	main_z	7	main_z	35	stimuli_distractor_diamondtriangles.svg	stimuli_target_diamondsquares.svg	32	yes	44	1	640
6.6.1	win	2023-01-01	13:46:17	13:52:56	396304	5f77e8c2d3a6412174d44f04	942112926	1	main_z	7	advance_on_keypress_ZEE	36	stimuli_distractor_diamondtriangles.svg	stimuli_target_diamondsquares.svg	32	yes	57	0	639
6.6.1	win	2023-01-01	13:46:17	13:52:57	397987	5f77e8c2d3a6412174d44f04	942112926	1	main_z	7	main_z	37	stimuli_distractor_diamondtriangles.svg	stimuli_target_diamondcircles.svg	31	yes	44	1	407
6.6.1	win	2023-01-01	13:46:17	13:52:57	397987	5f77e8c2d3a6412174d44f04	942112926	1	main_z	7	advance_on_keypress_ZEE	38	stimuli_distractor_diamondtriangles.svg	stimuli_target_diamondcircles.svg	31	yes	57	0	699
6.6.1	win	2023-01-01	13:46:17	13:52:59	400035	5f77e8c2d3a6412174d44f04	942112926	1	main_z	7	main_z	39	stimuli_target_diamondcircles.svg	stimuli_distractor_trianglediamonds.svg	19	yes	44	1	703
6.6.1	win	2023-01-01	13:46:17	13:52:59	400035	5f77e8c2d3a6412174d44f04	942112926	1	main_z	7	advance_on_keypress_ZEE	40	stimuli_target_diamondcircles.svg	stimuli_distractor_trianglediamonds.svg	19	yes	57	0	543
6.6.1	win	2023-01-01	13:46:17	13:53:01	401692	5f77e8c2d3a6412174d44f04	942112926	1	main_z	7	main_z	41	stimuli_distractor_diamondtriangles.svg	stimuli_target_squarediamonds.svg	16	yes	44	1	476
6.6.1	win	2023-01-01	13:46:17	13:53:01	401692	5f77e8c2d3a6412174d44f04	942112926	1	main_z	7	advance_on_keypress_ZEE	42	stimuli_distractor_diamondtriangles.svg	stimuli_target_squarediamonds.svg	16	yes	57	0	737
6.6.1	win	2023-01-01	13:46:17	13:53:03	403682	5f77e8c2d3a6412174d44f04	942112926	1	main_z	7	main_z	43	stimuli_target_circlediamonds.svg	stimuli_distractor_trianglediamonds.svg	2	yes	44	1	614
6.6.1	win	2023-01-01	13:46:17	13:53:03	403682	5f77e8c2d3a6412174d44f04	942112926	1	main_z	7	advance_on_keypress_ZEE	44	stimuli_target_circlediamonds.svg	stimuli_distractor_trianglediamonds.svg	2	yes	57	0	478
6.6.1	win	2023-01-01	13:46:17	13:53:05	405820	5f77e8c2d3a6412174d44f04	942112926	1	main_z	7	main_z	45	stimuli_target_diamondsquares.svg	stimuli_distractor_trianglediamonds.svg	20	yes	44	1	1018
6.6.1	win	2023-01-01	13:46:17	13:53:05	405820	5f77e8c2d3a6412174d44f04	942112926	1	main_z	7	advance_on_keypress_ZEE	46	stimuli_target_diamondsquares.svg	stimuli_distractor_trianglediamonds.svg	20	yes	57	0	354
6.6.1	win	2023-01-01	13:46:17	13:53:07	407543	5f77e8c2d3a6412174d44f04	942112926	1	main_z	7	main_z	47	stimuli_distractor_trianglediamonds.svg	stimuli_target_circlediamonds.svg	10	yes	44	1	725
6.6.1	win	2023-01-01	13:46:17	13:53:07	407543	5f77e8c2d3a6412174d44f04	942112926	1	main_z	7	advance_on_keypress_ZEE	48	stimuli_distractor_trianglediamonds.svg	stimuli_target_circlediamonds.svg	10	yes	57	0	521
6.6.1	win	2023-01-01	13:46:17	13:53:10	410341	5f77e8c2d3a6412174d44f04	942112926	1	main_z	7	main_z	49	stimuli_target_circlediamonds.svg	stimuli_distractor_diamondtriangles.svg	6	yes	44	1	1639
6.6.1	win	2023-01-01	13:46:17	13:53:10	410341	5f77e8c2d3a6412174d44f04	942112926	1	main_z	7	advance_on_keypress_ZEE	50	stimuli_target_circlediamonds.svg	stimuli_distractor_diamondtriangles.svg	6	yes	57	0	489
6.6.1	win	2023-01-01	13:46:17	13:53:12	412415	5f77e8c2d3a6412174d44f04	942112926	1	main_z	7	main_z	51	stimuli_distractor_trianglediamonds.svg	stimuli_target_diamondcircles.svg	27	yes	44	1	945
6.6.1	win	2023-01-01	13:46:17	13:53:12	412415	5f77e8c2d3a6412174d44f04	942112926	1	main_z	7	advance_on_keypress_ZEE	52	stimuli_distractor_trianglediamonds.svg	stimuli_target_diamondcircles.svg	27	yes	57	0	572
6.6.1	win	2023-01-01	13:46:17	13:53:14	414554	5f77e8c2d3a6412174d44f04	942112926	1	main_z	7	main_z	53	stimuli_target_trianglecircles.svg	stimuli_distractor_trianglediamonds.svg	17	yes	44	1	934
6.6.1	win	2023-01-01	13:46:17	13:53:14	414554	5f77e8c2d3a6412174d44f04	942112926	1	main_z	7	advance_on_keypress_ZEE	54	stimuli_target_trianglecircles.svg	stimuli_distractor_trianglediamonds.svg	17	yes	57	0	505
6.6.1	win	2023-01-01	13:46:17	13:53:17	417705	5f77e8c2d3a6412174d44f04	942112926	1	main_z	7	main_z	55	stimuli_target_squaretriangles.svg	stimuli_distractor_trianglediamonds.svg	3	yes	0	0	2000
6.6.1	win	2023-01-01	13:46:17	13:53:17	417705	5f77e8c2d3a6412174d44f04	942112926	1	main_z	7	advance_on_keypress_ZEE	56	stimuli_target_squaretriangles.svg	stimuli_distractor_trianglediamonds.svg	3	yes	57	0	530
6.6.1	win	2023-01-01	13:46:17	13:53:19	419396	5f77e8c2d3a6412174d44f04	942112926	1	main_z	7	main_z	57	stimuli_target_squaretriangles.svg	stimuli_distractor_diamondtriangles.svg	7	yes	44	1	505
6.6.1	win	2023-01-01	13:46:17	13:53:19	419396	5f77e8c2d3a6412174d44f04	942112926	1	main_z	7	advance_on_keypress_ZEE	58	stimuli_target_squaretriangles.svg	stimuli_distractor_diamondtriangles.svg	7	yes	57	0	620
6.6.1	win	2023-01-01	13:46:17	13:53:21	421363	5f77e8c2d3a6412174d44f04	942112926	1	main_z	7	main_z	59	stimuli_distractor_diamondtriangles.svg	stimuli_target_circletriangles.svg	13	yes	44	1	707
6.6.1	win	2023-01-01	13:46:17	13:53:21	421363	5f77e8c2d3a6412174d44f04	942112926	1	main_z	7	advance_on_keypress_ZEE	60	stimuli_distractor_diamondtriangles.svg	stimuli_target_circletriangles.svg	13	yes	57	0	541
6.6.1	win	2023-01-01	13:46:17	13:53:22	423187	5f77e8c2d3a6412174d44f04	942112926	1	main_z	7	main_z	61	stimuli_target_trianglecircles.svg	stimuli_distractor_diamondtriangles.svg	21	yes	44	1	646
6.6.1	win	2023-01-01	13:46:17	13:53:22	423187	5f77e8c2d3a6412174d44f04	942112926	1	main_z	7	advance_on_keypress_ZEE	62	stimuli_target_trianglecircles.svg	stimuli_distractor_diamondtriangles.svg	21	yes	57	0	493
6.6.1	win	2023-01-01	13:46:17	13:53:24	425126	5f77e8c2d3a6412174d44f04	942112926	1	main_z	7	main_z	63	stimuli_distractor_diamondtriangles.svg	stimuli_target_squaretriangles.svg	15	yes	44	1	801
6.6.1	win	2023-01-01	13:46:17	13:53:24	425126	5f77e8c2d3a6412174d44f04	942112926	1	main_z	7	advance_on_keypress_ZEE	64	stimuli_distractor_diamondtriangles.svg	stimuli_target_squaretriangles.svg	15	yes	57	0	333
6.6.1	win	2023-01-01	13:46:17	13:53:27	428109	5f77e8c2d3a6412174d44f04	942112926	1	main_z	7	main_z	65	stimuli_distractor_diamondtriangles.svg	stimuli_distractor_diamondtriangles.svg	39	no	0	1	2000
6.6.1	win	2023-01-01	13:46:17	13:53:27	428109	5f77e8c2d3a6412174d44f04	942112926	1	main_z	7	advance_on_keypress_ZEE	66	stimuli_distractor_diamondtriangles.svg	stimuli_distractor_diamondtriangles.svg	39	no	57	0	1029
6.6.1	win	2023-01-01	13:46:17	13:53:30	430907	5f77e8c2d3a6412174d44f04	942112926	1	main_z	7	main_z	67	stimuli_distractor_diamondtriangles.svg	stimuli_distractor_diamondtriangles.svg	40	no	44	0	1129
6.6.1	win	2023-01-01	13:46:17	13:53:30	430907	5f77e8c2d3a6412174d44f04	942112926	1	main_z	7	advance_on_keypress_ZEE	68	stimuli_distractor_diamondtriangles.svg	stimuli_distractor_diamondtriangles.svg	40	no	57	0	669
6.6.1	win	2023-01-01	13:46:17	13:53:33	433616	5f77e8c2d3a6412174d44f04	942112926	1	main_z	7	main_z	69	stimuli_distractor_trianglediamonds.svg	stimuli_distractor_trianglediamonds.svg	33	no	44	0	1388
6.6.1	win	2023-01-01	13:46:17	13:53:33	433616	5f77e8c2d3a6412174d44f04	942112926	1	main_z	7	advance_on_keypress_ZEE	70	stimuli_distractor_trianglediamonds.svg	stimuli_distractor_trianglediamonds.svg	33	no	57	0	715
6.6.1	win	2023-01-01	13:46:17	13:53:36	436979	5f77e8c2d3a6412174d44f04	942112926	1	main_z	7	main_z	71	stimuli_target_diamondcircles.svg	stimuli_distractor_diamondtriangles.svg	23	yes	0	0	2000
6.6.1	win	2023-01-01	13:46:17	13:53:36	436979	5f77e8c2d3a6412174d44f04	942112926	1	main_z	7	advance_on_keypress_ZEE	72	stimuli_target_diamondcircles.svg	stimuli_distractor_diamondtriangles.svg	23	yes	57	0	1357
6.6.1	win	2023-01-01	13:46:17	13:53:39	439395	5f77e8c2d3a6412174d44f04	942112926	1	main_z	7	main_z	73	stimuli_target_squarediamonds.svg	stimuli_distractor_diamondtriangles.svg	8	yes	44	1	416
6.6.1	win	2023-01-01	13:46:17	13:53:39	439395	5f77e8c2d3a6412174d44f04	942112926	1	main_z	7	advance_on_keypress_ZEE	74	stimuli_target_squarediamonds.svg	stimuli_distractor_diamondtriangles.svg	8	yes	57	0	483
6.6.1	win	2023-01-01	13:46:17	13:53:40	441175	5f77e8c2d3a6412174d44f04	942112926	1	main_z	7	main_z	75	stimuli_target_circletriangles.svg	stimuli_distractor_trianglediamonds.svg	1	yes	44	1	644
6.6.1	win	2023-01-01	13:46:17	13:53:40	441175	5f77e8c2d3a6412174d44f04	942112926	1	main_z	7	advance_on_keypress_ZEE	76	stimuli_target_circletriangles.svg	stimuli_distractor_trianglediamonds.svg	1	yes	57	0	400
6.6.1	win	2023-01-01	13:46:17	13:53:42	442950	5f77e8c2d3a6412174d44f04	942112926	1	main_z	7	main_z	77	stimuli_distractor_trianglediamonds.svg	stimuli_target_squaretriangles.svg	11	yes	44	1	734
6.6.1	win	2023-01-01	13:46:17	13:53:42	442950	5f77e8c2d3a6412174d44f04	942112926	1	main_z	7	advance_on_keypress_ZEE	78	stimuli_distractor_trianglediamonds.svg	stimuli_target_squaretriangles.svg	11	yes	57	0	375
6.6.1	win	2023-01-01	13:46:17	13:53:44	444397	5f77e8c2d3a6412174d44f04	942112926	1	main_z	7	main_z	79	stimuli_distractor_trianglediamonds.svg	stimuli_target_diamondsquares.svg	28	yes	44	1	432
6.6.1	win	2023-01-01	13:46:17	13:53:44	444397	5f77e8c2d3a6412174d44f04	942112926	1	main_z	7	advance_on_keypress_ZEE	80	stimuli_distractor_trianglediamonds.svg	stimuli_target_diamondsquares.svg	28	yes	57	0	582
6.6.1	win	2023-01-01	13:46:17	13:53:45	446028	5f77e8c2d3a6412174d44f04	942112926	1	main_z	7	main_z	81	stimuli_distractor_trianglediamonds.svg	stimuli_target_squarediamonds.svg	12	yes	44	1	396
6.6.1	win	2023-01-01	13:46:17	13:53:45	446028	5f77e8c2d3a6412174d44f04	942112926	1	main_z	7	advance_on_keypress_ZEE	82	stimuli_distractor_trianglediamonds.svg	stimuli_target_squarediamonds.svg	12	yes	57	0	599
6.6.1	win	2023-01-01	13:46:17	13:53:49	449267	5f77e8c2d3a6412174d44f04	942112926	1	main_z	7	main_z	83	stimuli_distractor_diamondtriangles.svg	stimuli_distractor_diamondtriangles.svg	39	no	0	1	2000
6.6.1	win	2023-01-01	13:46:17	13:53:49	449267	5f77e8c2d3a6412174d44f04	942112926	1	main_z	7	advance_on_keypress_ZEE	84	stimuli_distractor_diamondtriangles.svg	stimuli_distractor_diamondtriangles.svg	39	no	57	0	538
6.6.1	win	2023-01-01	13:46:17	13:53:50	450909	5f77e8c2d3a6412174d44f04	942112926	1	main_z	7	main_z	85	stimuli_distractor_trianglediamonds.svg	stimuli_target_trianglecircles.svg	25	yes	44	1	458
6.6.1	win	2023-01-01	13:46:17	13:53:50	450909	5f77e8c2d3a6412174d44f04	942112926	1	main_z	7	advance_on_keypress_ZEE	86	stimuli_distractor_trianglediamonds.svg	stimuli_target_trianglecircles.svg	25	yes	57	0	530
6.6.1	win	2023-01-01	13:46:17	13:53:52	452584	5f77e8c2d3a6412174d44f04	942112926	1	main_z	7	main_z	87	stimuli_distractor_trianglediamonds.svg	stimuli_target_squaretriangles.svg	11	yes	44	1	499
6.6.1	win	2023-01-01	13:46:17	13:53:52	452584	5f77e8c2d3a6412174d44f04	942112926	1	main_z	7	advance_on_keypress_ZEE	88	stimuli_distractor_trianglediamonds.svg	stimuli_target_squaretriangles.svg	11	yes	57	0	457
6.6.1	win	2023-01-01	13:46:17	13:53:55	455686	5f77e8c2d3a6412174d44f04	942112926	1	main_z	7	main_z	89	stimuli_distractor_trianglediamonds.svg	stimuli_distractor_trianglediamonds.svg	34	no	0	1	2000
6.6.1	win	2023-01-01	13:46:17	13:53:55	455686	5f77e8c2d3a6412174d44f04	942112926	1	main_z	7	advance_on_keypress_ZEE	90	stimuli_distractor_trianglediamonds.svg	stimuli_distractor_trianglediamonds.svg	34	no	57	0	468
6.6.1	win	2023-01-01	13:46:17	13:53:57	457390	5f77e8c2d3a6412174d44f04	942112926	1	main_z	7	main_z	91	stimuli_distractor_diamondtriangles.svg	stimuli_distractor_trianglediamonds.svg	38	no	44	0	587
6.6.1	win	2023-01-01	13:46:17	13:53:57	457390	5f77e8c2d3a6412174d44f04	942112926	1	main_z	7	advance_on_keypress_ZEE	92	stimuli_distractor_diamondtriangles.svg	stimuli_distractor_trianglediamonds.svg	38	no	57	0	435
6.6.1	win	2023-01-01	13:46:17	13:53:59	459654	5f77e8c2d3a6412174d44f04	942112926	1	main_z	7	main_z	93	stimuli_distractor_diamondtriangles.svg	stimuli_target_trianglecircles.svg	29	yes	44	1	1183
6.6.1	win	2023-01-01	13:46:17	13:53:59	459654	5f77e8c2d3a6412174d44f04	942112926	1	main_z	7	advance_on_keypress_ZEE	94	stimuli_distractor_diamondtriangles.svg	stimuli_target_trianglecircles.svg	29	yes	57	0	688
6.6.1	win	2023-01-01	13:46:17	13:54:01	461443	5f77e8c2d3a6412174d44f04	942112926	1	main_z	7	main_z	95	stimuli_target_circletriangles.svg	stimuli_distractor_trianglediamonds.svg	1	yes	44	1	455
6.6.1	win	2023-01-01	13:46:17	13:54:01	461443	5f77e8c2d3a6412174d44f04	942112926	1	main_z	7	advance_on_keypress_ZEE	96	stimuli_target_circletriangles.svg	stimuli_distractor_trianglediamonds.svg	1	yes	57	0	419
6.6.1	win	2023-01-01	13:46:17	13:54:04	464506	5f77e8c2d3a6412174d44f04	942112926	1	main_z	7	main_z	97	stimuli_target_diamondsquares.svg	stimuli_distractor_diamondtriangles.svg	24	yes	0	0	2000
6.6.1	win	2023-01-01	13:46:17	13:54:04	464506	5f77e8c2d3a6412174d44f04	942112926	1	main_z	7	advance_on_keypress_ZEE	98	stimuli_target_diamondsquares.svg	stimuli_distractor_diamondtriangles.svg	24	yes	57	0	959
6.6.1	win	2023-01-01	13:46:17	13:54:06	466495	5f77e8c2d3a6412174d44f04	942112926	1	main_z	7	main_z	99	stimuli_distractor_trianglediamonds.svg	stimuli_target_trianglesquares.svg	26	yes	44	1	378
6.6.1	win	2023-01-01	13:46:17	13:54:06	466495	5f77e8c2d3a6412174d44f04	942112926	1	main_z	7	advance_on_keypress_ZEE	100	stimuli_distractor_trianglediamonds.svg	stimuli_target_trianglesquares.svg	26	yes	57	0	532
6.6.1	win	2023-01-01	13:46:17	13:54:07	468158	5f77e8c2d3a6412174d44f04	942112926	1	main_z	7	main_z	101	stimuli_target_trianglesquares.svg	stimuli_distractor_diamondtriangles.svg	22	yes	44	1	483
6.6.1	win	2023-01-01	13:46:17	13:54:07	468158	5f77e8c2d3a6412174d44f04	942112926	1	main_z	7	advance_on_keypress_ZEE	102	stimuli_target_trianglesquares.svg	stimuli_distractor_diamondtriangles.svg	22	yes	57	0	400
6.6.1	win	2023-01-01	13:46:17	13:54:09	469634	5f77e8c2d3a6412174d44f04	942112926	1	main_z	7	main_z	103	stimuli_target_diamondcircles.svg	stimuli_distractor_diamondtriangles.svg	23	yes	44	1	427
6.6.1	win	2023-01-01	13:46:17	13:54:09	469634	5f77e8c2d3a6412174d44f04	942112926	1	main_z	7	advance_on_keypress_ZEE	104	stimuli_target_diamondcircles.svg	stimuli_distractor_diamondtriangles.svg	23	yes	57	0	449
6.6.1	win	2023-01-01	13:46:17	13:54:11	471232	5f77e8c2d3a6412174d44f04	942112926	1	main_z	7	main_z	105	stimuli_distractor_diamondtriangles.svg	stimuli_target_diamondcircles.svg	31	yes	44	1	506
6.6.1	win	2023-01-01	13:46:17	13:54:11	471232	5f77e8c2d3a6412174d44f04	942112926	1	main_z	7	advance_on_keypress_ZEE	106	stimuli_distractor_diamondtriangles.svg	stimuli_target_diamondcircles.svg	31	yes	57	0	324
6.6.1	win	2023-01-01	13:46:17	13:54:12	472919	5f77e8c2d3a6412174d44f04	942112926	1	main_z	7	main_z	107	stimuli_distractor_diamondtriangles.svg	stimuli_target_diamondsquares.svg	32	yes	44	1	727
6.6.1	win	2023-01-01	13:46:17	13:54:12	472919	5f77e8c2d3a6412174d44f04	942112926	1	main_z	7	advance_on_keypress_ZEE	108	stimuli_distractor_diamondtriangles.svg	stimuli_target_diamondsquares.svg	32	yes	57	0	260
6.6.1	win	2023-01-01	13:46:17	13:54:14	475013	5f77e8c2d3a6412174d44f04	942112926	1	main_z	7	main_z	109	stimuli_target_trianglecircles.svg	stimuli_distractor_diamondtriangles.svg	21	yes	44	1	1202
6.6.1	win	2023-01-01	13:46:17	13:54:14	475013	5f77e8c2d3a6412174d44f04	942112926	1	main_z	7	advance_on_keypress_ZEE	110	stimuli_target_trianglecircles.svg	stimuli_distractor_diamondtriangles.svg	21	yes	57	0	240
6.6.1	win	2023-01-01	13:46:17	13:54:16	476427	5f77e8c2d3a6412174d44f04	942112926	1	main_z	7	main_z	111	stimuli_target_circlediamonds.svg	stimuli_distractor_diamondtriangles.svg	6	yes	44	1	534
6.6.1	win	2023-01-01	13:46:17	13:54:16	476427	5f77e8c2d3a6412174d44f04	942112926	1	main_z	7	advance_on_keypress_ZEE	112	stimuli_target_circlediamonds.svg	stimuli_distractor_diamondtriangles.svg	6	yes	57	0	467
6.6.1	win	2023-01-01	13:46:17	13:54:18	478247	5f77e8c2d3a6412174d44f04	942112926	1	main_z	7	main_z	113	stimuli_target_trianglesquares.svg	stimuli_distractor_trianglediamonds.svg	18	yes	44	1	702
6.6.1	win	2023-01-01	13:46:17	13:54:18	478247	5f77e8c2d3a6412174d44f04	942112926	1	main_z	7	advance_on_keypress_ZEE	114	stimuli_target_trianglesquares.svg	stimuli_distractor_trianglediamonds.svg	18	yes	57	0	995
6.6.1	win	2023-01-01	13:46:17	13:54:21	481395	5f77e8c2d3a6412174d44f04	942112926	1	main_z	7	main_z	115	stimuli_distractor_diamondtriangles.svg	stimuli_target_squarediamonds.svg	16	yes	44	1	1500
6.6.1	win	2023-01-01	13:46:17	13:54:21	481395	5f77e8c2d3a6412174d44f04	942112926	1	main_z	7	advance_on_keypress_ZEE	116	stimuli_distractor_diamondtriangles.svg	stimuli_target_squarediamonds.svg	16	yes	57	0	355
6.6.1	win	2023-01-01	13:46:17	13:54:22	483169	5f77e8c2d3a6412174d44f04	942112926	1	main_z	7	main_z	117	stimuli_distractor_diamondtriangles.svg	stimuli_target_trianglesquares.svg	30	yes	44	1	772
6.6.1	win	2023-01-01	13:46:17	13:54:22	483169	5f77e8c2d3a6412174d44f04	942112926	1	main_z	7	advance_on_keypress_ZEE	118	stimuli_distractor_diamondtriangles.svg	stimuli_target_trianglesquares.svg	30	yes	57	0	485
6.6.1	win	2023-01-01	13:46:17	13:54:26	486297	5f77e8c2d3a6412174d44f04	942112926	1	main_z	7	main_z	119	stimuli_distractor_diamondtriangles.svg	stimuli_distractor_diamondtriangles.svg	40	no	0	1	2000
6.6.1	win	2023-01-01	13:46:17	13:54:26	486297	5f77e8c2d3a6412174d44f04	942112926	1	main_z	7	advance_on_keypress_ZEE	120	stimuli_distractor_diamondtriangles.svg	stimuli_distractor_diamondtriangles.svg	40	no	57	0	972
6.6.1	win	2023-01-01	13:46:17	13:54:28	488451	5f77e8c2d3a6412174d44f04	942112926	1	main_z	7	main_z	121	stimuli_target_circletriangles.svg	stimuli_distractor_diamondtriangles.svg	5	yes	44	1	537
6.6.1	win	2023-01-01	13:46:17	13:54:28	488451	5f77e8c2d3a6412174d44f04	942112926	1	main_z	7	advance_on_keypress_ZEE	122	stimuli_target_circletriangles.svg	stimuli_distractor_diamondtriangles.svg	5	yes	57	0	425
6.6.1	win	2023-01-01	13:46:17	13:54:29	490083	5f77e8c2d3a6412174d44f04	942112926	1	main_z	7	main_z	123	stimuli_distractor_trianglediamonds.svg	stimuli_target_circlediamonds.svg	10	yes	44	1	567
6.6.1	win	2023-01-01	13:46:17	13:54:29	490083	5f77e8c2d3a6412174d44f04	942112926	1	main_z	7	advance_on_keypress_ZEE	124	stimuli_distractor_trianglediamonds.svg	stimuli_target_circlediamonds.svg	10	yes	57	0	454
6.6.1	win	2023-01-01	13:46:17	13:54:31	491793	5f77e8c2d3a6412174d44f04	942112926	1	main_z	7	main_z	125	stimuli_target_squaretriangles.svg	stimuli_distractor_diamondtriangles.svg	7	yes	44	1	610
6.6.1	win	2023-01-01	13:46:17	13:54:31	491793	5f77e8c2d3a6412174d44f04	942112926	1	main_z	7	advance_on_keypress_ZEE	126	stimuli_target_squaretriangles.svg	stimuli_distractor_diamondtriangles.svg	7	yes	57	0	445
6.6.1	win	2023-01-01	13:46:17	13:54:33	493579	5f77e8c2d3a6412174d44f04	942112926	1	main_z	7	main_z	127	stimuli_target_squaretriangles.svg	stimuli_distractor_trianglediamonds.svg	3	yes	44	1	711
6.6.1	win	2023-01-01	13:46:17	13:54:33	493579	5f77e8c2d3a6412174d44f04	942112926	1	main_z	7	advance_on_keypress_ZEE	128	stimuli_target_squaretriangles.svg	stimuli_distractor_trianglediamonds.svg	3	yes	57	0	384
6.6.1	win	2023-01-01	13:46:17	13:54:34	495116	5f77e8c2d3a6412174d44f04	942112926	1	main_z	7	main_z	129	stimuli_distractor_diamondtriangles.svg	stimuli_distractor_trianglediamonds.svg	37	no	44	0	516
6.6.1	win	2023-01-01	13:46:17	13:54:34	495116	5f77e8c2d3a6412174d44f04	942112926	1	main_z	7	advance_on_keypress_ZEE	130	stimuli_distractor_diamondtriangles.svg	stimuli_distractor_trianglediamonds.svg	37	no	57	0	464
6.6.1	win	2023-01-01	13:46:17	13:54:36	497128	5f77e8c2d3a6412174d44f04	942112926	1	main_z	7	main_z	131	stimuli_distractor_diamondtriangles.svg	stimuli_target_circlediamonds.svg	14	yes	44	1	893
6.6.1	win	2023-01-01	13:46:17	13:54:36	497128	5f77e8c2d3a6412174d44f04	942112926	1	main_z	7	advance_on_keypress_ZEE	132	stimuli_distractor_diamondtriangles.svg	stimuli_target_circlediamonds.svg	14	yes	57	0	414
6.6.1	win	2023-01-01	13:46:17	13:54:38	498620	5f77e8c2d3a6412174d44f04	942112926	1	main_z	7	main_z	133	stimuli_target_circlediamonds.svg	stimuli_distractor_trianglediamonds.svg	2	yes	44	1	435
6.6.1	win	2023-01-01	13:46:17	13:54:38	498620	5f77e8c2d3a6412174d44f04	942112926	1	main_z	7	advance_on_keypress_ZEE	134	stimuli_target_circlediamonds.svg	stimuli_distractor_trianglediamonds.svg	2	yes	57	0	453
6.6.1	win	2023-01-01	13:46:17	13:54:40	500996	5f77e8c2d3a6412174d44f04	942112926	1	main_z	7	main_z	135	stimuli_distractor_trianglediamonds.svg	stimuli_target_diamondcircles.svg	27	yes	44	1	1276
6.6.1	win	2023-01-01	13:46:17	13:54:40	500996	5f77e8c2d3a6412174d44f04	942112926	1	main_z	7	advance_on_keypress_ZEE	136	stimuli_distractor_trianglediamonds.svg	stimuli_target_diamondcircles.svg	27	yes	57	0	337
6.6.1	win	2023-01-01	13:46:17	13:54:42	502549	5f77e8c2d3a6412174d44f04	942112926	1	main_z	7	main_z	137	stimuli_target_trianglecircles.svg	stimuli_distractor_trianglediamonds.svg	17	yes	44	1	579
6.6.1	win	2023-01-01	13:46:17	13:54:42	502549	5f77e8c2d3a6412174d44f04	942112926	1	main_z	7	advance_on_keypress_ZEE	138	stimuli_target_trianglecircles.svg	stimuli_distractor_trianglediamonds.svg	17	yes	57	0	363
6.6.1	win	2023-01-01	13:46:17	13:54:45	505554	5f77e8c2d3a6412174d44f04	942112926	1	main_z	7	main_z	139	stimuli_distractor_trianglediamonds.svg	stimuli_distractor_trianglediamonds.svg	33	no	0	1	2000
6.6.1	win	2023-01-01	13:46:17	13:54:45	505554	5f77e8c2d3a6412174d44f04	942112926	1	main_z	7	advance_on_keypress_ZEE	140	stimuli_distractor_trianglediamonds.svg	stimuli_distractor_trianglediamonds.svg	33	no	57	0	1281
6.6.1	win	2023-01-01	13:46:17	13:54:47	508013	5f77e8c2d3a6412174d44f04	942112926	1	main_z	7	main_z	141	stimuli_distractor_trianglediamonds.svg	stimuli_target_circletriangles.svg	9	yes	44	1	525
6.6.1	win	2023-01-01	13:46:17	13:54:47	508013	5f77e8c2d3a6412174d44f04	942112926	1	main_z	7	advance_on_keypress_ZEE	142	stimuli_distractor_trianglediamonds.svg	stimuli_target_circletriangles.svg	9	yes	57	0	403
6.6.1	win	2023-01-01	13:46:17	13:54:49	509873	5f77e8c2d3a6412174d44f04	942112926	1	main_z	7	main_z	143	stimuli_target_squarediamonds.svg	stimuli_distractor_trianglediamonds.svg	4	yes	44	1	816
6.6.1	win	2023-01-01	13:46:17	13:54:49	509873	5f77e8c2d3a6412174d44f04	942112926	1	main_z	7	advance_on_keypress_ZEE	144	stimuli_target_squarediamonds.svg	stimuli_distractor_trianglediamonds.svg	4	yes	57	0	445
6.6.1	win	2023-01-01	13:46:17	13:54:52	512957	5f77e8c2d3a6412174d44f04	942112926	1	main_z	7	main_z	145	stimuli_distractor_trianglediamonds.svg	stimuli_distractor_diamondtriangles.svg	36	no	0	1	2000
6.6.1	win	2023-01-01	13:46:17	13:54:52	512957	5f77e8c2d3a6412174d44f04	942112926	1	main_z	7	advance_on_keypress_ZEE	146	stimuli_distractor_trianglediamonds.svg	stimuli_distractor_diamondtriangles.svg	36	no	57	0	773
6.6.1	win	2023-01-01	13:46:17	13:54:54	514677	5f77e8c2d3a6412174d44f04	942112926	1	main_z	7	main_z	147	stimuli_target_diamondsquares.svg	stimuli_distractor_trianglediamonds.svg	20	yes	44	1	301
6.6.1	win	2023-01-01	13:46:17	13:54:54	514677	5f77e8c2d3a6412174d44f04	942112926	1	main_z	7	advance_on_keypress_ZEE	148	stimuli_target_diamondsquares.svg	stimuli_distractor_trianglediamonds.svg	20	yes	57	0	396
6.6.1	win	2023-01-01	13:46:17	13:54:56	516354	5f77e8c2d3a6412174d44f04	942112926	1	main_z	7	main_z	149	stimuli_distractor_trianglediamonds.svg	stimuli_target_diamondsquares.svg	28	yes	44	1	629
6.6.1	win	2023-01-01	13:46:17	13:54:56	516354	5f77e8c2d3a6412174d44f04	942112926	1	main_z	7	advance_on_keypress_ZEE	150	stimuli_distractor_trianglediamonds.svg	stimuli_target_diamondsquares.svg	28	yes	57	0	266
6.6.1	win	2023-01-01	13:46:17	13:54:57	517930	5f77e8c2d3a6412174d44f04	942112926	1	main_z	7	main_z	151	stimuli_target_diamondcircles.svg	stimuli_distractor_trianglediamonds.svg	19	yes	44	1	671
6.6.1	win	2023-01-01	13:46:17	13:54:57	517930	5f77e8c2d3a6412174d44f04	942112926	1	main_z	7	advance_on_keypress_ZEE	152	stimuli_target_diamondcircles.svg	stimuli_distractor_trianglediamonds.svg	19	yes	57	0	288
6.6.1	win	2023-01-01	13:46:17	13:54:59	519576	5f77e8c2d3a6412174d44f04	942112926	1	main_z	7	main_z	153	stimuli_target_squarediamonds.svg	stimuli_distractor_diamondtriangles.svg	8	yes	44	1	716
6.6.1	win	2023-01-01	13:46:17	13:54:59	519576	5f77e8c2d3a6412174d44f04	942112926	1	main_z	7	advance_on_keypress_ZEE	154	stimuli_target_squarediamonds.svg	stimuli_distractor_diamondtriangles.svg	8	yes	57	0	354
6.6.1	win	2023-01-01	13:46:17	13:55:02	522577	5f77e8c2d3a6412174d44f04	942112926	1	main_z	7	main_z	155	stimuli_distractor_diamondtriangles.svg	stimuli_target_squaretriangles.svg	15	yes	0	0	2000
6.6.1	win	2023-01-01	13:46:17	13:55:02	522577	5f77e8c2d3a6412174d44f04	942112926	1	main_z	7	advance_on_keypress_ZEE	156	stimuli_distractor_diamondtriangles.svg	stimuli_target_squaretriangles.svg	15	yes	57	0	1064
6.6.1	win	2023-01-01	13:46:17	13:55:06	526296	5f77e8c2d3a6412174d44f04	942112926	1	main_z	7	main_z	157	stimuli_distractor_trianglediamonds.svg	stimuli_distractor_diamondtriangles.svg	35	no	0	1	2000
6.6.1	win	2023-01-01	13:46:17	13:55:06	526296	5f77e8c2d3a6412174d44f04	942112926	1	main_z	7	advance_on_keypress_ZEE	158	stimuli_distractor_trianglediamonds.svg	stimuli_distractor_diamondtriangles.svg	35	no	57	0	600
6.6.1	win	2023-01-01	13:46:17	13:55:07	527932	5f77e8c2d3a6412174d44f04	942112926	1	main_z	7	main_z	159	stimuli_distractor_diamondtriangles.svg	stimuli_target_circletriangles.svg	13	yes	44	1	386
6.6.1	win	2023-01-01	13:46:17	13:55:07	527932	5f77e8c2d3a6412174d44f04	942112926	1	main_z	7	advance_on_keypress_ZEE	160	stimuli_distractor_diamondtriangles.svg	stimuli_target_circletriangles.svg	13	yes	57	0	442
6.6.1	win	2023-01-01	13:46:17	13:58:44	744526	5f77e8c2d3a6412174d44f04	942112926	1	practice_slash	9	practice_slash	1	stimuli_distractor_diamondtriangles.svg	stimuli_distractor_trianglediamonds.svg	14	no	53	0	713
6.6.1	win	2023-01-01	13:46:17	13:58:44	744526	5f77e8c2d3a6412174d44f04	942112926	1	practice_slash	9	advance_on_keypress_SLASH	2	stimuli_distractor_diamondtriangles.svg	stimuli_distractor_trianglediamonds.svg	14	no	57	0	472
6.6.1	win	2023-01-01	13:46:17	13:58:46	747197	5f77e8c2d3a6412174d44f04	942112926	1	practice_slash	9	practice_slash	3	stimuli_distractor_diamondtriangles.svg	stimuli_target_trianglecircles.svg	9	yes	53	1	551
6.6.1	win	2023-01-01	13:46:17	13:58:46	747197	5f77e8c2d3a6412174d44f04	942112926	1	practice_slash	9	advance_on_keypress_SLASH	4	stimuli_distractor_diamondtriangles.svg	stimuli_target_trianglecircles.svg	9	yes	57	0	350
6.6.1	win	2023-01-01	13:46:17	13:58:49	749929	5f77e8c2d3a6412174d44f04	942112926	1	practice_slash	9	practice_slash	5	stimuli_distractor_diamondtriangles.svg	stimuli_target_circletriangles.svg	7	yes	53	1	731
6.6.1	win	2023-01-01	13:46:17	13:58:49	749929	5f77e8c2d3a6412174d44f04	942112926	1	practice_slash	9	advance_on_keypress_SLASH	6	stimuli_distractor_diamondtriangles.svg	stimuli_target_circletriangles.svg	7	yes	57	0	1333
6.6.1	win	2023-01-01	13:46:17	13:58:53	753255	5f77e8c2d3a6412174d44f04	942112926	1	practice_slash	9	practice_slash	7	stimuli_target_squarediamonds.svg	stimuli_distractor_diamondtriangles.svg	2	yes	53	1	339
6.6.1	win	2023-01-01	13:46:17	13:58:53	753255	5f77e8c2d3a6412174d44f04	942112926	1	practice_slash	9	advance_on_keypress_SLASH	8	stimuli_target_squarediamonds.svg	stimuli_distractor_diamondtriangles.svg	2	yes	57	0	1329
6.6.1	win	2023-01-01	13:46:17	13:58:56	756473	5f77e8c2d3a6412174d44f04	942112926	1	practice_slash	9	practice_slash	9	stimuli_distractor_trianglediamonds.svg	stimuli_distractor_diamondtriangles.svg	16	no	53	0	256
6.6.1	win	2023-01-01	13:46:17	13:58:56	756473	5f77e8c2d3a6412174d44f04	942112926	1	practice_slash	9	advance_on_keypress_SLASH	10	stimuli_distractor_trianglediamonds.svg	stimuli_distractor_diamondtriangles.svg	16	no	57	0	1187
6.6.1	win	2023-01-01	13:46:17	13:58:59	759946	5f77e8c2d3a6412174d44f04	942112926	1	practice_slash	9	practice_slash	11	stimuli_target_diamondsquares.svg	stimuli_distractor_trianglediamonds.svg	6	yes	53	1	645
6.6.1	win	2023-01-01	13:46:17	13:58:59	759946	5f77e8c2d3a6412174d44f04	942112926	1	practice_slash	9	advance_on_keypress_SLASH	12	stimuli_target_diamondsquares.svg	stimuli_distractor_trianglediamonds.svg	6	yes	57	0	451
6.6.1	win	2023-01-01	13:46:17	13:59:02	762810	5f77e8c2d3a6412174d44f04	942112926	1	practice_slash	9	practice_slash	13	stimuli_target_circlediamonds.svg	stimuli_distractor_diamondtriangles.svg	1	yes	53	1	757
6.6.1	win	2023-01-01	13:46:17	13:59:02	762810	5f77e8c2d3a6412174d44f04	942112926	1	practice_slash	9	advance_on_keypress_SLASH	14	stimuli_target_circlediamonds.svg	stimuli_distractor_diamondtriangles.svg	1	yes	57	0	4756
6.6.1	win	2023-01-01	13:46:17	13:59:10	771206	5f77e8c2d3a6412174d44f04	942112926	1	practice_slash	9	practice_slash	15	stimuli_distractor_trianglediamonds.svg	stimuli_target_circlediamonds.svg	10	yes	0	0	2000
6.6.1	win	2023-01-01	13:46:17	13:59:10	771206	5f77e8c2d3a6412174d44f04	942112926	1	practice_slash	9	advance_on_keypress_SLASH	16	stimuli_distractor_trianglediamonds.svg	stimuli_target_circlediamonds.svg	10	yes	57	0	1026
6.6.1	win	2023-01-01	13:46:17	13:59:13	774214	5f77e8c2d3a6412174d44f04	942112926	1	practice_slash	9	practice_slash	17	stimuli_distractor_diamondtriangles.svg	stimuli_distractor_diamondtriangles.svg	13	no	53	0	340
6.6.1	win	2023-01-01	13:46:17	13:59:13	774214	5f77e8c2d3a6412174d44f04	942112926	1	practice_slash	9	advance_on_keypress_SLASH	18	stimuli_distractor_diamondtriangles.svg	stimuli_distractor_diamondtriangles.svg	13	no	57	0	859
6.6.1	win	2023-01-01	13:46:17	13:59:18	778708	5f77e8c2d3a6412174d44f04	942112926	1	practice_slash	9	practice_slash	19	stimuli_distractor_trianglediamonds.svg	stimuli_distractor_trianglediamonds.svg	15	no	0	1	2000
6.6.1	win	2023-01-01	13:46:17	13:59:18	778708	5f77e8c2d3a6412174d44f04	942112926	1	practice_slash	9	advance_on_keypress_SLASH	20	stimuli_distractor_trianglediamonds.svg	stimuli_distractor_trianglediamonds.svg	15	no	57	0	616
6.6.1	win	2023-01-01	13:46:17	13:59:21	781604	5f77e8c2d3a6412174d44f04	942112926	1	practice_slash	9	practice_slash	21	stimuli_distractor_trianglediamonds.svg	stimuli_target_squarediamonds.svg	11	yes	53	1	628
6.6.1	win	2023-01-01	13:46:17	13:59:21	781604	5f77e8c2d3a6412174d44f04	942112926	1	practice_slash	9	advance_on_keypress_SLASH	22	stimuli_distractor_trianglediamonds.svg	stimuli_target_squarediamonds.svg	11	yes	57	0	426
6.6.1	win	2023-01-01	13:46:17	13:59:24	784248	5f77e8c2d3a6412174d44f04	942112926	1	practice_slash	9	practice_slash	23	stimuli_distractor_diamondtriangles.svg	stimuli_target_diamondcircles.svg	8	yes	53	1	569
6.6.1	win	2023-01-01	13:46:17	13:59:24	784248	5f77e8c2d3a6412174d44f04	942112926	1	practice_slash	9	advance_on_keypress_SLASH	24	stimuli_distractor_diamondtriangles.svg	stimuli_target_diamondcircles.svg	8	yes	57	0	1128
6.6.1	win	2023-01-01	13:46:17	13:59:27	787839	5f77e8c2d3a6412174d44f04	942112926	1	practice_slash	9	practice_slash	25	stimuli_target_circlediamonds.svg	stimuli_distractor_trianglediamonds.svg	4	yes	53	1	810
6.6.1	win	2023-01-01	13:46:17	13:59:27	787839	5f77e8c2d3a6412174d44f04	942112926	1	practice_slash	9	advance_on_keypress_SLASH	26	stimuli_target_circlediamonds.svg	stimuli_distractor_trianglediamonds.svg	4	yes	57	0	374
6.6.1	win	2023-01-01	13:46:17	13:59:30	790424	5f77e8c2d3a6412174d44f04	942112926	1	practice_slash	9	practice_slash	27	stimuli_target_squarediamonds.svg	stimuli_distractor_trianglediamonds.svg	5	yes	53	1	578
6.6.1	win	2023-01-01	13:46:17	13:59:30	790424	5f77e8c2d3a6412174d44f04	942112926	1	practice_slash	9	advance_on_keypress_SLASH	28	stimuli_target_squarediamonds.svg	stimuli_distractor_trianglediamonds.svg	5	yes	57	0	218
6.6.1	win	2023-01-01	13:46:17	13:59:32	792820	5f77e8c2d3a6412174d44f04	942112926	1	practice_slash	9	practice_slash	29	stimuli_distractor_trianglediamonds.svg	stimuli_target_diamondcircles.svg	12	yes	53	1	523
6.6.1	win	2023-01-01	13:46:17	13:59:32	792820	5f77e8c2d3a6412174d44f04	942112926	1	practice_slash	9	advance_on_keypress_SLASH	30	stimuli_distractor_trianglediamonds.svg	stimuli_target_diamondcircles.svg	12	yes	57	0	425
6.6.1	win	2023-01-01	13:46:17	13:59:35	795570	5f77e8c2d3a6412174d44f04	942112926	1	practice_slash	9	practice_slash	31	stimuli_target_diamondsquares.svg	stimuli_distractor_diamondtriangles.svg	3	yes	53	1	689
6.6.1	win	2023-01-01	13:46:17	13:59:35	795570	5f77e8c2d3a6412174d44f04	942112926	1	practice_slash	9	advance_on_keypress_SLASH	32	stimuli_target_diamondsquares.svg	stimuli_distractor_diamondtriangles.svg	3	yes	57	0	462
6.6.1	win	2023-01-01	13:46:17	13:59:40	800399	5f77e8c2d3a6412174d44f04	942112926	1	main_slash	11	main_slash	1	stimuli_target_diamondcircles.svg	stimuli_distractor_trianglediamonds.svg	19	yes	53	1	868
6.6.1	win	2023-01-01	13:46:17	13:59:40	800399	5f77e8c2d3a6412174d44f04	942112926	1	main_slash	11	advance_on_keypress_SLASH	2	stimuli_target_diamondcircles.svg	stimuli_distractor_trianglediamonds.svg	19	yes	57	0	743
6.6.1	win	2023-01-01	13:46:17	13:59:42	802530	5f77e8c2d3a6412174d44f04	942112926	1	main_slash	11	main_slash	3	stimuli_distractor_diamondtriangles.svg	stimuli_target_diamondcircles.svg	31	yes	53	1	748
6.6.1	win	2023-01-01	13:46:17	13:59:42	802530	5f77e8c2d3a6412174d44f04	942112926	1	main_slash	11	advance_on_keypress_SLASH	4	stimuli_distractor_diamondtriangles.svg	stimuli_target_diamondcircles.svg	31	yes	57	0	684
6.6.1	win	2023-01-01	13:46:17	13:59:44	804464	5f77e8c2d3a6412174d44f04	942112926	1	main_slash	11	main_slash	5	stimuli_distractor_trianglediamonds.svg	stimuli_target_diamondcircles.svg	27	yes	53	1	598
6.6.1	win	2023-01-01	13:46:17	13:59:44	804464	5f77e8c2d3a6412174d44f04	942112926	1	main_slash	11	advance_on_keypress_SLASH	6	stimuli_distractor_trianglediamonds.svg	stimuli_target_diamondcircles.svg	27	yes	57	0	504
6.6.1	win	2023-01-01	13:46:17	13:59:45	806162	5f77e8c2d3a6412174d44f04	942112926	1	main_slash	11	main_slash	7	stimuli_distractor_trianglediamonds.svg	stimuli_target_trianglecircles.svg	25	yes	53	1	545
6.6.1	win	2023-01-01	13:46:17	13:59:45	806162	5f77e8c2d3a6412174d44f04	942112926	1	main_slash	11	advance_on_keypress_SLASH	8	stimuli_distractor_trianglediamonds.svg	stimuli_target_trianglecircles.svg	25	yes	57	0	671
6.6.1	win	2023-01-01	13:46:17	13:59:47	808205	5f77e8c2d3a6412174d44f04	942112926	1	main_slash	11	main_slash	9	stimuli_distractor_trianglediamonds.svg	stimuli_target_trianglesquares.svg	26	yes	53	1	738
6.6.1	win	2023-01-01	13:46:17	13:59:47	808205	5f77e8c2d3a6412174d44f04	942112926	1	main_slash	11	advance_on_keypress_SLASH	10	stimuli_distractor_trianglediamonds.svg	stimuli_target_trianglesquares.svg	26	yes	57	0	497
6.6.1	win	2023-01-01	13:46:17	13:59:50	810305	5f77e8c2d3a6412174d44f04	942112926	1	main_slash	11	main_slash	11	stimuli_target_diamondsquares.svg	stimuli_distractor_diamondtriangles.svg	24	yes	53	1	953
6.6.1	win	2023-01-01	13:46:17	13:59:50	810305	5f77e8c2d3a6412174d44f04	942112926	1	main_slash	11	advance_on_keypress_SLASH	12	stimuli_target_diamondsquares.svg	stimuli_distractor_diamondtriangles.svg	24	yes	57	0	843
6.6.1	win	2023-01-01	13:46:17	13:59:52	812606	5f77e8c2d3a6412174d44f04	942112926	1	main_slash	11	main_slash	13	stimuli_distractor_trianglediamonds.svg	stimuli_distractor_trianglediamonds.svg	34	no	53	0	820
6.6.1	win	2023-01-01	13:46:17	13:59:52	812606	5f77e8c2d3a6412174d44f04	942112926	1	main_slash	11	advance_on_keypress_SLASH	14	stimuli_distractor_trianglediamonds.svg	stimuli_distractor_trianglediamonds.svg	34	no	57	0	476
6.6.1	win	2023-01-01	13:46:17	13:59:54	814440	5f77e8c2d3a6412174d44f04	942112926	1	main_slash	11	main_slash	15	stimuli_distractor_diamondtriangles.svg	stimuli_target_circlediamonds.svg	14	yes	53	1	719
6.6.1	win	2023-01-01	13:46:17	13:59:54	814440	5f77e8c2d3a6412174d44f04	942112926	1	main_slash	11	advance_on_keypress_SLASH	16	stimuli_distractor_diamondtriangles.svg	stimuli_target_circlediamonds.svg	14	yes	57	0	394
6.6.1	win	2023-01-01	13:46:17	13:59:56	816735	5f77e8c2d3a6412174d44f04	942112926	1	main_slash	11	main_slash	17	stimuli_target_circlediamonds.svg	stimuli_distractor_diamondtriangles.svg	6	yes	53	1	1264
6.6.1	win	2023-01-01	13:46:17	13:59:56	816735	5f77e8c2d3a6412174d44f04	942112926	1	main_slash	11	advance_on_keypress_SLASH	18	stimuli_target_circlediamonds.svg	stimuli_distractor_diamondtriangles.svg	6	yes	57	0	245
6.6.1	win	2023-01-01	13:46:17	13:59:57	818138	5f77e8c2d3a6412174d44f04	942112926	1	main_slash	11	main_slash	19	stimuli_distractor_trianglediamonds.svg	stimuli_target_squarediamonds.svg	12	yes	53	1	517
6.6.1	win	2023-01-01	13:46:17	13:59:57	818138	5f77e8c2d3a6412174d44f04	942112926	1	main_slash	11	advance_on_keypress_SLASH	20	stimuli_distractor_trianglediamonds.svg	stimuli_target_squarediamonds.svg	12	yes	57	0	496
6.6.1	win	2023-01-01	13:46:17	13:59:59	819873	5f77e8c2d3a6412174d44f04	942112926	1	main_slash	11	main_slash	21	stimuli_target_trianglecircles.svg	stimuli_distractor_trianglediamonds.svg	17	yes	53	1	585
6.6.1	win	2023-01-01	13:46:17	13:59:59	819873	5f77e8c2d3a6412174d44f04	942112926	1	main_slash	11	advance_on_keypress_SLASH	22	stimuli_target_trianglecircles.svg	stimuli_distractor_trianglediamonds.svg	17	yes	57	0	407
6.6.1	win	2023-01-01	13:46:17	14:00:01	821544	5f77e8c2d3a6412174d44f04	942112926	1	main_slash	11	main_slash	23	stimuli_distractor_trianglediamonds.svg	stimuli_target_circlediamonds.svg	10	yes	53	1	622
6.6.1	win	2023-01-01	13:46:17	14:00:01	821544	5f77e8c2d3a6412174d44f04	942112926	1	main_slash	11	advance_on_keypress_SLASH	24	stimuli_distractor_trianglediamonds.svg	stimuli_target_circlediamonds.svg	10	yes	57	0	831
6.6.1	win	2023-01-01	13:46:17	14:00:03	823652	5f77e8c2d3a6412174d44f04	942112926	1	main_slash	11	main_slash	25	stimuli_distractor_diamondtriangles.svg	stimuli_target_circletriangles.svg	13	yes	53	1	629
6.6.1	win	2023-01-01	13:46:17	14:00:03	823652	5f77e8c2d3a6412174d44f04	942112926	1	main_slash	11	advance_on_keypress_SLASH	26	stimuli_distractor_diamondtriangles.svg	stimuli_target_circletriangles.svg	13	yes	57	0	1039
6.6.1	win	2023-01-01	13:46:17	14:00:07	827324	5f77e8c2d3a6412174d44f04	942112926	1	main_slash	11	main_slash	27	stimuli_distractor_trianglediamonds.svg	stimuli_target_diamondsquares.svg	28	yes	0	0	2000
6.6.1	win	2023-01-01	13:46:17	14:00:07	827324	5f77e8c2d3a6412174d44f04	942112926	1	main_slash	11	advance_on_keypress_SLASH	28	stimuli_distractor_trianglediamonds.svg	stimuli_target_diamondsquares.svg	28	yes	57	0	717
6.6.1	win	2023-01-01	13:46:17	14:00:08	829114	5f77e8c2d3a6412174d44f04	942112926	1	main_slash	11	main_slash	29	stimuli_target_squaretriangles.svg	stimuli_distractor_diamondtriangles.svg	7	yes	53	1	422
6.6.1	win	2023-01-01	13:46:17	14:00:08	829114	5f77e8c2d3a6412174d44f04	942112926	1	main_slash	11	advance_on_keypress_SLASH	30	stimuli_target_squaretriangles.svg	stimuli_distractor_diamondtriangles.svg	7	yes	57	0	541
6.6.1	win	2023-01-01	13:46:17	14:00:10	831019	5f77e8c2d3a6412174d44f04	942112926	1	main_slash	11	main_slash	31	stimuli_target_diamondsquares.svg	stimuli_distractor_trianglediamonds.svg	20	yes	53	1	726
6.6.1	win	2023-01-01	13:46:17	14:00:10	831019	5f77e8c2d3a6412174d44f04	942112926	1	main_slash	11	advance_on_keypress_SLASH	32	stimuli_target_diamondsquares.svg	stimuli_distractor_trianglediamonds.svg	20	yes	57	0	481
6.6.1	win	2023-01-01	13:46:17	14:00:12	832756	5f77e8c2d3a6412174d44f04	942112926	1	main_slash	11	main_slash	33	stimuli_target_trianglesquares.svg	stimuli_distractor_trianglediamonds.svg	18	yes	53	1	613
6.6.1	win	2023-01-01	13:46:17	14:00:12	832756	5f77e8c2d3a6412174d44f04	942112926	1	main_slash	11	advance_on_keypress_SLASH	34	stimuli_target_trianglesquares.svg	stimuli_distractor_trianglediamonds.svg	18	yes	57	0	609
6.6.1	win	2023-01-01	13:46:17	14:00:14	834532	5f77e8c2d3a6412174d44f04	942112926	1	main_slash	11	main_slash	35	stimuli_distractor_diamondtriangles.svg	stimuli_target_trianglesquares.svg	30	yes	53	1	538
6.6.1	win	2023-01-01	13:46:17	14:00:14	834532	5f77e8c2d3a6412174d44f04	942112926	1	main_slash	11	advance_on_keypress_SLASH	36	stimuli_distractor_diamondtriangles.svg	stimuli_target_trianglesquares.svg	30	yes	57	0	443
6.6.1	win	2023-01-01	13:46:17	14:00:17	837612	5f77e8c2d3a6412174d44f04	942112926	1	main_slash	11	main_slash	37	stimuli_distractor_diamondtriangles.svg	stimuli_distractor_diamondtriangles.svg	40	no	0	1	2000
6.6.1	win	2023-01-01	13:46:17	14:00:17	837612	5f77e8c2d3a6412174d44f04	942112926	1	main_slash	11	advance_on_keypress_SLASH	38	stimuli_distractor_diamondtriangles.svg	stimuli_distractor_diamondtriangles.svg	40	no	57	0	630
6.6.1	win	2023-01-01	13:46:17	14:00:19	839374	5f77e8c2d3a6412174d44f04	942112926	1	main_slash	11	main_slash	39	stimuli_distractor_trianglediamonds.svg	stimuli_distractor_diamondtriangles.svg	36	no	53	0	478
6.6.1	win	2023-01-01	13:46:17	14:00:19	839374	5f77e8c2d3a6412174d44f04	942112926	1	main_slash	11	advance_on_keypress_SLASH	40	stimuli_distractor_trianglediamonds.svg	stimuli_distractor_diamondtriangles.svg	36	no	57	0	544
6.6.1	win	2023-01-01	13:46:17	14:00:21	841799	5f77e8c2d3a6412174d44f04	942112926	1	main_slash	11	main_slash	41	stimuli_target_circletriangles.svg	stimuli_distractor_diamondtriangles.svg	5	yes	53	1	1253
6.6.1	win	2023-01-01	13:46:17	14:00:21	841799	5f77e8c2d3a6412174d44f04	942112926	1	main_slash	11	advance_on_keypress_SLASH	42	stimuli_target_circletriangles.svg	stimuli_distractor_diamondtriangles.svg	5	yes	57	0	222
6.6.1	win	2023-01-01	13:46:17	14:00:22	843180	5f77e8c2d3a6412174d44f04	942112926	1	main_slash	11	main_slash	43	stimuli_distractor_diamondtriangles.svg	stimuli_target_squarediamonds.svg	16	yes	53	1	516
6.6.1	win	2023-01-01	13:46:17	14:00:22	843180	5f77e8c2d3a6412174d44f04	942112926	1	main_slash	11	advance_on_keypress_SLASH	44	stimuli_distractor_diamondtriangles.svg	stimuli_target_squarediamonds.svg	16	yes	57	0	515
6.6.1	win	2023-01-01	13:46:17	14:00:24	844756	5f77e8c2d3a6412174d44f04	942112926	1	main_slash	11	main_slash	45	stimuli_distractor_diamondtriangles.svg	stimuli_target_trianglecircles.svg	29	yes	53	1	408
6.6.1	win	2023-01-01	13:46:17	14:00:24	844756	5f77e8c2d3a6412174d44f04	942112926	1	main_slash	11	advance_on_keypress_SLASH	46	stimuli_distractor_diamondtriangles.svg	stimuli_target_trianglecircles.svg	29	yes	57	0	475
6.6.1	win	2023-01-01	13:46:17	14:00:26	846346	5f77e8c2d3a6412174d44f04	942112926	1	main_slash	11	main_slash	47	stimuli_distractor_trianglediamonds.svg	stimuli_target_squaretriangles.svg	11	yes	53	1	481
6.6.1	win	2023-01-01	13:46:17	14:00:26	846346	5f77e8c2d3a6412174d44f04	942112926	1	main_slash	11	advance_on_keypress_SLASH	48	stimuli_distractor_trianglediamonds.svg	stimuli_target_squaretriangles.svg	11	yes	57	0	428
6.6.1	win	2023-01-01	13:46:17	14:00:27	847910	5f77e8c2d3a6412174d44f04	942112926	1	main_slash	11	main_slash	49	stimuli_target_trianglecircles.svg	stimuli_distractor_diamondtriangles.svg	21	yes	53	1	494
6.6.1	win	2023-01-01	13:46:17	14:00:27	847910	5f77e8c2d3a6412174d44f04	942112926	1	main_slash	11	advance_on_keypress_SLASH	50	stimuli_target_trianglecircles.svg	stimuli_distractor_diamondtriangles.svg	21	yes	57	0	386
6.6.1	win	2023-01-01	13:46:17	14:00:29	849298	5f77e8c2d3a6412174d44f04	942112926	1	main_slash	11	main_slash	51	stimuli_target_circletriangles.svg	stimuli_distractor_trianglediamonds.svg	1	yes	53	1	365
6.6.1	win	2023-01-01	13:46:17	14:00:29	849298	5f77e8c2d3a6412174d44f04	942112926	1	main_slash	11	advance_on_keypress_SLASH	52	stimuli_target_circletriangles.svg	stimuli_distractor_trianglediamonds.svg	1	yes	57	0	531
6.6.1	win	2023-01-01	13:46:17	14:00:30	851000	5f77e8c2d3a6412174d44f04	942112926	1	main_slash	11	main_slash	53	stimuli_target_squarediamonds.svg	stimuli_distractor_trianglediamonds.svg	4	yes	53	1	517
6.6.1	win	2023-01-01	13:46:17	14:00:30	851000	5f77e8c2d3a6412174d44f04	942112926	1	main_slash	11	advance_on_keypress_SLASH	54	stimuli_target_squarediamonds.svg	stimuli_distractor_trianglediamonds.svg	4	yes	57	0	457
6.6.1	win	2023-01-01	13:46:17	14:00:33	854101	5f77e8c2d3a6412174d44f04	942112926	1	main_slash	11	main_slash	55	stimuli_distractor_diamondtriangles.svg	stimuli_distractor_trianglediamonds.svg	37	no	0	1	2000
6.6.1	win	2023-01-01	13:46:17	14:00:33	854101	5f77e8c2d3a6412174d44f04	942112926	1	main_slash	11	advance_on_keypress_SLASH	56	stimuli_distractor_diamondtriangles.svg	stimuli_distractor_trianglediamonds.svg	37	no	57	0	412
6.6.1	win	2023-01-01	13:46:17	14:00:35	855398	5f77e8c2d3a6412174d44f04	942112926	1	main_slash	11	main_slash	57	stimuli_distractor_diamondtriangles.svg	stimuli_target_squaretriangles.svg	15	yes	53	1	246
6.6.1	win	2023-01-01	13:46:17	14:00:35	855398	5f77e8c2d3a6412174d44f04	942112926	1	main_slash	11	advance_on_keypress_SLASH	58	stimuli_distractor_diamondtriangles.svg	stimuli_target_squaretriangles.svg	15	yes	57	0	532
6.6.1	win	2023-01-01	13:46:17	14:00:36	857009	5f77e8c2d3a6412174d44f04	942112926	1	main_slash	11	main_slash	59	stimuli_target_diamondcircles.svg	stimuli_distractor_diamondtriangles.svg	23	yes	53	1	440
6.6.1	win	2023-01-01	13:46:17	14:00:36	857009	5f77e8c2d3a6412174d44f04	942112926	1	main_slash	11	advance_on_keypress_SLASH	60	stimuli_target_diamondcircles.svg	stimuli_distractor_diamondtriangles.svg	23	yes	57	0	454
6.6.1	win	2023-01-01	13:46:17	14:00:38	858516	5f77e8c2d3a6412174d44f04	942112926	1	main_slash	11	main_slash	61	stimuli_distractor_diamondtriangles.svg	stimuli_distractor_trianglediamonds.svg	38	no	53	0	413
6.6.1	win	2023-01-01	13:46:17	14:00:38	858516	5f77e8c2d3a6412174d44f04	942112926	1	main_slash	11	advance_on_keypress_SLASH	62	stimuli_distractor_diamondtriangles.svg	stimuli_distractor_trianglediamonds.svg	38	no	57	0	526
6.6.1	win	2023-01-01	13:46:17	14:00:41	861670	5f77e8c2d3a6412174d44f04	942112926	1	main_slash	11	main_slash	63	stimuli_distractor_diamondtriangles.svg	stimuli_distractor_diamondtriangles.svg	39	no	0	1	2000
6.6.1	win	2023-01-01	13:46:17	14:00:41	861670	5f77e8c2d3a6412174d44f04	942112926	1	main_slash	11	advance_on_keypress_SLASH	64	stimuli_distractor_diamondtriangles.svg	stimuli_distractor_diamondtriangles.svg	39	no	57	0	696
6.6.1	win	2023-01-01	13:46:17	14:00:43	864159	5f77e8c2d3a6412174d44f04	942112926	1	main_slash	11	main_slash	65	stimuli_distractor_diamondtriangles.svg	stimuli_target_diamondsquares.svg	32	yes	53	1	1138
6.6.1	win	2023-01-01	13:46:17	14:00:43	864159	5f77e8c2d3a6412174d44f04	942112926	1	main_slash	11	advance_on_keypress_SLASH	66	stimuli_distractor_diamondtriangles.svg	stimuli_target_diamondsquares.svg	32	yes	57	0	737
6.6.1	win	2023-01-01	13:46:17	14:00:45	866086	5f77e8c2d3a6412174d44f04	942112926	1	main_slash	11	main_slash	67	stimuli_target_squarediamonds.svg	stimuli_distractor_diamondtriangles.svg	8	yes	53	1	548
6.6.1	win	2023-01-01	13:46:17	14:00:45	866086	5f77e8c2d3a6412174d44f04	942112926	1	main_slash	11	advance_on_keypress_SLASH	68	stimuli_target_squarediamonds.svg	stimuli_distractor_diamondtriangles.svg	8	yes	57	0	371
6.6.1	win	2023-01-01	13:46:17	14:00:47	867846	5f77e8c2d3a6412174d44f04	942112926	1	main_slash	11	main_slash	69	stimuli_target_circlediamonds.svg	stimuli_distractor_trianglediamonds.svg	2	yes	53	1	740
6.6.1	win	2023-01-01	13:46:17	14:00:47	867846	5f77e8c2d3a6412174d44f04	942112926	1	main_slash	11	advance_on_keypress_SLASH	70	stimuli_target_circlediamonds.svg	stimuli_distractor_trianglediamonds.svg	2	yes	57	0	363
6.6.1	win	2023-01-01	13:46:17	14:00:50	870857	5f77e8c2d3a6412174d44f04	942112926	1	main_slash	11	main_slash	71	stimuli_distractor_trianglediamonds.svg	stimuli_distractor_trianglediamonds.svg	33	no	0	1	2000
6.6.1	win	2023-01-01	13:46:17	14:00:50	870857	5f77e8c2d3a6412174d44f04	942112926	1	main_slash	11	advance_on_keypress_SLASH	72	stimuli_distractor_trianglediamonds.svg	stimuli_distractor_trianglediamonds.svg	33	no	57	0	1495
6.6.1	win	2023-01-01	13:46:17	14:00:53	873662	5f77e8c2d3a6412174d44f04	942112926	1	main_slash	11	main_slash	73	stimuli_distractor_trianglediamonds.svg	stimuli_distractor_diamondtriangles.svg	35	no	53	0	670
6.6.1	win	2023-01-01	13:46:17	14:00:53	873662	5f77e8c2d3a6412174d44f04	942112926	1	main_slash	11	advance_on_keypress_SLASH	74	stimuli_distractor_trianglediamonds.svg	stimuli_distractor_diamondtriangles.svg	35	no	57	0	497
6.6.1	win	2023-01-01	13:46:17	14:00:55	875326	5f77e8c2d3a6412174d44f04	942112926	1	main_slash	11	main_slash	75	stimuli_distractor_trianglediamonds.svg	stimuli_target_circletriangles.svg	9	yes	53	1	517
6.6.1	win	2023-01-01	13:46:17	14:00:55	875326	5f77e8c2d3a6412174d44f04	942112926	1	main_slash	11	advance_on_keypress_SLASH	76	stimuli_distractor_trianglediamonds.svg	stimuli_target_circletriangles.svg	9	yes	57	0	416
6.6.1	win	2023-01-01	13:46:17	14:00:56	876928	5f77e8c2d3a6412174d44f04	942112926	1	main_slash	11	main_slash	77	stimuli_target_trianglesquares.svg	stimuli_distractor_diamondtriangles.svg	22	yes	53	1	536
6.6.1	win	2023-01-01	13:46:17	14:00:56	876928	5f77e8c2d3a6412174d44f04	942112926	1	main_slash	11	advance_on_keypress_SLASH	78	stimuli_target_trianglesquares.svg	stimuli_distractor_diamondtriangles.svg	22	yes	57	0	420
6.6.1	win	2023-01-01	13:46:17	14:00:58	878566	5f77e8c2d3a6412174d44f04	942112926	1	main_slash	11	main_slash	79	stimuli_target_squaretriangles.svg	stimuli_distractor_trianglediamonds.svg	3	yes	53	1	571
6.6.1	win	2023-01-01	13:46:17	14:00:58	878566	5f77e8c2d3a6412174d44f04	942112926	1	main_slash	11	advance_on_keypress_SLASH	80	stimuli_target_squaretriangles.svg	stimuli_distractor_trianglediamonds.svg	3	yes	57	0	374
6.6.1	win	2023-01-01	13:46:17	14:00:59	879999	5f77e8c2d3a6412174d44f04	942112926	1	main_slash	11	main_slash	81	stimuli_distractor_diamondtriangles.svg	stimuli_target_diamondcircles.svg	31	yes	53	1	420
6.6.1	win	2023-01-01	13:46:17	14:00:59	879999	5f77e8c2d3a6412174d44f04	942112926	1	main_slash	11	advance_on_keypress_SLASH	82	stimuli_distractor_diamondtriangles.svg	stimuli_target_diamondcircles.svg	31	yes	57	0	359
6.6.1	win	2023-01-01	13:46:17	14:01:01	881460	5f77e8c2d3a6412174d44f04	942112926	1	main_slash	11	main_slash	83	stimuli_target_diamondcircles.svg	stimuli_distractor_trianglediamonds.svg	19	yes	53	1	465
6.6.1	win	2023-01-01	13:46:17	14:01:01	881460	5f77e8c2d3a6412174d44f04	942112926	1	main_slash	11	advance_on_keypress_SLASH	84	stimuli_target_diamondcircles.svg	stimuli_distractor_trianglediamonds.svg	19	yes	57	0	407
6.6.1	win	2023-01-01	13:46:17	14:01:02	883028	5f77e8c2d3a6412174d44f04	942112926	1	main_slash	11	main_slash	85	stimuli_target_circlediamonds.svg	stimuli_distractor_diamondtriangles.svg	6	yes	53	1	516
6.6.1	win	2023-01-01	13:46:17	14:01:02	883028	5f77e8c2d3a6412174d44f04	942112926	1	main_slash	11	advance_on_keypress_SLASH	86	stimuli_target_circlediamonds.svg	stimuli_distractor_diamondtriangles.svg	6	yes	57	0	386
6.6.1	win	2023-01-01	13:46:17	14:01:05	886063	5f77e8c2d3a6412174d44f04	942112926	1	main_slash	11	main_slash	87	stimuli_distractor_diamondtriangles.svg	stimuli_distractor_diamondtriangles.svg	40	no	0	1	2000
6.6.1	win	2023-01-01	13:46:17	14:01:05	886063	5f77e8c2d3a6412174d44f04	942112926	1	main_slash	11	advance_on_keypress_SLASH	88	stimuli_distractor_diamondtriangles.svg	stimuli_distractor_diamondtriangles.svg	40	no	57	0	821
6.6.1	win	2023-01-01	13:46:17	14:01:07	887852	5f77e8c2d3a6412174d44f04	942112926	1	main_slash	11	main_slash	89	stimuli_target_squaretriangles.svg	stimuli_distractor_trianglediamonds.svg	3	yes	53	1	321
6.6.1	win	2023-01-01	13:46:17	14:01:07	887852	5f77e8c2d3a6412174d44f04	942112926	1	main_slash	11	advance_on_keypress_SLASH	90	stimuli_target_squaretriangles.svg	stimuli_distractor_trianglediamonds.svg	3	yes	57	0	447
6.6.1	win	2023-01-01	13:46:17	14:01:09	889455	5f77e8c2d3a6412174d44f04	942112926	1	main_slash	11	main_slash	91	stimuli_distractor_diamondtriangles.svg	stimuli_target_squarediamonds.svg	16	yes	53	1	507
6.6.1	win	2023-01-01	13:46:17	14:01:09	889455	5f77e8c2d3a6412174d44f04	942112926	1	main_slash	11	advance_on_keypress_SLASH	92	stimuli_distractor_diamondtriangles.svg	stimuli_target_squarediamonds.svg	16	yes	57	0	416
6.6.1	win	2023-01-01	13:46:17	14:01:10	891060	5f77e8c2d3a6412174d44f04	942112926	1	main_slash	11	main_slash	93	stimuli_target_trianglecircles.svg	stimuli_distractor_trianglediamonds.svg	17	yes	53	1	545
6.6.1	win	2023-01-01	13:46:17	14:01:10	891060	5f77e8c2d3a6412174d44f04	942112926	1	main_slash	11	advance_on_keypress_SLASH	94	stimuli_target_trianglecircles.svg	stimuli_distractor_trianglediamonds.svg	17	yes	57	0	410
6.6.1	win	2023-01-01	13:46:17	14:01:13	894100	5f77e8c2d3a6412174d44f04	942112926	1	main_slash	11	main_slash	95	stimuli_distractor_diamondtriangles.svg	stimuli_distractor_diamondtriangles.svg	39	no	0	1	2000
6.6.1	win	2023-01-01	13:46:17	14:01:13	894100	5f77e8c2d3a6412174d44f04	942112926	1	main_slash	11	advance_on_keypress_SLASH	96	stimuli_distractor_diamondtriangles.svg	stimuli_distractor_diamondtriangles.svg	39	no	57	0	451
6.6.1	win	2023-01-01	13:46:17	14:01:15	895611	5f77e8c2d3a6412174d44f04	942112926	1	main_slash	11	main_slash	97	stimuli_distractor_diamondtriangles.svg	stimuli_target_trianglesquares.svg	30	yes	53	1	411
6.6.1	win	2023-01-01	13:46:17	14:01:15	895611	5f77e8c2d3a6412174d44f04	942112926	1	main_slash	11	advance_on_keypress_SLASH	98	stimuli_distractor_diamondtriangles.svg	stimuli_target_trianglesquares.svg	30	yes	57	0	456
6.6.1	win	2023-01-01	13:46:17	14:01:17	897340	5f77e8c2d3a6412174d44f04	942112926	1	main_slash	11	main_slash	99	stimuli_distractor_diamondtriangles.svg	stimuli_target_squaretriangles.svg	15	yes	53	1	638
6.6.1	win	2023-01-01	13:46:17	14:01:17	897340	5f77e8c2d3a6412174d44f04	942112926	1	main_slash	11	advance_on_keypress_SLASH	100	stimuli_distractor_diamondtriangles.svg	stimuli_target_squaretriangles.svg	15	yes	57	0	301
6.6.1	win	2023-01-01	13:46:17	14:01:19	899302	5f77e8c2d3a6412174d44f04	942112926	1	main_slash	11	main_slash	101	stimuli_distractor_trianglediamonds.svg	stimuli_target_trianglecircles.svg	25	yes	53	1	1016
6.6.1	win	2023-01-01	13:46:17	14:01:19	899302	5f77e8c2d3a6412174d44f04	942112926	1	main_slash	11	advance_on_keypress_SLASH	102	stimuli_distractor_trianglediamonds.svg	stimuli_target_trianglecircles.svg	25	yes	57	0	482
6.6.1	win	2023-01-01	13:46:17	14:01:20	901137	5f77e8c2d3a6412174d44f04	942112926	1	main_slash	11	main_slash	103	stimuli_target_squarediamonds.svg	stimuli_distractor_trianglediamonds.svg	4	yes	53	1	701
6.6.1	win	2023-01-01	13:46:17	14:01:20	901137	5f77e8c2d3a6412174d44f04	942112926	1	main_slash	11	advance_on_keypress_SLASH	104	stimuli_target_squarediamonds.svg	stimuli_distractor_trianglediamonds.svg	4	yes	57	0	386
6.6.1	win	2023-01-01	13:46:17	14:01:22	902723	5f77e8c2d3a6412174d44f04	942112926	1	main_slash	11	main_slash	105	stimuli_distractor_trianglediamonds.svg	stimuli_target_diamondcircles.svg	27	yes	53	1	554
6.6.1	win	2023-01-01	13:46:17	14:01:22	902723	5f77e8c2d3a6412174d44f04	942112926	1	main_slash	11	advance_on_keypress_SLASH	106	stimuli_distractor_trianglediamonds.svg	stimuli_target_diamondcircles.svg	27	yes	57	0	352
6.6.1	win	2023-01-01	13:46:17	14:01:24	904415	5f77e8c2d3a6412174d44f04	942112926	1	main_slash	11	main_slash	107	stimuli_target_trianglecircles.svg	stimuli_distractor_diamondtriangles.svg	21	yes	53	1	695
6.6.1	win	2023-01-01	13:46:17	14:01:24	904415	5f77e8c2d3a6412174d44f04	942112926	1	main_slash	11	advance_on_keypress_SLASH	108	stimuli_target_trianglecircles.svg	stimuli_distractor_diamondtriangles.svg	21	yes	57	0	416
6.6.1	win	2023-01-01	13:46:17	14:01:25	906181	5f77e8c2d3a6412174d44f04	942112926	1	main_slash	11	main_slash	109	stimuli_target_circletriangles.svg	stimuli_distractor_trianglediamonds.svg	1	yes	53	1	709
6.6.1	win	2023-01-01	13:46:17	14:01:25	906181	5f77e8c2d3a6412174d44f04	942112926	1	main_slash	11	advance_on_keypress_SLASH	110	stimuli_target_circletriangles.svg	stimuli_distractor_trianglediamonds.svg	1	yes	57	0	333
6.6.1	win	2023-01-01	13:46:17	14:01:27	907719	5f77e8c2d3a6412174d44f04	942112926	1	main_slash	11	main_slash	111	stimuli_target_diamondsquares.svg	stimuli_distractor_diamondtriangles.svg	24	yes	53	1	565
6.6.1	win	2023-01-01	13:46:17	14:01:27	907719	5f77e8c2d3a6412174d44f04	942112926	1	main_slash	11	advance_on_keypress_SLASH	112	stimuli_target_diamondsquares.svg	stimuli_distractor_diamondtriangles.svg	24	yes	57	0	318
6.6.1	win	2023-01-01	13:46:17	14:01:28	909198	5f77e8c2d3a6412174d44f04	942112926	1	main_slash	11	main_slash	113	stimuli_distractor_trianglediamonds.svg	stimuli_target_trianglesquares.svg	26	yes	53	1	509
6.6.1	win	2023-01-01	13:46:17	14:01:28	909198	5f77e8c2d3a6412174d44f04	942112926	1	main_slash	11	advance_on_keypress_SLASH	114	stimuli_distractor_trianglediamonds.svg	stimuli_target_trianglesquares.svg	26	yes	57	0	388
6.6.1	win	2023-01-01	13:46:17	14:01:30	910732	5f77e8c2d3a6412174d44f04	942112926	1	main_slash	11	main_slash	115	stimuli_distractor_trianglediamonds.svg	stimuli_target_circletriangles.svg	9	yes	53	1	511
6.6.1	win	2023-01-01	13:46:17	14:01:30	910732	5f77e8c2d3a6412174d44f04	942112926	1	main_slash	11	advance_on_keypress_SLASH	116	stimuli_distractor_trianglediamonds.svg	stimuli_target_circletriangles.svg	9	yes	57	0	396
6.6.1	win	2023-01-01	13:46:17	14:01:33	913757	5f77e8c2d3a6412174d44f04	942112926	1	main_slash	11	main_slash	117	stimuli_distractor_trianglediamonds.svg	stimuli_distractor_trianglediamonds.svg	33	no	0	1	2000
6.6.1	win	2023-01-01	13:46:17	14:01:33	913757	5f77e8c2d3a6412174d44f04	942112926	1	main_slash	11	advance_on_keypress_SLASH	118	stimuli_distractor_trianglediamonds.svg	stimuli_distractor_trianglediamonds.svg	33	no	57	0	552
6.6.1	win	2023-01-01	13:46:17	14:01:35	915480	5f77e8c2d3a6412174d44f04	942112926	1	main_slash	11	main_slash	119	stimuli_target_trianglesquares.svg	stimuli_distractor_trianglediamonds.svg	18	yes	53	1	523
6.6.1	win	2023-01-01	13:46:17	14:01:35	915480	5f77e8c2d3a6412174d44f04	942112926	1	main_slash	11	advance_on_keypress_SLASH	120	stimuli_target_trianglesquares.svg	stimuli_distractor_trianglediamonds.svg	18	yes	57	0	304
6.6.1	win	2023-01-01	13:46:17	14:01:36	916896	5f77e8c2d3a6412174d44f04	942112926	1	main_slash	11	main_slash	121	stimuli_distractor_diamondtriangles.svg	stimuli_target_trianglecircles.svg	29	yes	53	1	471
6.6.1	win	2023-01-01	13:46:17	14:01:36	916896	5f77e8c2d3a6412174d44f04	942112926	1	main_slash	11	advance_on_keypress_SLASH	122	stimuli_distractor_diamondtriangles.svg	stimuli_target_trianglecircles.svg	29	yes	57	0	342
6.6.1	win	2023-01-01	13:46:17	14:01:38	918386	5f77e8c2d3a6412174d44f04	942112926	1	main_slash	11	main_slash	123	stimuli_distractor_diamondtriangles.svg	stimuli_target_circlediamonds.svg	14	yes	53	1	511
6.6.1	win	2023-01-01	13:46:17	14:01:38	918386	5f77e8c2d3a6412174d44f04	942112926	1	main_slash	11	advance_on_keypress_SLASH	124	stimuli_distractor_diamondtriangles.svg	stimuli_target_circlediamonds.svg	14	yes	57	0	352
6.6.1	win	2023-01-01	13:46:17	14:01:40	920910	5f77e8c2d3a6412174d44f04	942112926	1	main_slash	11	main_slash	125	stimuli_target_diamondcircles.svg	stimuli_distractor_diamondtriangles.svg	23	yes	53	1	1534
6.6.1	win	2023-01-01	13:46:17	14:01:40	920910	5f77e8c2d3a6412174d44f04	942112926	1	main_slash	11	advance_on_keypress_SLASH	126	stimuli_target_diamondcircles.svg	stimuli_distractor_diamondtriangles.svg	23	yes	57	0	391
6.6.1	win	2023-01-01	13:46:17	14:01:42	922587	5f77e8c2d3a6412174d44f04	942112926	1	main_slash	11	main_slash	127	stimuli_distractor_trianglediamonds.svg	stimuli_distractor_diamondtriangles.svg	36	no	53	0	644
6.6.1	win	2023-01-01	13:46:17	14:01:42	922587	5f77e8c2d3a6412174d44f04	942112926	1	main_slash	11	advance_on_keypress_SLASH	128	stimuli_distractor_trianglediamonds.svg	stimuli_distractor_diamondtriangles.svg	36	no	57	0	520
6.6.1	win	2023-01-01	13:46:17	14:01:43	924207	5f77e8c2d3a6412174d44f04	942112926	1	main_slash	11	main_slash	129	stimuli_distractor_diamondtriangles.svg	stimuli_distractor_trianglediamonds.svg	38	no	53	0	462
6.6.1	win	2023-01-01	13:46:17	14:01:43	924207	5f77e8c2d3a6412174d44f04	942112926	1	main_slash	11	advance_on_keypress_SLASH	130	stimuli_distractor_diamondtriangles.svg	stimuli_distractor_trianglediamonds.svg	38	no	57	0	363
6.6.1	win	2023-01-01	13:46:17	14:01:45	925680	5f77e8c2d3a6412174d44f04	942112926	1	main_slash	11	main_slash	131	stimuli_target_squaretriangles.svg	stimuli_distractor_diamondtriangles.svg	7	yes	53	1	469
6.6.1	win	2023-01-01	13:46:17	14:01:45	925680	5f77e8c2d3a6412174d44f04	942112926	1	main_slash	11	advance_on_keypress_SLASH	132	stimuli_target_squaretriangles.svg	stimuli_distractor_diamondtriangles.svg	7	yes	57	0	329
6.6.1	win	2023-01-01	13:46:17	14:01:48	928645	5f77e8c2d3a6412174d44f04	942112926	1	main_slash	11	main_slash	133	stimuli_distractor_trianglediamonds.svg	stimuli_distractor_diamondtriangles.svg	35	no	0	1	2000
6.6.1	win	2023-01-01	13:46:17	14:01:48	928645	5f77e8c2d3a6412174d44f04	942112926	1	main_slash	11	advance_on_keypress_SLASH	134	stimuli_distractor_trianglediamonds.svg	stimuli_distractor_diamondtriangles.svg	35	no	57	0	376
6.6.1	win	2023-01-01	13:46:17	14:01:50	930408	5f77e8c2d3a6412174d44f04	942112926	1	main_slash	11	main_slash	135	stimuli_distractor_diamondtriangles.svg	stimuli_distractor_trianglediamonds.svg	37	no	53	0	744
6.6.1	win	2023-01-01	13:46:17	14:01:50	930408	5f77e8c2d3a6412174d44f04	942112926	1	main_slash	11	advance_on_keypress_SLASH	136	stimuli_distractor_diamondtriangles.svg	stimuli_distractor_trianglediamonds.svg	37	no	57	0	507
6.6.1	win	2023-01-01	13:46:17	14:01:51	931982	5f77e8c2d3a6412174d44f04	942112926	1	main_slash	11	main_slash	137	stimuli_target_squarediamonds.svg	stimuli_distractor_diamondtriangles.svg	8	yes	53	1	435
6.6.1	win	2023-01-01	13:46:17	14:01:51	931982	5f77e8c2d3a6412174d44f04	942112926	1	main_slash	11	advance_on_keypress_SLASH	138	stimuli_target_squarediamonds.svg	stimuli_distractor_diamondtriangles.svg	8	yes	57	0	358
6.6.1	win	2023-01-01	13:46:17	14:01:53	933511	5f77e8c2d3a6412174d44f04	942112926	1	main_slash	11	main_slash	139	stimuli_distractor_trianglediamonds.svg	stimuli_target_circlediamonds.svg	10	yes	53	1	531
6.6.1	win	2023-01-01	13:46:17	14:01:53	933511	5f77e8c2d3a6412174d44f04	942112926	1	main_slash	11	advance_on_keypress_SLASH	140	stimuli_distractor_trianglediamonds.svg	stimuli_target_circlediamonds.svg	10	yes	57	0	361
6.6.1	win	2023-01-01	13:46:17	14:01:56	936515	5f77e8c2d3a6412174d44f04	942112926	1	main_slash	11	main_slash	141	stimuli_distractor_trianglediamonds.svg	stimuli_distractor_trianglediamonds.svg	34	no	0	1	2000
6.6.1	win	2023-01-01	13:46:17	14:01:56	936515	5f77e8c2d3a6412174d44f04	942112926	1	main_slash	11	advance_on_keypress_SLASH	142	stimuli_distractor_trianglediamonds.svg	stimuli_distractor_trianglediamonds.svg	34	no	57	0	837
6.6.1	win	2023-01-01	13:46:17	14:01:58	938473	5f77e8c2d3a6412174d44f04	942112926	1	main_slash	11	main_slash	143	stimuli_distractor_trianglediamonds.svg	stimuli_target_squarediamonds.svg	12	yes	53	1	474
6.6.1	win	2023-01-01	13:46:17	14:01:58	938473	5f77e8c2d3a6412174d44f04	942112926	1	main_slash	11	advance_on_keypress_SLASH	144	stimuli_distractor_trianglediamonds.svg	stimuli_target_squarediamonds.svg	12	yes	57	0	405
6.6.1	win	2023-01-01	13:46:17	14:01:59	940205	5f77e8c2d3a6412174d44f04	942112926	1	main_slash	11	main_slash	145	stimuli_target_circletriangles.svg	stimuli_distractor_diamondtriangles.svg	5	yes	53	1	687
6.6.1	win	2023-01-01	13:46:17	14:01:59	940205	5f77e8c2d3a6412174d44f04	942112926	1	main_slash	11	advance_on_keypress_SLASH	146	stimuli_target_circletriangles.svg	stimuli_distractor_diamondtriangles.svg	5	yes	57	0	494
6.6.1	win	2023-01-01	13:46:17	14:02:01	941843	5f77e8c2d3a6412174d44f04	942112926	1	main_slash	11	main_slash	147	stimuli_distractor_trianglediamonds.svg	stimuli_target_diamondsquares.svg	28	yes	53	1	510
6.6.1	win	2023-01-01	13:46:17	14:02:01	941843	5f77e8c2d3a6412174d44f04	942112926	1	main_slash	11	advance_on_keypress_SLASH	148	stimuli_distractor_trianglediamonds.svg	stimuli_target_diamondsquares.svg	28	yes	57	0	392
6.6.1	win	2023-01-01	13:46:17	14:02:03	943351	5f77e8c2d3a6412174d44f04	942112926	1	main_slash	11	main_slash	149	stimuli_target_circlediamonds.svg	stimuli_distractor_trianglediamonds.svg	2	yes	53	1	483
6.6.1	win	2023-01-01	13:46:17	14:02:03	943351	5f77e8c2d3a6412174d44f04	942112926	1	main_slash	11	advance_on_keypress_SLASH	150	stimuli_target_circlediamonds.svg	stimuli_distractor_trianglediamonds.svg	2	yes	57	0	388
6.6.1	win	2023-01-01	13:46:17	14:02:04	944891	5f77e8c2d3a6412174d44f04	942112926	1	main_slash	11	main_slash	151	stimuli_target_trianglesquares.svg	stimuli_distractor_diamondtriangles.svg	22	yes	53	1	503
6.6.1	win	2023-01-01	13:46:17	14:02:04	944891	5f77e8c2d3a6412174d44f04	942112926	1	main_slash	11	advance_on_keypress_SLASH	152	stimuli_target_trianglesquares.svg	stimuli_distractor_diamondtriangles.svg	22	yes	57	0	228
6.6.1	win	2023-01-01	13:46:17	14:02:05	946200	5f77e8c2d3a6412174d44f04	942112926	1	main_slash	11	main_slash	153	stimuli_distractor_diamondtriangles.svg	stimuli_target_circletriangles.svg	13	yes	53	1	447
6.6.1	win	2023-01-01	13:46:17	14:02:05	946200	5f77e8c2d3a6412174d44f04	942112926	1	main_slash	11	advance_on_keypress_SLASH	154	stimuli_distractor_diamondtriangles.svg	stimuli_target_circletriangles.svg	13	yes	57	0	405
6.6.1	win	2023-01-01	13:46:17	14:02:07	947869	5f77e8c2d3a6412174d44f04	942112926	1	main_slash	11	main_slash	155	stimuli_distractor_trianglediamonds.svg	stimuli_target_squaretriangles.svg	11	yes	53	1	615
6.6.1	win	2023-01-01	13:46:17	14:02:07	947869	5f77e8c2d3a6412174d44f04	942112926	1	main_slash	11	advance_on_keypress_SLASH	156	stimuli_distractor_trianglediamonds.svg	stimuli_target_squaretriangles.svg	11	yes	57	0	375
6.6.1	win	2023-01-01	13:46:17	14:02:09	949533	5f77e8c2d3a6412174d44f04	942112926	1	main_slash	11	main_slash	157	stimuli_distractor_diamondtriangles.svg	stimuli_target_diamondsquares.svg	32	yes	53	1	645
6.6.1	win	2023-01-01	13:46:17	14:02:09	949533	5f77e8c2d3a6412174d44f04	942112926	1	main_slash	11	advance_on_keypress_SLASH	158	stimuli_distractor_diamondtriangles.svg	stimuli_target_diamondsquares.svg	32	yes	57	0	324
6.6.1	win	2023-01-01	13:46:17	14:02:10	951099	5f77e8c2d3a6412174d44f04	942112926	1	main_slash	11	main_slash	159	stimuli_target_diamondsquares.svg	stimuli_distractor_trianglediamonds.svg	20	yes	53	1	611
6.6.1	win	2023-01-01	13:46:17	14:02:10	951099	5f77e8c2d3a6412174d44f04	942112926	1	main_slash	11	advance_on_keypress_SLASH	160	stimuli_target_diamondsquares.svg	stimuli_distractor_trianglediamonds.svg	20	yes	57	0	311