build	computer.platform	date	time	timestamp	time_elapsed_ms	subject	group	session	blockcode	blocknum	trialcode	trialnum	stimulus_left	stimulus_right	stim_index	target_present	response	correct	latency
6.6.1	win	2022-11-07	14:48:06	14:50:31	143628	5d847ac9be4b0b00188463d7	969558009	1	practice_slash	5	practice_slash	1	stimuli_target_diamondsquares.svg	stimuli_distractor_trianglediamonds.svg	6	yes	53	1	981
6.6.1	win	2022-11-07	14:48:06	14:50:31	143628	5d847ac9be4b0b00188463d7	969558009	1	practice_slash	5	advance_on_keypress_SLASH	2	stimuli_target_diamondsquares.svg	stimuli_distractor_trianglediamonds.svg	6	yes	57	0	1238
6.6.1	win	2022-11-07	14:48:06	14:50:35	147143	5d847ac9be4b0b00188463d7	969558009	1	practice_slash	5	practice_slash	3	stimuli_distractor_diamondtriangles.svg	stimuli_target_diamondcircles.svg	8	yes	53	1	627
6.6.1	win	2022-11-07	14:48:06	14:50:35	147143	5d847ac9be4b0b00188463d7	969558009	1	practice_slash	5	advance_on_keypress_SLASH	4	stimuli_distractor_diamondtriangles.svg	stimuli_target_diamondcircles.svg	8	yes	57	0	794
6.6.1	win	2022-11-07	14:48:06	14:50:39	151564	5d847ac9be4b0b00188463d7	969558009	1	practice_slash	5	practice_slash	5	stimuli_distractor_trianglediamonds.svg	stimuli_distractor_trianglediamonds.svg	15	no	0	1	2000
6.6.1	win	2022-11-07	14:48:06	14:50:39	151564	5d847ac9be4b0b00188463d7	969558009	1	practice_slash	5	advance_on_keypress_SLASH	6	stimuli_distractor_trianglediamonds.svg	stimuli_distractor_trianglediamonds.svg	15	no	57	0	866
6.6.1	win	2022-11-07	14:48:06	14:50:44	156081	5d847ac9be4b0b00188463d7	969558009	1	practice_slash	5	practice_slash	7	stimuli_distractor_trianglediamonds.svg	stimuli_distractor_diamondtriangles.svg	16	no	0	1	2000
6.6.1	win	2022-11-07	14:48:06	14:50:44	156081	5d847ac9be4b0b00188463d7	969558009	1	practice_slash	5	advance_on_keypress_SLASH	8	stimuli_distractor_trianglediamonds.svg	stimuli_distractor_diamondtriangles.svg	16	no	57	0	837
6.6.1	win	2022-11-07	14:48:06	14:50:47	159551	5d847ac9be4b0b00188463d7	969558009	1	practice_slash	5	practice_slash	9	stimuli_target_circlediamonds.svg	stimuli_distractor_diamondtriangles.svg	1	yes	53	1	987
6.6.1	win	2022-11-07	14:48:06	14:50:47	159551	5d847ac9be4b0b00188463d7	969558009	1	practice_slash	5	advance_on_keypress_SLASH	10	stimuli_target_circlediamonds.svg	stimuli_distractor_diamondtriangles.svg	1	yes	57	0	1740
6.6.1	win	2022-11-07	14:48:06	14:50:51	163896	5d847ac9be4b0b00188463d7	969558009	1	practice_slash	5	practice_slash	11	stimuli_distractor_diamondtriangles.svg	stimuli_target_circletriangles.svg	7	yes	53	1	965
6.6.1	win	2022-11-07	14:48:06	14:50:51	163896	5d847ac9be4b0b00188463d7	969558009	1	practice_slash	5	advance_on_keypress_SLASH	12	stimuli_distractor_diamondtriangles.svg	stimuli_target_circletriangles.svg	7	yes	57	0	774
6.6.1	win	2022-11-07	14:48:06	14:50:54	166904	5d847ac9be4b0b00188463d7	969558009	1	practice_slash	5	practice_slash	13	stimuli_target_squarediamonds.svg	stimuli_distractor_diamondtriangles.svg	2	yes	53	1	590
6.6.1	win	2022-11-07	14:48:06	14:50:54	166904	5d847ac9be4b0b00188463d7	969558009	1	practice_slash	5	advance_on_keypress_SLASH	14	stimuli_target_squarediamonds.svg	stimuli_distractor_diamondtriangles.svg	2	yes	57	0	750
6.6.1	win	2022-11-07	14:48:06	14:50:58	170122	5d847ac9be4b0b00188463d7	969558009	1	practice_slash	5	practice_slash	15	stimuli_distractor_trianglediamonds.svg	stimuli_target_squarediamonds.svg	11	yes	53	1	823
6.6.1	win	2022-11-07	14:48:06	14:50:58	170122	5d847ac9be4b0b00188463d7	969558009	1	practice_slash	5	advance_on_keypress_SLASH	16	stimuli_distractor_trianglediamonds.svg	stimuli_target_squarediamonds.svg	11	yes	57	0	910
6.6.1	win	2022-11-07	14:48:06	14:51:02	174664	5d847ac9be4b0b00188463d7	969558009	1	practice_slash	5	practice_slash	17	stimuli_distractor_diamondtriangles.svg	stimuli_distractor_trianglediamonds.svg	14	no	0	1	2000
6.6.1	win	2022-11-07	14:48:06	14:51:02	174664	5d847ac9be4b0b00188463d7	969558009	1	practice_slash	5	advance_on_keypress_SLASH	18	stimuli_distractor_diamondtriangles.svg	stimuli_distractor_trianglediamonds.svg	14	no	57	0	1105
6.6.1	win	2022-11-07	14:48:06	14:51:07	179414	5d847ac9be4b0b00188463d7	969558009	1	practice_slash	5	practice_slash	19	stimuli_distractor_diamondtriangles.svg	stimuli_distractor_diamondtriangles.svg	13	no	0	1	2000
6.6.1	win	2022-11-07	14:48:06	14:51:07	179414	5d847ac9be4b0b00188463d7	969558009	1	practice_slash	5	advance_on_keypress_SLASH	20	stimuli_distractor_diamondtriangles.svg	stimuli_distractor_diamondtriangles.svg	13	no	57	0	603
6.6.1	win	2022-11-07	14:48:06	14:51:10	182700	5d847ac9be4b0b00188463d7	969558009	1	practice_slash	5	practice_slash	21	stimuli_target_diamondsquares.svg	stimuli_distractor_diamondtriangles.svg	3	yes	53	1	1035
6.6.1	win	2022-11-07	14:48:06	14:51:10	182700	5d847ac9be4b0b00188463d7	969558009	1	practice_slash	5	advance_on_keypress_SLASH	22	stimuli_target_diamondsquares.svg	stimuli_distractor_diamondtriangles.svg	3	yes	57	0	712
6.6.1	win	2022-11-07	14:48:06	14:51:13	185963	5d847ac9be4b0b00188463d7	969558009	1	practice_slash	5	practice_slash	23	stimuli_distractor_trianglediamonds.svg	stimuli_target_circlediamonds.svg	10	yes	53	1	899
6.6.1	win	2022-11-07	14:48:06	14:51:13	185963	5d847ac9be4b0b00188463d7	969558009	1	practice_slash	5	advance_on_keypress_SLASH	24	stimuli_distractor_trianglediamonds.svg	stimuli_target_circlediamonds.svg	10	yes	57	0	615
6.6.1	win	2022-11-07	14:48:06	14:51:16	189004	5d847ac9be4b0b00188463d7	969558009	1	practice_slash	5	practice_slash	25	stimuli_distractor_trianglediamonds.svg	stimuli_target_diamondcircles.svg	12	yes	53	1	772
6.6.1	win	2022-11-07	14:48:06	14:51:16	189004	5d847ac9be4b0b00188463d7	969558009	1	practice_slash	5	advance_on_keypress_SLASH	26	stimuli_distractor_trianglediamonds.svg	stimuli_target_diamondcircles.svg	12	yes	57	0	517
6.6.1	win	2022-11-07	14:48:06	14:51:19	191773	5d847ac9be4b0b00188463d7	969558009	1	practice_slash	5	practice_slash	27	stimuli_target_squarediamonds.svg	stimuli_distractor_trianglediamonds.svg	5	yes	53	1	608
6.6.1	win	2022-11-07	14:48:06	14:51:19	191773	5d847ac9be4b0b00188463d7	969558009	1	practice_slash	5	advance_on_keypress_SLASH	28	stimuli_target_squarediamonds.svg	stimuli_distractor_trianglediamonds.svg	5	yes	57	0	375
6.6.1	win	2022-11-07	14:48:06	14:51:22	194460	5d847ac9be4b0b00188463d7	969558009	1	practice_slash	5	practice_slash	29	stimuli_target_circlediamonds.svg	stimuli_distractor_trianglediamonds.svg	4	yes	53	1	679
6.6.1	win	2022-11-07	14:48:06	14:51:22	194460	5d847ac9be4b0b00188463d7	969558009	1	practice_slash	5	advance_on_keypress_SLASH	30	stimuli_target_circlediamonds.svg	stimuli_distractor_trianglediamonds.svg	4	yes	57	0	444
6.6.1	win	2022-11-07	14:48:06	14:51:24	197065	5d847ac9be4b0b00188463d7	969558009	1	practice_slash	5	practice_slash	31	stimuli_distractor_diamondtriangles.svg	stimuli_target_trianglecircles.svg	9	yes	53	1	505
6.6.1	win	2022-11-07	14:48:06	14:51:24	197065	5d847ac9be4b0b00188463d7	969558009	1	practice_slash	5	advance_on_keypress_SLASH	32	stimuli_distractor_diamondtriangles.svg	stimuli_target_trianglecircles.svg	9	yes	57	0	476
6.6.1	win	2022-11-07	14:48:06	14:51:33	205718	5d847ac9be4b0b00188463d7	969558009	1	main_slash	7	main_slash	1	stimuli_distractor_trianglediamonds.svg	stimuli_target_squaretriangles.svg	11	yes	53	1	587
6.6.1	win	2022-11-07	14:48:06	14:51:33	205718	5d847ac9be4b0b00188463d7	969558009	1	main_slash	7	advance_on_keypress_SLASH	2	stimuli_distractor_trianglediamonds.svg	stimuli_target_squaretriangles.svg	11	yes	57	0	1045
6.6.1	win	2022-11-07	14:48:06	14:51:35	207914	5d847ac9be4b0b00188463d7	969558009	1	main_slash	7	main_slash	3	stimuli_distractor_diamondtriangles.svg	stimuli_target_trianglesquares.svg	30	yes	53	1	504
6.6.1	win	2022-11-07	14:48:06	14:51:35	207914	5d847ac9be4b0b00188463d7	969558009	1	main_slash	7	advance_on_keypress_SLASH	4	stimuli_distractor_diamondtriangles.svg	stimuli_target_trianglesquares.svg	30	yes	57	0	860
6.6.1	win	2022-11-07	14:48:06	14:51:39	211414	5d847ac9be4b0b00188463d7	969558009	1	main_slash	7	main_slash	5	stimuli_distractor_diamondtriangles.svg	stimuli_distractor_diamondtriangles.svg	39	no	0	1	2000
6.6.1	win	2022-11-07	14:48:06	14:51:39	211414	5d847ac9be4b0b00188463d7	969558009	1	main_slash	7	advance_on_keypress_SLASH	6	stimuli_distractor_diamondtriangles.svg	stimuli_distractor_diamondtriangles.svg	39	no	57	0	760
6.6.1	win	2022-11-07	14:48:06	14:51:41	213351	5d847ac9be4b0b00188463d7	969558009	1	main_slash	7	main_slash	7	stimuli_distractor_diamondtriangles.svg	stimuli_target_trianglecircles.svg	29	yes	53	1	536
6.6.1	win	2022-11-07	14:48:06	14:51:41	213351	5d847ac9be4b0b00188463d7	969558009	1	main_slash	7	advance_on_keypress_SLASH	8	stimuli_distractor_diamondtriangles.svg	stimuli_target_trianglecircles.svg	29	yes	57	0	930
6.6.1	win	2022-11-07	14:48:06	14:51:43	215431	5d847ac9be4b0b00188463d7	969558009	1	main_slash	7	main_slash	9	stimuli_distractor_diamondtriangles.svg	stimuli_target_diamondcircles.svg	31	yes	53	1	501
6.6.1	win	2022-11-07	14:48:06	14:51:43	215431	5d847ac9be4b0b00188463d7	969558009	1	main_slash	7	advance_on_keypress_SLASH	10	stimuli_distractor_diamondtriangles.svg	stimuli_target_diamondcircles.svg	31	yes	57	0	727
6.6.1	win	2022-11-07	14:48:06	14:51:45	217503	5d847ac9be4b0b00188463d7	969558009	1	main_slash	7	main_slash	11	stimuli_target_circletriangles.svg	stimuli_distractor_trianglediamonds.svg	1	yes	53	1	705
6.6.1	win	2022-11-07	14:48:06	14:51:45	217503	5d847ac9be4b0b00188463d7	969558009	1	main_slash	7	advance_on_keypress_SLASH	12	stimuli_target_circletriangles.svg	stimuli_distractor_trianglediamonds.svg	1	yes	57	0	684
6.6.1	win	2022-11-07	14:48:06	14:51:47	219407	5d847ac9be4b0b00188463d7	969558009	1	main_slash	7	main_slash	13	stimuli_target_circletriangles.svg	stimuli_distractor_diamondtriangles.svg	5	yes	53	1	576
6.6.1	win	2022-11-07	14:48:06	14:51:47	219407	5d847ac9be4b0b00188463d7	969558009	1	main_slash	7	advance_on_keypress_SLASH	14	stimuli_target_circletriangles.svg	stimuli_distractor_diamondtriangles.svg	5	yes	57	0	617
6.6.1	win	2022-11-07	14:48:06	14:51:49	221215	5d847ac9be4b0b00188463d7	969558009	1	main_slash	7	main_slash	15	stimuli_target_squaretriangles.svg	stimuli_distractor_diamondtriangles.svg	7	yes	53	1	551
6.6.1	win	2022-11-07	14:48:06	14:51:49	221215	5d847ac9be4b0b00188463d7	969558009	1	main_slash	7	advance_on_keypress_SLASH	16	stimuli_target_squaretriangles.svg	stimuli_distractor_diamondtriangles.svg	7	yes	57	0	601
6.6.1	win	2022-11-07	14:48:06	14:51:52	224464	5d847ac9be4b0b00188463d7	969558009	1	main_slash	7	main_slash	17	stimuli_distractor_diamondtriangles.svg	stimuli_distractor_diamondtriangles.svg	40	no	0	1	2000
6.6.1	win	2022-11-07	14:48:06	14:51:52	224464	5d847ac9be4b0b00188463d7	969558009	1	main_slash	7	advance_on_keypress_SLASH	18	stimuli_distractor_diamondtriangles.svg	stimuli_distractor_diamondtriangles.svg	40	no	57	0	600
6.6.1	win	2022-11-07	14:48:06	14:51:54	226289	5d847ac9be4b0b00188463d7	969558009	1	main_slash	7	main_slash	19	stimuli_target_trianglesquares.svg	stimuli_distractor_trianglediamonds.svg	18	yes	53	1	574
6.6.1	win	2022-11-07	14:48:06	14:51:54	226289	5d847ac9be4b0b00188463d7	969558009	1	main_slash	7	advance_on_keypress_SLASH	20	stimuli_target_trianglesquares.svg	stimuli_distractor_trianglediamonds.svg	18	yes	57	0	1015
6.6.1	win	2022-11-07	14:48:06	14:51:56	228464	5d847ac9be4b0b00188463d7	969558009	1	main_slash	7	main_slash	21	stimuli_distractor_trianglediamonds.svg	stimuli_target_circletriangles.svg	9	yes	53	1	509
6.6.1	win	2022-11-07	14:48:06	14:51:56	228464	5d847ac9be4b0b00188463d7	969558009	1	main_slash	7	advance_on_keypress_SLASH	22	stimuli_distractor_trianglediamonds.svg	stimuli_target_circletriangles.svg	9	yes	57	0	704
6.6.1	win	2022-11-07	14:48:06	14:51:58	230241	5d847ac9be4b0b00188463d7	969558009	1	main_slash	7	main_slash	23	stimuli_distractor_trianglediamonds.svg	stimuli_target_circlediamonds.svg	10	yes	53	1	426
6.6.1	win	2022-11-07	14:48:06	14:51:58	230241	5d847ac9be4b0b00188463d7	969558009	1	main_slash	7	advance_on_keypress_SLASH	24	stimuli_distractor_trianglediamonds.svg	stimuli_target_circlediamonds.svg	10	yes	57	0	649
6.6.1	win	2022-11-07	14:48:06	14:52:01	233531	5d847ac9be4b0b00188463d7	969558009	1	main_slash	7	main_slash	25	stimuli_distractor_trianglediamonds.svg	stimuli_distractor_trianglediamonds.svg	34	no	0	1	2000
6.6.1	win	2022-11-07	14:48:06	14:52:01	233531	5d847ac9be4b0b00188463d7	969558009	1	main_slash	7	advance_on_keypress_SLASH	26	stimuli_distractor_trianglediamonds.svg	stimuli_distractor_trianglediamonds.svg	34	no	57	0	718
6.6.1	win	2022-11-07	14:48:06	14:52:03	235346	5d847ac9be4b0b00188463d7	969558009	1	main_slash	7	main_slash	27	stimuli_distractor_diamondtriangles.svg	stimuli_target_circletriangles.svg	13	yes	53	1	448
6.6.1	win	2022-11-07	14:48:06	14:52:03	235346	5d847ac9be4b0b00188463d7	969558009	1	main_slash	7	advance_on_keypress_SLASH	28	stimuli_distractor_diamondtriangles.svg	stimuli_target_circletriangles.svg	13	yes	57	0	533
6.6.1	win	2022-11-07	14:48:06	14:52:04	236914	5d847ac9be4b0b00188463d7	969558009	1	main_slash	7	main_slash	29	stimuli_target_squarediamonds.svg	stimuli_distractor_trianglediamonds.svg	4	yes	53	1	367
6.6.1	win	2022-11-07	14:48:06	14:52:04	236914	5d847ac9be4b0b00188463d7	969558009	1	main_slash	7	advance_on_keypress_SLASH	30	stimuli_target_squarediamonds.svg	stimuli_distractor_trianglediamonds.svg	4	yes	57	0	591
6.6.1	win	2022-11-07	14:48:06	14:52:06	238578	5d847ac9be4b0b00188463d7	969558009	1	main_slash	7	main_slash	31	stimuli_target_squarediamonds.svg	stimuli_distractor_diamondtriangles.svg	8	yes	53	1	430
6.6.1	win	2022-11-07	14:48:06	14:52:06	238578	5d847ac9be4b0b00188463d7	969558009	1	main_slash	7	advance_on_keypress_SLASH	32	stimuli_target_squarediamonds.svg	stimuli_distractor_diamondtriangles.svg	8	yes	57	0	533
6.6.1	win	2022-11-07	14:48:06	14:52:09	241748	5d847ac9be4b0b00188463d7	969558009	1	main_slash	7	main_slash	33	stimuli_distractor_trianglediamonds.svg	stimuli_distractor_diamondtriangles.svg	35	no	0	1	2000
6.6.1	win	2022-11-07	14:48:06	14:52:09	241748	5d847ac9be4b0b00188463d7	969558009	1	main_slash	7	advance_on_keypress_SLASH	34	stimuli_distractor_trianglediamonds.svg	stimuli_distractor_diamondtriangles.svg	35	no	57	0	790
6.6.1	win	2022-11-07	14:48:06	14:52:11	243916	5d847ac9be4b0b00188463d7	969558009	1	main_slash	7	main_slash	35	stimuli_distractor_diamondtriangles.svg	stimuli_target_diamondsquares.svg	32	yes	53	1	735
6.6.1	win	2022-11-07	14:48:06	14:52:11	243916	5d847ac9be4b0b00188463d7	969558009	1	main_slash	7	advance_on_keypress_SLASH	36	stimuli_distractor_diamondtriangles.svg	stimuli_target_diamondsquares.svg	32	yes	57	0	864
6.6.1	win	2022-11-07	14:48:06	14:52:13	246051	5d847ac9be4b0b00188463d7	969558009	1	main_slash	7	main_slash	37	stimuli_distractor_trianglediamonds.svg	stimuli_target_diamondcircles.svg	27	yes	53	1	636
6.6.1	win	2022-11-07	14:48:06	14:52:13	246051	5d847ac9be4b0b00188463d7	969558009	1	main_slash	7	advance_on_keypress_SLASH	38	stimuli_distractor_trianglediamonds.svg	stimuli_target_diamondcircles.svg	27	yes	57	0	746
6.6.1	win	2022-11-07	14:48:06	14:52:15	248068	5d847ac9be4b0b00188463d7	969558009	1	main_slash	7	main_slash	39	stimuli_target_trianglecircles.svg	stimuli_distractor_trianglediamonds.svg	17	yes	53	1	637
6.6.1	win	2022-11-07	14:48:06	14:52:15	248068	5d847ac9be4b0b00188463d7	969558009	1	main_slash	7	advance_on_keypress_SLASH	40	stimuli_target_trianglecircles.svg	stimuli_distractor_trianglediamonds.svg	17	yes	57	0	627
6.6.1	win	2022-11-07	14:48:06	14:52:19	251331	5d847ac9be4b0b00188463d7	969558009	1	main_slash	7	main_slash	41	stimuli_distractor_trianglediamonds.svg	stimuli_target_squarediamonds.svg	12	yes	0	0	2000
6.6.1	win	2022-11-07	14:48:06	14:52:19	251331	5d847ac9be4b0b00188463d7	969558009	1	main_slash	7	advance_on_keypress_SLASH	42	stimuli_distractor_trianglediamonds.svg	stimuli_target_squarediamonds.svg	12	yes	57	0	696
6.6.1	win	2022-11-07	14:48:06	14:52:21	253268	5d847ac9be4b0b00188463d7	969558009	1	main_slash	7	main_slash	43	stimuli_target_squaretriangles.svg	stimuli_distractor_trianglediamonds.svg	3	yes	53	1	603
6.6.1	win	2022-11-07	14:48:06	14:52:21	253268	5d847ac9be4b0b00188463d7	969558009	1	main_slash	7	advance_on_keypress_SLASH	44	stimuli_target_squaretriangles.svg	stimuli_distractor_trianglediamonds.svg	3	yes	57	0	579
6.6.1	win	2022-11-07	14:48:06	14:52:23	255228	5d847ac9be4b0b00188463d7	969558009	1	main_slash	7	main_slash	45	stimuli_target_diamondcircles.svg	stimuli_distractor_diamondtriangles.svg	23	yes	53	1	748
6.6.1	win	2022-11-07	14:48:06	14:52:23	255228	5d847ac9be4b0b00188463d7	969558009	1	main_slash	7	advance_on_keypress_SLASH	46	stimuli_target_diamondcircles.svg	stimuli_distractor_diamondtriangles.svg	23	yes	57	0	589
6.6.1	win	2022-11-07	14:48:06	14:52:24	256997	5d847ac9be4b0b00188463d7	969558009	1	main_slash	7	main_slash	47	stimuli_distractor_trianglediamonds.svg	stimuli_target_diamondsquares.svg	28	yes	53	1	549
6.6.1	win	2022-11-07	14:48:06	14:52:24	256997	5d847ac9be4b0b00188463d7	969558009	1	main_slash	7	advance_on_keypress_SLASH	48	stimuli_distractor_trianglediamonds.svg	stimuli_target_diamondsquares.svg	28	yes	57	0	486
6.6.1	win	2022-11-07	14:48:06	14:52:26	259038	5d847ac9be4b0b00188463d7	969558009	1	main_slash	7	main_slash	49	stimuli_target_circlediamonds.svg	stimuli_distractor_trianglediamonds.svg	2	yes	53	1	907
6.6.1	win	2022-11-07	14:48:06	14:52:26	259038	5d847ac9be4b0b00188463d7	969558009	1	main_slash	7	advance_on_keypress_SLASH	50	stimuli_target_circlediamonds.svg	stimuli_distractor_trianglediamonds.svg	2	yes	57	0	622
6.6.1	win	2022-11-07	14:48:06	14:52:28	260776	5d847ac9be4b0b00188463d7	969558009	1	main_slash	7	main_slash	51	stimuli_distractor_diamondtriangles.svg	stimuli_target_circlediamonds.svg	14	yes	53	1	478
6.6.1	win	2022-11-07	14:48:06	14:52:28	260776	5d847ac9be4b0b00188463d7	969558009	1	main_slash	7	advance_on_keypress_SLASH	52	stimuli_distractor_diamondtriangles.svg	stimuli_target_circlediamonds.svg	14	yes	57	0	640
6.6.1	win	2022-11-07	14:48:06	14:52:30	262781	5d847ac9be4b0b00188463d7	969558009	1	main_slash	7	main_slash	53	stimuli_target_diamondsquares.svg	stimuli_distractor_trianglediamonds.svg	20	yes	53	1	734
6.6.1	win	2022-11-07	14:48:06	14:52:30	262781	5d847ac9be4b0b00188463d7	969558009	1	main_slash	7	advance_on_keypress_SLASH	54	stimuli_target_diamondsquares.svg	stimuli_distractor_trianglediamonds.svg	20	yes	57	0	552
6.6.1	win	2022-11-07	14:48:06	14:52:33	265981	5d847ac9be4b0b00188463d7	969558009	1	main_slash	7	main_slash	55	stimuli_distractor_diamondtriangles.svg	stimuli_distractor_trianglediamonds.svg	38	no	0	1	2000
6.6.1	win	2022-11-07	14:48:06	14:52:33	265981	5d847ac9be4b0b00188463d7	969558009	1	main_slash	7	advance_on_keypress_SLASH	56	stimuli_distractor_diamondtriangles.svg	stimuli_distractor_trianglediamonds.svg	38	no	57	0	731
6.6.1	win	2022-11-07	14:48:06	14:52:35	267942	5d847ac9be4b0b00188463d7	969558009	1	main_slash	7	main_slash	57	stimuli_distractor_diamondtriangles.svg	stimuli_target_squarediamonds.svg	16	yes	53	1	594
6.6.1	win	2022-11-07	14:48:06	14:52:35	267942	5d847ac9be4b0b00188463d7	969558009	1	main_slash	7	advance_on_keypress_SLASH	58	stimuli_distractor_diamondtriangles.svg	stimuli_target_squarediamonds.svg	16	yes	57	0	578
6.6.1	win	2022-11-07	14:48:06	14:52:37	269607	5d847ac9be4b0b00188463d7	969558009	1	main_slash	7	main_slash	59	stimuli_target_trianglecircles.svg	stimuli_distractor_diamondtriangles.svg	21	yes	53	1	459
6.6.1	win	2022-11-07	14:48:06	14:52:37	269607	5d847ac9be4b0b00188463d7	969558009	1	main_slash	7	advance_on_keypress_SLASH	60	stimuli_target_trianglecircles.svg	stimuli_distractor_diamondtriangles.svg	21	yes	57	0	609
6.6.1	win	2022-11-07	14:48:06	14:52:39	271278	5d847ac9be4b0b00188463d7	969558009	1	main_slash	7	main_slash	61	stimuli_target_trianglesquares.svg	stimuli_distractor_diamondtriangles.svg	22	yes	53	1	431
6.6.1	win	2022-11-07	14:48:06	14:52:39	271278	5d847ac9be4b0b00188463d7	969558009	1	main_slash	7	advance_on_keypress_SLASH	62	stimuli_target_trianglesquares.svg	stimuli_distractor_diamondtriangles.svg	22	yes	57	0	582
6.6.1	win	2022-11-07	14:48:06	14:52:40	272919	5d847ac9be4b0b00188463d7	969558009	1	main_slash	7	main_slash	63	stimuli_target_diamondcircles.svg	stimuli_distractor_trianglediamonds.svg	19	yes	53	1	421
6.6.1	win	2022-11-07	14:48:06	14:52:40	272919	5d847ac9be4b0b00188463d7	969558009	1	main_slash	7	advance_on_keypress_SLASH	64	stimuli_target_diamondcircles.svg	stimuli_distractor_trianglediamonds.svg	19	yes	57	0	476
6.6.1	win	2022-11-07	14:48:06	14:52:42	274735	5d847ac9be4b0b00188463d7	969558009	1	main_slash	7	main_slash	65	stimuli_target_diamondsquares.svg	stimuli_distractor_diamondtriangles.svg	24	yes	53	1	704
6.6.1	win	2022-11-07	14:48:06	14:52:42	274735	5d847ac9be4b0b00188463d7	969558009	1	main_slash	7	advance_on_keypress_SLASH	66	stimuli_target_diamondsquares.svg	stimuli_distractor_diamondtriangles.svg	24	yes	57	0	467
6.6.1	win	2022-11-07	14:48:06	14:52:44	276282	5d847ac9be4b0b00188463d7	969558009	1	main_slash	7	main_slash	67	stimuli_distractor_trianglediamonds.svg	stimuli_target_trianglesquares.svg	26	yes	53	1	434
6.6.1	win	2022-11-07	14:48:06	14:52:44	276282	5d847ac9be4b0b00188463d7	969558009	1	main_slash	7	advance_on_keypress_SLASH	68	stimuli_distractor_trianglediamonds.svg	stimuli_target_trianglesquares.svg	26	yes	57	0	509
6.6.1	win	2022-11-07	14:48:06	14:52:47	279431	5d847ac9be4b0b00188463d7	969558009	1	main_slash	7	main_slash	69	stimuli_distractor_trianglediamonds.svg	stimuli_distractor_diamondtriangles.svg	36	no	0	1	2000
6.6.1	win	2022-11-07	14:48:06	14:52:47	279431	5d847ac9be4b0b00188463d7	969558009	1	main_slash	7	advance_on_keypress_SLASH	70	stimuli_distractor_trianglediamonds.svg	stimuli_distractor_diamondtriangles.svg	36	no	57	0	776
6.6.1	win	2022-11-07	14:48:06	14:52:50	282848	5d847ac9be4b0b00188463d7	969558009	1	main_slash	7	main_slash	71	stimuli_distractor_diamondtriangles.svg	stimuli_distractor_trianglediamonds.svg	37	no	0	1	2000
6.6.1	win	2022-11-07	14:48:06	14:52:50	282848	5d847ac9be4b0b00188463d7	969558009	1	main_slash	7	advance_on_keypress_SLASH	72	stimuli_distractor_diamondtriangles.svg	stimuli_distractor_trianglediamonds.svg	37	no	57	0	619
6.6.1	win	2022-11-07	14:48:06	14:52:52	284840	5d847ac9be4b0b00188463d7	969558009	1	main_slash	7	main_slash	73	stimuli_distractor_diamondtriangles.svg	stimuli_target_squaretriangles.svg	15	yes	53	1	726
6.6.1	win	2022-11-07	14:48:06	14:52:52	284840	5d847ac9be4b0b00188463d7	969558009	1	main_slash	7	advance_on_keypress_SLASH	74	stimuli_distractor_diamondtriangles.svg	stimuli_target_squaretriangles.svg	15	yes	57	0	545
6.6.1	win	2022-11-07	14:48:06	14:52:55	288014	5d847ac9be4b0b00188463d7	969558009	1	main_slash	7	main_slash	75	stimuli_distractor_trianglediamonds.svg	stimuli_distractor_trianglediamonds.svg	33	no	0	1	2000
6.6.1	win	2022-11-07	14:48:06	14:52:55	288014	5d847ac9be4b0b00188463d7	969558009	1	main_slash	7	advance_on_keypress_SLASH	76	stimuli_distractor_trianglediamonds.svg	stimuli_distractor_trianglediamonds.svg	33	no	57	0	690
6.6.1	win	2022-11-07	14:48:06	14:52:57	289881	5d847ac9be4b0b00188463d7	969558009	1	main_slash	7	main_slash	77	stimuli_target_circlediamonds.svg	stimuli_distractor_diamondtriangles.svg	6	yes	53	1	533
6.6.1	win	2022-11-07	14:48:06	14:52:57	289881	5d847ac9be4b0b00188463d7	969558009	1	main_slash	7	advance_on_keypress_SLASH	78	stimuli_target_circlediamonds.svg	stimuli_distractor_diamondtriangles.svg	6	yes	57	0	447
6.6.1	win	2022-11-07	14:48:06	14:52:59	291449	5d847ac9be4b0b00188463d7	969558009	1	main_slash	7	main_slash	79	stimuli_distractor_trianglediamonds.svg	stimuli_target_trianglecircles.svg	25	yes	53	1	484
6.6.1	win	2022-11-07	14:48:06	14:52:59	291449	5d847ac9be4b0b00188463d7	969558009	1	main_slash	7	advance_on_keypress_SLASH	80	stimuli_distractor_trianglediamonds.svg	stimuli_target_trianglecircles.svg	25	yes	57	0	401
6.6.1	win	2022-11-07	14:48:06	14:53:00	292929	5d847ac9be4b0b00188463d7	969558009	1	main_slash	7	main_slash	81	stimuli_target_squaretriangles.svg	stimuli_distractor_trianglediamonds.svg	3	yes	53	1	432
6.6.1	win	2022-11-07	14:48:06	14:53:00	292929	5d847ac9be4b0b00188463d7	969558009	1	main_slash	7	advance_on_keypress_SLASH	82	stimuli_target_squaretriangles.svg	stimuli_distractor_trianglediamonds.svg	3	yes	57	0	446
6.6.1	win	2022-11-07	14:48:06	14:53:02	294458	5d847ac9be4b0b00188463d7	969558009	1	main_slash	7	main_slash	83	stimuli_target_squarediamonds.svg	stimuli_distractor_trianglediamonds.svg	4	yes	53	1	443
6.6.1	win	2022-11-07	14:48:06	14:53:02	294458	5d847ac9be4b0b00188463d7	969558009	1	main_slash	7	advance_on_keypress_SLASH	84	stimuli_target_squarediamonds.svg	stimuli_distractor_trianglediamonds.svg	4	yes	57	0	441
6.6.1	win	2022-11-07	14:48:06	14:53:03	295946	5d847ac9be4b0b00188463d7	969558009	1	main_slash	7	main_slash	85	stimuli_distractor_trianglediamonds.svg	stimuli_target_circletriangles.svg	9	yes	53	1	415
6.6.1	win	2022-11-07	14:48:06	14:53:03	295946	5d847ac9be4b0b00188463d7	969558009	1	main_slash	7	advance_on_keypress_SLASH	86	stimuli_distractor_trianglediamonds.svg	stimuli_target_circletriangles.svg	9	yes	57	0	429
6.6.1	win	2022-11-07	14:48:06	14:53:06	299015	5d847ac9be4b0b00188463d7	969558009	1	main_slash	7	main_slash	87	stimuli_distractor_diamondtriangles.svg	stimuli_target_squarediamonds.svg	16	yes	0	0	2000
6.6.1	win	2022-11-07	14:48:06	14:53:06	299015	5d847ac9be4b0b00188463d7	969558009	1	main_slash	7	advance_on_keypress_SLASH	88	stimuli_distractor_diamondtriangles.svg	stimuli_target_squarediamonds.svg	16	yes	57	0	676
6.6.1	win	2022-11-07	14:48:06	14:53:08	300778	5d847ac9be4b0b00188463d7	969558009	1	main_slash	7	main_slash	89	stimuli_distractor_diamondtriangles.svg	stimuli_target_circletriangles.svg	13	yes	53	1	448
6.6.1	win	2022-11-07	14:48:06	14:53:08	300778	5d847ac9be4b0b00188463d7	969558009	1	main_slash	7	advance_on_keypress_SLASH	90	stimuli_distractor_diamondtriangles.svg	stimuli_target_circletriangles.svg	13	yes	57	0	463
6.6.1	win	2022-11-07	14:48:06	14:53:11	303864	5d847ac9be4b0b00188463d7	969558009	1	main_slash	7	main_slash	91	stimuli_distractor_diamondtriangles.svg	stimuli_distractor_trianglediamonds.svg	38	no	0	1	2000
6.6.1	win	2022-11-07	14:48:06	14:53:11	303864	5d847ac9be4b0b00188463d7	969558009	1	main_slash	7	advance_on_keypress_SLASH	92	stimuli_distractor_diamondtriangles.svg	stimuli_distractor_trianglediamonds.svg	38	no	57	0	514
6.6.1	win	2022-11-07	14:48:06	14:53:13	305676	5d847ac9be4b0b00188463d7	969558009	1	main_slash	7	main_slash	93	stimuli_target_diamondsquares.svg	stimuli_distractor_diamondtriangles.svg	24	yes	53	1	660
6.6.1	win	2022-11-07	14:48:06	14:53:13	305676	5d847ac9be4b0b00188463d7	969558009	1	main_slash	7	advance_on_keypress_SLASH	94	stimuli_target_diamondsquares.svg	stimuli_distractor_diamondtriangles.svg	24	yes	57	0	514
6.6.1	win	2022-11-07	14:48:06	14:53:15	307252	5d847ac9be4b0b00188463d7	969558009	1	main_slash	7	main_slash	95	stimuli_distractor_diamondtriangles.svg	stimuli_target_diamondcircles.svg	31	yes	53	1	437
6.6.1	win	2022-11-07	14:48:06	14:53:15	307252	5d847ac9be4b0b00188463d7	969558009	1	main_slash	7	advance_on_keypress_SLASH	96	stimuli_distractor_diamondtriangles.svg	stimuli_target_diamondcircles.svg	31	yes	57	0	443
6.6.1	win	2022-11-07	14:48:06	14:53:16	308811	5d847ac9be4b0b00188463d7	969558009	1	main_slash	7	main_slash	97	stimuli_distractor_trianglediamonds.svg	stimuli_target_squarediamonds.svg	12	yes	53	1	481
6.6.1	win	2022-11-07	14:48:06	14:53:16	308811	5d847ac9be4b0b00188463d7	969558009	1	main_slash	7	advance_on_keypress_SLASH	98	stimuli_distractor_trianglediamonds.svg	stimuli_target_squarediamonds.svg	12	yes	57	0	453
6.6.1	win	2022-11-07	14:48:06	14:53:18	310316	5d847ac9be4b0b00188463d7	969558009	1	main_slash	7	main_slash	99	stimuli_target_diamondcircles.svg	stimuli_distractor_trianglediamonds.svg	19	yes	53	1	418
6.6.1	win	2022-11-07	14:48:06	14:53:18	310316	5d847ac9be4b0b00188463d7	969558009	1	main_slash	7	advance_on_keypress_SLASH	100	stimuli_target_diamondcircles.svg	stimuli_distractor_trianglediamonds.svg	19	yes	57	0	410
6.6.1	win	2022-11-07	14:48:06	14:53:19	311788	5d847ac9be4b0b00188463d7	969558009	1	main_slash	7	main_slash	101	stimuli_target_trianglesquares.svg	stimuli_distractor_diamondtriangles.svg	22	yes	53	1	423
6.6.1	win	2022-11-07	14:48:06	14:53:19	311788	5d847ac9be4b0b00188463d7	969558009	1	main_slash	7	advance_on_keypress_SLASH	102	stimuli_target_trianglesquares.svg	stimuli_distractor_diamondtriangles.svg	22	yes	57	0	391
6.6.1	win	2022-11-07	14:48:06	14:53:21	313229	5d847ac9be4b0b00188463d7	969558009	1	main_slash	7	main_slash	103	stimuli_target_trianglecircles.svg	stimuli_distractor_diamondtriangles.svg	21	yes	53	1	414
6.6.1	win	2022-11-07	14:48:06	14:53:21	313229	5d847ac9be4b0b00188463d7	969558009	1	main_slash	7	advance_on_keypress_SLASH	104	stimuli_target_trianglecircles.svg	stimuli_distractor_diamondtriangles.svg	21	yes	57	0	422
6.6.1	win	2022-11-07	14:48:06	14:53:22	314780	5d847ac9be4b0b00188463d7	969558009	1	main_slash	7	main_slash	105	stimuli_distractor_trianglediamonds.svg	stimuli_target_trianglecircles.svg	25	yes	53	1	500
6.6.1	win	2022-11-07	14:48:06	14:53:22	314780	5d847ac9be4b0b00188463d7	969558009	1	main_slash	7	advance_on_keypress_SLASH	106	stimuli_distractor_trianglediamonds.svg	stimuli_target_trianglecircles.svg	25	yes	57	0	423
6.6.1	win	2022-11-07	14:48:06	14:53:24	316309	5d847ac9be4b0b00188463d7	969558009	1	main_slash	7	main_slash	107	stimuli_distractor_diamondtriangles.svg	stimuli_target_squaretriangles.svg	15	yes	53	1	461
6.6.1	win	2022-11-07	14:48:06	14:53:24	316309	5d847ac9be4b0b00188463d7	969558009	1	main_slash	7	advance_on_keypress_SLASH	108	stimuli_distractor_diamondtriangles.svg	stimuli_target_squaretriangles.svg	15	yes	57	0	2530
6.6.1	win	2022-11-07	14:48:06	14:53:27	319981	5d847ac9be4b0b00188463d7	969558009	1	main_slash	7	main_slash	109	stimuli_target_circlediamonds.svg	stimuli_distractor_trianglediamonds.svg	2	yes	53	1	501
6.6.1	win	2022-11-07	14:48:06	14:53:27	319981	5d847ac9be4b0b00188463d7	969558009	1	main_slash	7	advance_on_keypress_SLASH	110	stimuli_target_circlediamonds.svg	stimuli_distractor_trianglediamonds.svg	2	yes	57	0	495
6.6.1	win	2022-11-07	14:48:06	14:53:31	323114	5d847ac9be4b0b00188463d7	969558009	1	main_slash	7	main_slash	111	stimuli_distractor_trianglediamonds.svg	stimuli_distractor_diamondtriangles.svg	35	no	0	1	2000
6.6.1	win	2022-11-07	14:48:06	14:53:31	323114	5d847ac9be4b0b00188463d7	969558009	1	main_slash	7	advance_on_keypress_SLASH	112	stimuli_distractor_trianglediamonds.svg	stimuli_distractor_diamondtriangles.svg	35	no	57	0	883
6.6.1	win	2022-11-07	14:48:06	14:53:33	325126	5d847ac9be4b0b00188463d7	969558009	1	main_slash	7	main_slash	113	stimuli_distractor_trianglediamonds.svg	stimuli_target_diamondcircles.svg	27	yes	53	1	478
6.6.1	win	2022-11-07	14:48:06	14:53:33	325126	5d847ac9be4b0b00188463d7	969558009	1	main_slash	7	advance_on_keypress_SLASH	114	stimuli_distractor_trianglediamonds.svg	stimuli_target_diamondcircles.svg	27	yes	57	0	411
6.6.1	win	2022-11-07	14:48:06	14:53:34	326630	5d847ac9be4b0b00188463d7	969558009	1	main_slash	7	main_slash	115	stimuli_distractor_diamondtriangles.svg	stimuli_target_diamondsquares.svg	32	yes	53	1	465
6.6.1	win	2022-11-07	14:48:06	14:53:34	326630	5d847ac9be4b0b00188463d7	969558009	1	main_slash	7	advance_on_keypress_SLASH	116	stimuli_distractor_diamondtriangles.svg	stimuli_target_diamondsquares.svg	32	yes	57	0	407
6.6.1	win	2022-11-07	14:48:06	14:53:36	328214	5d847ac9be4b0b00188463d7	969558009	1	main_slash	7	main_slash	117	stimuli_target_circletriangles.svg	stimuli_distractor_diamondtriangles.svg	5	yes	53	1	534
6.6.1	win	2022-11-07	14:48:06	14:53:36	328214	5d847ac9be4b0b00188463d7	969558009	1	main_slash	7	advance_on_keypress_SLASH	118	stimuli_target_circletriangles.svg	stimuli_distractor_diamondtriangles.svg	5	yes	57	0	416
6.6.1	win	2022-11-07	14:48:06	14:53:37	329775	5d847ac9be4b0b00188463d7	969558009	1	main_slash	7	main_slash	119	stimuli_target_circletriangles.svg	stimuli_distractor_trianglediamonds.svg	1	yes	53	1	493
6.6.1	win	2022-11-07	14:48:06	14:53:37	329775	5d847ac9be4b0b00188463d7	969558009	1	main_slash	7	advance_on_keypress_SLASH	120	stimuli_target_circletriangles.svg	stimuli_distractor_trianglediamonds.svg	1	yes	57	0	458
6.6.1	win	2022-11-07	14:48:06	14:53:39	331295	5d847ac9be4b0b00188463d7	969558009	1	main_slash	7	main_slash	121	stimuli_target_diamondcircles.svg	stimuli_distractor_diamondtriangles.svg	23	yes	53	1	430
6.6.1	win	2022-11-07	14:48:06	14:53:39	331295	5d847ac9be4b0b00188463d7	969558009	1	main_slash	7	advance_on_keypress_SLASH	122	stimuli_target_diamondcircles.svg	stimuli_distractor_diamondtriangles.svg	23	yes	57	0	437
6.6.1	win	2022-11-07	14:48:06	14:53:40	332927	5d847ac9be4b0b00188463d7	969558009	1	main_slash	7	main_slash	123	stimuli_distractor_diamondtriangles.svg	stimuli_target_circlediamonds.svg	14	yes	53	1	562
6.6.1	win	2022-11-07	14:48:06	14:53:40	332927	5d847ac9be4b0b00188463d7	969558009	1	main_slash	7	advance_on_keypress_SLASH	124	stimuli_distractor_diamondtriangles.svg	stimuli_target_circlediamonds.svg	14	yes	57	0	404
6.6.1	win	2022-11-07	14:48:06	14:53:43	335964	5d847ac9be4b0b00188463d7	969558009	1	main_slash	7	main_slash	125	stimuli_distractor_diamondtriangles.svg	stimuli_distractor_diamondtriangles.svg	39	no	0	1	2000
6.6.1	win	2022-11-07	14:48:06	14:53:43	335964	5d847ac9be4b0b00188463d7	969558009	1	main_slash	7	advance_on_keypress_SLASH	126	stimuli_distractor_diamondtriangles.svg	stimuli_distractor_diamondtriangles.svg	39	no	57	0	811
6.6.1	win	2022-11-07	14:48:06	14:53:45	337798	5d847ac9be4b0b00188463d7	969558009	1	main_slash	7	main_slash	127	stimuli_distractor_trianglediamonds.svg	stimuli_target_trianglesquares.svg	26	yes	53	1	369
6.6.1	win	2022-11-07	14:48:06	14:53:45	337798	5d847ac9be4b0b00188463d7	969558009	1	main_slash	7	advance_on_keypress_SLASH	128	stimuli_distractor_trianglediamonds.svg	stimuli_target_trianglesquares.svg	26	yes	57	0	417
6.6.1	win	2022-11-07	14:48:06	14:53:48	340865	5d847ac9be4b0b00188463d7	969558009	1	main_slash	7	main_slash	129	stimuli_distractor_diamondtriangles.svg	stimuli_distractor_diamondtriangles.svg	40	no	0	1	2000
6.6.1	win	2022-11-07	14:48:06	14:53:48	340865	5d847ac9be4b0b00188463d7	969558009	1	main_slash	7	advance_on_keypress_SLASH	130	stimuli_distractor_diamondtriangles.svg	stimuli_distractor_diamondtriangles.svg	40	no	57	0	678
6.6.1	win	2022-11-07	14:48:06	14:53:50	342617	5d847ac9be4b0b00188463d7	969558009	1	main_slash	7	main_slash	131	stimuli_distractor_trianglediamonds.svg	stimuli_target_diamondsquares.svg	28	yes	53	1	436
6.6.1	win	2022-11-07	14:48:06	14:53:50	342617	5d847ac9be4b0b00188463d7	969558009	1	main_slash	7	advance_on_keypress_SLASH	132	stimuli_distractor_trianglediamonds.svg	stimuli_target_diamondsquares.svg	28	yes	57	0	402
6.6.1	win	2022-11-07	14:48:06	14:53:53	345665	5d847ac9be4b0b00188463d7	969558009	1	main_slash	7	main_slash	133	stimuli_distractor_trianglediamonds.svg	stimuli_distractor_trianglediamonds.svg	34	no	0	1	2000
6.6.1	win	2022-11-07	14:48:06	14:53:53	345665	5d847ac9be4b0b00188463d7	969558009	1	main_slash	7	advance_on_keypress_SLASH	134	stimuli_distractor_trianglediamonds.svg	stimuli_distractor_trianglediamonds.svg	34	no	57	0	551
6.6.1	win	2022-11-07	14:48:06	14:53:55	347345	5d847ac9be4b0b00188463d7	969558009	1	main_slash	7	main_slash	135	stimuli_target_squaretriangles.svg	stimuli_distractor_diamondtriangles.svg	7	yes	53	1	480
6.6.1	win	2022-11-07	14:48:06	14:53:55	347345	5d847ac9be4b0b00188463d7	969558009	1	main_slash	7	advance_on_keypress_SLASH	136	stimuli_target_squaretriangles.svg	stimuli_distractor_diamondtriangles.svg	7	yes	57	0	389
6.6.1	win	2022-11-07	14:48:06	14:53:56	348833	5d847ac9be4b0b00188463d7	969558009	1	main_slash	7	main_slash	137	stimuli_distractor_trianglediamonds.svg	stimuli_target_squaretriangles.svg	11	yes	53	1	468
6.6.1	win	2022-11-07	14:48:06	14:53:56	348833	5d847ac9be4b0b00188463d7	969558009	1	main_slash	7	advance_on_keypress_SLASH	138	stimuli_distractor_trianglediamonds.svg	stimuli_target_squaretriangles.svg	11	yes	57	0	497
6.6.1	win	2022-11-07	14:48:06	14:53:58	350505	5d847ac9be4b0b00188463d7	969558009	1	main_slash	7	main_slash	139	stimuli_distractor_trianglediamonds.svg	stimuli_distractor_diamondtriangles.svg	36	no	53	0	541
6.6.1	win	2022-11-07	14:48:06	14:53:58	350505	5d847ac9be4b0b00188463d7	969558009	1	main_slash	7	advance_on_keypress_SLASH	140	stimuli_distractor_trianglediamonds.svg	stimuli_distractor_diamondtriangles.svg	36	no	57	0	951
6.6.1	win	2022-11-07	14:48:06	14:54:00	352538	5d847ac9be4b0b00188463d7	969558009	1	main_slash	7	main_slash	141	stimuli_distractor_diamondtriangles.svg	stimuli_target_trianglecircles.svg	29	yes	53	1	440
6.6.1	win	2022-11-07	14:48:06	14:54:00	352538	5d847ac9be4b0b00188463d7	969558009	1	main_slash	7	advance_on_keypress_SLASH	142	stimuli_distractor_diamondtriangles.svg	stimuli_target_trianglecircles.svg	29	yes	57	0	478
6.6.1	win	2022-11-07	14:48:06	14:54:02	354490	5d847ac9be4b0b00188463d7	969558009	1	main_slash	7	main_slash	143	stimuli_target_squarediamonds.svg	stimuli_distractor_diamondtriangles.svg	8	yes	53	1	842
6.6.1	win	2022-11-07	14:48:06	14:54:02	354490	5d847ac9be4b0b00188463d7	969558009	1	main_slash	7	advance_on_keypress_SLASH	144	stimuli_target_squarediamonds.svg	stimuli_distractor_diamondtriangles.svg	8	yes	57	0	536
6.6.1	win	2022-11-07	14:48:06	14:54:05	357665	5d847ac9be4b0b00188463d7	969558009	1	main_slash	7	main_slash	145	stimuli_target_diamondsquares.svg	stimuli_distractor_trianglediamonds.svg	20	yes	0	0	2000
6.6.1	win	2022-11-07	14:48:06	14:54:05	357665	5d847ac9be4b0b00188463d7	969558009	1	main_slash	7	advance_on_keypress_SLASH	146	stimuli_target_diamondsquares.svg	stimuli_distractor_trianglediamonds.svg	20	yes	57	0	2009
6.6.1	win	2022-11-07	14:48:06	14:54:08	360747	5d847ac9be4b0b00188463d7	969558009	1	main_slash	7	main_slash	147	stimuli_distractor_trianglediamonds.svg	stimuli_target_circlediamonds.svg	10	yes	53	1	432
6.6.1	win	2022-11-07	14:48:06	14:54:08	360747	5d847ac9be4b0b00188463d7	969558009	1	main_slash	7	advance_on_keypress_SLASH	148	stimuli_distractor_trianglediamonds.svg	stimuli_target_circlediamonds.svg	10	yes	57	0	454
6.6.1	win	2022-11-07	14:48:06	14:54:10	362254	5d847ac9be4b0b00188463d7	969558009	1	main_slash	7	main_slash	149	stimuli_target_circlediamonds.svg	stimuli_distractor_diamondtriangles.svg	6	yes	53	1	407
6.6.1	win	2022-11-07	14:48:06	14:54:10	362254	5d847ac9be4b0b00188463d7	969558009	1	main_slash	7	advance_on_keypress_SLASH	150	stimuli_target_circlediamonds.svg	stimuli_distractor_diamondtriangles.svg	6	yes	57	0	442
6.6.1	win	2022-11-07	14:48:06	14:54:13	365331	5d847ac9be4b0b00188463d7	969558009	1	main_slash	7	main_slash	151	stimuli_distractor_diamondtriangles.svg	stimuli_distractor_trianglediamonds.svg	37	no	0	1	2000
6.6.1	win	2022-11-07	14:48:06	14:54:13	365331	5d847ac9be4b0b00188463d7	969558009	1	main_slash	7	advance_on_keypress_SLASH	152	stimuli_distractor_diamondtriangles.svg	stimuli_distractor_trianglediamonds.svg	37	no	57	0	688
6.6.1	win	2022-11-07	14:48:06	14:54:16	368665	5d847ac9be4b0b00188463d7	969558009	1	main_slash	7	main_slash	153	stimuli_distractor_trianglediamonds.svg	stimuli_distractor_trianglediamonds.svg	33	no	0	1	2000
6.6.1	win	2022-11-07	14:48:06	14:54:16	368665	5d847ac9be4b0b00188463d7	969558009	1	main_slash	7	advance_on_keypress_SLASH	154	stimuli_distractor_trianglediamonds.svg	stimuli_distractor_trianglediamonds.svg	33	no	57	0	754
6.6.1	win	2022-11-07	14:48:06	14:54:18	370533	5d847ac9be4b0b00188463d7	969558009	1	main_slash	7	main_slash	155	stimuli_target_trianglesquares.svg	stimuli_distractor_trianglediamonds.svg	18	yes	53	1	468
6.6.1	win	2022-11-07	14:48:06	14:54:18	370533	5d847ac9be4b0b00188463d7	969558009	1	main_slash	7	advance_on_keypress_SLASH	156	stimuli_target_trianglesquares.svg	stimuli_distractor_trianglediamonds.svg	18	yes	57	0	440
6.6.1	win	2022-11-07	14:48:06	14:54:19	372037	5d847ac9be4b0b00188463d7	969558009	1	main_slash	7	main_slash	157	stimuli_distractor_diamondtriangles.svg	stimuli_target_trianglesquares.svg	30	yes	53	1	422
6.6.1	win	2022-11-07	14:48:06	14:54:19	372037	5d847ac9be4b0b00188463d7	969558009	1	main_slash	7	advance_on_keypress_SLASH	158	stimuli_distractor_diamondtriangles.svg	stimuli_target_trianglesquares.svg	30	yes	57	0	589
6.6.1	win	2022-11-07	14:48:06	14:54:21	373741	5d847ac9be4b0b00188463d7	969558009	1	main_slash	7	main_slash	159	stimuli_target_trianglecircles.svg	stimuli_distractor_trianglediamonds.svg	17	yes	53	1	476
6.6.1	win	2022-11-07	14:48:06	14:54:21	373741	5d847ac9be4b0b00188463d7	969558009	1	main_slash	7	advance_on_keypress_SLASH	160	stimuli_target_trianglecircles.svg	stimuli_distractor_trianglediamonds.svg	17	yes	57	0	425
6.6.1	win	2022-11-07	14:48:06	14:54:58	410232	5d847ac9be4b0b00188463d7	969558009	1	practice_z	9	practice_z	1	stimuli_distractor_trianglediamonds.svg	stimuli_distractor_trianglediamonds.svg	15	no	0	1	2000
6.6.1	win	2022-11-07	14:48:06	14:54:58	410232	5d847ac9be4b0b00188463d7	969558009	1	practice_z	9	advance_on_keypress_ZEE	2	stimuli_distractor_trianglediamonds.svg	stimuli_distractor_trianglediamonds.svg	15	no	57	0	850
6.6.1	win	2022-11-07	14:48:06	14:55:01	413162	5d847ac9be4b0b00188463d7	969558009	1	practice_z	9	practice_z	3	stimuli_target_circlediamonds.svg	stimuli_distractor_diamondtriangles.svg	1	yes	44	1	430
6.6.1	win	2022-11-07	14:48:06	14:55:01	413162	5d847ac9be4b0b00188463d7	969558009	1	practice_z	9	advance_on_keypress_ZEE	4	stimuli_target_circlediamonds.svg	stimuli_distractor_diamondtriangles.svg	1	yes	57	0	374
6.6.1	win	2022-11-07	14:48:06	14:55:03	415605	5d847ac9be4b0b00188463d7	969558009	1	practice_z	9	practice_z	5	stimuli_distractor_trianglediamonds.svg	stimuli_target_circlediamonds.svg	10	yes	44	1	439
6.6.1	win	2022-11-07	14:48:06	14:55:03	415605	5d847ac9be4b0b00188463d7	969558009	1	practice_z	9	advance_on_keypress_ZEE	6	stimuli_distractor_trianglediamonds.svg	stimuli_target_circlediamonds.svg	10	yes	57	0	324
6.6.1	win	2022-11-07	14:48:06	14:55:07	419565	5d847ac9be4b0b00188463d7	969558009	1	practice_z	9	practice_z	7	stimuli_distractor_trianglediamonds.svg	stimuli_distractor_diamondtriangles.svg	16	no	0	1	2000
6.6.1	win	2022-11-07	14:48:06	14:55:07	419565	5d847ac9be4b0b00188463d7	969558009	1	practice_z	9	advance_on_keypress_ZEE	8	stimuli_distractor_trianglediamonds.svg	stimuli_distractor_diamondtriangles.svg	16	no	57	0	517
6.6.1	win	2022-11-07	14:48:06	14:55:10	422196	5d847ac9be4b0b00188463d7	969558009	1	practice_z	9	practice_z	9	stimuli_distractor_diamondtriangles.svg	stimuli_target_trianglecircles.svg	9	yes	44	1	463
6.6.1	win	2022-11-07	14:48:06	14:55:10	422196	5d847ac9be4b0b00188463d7	969558009	1	practice_z	9	advance_on_keypress_ZEE	10	stimuli_distractor_diamondtriangles.svg	stimuli_target_trianglecircles.svg	9	yes	57	0	358
6.6.1	win	2022-11-07	14:48:06	14:55:12	424661	5d847ac9be4b0b00188463d7	969558009	1	practice_z	9	practice_z	11	stimuli_distractor_trianglediamonds.svg	stimuli_target_squarediamonds.svg	11	yes	44	1	478
6.6.1	win	2022-11-07	14:48:06	14:55:12	424661	5d847ac9be4b0b00188463d7	969558009	1	practice_z	9	advance_on_keypress_ZEE	12	stimuli_distractor_trianglediamonds.svg	stimuli_target_squarediamonds.svg	11	yes	57	0	379
6.6.1	win	2022-11-07	14:48:06	14:55:15	427133	5d847ac9be4b0b00188463d7	969558009	1	practice_z	9	practice_z	13	stimuli_distractor_trianglediamonds.svg	stimuli_target_diamondcircles.svg	12	yes	44	1	450
6.6.1	win	2022-11-07	14:48:06	14:55:15	427133	5d847ac9be4b0b00188463d7	969558009	1	practice_z	9	advance_on_keypress_ZEE	14	stimuli_distractor_trianglediamonds.svg	stimuli_target_diamondcircles.svg	12	yes	57	0	379
6.6.1	win	2022-11-07	14:48:06	14:55:17	429605	5d847ac9be4b0b00188463d7	969558009	1	practice_z	9	practice_z	15	stimuli_target_diamondsquares.svg	stimuli_distractor_trianglediamonds.svg	6	yes	44	1	440
6.6.1	win	2022-11-07	14:48:06	14:55:17	429605	5d847ac9be4b0b00188463d7	969558009	1	practice_z	9	advance_on_keypress_ZEE	16	stimuli_target_diamondsquares.svg	stimuli_distractor_trianglediamonds.svg	6	yes	57	0	374
6.6.1	win	2022-11-07	14:48:06	14:55:19	431998	5d847ac9be4b0b00188463d7	969558009	1	practice_z	9	practice_z	17	stimuli_target_squarediamonds.svg	stimuli_distractor_trianglediamonds.svg	5	yes	44	1	382
6.6.1	win	2022-11-07	14:48:06	14:55:19	431998	5d847ac9be4b0b00188463d7	969558009	1	practice_z	9	advance_on_keypress_ZEE	18	stimuli_target_squarediamonds.svg	stimuli_distractor_trianglediamonds.svg	5	yes	57	0	374
6.6.1	win	2022-11-07	14:48:06	14:55:22	434341	5d847ac9be4b0b00188463d7	969558009	1	practice_z	9	practice_z	19	stimuli_target_squarediamonds.svg	stimuli_distractor_diamondtriangles.svg	2	yes	44	1	326
6.6.1	win	2022-11-07	14:48:06	14:55:22	434341	5d847ac9be4b0b00188463d7	969558009	1	practice_z	9	advance_on_keypress_ZEE	20	stimuli_target_squarediamonds.svg	stimuli_distractor_diamondtriangles.svg	2	yes	57	0	321
6.6.1	win	2022-11-07	14:48:06	14:55:24	436726	5d847ac9be4b0b00188463d7	969558009	1	practice_z	9	practice_z	21	stimuli_distractor_diamondtriangles.svg	stimuli_target_diamondcircles.svg	8	yes	44	1	427
6.6.1	win	2022-11-07	14:48:06	14:55:24	436726	5d847ac9be4b0b00188463d7	969558009	1	practice_z	9	advance_on_keypress_ZEE	22	stimuli_distractor_diamondtriangles.svg	stimuli_target_diamondcircles.svg	8	yes	57	0	394
6.6.1	win	2022-11-07	14:48:06	14:55:27	439091	5d847ac9be4b0b00188463d7	969558009	1	practice_z	9	practice_z	23	stimuli_target_circlediamonds.svg	stimuli_distractor_trianglediamonds.svg	4	yes	44	1	342
6.6.1	win	2022-11-07	14:48:06	14:55:27	439091	5d847ac9be4b0b00188463d7	969558009	1	practice_z	9	advance_on_keypress_ZEE	24	stimuli_target_circlediamonds.svg	stimuli_distractor_trianglediamonds.svg	4	yes	57	0	276
6.6.1	win	2022-11-07	14:48:06	14:55:30	442999	5d847ac9be4b0b00188463d7	969558009	1	practice_z	9	practice_z	25	stimuli_distractor_diamondtriangles.svg	stimuli_distractor_diamondtriangles.svg	13	no	0	1	2000
6.6.1	win	2022-11-07	14:48:06	14:55:30	442999	5d847ac9be4b0b00188463d7	969558009	1	practice_z	9	advance_on_keypress_ZEE	26	stimuli_distractor_diamondtriangles.svg	stimuli_distractor_diamondtriangles.svg	13	no	57	0	495
6.6.1	win	2022-11-07	14:48:06	14:55:33	445615	5d847ac9be4b0b00188463d7	969558009	1	practice_z	9	practice_z	27	stimuli_distractor_diamondtriangles.svg	stimuli_target_circletriangles.svg	7	yes	44	1	467
6.6.1	win	2022-11-07	14:48:06	14:55:33	445615	5d847ac9be4b0b00188463d7	969558009	1	practice_z	9	advance_on_keypress_ZEE	28	stimuli_distractor_diamondtriangles.svg	stimuli_target_circletriangles.svg	7	yes	57	0	391
6.6.1	win	2022-11-07	14:48:06	14:55:36	448138	5d847ac9be4b0b00188463d7	969558009	1	practice_z	9	practice_z	29	stimuli_target_diamondsquares.svg	stimuli_distractor_diamondtriangles.svg	3	yes	44	1	489
6.6.1	win	2022-11-07	14:48:06	14:55:36	448138	5d847ac9be4b0b00188463d7	969558009	1	practice_z	9	advance_on_keypress_ZEE	30	stimuli_target_diamondsquares.svg	stimuli_distractor_diamondtriangles.svg	3	yes	57	0	419
6.6.1	win	2022-11-07	14:48:06	14:55:40	452199	5d847ac9be4b0b00188463d7	969558009	1	practice_z	9	practice_z	31	stimuli_distractor_diamondtriangles.svg	stimuli_distractor_trianglediamonds.svg	14	no	0	1	2000
6.6.1	win	2022-11-07	14:48:06	14:55:40	452199	5d847ac9be4b0b00188463d7	969558009	1	practice_z	9	advance_on_keypress_ZEE	32	stimuli_distractor_diamondtriangles.svg	stimuli_distractor_trianglediamonds.svg	14	no	57	0	369
6.6.1	win	2022-11-07	14:48:06	14:55:47	460065	5d847ac9be4b0b00188463d7	969558009	1	main_z	11	main_z	1	stimuli_distractor_trianglediamonds.svg	stimuli_distractor_diamondtriangles.svg	35	no	0	1	2000
6.6.1	win	2022-11-07	14:48:06	14:55:47	460065	5d847ac9be4b0b00188463d7	969558009	1	main_z	11	advance_on_keypress_ZEE	2	stimuli_distractor_trianglediamonds.svg	stimuli_distractor_diamondtriangles.svg	35	no	57	0	447
6.6.1	win	2022-11-07	14:48:06	14:55:49	461673	5d847ac9be4b0b00188463d7	969558009	1	main_z	11	main_z	3	stimuli_target_diamondsquares.svg	stimuli_distractor_trianglediamonds.svg	20	yes	44	1	525
6.6.1	win	2022-11-07	14:48:06	14:55:49	461673	5d847ac9be4b0b00188463d7	969558009	1	main_z	11	advance_on_keypress_ZEE	4	stimuli_target_diamondsquares.svg	stimuli_distractor_trianglediamonds.svg	20	yes	57	0	583
6.6.1	win	2022-11-07	14:48:06	14:55:51	463369	5d847ac9be4b0b00188463d7	969558009	1	main_z	11	main_z	5	stimuli_distractor_diamondtriangles.svg	stimuli_target_trianglecircles.svg	29	yes	44	1	471
6.6.1	win	2022-11-07	14:48:06	14:55:51	463369	5d847ac9be4b0b00188463d7	969558009	1	main_z	11	advance_on_keypress_ZEE	6	stimuli_distractor_diamondtriangles.svg	stimuli_target_trianglecircles.svg	29	yes	57	0	563
6.6.1	win	2022-11-07	14:48:06	14:55:54	466565	5d847ac9be4b0b00188463d7	969558009	1	main_z	11	main_z	7	stimuli_distractor_diamondtriangles.svg	stimuli_distractor_diamondtriangles.svg	39	no	0	1	2000
6.6.1	win	2022-11-07	14:48:06	14:55:54	466565	5d847ac9be4b0b00188463d7	969558009	1	main_z	11	advance_on_keypress_ZEE	8	stimuli_distractor_diamondtriangles.svg	stimuli_distractor_diamondtriangles.svg	39	no	57	0	780
6.6.1	win	2022-11-07	14:48:06	14:55:56	468778	5d847ac9be4b0b00188463d7	969558009	1	main_z	11	main_z	9	stimuli_distractor_diamondtriangles.svg	stimuli_target_circlediamonds.svg	14	yes	44	1	796
6.6.1	win	2022-11-07	14:48:06	14:55:56	468778	5d847ac9be4b0b00188463d7	969558009	1	main_z	11	advance_on_keypress_ZEE	10	stimuli_distractor_diamondtriangles.svg	stimuli_target_circlediamonds.svg	14	yes	57	0	508
6.6.1	win	2022-11-07	14:48:06	14:55:58	470371	5d847ac9be4b0b00188463d7	969558009	1	main_z	11	main_z	11	stimuli_distractor_trianglediamonds.svg	stimuli_target_diamondcircles.svg	27	yes	44	1	456
6.6.1	win	2022-11-07	14:48:06	14:55:58	470371	5d847ac9be4b0b00188463d7	969558009	1	main_z	11	advance_on_keypress_ZEE	12	stimuli_distractor_trianglediamonds.svg	stimuli_target_diamondcircles.svg	27	yes	57	0	556
6.6.1	win	2022-11-07	14:48:06	14:55:59	472018	5d847ac9be4b0b00188463d7	969558009	1	main_z	11	main_z	13	stimuli_target_squaretriangles.svg	stimuli_distractor_trianglediamonds.svg	3	yes	44	1	453
6.6.1	win	2022-11-07	14:48:06	14:55:59	472018	5d847ac9be4b0b00188463d7	969558009	1	main_z	11	advance_on_keypress_ZEE	14	stimuli_target_squaretriangles.svg	stimuli_distractor_trianglediamonds.svg	3	yes	57	0	442
6.6.1	win	2022-11-07	14:48:06	14:56:01	473615	5d847ac9be4b0b00188463d7	969558009	1	main_z	11	main_z	15	stimuli_target_trianglesquares.svg	stimuli_distractor_trianglediamonds.svg	18	yes	44	1	506
6.6.1	win	2022-11-07	14:48:06	14:56:01	473615	5d847ac9be4b0b00188463d7	969558009	1	main_z	11	advance_on_keypress_ZEE	16	stimuli_target_trianglesquares.svg	stimuli_distractor_trianglediamonds.svg	18	yes	57	0	459
6.6.1	win	2022-11-07	14:48:06	14:56:03	475162	5d847ac9be4b0b00188463d7	969558009	1	main_z	11	main_z	17	stimuli_distractor_diamondtriangles.svg	stimuli_target_diamondsquares.svg	32	yes	44	1	448
6.6.1	win	2022-11-07	14:48:06	14:56:03	475162	5d847ac9be4b0b00188463d7	969558009	1	main_z	11	advance_on_keypress_ZEE	18	stimuli_distractor_diamondtriangles.svg	stimuli_target_diamondsquares.svg	32	yes	57	0	542
6.6.1	win	2022-11-07	14:48:06	14:56:04	476803	5d847ac9be4b0b00188463d7	969558009	1	main_z	11	main_z	19	stimuli_distractor_diamondtriangles.svg	stimuli_target_diamondcircles.svg	31	yes	44	1	471
6.6.1	win	2022-11-07	14:48:06	14:56:04	476803	5d847ac9be4b0b00188463d7	969558009	1	main_z	11	advance_on_keypress_ZEE	20	stimuli_distractor_diamondtriangles.svg	stimuli_target_diamondcircles.svg	31	yes	57	0	436
6.6.1	win	2022-11-07	14:48:06	14:56:06	478443	5d847ac9be4b0b00188463d7	969558009	1	main_z	11	main_z	21	stimuli_distractor_trianglediamonds.svg	stimuli_target_circletriangles.svg	9	yes	44	1	561
6.6.1	win	2022-11-07	14:48:06	14:56:06	478443	5d847ac9be4b0b00188463d7	969558009	1	main_z	11	advance_on_keypress_ZEE	22	stimuli_distractor_trianglediamonds.svg	stimuli_target_circletriangles.svg	9	yes	57	0	453
6.6.1	win	2022-11-07	14:48:06	14:56:07	479965	5d847ac9be4b0b00188463d7	969558009	1	main_z	11	main_z	23	stimuli_distractor_trianglediamonds.svg	stimuli_target_squaretriangles.svg	11	yes	44	1	433
6.6.1	win	2022-11-07	14:48:06	14:56:07	479965	5d847ac9be4b0b00188463d7	969558009	1	main_z	11	advance_on_keypress_ZEE	24	stimuli_distractor_trianglediamonds.svg	stimuli_target_squaretriangles.svg	11	yes	57	0	470
6.6.1	win	2022-11-07	14:48:06	14:56:09	481543	5d847ac9be4b0b00188463d7	969558009	1	main_z	11	main_z	25	stimuli_target_diamondcircles.svg	stimuli_distractor_diamondtriangles.svg	23	yes	44	1	460
6.6.1	win	2022-11-07	14:48:06	14:56:09	481543	5d847ac9be4b0b00188463d7	969558009	1	main_z	11	advance_on_keypress_ZEE	26	stimuli_target_diamondcircles.svg	stimuli_distractor_diamondtriangles.svg	23	yes	57	0	471
6.6.1	win	2022-11-07	14:48:06	14:56:10	483061	5d847ac9be4b0b00188463d7	969558009	1	main_z	11	main_z	27	stimuli_target_circletriangles.svg	stimuli_distractor_diamondtriangles.svg	5	yes	44	1	412
6.6.1	win	2022-11-07	14:48:06	14:56:10	483061	5d847ac9be4b0b00188463d7	969558009	1	main_z	11	advance_on_keypress_ZEE	28	stimuli_target_circletriangles.svg	stimuli_distractor_diamondtriangles.svg	5	yes	57	0	443
6.6.1	win	2022-11-07	14:48:06	14:56:12	484493	5d847ac9be4b0b00188463d7	969558009	1	main_z	11	main_z	29	stimuli_target_squaretriangles.svg	stimuli_distractor_diamondtriangles.svg	7	yes	44	1	360
6.6.1	win	2022-11-07	14:48:06	14:56:12	484493	5d847ac9be4b0b00188463d7	969558009	1	main_z	11	advance_on_keypress_ZEE	30	stimuli_target_squaretriangles.svg	stimuli_distractor_diamondtriangles.svg	7	yes	57	0	386
6.6.1	win	2022-11-07	14:48:06	14:56:13	485869	5d847ac9be4b0b00188463d7	969558009	1	main_z	11	main_z	31	stimuli_distractor_trianglediamonds.svg	stimuli_target_trianglesquares.svg	26	yes	44	1	354
6.6.1	win	2022-11-07	14:48:06	14:56:13	485869	5d847ac9be4b0b00188463d7	969558009	1	main_z	11	advance_on_keypress_ZEE	32	stimuli_distractor_trianglediamonds.svg	stimuli_target_trianglesquares.svg	26	yes	57	0	371
6.6.1	win	2022-11-07	14:48:06	14:56:16	488882	5d847ac9be4b0b00188463d7	969558009	1	main_z	11	main_z	33	stimuli_distractor_trianglediamonds.svg	stimuli_distractor_trianglediamonds.svg	33	no	0	1	2000
6.6.1	win	2022-11-07	14:48:06	14:56:16	488882	5d847ac9be4b0b00188463d7	969558009	1	main_z	11	advance_on_keypress_ZEE	34	stimuli_distractor_trianglediamonds.svg	stimuli_distractor_trianglediamonds.svg	33	no	57	0	730
6.6.1	win	2022-11-07	14:48:06	14:56:18	490677	5d847ac9be4b0b00188463d7	969558009	1	main_z	11	main_z	35	stimuli_distractor_trianglediamonds.svg	stimuli_target_circlediamonds.svg	10	yes	44	1	428
6.6.1	win	2022-11-07	14:48:06	14:56:18	490677	5d847ac9be4b0b00188463d7	969558009	1	main_z	11	advance_on_keypress_ZEE	36	stimuli_distractor_trianglediamonds.svg	stimuli_target_circlediamonds.svg	10	yes	57	0	379
6.6.1	win	2022-11-07	14:48:06	14:56:19	492065	5d847ac9be4b0b00188463d7	969558009	1	main_z	11	main_z	37	stimuli_target_circletriangles.svg	stimuli_distractor_trianglediamonds.svg	1	yes	44	1	379
6.6.1	win	2022-11-07	14:48:06	14:56:19	492065	5d847ac9be4b0b00188463d7	969558009	1	main_z	11	advance_on_keypress_ZEE	38	stimuli_target_circletriangles.svg	stimuli_distractor_trianglediamonds.svg	1	yes	57	0	347
6.6.1	win	2022-11-07	14:48:06	14:56:21	493413	5d847ac9be4b0b00188463d7	969558009	1	main_z	11	main_z	39	stimuli_target_squarediamonds.svg	stimuli_distractor_diamondtriangles.svg	8	yes	44	1	364
6.6.1	win	2022-11-07	14:48:06	14:56:21	493413	5d847ac9be4b0b00188463d7	969558009	1	main_z	11	advance_on_keypress_ZEE	40	stimuli_target_squarediamonds.svg	stimuli_distractor_diamondtriangles.svg	8	yes	57	0	318
6.6.1	win	2022-11-07	14:48:06	14:56:22	494797	5d847ac9be4b0b00188463d7	969558009	1	main_z	11	main_z	41	stimuli_target_trianglesquares.svg	stimuli_distractor_diamondtriangles.svg	22	yes	44	1	432
6.6.1	win	2022-11-07	14:48:06	14:56:22	494797	5d847ac9be4b0b00188463d7	969558009	1	main_z	11	advance_on_keypress_ZEE	42	stimuli_target_trianglesquares.svg	stimuli_distractor_diamondtriangles.svg	22	yes	57	0	303
6.6.1	win	2022-11-07	14:48:06	14:56:24	496197	5d847ac9be4b0b00188463d7	969558009	1	main_z	11	main_z	43	stimuli_distractor_diamondtriangles.svg	stimuli_target_squaretriangles.svg	15	yes	44	1	449
6.6.1	win	2022-11-07	14:48:06	14:56:24	496197	5d847ac9be4b0b00188463d7	969558009	1	main_z	11	advance_on_keypress_ZEE	44	stimuli_distractor_diamondtriangles.svg	stimuli_target_squaretriangles.svg	15	yes	57	0	383
6.6.1	win	2022-11-07	14:48:06	14:56:25	497654	5d847ac9be4b0b00188463d7	969558009	1	main_z	11	main_z	45	stimuli_distractor_trianglediamonds.svg	stimuli_target_squarediamonds.svg	12	yes	44	1	422
6.6.1	win	2022-11-07	14:48:06	14:56:25	497654	5d847ac9be4b0b00188463d7	969558009	1	main_z	11	advance_on_keypress_ZEE	46	stimuli_distractor_trianglediamonds.svg	stimuli_target_squarediamonds.svg	12	yes	57	0	293
6.6.1	win	2022-11-07	14:48:06	14:56:28	500582	5d847ac9be4b0b00188463d7	969558009	1	main_z	11	main_z	47	stimuli_distractor_diamondtriangles.svg	stimuli_distractor_trianglediamonds.svg	38	no	0	1	2000
6.6.1	win	2022-11-07	14:48:06	14:56:28	500582	5d847ac9be4b0b00188463d7	969558009	1	main_z	11	advance_on_keypress_ZEE	48	stimuli_distractor_diamondtriangles.svg	stimuli_distractor_trianglediamonds.svg	38	no	57	0	2224
6.6.1	win	2022-11-07	14:48:06	14:56:31	504007	5d847ac9be4b0b00188463d7	969558009	1	main_z	11	main_z	49	stimuli_target_diamondcircles.svg	stimuli_distractor_trianglediamonds.svg	19	yes	44	1	558
6.6.1	win	2022-11-07	14:48:06	14:56:31	504007	5d847ac9be4b0b00188463d7	969558009	1	main_z	11	advance_on_keypress_ZEE	50	stimuli_target_diamondcircles.svg	stimuli_distractor_trianglediamonds.svg	19	yes	57	0	576
6.6.1	win	2022-11-07	14:48:06	14:56:33	505712	5d847ac9be4b0b00188463d7	969558009	1	main_z	11	main_z	51	stimuli_distractor_trianglediamonds.svg	stimuli_target_diamondsquares.svg	28	yes	44	1	496
6.6.1	win	2022-11-07	14:48:06	14:56:33	505712	5d847ac9be4b0b00188463d7	969558009	1	main_z	11	advance_on_keypress_ZEE	52	stimuli_distractor_trianglediamonds.svg	stimuli_target_diamondsquares.svg	28	yes	57	0	476
6.6.1	win	2022-11-07	14:48:06	14:56:35	507215	5d847ac9be4b0b00188463d7	969558009	1	main_z	11	main_z	53	stimuli_target_squarediamonds.svg	stimuli_distractor_trianglediamonds.svg	4	yes	44	1	400
6.6.1	win	2022-11-07	14:48:06	14:56:35	507215	5d847ac9be4b0b00188463d7	969558009	1	main_z	11	advance_on_keypress_ZEE	54	stimuli_target_squarediamonds.svg	stimuli_distractor_trianglediamonds.svg	4	yes	57	0	319
6.6.1	win	2022-11-07	14:48:06	14:56:36	508591	5d847ac9be4b0b00188463d7	969558009	1	main_z	11	main_z	55	stimuli_target_diamondsquares.svg	stimuli_distractor_diamondtriangles.svg	24	yes	44	1	409
6.6.1	win	2022-11-07	14:48:06	14:56:36	508591	5d847ac9be4b0b00188463d7	969558009	1	main_z	11	advance_on_keypress_ZEE	56	stimuli_target_diamondsquares.svg	stimuli_distractor_diamondtriangles.svg	24	yes	57	0	328
6.6.1	win	2022-11-07	14:48:06	14:56:37	509960	5d847ac9be4b0b00188463d7	969558009	1	main_z	11	main_z	57	stimuli_target_circlediamonds.svg	stimuli_distractor_diamondtriangles.svg	6	yes	44	1	411
6.6.1	win	2022-11-07	14:48:06	14:56:37	509960	5d847ac9be4b0b00188463d7	969558009	1	main_z	11	advance_on_keypress_ZEE	58	stimuli_target_circlediamonds.svg	stimuli_distractor_diamondtriangles.svg	6	yes	57	0	307
6.6.1	win	2022-11-07	14:48:06	14:56:40	512898	5d847ac9be4b0b00188463d7	969558009	1	main_z	11	main_z	59	stimuli_distractor_trianglediamonds.svg	stimuli_distractor_diamondtriangles.svg	36	no	0	1	2000
6.6.1	win	2022-11-07	14:48:06	14:56:40	512898	5d847ac9be4b0b00188463d7	969558009	1	main_z	11	advance_on_keypress_ZEE	60	stimuli_distractor_trianglediamonds.svg	stimuli_distractor_diamondtriangles.svg	36	no	57	0	701
6.6.1	win	2022-11-07	14:48:06	14:56:44	516248	5d847ac9be4b0b00188463d7	969558009	1	main_z	11	main_z	61	stimuli_distractor_diamondtriangles.svg	stimuli_distractor_trianglediamonds.svg	37	no	0	1	2000
6.6.1	win	2022-11-07	14:48:06	14:56:44	516248	5d847ac9be4b0b00188463d7	969558009	1	main_z	11	advance_on_keypress_ZEE	62	stimuli_distractor_diamondtriangles.svg	stimuli_distractor_trianglediamonds.svg	37	no	57	0	504
6.6.1	win	2022-11-07	14:48:06	14:56:47	519209	5d847ac9be4b0b00188463d7	969558009	1	main_z	11	main_z	63	stimuli_distractor_trianglediamonds.svg	stimuli_target_trianglecircles.svg	25	yes	44	1	1810
6.6.1	win	2022-11-07	14:48:06	14:56:47	519209	5d847ac9be4b0b00188463d7	969558009	1	main_z	11	advance_on_keypress_ZEE	64	stimuli_distractor_trianglediamonds.svg	stimuli_target_trianglecircles.svg	25	yes	57	0	634
6.6.1	win	2022-11-07	14:48:06	14:56:48	520913	5d847ac9be4b0b00188463d7	969558009	1	main_z	11	main_z	65	stimuli_target_trianglecircles.svg	stimuli_distractor_trianglediamonds.svg	17	yes	44	1	431
6.6.1	win	2022-11-07	14:48:06	14:56:48	520913	5d847ac9be4b0b00188463d7	969558009	1	main_z	11	advance_on_keypress_ZEE	66	stimuli_target_trianglecircles.svg	stimuli_distractor_trianglediamonds.svg	17	yes	57	0	462
6.6.1	win	2022-11-07	14:48:06	14:56:51	523999	5d847ac9be4b0b00188463d7	969558009	1	main_z	11	main_z	67	stimuli_distractor_trianglediamonds.svg	stimuli_distractor_trianglediamonds.svg	34	no	0	1	2000
6.6.1	win	2022-11-07	14:48:06	14:56:51	523999	5d847ac9be4b0b00188463d7	969558009	1	main_z	11	advance_on_keypress_ZEE	68	stimuli_distractor_trianglediamonds.svg	stimuli_distractor_trianglediamonds.svg	34	no	57	0	475
6.6.1	win	2022-11-07	14:48:06	14:56:53	525604	5d847ac9be4b0b00188463d7	969558009	1	main_z	11	main_z	69	stimuli_distractor_diamondtriangles.svg	stimuli_target_squarediamonds.svg	16	yes	44	1	488
6.6.1	win	2022-11-07	14:48:06	14:56:53	525604	5d847ac9be4b0b00188463d7	969558009	1	main_z	11	advance_on_keypress_ZEE	70	stimuli_distractor_diamondtriangles.svg	stimuli_target_squarediamonds.svg	16	yes	57	0	451
6.6.1	win	2022-11-07	14:48:06	14:56:55	527138	5d847ac9be4b0b00188463d7	969558009	1	main_z	11	main_z	71	stimuli_distractor_diamondtriangles.svg	stimuli_target_trianglesquares.svg	30	yes	44	1	439
6.6.1	win	2022-11-07	14:48:06	14:56:55	527138	5d847ac9be4b0b00188463d7	969558009	1	main_z	11	advance_on_keypress_ZEE	72	stimuli_distractor_diamondtriangles.svg	stimuli_target_trianglesquares.svg	30	yes	57	0	457
6.6.1	win	2022-11-07	14:48:06	14:56:56	528964	5d847ac9be4b0b00188463d7	969558009	1	main_z	11	main_z	73	stimuli_distractor_diamondtriangles.svg	stimuli_target_circletriangles.svg	13	yes	44	1	732
6.6.1	win	2022-11-07	14:48:06	14:56:56	528964	5d847ac9be4b0b00188463d7	969558009	1	main_z	11	advance_on_keypress_ZEE	74	stimuli_distractor_diamondtriangles.svg	stimuli_target_circletriangles.svg	13	yes	57	0	540
6.6.1	win	2022-11-07	14:48:06	14:56:58	530571	5d847ac9be4b0b00188463d7	969558009	1	main_z	11	main_z	75	stimuli_target_trianglecircles.svg	stimuli_distractor_diamondtriangles.svg	21	yes	44	1	422
6.6.1	win	2022-11-07	14:48:06	14:56:58	530571	5d847ac9be4b0b00188463d7	969558009	1	main_z	11	advance_on_keypress_ZEE	76	stimuli_target_trianglecircles.svg	stimuli_distractor_diamondtriangles.svg	21	yes	57	0	398
6.6.1	win	2022-11-07	14:48:06	14:57:01	533598	5d847ac9be4b0b00188463d7	969558009	1	main_z	11	main_z	77	stimuli_distractor_diamondtriangles.svg	stimuli_distractor_diamondtriangles.svg	40	no	0	1	2000
6.6.1	win	2022-11-07	14:48:06	14:57:01	533598	5d847ac9be4b0b00188463d7	969558009	1	main_z	11	advance_on_keypress_ZEE	78	stimuli_distractor_diamondtriangles.svg	stimuli_distractor_diamondtriangles.svg	40	no	57	0	436
6.6.1	win	2022-11-07	14:48:06	14:57:03	535091	5d847ac9be4b0b00188463d7	969558009	1	main_z	11	main_z	79	stimuli_target_circlediamonds.svg	stimuli_distractor_trianglediamonds.svg	2	yes	44	1	409
6.6.1	win	2022-11-07	14:48:06	14:57:03	535091	5d847ac9be4b0b00188463d7	969558009	1	main_z	11	advance_on_keypress_ZEE	80	stimuli_target_circlediamonds.svg	stimuli_distractor_trianglediamonds.svg	2	yes	57	0	352
6.6.1	win	2022-11-07	14:48:06	14:57:04	536524	5d847ac9be4b0b00188463d7	969558009	1	main_z	11	main_z	81	stimuli_target_circlediamonds.svg	stimuli_distractor_diamondtriangles.svg	6	yes	44	1	442
6.6.1	win	2022-11-07	14:48:06	14:57:04	536524	5d847ac9be4b0b00188463d7	969558009	1	main_z	11	advance_on_keypress_ZEE	82	stimuli_target_circlediamonds.svg	stimuli_distractor_diamondtriangles.svg	6	yes	57	0	339
6.6.1	win	2022-11-07	14:48:06	14:57:05	537956	5d847ac9be4b0b00188463d7	969558009	1	main_z	11	main_z	83	stimuli_distractor_diamondtriangles.svg	stimuli_target_trianglecircles.svg	29	yes	44	1	457
6.6.1	win	2022-11-07	14:48:06	14:57:05	537956	5d847ac9be4b0b00188463d7	969558009	1	main_z	11	advance_on_keypress_ZEE	84	stimuli_distractor_diamondtriangles.svg	stimuli_target_trianglecircles.svg	29	yes	57	0	383
6.6.1	win	2022-11-07	14:48:06	14:57:07	539388	5d847ac9be4b0b00188463d7	969558009	1	main_z	11	main_z	85	stimuli_target_circletriangles.svg	stimuli_distractor_diamondtriangles.svg	5	yes	44	1	406
6.6.1	win	2022-11-07	14:48:06	14:57:07	539388	5d847ac9be4b0b00188463d7	969558009	1	main_z	11	advance_on_keypress_ZEE	86	stimuli_target_circletriangles.svg	stimuli_distractor_diamondtriangles.svg	5	yes	57	0	317
6.6.1	win	2022-11-07	14:48:06	14:57:08	540828	5d847ac9be4b0b00188463d7	969558009	1	main_z	11	main_z	87	stimuli_distractor_trianglediamonds.svg	stimuli_target_circlediamonds.svg	10	yes	44	1	479
6.6.1	win	2022-11-07	14:48:06	14:57:08	540828	5d847ac9be4b0b00188463d7	969558009	1	main_z	11	advance_on_keypress_ZEE	88	stimuli_distractor_trianglediamonds.svg	stimuli_target_circlediamonds.svg	10	yes	57	0	300
6.6.1	win	2022-11-07	14:48:06	14:57:10	542282	5d847ac9be4b0b00188463d7	969558009	1	main_z	11	main_z	89	stimuli_distractor_trianglediamonds.svg	stimuli_target_squarediamonds.svg	12	yes	44	1	503
6.6.1	win	2022-11-07	14:48:06	14:57:10	542282	5d847ac9be4b0b00188463d7	969558009	1	main_z	11	advance_on_keypress_ZEE	90	stimuli_distractor_trianglediamonds.svg	stimuli_target_squarediamonds.svg	12	yes	57	0	313
6.6.1	win	2022-11-07	14:48:06	14:57:11	543676	5d847ac9be4b0b00188463d7	969558009	1	main_z	11	main_z	91	stimuli_distractor_trianglediamonds.svg	stimuli_target_trianglesquares.svg	26	yes	44	1	444
6.6.1	win	2022-11-07	14:48:06	14:57:11	543676	5d847ac9be4b0b00188463d7	969558009	1	main_z	11	advance_on_keypress_ZEE	92	stimuli_distractor_trianglediamonds.svg	stimuli_target_trianglesquares.svg	26	yes	57	0	330
6.6.1	win	2022-11-07	14:48:06	14:57:12	545036	5d847ac9be4b0b00188463d7	969558009	1	main_z	11	main_z	93	stimuli_target_trianglesquares.svg	stimuli_distractor_diamondtriangles.svg	22	yes	44	1	405
6.6.1	win	2022-11-07	14:48:06	14:57:12	545036	5d847ac9be4b0b00188463d7	969558009	1	main_z	11	advance_on_keypress_ZEE	94	stimuli_target_trianglesquares.svg	stimuli_distractor_diamondtriangles.svg	22	yes	57	0	315
6.6.1	win	2022-11-07	14:48:06	14:57:15	547998	5d847ac9be4b0b00188463d7	969558009	1	main_z	11	main_z	95	stimuli_distractor_diamondtriangles.svg	stimuli_distractor_trianglediamonds.svg	37	no	0	1	2000
6.6.1	win	2022-11-07	14:48:06	14:57:15	547998	5d847ac9be4b0b00188463d7	969558009	1	main_z	11	advance_on_keypress_ZEE	96	stimuli_distractor_diamondtriangles.svg	stimuli_distractor_trianglediamonds.svg	37	no	57	0	654
6.6.1	win	2022-11-07	14:48:06	14:57:19	551299	5d847ac9be4b0b00188463d7	969558009	1	main_z	11	main_z	97	stimuli_distractor_trianglediamonds.svg	stimuli_distractor_diamondtriangles.svg	35	no	0	1	2000
6.6.1	win	2022-11-07	14:48:06	14:57:19	551299	5d847ac9be4b0b00188463d7	969558009	1	main_z	11	advance_on_keypress_ZEE	98	stimuli_distractor_trianglediamonds.svg	stimuli_distractor_diamondtriangles.svg	35	no	57	0	370
6.6.1	win	2022-11-07	14:48:06	14:57:20	552734	5d847ac9be4b0b00188463d7	969558009	1	main_z	11	main_z	99	stimuli_distractor_trianglediamonds.svg	stimuli_target_trianglecircles.svg	25	yes	44	1	419
6.6.1	win	2022-11-07	14:48:06	14:57:20	552734	5d847ac9be4b0b00188463d7	969558009	1	main_z	11	advance_on_keypress_ZEE	100	stimuli_distractor_trianglediamonds.svg	stimuli_target_trianglecircles.svg	25	yes	57	0	297
6.6.1	win	2022-11-07	14:48:06	14:57:21	554048	5d847ac9be4b0b00188463d7	969558009	1	main_z	11	main_z	101	stimuli_target_circlediamonds.svg	stimuli_distractor_trianglediamonds.svg	2	yes	44	1	381
6.6.1	win	2022-11-07	14:48:06	14:57:21	554048	5d847ac9be4b0b00188463d7	969558009	1	main_z	11	advance_on_keypress_ZEE	102	stimuli_target_circlediamonds.svg	stimuli_distractor_trianglediamonds.svg	2	yes	57	0	325
6.6.1	win	2022-11-07	14:48:06	14:57:23	555622	5d847ac9be4b0b00188463d7	969558009	1	main_z	11	main_z	103	stimuli_target_diamondcircles.svg	stimuli_distractor_trianglediamonds.svg	19	yes	44	1	607
6.6.1	win	2022-11-07	14:48:06	14:57:23	555622	5d847ac9be4b0b00188463d7	969558009	1	main_z	11	advance_on_keypress_ZEE	104	stimuli_target_diamondcircles.svg	stimuli_distractor_trianglediamonds.svg	19	yes	57	0	334
6.6.1	win	2022-11-07	14:48:06	14:57:24	556982	5d847ac9be4b0b00188463d7	969558009	1	main_z	11	main_z	105	stimuli_target_diamondcircles.svg	stimuli_distractor_diamondtriangles.svg	23	yes	44	1	375
6.6.1	win	2022-11-07	14:48:06	14:57:24	556982	5d847ac9be4b0b00188463d7	969558009	1	main_z	11	advance_on_keypress_ZEE	106	stimuli_target_diamondcircles.svg	stimuli_distractor_diamondtriangles.svg	23	yes	57	0	271
6.6.1	win	2022-11-07	14:48:06	14:57:26	558424	5d847ac9be4b0b00188463d7	969558009	1	main_z	11	main_z	107	stimuli_target_trianglecircles.svg	stimuli_distractor_diamondtriangles.svg	21	yes	44	1	525
6.6.1	win	2022-11-07	14:48:06	14:57:26	558424	5d847ac9be4b0b00188463d7	969558009	1	main_z	11	advance_on_keypress_ZEE	108	stimuli_target_trianglecircles.svg	stimuli_distractor_diamondtriangles.svg	21	yes	57	0	1927
6.6.1	win	2022-11-07	14:48:06	14:57:29	561375	5d847ac9be4b0b00188463d7	969558009	1	main_z	11	main_z	109	stimuli_target_squarediamonds.svg	stimuli_distractor_trianglediamonds.svg	4	yes	44	1	393
6.6.1	win	2022-11-07	14:48:06	14:57:29	561375	5d847ac9be4b0b00188463d7	969558009	1	main_z	11	advance_on_keypress_ZEE	110	stimuli_target_squarediamonds.svg	stimuli_distractor_trianglediamonds.svg	4	yes	57	0	345
6.6.1	win	2022-11-07	14:48:06	14:57:32	564349	5d847ac9be4b0b00188463d7	969558009	1	main_z	11	main_z	111	stimuli_distractor_trianglediamonds.svg	stimuli_distractor_diamondtriangles.svg	36	no	0	1	2000
6.6.1	win	2022-11-07	14:48:06	14:57:32	564349	5d847ac9be4b0b00188463d7	969558009	1	main_z	11	advance_on_keypress_ZEE	112	stimuli_distractor_trianglediamonds.svg	stimuli_distractor_diamondtriangles.svg	36	no	57	0	1210
6.6.1	win	2022-11-07	14:48:06	14:57:34	566671	5d847ac9be4b0b00188463d7	969558009	1	main_z	11	main_z	113	stimuli_distractor_diamondtriangles.svg	stimuli_target_diamondsquares.svg	32	yes	44	1	472
6.6.1	win	2022-11-07	14:48:06	14:57:34	566671	5d847ac9be4b0b00188463d7	969558009	1	main_z	11	advance_on_keypress_ZEE	114	stimuli_distractor_diamondtriangles.svg	stimuli_target_diamondsquares.svg	32	yes	57	0	318
6.6.1	win	2022-11-07	14:48:06	14:57:36	568408	5d847ac9be4b0b00188463d7	969558009	1	main_z	11	main_z	115	stimuli_distractor_diamondtriangles.svg	stimuli_target_squaretriangles.svg	15	yes	44	1	776
6.6.1	win	2022-11-07	14:48:06	14:57:36	568408	5d847ac9be4b0b00188463d7	969558009	1	main_z	11	advance_on_keypress_ZEE	116	stimuli_distractor_diamondtriangles.svg	stimuli_target_squaretriangles.svg	15	yes	57	0	410
6.6.1	win	2022-11-07	14:48:06	14:57:39	571448	5d847ac9be4b0b00188463d7	969558009	1	main_z	11	main_z	117	stimuli_distractor_trianglediamonds.svg	stimuli_distractor_trianglediamonds.svg	34	no	0	1	2000
6.6.1	win	2022-11-07	14:48:06	14:57:39	571448	5d847ac9be4b0b00188463d7	969558009	1	main_z	11	advance_on_keypress_ZEE	118	stimuli_distractor_trianglediamonds.svg	stimuli_distractor_trianglediamonds.svg	34	no	57	0	407
6.6.1	win	2022-11-07	14:48:06	14:57:40	572960	5d847ac9be4b0b00188463d7	969558009	1	main_z	11	main_z	119	stimuli_distractor_trianglediamonds.svg	stimuli_target_diamondcircles.svg	27	yes	44	1	461
6.6.1	win	2022-11-07	14:48:06	14:57:40	572960	5d847ac9be4b0b00188463d7	969558009	1	main_z	11	advance_on_keypress_ZEE	120	stimuli_distractor_trianglediamonds.svg	stimuli_target_diamondcircles.svg	27	yes	57	0	339
6.6.1	win	2022-11-07	14:48:06	14:57:42	574360	5d847ac9be4b0b00188463d7	969558009	1	main_z	11	main_z	121	stimuli_distractor_trianglediamonds.svg	stimuli_target_diamondsquares.svg	28	yes	44	1	429
6.6.1	win	2022-11-07	14:48:06	14:57:42	574360	5d847ac9be4b0b00188463d7	969558009	1	main_z	11	advance_on_keypress_ZEE	122	stimuli_distractor_trianglediamonds.svg	stimuli_target_diamondsquares.svg	28	yes	57	0	310
6.6.1	win	2022-11-07	14:48:06	14:57:43	575769	5d847ac9be4b0b00188463d7	969558009	1	main_z	11	main_z	123	stimuli_distractor_diamondtriangles.svg	stimuli_target_circletriangles.svg	13	yes	44	1	470
6.6.1	win	2022-11-07	14:48:06	14:57:43	575769	5d847ac9be4b0b00188463d7	969558009	1	main_z	11	advance_on_keypress_ZEE	124	stimuli_distractor_diamondtriangles.svg	stimuli_target_circletriangles.svg	13	yes	57	0	267
6.6.1	win	2022-11-07	14:48:06	14:57:44	577033	5d847ac9be4b0b00188463d7	969558009	1	main_z	11	main_z	125	stimuli_target_squaretriangles.svg	stimuli_distractor_diamondtriangles.svg	7	yes	44	1	351
6.6.1	win	2022-11-07	14:48:06	14:57:44	577033	5d847ac9be4b0b00188463d7	969558009	1	main_z	11	advance_on_keypress_ZEE	126	stimuli_target_squaretriangles.svg	stimuli_distractor_diamondtriangles.svg	7	yes	57	0	355
6.6.1	win	2022-11-07	14:48:06	14:57:46	578393	5d847ac9be4b0b00188463d7	969558009	1	main_z	11	main_z	127	stimuli_target_squaretriangles.svg	stimuli_distractor_trianglediamonds.svg	3	yes	44	1	361
6.6.1	win	2022-11-07	14:48:06	14:57:46	578393	5d847ac9be4b0b00188463d7	969558009	1	main_z	11	advance_on_keypress_ZEE	128	stimuli_target_squaretriangles.svg	stimuli_distractor_trianglediamonds.svg	3	yes	57	0	306
6.6.1	win	2022-11-07	14:48:06	14:57:47	579715	5d847ac9be4b0b00188463d7	969558009	1	main_z	11	main_z	129	stimuli_target_squarediamonds.svg	stimuli_distractor_diamondtriangles.svg	8	yes	44	1	382
6.6.1	win	2022-11-07	14:48:06	14:57:47	579715	5d847ac9be4b0b00188463d7	969558009	1	main_z	11	advance_on_keypress_ZEE	130	stimuli_target_squarediamonds.svg	stimuli_distractor_diamondtriangles.svg	8	yes	57	0	269
6.6.1	win	2022-11-07	14:48:06	14:57:50	582632	5d847ac9be4b0b00188463d7	969558009	1	main_z	11	main_z	131	stimuli_distractor_diamondtriangles.svg	stimuli_distractor_trianglediamonds.svg	38	no	0	1	2000
6.6.1	win	2022-11-07	14:48:06	14:57:50	582632	5d847ac9be4b0b00188463d7	969558009	1	main_z	11	advance_on_keypress_ZEE	132	stimuli_distractor_diamondtriangles.svg	stimuli_distractor_trianglediamonds.svg	38	no	57	0	369
6.6.1	win	2022-11-07	14:48:06	14:57:53	585649	5d847ac9be4b0b00188463d7	969558009	1	main_z	11	main_z	133	stimuli_distractor_diamondtriangles.svg	stimuli_distractor_diamondtriangles.svg	39	no	0	1	2000
6.6.1	win	2022-11-07	14:48:06	14:57:53	585649	5d847ac9be4b0b00188463d7	969558009	1	main_z	11	advance_on_keypress_ZEE	134	stimuli_distractor_diamondtriangles.svg	stimuli_distractor_diamondtriangles.svg	39	no	57	0	393
6.6.1	win	2022-11-07	14:48:06	14:57:55	587106	5d847ac9be4b0b00188463d7	969558009	1	main_z	11	main_z	135	stimuli_distractor_diamondtriangles.svg	stimuli_target_circlediamonds.svg	14	yes	44	1	424
6.6.1	win	2022-11-07	14:48:06	14:57:55	587106	5d847ac9be4b0b00188463d7	969558009	1	main_z	11	advance_on_keypress_ZEE	136	stimuli_distractor_diamondtriangles.svg	stimuli_target_circlediamonds.svg	14	yes	57	0	392
6.6.1	win	2022-11-07	14:48:06	14:57:56	588515	5d847ac9be4b0b00188463d7	969558009	1	main_z	11	main_z	137	stimuli_distractor_trianglediamonds.svg	stimuli_target_squaretriangles.svg	11	yes	44	1	374
6.6.1	win	2022-11-07	14:48:06	14:57:56	588515	5d847ac9be4b0b00188463d7	969558009	1	main_z	11	advance_on_keypress_ZEE	138	stimuli_distractor_trianglediamonds.svg	stimuli_target_squaretriangles.svg	11	yes	57	0	310
6.6.1	win	2022-11-07	14:48:06	14:57:57	589900	5d847ac9be4b0b00188463d7	969558009	1	main_z	11	main_z	139	stimuli_distractor_diamondtriangles.svg	stimuli_target_squarediamonds.svg	16	yes	44	1	435
6.6.1	win	2022-11-07	14:48:06	14:57:57	589900	5d847ac9be4b0b00188463d7	969558009	1	main_z	11	advance_on_keypress_ZEE	140	stimuli_distractor_diamondtriangles.svg	stimuli_target_squarediamonds.svg	16	yes	57	0	314
6.6.1	win	2022-11-07	14:48:06	14:57:59	591565	5d847ac9be4b0b00188463d7	969558009	1	main_z	11	main_z	141	stimuli_target_trianglecircles.svg	stimuli_distractor_trianglediamonds.svg	17	yes	44	1	716
6.6.1	win	2022-11-07	14:48:06	14:57:59	591565	5d847ac9be4b0b00188463d7	969558009	1	main_z	11	advance_on_keypress_ZEE	142	stimuli_target_trianglecircles.svg	stimuli_distractor_trianglediamonds.svg	17	yes	57	0	309
6.6.1	win	2022-11-07	14:48:06	14:58:00	592955	5d847ac9be4b0b00188463d7	969558009	1	main_z	11	main_z	143	stimuli_distractor_trianglediamonds.svg	stimuli_target_circletriangles.svg	9	yes	44	1	440
6.6.1	win	2022-11-07	14:48:06	14:58:00	592955	5d847ac9be4b0b00188463d7	969558009	1	main_z	11	advance_on_keypress_ZEE	144	stimuli_distractor_trianglediamonds.svg	stimuli_target_circletriangles.svg	9	yes	57	0	366
6.6.1	win	2022-11-07	14:48:06	14:58:02	594387	5d847ac9be4b0b00188463d7	969558009	1	main_z	11	main_z	145	stimuli_distractor_diamondtriangles.svg	stimuli_target_trianglesquares.svg	30	yes	44	1	422
6.6.1	win	2022-11-07	14:48:06	14:58:02	594387	5d847ac9be4b0b00188463d7	969558009	1	main_z	11	advance_on_keypress_ZEE	146	stimuli_distractor_diamondtriangles.svg	stimuli_target_trianglesquares.svg	30	yes	57	0	316
6.6.1	win	2022-11-07	14:48:06	14:58:03	595763	5d847ac9be4b0b00188463d7	969558009	1	main_z	11	main_z	147	stimuli_target_diamondsquares.svg	stimuli_distractor_trianglediamonds.svg	20	yes	44	1	415
6.6.1	win	2022-11-07	14:48:06	14:58:03	595763	5d847ac9be4b0b00188463d7	969558009	1	main_z	11	advance_on_keypress_ZEE	148	stimuli_target_diamondsquares.svg	stimuli_distractor_trianglediamonds.svg	20	yes	57	0	311
6.6.1	win	2022-11-07	14:48:06	14:58:06	598698	5d847ac9be4b0b00188463d7	969558009	1	main_z	11	main_z	149	stimuli_distractor_diamondtriangles.svg	stimuli_distractor_diamondtriangles.svg	40	no	0	1	2000
6.6.1	win	2022-11-07	14:48:06	14:58:06	598698	5d847ac9be4b0b00188463d7	969558009	1	main_z	11	advance_on_keypress_ZEE	150	stimuli_distractor_diamondtriangles.svg	stimuli_distractor_diamondtriangles.svg	40	no	57	0	361
6.6.1	win	2022-11-07	14:48:06	14:58:08	600135	5d847ac9be4b0b00188463d7	969558009	1	main_z	11	main_z	151	stimuli_target_diamondsquares.svg	stimuli_distractor_diamondtriangles.svg	24	yes	44	1	436
6.6.1	win	2022-11-07	14:48:06	14:58:08	600135	5d847ac9be4b0b00188463d7	969558009	1	main_z	11	advance_on_keypress_ZEE	152	stimuli_target_diamondsquares.svg	stimuli_distractor_diamondtriangles.svg	24	yes	57	0	247
6.6.1	win	2022-11-07	14:48:06	14:58:10	603015	5d847ac9be4b0b00188463d7	969558009	1	main_z	11	main_z	153	stimuli_distractor_trianglediamonds.svg	stimuli_distractor_trianglediamonds.svg	33	no	0	1	2000
6.6.1	win	2022-11-07	14:48:06	14:58:10	603015	5d847ac9be4b0b00188463d7	969558009	1	main_z	11	advance_on_keypress_ZEE	154	stimuli_distractor_trianglediamonds.svg	stimuli_distractor_trianglediamonds.svg	33	no	57	0	389
6.6.1	win	2022-11-07	14:48:06	14:58:12	604463	5d847ac9be4b0b00188463d7	969558009	1	main_z	11	main_z	155	stimuli_target_circletriangles.svg	stimuli_distractor_trianglediamonds.svg	1	yes	44	1	414
6.6.1	win	2022-11-07	14:48:06	14:58:12	604463	5d847ac9be4b0b00188463d7	969558009	1	main_z	11	advance_on_keypress_ZEE	156	stimuli_target_circletriangles.svg	stimuli_distractor_trianglediamonds.svg	1	yes	57	0	852
6.6.1	win	2022-11-07	14:48:06	14:58:14	606373	5d847ac9be4b0b00188463d7	969558009	1	main_z	11	main_z	157	stimuli_target_trianglesquares.svg	stimuli_distractor_trianglediamonds.svg	18	yes	44	1	424
6.6.1	win	2022-11-07	14:48:06	14:58:14	606373	5d847ac9be4b0b00188463d7	969558009	1	main_z	11	advance_on_keypress_ZEE	158	stimuli_target_trianglesquares.svg	stimuli_distractor_trianglediamonds.svg	18	yes	57	0	367
6.6.1	win	2022-11-07	14:48:06	14:58:15	607925	5d847ac9be4b0b00188463d7	969558009	1	main_z	11	main_z	159	stimuli_distractor_diamondtriangles.svg	stimuli_target_diamondcircles.svg	31	yes	44	1	543
6.6.1	win	2022-11-07	14:48:06	14:58:15	607925	5d847ac9be4b0b00188463d7	969558009	1	main_z	11	advance_on_keypress_ZEE	160	stimuli_distractor_diamondtriangles.svg	stimuli_target_diamondcircles.svg	31	yes	57	0	361