build	computer.platform	date	time	timestamp	time_elapsed_ms	subject	group	session	blockcode	blocknum	trialcode	trialnum	stimulus_left	stimulus_right	stim_index	target_present	response	correct	latency
6.6.1	win	2022-12-14	18:24:59	18:49:02	1442065	62c3430ae19d78462af9e743	904935608	1	practice_z	5	practice_z	1	stimuli_target_circlediamonds.svg	stimuli_distractor_trianglediamonds.svg	4	yes	44	1	697
6.6.1	win	2022-12-14	18:24:59	18:49:02	1442065	62c3430ae19d78462af9e743	904935608	1	practice_z	5	advance_on_keypress_ZEE	2	stimuli_target_circlediamonds.svg	stimuli_distractor_trianglediamonds.svg	4	yes	57	0	1080
6.6.1	win	2022-12-14	18:24:59	18:49:07	1446806	62c3430ae19d78462af9e743	904935608	1	practice_z	5	practice_z	3	stimuli_distractor_diamondtriangles.svg	stimuli_distractor_trianglediamonds.svg	14	no	0	1	2000
6.6.1	win	2022-12-14	18:24:59	18:49:07	1446806	62c3430ae19d78462af9e743	904935608	1	practice_z	5	advance_on_keypress_ZEE	4	stimuli_distractor_diamondtriangles.svg	stimuli_distractor_trianglediamonds.svg	14	no	57	0	438
6.6.1	win	2022-12-14	18:24:59	18:49:10	1450145	62c3430ae19d78462af9e743	904935608	1	practice_z	5	practice_z	5	stimuli_target_diamondsquares.svg	stimuli_distractor_diamondtriangles.svg	3	yes	44	1	1261
6.6.1	win	2022-12-14	18:24:59	18:49:10	1450145	62c3430ae19d78462af9e743	904935608	1	practice_z	5	advance_on_keypress_ZEE	6	stimuli_target_diamondsquares.svg	stimuli_distractor_diamondtriangles.svg	3	yes	57	0	534
6.6.1	win	2022-12-14	18:24:59	18:49:13	1453436	62c3430ae19d78462af9e743	904935608	1	practice_z	5	practice_z	7	stimuli_target_diamondsquares.svg	stimuli_distractor_trianglediamonds.svg	6	yes	44	1	1118
6.6.1	win	2022-12-14	18:24:59	18:49:13	1453436	62c3430ae19d78462af9e743	904935608	1	practice_z	5	advance_on_keypress_ZEE	8	stimuli_target_diamondsquares.svg	stimuli_distractor_trianglediamonds.svg	6	yes	57	0	465
6.6.1	win	2022-12-14	18:24:59	18:49:16	1456585	62c3430ae19d78462af9e743	904935608	1	practice_z	5	practice_z	9	stimuli_distractor_trianglediamonds.svg	stimuli_target_diamondcircles.svg	12	yes	44	1	1035
6.6.1	win	2022-12-14	18:24:59	18:49:16	1456585	62c3430ae19d78462af9e743	904935608	1	practice_z	5	advance_on_keypress_ZEE	10	stimuli_distractor_trianglediamonds.svg	stimuli_target_diamondcircles.svg	12	yes	57	0	395
6.6.1	win	2022-12-14	18:24:59	18:49:20	1460066	62c3430ae19d78462af9e743	904935608	1	practice_z	5	practice_z	11	stimuli_target_circlediamonds.svg	stimuli_distractor_diamondtriangles.svg	1	yes	44	1	1448
6.6.1	win	2022-12-14	18:24:59	18:49:20	1460066	62c3430ae19d78462af9e743	904935608	1	practice_z	5	advance_on_keypress_ZEE	12	stimuli_target_circlediamonds.svg	stimuli_distractor_diamondtriangles.svg	1	yes	57	0	502
6.6.1	win	2022-12-14	18:24:59	18:49:24	1464218	62c3430ae19d78462af9e743	904935608	1	practice_z	5	practice_z	13	stimuli_distractor_trianglediamonds.svg	stimuli_distractor_trianglediamonds.svg	15	no	0	1	2000
6.6.1	win	2022-12-14	18:24:59	18:49:24	1464218	62c3430ae19d78462af9e743	904935608	1	practice_z	5	advance_on_keypress_ZEE	14	stimuli_distractor_trianglediamonds.svg	stimuli_distractor_trianglediamonds.svg	15	no	57	0	452
6.6.1	win	2022-12-14	18:24:59	18:49:28	1468323	62c3430ae19d78462af9e743	904935608	1	practice_z	5	practice_z	15	stimuli_distractor_diamondtriangles.svg	stimuli_distractor_diamondtriangles.svg	13	no	0	1	2000
6.6.1	win	2022-12-14	18:24:59	18:49:28	1468323	62c3430ae19d78462af9e743	904935608	1	practice_z	5	advance_on_keypress_ZEE	16	stimuli_distractor_diamondtriangles.svg	stimuli_distractor_diamondtriangles.svg	13	no	57	0	412
6.6.1	win	2022-12-14	18:24:59	18:49:31	1471237	62c3430ae19d78462af9e743	904935608	1	practice_z	5	practice_z	17	stimuli_distractor_diamondtriangles.svg	stimuli_target_diamondcircles.svg	8	yes	44	1	869
6.6.1	win	2022-12-14	18:24:59	18:49:31	1471237	62c3430ae19d78462af9e743	904935608	1	practice_z	5	advance_on_keypress_ZEE	18	stimuli_distractor_diamondtriangles.svg	stimuli_target_diamondcircles.svg	8	yes	57	0	366
6.6.1	win	2022-12-14	18:24:59	18:49:34	1474447	62c3430ae19d78462af9e743	904935608	1	practice_z	5	practice_z	19	stimuli_distractor_diamondtriangles.svg	stimuli_target_circletriangles.svg	7	yes	44	1	1196
6.6.1	win	2022-12-14	18:24:59	18:49:34	1474447	62c3430ae19d78462af9e743	904935608	1	practice_z	5	advance_on_keypress_ZEE	20	stimuli_distractor_diamondtriangles.svg	stimuli_target_circletriangles.svg	7	yes	57	0	467
6.6.1	win	2022-12-14	18:24:59	18:49:37	1477537	62c3430ae19d78462af9e743	904935608	1	practice_z	5	practice_z	21	stimuli_target_squarediamonds.svg	stimuli_distractor_diamondtriangles.svg	2	yes	44	1	987
6.6.1	win	2022-12-14	18:24:59	18:49:37	1477537	62c3430ae19d78462af9e743	904935608	1	practice_z	5	advance_on_keypress_ZEE	22	stimuli_target_squarediamonds.svg	stimuli_distractor_diamondtriangles.svg	2	yes	57	0	307
6.6.1	win	2022-12-14	18:24:59	18:49:40	1480387	62c3430ae19d78462af9e743	904935608	1	practice_z	5	practice_z	23	stimuli_distractor_trianglediamonds.svg	stimuli_target_squarediamonds.svg	11	yes	44	1	903
6.6.1	win	2022-12-14	18:24:59	18:49:40	1480387	62c3430ae19d78462af9e743	904935608	1	practice_z	5	advance_on_keypress_ZEE	24	stimuli_distractor_trianglediamonds.svg	stimuli_target_squarediamonds.svg	11	yes	57	0	307
6.6.1	win	2022-12-14	18:24:59	18:49:43	1483217	62c3430ae19d78462af9e743	904935608	1	practice_z	5	practice_z	25	stimuli_distractor_diamondtriangles.svg	stimuli_target_trianglecircles.svg	9	yes	44	1	883
6.6.1	win	2022-12-14	18:24:59	18:49:43	1483217	62c3430ae19d78462af9e743	904935608	1	practice_z	5	advance_on_keypress_ZEE	26	stimuli_distractor_diamondtriangles.svg	stimuli_target_trianglecircles.svg	9	yes	57	0	393
6.6.1	win	2022-12-14	18:24:59	18:49:46	1486198	62c3430ae19d78462af9e743	904935608	1	practice_z	5	practice_z	27	stimuli_target_squarediamonds.svg	stimuli_distractor_trianglediamonds.svg	5	yes	44	1	947
6.6.1	win	2022-12-14	18:24:59	18:49:46	1486198	62c3430ae19d78462af9e743	904935608	1	practice_z	5	advance_on_keypress_ZEE	28	stimuli_target_squarediamonds.svg	stimuli_distractor_trianglediamonds.svg	5	yes	57	0	330
6.6.1	win	2022-12-14	18:24:59	18:49:50	1490167	62c3430ae19d78462af9e743	904935608	1	practice_z	5	practice_z	29	stimuli_distractor_trianglediamonds.svg	stimuli_distractor_diamondtriangles.svg	16	no	0	1	2000
6.6.1	win	2022-12-14	18:24:59	18:49:50	1490167	62c3430ae19d78462af9e743	904935608	1	practice_z	5	advance_on_keypress_ZEE	30	stimuli_distractor_trianglediamonds.svg	stimuli_distractor_diamondtriangles.svg	16	no	57	0	365
6.6.1	win	2022-12-14	18:24:59	18:49:53	1493168	62c3430ae19d78462af9e743	904935608	1	practice_z	5	practice_z	31	stimuli_distractor_trianglediamonds.svg	stimuli_target_circlediamonds.svg	10	yes	44	1	985
6.6.1	win	2022-12-14	18:24:59	18:49:53	1493168	62c3430ae19d78462af9e743	904935608	1	practice_z	5	advance_on_keypress_ZEE	32	stimuli_distractor_trianglediamonds.svg	stimuli_target_circlediamonds.svg	10	yes	57	0	305
6.6.1	win	2022-12-14	18:24:59	18:50:01	1500988	62c3430ae19d78462af9e743	904935608	1	main_z	7	main_z	1	stimuli_distractor_trianglediamonds.svg	stimuli_target_trianglecircles.svg	25	yes	44	1	788
6.6.1	win	2022-12-14	18:24:59	18:50:01	1500988	62c3430ae19d78462af9e743	904935608	1	main_z	7	advance_on_keypress_ZEE	2	stimuli_distractor_trianglediamonds.svg	stimuli_target_trianglecircles.svg	25	yes	57	0	778
6.6.1	win	2022-12-14	18:24:59	18:50:03	1503528	62c3430ae19d78462af9e743	904935608	1	main_z	7	main_z	3	stimuli_distractor_trianglediamonds.svg	stimuli_target_trianglesquares.svg	26	yes	44	1	1128
6.6.1	win	2022-12-14	18:24:59	18:50:03	1503528	62c3430ae19d78462af9e743	904935608	1	main_z	7	advance_on_keypress_ZEE	4	stimuli_distractor_trianglediamonds.svg	stimuli_target_trianglesquares.svg	26	yes	57	0	386
6.6.1	win	2022-12-14	18:24:59	18:50:06	1506554	62c3430ae19d78462af9e743	904935608	1	main_z	7	main_z	5	stimuli_distractor_diamondtriangles.svg	stimuli_distractor_diamondtriangles.svg	39	no	0	1	2000
6.6.1	win	2022-12-14	18:24:59	18:50:06	1506554	62c3430ae19d78462af9e743	904935608	1	main_z	7	advance_on_keypress_ZEE	6	stimuli_distractor_diamondtriangles.svg	stimuli_distractor_diamondtriangles.svg	39	no	57	0	512
6.6.1	win	2022-12-14	18:24:59	18:50:09	1508678	62c3430ae19d78462af9e743	904935608	1	main_z	7	main_z	7	stimuli_target_trianglesquares.svg	stimuli_distractor_trianglediamonds.svg	18	yes	44	1	979
6.6.1	win	2022-12-14	18:24:59	18:50:09	1508678	62c3430ae19d78462af9e743	904935608	1	main_z	7	advance_on_keypress_ZEE	8	stimuli_target_trianglesquares.svg	stimuli_distractor_trianglediamonds.svg	18	yes	57	0	486
6.6.1	win	2022-12-14	18:24:59	18:50:10	1510588	62c3430ae19d78462af9e743	904935608	1	main_z	7	main_z	9	stimuli_target_circlediamonds.svg	stimuli_distractor_trianglediamonds.svg	2	yes	44	1	789
6.6.1	win	2022-12-14	18:24:59	18:50:10	1510588	62c3430ae19d78462af9e743	904935608	1	main_z	7	advance_on_keypress_ZEE	10	stimuli_target_circlediamonds.svg	stimuli_distractor_trianglediamonds.svg	2	yes	57	0	319
6.6.1	win	2022-12-14	18:24:59	18:50:12	1512289	62c3430ae19d78462af9e743	904935608	1	main_z	7	main_z	11	stimuli_distractor_diamondtriangles.svg	stimuli_target_diamondcircles.svg	31	yes	44	1	739
6.6.1	win	2022-12-14	18:24:59	18:50:12	1512289	62c3430ae19d78462af9e743	904935608	1	main_z	7	advance_on_keypress_ZEE	12	stimuli_distractor_diamondtriangles.svg	stimuli_target_diamondcircles.svg	31	yes	57	0	319
6.6.1	win	2022-12-14	18:24:59	18:50:14	1513989	62c3430ae19d78462af9e743	904935608	1	main_z	7	main_z	13	stimuli_target_squaretriangles.svg	stimuli_distractor_diamondtriangles.svg	7	yes	44	1	739
6.6.1	win	2022-12-14	18:24:59	18:50:14	1513989	62c3430ae19d78462af9e743	904935608	1	main_z	7	advance_on_keypress_ZEE	14	stimuli_target_squaretriangles.svg	stimuli_distractor_diamondtriangles.svg	7	yes	57	0	269
6.6.1	win	2022-12-14	18:24:59	18:50:16	1515759	62c3430ae19d78462af9e743	904935608	1	main_z	7	main_z	15	stimuli_distractor_diamondtriangles.svg	stimuli_target_diamondsquares.svg	32	yes	44	1	859
6.6.1	win	2022-12-14	18:24:59	18:50:16	1515759	62c3430ae19d78462af9e743	904935608	1	main_z	7	advance_on_keypress_ZEE	16	stimuli_distractor_diamondtriangles.svg	stimuli_target_diamondsquares.svg	32	yes	57	0	263
6.6.1	win	2022-12-14	18:24:59	18:50:18	1518159	62c3430ae19d78462af9e743	904935608	1	main_z	7	main_z	17	stimuli_target_trianglecircles.svg	stimuli_distractor_trianglediamonds.svg	17	yes	44	1	1509
6.6.1	win	2022-12-14	18:24:59	18:50:18	1518159	62c3430ae19d78462af9e743	904935608	1	main_z	7	advance_on_keypress_ZEE	18	stimuli_target_trianglecircles.svg	stimuli_distractor_trianglediamonds.svg	17	yes	57	0	323
6.6.1	win	2022-12-14	18:24:59	18:50:20	1519969	62c3430ae19d78462af9e743	904935608	1	main_z	7	main_z	19	stimuli_distractor_diamondtriangles.svg	stimuli_target_trianglesquares.svg	30	yes	44	1	853
6.6.1	win	2022-12-14	18:24:59	18:50:20	1519969	62c3430ae19d78462af9e743	904935608	1	main_z	7	advance_on_keypress_ZEE	20	stimuli_distractor_diamondtriangles.svg	stimuli_target_trianglesquares.svg	30	yes	57	0	227
6.6.1	win	2022-12-14	18:24:59	18:50:22	1521699	62c3430ae19d78462af9e743	904935608	1	main_z	7	main_z	21	stimuli_distractor_diamondtriangles.svg	stimuli_target_squaretriangles.svg	15	yes	44	1	867
6.6.1	win	2022-12-14	18:24:59	18:50:22	1521699	62c3430ae19d78462af9e743	904935608	1	main_z	7	advance_on_keypress_ZEE	22	stimuli_distractor_diamondtriangles.svg	stimuli_target_squaretriangles.svg	15	yes	57	0	173
6.6.1	win	2022-12-14	18:24:59	18:50:24	1524521	62c3430ae19d78462af9e743	904935608	1	main_z	7	main_z	23	stimuli_distractor_trianglediamonds.svg	stimuli_distractor_trianglediamonds.svg	33	no	0	1	2000
6.6.1	win	2022-12-14	18:24:59	18:50:24	1524521	62c3430ae19d78462af9e743	904935608	1	main_z	7	advance_on_keypress_ZEE	24	stimuli_distractor_trianglediamonds.svg	stimuli_distractor_trianglediamonds.svg	33	no	57	0	357
6.6.1	win	2022-12-14	18:24:59	18:50:26	1526329	62c3430ae19d78462af9e743	904935608	1	main_z	7	main_z	25	stimuli_distractor_trianglediamonds.svg	stimuli_target_squaretriangles.svg	11	yes	44	1	813
6.6.1	win	2022-12-14	18:24:59	18:50:26	1526329	62c3430ae19d78462af9e743	904935608	1	main_z	7	advance_on_keypress_ZEE	26	stimuli_distractor_trianglediamonds.svg	stimuli_target_squaretriangles.svg	11	yes	57	0	247
6.6.1	win	2022-12-14	18:24:59	18:50:29	1529199	62c3430ae19d78462af9e743	904935608	1	main_z	7	main_z	27	stimuli_distractor_trianglediamonds.svg	stimuli_distractor_diamondtriangles.svg	36	no	0	1	2000
6.6.1	win	2022-12-14	18:24:59	18:50:29	1529199	62c3430ae19d78462af9e743	904935608	1	main_z	7	advance_on_keypress_ZEE	28	stimuli_distractor_trianglediamonds.svg	stimuli_distractor_diamondtriangles.svg	36	no	57	0	414
6.6.1	win	2022-12-14	18:24:59	18:50:31	1531130	62c3430ae19d78462af9e743	904935608	1	main_z	7	main_z	29	stimuli_distractor_diamondtriangles.svg	stimuli_target_circletriangles.svg	13	yes	44	1	880
6.6.1	win	2022-12-14	18:24:59	18:50:31	1531130	62c3430ae19d78462af9e743	904935608	1	main_z	7	advance_on_keypress_ZEE	30	stimuli_distractor_diamondtriangles.svg	stimuli_target_circletriangles.svg	13	yes	57	0	137
6.6.1	win	2022-12-14	18:24:59	18:50:33	1532750	62c3430ae19d78462af9e743	904935608	1	main_z	7	main_z	31	stimuli_target_squarediamonds.svg	stimuli_distractor_trianglediamonds.svg	4	yes	44	1	850
6.6.1	win	2022-12-14	18:24:59	18:50:33	1532750	62c3430ae19d78462af9e743	904935608	1	main_z	7	advance_on_keypress_ZEE	32	stimuli_target_squarediamonds.svg	stimuli_distractor_trianglediamonds.svg	4	yes	57	0	134
6.6.1	win	2022-12-14	18:24:59	18:50:34	1534400	62c3430ae19d78462af9e743	904935608	1	main_z	7	main_z	33	stimuli_target_trianglesquares.svg	stimuli_distractor_diamondtriangles.svg	22	yes	44	1	868
6.6.1	win	2022-12-14	18:24:59	18:50:34	1534400	62c3430ae19d78462af9e743	904935608	1	main_z	7	advance_on_keypress_ZEE	34	stimuli_target_trianglesquares.svg	stimuli_distractor_diamondtriangles.svg	22	yes	57	0	105
6.6.1	win	2022-12-14	18:24:59	18:50:36	1536060	62c3430ae19d78462af9e743	904935608	1	main_z	7	main_z	35	stimuli_target_diamondsquares.svg	stimuli_distractor_trianglediamonds.svg	20	yes	44	1	911
6.6.1	win	2022-12-14	18:24:59	18:50:36	1536060	62c3430ae19d78462af9e743	904935608	1	main_z	7	advance_on_keypress_ZEE	36	stimuli_target_diamondsquares.svg	stimuli_distractor_trianglediamonds.svg	20	yes	57	0	105
6.6.1	win	2022-12-14	18:24:59	18:50:38	1537660	62c3430ae19d78462af9e743	904935608	1	main_z	7	main_z	37	stimuli_distractor_diamondtriangles.svg	stimuli_target_trianglecircles.svg	29	yes	44	1	861
6.6.1	win	2022-12-14	18:24:59	18:50:38	1537660	62c3430ae19d78462af9e743	904935608	1	main_z	7	advance_on_keypress_ZEE	38	stimuli_distractor_diamondtriangles.svg	stimuli_target_trianglecircles.svg	29	yes	57	0	125
6.6.1	win	2022-12-14	18:24:59	18:50:39	1539280	62c3430ae19d78462af9e743	904935608	1	main_z	7	main_z	39	stimuli_target_trianglecircles.svg	stimuli_distractor_diamondtriangles.svg	21	yes	44	1	865
6.6.1	win	2022-12-14	18:24:59	18:50:39	1539280	62c3430ae19d78462af9e743	904935608	1	main_z	7	advance_on_keypress_ZEE	40	stimuli_target_trianglecircles.svg	stimuli_distractor_diamondtriangles.svg	21	yes	57	0	101
6.6.1	win	2022-12-14	18:24:59	18:50:41	1541251	62c3430ae19d78462af9e743	904935608	1	main_z	7	main_z	41	stimuli_distractor_trianglediamonds.svg	stimuli_target_circlediamonds.svg	10	yes	44	1	1218
6.6.1	win	2022-12-14	18:24:59	18:50:41	1541251	62c3430ae19d78462af9e743	904935608	1	main_z	7	advance_on_keypress_ZEE	42	stimuli_distractor_trianglediamonds.svg	stimuli_target_circlediamonds.svg	10	yes	57	0	105
6.6.1	win	2022-12-14	18:24:59	18:50:43	1542841	62c3430ae19d78462af9e743	904935608	1	main_z	7	main_z	43	stimuli_target_circletriangles.svg	stimuli_distractor_trianglediamonds.svg	1	yes	44	1	841
6.6.1	win	2022-12-14	18:24:59	18:50:43	1542841	62c3430ae19d78462af9e743	904935608	1	main_z	7	advance_on_keypress_ZEE	44	stimuli_target_circletriangles.svg	stimuli_distractor_trianglediamonds.svg	1	yes	57	0	102
6.6.1	win	2022-12-14	18:24:59	18:50:45	1545587	62c3430ae19d78462af9e743	904935608	1	main_z	7	main_z	45	stimuli_distractor_diamondtriangles.svg	stimuli_distractor_diamondtriangles.svg	40	no	0	1	2000
6.6.1	win	2022-12-14	18:24:59	18:50:45	1545587	62c3430ae19d78462af9e743	904935608	1	main_z	7	advance_on_keypress_ZEE	46	stimuli_distractor_diamondtriangles.svg	stimuli_distractor_diamondtriangles.svg	40	no	57	0	391
6.6.1	win	2022-12-14	18:24:59	18:50:47	1547411	62c3430ae19d78462af9e743	904935608	1	main_z	7	main_z	47	stimuli_distractor_trianglediamonds.svg	stimuli_target_diamondcircles.svg	27	yes	44	1	796
6.6.1	win	2022-12-14	18:24:59	18:50:47	1547411	62c3430ae19d78462af9e743	904935608	1	main_z	7	advance_on_keypress_ZEE	48	stimuli_distractor_trianglediamonds.svg	stimuli_target_diamondcircles.svg	27	yes	57	0	155
6.6.1	win	2022-12-14	18:24:59	18:50:49	1548931	62c3430ae19d78462af9e743	904935608	1	main_z	7	main_z	49	stimuli_distractor_trianglediamonds.svg	stimuli_target_diamondsquares.svg	28	yes	44	1	732
6.6.1	win	2022-12-14	18:24:59	18:50:49	1548931	62c3430ae19d78462af9e743	904935608	1	main_z	7	advance_on_keypress_ZEE	50	stimuli_distractor_trianglediamonds.svg	stimuli_target_diamondsquares.svg	28	yes	57	0	92
6.6.1	win	2022-12-14	18:24:59	18:50:50	1550451	62c3430ae19d78462af9e743	904935608	1	main_z	7	main_z	51	stimuli_target_squaretriangles.svg	stimuli_distractor_trianglediamonds.svg	3	yes	44	1	786
6.6.1	win	2022-12-14	18:24:59	18:50:50	1550451	62c3430ae19d78462af9e743	904935608	1	main_z	7	advance_on_keypress_ZEE	52	stimuli_target_squaretriangles.svg	stimuli_distractor_trianglediamonds.svg	3	yes	57	0	116
6.6.1	win	2022-12-14	18:24:59	18:50:52	1551991	62c3430ae19d78462af9e743	904935608	1	main_z	7	main_z	53	stimuli_target_diamondsquares.svg	stimuli_distractor_diamondtriangles.svg	24	yes	44	1	776
6.6.1	win	2022-12-14	18:24:59	18:50:52	1551991	62c3430ae19d78462af9e743	904935608	1	main_z	7	advance_on_keypress_ZEE	54	stimuli_target_diamondsquares.svg	stimuli_distractor_diamondtriangles.svg	24	yes	57	0	152
6.6.1	win	2022-12-14	18:24:59	18:50:53	1553571	62c3430ae19d78462af9e743	904935608	1	main_z	7	main_z	55	stimuli_distractor_trianglediamonds.svg	stimuli_target_squarediamonds.svg	12	yes	44	1	789
6.6.1	win	2022-12-14	18:24:59	18:50:53	1553571	62c3430ae19d78462af9e743	904935608	1	main_z	7	advance_on_keypress_ZEE	56	stimuli_distractor_trianglediamonds.svg	stimuli_target_squarediamonds.svg	12	yes	57	0	129
6.6.1	win	2022-12-14	18:24:59	18:50:56	1556332	62c3430ae19d78462af9e743	904935608	1	main_z	7	main_z	57	stimuli_distractor_diamondtriangles.svg	stimuli_distractor_trianglediamonds.svg	37	no	0	1	2000
6.6.1	win	2022-12-14	18:24:59	18:50:56	1556332	62c3430ae19d78462af9e743	904935608	1	main_z	7	advance_on_keypress_ZEE	58	stimuli_distractor_diamondtriangles.svg	stimuli_distractor_trianglediamonds.svg	37	no	57	0	352
6.6.1	win	2022-12-14	18:24:59	18:50:58	1558152	62c3430ae19d78462af9e743	904935608	1	main_z	7	main_z	59	stimuli_distractor_trianglediamonds.svg	stimuli_target_circletriangles.svg	9	yes	44	1	819
6.6.1	win	2022-12-14	18:24:59	18:50:58	1558152	62c3430ae19d78462af9e743	904935608	1	main_z	7	advance_on_keypress_ZEE	60	stimuli_distractor_trianglediamonds.svg	stimuli_target_circletriangles.svg	9	yes	57	0	126
6.6.1	win	2022-12-14	18:24:59	18:51:01	1560916	62c3430ae19d78462af9e743	904935608	1	main_z	7	main_z	61	stimuli_distractor_diamondtriangles.svg	stimuli_distractor_trianglediamonds.svg	38	no	0	1	2000
6.6.1	win	2022-12-14	18:24:59	18:51:01	1560916	62c3430ae19d78462af9e743	904935608	1	main_z	7	advance_on_keypress_ZEE	62	stimuli_distractor_diamondtriangles.svg	stimuli_distractor_trianglediamonds.svg	38	no	57	0	289
6.6.1	win	2022-12-14	18:24:59	18:51:03	1562722	62c3430ae19d78462af9e743	904935608	1	main_z	7	main_z	63	stimuli_distractor_diamondtriangles.svg	stimuli_target_circlediamonds.svg	14	yes	44	1	873
6.6.1	win	2022-12-14	18:24:59	18:51:03	1562722	62c3430ae19d78462af9e743	904935608	1	main_z	7	advance_on_keypress_ZEE	64	stimuli_distractor_diamondtriangles.svg	stimuli_target_circlediamonds.svg	14	yes	57	0	119
6.6.1	win	2022-12-14	18:24:59	18:51:04	1564332	62c3430ae19d78462af9e743	904935608	1	main_z	7	main_z	65	stimuli_distractor_diamondtriangles.svg	stimuli_target_squarediamonds.svg	16	yes	44	1	850
6.6.1	win	2022-12-14	18:24:59	18:51:04	1564332	62c3430ae19d78462af9e743	904935608	1	main_z	7	advance_on_keypress_ZEE	66	stimuli_distractor_diamondtriangles.svg	stimuli_target_squarediamonds.svg	16	yes	57	0	124
6.6.1	win	2022-12-14	18:24:59	18:51:06	1565952	62c3430ae19d78462af9e743	904935608	1	main_z	7	main_z	67	stimuli_target_circletriangles.svg	stimuli_distractor_diamondtriangles.svg	5	yes	44	1	854
6.6.1	win	2022-12-14	18:24:59	18:51:06	1565952	62c3430ae19d78462af9e743	904935608	1	main_z	7	advance_on_keypress_ZEE	68	stimuli_target_circletriangles.svg	stimuli_distractor_diamondtriangles.svg	5	yes	57	0	127
6.6.1	win	2022-12-14	18:24:59	18:51:07	1567482	62c3430ae19d78462af9e743	904935608	1	main_z	7	main_z	69	stimuli_target_diamondcircles.svg	stimuli_distractor_diamondtriangles.svg	23	yes	44	1	767
6.6.1	win	2022-12-14	18:24:59	18:51:07	1567482	62c3430ae19d78462af9e743	904935608	1	main_z	7	advance_on_keypress_ZEE	70	stimuli_target_diamondcircles.svg	stimuli_distractor_diamondtriangles.svg	23	yes	57	0	124
6.6.1	win	2022-12-14	18:24:59	18:51:09	1569032	62c3430ae19d78462af9e743	904935608	1	main_z	7	main_z	71	stimuli_target_diamondcircles.svg	stimuli_distractor_trianglediamonds.svg	19	yes	44	1	784
6.6.1	win	2022-12-14	18:24:59	18:51:09	1569032	62c3430ae19d78462af9e743	904935608	1	main_z	7	advance_on_keypress_ZEE	72	stimuli_target_diamondcircles.svg	stimuli_distractor_trianglediamonds.svg	19	yes	57	0	124
6.6.1	win	2022-12-14	18:24:59	18:51:12	1571804	62c3430ae19d78462af9e743	904935608	1	main_z	7	main_z	73	stimuli_distractor_trianglediamonds.svg	stimuli_distractor_trianglediamonds.svg	34	no	0	1	2000
6.6.1	win	2022-12-14	18:24:59	18:51:12	1571804	62c3430ae19d78462af9e743	904935608	1	main_z	7	advance_on_keypress_ZEE	74	stimuli_distractor_trianglediamonds.svg	stimuli_distractor_trianglediamonds.svg	34	no	57	0	287
6.6.1	win	2022-12-14	18:24:59	18:51:13	1573583	62c3430ae19d78462af9e743	904935608	1	main_z	7	main_z	75	stimuli_target_circlediamonds.svg	stimuli_distractor_diamondtriangles.svg	6	yes	44	1	850
6.6.1	win	2022-12-14	18:24:59	18:51:13	1573583	62c3430ae19d78462af9e743	904935608	1	main_z	7	advance_on_keypress_ZEE	76	stimuli_target_circlediamonds.svg	stimuli_distractor_diamondtriangles.svg	6	yes	57	0	124
6.6.1	win	2022-12-14	18:24:59	18:51:15	1575123	62c3430ae19d78462af9e743	904935608	1	main_z	7	main_z	77	stimuli_target_squarediamonds.svg	stimuli_distractor_diamondtriangles.svg	8	yes	44	1	774
6.6.1	win	2022-12-14	18:24:59	18:51:15	1575123	62c3430ae19d78462af9e743	904935608	1	main_z	7	advance_on_keypress_ZEE	78	stimuli_target_squarediamonds.svg	stimuli_distractor_diamondtriangles.svg	8	yes	57	0	120
6.6.1	win	2022-12-14	18:24:59	18:51:18	1577887	62c3430ae19d78462af9e743	904935608	1	main_z	7	main_z	79	stimuli_distractor_trianglediamonds.svg	stimuli_distractor_diamondtriangles.svg	35	no	0	1	2000
6.6.1	win	2022-12-14	18:24:59	18:51:18	1577887	62c3430ae19d78462af9e743	904935608	1	main_z	7	advance_on_keypress_ZEE	80	stimuli_distractor_trianglediamonds.svg	stimuli_distractor_diamondtriangles.svg	35	no	57	0	325
6.6.1	win	2022-12-14	18:24:59	18:51:20	1579763	62c3430ae19d78462af9e743	904935608	1	main_z	7	main_z	81	stimuli_target_trianglecircles.svg	stimuli_distractor_trianglediamonds.svg	17	yes	44	1	915
6.6.1	win	2022-12-14	18:24:59	18:51:20	1579763	62c3430ae19d78462af9e743	904935608	1	main_z	7	advance_on_keypress_ZEE	82	stimuli_target_trianglecircles.svg	stimuli_distractor_trianglediamonds.svg	17	yes	57	0	118
6.6.1	win	2022-12-14	18:24:59	18:51:21	1581293	62c3430ae19d78462af9e743	904935608	1	main_z	7	main_z	83	stimuli_distractor_diamondtriangles.svg	stimuli_target_circletriangles.svg	13	yes	44	1	778
6.6.1	win	2022-12-14	18:24:59	18:51:21	1581293	62c3430ae19d78462af9e743	904935608	1	main_z	7	advance_on_keypress_ZEE	84	stimuli_distractor_diamondtriangles.svg	stimuli_target_circletriangles.svg	13	yes	57	0	155
6.6.1	win	2022-12-14	18:24:59	18:51:23	1582903	62c3430ae19d78462af9e743	904935608	1	main_z	7	main_z	85	stimuli_target_circlediamonds.svg	stimuli_distractor_diamondtriangles.svg	6	yes	44	1	821
6.6.1	win	2022-12-14	18:24:59	18:51:23	1582903	62c3430ae19d78462af9e743	904935608	1	main_z	7	advance_on_keypress_ZEE	86	stimuli_target_circlediamonds.svg	stimuli_distractor_diamondtriangles.svg	6	yes	57	0	118
6.6.1	win	2022-12-14	18:24:59	18:51:24	1584453	62c3430ae19d78462af9e743	904935608	1	main_z	7	main_z	87	stimuli_target_squaretriangles.svg	stimuli_distractor_diamondtriangles.svg	7	yes	44	1	788
6.6.1	win	2022-12-14	18:24:59	18:51:24	1584453	62c3430ae19d78462af9e743	904935608	1	main_z	7	advance_on_keypress_ZEE	88	stimuli_target_squaretriangles.svg	stimuli_distractor_diamondtriangles.svg	7	yes	57	0	98
6.6.1	win	2022-12-14	18:24:59	18:51:26	1586114	62c3430ae19d78462af9e743	904935608	1	main_z	7	main_z	89	stimuli_distractor_trianglediamonds.svg	stimuli_target_diamondcircles.svg	27	yes	44	1	915
6.6.1	win	2022-12-14	18:24:59	18:51:26	1586114	62c3430ae19d78462af9e743	904935608	1	main_z	7	advance_on_keypress_ZEE	90	stimuli_distractor_trianglediamonds.svg	stimuli_target_diamondcircles.svg	27	yes	57	0	111
6.6.1	win	2022-12-14	18:24:59	18:51:28	1587714	62c3430ae19d78462af9e743	904935608	1	main_z	7	main_z	91	stimuli_distractor_diamondtriangles.svg	stimuli_target_trianglecircles.svg	29	yes	44	1	848
6.6.1	win	2022-12-14	18:24:59	18:51:28	1587714	62c3430ae19d78462af9e743	904935608	1	main_z	7	advance_on_keypress_ZEE	92	stimuli_distractor_diamondtriangles.svg	stimuli_target_trianglecircles.svg	29	yes	57	0	101
6.6.1	win	2022-12-14	18:24:59	18:51:29	1589244	62c3430ae19d78462af9e743	904935608	1	main_z	7	main_z	93	stimuli_target_squaretriangles.svg	stimuli_distractor_trianglediamonds.svg	3	yes	44	1	778
6.6.1	win	2022-12-14	18:24:59	18:51:29	1589244	62c3430ae19d78462af9e743	904935608	1	main_z	7	advance_on_keypress_ZEE	94	stimuli_target_squaretriangles.svg	stimuli_distractor_trianglediamonds.svg	3	yes	57	0	145
6.6.1	win	2022-12-14	18:24:59	18:51:32	1592015	62c3430ae19d78462af9e743	904935608	1	main_z	7	main_z	95	stimuli_distractor_diamondtriangles.svg	stimuli_distractor_diamondtriangles.svg	40	no	0	1	2000
6.6.1	win	2022-12-14	18:24:59	18:51:32	1592015	62c3430ae19d78462af9e743	904935608	1	main_z	7	advance_on_keypress_ZEE	96	stimuli_distractor_diamondtriangles.svg	stimuli_distractor_diamondtriangles.svg	40	no	57	0	282
6.6.1	win	2022-12-14	18:24:59	18:51:34	1593794	62c3430ae19d78462af9e743	904935608	1	main_z	7	main_z	97	stimuli_target_circletriangles.svg	stimuli_distractor_diamondtriangles.svg	5	yes	44	1	846
6.6.1	win	2022-12-14	18:24:59	18:51:34	1593794	62c3430ae19d78462af9e743	904935608	1	main_z	7	advance_on_keypress_ZEE	98	stimuli_target_circletriangles.svg	stimuli_distractor_diamondtriangles.svg	5	yes	57	0	106
6.6.1	win	2022-12-14	18:24:59	18:51:35	1595304	62c3430ae19d78462af9e743	904935608	1	main_z	7	main_z	99	stimuli_distractor_trianglediamonds.svg	stimuli_target_circletriangles.svg	9	yes	44	1	772
6.6.1	win	2022-12-14	18:24:59	18:51:35	1595304	62c3430ae19d78462af9e743	904935608	1	main_z	7	advance_on_keypress_ZEE	100	stimuli_distractor_trianglediamonds.svg	stimuli_target_circletriangles.svg	9	yes	57	0	119
6.6.1	win	2022-12-14	18:24:59	18:51:37	1597204	62c3430ae19d78462af9e743	904935608	1	main_z	7	main_z	101	stimuli_distractor_diamondtriangles.svg	stimuli_target_circlediamonds.svg	14	yes	44	1	1139
6.6.1	win	2022-12-14	18:24:59	18:51:37	1597204	62c3430ae19d78462af9e743	904935608	1	main_z	7	advance_on_keypress_ZEE	102	stimuli_distractor_diamondtriangles.svg	stimuli_target_circlediamonds.svg	14	yes	57	0	119
6.6.1	win	2022-12-14	18:24:59	18:51:39	1598984	62c3430ae19d78462af9e743	904935608	1	main_z	7	main_z	103	stimuli_distractor_trianglediamonds.svg	stimuli_target_trianglesquares.svg	26	yes	44	1	1019
6.6.1	win	2022-12-14	18:24:59	18:51:39	1598984	62c3430ae19d78462af9e743	904935608	1	main_z	7	advance_on_keypress_ZEE	104	stimuli_distractor_trianglediamonds.svg	stimuli_target_trianglesquares.svg	26	yes	57	0	126
6.6.1	win	2022-12-14	18:24:59	18:51:40	1600564	62c3430ae19d78462af9e743	904935608	1	main_z	7	main_z	105	stimuli_distractor_trianglediamonds.svg	stimuli_target_squarediamonds.svg	12	yes	44	1	816
6.6.1	win	2022-12-14	18:24:59	18:51:40	1600564	62c3430ae19d78462af9e743	904935608	1	main_z	7	advance_on_keypress_ZEE	106	stimuli_distractor_trianglediamonds.svg	stimuli_target_squarediamonds.svg	12	yes	57	0	113
6.6.1	win	2022-12-14	18:24:59	18:51:43	1603315	62c3430ae19d78462af9e743	904935608	1	main_z	7	main_z	107	stimuli_distractor_trianglediamonds.svg	stimuli_distractor_diamondtriangles.svg	36	no	0	1	2000
6.6.1	win	2022-12-14	18:24:59	18:51:43	1603315	62c3430ae19d78462af9e743	904935608	1	main_z	7	advance_on_keypress_ZEE	108	stimuli_distractor_trianglediamonds.svg	stimuli_distractor_diamondtriangles.svg	36	no	57	0	303
6.6.1	win	2022-12-14	18:24:59	18:51:45	1605115	62c3430ae19d78462af9e743	904935608	1	main_z	7	main_z	109	stimuli_target_squarediamonds.svg	stimuli_distractor_diamondtriangles.svg	8	yes	44	1	849
6.6.1	win	2022-12-14	18:24:59	18:51:45	1605115	62c3430ae19d78462af9e743	904935608	1	main_z	7	advance_on_keypress_ZEE	110	stimuli_target_squarediamonds.svg	stimuli_distractor_diamondtriangles.svg	8	yes	57	0	104
6.6.1	win	2022-12-14	18:24:59	18:51:48	1607870	62c3430ae19d78462af9e743	904935608	1	main_z	7	main_z	111	stimuli_distractor_diamondtriangles.svg	stimuli_distractor_trianglediamonds.svg	38	no	0	1	2000
6.6.1	win	2022-12-14	18:24:59	18:51:48	1607870	62c3430ae19d78462af9e743	904935608	1	main_z	7	advance_on_keypress_ZEE	112	stimuli_distractor_diamondtriangles.svg	stimuli_distractor_trianglediamonds.svg	38	no	57	0	294
6.6.1	win	2022-12-14	18:24:59	18:51:50	1609635	62c3430ae19d78462af9e743	904935608	1	main_z	7	main_z	113	stimuli_target_circletriangles.svg	stimuli_distractor_trianglediamonds.svg	1	yes	44	1	837
6.6.1	win	2022-12-14	18:24:59	18:51:50	1609635	62c3430ae19d78462af9e743	904935608	1	main_z	7	advance_on_keypress_ZEE	114	stimuli_target_circletriangles.svg	stimuli_distractor_trianglediamonds.svg	1	yes	57	0	87
6.6.1	win	2022-12-14	18:24:59	18:51:52	1612365	62c3430ae19d78462af9e743	904935608	1	main_z	7	main_z	115	stimuli_distractor_diamondtriangles.svg	stimuli_distractor_diamondtriangles.svg	39	no	0	1	2000
6.6.1	win	2022-12-14	18:24:59	18:51:52	1612365	62c3430ae19d78462af9e743	904935608	1	main_z	7	advance_on_keypress_ZEE	116	stimuli_distractor_diamondtriangles.svg	stimuli_distractor_diamondtriangles.svg	39	no	57	0	274
6.6.1	win	2022-12-14	18:24:59	18:51:54	1614115	62c3430ae19d78462af9e743	904935608	1	main_z	7	main_z	117	stimuli_target_trianglesquares.svg	stimuli_distractor_diamondtriangles.svg	22	yes	44	1	834
6.6.1	win	2022-12-14	18:24:59	18:51:54	1614115	62c3430ae19d78462af9e743	904935608	1	main_z	7	advance_on_keypress_ZEE	118	stimuli_target_trianglesquares.svg	stimuli_distractor_diamondtriangles.svg	22	yes	57	0	85
6.6.1	win	2022-12-14	18:24:59	18:51:57	1616853	62c3430ae19d78462af9e743	904935608	1	main_z	7	main_z	119	stimuli_distractor_trianglediamonds.svg	stimuli_distractor_trianglediamonds.svg	34	no	0	1	2000
6.6.1	win	2022-12-14	18:24:59	18:51:57	1616853	62c3430ae19d78462af9e743	904935608	1	main_z	7	advance_on_keypress_ZEE	120	stimuli_distractor_trianglediamonds.svg	stimuli_distractor_trianglediamonds.svg	34	no	57	0	320
6.6.1	win	2022-12-14	18:24:59	18:51:59	1618646	62c3430ae19d78462af9e743	904935608	1	main_z	7	main_z	121	stimuli_target_trianglecircles.svg	stimuli_distractor_diamondtriangles.svg	21	yes	44	1	830
6.6.1	win	2022-12-14	18:24:59	18:51:59	1618646	62c3430ae19d78462af9e743	904935608	1	main_z	7	advance_on_keypress_ZEE	122	stimuli_target_trianglecircles.svg	stimuli_distractor_diamondtriangles.svg	21	yes	57	0	108
6.6.1	win	2022-12-14	18:24:59	18:52:01	1621382	62c3430ae19d78462af9e743	904935608	1	main_z	7	main_z	123	stimuli_distractor_trianglediamonds.svg	stimuli_distractor_diamondtriangles.svg	35	no	0	1	2000
6.6.1	win	2022-12-14	18:24:59	18:52:01	1621382	62c3430ae19d78462af9e743	904935608	1	main_z	7	advance_on_keypress_ZEE	124	stimuli_distractor_trianglediamonds.svg	stimuli_distractor_diamondtriangles.svg	35	no	57	0	258
6.6.1	win	2022-12-14	18:24:59	18:52:03	1623156	62c3430ae19d78462af9e743	904935608	1	main_z	7	main_z	125	stimuli_target_diamondcircles.svg	stimuli_distractor_diamondtriangles.svg	23	yes	44	1	875
6.6.1	win	2022-12-14	18:24:59	18:52:03	1623156	62c3430ae19d78462af9e743	904935608	1	main_z	7	advance_on_keypress_ZEE	126	stimuli_target_diamondcircles.svg	stimuli_distractor_diamondtriangles.svg	23	yes	57	0	91
6.6.1	win	2022-12-14	18:24:59	18:52:05	1624666	62c3430ae19d78462af9e743	904935608	1	main_z	7	main_z	127	stimuli_distractor_diamondtriangles.svg	stimuli_target_squaretriangles.svg	15	yes	44	1	785
6.6.1	win	2022-12-14	18:24:59	18:52:05	1624666	62c3430ae19d78462af9e743	904935608	1	main_z	7	advance_on_keypress_ZEE	128	stimuli_distractor_diamondtriangles.svg	stimuli_target_squaretriangles.svg	15	yes	57	0	85
6.6.1	win	2022-12-14	18:24:59	18:52:06	1626216	62c3430ae19d78462af9e743	904935608	1	main_z	7	main_z	129	stimuli_distractor_trianglediamonds.svg	stimuli_target_squaretriangles.svg	11	yes	44	1	818
6.6.1	win	2022-12-14	18:24:59	18:52:06	1626216	62c3430ae19d78462af9e743	904935608	1	main_z	7	advance_on_keypress_ZEE	130	stimuli_distractor_trianglediamonds.svg	stimuli_target_squaretriangles.svg	11	yes	57	0	75
6.6.1	win	2022-12-14	18:24:59	18:52:08	1627836	62c3430ae19d78462af9e743	904935608	1	main_z	7	main_z	131	stimuli_target_circlediamonds.svg	stimuli_distractor_trianglediamonds.svg	2	yes	44	1	905
6.6.1	win	2022-12-14	18:24:59	18:52:08	1627836	62c3430ae19d78462af9e743	904935608	1	main_z	7	advance_on_keypress_ZEE	132	stimuli_target_circlediamonds.svg	stimuli_distractor_trianglediamonds.svg	2	yes	57	0	118
6.6.1	win	2022-12-14	18:24:59	18:52:09	1629467	62c3430ae19d78462af9e743	904935608	1	main_z	7	main_z	133	stimuli_target_trianglesquares.svg	stimuli_distractor_trianglediamonds.svg	18	yes	44	1	868
6.6.1	win	2022-12-14	18:24:59	18:52:09	1629467	62c3430ae19d78462af9e743	904935608	1	main_z	7	advance_on_keypress_ZEE	134	stimuli_target_trianglesquares.svg	stimuli_distractor_trianglediamonds.svg	18	yes	57	0	85
6.6.1	win	2022-12-14	18:24:59	18:52:11	1631007	62c3430ae19d78462af9e743	904935608	1	main_z	7	main_z	135	stimuli_distractor_trianglediamonds.svg	stimuli_target_trianglecircles.svg	25	yes	44	1	808
6.6.1	win	2022-12-14	18:24:59	18:52:11	1631007	62c3430ae19d78462af9e743	904935608	1	main_z	7	advance_on_keypress_ZEE	136	stimuli_distractor_trianglediamonds.svg	stimuli_target_trianglecircles.svg	25	yes	57	0	131
6.6.1	win	2022-12-14	18:24:59	18:52:12	1632587	62c3430ae19d78462af9e743	904935608	1	main_z	7	main_z	137	stimuli_distractor_diamondtriangles.svg	stimuli_target_diamondcircles.svg	31	yes	44	1	805
6.6.1	win	2022-12-14	18:24:59	18:52:12	1632587	62c3430ae19d78462af9e743	904935608	1	main_z	7	advance_on_keypress_ZEE	138	stimuli_distractor_diamondtriangles.svg	stimuli_target_diamondcircles.svg	31	yes	57	0	98
6.6.1	win	2022-12-14	18:24:59	18:52:14	1634137	62c3430ae19d78462af9e743	904935608	1	main_z	7	main_z	139	stimuli_target_diamondsquares.svg	stimuli_distractor_diamondtriangles.svg	24	yes	44	1	805
6.6.1	win	2022-12-14	18:24:59	18:52:14	1634137	62c3430ae19d78462af9e743	904935608	1	main_z	7	advance_on_keypress_ZEE	140	stimuli_target_diamondsquares.svg	stimuli_distractor_diamondtriangles.svg	24	yes	57	0	108
6.6.1	win	2022-12-14	18:24:59	18:52:16	1635677	62c3430ae19d78462af9e743	904935608	1	main_z	7	main_z	141	stimuli_target_diamondsquares.svg	stimuli_distractor_trianglediamonds.svg	20	yes	44	1	796
6.6.1	win	2022-12-14	18:24:59	18:52:16	1635677	62c3430ae19d78462af9e743	904935608	1	main_z	7	advance_on_keypress_ZEE	142	stimuli_target_diamondsquares.svg	stimuli_distractor_trianglediamonds.svg	20	yes	57	0	96
6.6.1	win	2022-12-14	18:24:59	18:52:17	1637147	62c3430ae19d78462af9e743	904935608	1	main_z	7	main_z	143	stimuli_distractor_diamondtriangles.svg	stimuli_target_diamondsquares.svg	32	yes	44	1	749
6.6.1	win	2022-12-14	18:24:59	18:52:17	1637147	62c3430ae19d78462af9e743	904935608	1	main_z	7	advance_on_keypress_ZEE	144	stimuli_distractor_diamondtriangles.svg	stimuli_target_diamondsquares.svg	32	yes	57	0	133
6.6.1	win	2022-12-14	18:24:59	18:52:19	1638677	62c3430ae19d78462af9e743	904935608	1	main_z	7	main_z	145	stimuli_distractor_trianglediamonds.svg	stimuli_target_diamondsquares.svg	28	yes	44	1	746
6.6.1	win	2022-12-14	18:24:59	18:52:19	1638677	62c3430ae19d78462af9e743	904935608	1	main_z	7	advance_on_keypress_ZEE	146	stimuli_distractor_trianglediamonds.svg	stimuli_target_diamondsquares.svg	28	yes	57	0	96
6.6.1	win	2022-12-14	18:24:59	18:52:20	1640277	62c3430ae19d78462af9e743	904935608	1	main_z	7	main_z	147	stimuli_distractor_diamondtriangles.svg	stimuli_target_squarediamonds.svg	16	yes	44	1	879
6.6.1	win	2022-12-14	18:24:59	18:52:20	1640277	62c3430ae19d78462af9e743	904935608	1	main_z	7	advance_on_keypress_ZEE	148	stimuli_distractor_diamondtriangles.svg	stimuli_target_squarediamonds.svg	16	yes	57	0	136
6.6.1	win	2022-12-14	18:24:59	18:52:23	1642707	62c3430ae19d78462af9e743	904935608	1	main_z	7	main_z	149	stimuli_distractor_trianglediamonds.svg	stimuli_target_circlediamonds.svg	10	yes	44	1	1659
6.6.1	win	2022-12-14	18:24:59	18:52:23	1642707	62c3430ae19d78462af9e743	904935608	1	main_z	7	advance_on_keypress_ZEE	150	stimuli_distractor_trianglediamonds.svg	stimuli_target_circlediamonds.svg	10	yes	57	0	103
6.6.1	win	2022-12-14	18:24:59	18:52:24	1644268	62c3430ae19d78462af9e743	904935608	1	main_z	7	main_z	151	stimuli_distractor_diamondtriangles.svg	stimuli_target_trianglesquares.svg	30	yes	44	1	819
6.6.1	win	2022-12-14	18:24:59	18:52:24	1644268	62c3430ae19d78462af9e743	904935608	1	main_z	7	advance_on_keypress_ZEE	152	stimuli_distractor_diamondtriangles.svg	stimuli_target_trianglesquares.svg	30	yes	57	0	86
6.6.1	win	2022-12-14	18:24:59	18:52:26	1645767	62c3430ae19d78462af9e743	904935608	1	main_z	7	main_z	153	stimuli_target_squarediamonds.svg	stimuli_distractor_trianglediamonds.svg	4	yes	44	1	769
6.6.1	win	2022-12-14	18:24:59	18:52:26	1645767	62c3430ae19d78462af9e743	904935608	1	main_z	7	advance_on_keypress_ZEE	154	stimuli_target_squarediamonds.svg	stimuli_distractor_trianglediamonds.svg	4	yes	57	0	76
6.6.1	win	2022-12-14	18:24:59	18:52:28	1648481	62c3430ae19d78462af9e743	904935608	1	main_z	7	main_z	155	stimuli_distractor_diamondtriangles.svg	stimuli_distractor_trianglediamonds.svg	37	no	0	1	2000
6.6.1	win	2022-12-14	18:24:59	18:52:28	1648481	62c3430ae19d78462af9e743	904935608	1	main_z	7	advance_on_keypress_ZEE	156	stimuli_distractor_diamondtriangles.svg	stimuli_distractor_trianglediamonds.svg	37	no	57	0	399
6.6.1	win	2022-12-14	18:24:59	18:52:30	1650378	62c3430ae19d78462af9e743	904935608	1	main_z	7	main_z	157	stimuli_target_diamondcircles.svg	stimuli_distractor_trianglediamonds.svg	19	yes	44	1	847
6.6.1	win	2022-12-14	18:24:59	18:52:30	1650378	62c3430ae19d78462af9e743	904935608	1	main_z	7	advance_on_keypress_ZEE	158	stimuli_target_diamondcircles.svg	stimuli_distractor_trianglediamonds.svg	19	yes	57	0	97
6.6.1	win	2022-12-14	18:24:59	18:52:33	1653103	62c3430ae19d78462af9e743	904935608	1	main_z	7	main_z	159	stimuli_distractor_trianglediamonds.svg	stimuli_distractor_trianglediamonds.svg	33	no	0	1	2000
6.6.1	win	2022-12-14	18:24:59	18:52:33	1653103	62c3430ae19d78462af9e743	904935608	1	main_z	7	advance_on_keypress_ZEE	160	stimuli_distractor_trianglediamonds.svg	stimuli_distractor_trianglediamonds.svg	33	no	57	0	274
6.6.1	win	2022-12-14	18:24:59	18:52:52	1672110	62c3430ae19d78462af9e743	904935608	1	practice_slash	9	practice_slash	1	stimuli_target_squarediamonds.svg	stimuli_distractor_diamondtriangles.svg	2	yes	53	1	828
6.6.1	win	2022-12-14	18:24:59	18:52:52	1672110	62c3430ae19d78462af9e743	904935608	1	practice_slash	9	advance_on_keypress_SLASH	2	stimuli_target_squarediamonds.svg	stimuli_distractor_diamondtriangles.svg	2	yes	57	0	668
6.6.1	win	2022-12-14	18:24:59	18:52:55	1675250	62c3430ae19d78462af9e743	904935608	1	practice_slash	9	practice_slash	3	stimuli_distractor_diamondtriangles.svg	stimuli_target_trianglecircles.svg	9	yes	53	1	818
6.6.1	win	2022-12-14	18:24:59	18:52:55	1675250	62c3430ae19d78462af9e743	904935608	1	practice_slash	9	advance_on_keypress_SLASH	4	stimuli_distractor_diamondtriangles.svg	stimuli_target_trianglecircles.svg	9	yes	57	0	305
6.6.1	win	2022-12-14	18:24:59	18:52:58	1677970	62c3430ae19d78462af9e743	904935608	1	practice_slash	9	practice_slash	5	stimuli_target_diamondsquares.svg	stimuli_distractor_diamondtriangles.svg	3	yes	53	1	772
6.6.1	win	2022-12-14	18:24:59	18:52:58	1677970	62c3430ae19d78462af9e743	904935608	1	practice_slash	9	advance_on_keypress_SLASH	6	stimuli_target_diamondsquares.svg	stimuli_distractor_diamondtriangles.svg	3	yes	57	0	348
6.6.1	win	2022-12-14	18:24:59	18:53:02	1681966	62c3430ae19d78462af9e743	904935608	1	practice_slash	9	practice_slash	7	stimuli_distractor_trianglediamonds.svg	stimuli_distractor_diamondtriangles.svg	16	no	0	1	2000
6.6.1	win	2022-12-14	18:24:59	18:53:02	1681966	62c3430ae19d78462af9e743	904935608	1	practice_slash	9	advance_on_keypress_SLASH	8	stimuli_distractor_trianglediamonds.svg	stimuli_distractor_diamondtriangles.svg	16	no	57	0	279
6.6.1	win	2022-12-14	18:24:59	18:53:05	1684791	62c3430ae19d78462af9e743	904935608	1	practice_slash	9	practice_slash	9	stimuli_distractor_trianglediamonds.svg	stimuli_target_circlediamonds.svg	10	yes	53	1	909
6.6.1	win	2022-12-14	18:24:59	18:53:05	1684791	62c3430ae19d78462af9e743	904935608	1	practice_slash	9	advance_on_keypress_SLASH	10	stimuli_distractor_trianglediamonds.svg	stimuli_target_circlediamonds.svg	10	yes	57	0	323
6.6.1	win	2022-12-14	18:24:59	18:53:07	1687621	62c3430ae19d78462af9e743	904935608	1	practice_slash	9	practice_slash	11	stimuli_target_circlediamonds.svg	stimuli_distractor_diamondtriangles.svg	1	yes	53	1	873
6.6.1	win	2022-12-14	18:24:59	18:53:07	1687621	62c3430ae19d78462af9e743	904935608	1	practice_slash	9	advance_on_keypress_SLASH	12	stimuli_target_circlediamonds.svg	stimuli_distractor_diamondtriangles.svg	1	yes	57	0	379
6.6.1	win	2022-12-14	18:24:59	18:53:10	1690491	62c3430ae19d78462af9e743	904935608	1	practice_slash	9	practice_slash	13	stimuli_distractor_diamondtriangles.svg	stimuli_target_diamondcircles.svg	8	yes	53	1	859
6.6.1	win	2022-12-14	18:24:59	18:53:10	1690491	62c3430ae19d78462af9e743	904935608	1	practice_slash	9	advance_on_keypress_SLASH	14	stimuli_distractor_diamondtriangles.svg	stimuli_target_diamondcircles.svg	8	yes	57	0	313
6.6.1	win	2022-12-14	18:24:59	18:53:13	1693381	62c3430ae19d78462af9e743	904935608	1	practice_slash	9	practice_slash	15	stimuli_distractor_trianglediamonds.svg	stimuli_target_squarediamonds.svg	11	yes	53	1	949
6.6.1	win	2022-12-14	18:24:59	18:53:13	1693381	62c3430ae19d78462af9e743	904935608	1	practice_slash	9	advance_on_keypress_SLASH	16	stimuli_distractor_trianglediamonds.svg	stimuli_target_squarediamonds.svg	11	yes	57	0	344
6.6.1	win	2022-12-14	18:24:59	18:53:16	1696251	62c3430ae19d78462af9e743	904935608	1	practice_slash	9	practice_slash	17	stimuli_target_diamondsquares.svg	stimuli_distractor_trianglediamonds.svg	6	yes	53	1	887
6.6.1	win	2022-12-14	18:24:59	18:53:16	1696251	62c3430ae19d78462af9e743	904935608	1	practice_slash	9	advance_on_keypress_SLASH	18	stimuli_target_diamondsquares.svg	stimuli_distractor_trianglediamonds.svg	6	yes	57	0	287
6.6.1	win	2022-12-14	18:24:59	18:53:19	1699182	62c3430ae19d78462af9e743	904935608	1	practice_slash	9	practice_slash	19	stimuli_target_squarediamonds.svg	stimuli_distractor_trianglediamonds.svg	5	yes	53	1	1000
6.6.1	win	2022-12-14	18:24:59	18:53:19	1699182	62c3430ae19d78462af9e743	904935608	1	practice_slash	9	advance_on_keypress_SLASH	20	stimuli_target_squarediamonds.svg	stimuli_distractor_trianglediamonds.svg	5	yes	57	0	434
6.6.1	win	2022-12-14	18:24:59	18:53:23	1703266	62c3430ae19d78462af9e743	904935608	1	practice_slash	9	practice_slash	21	stimuli_distractor_trianglediamonds.svg	stimuli_distractor_trianglediamonds.svg	15	no	0	1	2000
6.6.1	win	2022-12-14	18:24:59	18:53:23	1703266	62c3430ae19d78462af9e743	904935608	1	practice_slash	9	advance_on_keypress_SLASH	22	stimuli_distractor_trianglediamonds.svg	stimuli_distractor_trianglediamonds.svg	15	no	57	0	250
6.6.1	win	2022-12-14	18:24:59	18:53:27	1707164	62c3430ae19d78462af9e743	904935608	1	practice_slash	9	practice_slash	23	stimuli_distractor_diamondtriangles.svg	stimuli_distractor_trianglediamonds.svg	14	no	0	1	2000
6.6.1	win	2022-12-14	18:24:59	18:53:27	1707164	62c3430ae19d78462af9e743	904935608	1	practice_slash	9	advance_on_keypress_SLASH	24	stimuli_distractor_diamondtriangles.svg	stimuli_distractor_trianglediamonds.svg	14	no	57	0	271
6.6.1	win	2022-12-14	18:24:59	18:53:30	1709945	62c3430ae19d78462af9e743	904935608	1	practice_slash	9	practice_slash	25	stimuli_distractor_diamondtriangles.svg	stimuli_target_circletriangles.svg	7	yes	53	1	862
6.6.1	win	2022-12-14	18:24:59	18:53:30	1709945	62c3430ae19d78462af9e743	904935608	1	practice_slash	9	advance_on_keypress_SLASH	26	stimuli_distractor_diamondtriangles.svg	stimuli_target_circletriangles.svg	7	yes	57	0	625
6.6.1	win	2022-12-14	18:24:59	18:53:33	1713233	62c3430ae19d78462af9e743	904935608	1	practice_slash	9	practice_slash	27	stimuli_distractor_trianglediamonds.svg	stimuli_target_diamondcircles.svg	12	yes	53	1	1035
6.6.1	win	2022-12-14	18:24:59	18:53:33	1713233	62c3430ae19d78462af9e743	904935608	1	practice_slash	9	advance_on_keypress_SLASH	28	stimuli_distractor_trianglediamonds.svg	stimuli_target_diamondcircles.svg	12	yes	57	0	475
6.6.1	win	2022-12-14	18:24:59	18:53:37	1717353	62c3430ae19d78462af9e743	904935608	1	practice_slash	9	practice_slash	29	stimuli_distractor_diamondtriangles.svg	stimuli_distractor_diamondtriangles.svg	13	no	0	1	2000
6.6.1	win	2022-12-14	18:24:59	18:53:37	1717353	62c3430ae19d78462af9e743	904935608	1	practice_slash	9	advance_on_keypress_SLASH	30	stimuli_distractor_diamondtriangles.svg	stimuli_distractor_diamondtriangles.svg	13	no	57	0	258
6.6.1	win	2022-12-14	18:24:59	18:53:40	1720184	62c3430ae19d78462af9e743	904935608	1	practice_slash	9	practice_slash	31	stimuli_target_circlediamonds.svg	stimuli_distractor_trianglediamonds.svg	4	yes	53	1	935
6.6.1	win	2022-12-14	18:24:59	18:53:40	1720184	62c3430ae19d78462af9e743	904935608	1	practice_slash	9	advance_on_keypress_SLASH	32	stimuli_target_circlediamonds.svg	stimuli_distractor_trianglediamonds.svg	4	yes	57	0	485
6.6.1	win	2022-12-14	18:24:59	18:53:46	1725943	62c3430ae19d78462af9e743	904935608	1	main_slash	11	main_slash	1	stimuli_distractor_trianglediamonds.svg	stimuli_target_squaretriangles.svg	11	yes	53	1	813
6.6.1	win	2022-12-14	18:24:59	18:53:46	1725943	62c3430ae19d78462af9e743	904935608	1	main_slash	11	advance_on_keypress_SLASH	2	stimuli_distractor_trianglediamonds.svg	stimuli_target_squaretriangles.svg	11	yes	57	0	276
6.6.1	win	2022-12-14	18:24:59	18:53:47	1727553	62c3430ae19d78462af9e743	904935608	1	main_slash	11	main_slash	3	stimuli_target_trianglecircles.svg	stimuli_distractor_trianglediamonds.svg	17	yes	53	1	706
6.6.1	win	2022-12-14	18:24:59	18:53:47	1727553	62c3430ae19d78462af9e743	904935608	1	main_slash	11	advance_on_keypress_SLASH	4	stimuli_target_trianglecircles.svg	stimuli_distractor_trianglediamonds.svg	17	yes	57	0	239
6.6.1	win	2022-12-14	18:24:59	18:53:49	1729103	62c3430ae19d78462af9e743	904935608	1	main_slash	11	main_slash	5	stimuli_target_circlediamonds.svg	stimuli_distractor_trianglediamonds.svg	2	yes	53	1	673
6.6.1	win	2022-12-14	18:24:59	18:53:49	1729103	62c3430ae19d78462af9e743	904935608	1	main_slash	11	advance_on_keypress_SLASH	6	stimuli_target_circlediamonds.svg	stimuli_distractor_trianglediamonds.svg	2	yes	57	0	219
6.6.1	win	2022-12-14	18:24:59	18:53:51	1730703	62c3430ae19d78462af9e743	904935608	1	main_slash	11	main_slash	7	stimuli_distractor_diamondtriangles.svg	stimuli_target_trianglesquares.svg	30	yes	53	1	739
6.6.1	win	2022-12-14	18:24:59	18:53:51	1730703	62c3430ae19d78462af9e743	904935608	1	main_slash	11	advance_on_keypress_SLASH	8	stimuli_distractor_diamondtriangles.svg	stimuli_target_trianglesquares.svg	30	yes	57	0	169
6.6.1	win	2022-12-14	18:24:59	18:53:52	1732233	62c3430ae19d78462af9e743	904935608	1	main_slash	11	main_slash	9	stimuli_target_squarediamonds.svg	stimuli_distractor_diamondtriangles.svg	8	yes	53	1	719
6.6.1	win	2022-12-14	18:24:59	18:53:52	1732233	62c3430ae19d78462af9e743	904935608	1	main_slash	11	advance_on_keypress_SLASH	10	stimuli_target_squarediamonds.svg	stimuli_distractor_diamondtriangles.svg	8	yes	57	0	166
6.6.1	win	2022-12-14	18:24:59	18:53:54	1733784	62c3430ae19d78462af9e743	904935608	1	main_slash	11	main_slash	11	stimuli_distractor_trianglediamonds.svg	stimuli_target_circlediamonds.svg	10	yes	53	1	736
6.6.1	win	2022-12-14	18:24:59	18:53:54	1733784	62c3430ae19d78462af9e743	904935608	1	main_slash	11	advance_on_keypress_SLASH	12	stimuli_distractor_trianglediamonds.svg	stimuli_target_circlediamonds.svg	10	yes	57	0	206
6.6.1	win	2022-12-14	18:24:59	18:53:57	1736635	62c3430ae19d78462af9e743	904935608	1	main_slash	11	main_slash	13	stimuli_distractor_trianglediamonds.svg	stimuli_distractor_trianglediamonds.svg	34	no	0	1	2000
6.6.1	win	2022-12-14	18:24:59	18:53:57	1736635	62c3430ae19d78462af9e743	904935608	1	main_slash	11	advance_on_keypress_SLASH	14	stimuli_distractor_trianglediamonds.svg	stimuli_distractor_trianglediamonds.svg	34	no	57	0	286
6.6.1	win	2022-12-14	18:24:59	18:53:58	1738354	62c3430ae19d78462af9e743	904935608	1	main_slash	11	main_slash	15	stimuli_distractor_trianglediamonds.svg	stimuli_target_diamondcircles.svg	27	yes	53	1	790
6.6.1	win	2022-12-14	18:24:59	18:53:58	1738354	62c3430ae19d78462af9e743	904935608	1	main_slash	11	advance_on_keypress_SLASH	16	stimuli_distractor_trianglediamonds.svg	stimuli_target_diamondcircles.svg	27	yes	57	0	211
6.6.1	win	2022-12-14	18:24:59	18:54:00	1739984	62c3430ae19d78462af9e743	904935608	1	main_slash	11	main_slash	17	stimuli_target_trianglesquares.svg	stimuli_distractor_diamondtriangles.svg	22	yes	53	1	787
6.6.1	win	2022-12-14	18:24:59	18:54:00	1739984	62c3430ae19d78462af9e743	904935608	1	main_slash	11	advance_on_keypress_SLASH	18	stimuli_target_trianglesquares.svg	stimuli_distractor_diamondtriangles.svg	22	yes	57	0	197
6.6.1	win	2022-12-14	18:24:59	18:54:03	1742819	62c3430ae19d78462af9e743	904935608	1	main_slash	11	main_slash	19	stimuli_distractor_diamondtriangles.svg	stimuli_distractor_trianglediamonds.svg	37	no	0	1	2000
6.6.1	win	2022-12-14	18:24:59	18:54:03	1742819	62c3430ae19d78462af9e743	904935608	1	main_slash	11	advance_on_keypress_SLASH	20	stimuli_distractor_diamondtriangles.svg	stimuli_distractor_trianglediamonds.svg	37	no	57	0	284
6.6.1	win	2022-12-14	18:24:59	18:54:04	1744594	62c3430ae19d78462af9e743	904935608	1	main_slash	11	main_slash	21	stimuli_target_diamondsquares.svg	stimuli_distractor_trianglediamonds.svg	20	yes	53	1	847
6.6.1	win	2022-12-14	18:24:59	18:54:04	1744594	62c3430ae19d78462af9e743	904935608	1	main_slash	11	advance_on_keypress_SLASH	22	stimuli_target_diamondsquares.svg	stimuli_distractor_trianglediamonds.svg	20	yes	57	0	177
6.6.1	win	2022-12-14	18:24:59	18:54:06	1746204	62c3430ae19d78462af9e743	904935608	1	main_slash	11	main_slash	23	stimuli_distractor_trianglediamonds.svg	stimuli_target_trianglecircles.svg	25	yes	53	1	807
6.6.1	win	2022-12-14	18:24:59	18:54:06	1746204	62c3430ae19d78462af9e743	904935608	1	main_slash	11	advance_on_keypress_SLASH	24	stimuli_distractor_trianglediamonds.svg	stimuli_target_trianglecircles.svg	25	yes	57	0	171
6.6.1	win	2022-12-14	18:24:59	18:54:08	1747815	62c3430ae19d78462af9e743	904935608	1	main_slash	11	main_slash	25	stimuli_target_squarediamonds.svg	stimuli_distractor_trianglediamonds.svg	4	yes	53	1	801
6.6.1	win	2022-12-14	18:24:59	18:54:08	1747815	62c3430ae19d78462af9e743	904935608	1	main_slash	11	advance_on_keypress_SLASH	26	stimuli_target_squarediamonds.svg	stimuli_distractor_trianglediamonds.svg	4	yes	57	0	204
6.6.1	win	2022-12-14	18:24:59	18:54:11	1750664	62c3430ae19d78462af9e743	904935608	1	main_slash	11	main_slash	27	stimuli_distractor_diamondtriangles.svg	stimuli_distractor_diamondtriangles.svg	40	no	0	1	2000
6.6.1	win	2022-12-14	18:24:59	18:54:11	1750664	62c3430ae19d78462af9e743	904935608	1	main_slash	11	advance_on_keypress_SLASH	28	stimuli_distractor_diamondtriangles.svg	stimuli_distractor_diamondtriangles.svg	40	no	57	0	274
6.6.1	win	2022-12-14	18:24:59	18:54:12	1752425	62c3430ae19d78462af9e743	904935608	1	main_slash	11	main_slash	29	stimuli_distractor_diamondtriangles.svg	stimuli_target_squarediamonds.svg	16	yes	53	1	845
6.6.1	win	2022-12-14	18:24:59	18:54:12	1752425	62c3430ae19d78462af9e743	904935608	1	main_slash	11	advance_on_keypress_SLASH	30	stimuli_distractor_diamondtriangles.svg	stimuli_target_squarediamonds.svg	16	yes	57	0	184
6.6.1	win	2022-12-14	18:24:59	18:54:14	1754075	62c3430ae19d78462af9e743	904935608	1	main_slash	11	main_slash	31	stimuli_distractor_trianglediamonds.svg	stimuli_target_trianglesquares.svg	26	yes	53	1	828
6.6.1	win	2022-12-14	18:24:59	18:54:14	1754075	62c3430ae19d78462af9e743	904935608	1	main_slash	11	advance_on_keypress_SLASH	32	stimuli_distractor_trianglediamonds.svg	stimuli_target_trianglesquares.svg	26	yes	57	0	185
6.6.1	win	2022-12-14	18:24:59	18:54:16	1755795	62c3430ae19d78462af9e743	904935608	1	main_slash	11	main_slash	33	stimuli_distractor_trianglediamonds.svg	stimuli_target_circletriangles.svg	9	yes	53	1	898
6.6.1	win	2022-12-14	18:24:59	18:54:16	1755795	62c3430ae19d78462af9e743	904935608	1	main_slash	11	advance_on_keypress_SLASH	34	stimuli_distractor_trianglediamonds.svg	stimuli_target_circletriangles.svg	9	yes	57	0	162
6.6.1	win	2022-12-14	18:24:59	18:54:17	1757405	62c3430ae19d78462af9e743	904935608	1	main_slash	11	main_slash	35	stimuli_distractor_diamondtriangles.svg	stimuli_target_trianglecircles.svg	29	yes	53	1	808
6.6.1	win	2022-12-14	18:24:59	18:54:17	1757405	62c3430ae19d78462af9e743	904935608	1	main_slash	11	advance_on_keypress_SLASH	36	stimuli_distractor_diamondtriangles.svg	stimuli_target_trianglecircles.svg	29	yes	57	0	192
6.6.1	win	2022-12-14	18:24:59	18:54:20	1760230	62c3430ae19d78462af9e743	904935608	1	main_slash	11	main_slash	37	stimuli_distractor_trianglediamonds.svg	stimuli_distractor_diamondtriangles.svg	35	no	0	1	2000
6.6.1	win	2022-12-14	18:24:59	18:54:20	1760230	62c3430ae19d78462af9e743	904935608	1	main_slash	11	advance_on_keypress_SLASH	38	stimuli_distractor_trianglediamonds.svg	stimuli_distractor_diamondtriangles.svg	35	no	57	0	268
6.6.1	win	2022-12-14	18:24:59	18:54:22	1762096	62c3430ae19d78462af9e743	904935608	1	main_slash	11	main_slash	39	stimuli_target_circletriangles.svg	stimuli_distractor_trianglediamonds.svg	1	yes	53	1	948
6.6.1	win	2022-12-14	18:24:59	18:54:22	1762096	62c3430ae19d78462af9e743	904935608	1	main_slash	11	advance_on_keypress_SLASH	40	stimuli_target_circletriangles.svg	stimuli_distractor_trianglediamonds.svg	1	yes	57	0	102
6.6.1	win	2022-12-14	18:24:59	18:54:23	1763606	62c3430ae19d78462af9e743	904935608	1	main_slash	11	main_slash	41	stimuli_distractor_diamondtriangles.svg	stimuli_target_squaretriangles.svg	15	yes	53	1	758
6.6.1	win	2022-12-14	18:24:59	18:54:23	1763606	62c3430ae19d78462af9e743	904935608	1	main_slash	11	advance_on_keypress_SLASH	42	stimuli_distractor_diamondtriangles.svg	stimuli_target_squaretriangles.svg	15	yes	57	0	182
6.6.1	win	2022-12-14	18:24:59	18:54:25	1765176	62c3430ae19d78462af9e743	904935608	1	main_slash	11	main_slash	43	stimuli_distractor_diamondtriangles.svg	stimuli_target_circletriangles.svg	13	yes	53	1	745
6.6.1	win	2022-12-14	18:24:59	18:54:25	1765176	62c3430ae19d78462af9e743	904935608	1	main_slash	11	advance_on_keypress_SLASH	44	stimuli_distractor_diamondtriangles.svg	stimuli_target_circletriangles.svg	13	yes	57	0	175
6.6.1	win	2022-12-14	18:24:59	18:54:28	1767985	62c3430ae19d78462af9e743	904935608	1	main_slash	11	main_slash	45	stimuli_distractor_trianglediamonds.svg	stimuli_distractor_trianglediamonds.svg	33	no	0	1	2000
6.6.1	win	2022-12-14	18:24:59	18:54:28	1767985	62c3430ae19d78462af9e743	904935608	1	main_slash	11	advance_on_keypress_SLASH	46	stimuli_distractor_trianglediamonds.svg	stimuli_distractor_trianglediamonds.svg	33	no	57	0	69
6.6.1	win	2022-12-14	18:24:59	18:54:30	1769656	62c3430ae19d78462af9e743	904935608	1	main_slash	11	main_slash	47	stimuli_distractor_trianglediamonds.svg	stimuli_target_diamondsquares.svg	28	yes	53	1	959
6.6.1	win	2022-12-14	18:24:59	18:54:30	1769656	62c3430ae19d78462af9e743	904935608	1	main_slash	11	advance_on_keypress_SLASH	48	stimuli_distractor_trianglediamonds.svg	stimuli_target_diamondsquares.svg	28	yes	57	0	113
6.6.1	win	2022-12-14	18:24:59	18:54:31	1771136	62c3430ae19d78462af9e743	904935608	1	main_slash	11	main_slash	49	stimuli_distractor_diamondtriangles.svg	stimuli_target_circlediamonds.svg	14	yes	53	1	739
6.6.1	win	2022-12-14	18:24:59	18:54:31	1771136	62c3430ae19d78462af9e743	904935608	1	main_slash	11	advance_on_keypress_SLASH	50	stimuli_distractor_diamondtriangles.svg	stimuli_target_circlediamonds.svg	14	yes	57	0	169
6.6.1	win	2022-12-14	18:24:59	18:54:33	1772686	62c3430ae19d78462af9e743	904935608	1	main_slash	11	main_slash	51	stimuli_target_squaretriangles.svg	stimuli_distractor_trianglediamonds.svg	3	yes	53	1	739
6.6.1	win	2022-12-14	18:24:59	18:54:33	1772686	62c3430ae19d78462af9e743	904935608	1	main_slash	11	advance_on_keypress_SLASH	52	stimuli_target_squaretriangles.svg	stimuli_distractor_trianglediamonds.svg	3	yes	57	0	159
6.6.1	win	2022-12-14	18:24:59	18:54:34	1774216	62c3430ae19d78462af9e743	904935608	1	main_slash	11	main_slash	53	stimuli_target_squaretriangles.svg	stimuli_distractor_diamondtriangles.svg	7	yes	53	1	736
6.6.1	win	2022-12-14	18:24:59	18:54:34	1774216	62c3430ae19d78462af9e743	904935608	1	main_slash	11	advance_on_keypress_SLASH	54	stimuli_target_squaretriangles.svg	stimuli_distractor_diamondtriangles.svg	7	yes	57	0	136
6.6.1	win	2022-12-14	18:24:59	18:54:36	1775737	62c3430ae19d78462af9e743	904935608	1	main_slash	11	main_slash	55	stimuli_target_trianglesquares.svg	stimuli_distractor_trianglediamonds.svg	18	yes	53	1	740
6.6.1	win	2022-12-14	18:24:59	18:54:36	1775737	62c3430ae19d78462af9e743	904935608	1	main_slash	11	advance_on_keypress_SLASH	56	stimuli_target_trianglesquares.svg	stimuli_distractor_trianglediamonds.svg	18	yes	57	0	180
6.6.1	win	2022-12-14	18:24:59	18:54:37	1777307	62c3430ae19d78462af9e743	904935608	1	main_slash	11	main_slash	57	stimuli_distractor_diamondtriangles.svg	stimuli_target_diamondcircles.svg	31	yes	53	1	759
6.6.1	win	2022-12-14	18:24:59	18:54:37	1777307	62c3430ae19d78462af9e743	904935608	1	main_slash	11	advance_on_keypress_SLASH	58	stimuli_distractor_diamondtriangles.svg	stimuli_target_diamondcircles.svg	31	yes	57	0	153
6.6.1	win	2022-12-14	18:24:59	18:54:39	1778837	62c3430ae19d78462af9e743	904935608	1	main_slash	11	main_slash	59	stimuli_target_diamondsquares.svg	stimuli_distractor_diamondtriangles.svg	24	yes	53	1	740
6.6.1	win	2022-12-14	18:24:59	18:54:39	1778837	62c3430ae19d78462af9e743	904935608	1	main_slash	11	advance_on_keypress_SLASH	60	stimuli_target_diamondsquares.svg	stimuli_distractor_diamondtriangles.svg	24	yes	57	0	210
6.6.1	win	2022-12-14	18:24:59	18:54:40	1780417	62c3430ae19d78462af9e743	904935608	1	main_slash	11	main_slash	61	stimuli_target_trianglecircles.svg	stimuli_distractor_diamondtriangles.svg	21	yes	53	1	736
6.6.1	win	2022-12-14	18:24:59	18:54:40	1780417	62c3430ae19d78462af9e743	904935608	1	main_slash	11	advance_on_keypress_SLASH	62	stimuli_target_trianglecircles.svg	stimuli_distractor_diamondtriangles.svg	21	yes	57	0	156
6.6.1	win	2022-12-14	18:24:59	18:54:42	1781967	62c3430ae19d78462af9e743	904935608	1	main_slash	11	main_slash	63	stimuli_target_circletriangles.svg	stimuli_distractor_diamondtriangles.svg	5	yes	53	1	754
6.6.1	win	2022-12-14	18:24:59	18:54:42	1781967	62c3430ae19d78462af9e743	904935608	1	main_slash	11	advance_on_keypress_SLASH	64	stimuli_target_circletriangles.svg	stimuli_distractor_diamondtriangles.svg	5	yes	57	0	156
6.6.1	win	2022-12-14	18:24:59	18:54:45	1784768	62c3430ae19d78462af9e743	904935608	1	main_slash	11	main_slash	65	stimuli_distractor_diamondtriangles.svg	stimuli_distractor_trianglediamonds.svg	38	no	0	1	2000
6.6.1	win	2022-12-14	18:24:59	18:54:45	1784768	62c3430ae19d78462af9e743	904935608	1	main_slash	11	advance_on_keypress_SLASH	66	stimuli_distractor_diamondtriangles.svg	stimuli_distractor_trianglediamonds.svg	38	no	57	0	317
6.6.1	win	2022-12-14	18:24:59	18:54:46	1786547	62c3430ae19d78462af9e743	904935608	1	main_slash	11	main_slash	67	stimuli_distractor_trianglediamonds.svg	stimuli_target_squarediamonds.svg	12	yes	53	1	817
6.6.1	win	2022-12-14	18:24:59	18:54:46	1786547	62c3430ae19d78462af9e743	904935608	1	main_slash	11	advance_on_keypress_SLASH	68	stimuli_distractor_trianglediamonds.svg	stimuli_target_squarediamonds.svg	12	yes	57	0	164
6.6.1	win	2022-12-14	18:24:59	18:54:48	1788087	62c3430ae19d78462af9e743	904935608	1	main_slash	11	main_slash	69	stimuli_target_circlediamonds.svg	stimuli_distractor_diamondtriangles.svg	6	yes	53	1	741
6.6.1	win	2022-12-14	18:24:59	18:54:48	1788087	62c3430ae19d78462af9e743	904935608	1	main_slash	11	advance_on_keypress_SLASH	70	stimuli_target_circlediamonds.svg	stimuli_distractor_diamondtriangles.svg	6	yes	57	0	131
6.6.1	win	2022-12-14	18:24:59	18:54:51	1790851	62c3430ae19d78462af9e743	904935608	1	main_slash	11	main_slash	71	stimuli_distractor_diamondtriangles.svg	stimuli_distractor_diamondtriangles.svg	39	no	0	1	2000
6.6.1	win	2022-12-14	18:24:59	18:54:51	1790851	62c3430ae19d78462af9e743	904935608	1	main_slash	11	advance_on_keypress_SLASH	72	stimuli_distractor_diamondtriangles.svg	stimuli_distractor_diamondtriangles.svg	39	no	57	0	284
6.6.1	win	2022-12-14	18:24:59	18:54:52	1792538	62c3430ae19d78462af9e743	904935608	1	main_slash	11	main_slash	73	stimuli_target_diamondcircles.svg	stimuli_distractor_trianglediamonds.svg	19	yes	53	1	757
6.6.1	win	2022-12-14	18:24:59	18:54:52	1792538	62c3430ae19d78462af9e743	904935608	1	main_slash	11	advance_on_keypress_SLASH	74	stimuli_target_diamondcircles.svg	stimuli_distractor_trianglediamonds.svg	19	yes	57	0	241
6.6.1	win	2022-12-14	18:24:59	18:54:54	1794128	62c3430ae19d78462af9e743	904935608	1	main_slash	11	main_slash	75	stimuli_target_diamondcircles.svg	stimuli_distractor_diamondtriangles.svg	23	yes	53	1	714
6.6.1	win	2022-12-14	18:24:59	18:54:54	1794128	62c3430ae19d78462af9e743	904935608	1	main_slash	11	advance_on_keypress_SLASH	76	stimuli_target_diamondcircles.svg	stimuli_distractor_diamondtriangles.svg	23	yes	57	0	117
6.6.1	win	2022-12-14	18:24:59	18:54:57	1796885	62c3430ae19d78462af9e743	904935608	1	main_slash	11	main_slash	77	stimuli_distractor_trianglediamonds.svg	stimuli_distractor_diamondtriangles.svg	36	no	0	1	2000
6.6.1	win	2022-12-14	18:24:59	18:54:57	1796885	62c3430ae19d78462af9e743	904935608	1	main_slash	11	advance_on_keypress_SLASH	78	stimuli_distractor_trianglediamonds.svg	stimuli_distractor_diamondtriangles.svg	36	no	57	0	282
6.6.1	win	2022-12-14	18:24:59	18:54:58	1798568	62c3430ae19d78462af9e743	904935608	1	main_slash	11	main_slash	79	stimuli_distractor_diamondtriangles.svg	stimuli_target_diamondsquares.svg	32	yes	53	1	755
6.6.1	win	2022-12-14	18:24:59	18:54:58	1798568	62c3430ae19d78462af9e743	904935608	1	main_slash	11	advance_on_keypress_SLASH	80	stimuli_distractor_diamondtriangles.svg	stimuli_target_diamondsquares.svg	32	yes	57	0	128
6.6.1	win	2022-12-14	18:24:59	18:55:00	1799998	62c3430ae19d78462af9e743	904935608	1	main_slash	11	main_slash	81	stimuli_target_trianglecircles.svg	stimuli_distractor_trianglediamonds.svg	17	yes	53	1	668
6.6.1	win	2022-12-14	18:24:59	18:55:00	1799998	62c3430ae19d78462af9e743	904935608	1	main_slash	11	advance_on_keypress_SLASH	82	stimuli_target_trianglecircles.svg	stimuli_distractor_trianglediamonds.svg	17	yes	57	0	135
6.6.1	win	2022-12-14	18:24:59	18:55:01	1801448	62c3430ae19d78462af9e743	904935608	1	main_slash	11	main_slash	83	stimuli_distractor_trianglediamonds.svg	stimuli_target_squarediamonds.svg	12	yes	53	1	668
6.6.1	win	2022-12-14	18:24:59	18:55:01	1801448	62c3430ae19d78462af9e743	904935608	1	main_slash	11	advance_on_keypress_SLASH	84	stimuli_distractor_trianglediamonds.svg	stimuli_target_squarediamonds.svg	12	yes	57	0	155
6.6.1	win	2022-12-14	18:24:59	18:55:03	1802868	62c3430ae19d78462af9e743	904935608	1	main_slash	11	main_slash	85	stimuli_target_circletriangles.svg	stimuli_distractor_diamondtriangles.svg	5	yes	53	1	622
6.6.1	win	2022-12-14	18:24:59	18:55:03	1802868	62c3430ae19d78462af9e743	904935608	1	main_slash	11	advance_on_keypress_SLASH	86	stimuli_target_circletriangles.svg	stimuli_distractor_diamondtriangles.svg	5	yes	57	0	148
6.6.1	win	2022-12-14	18:24:59	18:55:04	1804319	62c3430ae19d78462af9e743	904935608	1	main_slash	11	main_slash	87	stimuli_target_circletriangles.svg	stimuli_distractor_trianglediamonds.svg	1	yes	53	1	655
6.6.1	win	2022-12-14	18:24:59	18:55:04	1804319	62c3430ae19d78462af9e743	904935608	1	main_slash	11	advance_on_keypress_SLASH	88	stimuli_target_circletriangles.svg	stimuli_distractor_trianglediamonds.svg	1	yes	57	0	98
6.6.1	win	2022-12-14	18:24:59	18:55:07	1807063	62c3430ae19d78462af9e743	904935608	1	main_slash	11	main_slash	89	stimuli_distractor_trianglediamonds.svg	stimuli_distractor_trianglediamonds.svg	33	no	0	1	2000
6.6.1	win	2022-12-14	18:24:59	18:55:07	1807063	62c3430ae19d78462af9e743	904935608	1	main_slash	11	advance_on_keypress_SLASH	90	stimuli_distractor_trianglediamonds.svg	stimuli_distractor_trianglediamonds.svg	33	no	57	0	288
6.6.1	win	2022-12-14	18:24:59	18:55:09	1808689	62c3430ae19d78462af9e743	904935608	1	main_slash	11	main_slash	91	stimuli_target_circlediamonds.svg	stimuli_distractor_diamondtriangles.svg	6	yes	53	1	692
6.6.1	win	2022-12-14	18:24:59	18:55:09	1808689	62c3430ae19d78462af9e743	904935608	1	main_slash	11	advance_on_keypress_SLASH	92	stimuli_target_circlediamonds.svg	stimuli_distractor_diamondtriangles.svg	6	yes	57	0	93
6.6.1	win	2022-12-14	18:24:59	18:55:11	1811413	62c3430ae19d78462af9e743	904935608	1	main_slash	11	main_slash	93	stimuli_distractor_diamondtriangles.svg	stimuli_distractor_diamondtriangles.svg	39	no	0	1	2000
6.6.1	win	2022-12-14	18:24:59	18:55:11	1811413	62c3430ae19d78462af9e743	904935608	1	main_slash	11	advance_on_keypress_SLASH	94	stimuli_distractor_diamondtriangles.svg	stimuli_distractor_diamondtriangles.svg	39	no	57	0	309
6.6.1	win	2022-12-14	18:24:59	18:55:13	1813019	62c3430ae19d78462af9e743	904935608	1	main_slash	11	main_slash	95	stimuli_distractor_diamondtriangles.svg	stimuli_target_squaretriangles.svg	15	yes	53	1	656
6.6.1	win	2022-12-14	18:24:59	18:55:13	1813019	62c3430ae19d78462af9e743	904935608	1	main_slash	11	advance_on_keypress_SLASH	96	stimuli_distractor_diamondtriangles.svg	stimuli_target_squaretriangles.svg	15	yes	57	0	100
6.6.1	win	2022-12-14	18:24:59	18:55:14	1814459	62c3430ae19d78462af9e743	904935608	1	main_slash	11	main_slash	97	stimuli_target_diamondcircles.svg	stimuli_distractor_trianglediamonds.svg	19	yes	53	1	696
6.6.1	win	2022-12-14	18:24:59	18:55:14	1814459	62c3430ae19d78462af9e743	904935608	1	main_slash	11	advance_on_keypress_SLASH	98	stimuli_target_diamondcircles.svg	stimuli_distractor_trianglediamonds.svg	19	yes	57	0	116
6.6.1	win	2022-12-14	18:24:59	18:55:16	1815799	62c3430ae19d78462af9e743	904935608	1	main_slash	11	main_slash	99	stimuli_target_squarediamonds.svg	stimuli_distractor_diamondtriangles.svg	8	yes	53	1	586
6.6.1	win	2022-12-14	18:24:59	18:55:16	1815799	62c3430ae19d78462af9e743	904935608	1	main_slash	11	advance_on_keypress_SLASH	100	stimuli_target_squarediamonds.svg	stimuli_distractor_diamondtriangles.svg	8	yes	57	0	86
6.6.1	win	2022-12-14	18:24:59	18:55:18	1818534	62c3430ae19d78462af9e743	904935608	1	main_slash	11	main_slash	101	stimuli_distractor_diamondtriangles.svg	stimuli_distractor_trianglediamonds.svg	37	no	0	1	2000
6.6.1	win	2022-12-14	18:24:59	18:55:18	1818534	62c3430ae19d78462af9e743	904935608	1	main_slash	11	advance_on_keypress_SLASH	102	stimuli_distractor_diamondtriangles.svg	stimuli_distractor_trianglediamonds.svg	37	no	57	0	293
6.6.1	win	2022-12-14	18:24:59	18:55:20	1820090	62c3430ae19d78462af9e743	904935608	1	main_slash	11	main_slash	103	stimuli_target_trianglecircles.svg	stimuli_distractor_diamondtriangles.svg	21	yes	53	1	626
6.6.1	win	2022-12-14	18:24:59	18:55:20	1820090	62c3430ae19d78462af9e743	904935608	1	main_slash	11	advance_on_keypress_SLASH	104	stimuli_target_trianglecircles.svg	stimuli_distractor_diamondtriangles.svg	21	yes	57	0	93
6.6.1	win	2022-12-14	18:24:59	18:55:21	1821430	62c3430ae19d78462af9e743	904935608	1	main_slash	11	main_slash	105	stimuli_distractor_diamondtriangles.svg	stimuli_target_diamondsquares.svg	32	yes	53	1	616
6.6.1	win	2022-12-14	18:24:59	18:55:21	1821430	62c3430ae19d78462af9e743	904935608	1	main_slash	11	advance_on_keypress_SLASH	106	stimuli_distractor_diamondtriangles.svg	stimuli_target_diamondsquares.svg	32	yes	57	0	63
6.6.1	win	2022-12-14	18:24:59	18:55:23	1822670	62c3430ae19d78462af9e743	904935608	1	main_slash	11	main_slash	107	stimuli_distractor_diamondtriangles.svg	stimuli_target_squarediamonds.svg	16	yes	53	1	540
6.6.1	win	2022-12-14	18:24:59	18:55:23	1822670	62c3430ae19d78462af9e743	904935608	1	main_slash	11	advance_on_keypress_SLASH	108	stimuli_distractor_diamondtriangles.svg	stimuli_target_squarediamonds.svg	16	yes	57	0	90
6.6.1	win	2022-12-14	18:24:59	18:55:24	1823930	62c3430ae19d78462af9e743	904935608	1	main_slash	11	main_slash	109	stimuli_target_trianglesquares.svg	stimuli_distractor_trianglediamonds.svg	18	yes	53	1	533
6.6.1	win	2022-12-14	18:24:59	18:55:24	1823930	62c3430ae19d78462af9e743	904935608	1	main_slash	11	advance_on_keypress_SLASH	110	stimuli_target_trianglesquares.svg	stimuli_distractor_trianglediamonds.svg	18	yes	57	0	84
6.6.1	win	2022-12-14	18:24:59	18:55:25	1825190	62c3430ae19d78462af9e743	904935608	1	main_slash	11	main_slash	111	stimuli_target_squaretriangles.svg	stimuli_distractor_diamondtriangles.svg	7	yes	53	1	526
6.6.1	win	2022-12-14	18:24:59	18:55:25	1825190	62c3430ae19d78462af9e743	904935608	1	main_slash	11	advance_on_keypress_SLASH	112	stimuli_target_squaretriangles.svg	stimuli_distractor_diamondtriangles.svg	7	yes	57	0	94
6.6.1	win	2022-12-14	18:24:59	18:55:28	1827918	62c3430ae19d78462af9e743	904935608	1	main_slash	11	main_slash	113	stimuli_distractor_trianglediamonds.svg	stimuli_distractor_trianglediamonds.svg	34	no	0	1	2000
6.6.1	win	2022-12-14	18:24:59	18:55:28	1827918	62c3430ae19d78462af9e743	904935608	1	main_slash	11	advance_on_keypress_SLASH	114	stimuli_distractor_trianglediamonds.svg	stimuli_distractor_trianglediamonds.svg	34	no	57	0	291
6.6.1	win	2022-12-14	18:24:59	18:55:29	1829400	62c3430ae19d78462af9e743	904935608	1	main_slash	11	main_slash	115	stimuli_target_squarediamonds.svg	stimuli_distractor_trianglediamonds.svg	4	yes	53	1	554
6.6.1	win	2022-12-14	18:24:59	18:55:29	1829400	62c3430ae19d78462af9e743	904935608	1	main_slash	11	advance_on_keypress_SLASH	116	stimuli_target_squarediamonds.svg	stimuli_distractor_trianglediamonds.svg	4	yes	57	0	87
6.6.1	win	2022-12-14	18:24:59	18:55:32	1832130	62c3430ae19d78462af9e743	904935608	1	main_slash	11	main_slash	117	stimuli_distractor_diamondtriangles.svg	stimuli_distractor_diamondtriangles.svg	40	no	0	1	2000
6.6.1	win	2022-12-14	18:24:59	18:55:32	1832130	62c3430ae19d78462af9e743	904935608	1	main_slash	11	advance_on_keypress_SLASH	118	stimuli_distractor_diamondtriangles.svg	stimuli_distractor_diamondtriangles.svg	40	no	57	0	294
6.6.1	win	2022-12-14	18:24:59	18:55:35	1835063	62c3430ae19d78462af9e743	904935608	1	main_slash	11	main_slash	119	stimuli_distractor_diamondtriangles.svg	stimuli_distractor_trianglediamonds.svg	38	no	0	1	2000
6.6.1	win	2022-12-14	18:24:59	18:55:35	1835063	62c3430ae19d78462af9e743	904935608	1	main_slash	11	advance_on_keypress_SLASH	120	stimuli_distractor_diamondtriangles.svg	stimuli_distractor_trianglediamonds.svg	38	no	57	0	431
6.6.1	win	2022-12-14	18:24:59	18:55:38	1838130	62c3430ae19d78462af9e743	904935608	1	main_slash	11	main_slash	121	stimuli_distractor_trianglediamonds.svg	stimuli_distractor_diamondtriangles.svg	36	no	0	1	2000
6.6.1	win	2022-12-14	18:24:59	18:55:38	1838130	62c3430ae19d78462af9e743	904935608	1	main_slash	11	advance_on_keypress_SLASH	122	stimuli_distractor_trianglediamonds.svg	stimuli_distractor_diamondtriangles.svg	36	no	57	0	154
6.6.1	win	2022-12-14	18:24:59	18:55:39	1839561	62c3430ae19d78462af9e743	904935608	1	main_slash	11	main_slash	123	stimuli_distractor_trianglediamonds.svg	stimuli_target_diamondsquares.svg	28	yes	53	1	632
6.6.1	win	2022-12-14	18:24:59	18:55:39	1839561	62c3430ae19d78462af9e743	904935608	1	main_slash	11	advance_on_keypress_SLASH	124	stimuli_distractor_trianglediamonds.svg	stimuli_target_diamondsquares.svg	28	yes	57	0	82
6.6.1	win	2022-12-14	18:24:59	18:55:41	1840761	62c3430ae19d78462af9e743	904935608	1	main_slash	11	main_slash	125	stimuli_distractor_diamondtriangles.svg	stimuli_target_circlediamonds.svg	14	yes	53	1	465
6.6.1	win	2022-12-14	18:24:59	18:55:41	1840761	62c3430ae19d78462af9e743	904935608	1	main_slash	11	advance_on_keypress_SLASH	126	stimuli_distractor_diamondtriangles.svg	stimuli_target_circlediamonds.svg	14	yes	57	0	82
6.6.1	win	2022-12-14	18:24:59	18:55:42	1842051	62c3430ae19d78462af9e743	904935608	1	main_slash	11	main_slash	127	stimuli_distractor_trianglediamonds.svg	stimuli_target_trianglecircles.svg	25	yes	53	1	555
6.6.1	win	2022-12-14	18:24:59	18:55:42	1842051	62c3430ae19d78462af9e743	904935608	1	main_slash	11	advance_on_keypress_SLASH	128	stimuli_distractor_trianglediamonds.svg	stimuli_target_trianglecircles.svg	25	yes	57	0	78
6.6.1	win	2022-12-14	18:24:59	18:55:43	1843279	62c3430ae19d78462af9e743	904935608	1	main_slash	11	main_slash	129	stimuli_target_trianglesquares.svg	stimuli_distractor_diamondtriangles.svg	22	yes	53	1	508
6.6.1	win	2022-12-14	18:24:59	18:55:43	1843279	62c3430ae19d78462af9e743	904935608	1	main_slash	11	advance_on_keypress_SLASH	130	stimuli_target_trianglesquares.svg	stimuli_distractor_diamondtriangles.svg	22	yes	57	0	75
6.6.1	win	2022-12-14	18:24:59	18:55:44	1844531	62c3430ae19d78462af9e743	904935608	1	main_slash	11	main_slash	131	stimuli_distractor_trianglediamonds.svg	stimuli_target_circletriangles.svg	9	yes	53	1	535
6.6.1	win	2022-12-14	18:24:59	18:55:44	1844531	62c3430ae19d78462af9e743	904935608	1	main_slash	11	advance_on_keypress_SLASH	132	stimuli_distractor_trianglediamonds.svg	stimuli_target_circletriangles.svg	9	yes	57	0	115
6.6.1	win	2022-12-14	18:24:59	18:55:46	1845812	62c3430ae19d78462af9e743	904935608	1	main_slash	11	main_slash	133	stimuli_distractor_diamondtriangles.svg	stimuli_target_circletriangles.svg	13	yes	53	1	515
6.6.1	win	2022-12-14	18:24:59	18:55:46	1845812	62c3430ae19d78462af9e743	904935608	1	main_slash	11	advance_on_keypress_SLASH	134	stimuli_distractor_diamondtriangles.svg	stimuli_target_circletriangles.svg	13	yes	57	0	92
6.6.1	win	2022-12-14	18:24:59	18:55:47	1847071	62c3430ae19d78462af9e743	904935608	1	main_slash	11	main_slash	135	stimuli_distractor_trianglediamonds.svg	stimuli_target_diamondcircles.svg	27	yes	53	1	525
6.6.1	win	2022-12-14	18:24:59	18:55:47	1847071	62c3430ae19d78462af9e743	904935608	1	main_slash	11	advance_on_keypress_SLASH	136	stimuli_distractor_trianglediamonds.svg	stimuli_target_diamondcircles.svg	27	yes	57	0	72
6.6.1	win	2022-12-14	18:24:59	18:55:48	1848311	62c3430ae19d78462af9e743	904935608	1	main_slash	11	main_slash	137	stimuli_target_diamondcircles.svg	stimuli_distractor_diamondtriangles.svg	23	yes	53	1	532
6.6.1	win	2022-12-14	18:24:59	18:55:48	1848311	62c3430ae19d78462af9e743	904935608	1	main_slash	11	advance_on_keypress_SLASH	138	stimuli_target_diamondcircles.svg	stimuli_distractor_diamondtriangles.svg	23	yes	57	0	52
6.6.1	win	2022-12-14	18:24:59	18:55:49	1849502	62c3430ae19d78462af9e743	904935608	1	main_slash	11	main_slash	139	stimuli_distractor_trianglediamonds.svg	stimuli_target_trianglesquares.svg	26	yes	53	1	488
6.6.1	win	2022-12-14	18:24:59	18:55:49	1849502	62c3430ae19d78462af9e743	904935608	1	main_slash	11	advance_on_keypress_SLASH	140	stimuli_distractor_trianglediamonds.svg	stimuli_target_trianglesquares.svg	26	yes	57	0	79
6.6.1	win	2022-12-14	18:24:59	18:55:51	1850772	62c3430ae19d78462af9e743	904935608	1	main_slash	11	main_slash	141	stimuli_distractor_diamondtriangles.svg	stimuli_target_diamondcircles.svg	31	yes	53	1	559
6.6.1	win	2022-12-14	18:24:59	18:55:51	1850772	62c3430ae19d78462af9e743	904935608	1	main_slash	11	advance_on_keypress_SLASH	142	stimuli_distractor_diamondtriangles.svg	stimuli_target_diamondcircles.svg	31	yes	57	0	62
6.6.1	win	2022-12-14	18:24:59	18:55:52	1851952	62c3430ae19d78462af9e743	904935608	1	main_slash	11	main_slash	143	stimuli_distractor_diamondtriangles.svg	stimuli_target_trianglecircles.svg	29	yes	53	1	489
6.6.1	win	2022-12-14	18:24:59	18:55:52	1851952	62c3430ae19d78462af9e743	904935608	1	main_slash	11	advance_on_keypress_SLASH	144	stimuli_distractor_diamondtriangles.svg	stimuli_target_trianglecircles.svg	29	yes	57	0	89
6.6.1	win	2022-12-14	18:24:59	18:55:53	1853212	62c3430ae19d78462af9e743	904935608	1	main_slash	11	main_slash	145	stimuli_target_diamondsquares.svg	stimuli_distractor_diamondtriangles.svg	24	yes	53	1	532
6.6.1	win	2022-12-14	18:24:59	18:55:53	1853212	62c3430ae19d78462af9e743	904935608	1	main_slash	11	advance_on_keypress_SLASH	146	stimuli_target_diamondsquares.svg	stimuli_distractor_diamondtriangles.svg	24	yes	57	0	62
6.6.1	win	2022-12-14	18:24:59	18:55:54	1854452	62c3430ae19d78462af9e743	904935608	1	main_slash	11	main_slash	147	stimuli_target_circlediamonds.svg	stimuli_distractor_trianglediamonds.svg	2	yes	53	1	540
6.6.1	win	2022-12-14	18:24:59	18:55:54	1854452	62c3430ae19d78462af9e743	904935608	1	main_slash	11	advance_on_keypress_SLASH	148	stimuli_target_circlediamonds.svg	stimuli_distractor_trianglediamonds.svg	2	yes	57	0	60
6.6.1	win	2022-12-14	18:24:59	18:55:55	1855612	62c3430ae19d78462af9e743	904935608	1	main_slash	11	main_slash	149	stimuli_distractor_trianglediamonds.svg	stimuli_target_circlediamonds.svg	10	yes	53	1	466
6.6.1	win	2022-12-14	18:24:59	18:55:55	1855612	62c3430ae19d78462af9e743	904935608	1	main_slash	11	advance_on_keypress_SLASH	150	stimuli_distractor_trianglediamonds.svg	stimuli_target_circlediamonds.svg	10	yes	57	0	73
6.6.1	win	2022-12-14	18:24:59	18:55:58	1858330	62c3430ae19d78462af9e743	904935608	1	main_slash	11	main_slash	151	stimuli_distractor_trianglediamonds.svg	stimuli_distractor_diamondtriangles.svg	35	no	0	1	2000
6.6.1	win	2022-12-14	18:24:59	18:55:58	1858330	62c3430ae19d78462af9e743	904935608	1	main_slash	11	advance_on_keypress_SLASH	152	stimuli_distractor_trianglediamonds.svg	stimuli_distractor_diamondtriangles.svg	35	no	57	0	296
6.6.1	win	2022-12-14	18:24:59	18:56:00	1859732	62c3430ae19d78462af9e743	904935608	1	main_slash	11	main_slash	153	stimuli_distractor_trianglediamonds.svg	stimuli_target_squaretriangles.svg	11	yes	53	1	470
6.6.1	win	2022-12-14	18:24:59	18:56:00	1859732	62c3430ae19d78462af9e743	904935608	1	main_slash	11	advance_on_keypress_SLASH	154	stimuli_distractor_trianglediamonds.svg	stimuli_target_squaretriangles.svg	11	yes	57	0	66
6.6.1	win	2022-12-14	18:24:59	18:56:01	1860992	62c3430ae19d78462af9e743	904935608	1	main_slash	11	main_slash	155	stimuli_target_squaretriangles.svg	stimuli_distractor_trianglediamonds.svg	3	yes	53	1	546
6.6.1	win	2022-12-14	18:24:59	18:56:01	1860992	62c3430ae19d78462af9e743	904935608	1	main_slash	11	advance_on_keypress_SLASH	156	stimuli_target_squaretriangles.svg	stimuli_distractor_trianglediamonds.svg	3	yes	57	0	66
6.6.1	win	2022-12-14	18:24:59	18:56:02	1862172	62c3430ae19d78462af9e743	904935608	1	main_slash	11	main_slash	157	stimuli_distractor_diamondtriangles.svg	stimuli_target_trianglesquares.svg	30	yes	53	1	476
6.6.1	win	2022-12-14	18:24:59	18:56:02	1862172	62c3430ae19d78462af9e743	904935608	1	main_slash	11	advance_on_keypress_SLASH	158	stimuli_distractor_diamondtriangles.svg	stimuli_target_trianglesquares.svg	30	yes	57	0	83
6.6.1	win	2022-12-14	18:24:59	18:56:03	1863432	62c3430ae19d78462af9e743	904935608	1	main_slash	11	main_slash	159	stimuli_target_diamondsquares.svg	stimuli_distractor_trianglediamonds.svg	20	yes	53	1	536
6.6.1	win	2022-12-14	18:24:59	18:56:03	1863432	62c3430ae19d78462af9e743	904935608	1	main_slash	11	advance_on_keypress_SLASH	160	stimuli_target_diamondsquares.svg	stimuli_distractor_trianglediamonds.svg	20	yes	57	0	66