build	computer.platform	date	time	timestamp	time_elapsed_ms	subject	group	session	blockcode	blocknum	trialcode	trialnum	stimulus_left	stimulus_right	stim_index	target_present	response	correct	latency
6.6.1	win	2022-12-15	14:13:15	14:15:28	131376	5ff2240a2f567121402762e6	37520280	1	practice_z	5	practice_z	1	stimuli_distractor_diamondtriangles.svg	stimuli_distractor_trianglediamonds.svg	14	no	44	0	1822
6.6.1	win	2022-12-15	14:13:15	14:15:28	131376	5ff2240a2f567121402762e6	37520280	1	practice_z	5	advance_on_keypress_ZEE	2	stimuli_distractor_diamondtriangles.svg	stimuli_distractor_trianglediamonds.svg	14	no	57	0	2628
6.6.1	win	2022-12-15	14:13:15	14:15:33	136410	5ff2240a2f567121402762e6	37520280	1	practice_z	5	practice_z	3	stimuli_distractor_diamondtriangles.svg	stimuli_target_circletriangles.svg	7	yes	44	1	745
6.6.1	win	2022-12-15	14:13:15	14:15:33	136410	5ff2240a2f567121402762e6	37520280	1	practice_z	5	advance_on_keypress_ZEE	4	stimuli_distractor_diamondtriangles.svg	stimuli_target_circletriangles.svg	7	yes	57	0	698
6.6.1	win	2022-12-15	14:13:15	14:15:37	140762	5ff2240a2f567121402762e6	37520280	1	practice_z	5	practice_z	5	stimuli_distractor_diamondtriangles.svg	stimuli_distractor_diamondtriangles.svg	13	no	0	1	2000
6.6.1	win	2022-12-15	14:13:15	14:15:37	140762	5ff2240a2f567121402762e6	37520280	1	practice_z	5	advance_on_keypress_ZEE	6	stimuli_distractor_diamondtriangles.svg	stimuli_distractor_diamondtriangles.svg	13	no	57	0	1046
6.6.1	win	2022-12-15	14:13:15	14:15:41	144535	5ff2240a2f567121402762e6	37520280	1	practice_z	5	practice_z	7	stimuli_distractor_trianglediamonds.svg	stimuli_distractor_trianglediamonds.svg	15	no	44	0	1076
6.6.1	win	2022-12-15	14:13:15	14:15:41	144535	5ff2240a2f567121402762e6	37520280	1	practice_z	5	advance_on_keypress_ZEE	8	stimuli_distractor_trianglediamonds.svg	stimuli_distractor_trianglediamonds.svg	15	no	57	0	692
6.6.1	win	2022-12-15	14:13:15	14:15:44	147865	5ff2240a2f567121402762e6	37520280	1	practice_z	5	practice_z	9	stimuli_distractor_trianglediamonds.svg	stimuli_target_squarediamonds.svg	11	yes	44	1	993
6.6.1	win	2022-12-15	14:13:15	14:15:44	147865	5ff2240a2f567121402762e6	37520280	1	practice_z	5	advance_on_keypress_ZEE	10	stimuli_distractor_trianglediamonds.svg	stimuli_target_squarediamonds.svg	11	yes	57	0	708
6.6.1	win	2022-12-15	14:13:15	14:15:48	151100	5ff2240a2f567121402762e6	37520280	1	practice_z	5	practice_z	11	stimuli_distractor_diamondtriangles.svg	stimuli_target_trianglecircles.svg	9	yes	44	1	879
6.6.1	win	2022-12-15	14:13:15	14:15:48	151100	5ff2240a2f567121402762e6	37520280	1	practice_z	5	advance_on_keypress_ZEE	12	stimuli_distractor_diamondtriangles.svg	stimuli_target_trianglecircles.svg	9	yes	57	0	563
6.6.1	win	2022-12-15	14:13:15	14:15:51	154375	5ff2240a2f567121402762e6	37520280	1	practice_z	5	practice_z	13	stimuli_target_squarediamonds.svg	stimuli_distractor_diamondtriangles.svg	2	yes	44	1	1059
6.6.1	win	2022-12-15	14:13:15	14:15:51	154375	5ff2240a2f567121402762e6	37520280	1	practice_z	5	advance_on_keypress_ZEE	14	stimuli_target_squarediamonds.svg	stimuli_distractor_diamondtriangles.svg	2	yes	57	0	531
6.6.1	win	2022-12-15	14:13:15	14:15:55	158548	5ff2240a2f567121402762e6	37520280	1	practice_z	5	practice_z	15	stimuli_distractor_trianglediamonds.svg	stimuli_target_diamondcircles.svg	12	yes	0	0	2000
6.6.1	win	2022-12-15	14:13:15	14:15:55	158548	5ff2240a2f567121402762e6	37520280	1	practice_z	5	advance_on_keypress_ZEE	16	stimuli_distractor_trianglediamonds.svg	stimuli_target_diamondcircles.svg	12	yes	57	0	513
6.6.1	win	2022-12-15	14:13:15	14:15:58	161583	5ff2240a2f567121402762e6	37520280	1	practice_z	5	practice_z	17	stimuli_target_circlediamonds.svg	stimuli_distractor_diamondtriangles.svg	1	yes	44	1	872
6.6.1	win	2022-12-15	14:13:15	14:15:58	161583	5ff2240a2f567121402762e6	37520280	1	practice_z	5	advance_on_keypress_ZEE	18	stimuli_target_circlediamonds.svg	stimuli_distractor_diamondtriangles.svg	1	yes	57	0	1389
6.6.1	win	2022-12-15	14:13:15	14:16:03	166608	5ff2240a2f567121402762e6	37520280	1	practice_z	5	practice_z	19	stimuli_target_diamondsquares.svg	stimuli_distractor_trianglediamonds.svg	6	yes	0	0	2000
6.6.1	win	2022-12-15	14:13:15	14:16:03	166608	5ff2240a2f567121402762e6	37520280	1	practice_z	5	advance_on_keypress_ZEE	20	stimuli_target_diamondsquares.svg	stimuli_distractor_trianglediamonds.svg	6	yes	57	0	1344
6.6.1	win	2022-12-15	14:13:15	14:16:08	171603	5ff2240a2f567121402762e6	37520280	1	practice_z	5	practice_z	21	stimuli_distractor_trianglediamonds.svg	stimuli_distractor_diamondtriangles.svg	16	no	0	1	2000
6.6.1	win	2022-12-15	14:13:15	14:16:08	171603	5ff2240a2f567121402762e6	37520280	1	practice_z	5	advance_on_keypress_ZEE	22	stimuli_distractor_trianglediamonds.svg	stimuli_distractor_diamondtriangles.svg	16	no	57	0	660
6.6.1	win	2022-12-15	14:13:15	14:16:12	175900	5ff2240a2f567121402762e6	37520280	1	practice_z	5	practice_z	23	stimuli_target_diamondsquares.svg	stimuli_distractor_diamondtriangles.svg	3	yes	0	0	2000
6.6.1	win	2022-12-15	14:13:15	14:16:12	175900	5ff2240a2f567121402762e6	37520280	1	practice_z	5	advance_on_keypress_ZEE	24	stimuli_target_diamondsquares.svg	stimuli_distractor_diamondtriangles.svg	3	yes	57	0	487
6.6.1	win	2022-12-15	14:13:15	14:16:15	178951	5ff2240a2f567121402762e6	37520280	1	practice_z	5	practice_z	25	stimuli_distractor_trianglediamonds.svg	stimuli_target_circlediamonds.svg	10	yes	44	1	922
6.6.1	win	2022-12-15	14:13:15	14:16:15	178951	5ff2240a2f567121402762e6	37520280	1	practice_z	5	advance_on_keypress_ZEE	26	stimuli_distractor_trianglediamonds.svg	stimuli_target_circlediamonds.svg	10	yes	57	0	1018
6.6.1	win	2022-12-15	14:13:15	14:16:19	182550	5ff2240a2f567121402762e6	37520280	1	practice_z	5	practice_z	27	stimuli_target_squarediamonds.svg	stimuli_distractor_trianglediamonds.svg	5	yes	44	1	939
6.6.1	win	2022-12-15	14:13:15	14:16:19	182550	5ff2240a2f567121402762e6	37520280	1	practice_z	5	advance_on_keypress_ZEE	28	stimuli_target_squarediamonds.svg	stimuli_distractor_trianglediamonds.svg	5	yes	57	0	486
6.6.1	win	2022-12-15	14:13:15	14:16:22	185552	5ff2240a2f567121402762e6	37520280	1	practice_z	5	practice_z	29	stimuli_distractor_diamondtriangles.svg	stimuli_target_diamondcircles.svg	8	yes	44	1	879
6.6.1	win	2022-12-15	14:13:15	14:16:22	185552	5ff2240a2f567121402762e6	37520280	1	practice_z	5	advance_on_keypress_ZEE	30	stimuli_distractor_diamondtriangles.svg	stimuli_target_diamondcircles.svg	8	yes	57	0	641
6.6.1	win	2022-12-15	14:13:15	14:16:25	188757	5ff2240a2f567121402762e6	37520280	1	practice_z	5	practice_z	31	stimuli_target_circlediamonds.svg	stimuli_distractor_trianglediamonds.svg	4	yes	44	1	919
6.6.1	win	2022-12-15	14:13:15	14:16:25	188757	5ff2240a2f567121402762e6	37520280	1	practice_z	5	advance_on_keypress_ZEE	32	stimuli_target_circlediamonds.svg	stimuli_distractor_trianglediamonds.svg	4	yes	57	0	413
6.6.1	win	2022-12-15	14:13:15	14:16:35	198379	5ff2240a2f567121402762e6	37520280	1	main_z	7	main_z	1	stimuli_distractor_trianglediamonds.svg	stimuli_distractor_trianglediamonds.svg	34	no	0	1	2000
6.6.1	win	2022-12-15	14:13:15	14:16:35	198379	5ff2240a2f567121402762e6	37520280	1	main_z	7	advance_on_keypress_ZEE	2	stimuli_distractor_trianglediamonds.svg	stimuli_distractor_trianglediamonds.svg	34	no	57	0	1049
6.6.1	win	2022-12-15	14:13:15	14:16:39	202076	5ff2240a2f567121402762e6	37520280	1	main_z	7	main_z	3	stimuli_distractor_diamondtriangles.svg	stimuli_target_trianglesquares.svg	30	yes	0	0	2000
6.6.1	win	2022-12-15	14:13:15	14:16:39	202076	5ff2240a2f567121402762e6	37520280	1	main_z	7	advance_on_keypress_ZEE	4	stimuli_distractor_diamondtriangles.svg	stimuli_target_trianglesquares.svg	30	yes	57	0	606
6.6.1	win	2022-12-15	14:13:15	14:16:41	204269	5ff2240a2f567121402762e6	37520280	1	main_z	7	main_z	5	stimuli_target_circlediamonds.svg	stimuli_distractor_trianglediamonds.svg	2	yes	44	1	947
6.6.1	win	2022-12-15	14:13:15	14:16:41	204269	5ff2240a2f567121402762e6	37520280	1	main_z	7	advance_on_keypress_ZEE	6	stimuli_target_circlediamonds.svg	stimuli_distractor_trianglediamonds.svg	2	yes	57	0	909
6.6.1	win	2022-12-15	14:13:15	14:16:43	206681	5ff2240a2f567121402762e6	37520280	1	main_z	7	main_z	7	stimuli_distractor_trianglediamonds.svg	stimuli_target_circlediamonds.svg	10	yes	44	1	860
6.6.1	win	2022-12-15	14:13:15	14:16:43	206681	5ff2240a2f567121402762e6	37520280	1	main_z	7	advance_on_keypress_ZEE	8	stimuli_distractor_trianglediamonds.svg	stimuli_target_circlediamonds.svg	10	yes	57	0	802
6.6.1	win	2022-12-15	14:13:15	14:16:45	208948	5ff2240a2f567121402762e6	37520280	1	main_z	7	main_z	9	stimuli_target_circletriangles.svg	stimuli_distractor_trianglediamonds.svg	1	yes	44	1	829
6.6.1	win	2022-12-15	14:13:15	14:16:45	208948	5ff2240a2f567121402762e6	37520280	1	main_z	7	advance_on_keypress_ZEE	10	stimuli_target_circletriangles.svg	stimuli_distractor_trianglediamonds.svg	1	yes	57	0	414
6.6.1	win	2022-12-15	14:13:15	14:16:47	210886	5ff2240a2f567121402762e6	37520280	1	main_z	7	main_z	11	stimuli_target_squaretriangles.svg	stimuli_distractor_diamondtriangles.svg	7	yes	44	1	868
6.6.1	win	2022-12-15	14:13:15	14:16:47	210886	5ff2240a2f567121402762e6	37520280	1	main_z	7	advance_on_keypress_ZEE	12	stimuli_target_squaretriangles.svg	stimuli_distractor_diamondtriangles.svg	7	yes	57	0	403
6.6.1	win	2022-12-15	14:13:15	14:16:50	213933	5ff2240a2f567121402762e6	37520280	1	main_z	7	main_z	13	stimuli_target_diamondsquares.svg	stimuli_distractor_diamondtriangles.svg	24	yes	0	0	2000
6.6.1	win	2022-12-15	14:13:15	14:16:50	213933	5ff2240a2f567121402762e6	37520280	1	main_z	7	advance_on_keypress_ZEE	14	stimuli_target_diamondsquares.svg	stimuli_distractor_diamondtriangles.svg	24	yes	57	0	401
6.6.1	win	2022-12-15	14:13:15	14:16:52	215901	5ff2240a2f567121402762e6	37520280	1	main_z	7	main_z	15	stimuli_distractor_diamondtriangles.svg	stimuli_target_trianglecircles.svg	29	yes	44	1	922
6.6.1	win	2022-12-15	14:13:15	14:16:52	215901	5ff2240a2f567121402762e6	37520280	1	main_z	7	advance_on_keypress_ZEE	16	stimuli_distractor_diamondtriangles.svg	stimuli_target_trianglecircles.svg	29	yes	57	0	830
6.6.1	win	2022-12-15	14:13:15	14:16:55	218290	5ff2240a2f567121402762e6	37520280	1	main_z	7	main_z	17	stimuli_target_squarediamonds.svg	stimuli_distractor_diamondtriangles.svg	8	yes	44	1	913
6.6.1	win	2022-12-15	14:13:15	14:16:55	218290	5ff2240a2f567121402762e6	37520280	1	main_z	7	advance_on_keypress_ZEE	18	stimuli_target_squarediamonds.svg	stimuli_distractor_diamondtriangles.svg	8	yes	57	0	648
6.6.1	win	2022-12-15	14:13:15	14:16:57	220594	5ff2240a2f567121402762e6	37520280	1	main_z	7	main_z	19	stimuli_distractor_diamondtriangles.svg	stimuli_target_circlediamonds.svg	14	yes	44	1	1001
6.6.1	win	2022-12-15	14:13:15	14:16:57	220594	5ff2240a2f567121402762e6	37520280	1	main_z	7	advance_on_keypress_ZEE	20	stimuli_distractor_diamondtriangles.svg	stimuli_target_circlediamonds.svg	14	yes	57	0	436
6.6.1	win	2022-12-15	14:13:15	14:17:00	223675	5ff2240a2f567121402762e6	37520280	1	main_z	7	main_z	21	stimuli_distractor_trianglediamonds.svg	stimuli_distractor_trianglediamonds.svg	33	no	0	1	2000
6.6.1	win	2022-12-15	14:13:15	14:17:00	223675	5ff2240a2f567121402762e6	37520280	1	main_z	7	advance_on_keypress_ZEE	22	stimuli_distractor_trianglediamonds.svg	stimuli_distractor_trianglediamonds.svg	33	no	57	0	394
6.6.1	win	2022-12-15	14:13:15	14:17:02	225610	5ff2240a2f567121402762e6	37520280	1	main_z	7	main_z	23	stimuli_distractor_diamondtriangles.svg	stimuli_target_squaretriangles.svg	15	yes	44	1	905
6.6.1	win	2022-12-15	14:13:15	14:17:02	225610	5ff2240a2f567121402762e6	37520280	1	main_z	7	advance_on_keypress_ZEE	24	stimuli_distractor_diamondtriangles.svg	stimuli_target_squaretriangles.svg	15	yes	57	0	974
6.6.1	win	2022-12-15	14:13:15	14:17:05	228287	5ff2240a2f567121402762e6	37520280	1	main_z	7	main_z	25	stimuli_target_circletriangles.svg	stimuli_distractor_diamondtriangles.svg	5	yes	44	1	1068
6.6.1	win	2022-12-15	14:13:15	14:17:05	228287	5ff2240a2f567121402762e6	37520280	1	main_z	7	advance_on_keypress_ZEE	26	stimuli_target_circletriangles.svg	stimuli_distractor_diamondtriangles.svg	5	yes	57	0	601
6.6.1	win	2022-12-15	14:13:15	14:17:07	230551	5ff2240a2f567121402762e6	37520280	1	main_z	7	main_z	27	stimuli_distractor_trianglediamonds.svg	stimuli_target_squarediamonds.svg	12	yes	44	1	1016
6.6.1	win	2022-12-15	14:13:15	14:17:07	230551	5ff2240a2f567121402762e6	37520280	1	main_z	7	advance_on_keypress_ZEE	28	stimuli_distractor_trianglediamonds.svg	stimuli_target_squarediamonds.svg	12	yes	57	0	375
6.6.1	win	2022-12-15	14:13:15	14:17:09	232729	5ff2240a2f567121402762e6	37520280	1	main_z	7	main_z	29	stimuli_target_trianglecircles.svg	stimuli_distractor_trianglediamonds.svg	17	yes	44	1	1162
6.6.1	win	2022-12-15	14:13:15	14:17:09	232729	5ff2240a2f567121402762e6	37520280	1	main_z	7	advance_on_keypress_ZEE	30	stimuli_target_trianglecircles.svg	stimuli_distractor_trianglediamonds.svg	17	yes	57	0	683
6.6.1	win	2022-12-15	14:13:15	14:17:12	235114	5ff2240a2f567121402762e6	37520280	1	main_z	7	main_z	31	stimuli_target_squaretriangles.svg	stimuli_distractor_trianglediamonds.svg	3	yes	44	1	1050
6.6.1	win	2022-12-15	14:13:15	14:17:12	235114	5ff2240a2f567121402762e6	37520280	1	main_z	7	advance_on_keypress_ZEE	32	stimuli_target_squaretriangles.svg	stimuli_distractor_trianglediamonds.svg	3	yes	57	0	443
6.6.1	win	2022-12-15	14:13:15	14:17:14	237516	5ff2240a2f567121402762e6	37520280	1	main_z	7	main_z	33	stimuli_distractor_trianglediamonds.svg	stimuli_target_trianglesquares.svg	26	yes	44	1	1320
6.6.1	win	2022-12-15	14:13:15	14:17:14	237516	5ff2240a2f567121402762e6	37520280	1	main_z	7	advance_on_keypress_ZEE	34	stimuli_distractor_trianglediamonds.svg	stimuli_target_trianglesquares.svg	26	yes	57	0	391
6.6.1	win	2022-12-15	14:13:15	14:17:16	239531	5ff2240a2f567121402762e6	37520280	1	main_z	7	main_z	35	stimuli_distractor_trianglediamonds.svg	stimuli_target_diamondcircles.svg	27	yes	44	1	987
6.6.1	win	2022-12-15	14:13:15	14:17:16	239531	5ff2240a2f567121402762e6	37520280	1	main_z	7	advance_on_keypress_ZEE	36	stimuli_distractor_trianglediamonds.svg	stimuli_target_diamondcircles.svg	27	yes	57	0	438
6.6.1	win	2022-12-15	14:13:15	14:17:19	242609	5ff2240a2f567121402762e6	37520280	1	main_z	7	main_z	37	stimuli_target_trianglesquares.svg	stimuli_distractor_diamondtriangles.svg	22	yes	0	0	2000
6.6.1	win	2022-12-15	14:13:15	14:17:19	242609	5ff2240a2f567121402762e6	37520280	1	main_z	7	advance_on_keypress_ZEE	38	stimuli_target_trianglesquares.svg	stimuli_distractor_diamondtriangles.svg	22	yes	57	0	382
6.6.1	win	2022-12-15	14:13:15	14:17:21	244654	5ff2240a2f567121402762e6	37520280	1	main_z	7	main_z	39	stimuli_target_trianglecircles.svg	stimuli_distractor_diamondtriangles.svg	21	yes	44	1	1014
6.6.1	win	2022-12-15	14:13:15	14:17:21	244654	5ff2240a2f567121402762e6	37520280	1	main_z	7	advance_on_keypress_ZEE	40	stimuli_target_trianglecircles.svg	stimuli_distractor_diamondtriangles.svg	21	yes	57	0	403
6.6.1	win	2022-12-15	14:13:15	14:17:23	246948	5ff2240a2f567121402762e6	37520280	1	main_z	7	main_z	41	stimuli_target_diamondsquares.svg	stimuli_distractor_trianglediamonds.svg	20	yes	44	1	1244
6.6.1	win	2022-12-15	14:13:15	14:17:23	246948	5ff2240a2f567121402762e6	37520280	1	main_z	7	advance_on_keypress_ZEE	42	stimuli_target_diamondsquares.svg	stimuli_distractor_trianglediamonds.svg	20	yes	57	0	619
6.6.1	win	2022-12-15	14:13:15	14:17:27	250202	5ff2240a2f567121402762e6	37520280	1	main_z	7	main_z	43	stimuli_distractor_diamondtriangles.svg	stimuli_distractor_trianglediamonds.svg	37	no	0	1	2000
6.6.1	win	2022-12-15	14:13:15	14:17:27	250202	5ff2240a2f567121402762e6	37520280	1	main_z	7	advance_on_keypress_ZEE	44	stimuli_distractor_diamondtriangles.svg	stimuli_distractor_trianglediamonds.svg	37	no	57	0	510
6.6.1	win	2022-12-15	14:13:15	14:17:29	252419	5ff2240a2f567121402762e6	37520280	1	main_z	7	main_z	45	stimuli_target_diamondcircles.svg	stimuli_distractor_diamondtriangles.svg	23	yes	44	1	1070
6.6.1	win	2022-12-15	14:13:15	14:17:29	252419	5ff2240a2f567121402762e6	37520280	1	main_z	7	advance_on_keypress_ZEE	46	stimuli_target_diamondcircles.svg	stimuli_distractor_diamondtriangles.svg	23	yes	57	0	444
6.6.1	win	2022-12-15	14:13:15	14:17:31	254503	5ff2240a2f567121402762e6	37520280	1	main_z	7	main_z	47	stimuli_distractor_diamondtriangles.svg	stimuli_target_circletriangles.svg	13	yes	44	1	1005
6.6.1	win	2022-12-15	14:13:15	14:17:31	254503	5ff2240a2f567121402762e6	37520280	1	main_z	7	advance_on_keypress_ZEE	48	stimuli_distractor_diamondtriangles.svg	stimuli_target_circletriangles.svg	13	yes	57	0	475
6.6.1	win	2022-12-15	14:13:15	14:17:33	256576	5ff2240a2f567121402762e6	37520280	1	main_z	7	main_z	49	stimuli_distractor_trianglediamonds.svg	stimuli_target_squaretriangles.svg	11	yes	44	1	964
6.6.1	win	2022-12-15	14:13:15	14:17:33	256576	5ff2240a2f567121402762e6	37520280	1	main_z	7	advance_on_keypress_ZEE	50	stimuli_distractor_trianglediamonds.svg	stimuli_target_squaretriangles.svg	11	yes	57	0	361
6.6.1	win	2022-12-15	14:13:15	14:17:35	258518	5ff2240a2f567121402762e6	37520280	1	main_z	7	main_z	51	stimuli_distractor_trianglediamonds.svg	stimuli_target_circletriangles.svg	9	yes	44	1	940
6.6.1	win	2022-12-15	14:13:15	14:17:35	258518	5ff2240a2f567121402762e6	37520280	1	main_z	7	advance_on_keypress_ZEE	52	stimuli_distractor_trianglediamonds.svg	stimuli_target_circletriangles.svg	9	yes	57	0	384
6.6.1	win	2022-12-15	14:13:15	14:17:37	260452	5ff2240a2f567121402762e6	37520280	1	main_z	7	main_z	53	stimuli_target_circlediamonds.svg	stimuli_distractor_diamondtriangles.svg	6	yes	44	1	909
6.6.1	win	2022-12-15	14:13:15	14:17:37	260452	5ff2240a2f567121402762e6	37520280	1	main_z	7	advance_on_keypress_ZEE	54	stimuli_target_circlediamonds.svg	stimuli_distractor_diamondtriangles.svg	6	yes	57	0	344
6.6.1	win	2022-12-15	14:13:15	14:17:39	262448	5ff2240a2f567121402762e6	37520280	1	main_z	7	main_z	55	stimuli_distractor_diamondtriangles.svg	stimuli_target_diamondsquares.svg	32	yes	44	1	1024
6.6.1	win	2022-12-15	14:13:15	14:17:39	262448	5ff2240a2f567121402762e6	37520280	1	main_z	7	advance_on_keypress_ZEE	56	stimuli_distractor_diamondtriangles.svg	stimuli_target_diamondsquares.svg	32	yes	57	0	311
6.6.1	win	2022-12-15	14:13:15	14:17:42	265389	5ff2240a2f567121402762e6	37520280	1	main_z	7	main_z	57	stimuli_distractor_trianglediamonds.svg	stimuli_target_diamondsquares.svg	28	yes	0	0	2000
6.6.1	win	2022-12-15	14:13:15	14:17:42	265389	5ff2240a2f567121402762e6	37520280	1	main_z	7	advance_on_keypress_ZEE	58	stimuli_distractor_trianglediamonds.svg	stimuli_target_diamondsquares.svg	28	yes	57	0	485
6.6.1	win	2022-12-15	14:13:15	14:17:45	268520	5ff2240a2f567121402762e6	37520280	1	main_z	7	main_z	59	stimuli_distractor_diamondtriangles.svg	stimuli_distractor_trianglediamonds.svg	38	no	0	1	2000
6.6.1	win	2022-12-15	14:13:15	14:17:45	268520	5ff2240a2f567121402762e6	37520280	1	main_z	7	advance_on_keypress_ZEE	60	stimuli_distractor_diamondtriangles.svg	stimuli_distractor_trianglediamonds.svg	38	no	57	0	593
6.6.1	win	2022-12-15	14:13:15	14:17:47	270631	5ff2240a2f567121402762e6	37520280	1	main_z	7	main_z	61	stimuli_target_squarediamonds.svg	stimuli_distractor_trianglediamonds.svg	4	yes	44	1	881
6.6.1	win	2022-12-15	14:13:15	14:17:47	270631	5ff2240a2f567121402762e6	37520280	1	main_z	7	advance_on_keypress_ZEE	62	stimuli_target_squarediamonds.svg	stimuli_distractor_trianglediamonds.svg	4	yes	57	0	543
6.6.1	win	2022-12-15	14:13:15	14:17:50	273816	5ff2240a2f567121402762e6	37520280	1	main_z	7	main_z	63	stimuli_distractor_trianglediamonds.svg	stimuli_distractor_diamondtriangles.svg	36	no	0	1	2000
6.6.1	win	2022-12-15	14:13:15	14:17:50	273816	5ff2240a2f567121402762e6	37520280	1	main_z	7	advance_on_keypress_ZEE	64	stimuli_distractor_trianglediamonds.svg	stimuli_distractor_diamondtriangles.svg	36	no	57	0	1144
6.6.1	win	2022-12-15	14:13:15	14:17:54	277596	5ff2240a2f567121402762e6	37520280	1	main_z	7	main_z	65	stimuli_distractor_diamondtriangles.svg	stimuli_distractor_diamondtriangles.svg	39	no	0	1	2000
6.6.1	win	2022-12-15	14:13:15	14:17:54	277596	5ff2240a2f567121402762e6	37520280	1	main_z	7	advance_on_keypress_ZEE	66	stimuli_distractor_diamondtriangles.svg	stimuli_distractor_diamondtriangles.svg	39	no	57	0	1149
6.6.1	win	2022-12-15	14:13:15	14:17:58	281393	5ff2240a2f567121402762e6	37520280	1	main_z	7	main_z	67	stimuli_distractor_diamondtriangles.svg	stimuli_distractor_diamondtriangles.svg	40	no	0	1	2000
6.6.1	win	2022-12-15	14:13:15	14:17:58	281393	5ff2240a2f567121402762e6	37520280	1	main_z	7	advance_on_keypress_ZEE	68	stimuli_distractor_diamondtriangles.svg	stimuli_distractor_diamondtriangles.svg	40	no	57	0	473
6.6.1	win	2022-12-15	14:13:15	14:18:00	283545	5ff2240a2f567121402762e6	37520280	1	main_z	7	main_z	69	stimuli_distractor_diamondtriangles.svg	stimuli_target_diamondcircles.svg	31	yes	44	1	1038
6.6.1	win	2022-12-15	14:13:15	14:18:00	283545	5ff2240a2f567121402762e6	37520280	1	main_z	7	advance_on_keypress_ZEE	70	stimuli_distractor_diamondtriangles.svg	stimuli_target_diamondcircles.svg	31	yes	57	0	762
6.6.1	win	2022-12-15	14:13:15	14:18:03	286955	5ff2240a2f567121402762e6	37520280	1	main_z	7	main_z	71	stimuli_distractor_trianglediamonds.svg	stimuli_distractor_diamondtriangles.svg	35	no	0	1	2000
6.6.1	win	2022-12-15	14:13:15	14:18:03	286955	5ff2240a2f567121402762e6	37520280	1	main_z	7	advance_on_keypress_ZEE	72	stimuli_distractor_trianglediamonds.svg	stimuli_distractor_diamondtriangles.svg	35	no	57	0	332
6.6.1	win	2022-12-15	14:13:15	14:18:05	288869	5ff2240a2f567121402762e6	37520280	1	main_z	7	main_z	73	stimuli_distractor_diamondtriangles.svg	stimuli_target_squarediamonds.svg	16	yes	44	1	934
6.6.1	win	2022-12-15	14:13:15	14:18:05	288869	5ff2240a2f567121402762e6	37520280	1	main_z	7	advance_on_keypress_ZEE	74	stimuli_distractor_diamondtriangles.svg	stimuli_target_squarediamonds.svg	16	yes	57	0	673
6.6.1	win	2022-12-15	14:13:15	14:18:08	291305	5ff2240a2f567121402762e6	37520280	1	main_z	7	main_z	75	stimuli_target_trianglesquares.svg	stimuli_distractor_trianglediamonds.svg	18	yes	44	1	1122
6.6.1	win	2022-12-15	14:13:15	14:18:08	291305	5ff2240a2f567121402762e6	37520280	1	main_z	7	advance_on_keypress_ZEE	76	stimuli_target_trianglesquares.svg	stimuli_distractor_trianglediamonds.svg	18	yes	57	0	624
6.6.1	win	2022-12-15	14:13:15	14:18:10	293476	5ff2240a2f567121402762e6	37520280	1	main_z	7	main_z	77	stimuli_distractor_trianglediamonds.svg	stimuli_target_trianglecircles.svg	25	yes	44	1	911
6.6.1	win	2022-12-15	14:13:15	14:18:10	293476	5ff2240a2f567121402762e6	37520280	1	main_z	7	advance_on_keypress_ZEE	78	stimuli_distractor_trianglediamonds.svg	stimuli_target_trianglecircles.svg	25	yes	57	0	350
6.6.1	win	2022-12-15	14:13:15	14:18:12	295352	5ff2240a2f567121402762e6	37520280	1	main_z	7	main_z	79	stimuli_target_diamondcircles.svg	stimuli_distractor_trianglediamonds.svg	19	yes	44	1	872
6.6.1	win	2022-12-15	14:13:15	14:18:12	295352	5ff2240a2f567121402762e6	37520280	1	main_z	7	advance_on_keypress_ZEE	80	stimuli_target_diamondcircles.svg	stimuli_distractor_trianglediamonds.svg	19	yes	57	0	271
6.6.1	win	2022-12-15	14:13:15	14:18:14	297074	5ff2240a2f567121402762e6	37520280	1	main_z	7	main_z	81	stimuli_distractor_trianglediamonds.svg	stimuli_target_diamondcircles.svg	27	yes	44	1	812
6.6.1	win	2022-12-15	14:13:15	14:18:14	297074	5ff2240a2f567121402762e6	37520280	1	main_z	7	advance_on_keypress_ZEE	82	stimuli_distractor_trianglediamonds.svg	stimuli_target_diamondcircles.svg	27	yes	57	0	216
6.6.1	win	2022-12-15	14:13:15	14:18:15	298792	5ff2240a2f567121402762e6	37520280	1	main_z	7	main_z	83	stimuli_distractor_diamondtriangles.svg	stimuli_target_circletriangles.svg	13	yes	44	1	864
6.6.1	win	2022-12-15	14:13:15	14:18:15	298792	5ff2240a2f567121402762e6	37520280	1	main_z	7	advance_on_keypress_ZEE	84	stimuli_distractor_diamondtriangles.svg	stimuli_target_circletriangles.svg	13	yes	57	0	264
6.6.1	win	2022-12-15	14:13:15	14:18:17	300621	5ff2240a2f567121402762e6	37520280	1	main_z	7	main_z	85	stimuli_target_circletriangles.svg	stimuli_distractor_diamondtriangles.svg	5	yes	44	1	913
6.6.1	win	2022-12-15	14:13:15	14:18:17	300621	5ff2240a2f567121402762e6	37520280	1	main_z	7	advance_on_keypress_ZEE	86	stimuli_target_circletriangles.svg	stimuli_distractor_diamondtriangles.svg	5	yes	57	0	214
6.6.1	win	2022-12-15	14:13:15	14:18:19	302547	5ff2240a2f567121402762e6	37520280	1	main_z	7	main_z	87	stimuli_target_squarediamonds.svg	stimuli_distractor_diamondtriangles.svg	8	yes	44	1	1057
6.6.1	win	2022-12-15	14:13:15	14:18:19	302547	5ff2240a2f567121402762e6	37520280	1	main_z	7	advance_on_keypress_ZEE	88	stimuli_target_squarediamonds.svg	stimuli_distractor_diamondtriangles.svg	8	yes	57	0	221
6.6.1	win	2022-12-15	14:13:15	14:18:21	304261	5ff2240a2f567121402762e6	37520280	1	main_z	7	main_z	89	stimuli_target_squaretriangles.svg	stimuli_distractor_diamondtriangles.svg	7	yes	44	1	855
6.6.1	win	2022-12-15	14:13:15	14:18:21	304261	5ff2240a2f567121402762e6	37520280	1	main_z	7	advance_on_keypress_ZEE	90	stimuli_target_squaretriangles.svg	stimuli_distractor_diamondtriangles.svg	7	yes	57	0	210
6.6.1	win	2022-12-15	14:13:15	14:18:22	305952	5ff2240a2f567121402762e6	37520280	1	main_z	7	main_z	91	stimuli_distractor_diamondtriangles.svg	stimuli_target_circlediamonds.svg	14	yes	44	1	847
6.6.1	win	2022-12-15	14:13:15	14:18:22	305952	5ff2240a2f567121402762e6	37520280	1	main_z	7	advance_on_keypress_ZEE	92	stimuli_distractor_diamondtriangles.svg	stimuli_target_circlediamonds.svg	14	yes	57	0	152
6.6.1	win	2022-12-15	14:13:15	14:18:24	307377	5ff2240a2f567121402762e6	37520280	1	main_z	7	main_z	93	stimuli_target_squarediamonds.svg	stimuli_distractor_trianglediamonds.svg	4	yes	44	1	624
6.6.1	win	2022-12-15	14:13:15	14:18:24	307377	5ff2240a2f567121402762e6	37520280	1	main_z	7	advance_on_keypress_ZEE	94	stimuli_target_squarediamonds.svg	stimuli_distractor_trianglediamonds.svg	4	yes	57	0	347
6.6.1	win	2022-12-15	14:13:15	14:18:27	310368	5ff2240a2f567121402762e6	37520280	1	main_z	7	main_z	95	stimuli_target_trianglesquares.svg	stimuli_distractor_diamondtriangles.svg	22	yes	0	0	2000
6.6.1	win	2022-12-15	14:13:15	14:18:27	310368	5ff2240a2f567121402762e6	37520280	1	main_z	7	advance_on_keypress_ZEE	96	stimuli_target_trianglesquares.svg	stimuli_distractor_diamondtriangles.svg	22	yes	57	0	532
6.6.1	win	2022-12-15	14:13:15	14:18:29	312391	5ff2240a2f567121402762e6	37520280	1	main_z	7	main_z	97	stimuli_target_squaretriangles.svg	stimuli_distractor_trianglediamonds.svg	3	yes	44	1	842
6.6.1	win	2022-12-15	14:13:15	14:18:29	312391	5ff2240a2f567121402762e6	37520280	1	main_z	7	advance_on_keypress_ZEE	98	stimuli_target_squaretriangles.svg	stimuli_distractor_trianglediamonds.svg	3	yes	57	0	378
6.6.1	win	2022-12-15	14:13:15	14:18:31	314200	5ff2240a2f567121402762e6	37520280	1	main_z	7	main_z	99	stimuli_target_trianglecircles.svg	stimuli_distractor_trianglediamonds.svg	17	yes	44	1	802
6.6.1	win	2022-12-15	14:13:15	14:18:31	314200	5ff2240a2f567121402762e6	37520280	1	main_z	7	advance_on_keypress_ZEE	100	stimuli_target_trianglecircles.svg	stimuli_distractor_trianglediamonds.svg	17	yes	57	0	225
6.6.1	win	2022-12-15	14:13:15	14:18:32	315888	5ff2240a2f567121402762e6	37520280	1	main_z	7	main_z	101	stimuli_distractor_diamondtriangles.svg	stimuli_target_diamondcircles.svg	31	yes	44	1	825
6.6.1	win	2022-12-15	14:13:15	14:18:32	315888	5ff2240a2f567121402762e6	37520280	1	main_z	7	advance_on_keypress_ZEE	102	stimuli_distractor_diamondtriangles.svg	stimuli_target_diamondcircles.svg	31	yes	57	0	192
6.6.1	win	2022-12-15	14:13:15	14:18:34	317589	5ff2240a2f567121402762e6	37520280	1	main_z	7	main_z	103	stimuli_distractor_trianglediamonds.svg	stimuli_target_trianglecircles.svg	25	yes	44	1	878
6.6.1	win	2022-12-15	14:13:15	14:18:34	317589	5ff2240a2f567121402762e6	37520280	1	main_z	7	advance_on_keypress_ZEE	104	stimuli_distractor_trianglediamonds.svg	stimuli_target_trianglecircles.svg	25	yes	57	0	236
6.6.1	win	2022-12-15	14:13:15	14:18:36	319151	5ff2240a2f567121402762e6	37520280	1	main_z	7	main_z	105	stimuli_distractor_diamondtriangles.svg	stimuli_target_squarediamonds.svg	16	yes	44	1	692
6.6.1	win	2022-12-15	14:13:15	14:18:36	319151	5ff2240a2f567121402762e6	37520280	1	main_z	7	advance_on_keypress_ZEE	106	stimuli_distractor_diamondtriangles.svg	stimuli_target_squarediamonds.svg	16	yes	57	0	267
6.6.1	win	2022-12-15	14:13:15	14:18:37	320896	5ff2240a2f567121402762e6	37520280	1	main_z	7	main_z	107	stimuli_target_diamondcircles.svg	stimuli_distractor_diamondtriangles.svg	23	yes	44	1	838
6.6.1	win	2022-12-15	14:13:15	14:18:37	320896	5ff2240a2f567121402762e6	37520280	1	main_z	7	advance_on_keypress_ZEE	108	stimuli_target_diamondcircles.svg	stimuli_distractor_diamondtriangles.svg	23	yes	57	0	192
6.6.1	win	2022-12-15	14:13:15	14:18:39	322574	5ff2240a2f567121402762e6	37520280	1	main_z	7	main_z	109	stimuli_distractor_trianglediamonds.svg	stimuli_target_squaretriangles.svg	11	yes	44	1	850
6.6.1	win	2022-12-15	14:13:15	14:18:39	322574	5ff2240a2f567121402762e6	37520280	1	main_z	7	advance_on_keypress_ZEE	110	stimuli_distractor_trianglediamonds.svg	stimuli_target_squaretriangles.svg	11	yes	57	0	156
6.6.1	win	2022-12-15	14:13:15	14:18:42	325373	5ff2240a2f567121402762e6	37520280	1	main_z	7	main_z	111	stimuli_distractor_trianglediamonds.svg	stimuli_distractor_diamondtriangles.svg	35	no	0	1	2000
6.6.1	win	2022-12-15	14:13:15	14:18:42	325373	5ff2240a2f567121402762e6	37520280	1	main_z	7	advance_on_keypress_ZEE	112	stimuli_distractor_trianglediamonds.svg	stimuli_distractor_diamondtriangles.svg	35	no	57	0	402
6.6.1	win	2022-12-15	14:13:15	14:18:45	328420	5ff2240a2f567121402762e6	37520280	1	main_z	7	main_z	113	stimuli_distractor_diamondtriangles.svg	stimuli_distractor_diamondtriangles.svg	40	no	0	1	2000
6.6.1	win	2022-12-15	14:13:15	14:18:45	328420	5ff2240a2f567121402762e6	37520280	1	main_z	7	advance_on_keypress_ZEE	114	stimuli_distractor_diamondtriangles.svg	stimuli_distractor_diamondtriangles.svg	40	no	57	0	389
6.6.1	win	2022-12-15	14:13:15	14:18:48	331451	5ff2240a2f567121402762e6	37520280	1	main_z	7	main_z	115	stimuli_distractor_diamondtriangles.svg	stimuli_distractor_trianglediamonds.svg	38	no	0	1	2000
6.6.1	win	2022-12-15	14:13:15	14:18:48	331451	5ff2240a2f567121402762e6	37520280	1	main_z	7	advance_on_keypress_ZEE	116	stimuli_distractor_diamondtriangles.svg	stimuli_distractor_trianglediamonds.svg	38	no	57	0	838
6.6.1	win	2022-12-15	14:13:15	14:18:50	333807	5ff2240a2f567121402762e6	37520280	1	main_z	7	main_z	117	stimuli_distractor_trianglediamonds.svg	stimuli_target_circletriangles.svg	9	yes	44	1	876
6.6.1	win	2022-12-15	14:13:15	14:18:50	333807	5ff2240a2f567121402762e6	37520280	1	main_z	7	advance_on_keypress_ZEE	118	stimuli_distractor_trianglediamonds.svg	stimuli_target_circletriangles.svg	9	yes	57	0	327
6.6.1	win	2022-12-15	14:13:15	14:18:53	336763	5ff2240a2f567121402762e6	37520280	1	main_z	7	main_z	119	stimuli_distractor_diamondtriangles.svg	stimuli_distractor_trianglediamonds.svg	37	no	0	1	2000
6.6.1	win	2022-12-15	14:13:15	14:18:53	336763	5ff2240a2f567121402762e6	37520280	1	main_z	7	advance_on_keypress_ZEE	120	stimuli_distractor_diamondtriangles.svg	stimuli_distractor_trianglediamonds.svg	37	no	57	0	433
6.6.1	win	2022-12-15	14:13:15	14:18:56	338983	5ff2240a2f567121402762e6	37520280	1	main_z	7	main_z	121	stimuli_target_diamondsquares.svg	stimuli_distractor_trianglediamonds.svg	20	yes	44	1	1139
6.6.1	win	2022-12-15	14:13:15	14:18:56	338983	5ff2240a2f567121402762e6	37520280	1	main_z	7	advance_on_keypress_ZEE	122	stimuli_target_diamondsquares.svg	stimuli_distractor_trianglediamonds.svg	20	yes	57	0	534
6.6.1	win	2022-12-15	14:13:15	14:18:58	341051	5ff2240a2f567121402762e6	37520280	1	main_z	7	main_z	123	stimuli_distractor_diamondtriangles.svg	stimuli_target_trianglecircles.svg	29	yes	44	1	893
6.6.1	win	2022-12-15	14:13:15	14:18:58	341051	5ff2240a2f567121402762e6	37520280	1	main_z	7	advance_on_keypress_ZEE	124	stimuli_distractor_diamondtriangles.svg	stimuli_target_trianglecircles.svg	29	yes	57	0	286
6.6.1	win	2022-12-15	14:13:15	14:18:59	342897	5ff2240a2f567121402762e6	37520280	1	main_z	7	main_z	125	stimuli_target_trianglesquares.svg	stimuli_distractor_trianglediamonds.svg	18	yes	44	1	923
6.6.1	win	2022-12-15	14:13:15	14:18:59	342897	5ff2240a2f567121402762e6	37520280	1	main_z	7	advance_on_keypress_ZEE	126	stimuli_target_trianglesquares.svg	stimuli_distractor_trianglediamonds.svg	18	yes	57	0	248
6.6.1	win	2022-12-15	14:13:15	14:19:02	345789	5ff2240a2f567121402762e6	37520280	1	main_z	7	main_z	127	stimuli_distractor_trianglediamonds.svg	stimuli_target_circlediamonds.svg	10	yes	0	0	2000
6.6.1	win	2022-12-15	14:13:15	14:19:02	345789	5ff2240a2f567121402762e6	37520280	1	main_z	7	advance_on_keypress_ZEE	128	stimuli_distractor_trianglediamonds.svg	stimuli_target_circlediamonds.svg	10	yes	57	0	461
6.6.1	win	2022-12-15	14:13:15	14:19:05	348021	5ff2240a2f567121402762e6	37520280	1	main_z	7	main_z	129	stimuli_distractor_diamondtriangles.svg	stimuli_target_diamondsquares.svg	32	yes	44	1	1136
6.6.1	win	2022-12-15	14:13:15	14:19:05	348021	5ff2240a2f567121402762e6	37520280	1	main_z	7	advance_on_keypress_ZEE	130	stimuli_distractor_diamondtriangles.svg	stimuli_target_diamondsquares.svg	32	yes	57	0	1069
6.6.1	win	2022-12-15	14:13:15	14:19:07	350608	5ff2240a2f567121402762e6	37520280	1	main_z	7	main_z	131	stimuli_target_circletriangles.svg	stimuli_distractor_trianglediamonds.svg	1	yes	44	1	875
6.6.1	win	2022-12-15	14:13:15	14:19:07	350608	5ff2240a2f567121402762e6	37520280	1	main_z	7	advance_on_keypress_ZEE	132	stimuli_target_circletriangles.svg	stimuli_distractor_trianglediamonds.svg	1	yes	57	0	159
6.6.1	win	2022-12-15	14:13:15	14:19:10	353399	5ff2240a2f567121402762e6	37520280	1	main_z	7	main_z	133	stimuli_distractor_trianglediamonds.svg	stimuli_distractor_trianglediamonds.svg	34	no	0	1	2000
6.6.1	win	2022-12-15	14:13:15	14:19:10	353399	5ff2240a2f567121402762e6	37520280	1	main_z	7	advance_on_keypress_ZEE	134	stimuli_distractor_trianglediamonds.svg	stimuli_distractor_trianglediamonds.svg	34	no	57	0	372
6.6.1	win	2022-12-15	14:13:15	14:19:12	355324	5ff2240a2f567121402762e6	37520280	1	main_z	7	main_z	135	stimuli_distractor_trianglediamonds.svg	stimuli_target_squarediamonds.svg	12	yes	44	1	910
6.6.1	win	2022-12-15	14:13:15	14:19:12	355324	5ff2240a2f567121402762e6	37520280	1	main_z	7	advance_on_keypress_ZEE	136	stimuli_distractor_trianglediamonds.svg	stimuli_target_squarediamonds.svg	12	yes	57	0	374
6.6.1	win	2022-12-15	14:13:15	14:19:14	357138	5ff2240a2f567121402762e6	37520280	1	main_z	7	main_z	137	stimuli_target_trianglecircles.svg	stimuli_distractor_diamondtriangles.svg	21	yes	44	1	809
6.6.1	win	2022-12-15	14:13:15	14:19:14	357138	5ff2240a2f567121402762e6	37520280	1	main_z	7	advance_on_keypress_ZEE	138	stimuli_target_trianglecircles.svg	stimuli_distractor_diamondtriangles.svg	21	yes	57	0	262
6.6.1	win	2022-12-15	14:13:15	14:19:15	358806	5ff2240a2f567121402762e6	37520280	1	main_z	7	main_z	139	stimuli_target_diamondcircles.svg	stimuli_distractor_trianglediamonds.svg	19	yes	44	1	780
6.6.1	win	2022-12-15	14:13:15	14:19:15	358806	5ff2240a2f567121402762e6	37520280	1	main_z	7	advance_on_keypress_ZEE	140	stimuli_target_diamondcircles.svg	stimuli_distractor_trianglediamonds.svg	19	yes	57	0	139
6.6.1	win	2022-12-15	14:13:15	14:19:18	361592	5ff2240a2f567121402762e6	37520280	1	main_z	7	main_z	141	stimuli_distractor_diamondtriangles.svg	stimuli_distractor_diamondtriangles.svg	39	no	0	1	2000
6.6.1	win	2022-12-15	14:13:15	14:19:18	361592	5ff2240a2f567121402762e6	37520280	1	main_z	7	advance_on_keypress_ZEE	142	stimuli_distractor_diamondtriangles.svg	stimuli_distractor_diamondtriangles.svg	39	no	57	0	570
6.6.1	win	2022-12-15	14:13:15	14:19:20	363731	5ff2240a2f567121402762e6	37520280	1	main_z	7	main_z	143	stimuli_distractor_trianglediamonds.svg	stimuli_target_diamondsquares.svg	28	yes	44	1	924
6.6.1	win	2022-12-15	14:13:15	14:19:20	363731	5ff2240a2f567121402762e6	37520280	1	main_z	7	advance_on_keypress_ZEE	144	stimuli_distractor_trianglediamonds.svg	stimuli_target_diamondsquares.svg	28	yes	57	0	185
6.6.1	win	2022-12-15	14:13:15	14:19:22	365382	5ff2240a2f567121402762e6	37520280	1	main_z	7	main_z	145	stimuli_target_circlediamonds.svg	stimuli_distractor_trianglediamonds.svg	2	yes	44	1	828
6.6.1	win	2022-12-15	14:13:15	14:19:22	365382	5ff2240a2f567121402762e6	37520280	1	main_z	7	advance_on_keypress_ZEE	146	stimuli_target_circlediamonds.svg	stimuli_distractor_trianglediamonds.svg	2	yes	57	0	170
6.6.1	win	2022-12-15	14:13:15	14:19:24	367048	5ff2240a2f567121402762e6	37520280	1	main_z	7	main_z	147	stimuli_distractor_diamondtriangles.svg	stimuli_target_squaretriangles.svg	15	yes	44	1	862
6.6.1	win	2022-12-15	14:13:15	14:19:24	367048	5ff2240a2f567121402762e6	37520280	1	main_z	7	advance_on_keypress_ZEE	148	stimuli_distractor_diamondtriangles.svg	stimuli_target_squaretriangles.svg	15	yes	57	0	95
6.6.1	win	2022-12-15	14:13:15	14:19:26	369785	5ff2240a2f567121402762e6	37520280	1	main_z	7	main_z	149	stimuli_distractor_trianglediamonds.svg	stimuli_distractor_trianglediamonds.svg	33	no	0	1	2000
6.6.1	win	2022-12-15	14:13:15	14:19:26	369785	5ff2240a2f567121402762e6	37520280	1	main_z	7	advance_on_keypress_ZEE	150	stimuli_distractor_trianglediamonds.svg	stimuli_distractor_trianglediamonds.svg	33	no	57	0	515
6.6.1	win	2022-12-15	14:13:15	14:19:29	372003	5ff2240a2f567121402762e6	37520280	1	main_z	7	main_z	151	stimuli_target_diamondsquares.svg	stimuli_distractor_diamondtriangles.svg	24	yes	44	1	1053
6.6.1	win	2022-12-15	14:13:15	14:19:29	372003	5ff2240a2f567121402762e6	37520280	1	main_z	7	advance_on_keypress_ZEE	152	stimuli_target_diamondsquares.svg	stimuli_distractor_diamondtriangles.svg	24	yes	57	0	258
6.6.1	win	2022-12-15	14:13:15	14:19:30	373832	5ff2240a2f567121402762e6	37520280	1	main_z	7	main_z	153	stimuli_distractor_diamondtriangles.svg	stimuli_target_trianglesquares.svg	30	yes	44	1	935
6.6.1	win	2022-12-15	14:13:15	14:19:30	373832	5ff2240a2f567121402762e6	37520280	1	main_z	7	advance_on_keypress_ZEE	154	stimuli_distractor_diamondtriangles.svg	stimuli_target_trianglesquares.svg	30	yes	57	0	100
6.6.1	win	2022-12-15	14:13:15	14:19:33	376580	5ff2240a2f567121402762e6	37520280	1	main_z	7	main_z	155	stimuli_distractor_trianglediamonds.svg	stimuli_distractor_diamondtriangles.svg	36	no	0	1	2000
6.6.1	win	2022-12-15	14:13:15	14:19:33	376580	5ff2240a2f567121402762e6	37520280	1	main_z	7	advance_on_keypress_ZEE	156	stimuli_distractor_trianglediamonds.svg	stimuli_distractor_diamondtriangles.svg	36	no	57	0	315
6.6.1	win	2022-12-15	14:13:15	14:19:35	378493	5ff2240a2f567121402762e6	37520280	1	main_z	7	main_z	157	stimuli_distractor_trianglediamonds.svg	stimuli_target_trianglesquares.svg	26	yes	44	1	950
6.6.1	win	2022-12-15	14:13:15	14:19:35	378493	5ff2240a2f567121402762e6	37520280	1	main_z	7	advance_on_keypress_ZEE	158	stimuli_distractor_trianglediamonds.svg	stimuli_target_trianglesquares.svg	26	yes	57	0	114
6.6.1	win	2022-12-15	14:13:15	14:19:37	380177	5ff2240a2f567121402762e6	37520280	1	main_z	7	main_z	159	stimuli_target_circlediamonds.svg	stimuli_distractor_diamondtriangles.svg	6	yes	44	1	918
6.6.1	win	2022-12-15	14:13:15	14:19:37	380177	5ff2240a2f567121402762e6	37520280	1	main_z	7	advance_on_keypress_ZEE	160	stimuli_target_circlediamonds.svg	stimuli_distractor_diamondtriangles.svg	6	yes	57	0	99
6.6.1	win	2022-12-15	14:13:15	14:20:20	423573	5ff2240a2f567121402762e6	37520280	1	practice_slash	9	practice_slash	1	stimuli_distractor_trianglediamonds.svg	stimuli_target_squarediamonds.svg	11	yes	53	1	511
6.6.1	win	2022-12-15	14:13:15	14:20:20	423573	5ff2240a2f567121402762e6	37520280	1	practice_slash	9	advance_on_keypress_SLASH	2	stimuli_distractor_trianglediamonds.svg	stimuli_target_squarediamonds.svg	11	yes	57	0	2005
6.6.1	win	2022-12-15	14:13:15	14:20:24	427771	5ff2240a2f567121402762e6	37520280	1	practice_slash	9	practice_slash	3	stimuli_target_circlediamonds.svg	stimuli_distractor_trianglediamonds.svg	4	yes	53	1	550
6.6.1	win	2022-12-15	14:13:15	14:20:24	427771	5ff2240a2f567121402762e6	37520280	1	practice_slash	9	advance_on_keypress_SLASH	4	stimuli_target_circlediamonds.svg	stimuli_distractor_trianglediamonds.svg	4	yes	57	0	2
6.6.1	win	2022-12-15	14:13:15	14:20:26	429951	5ff2240a2f567121402762e6	37520280	1	practice_slash	9	practice_slash	5	stimuli_distractor_trianglediamonds.svg	stimuli_target_diamondcircles.svg	12	yes	53	1	501
6.6.1	win	2022-12-15	14:13:15	14:20:26	429951	5ff2240a2f567121402762e6	37520280	1	practice_slash	9	advance_on_keypress_SLASH	6	stimuli_distractor_trianglediamonds.svg	stimuli_target_diamondcircles.svg	12	yes	57	0	696
6.6.1	win	2022-12-15	14:13:15	14:20:31	434300	5ff2240a2f567121402762e6	37520280	1	practice_slash	9	practice_slash	7	stimuli_distractor_trianglediamonds.svg	stimuli_distractor_trianglediamonds.svg	15	no	0	1	2000
6.6.1	win	2022-12-15	14:13:15	14:20:31	434300	5ff2240a2f567121402762e6	37520280	1	practice_slash	9	advance_on_keypress_SLASH	8	stimuli_distractor_trianglediamonds.svg	stimuli_distractor_trianglediamonds.svg	15	no	57	0	370
6.6.1	win	2022-12-15	14:13:15	14:20:33	436881	5ff2240a2f567121402762e6	37520280	1	practice_slash	9	practice_slash	9	stimuli_target_squarediamonds.svg	stimuli_distractor_trianglediamonds.svg	5	yes	53	1	568
6.6.1	win	2022-12-15	14:13:15	14:20:33	436881	5ff2240a2f567121402762e6	37520280	1	practice_slash	9	advance_on_keypress_SLASH	10	stimuli_target_squarediamonds.svg	stimuli_distractor_trianglediamonds.svg	5	yes	57	0	623
6.6.1	win	2022-12-15	14:13:15	14:20:36	439668	5ff2240a2f567121402762e6	37520280	1	practice_slash	9	practice_slash	11	stimuli_distractor_diamondtriangles.svg	stimuli_target_diamondcircles.svg	8	yes	53	1	525
6.6.1	win	2022-12-15	14:13:15	14:20:36	439668	5ff2240a2f567121402762e6	37520280	1	practice_slash	9	advance_on_keypress_SLASH	12	stimuli_distractor_diamondtriangles.svg	stimuli_target_diamondcircles.svg	8	yes	57	0	522
6.6.1	win	2022-12-15	14:13:15	14:20:40	443825	5ff2240a2f567121402762e6	37520280	1	practice_slash	9	practice_slash	13	stimuli_target_diamondsquares.svg	stimuli_distractor_trianglediamonds.svg	6	yes	0	0	2000
6.6.1	win	2022-12-15	14:13:15	14:20:40	443825	5ff2240a2f567121402762e6	37520280	1	practice_slash	9	advance_on_keypress_SLASH	14	stimuli_target_diamondsquares.svg	stimuli_distractor_trianglediamonds.svg	6	yes	57	0	456
6.6.1	win	2022-12-15	14:13:15	14:20:43	446628	5ff2240a2f567121402762e6	37520280	1	practice_slash	9	practice_slash	15	stimuli_target_circlediamonds.svg	stimuli_distractor_diamondtriangles.svg	1	yes	53	1	706
6.6.1	win	2022-12-15	14:13:15	14:20:43	446628	5ff2240a2f567121402762e6	37520280	1	practice_slash	9	advance_on_keypress_SLASH	16	stimuli_target_circlediamonds.svg	stimuli_distractor_diamondtriangles.svg	1	yes	57	0	397
6.6.1	win	2022-12-15	14:13:15	14:20:46	449508	5ff2240a2f567121402762e6	37520280	1	practice_slash	9	practice_slash	17	stimuli_distractor_trianglediamonds.svg	stimuli_target_circlediamonds.svg	10	yes	53	1	839
6.6.1	win	2022-12-15	14:13:15	14:20:46	449508	5ff2240a2f567121402762e6	37520280	1	practice_slash	9	advance_on_keypress_SLASH	18	stimuli_distractor_trianglediamonds.svg	stimuli_target_circlediamonds.svg	10	yes	57	0	351
6.6.1	win	2022-12-15	14:13:15	14:20:49	452027	5ff2240a2f567121402762e6	37520280	1	practice_slash	9	practice_slash	19	stimuli_distractor_diamondtriangles.svg	stimuli_target_circletriangles.svg	7	yes	53	1	527
6.6.1	win	2022-12-15	14:13:15	14:20:49	452027	5ff2240a2f567121402762e6	37520280	1	practice_slash	9	advance_on_keypress_SLASH	20	stimuli_distractor_diamondtriangles.svg	stimuli_target_circletriangles.svg	7	yes	57	0	502
6.6.1	win	2022-12-15	14:13:15	14:20:53	456181	5ff2240a2f567121402762e6	37520280	1	practice_slash	9	practice_slash	21	stimuli_distractor_diamondtriangles.svg	stimuli_distractor_trianglediamonds.svg	14	no	0	1	2000
6.6.1	win	2022-12-15	14:13:15	14:20:53	456181	5ff2240a2f567121402762e6	37520280	1	practice_slash	9	advance_on_keypress_SLASH	22	stimuli_distractor_diamondtriangles.svg	stimuli_distractor_trianglediamonds.svg	14	no	57	0	332
6.6.1	win	2022-12-15	14:13:15	14:20:57	460162	5ff2240a2f567121402762e6	37520280	1	practice_slash	9	practice_slash	23	stimuli_distractor_diamondtriangles.svg	stimuli_distractor_diamondtriangles.svg	13	no	0	1	2000
6.6.1	win	2022-12-15	14:13:15	14:20:57	460162	5ff2240a2f567121402762e6	37520280	1	practice_slash	9	advance_on_keypress_SLASH	24	stimuli_distractor_diamondtriangles.svg	stimuli_distractor_diamondtriangles.svg	13	no	57	0	936
6.6.1	win	2022-12-15	14:13:15	14:21:00	463336	5ff2240a2f567121402762e6	37520280	1	practice_slash	9	practice_slash	25	stimuli_target_squarediamonds.svg	stimuli_distractor_diamondtriangles.svg	2	yes	53	1	595
6.6.1	win	2022-12-15	14:13:15	14:21:00	463336	5ff2240a2f567121402762e6	37520280	1	practice_slash	9	advance_on_keypress_SLASH	26	stimuli_target_squarediamonds.svg	stimuli_distractor_diamondtriangles.svg	2	yes	57	0	405
6.6.1	win	2022-12-15	14:13:15	14:21:03	466007	5ff2240a2f567121402762e6	37520280	1	practice_slash	9	practice_slash	27	stimuli_distractor_diamondtriangles.svg	stimuli_target_trianglecircles.svg	9	yes	53	1	619
6.6.1	win	2022-12-15	14:13:15	14:21:03	466007	5ff2240a2f567121402762e6	37520280	1	practice_slash	9	advance_on_keypress_SLASH	28	stimuli_distractor_diamondtriangles.svg	stimuli_target_trianglecircles.svg	9	yes	57	0	336
6.6.1	win	2022-12-15	14:13:15	14:21:07	469987	5ff2240a2f567121402762e6	37520280	1	practice_slash	9	practice_slash	29	stimuli_distractor_trianglediamonds.svg	stimuli_distractor_diamondtriangles.svg	16	no	0	1	2000
6.6.1	win	2022-12-15	14:13:15	14:21:07	469987	5ff2240a2f567121402762e6	37520280	1	practice_slash	9	advance_on_keypress_SLASH	30	stimuli_distractor_trianglediamonds.svg	stimuli_distractor_diamondtriangles.svg	16	no	57	0	489
6.6.1	win	2022-12-15	14:13:15	14:21:11	474116	5ff2240a2f567121402762e6	37520280	1	practice_slash	9	practice_slash	31	stimuli_target_diamondsquares.svg	stimuli_distractor_diamondtriangles.svg	3	yes	0	0	2000
6.6.1	win	2022-12-15	14:13:15	14:21:11	474116	5ff2240a2f567121402762e6	37520280	1	practice_slash	9	advance_on_keypress_SLASH	32	stimuli_target_diamondsquares.svg	stimuli_distractor_diamondtriangles.svg	3	yes	57	0	463
6.6.1	win	2022-12-15	14:13:15	14:21:19	482912	5ff2240a2f567121402762e6	37520280	1	main_slash	11	main_slash	1	stimuli_distractor_trianglediamonds.svg	stimuli_target_trianglesquares.svg	26	yes	53	1	539
6.6.1	win	2022-12-15	14:13:15	14:21:19	482912	5ff2240a2f567121402762e6	37520280	1	main_slash	11	advance_on_keypress_SLASH	2	stimuli_distractor_trianglediamonds.svg	stimuli_target_trianglesquares.svg	26	yes	57	0	856
6.6.1	win	2022-12-15	14:13:15	14:21:22	485001	5ff2240a2f567121402762e6	37520280	1	main_slash	11	main_slash	3	stimuli_distractor_trianglediamonds.svg	stimuli_target_diamondsquares.svg	28	yes	53	1	598
6.6.1	win	2022-12-15	14:13:15	14:21:22	485001	5ff2240a2f567121402762e6	37520280	1	main_slash	11	advance_on_keypress_SLASH	4	stimuli_distractor_trianglediamonds.svg	stimuli_target_diamondsquares.svg	28	yes	57	0	707
6.6.1	win	2022-12-15	14:13:15	14:21:23	486950	5ff2240a2f567121402762e6	37520280	1	main_slash	11	main_slash	5	stimuli_distractor_diamondtriangles.svg	stimuli_target_squaretriangles.svg	15	yes	53	1	597
6.6.1	win	2022-12-15	14:13:15	14:21:23	486950	5ff2240a2f567121402762e6	37520280	1	main_slash	11	advance_on_keypress_SLASH	6	stimuli_distractor_diamondtriangles.svg	stimuli_target_squaretriangles.svg	15	yes	57	0	646
6.6.1	win	2022-12-15	14:13:15	14:21:26	489048	5ff2240a2f567121402762e6	37520280	1	main_slash	11	main_slash	7	stimuli_target_diamondcircles.svg	stimuli_distractor_diamondtriangles.svg	23	yes	53	1	797
6.6.1	win	2022-12-15	14:13:15	14:21:26	489048	5ff2240a2f567121402762e6	37520280	1	main_slash	11	advance_on_keypress_SLASH	8	stimuli_target_diamondcircles.svg	stimuli_distractor_diamondtriangles.svg	23	yes	57	0	577
6.6.1	win	2022-12-15	14:13:15	14:21:27	490804	5ff2240a2f567121402762e6	37520280	1	main_slash	11	main_slash	9	stimuli_target_circletriangles.svg	stimuli_distractor_diamondtriangles.svg	5	yes	53	1	539
6.6.1	win	2022-12-15	14:13:15	14:21:27	490804	5ff2240a2f567121402762e6	37520280	1	main_slash	11	advance_on_keypress_SLASH	10	stimuli_target_circletriangles.svg	stimuli_distractor_diamondtriangles.svg	5	yes	57	0	476
6.6.1	win	2022-12-15	14:13:15	14:21:29	492442	5ff2240a2f567121402762e6	37520280	1	main_slash	11	main_slash	11	stimuli_distractor_diamondtriangles.svg	stimuli_target_circletriangles.svg	13	yes	53	1	527
6.6.1	win	2022-12-15	14:13:15	14:21:29	492442	5ff2240a2f567121402762e6	37520280	1	main_slash	11	advance_on_keypress_SLASH	12	stimuli_distractor_diamondtriangles.svg	stimuli_target_circletriangles.svg	13	yes	57	0	533
6.6.1	win	2022-12-15	14:13:15	14:21:31	494786	5ff2240a2f567121402762e6	37520280	1	main_slash	11	main_slash	13	stimuli_target_circletriangles.svg	stimuli_distractor_trianglediamonds.svg	1	yes	53	1	1172
6.6.1	win	2022-12-15	14:13:15	14:21:31	494786	5ff2240a2f567121402762e6	37520280	1	main_slash	11	advance_on_keypress_SLASH	14	stimuli_target_circletriangles.svg	stimuli_distractor_trianglediamonds.svg	1	yes	57	0	508
6.6.1	win	2022-12-15	14:13:15	14:21:34	497928	5ff2240a2f567121402762e6	37520280	1	main_slash	11	main_slash	15	stimuli_distractor_trianglediamonds.svg	stimuli_distractor_trianglediamonds.svg	33	no	0	1	2000
6.6.1	win	2022-12-15	14:13:15	14:21:34	497928	5ff2240a2f567121402762e6	37520280	1	main_slash	11	advance_on_keypress_SLASH	16	stimuli_distractor_trianglediamonds.svg	stimuli_distractor_trianglediamonds.svg	33	no	57	0	430
6.6.1	win	2022-12-15	14:13:15	14:21:36	499540	5ff2240a2f567121402762e6	37520280	1	main_slash	11	main_slash	17	stimuli_distractor_trianglediamonds.svg	stimuli_target_squaretriangles.svg	11	yes	53	1	532
6.6.1	win	2022-12-15	14:13:15	14:21:36	499540	5ff2240a2f567121402762e6	37520280	1	main_slash	11	advance_on_keypress_SLASH	18	stimuli_distractor_trianglediamonds.svg	stimuli_target_squaretriangles.svg	11	yes	57	0	559
6.6.1	win	2022-12-15	14:13:15	14:21:38	501526	5ff2240a2f567121402762e6	37520280	1	main_slash	11	main_slash	19	stimuli_target_diamondcircles.svg	stimuli_distractor_trianglediamonds.svg	19	yes	53	1	786
6.6.1	win	2022-12-15	14:13:15	14:21:38	501526	5ff2240a2f567121402762e6	37520280	1	main_slash	11	advance_on_keypress_SLASH	20	stimuli_target_diamondcircles.svg	stimuli_distractor_trianglediamonds.svg	19	yes	57	0	453
6.6.1	win	2022-12-15	14:13:15	14:21:40	503317	5ff2240a2f567121402762e6	37520280	1	main_slash	11	main_slash	21	stimuli_target_trianglesquares.svg	stimuli_distractor_trianglediamonds.svg	18	yes	53	1	695
6.6.1	win	2022-12-15	14:13:15	14:21:40	503317	5ff2240a2f567121402762e6	37520280	1	main_slash	11	advance_on_keypress_SLASH	22	stimuli_target_trianglesquares.svg	stimuli_distractor_trianglediamonds.svg	18	yes	57	0	423
6.6.1	win	2022-12-15	14:13:15	14:21:41	504853	5ff2240a2f567121402762e6	37520280	1	main_slash	11	main_slash	23	stimuli_target_trianglesquares.svg	stimuli_distractor_diamondtriangles.svg	22	yes	53	1	483
6.6.1	win	2022-12-15	14:13:15	14:21:41	504853	5ff2240a2f567121402762e6	37520280	1	main_slash	11	advance_on_keypress_SLASH	24	stimuli_target_trianglesquares.svg	stimuli_distractor_diamondtriangles.svg	22	yes	57	0	359
6.6.1	win	2022-12-15	14:13:15	14:21:43	506332	5ff2240a2f567121402762e6	37520280	1	main_slash	11	main_slash	25	stimuli_target_squarediamonds.svg	stimuli_distractor_trianglediamonds.svg	4	yes	53	1	480
6.6.1	win	2022-12-15	14:13:15	14:21:43	506332	5ff2240a2f567121402762e6	37520280	1	main_slash	11	advance_on_keypress_SLASH	26	stimuli_target_squarediamonds.svg	stimuli_distractor_trianglediamonds.svg	4	yes	57	0	357
6.6.1	win	2022-12-15	14:13:15	14:21:44	507899	5ff2240a2f567121402762e6	37520280	1	main_slash	11	main_slash	27	stimuli_distractor_diamondtriangles.svg	stimuli_target_diamondcircles.svg	31	yes	53	1	565
6.6.1	win	2022-12-15	14:13:15	14:21:44	507899	5ff2240a2f567121402762e6	37520280	1	main_slash	11	advance_on_keypress_SLASH	28	stimuli_distractor_diamondtriangles.svg	stimuli_target_diamondcircles.svg	31	yes	57	0	340
6.6.1	win	2022-12-15	14:13:15	14:21:46	509344	5ff2240a2f567121402762e6	37520280	1	main_slash	11	main_slash	29	stimuli_target_squarediamonds.svg	stimuli_distractor_diamondtriangles.svg	8	yes	53	1	461
6.6.1	win	2022-12-15	14:13:15	14:21:46	509344	5ff2240a2f567121402762e6	37520280	1	main_slash	11	advance_on_keypress_SLASH	30	stimuli_target_squarediamonds.svg	stimuli_distractor_diamondtriangles.svg	8	yes	57	0	366
6.6.1	win	2022-12-15	14:13:15	14:21:47	510793	5ff2240a2f567121402762e6	37520280	1	main_slash	11	main_slash	31	stimuli_distractor_trianglediamonds.svg	stimuli_distractor_diamondtriangles.svg	35	no	53	0	443
6.6.1	win	2022-12-15	14:13:15	14:21:47	510793	5ff2240a2f567121402762e6	37520280	1	main_slash	11	advance_on_keypress_SLASH	32	stimuli_distractor_trianglediamonds.svg	stimuli_distractor_diamondtriangles.svg	35	no	57	0	749
6.6.1	win	2022-12-15	14:13:15	14:21:51	514181	5ff2240a2f567121402762e6	37520280	1	main_slash	11	main_slash	33	stimuli_distractor_trianglediamonds.svg	stimuli_distractor_trianglediamonds.svg	34	no	0	1	2000
6.6.1	win	2022-12-15	14:13:15	14:21:51	514181	5ff2240a2f567121402762e6	37520280	1	main_slash	11	advance_on_keypress_SLASH	34	stimuli_distractor_trianglediamonds.svg	stimuli_distractor_trianglediamonds.svg	34	no	57	0	523
6.6.1	win	2022-12-15	14:13:15	14:21:52	515955	5ff2240a2f567121402762e6	37520280	1	main_slash	11	main_slash	35	stimuli_target_trianglecircles.svg	stimuli_distractor_trianglediamonds.svg	17	yes	53	1	610
6.6.1	win	2022-12-15	14:13:15	14:21:52	515955	5ff2240a2f567121402762e6	37520280	1	main_slash	11	advance_on_keypress_SLASH	36	stimuli_target_trianglecircles.svg	stimuli_distractor_trianglediamonds.svg	17	yes	57	0	394
6.6.1	win	2022-12-15	14:13:15	14:21:54	517632	5ff2240a2f567121402762e6	37520280	1	main_slash	11	main_slash	37	stimuli_distractor_trianglediamonds.svg	stimuli_target_circletriangles.svg	9	yes	53	1	639
6.6.1	win	2022-12-15	14:13:15	14:21:54	517632	5ff2240a2f567121402762e6	37520280	1	main_slash	11	advance_on_keypress_SLASH	38	stimuli_distractor_trianglediamonds.svg	stimuli_target_circletriangles.svg	9	yes	57	0	311
6.6.1	win	2022-12-15	14:13:15	14:21:57	520576	5ff2240a2f567121402762e6	37520280	1	main_slash	11	main_slash	39	stimuli_distractor_diamondtriangles.svg	stimuli_target_circlediamonds.svg	14	yes	0	0	2000
6.6.1	win	2022-12-15	14:13:15	14:21:57	520576	5ff2240a2f567121402762e6	37520280	1	main_slash	11	advance_on_keypress_SLASH	40	stimuli_distractor_diamondtriangles.svg	stimuli_target_circlediamonds.svg	14	yes	57	0	532
6.6.1	win	2022-12-15	14:13:15	14:21:59	522272	5ff2240a2f567121402762e6	37520280	1	main_slash	11	main_slash	41	stimuli_target_squaretriangles.svg	stimuli_distractor_trianglediamonds.svg	3	yes	53	1	501
6.6.1	win	2022-12-15	14:13:15	14:21:59	522272	5ff2240a2f567121402762e6	37520280	1	main_slash	11	advance_on_keypress_SLASH	42	stimuli_target_squaretriangles.svg	stimuli_distractor_trianglediamonds.svg	3	yes	57	0	324
6.6.1	win	2022-12-15	14:13:15	14:22:02	525238	5ff2240a2f567121402762e6	37520280	1	main_slash	11	main_slash	43	stimuli_distractor_diamondtriangles.svg	stimuli_distractor_diamondtriangles.svg	40	no	0	1	2000
6.6.1	win	2022-12-15	14:13:15	14:22:02	525238	5ff2240a2f567121402762e6	37520280	1	main_slash	11	advance_on_keypress_SLASH	44	stimuli_distractor_diamondtriangles.svg	stimuli_distractor_diamondtriangles.svg	40	no	57	0	466
6.6.1	win	2022-12-15	14:13:15	14:22:03	526868	5ff2240a2f567121402762e6	37520280	1	main_slash	11	main_slash	45	stimuli_distractor_diamondtriangles.svg	stimuli_target_trianglesquares.svg	30	yes	53	1	507
6.6.1	win	2022-12-15	14:13:15	14:22:03	526868	5ff2240a2f567121402762e6	37520280	1	main_slash	11	advance_on_keypress_SLASH	46	stimuli_distractor_diamondtriangles.svg	stimuli_target_trianglesquares.svg	30	yes	57	0	298
6.6.1	win	2022-12-15	14:13:15	14:22:06	529818	5ff2240a2f567121402762e6	37520280	1	main_slash	11	main_slash	47	stimuli_distractor_diamondtriangles.svg	stimuli_distractor_trianglediamonds.svg	37	no	0	1	2000
6.6.1	win	2022-12-15	14:13:15	14:22:06	529818	5ff2240a2f567121402762e6	37520280	1	main_slash	11	advance_on_keypress_SLASH	48	stimuli_distractor_diamondtriangles.svg	stimuli_distractor_trianglediamonds.svg	37	no	57	0	475
6.6.1	win	2022-12-15	14:13:15	14:22:09	532932	5ff2240a2f567121402762e6	37520280	1	main_slash	11	main_slash	49	stimuli_distractor_trianglediamonds.svg	stimuli_distractor_diamondtriangles.svg	36	no	0	1	2000
6.6.1	win	2022-12-15	14:13:15	14:22:09	532932	5ff2240a2f567121402762e6	37520280	1	main_slash	11	advance_on_keypress_SLASH	50	stimuli_distractor_trianglediamonds.svg	stimuli_distractor_diamondtriangles.svg	36	no	57	0	362
6.6.1	win	2022-12-15	14:13:15	14:22:11	534749	5ff2240a2f567121402762e6	37520280	1	main_slash	11	main_slash	51	stimuli_target_diamondsquares.svg	stimuli_distractor_trianglediamonds.svg	20	yes	53	1	802
6.6.1	win	2022-12-15	14:13:15	14:22:11	534749	5ff2240a2f567121402762e6	37520280	1	main_slash	11	advance_on_keypress_SLASH	52	stimuli_target_diamondsquares.svg	stimuli_distractor_trianglediamonds.svg	20	yes	57	0	361
6.6.1	win	2022-12-15	14:13:15	14:22:13	536316	5ff2240a2f567121402762e6	37520280	1	main_slash	11	main_slash	53	stimuli_distractor_diamondtriangles.svg	stimuli_target_diamondsquares.svg	32	yes	53	1	572
6.6.1	win	2022-12-15	14:13:15	14:22:13	536316	5ff2240a2f567121402762e6	37520280	1	main_slash	11	advance_on_keypress_SLASH	54	stimuli_distractor_diamondtriangles.svg	stimuli_target_diamondsquares.svg	32	yes	57	0	310
6.6.1	win	2022-12-15	14:13:15	14:22:16	539260	5ff2240a2f567121402762e6	37520280	1	main_slash	11	main_slash	55	stimuli_distractor_trianglediamonds.svg	stimuli_target_squarediamonds.svg	12	yes	0	0	2000
6.6.1	win	2022-12-15	14:13:15	14:22:16	539260	5ff2240a2f567121402762e6	37520280	1	main_slash	11	advance_on_keypress_SLASH	56	stimuli_distractor_trianglediamonds.svg	stimuli_target_squarediamonds.svg	12	yes	57	0	438
6.6.1	win	2022-12-15	14:13:15	14:22:18	541065	5ff2240a2f567121402762e6	37520280	1	main_slash	11	main_slash	57	stimuli_target_circlediamonds.svg	stimuli_distractor_diamondtriangles.svg	6	yes	53	1	724
6.6.1	win	2022-12-15	14:13:15	14:22:18	541065	5ff2240a2f567121402762e6	37520280	1	main_slash	11	advance_on_keypress_SLASH	58	stimuli_target_circlediamonds.svg	stimuli_distractor_diamondtriangles.svg	6	yes	57	0	720
6.6.1	win	2022-12-15	14:13:15	14:22:20	543007	5ff2240a2f567121402762e6	37520280	1	main_slash	11	main_slash	59	stimuli_distractor_trianglediamonds.svg	stimuli_target_circlediamonds.svg	10	yes	53	1	584
6.6.1	win	2022-12-15	14:13:15	14:22:20	543007	5ff2240a2f567121402762e6	37520280	1	main_slash	11	advance_on_keypress_SLASH	60	stimuli_distractor_trianglediamonds.svg	stimuli_target_circlediamonds.svg	10	yes	57	0	363
6.6.1	win	2022-12-15	14:13:15	14:22:21	544464	5ff2240a2f567121402762e6	37520280	1	main_slash	11	main_slash	61	stimuli_distractor_diamondtriangles.svg	stimuli_target_trianglecircles.svg	29	yes	53	1	444
6.6.1	win	2022-12-15	14:13:15	14:22:21	544464	5ff2240a2f567121402762e6	37520280	1	main_slash	11	advance_on_keypress_SLASH	62	stimuli_distractor_diamondtriangles.svg	stimuli_target_trianglecircles.svg	29	yes	57	0	259
6.6.1	win	2022-12-15	14:13:15	14:22:24	547354	5ff2240a2f567121402762e6	37520280	1	main_slash	11	main_slash	63	stimuli_distractor_diamondtriangles.svg	stimuli_distractor_diamondtriangles.svg	39	no	0	1	2000
6.6.1	win	2022-12-15	14:13:15	14:22:24	547354	5ff2240a2f567121402762e6	37520280	1	main_slash	11	advance_on_keypress_SLASH	64	stimuli_distractor_diamondtriangles.svg	stimuli_distractor_diamondtriangles.svg	39	no	57	0	369
6.6.1	win	2022-12-15	14:13:15	14:22:25	548886	5ff2240a2f567121402762e6	37520280	1	main_slash	11	main_slash	65	stimuli_target_trianglecircles.svg	stimuli_distractor_diamondtriangles.svg	21	yes	53	1	519
6.6.1	win	2022-12-15	14:13:15	14:22:25	548886	5ff2240a2f567121402762e6	37520280	1	main_slash	11	advance_on_keypress_SLASH	66	stimuli_target_trianglecircles.svg	stimuli_distractor_diamondtriangles.svg	21	yes	57	0	377
6.6.1	win	2022-12-15	14:13:15	14:22:27	550502	5ff2240a2f567121402762e6	37520280	1	main_slash	11	main_slash	67	stimuli_target_circlediamonds.svg	stimuli_distractor_trianglediamonds.svg	2	yes	53	1	586
6.6.1	win	2022-12-15	14:13:15	14:22:27	550502	5ff2240a2f567121402762e6	37520280	1	main_slash	11	advance_on_keypress_SLASH	68	stimuli_target_circlediamonds.svg	stimuli_distractor_trianglediamonds.svg	2	yes	57	0	209
6.6.1	win	2022-12-15	14:13:15	14:22:29	552032	5ff2240a2f567121402762e6	37520280	1	main_slash	11	main_slash	69	stimuli_distractor_trianglediamonds.svg	stimuli_target_diamondcircles.svg	27	yes	53	1	683
6.6.1	win	2022-12-15	14:13:15	14:22:29	552032	5ff2240a2f567121402762e6	37520280	1	main_slash	11	advance_on_keypress_SLASH	70	stimuli_distractor_trianglediamonds.svg	stimuli_target_diamondcircles.svg	27	yes	57	0	187
6.6.1	win	2022-12-15	14:13:15	14:22:31	554864	5ff2240a2f567121402762e6	37520280	1	main_slash	11	main_slash	71	stimuli_distractor_diamondtriangles.svg	stimuli_target_squarediamonds.svg	16	yes	0	0	2000
6.6.1	win	2022-12-15	14:13:15	14:22:31	554864	5ff2240a2f567121402762e6	37520280	1	main_slash	11	advance_on_keypress_SLASH	72	stimuli_distractor_diamondtriangles.svg	stimuli_target_squarediamonds.svg	16	yes	57	0	412
6.6.1	win	2022-12-15	14:13:15	14:22:33	556923	5ff2240a2f567121402762e6	37520280	1	main_slash	11	main_slash	73	stimuli_target_diamondsquares.svg	stimuli_distractor_diamondtriangles.svg	24	yes	53	1	1012
6.6.1	win	2022-12-15	14:13:15	14:22:33	556923	5ff2240a2f567121402762e6	37520280	1	main_slash	11	advance_on_keypress_SLASH	74	stimuli_target_diamondsquares.svg	stimuli_distractor_diamondtriangles.svg	24	yes	57	0	164
6.6.1	win	2022-12-15	14:13:15	14:22:35	558241	5ff2240a2f567121402762e6	37520280	1	main_slash	11	main_slash	75	stimuli_distractor_trianglediamonds.svg	stimuli_target_trianglecircles.svg	25	yes	53	1	512
6.6.1	win	2022-12-15	14:13:15	14:22:35	558241	5ff2240a2f567121402762e6	37520280	1	main_slash	11	advance_on_keypress_SLASH	76	stimuli_distractor_trianglediamonds.svg	stimuli_target_trianglecircles.svg	25	yes	57	0	141
6.6.1	win	2022-12-15	14:13:15	14:22:38	561025	5ff2240a2f567121402762e6	37520280	1	main_slash	11	main_slash	77	stimuli_distractor_diamondtriangles.svg	stimuli_distractor_trianglediamonds.svg	38	no	0	1	2000
6.6.1	win	2022-12-15	14:13:15	14:22:38	561025	5ff2240a2f567121402762e6	37520280	1	main_slash	11	advance_on_keypress_SLASH	78	stimuli_distractor_diamondtriangles.svg	stimuli_distractor_trianglediamonds.svg	38	no	57	0	522
6.6.1	win	2022-12-15	14:13:15	14:22:39	562900	5ff2240a2f567121402762e6	37520280	1	main_slash	11	main_slash	79	stimuli_target_squaretriangles.svg	stimuli_distractor_diamondtriangles.svg	7	yes	53	1	711
6.6.1	win	2022-12-15	14:13:15	14:22:39	562900	5ff2240a2f567121402762e6	37520280	1	main_slash	11	advance_on_keypress_SLASH	80	stimuli_target_squaretriangles.svg	stimuli_distractor_diamondtriangles.svg	7	yes	57	0	183
6.6.1	win	2022-12-15	14:13:15	14:22:41	564275	5ff2240a2f567121402762e6	37520280	1	main_slash	11	main_slash	81	stimuli_distractor_trianglediamonds.svg	stimuli_target_squarediamonds.svg	12	yes	53	1	555
6.6.1	win	2022-12-15	14:13:15	14:22:41	564275	5ff2240a2f567121402762e6	37520280	1	main_slash	11	advance_on_keypress_SLASH	82	stimuli_distractor_trianglediamonds.svg	stimuli_target_squarediamonds.svg	12	yes	57	0	131
6.6.1	win	2022-12-15	14:13:15	14:22:42	565569	5ff2240a2f567121402762e6	37520280	1	main_slash	11	main_slash	83	stimuli_target_squarediamonds.svg	stimuli_distractor_trianglediamonds.svg	4	yes	53	1	514
6.6.1	win	2022-12-15	14:13:15	14:22:42	565569	5ff2240a2f567121402762e6	37520280	1	main_slash	11	advance_on_keypress_SLASH	84	stimuli_target_squarediamonds.svg	stimuli_distractor_trianglediamonds.svg	4	yes	57	0	72
6.6.1	win	2022-12-15	14:13:15	14:22:43	566820	5ff2240a2f567121402762e6	37520280	1	main_slash	11	main_slash	85	stimuli_target_diamondcircles.svg	stimuli_distractor_diamondtriangles.svg	23	yes	53	1	535
6.6.1	win	2022-12-15	14:13:15	14:22:43	566820	5ff2240a2f567121402762e6	37520280	1	main_slash	11	advance_on_keypress_SLASH	86	stimuli_target_diamondcircles.svg	stimuli_distractor_diamondtriangles.svg	23	yes	57	0	86
6.6.1	win	2022-12-15	14:13:15	14:22:46	569551	5ff2240a2f567121402762e6	37520280	1	main_slash	11	main_slash	87	stimuli_distractor_diamondtriangles.svg	stimuli_distractor_diamondtriangles.svg	40	no	0	1	2000
6.6.1	win	2022-12-15	14:13:15	14:22:46	569551	5ff2240a2f567121402762e6	37520280	1	main_slash	11	advance_on_keypress_SLASH	88	stimuli_distractor_diamondtriangles.svg	stimuli_distractor_diamondtriangles.svg	40	no	57	0	1022
6.6.1	win	2022-12-15	14:13:15	14:22:50	573215	5ff2240a2f567121402762e6	37520280	1	main_slash	11	main_slash	89	stimuli_distractor_trianglediamonds.svg	stimuli_distractor_trianglediamonds.svg	33	no	0	1	2000
6.6.1	win	2022-12-15	14:13:15	14:22:50	573215	5ff2240a2f567121402762e6	37520280	1	main_slash	11	advance_on_keypress_SLASH	90	stimuli_distractor_trianglediamonds.svg	stimuli_distractor_trianglediamonds.svg	33	no	57	0	550
6.6.1	win	2022-12-15	14:13:15	14:22:52	575041	5ff2240a2f567121402762e6	37520280	1	main_slash	11	main_slash	91	stimuli_distractor_trianglediamonds.svg	stimuli_target_squaretriangles.svg	11	yes	53	1	630
6.6.1	win	2022-12-15	14:13:15	14:22:52	575041	5ff2240a2f567121402762e6	37520280	1	main_slash	11	advance_on_keypress_SLASH	92	stimuli_distractor_trianglediamonds.svg	stimuli_target_squaretriangles.svg	11	yes	57	0	146
6.6.1	win	2022-12-15	14:13:15	14:22:53	576447	5ff2240a2f567121402762e6	37520280	1	main_slash	11	main_slash	93	stimuli_distractor_diamondtriangles.svg	stimuli_target_trianglesquares.svg	30	yes	53	1	620
6.6.1	win	2022-12-15	14:13:15	14:22:53	576447	5ff2240a2f567121402762e6	37520280	1	main_slash	11	advance_on_keypress_SLASH	94	stimuli_distractor_diamondtriangles.svg	stimuli_target_trianglesquares.svg	30	yes	57	0	128
6.6.1	win	2022-12-15	14:13:15	14:22:54	577926	5ff2240a2f567121402762e6	37520280	1	main_slash	11	main_slash	95	stimuli_target_trianglesquares.svg	stimuli_distractor_diamondtriangles.svg	22	yes	53	1	717
6.6.1	win	2022-12-15	14:13:15	14:22:54	577926	5ff2240a2f567121402762e6	37520280	1	main_slash	11	advance_on_keypress_SLASH	96	stimuli_target_trianglesquares.svg	stimuli_distractor_diamondtriangles.svg	22	yes	57	0	488
6.6.1	win	2022-12-15	14:13:15	14:22:58	581058	5ff2240a2f567121402762e6	37520280	1	main_slash	11	main_slash	97	stimuli_distractor_trianglediamonds.svg	stimuli_distractor_diamondtriangles.svg	35	no	0	1	2000
6.6.1	win	2022-12-15	14:13:15	14:22:58	581058	5ff2240a2f567121402762e6	37520280	1	main_slash	11	advance_on_keypress_SLASH	98	stimuli_distractor_trianglediamonds.svg	stimuli_distractor_diamondtriangles.svg	35	no	57	0	700
6.6.1	win	2022-12-15	14:13:15	14:22:59	582931	5ff2240a2f567121402762e6	37520280	1	main_slash	11	main_slash	99	stimuli_distractor_diamondtriangles.svg	stimuli_target_diamondcircles.svg	31	yes	53	1	525
6.6.1	win	2022-12-15	14:13:15	14:22:59	582931	5ff2240a2f567121402762e6	37520280	1	main_slash	11	advance_on_keypress_SLASH	100	stimuli_distractor_diamondtriangles.svg	stimuli_target_diamondcircles.svg	31	yes	57	0	199
6.6.1	win	2022-12-15	14:13:15	14:23:01	584834	5ff2240a2f567121402762e6	37520280	1	main_slash	11	main_slash	101	stimuli_target_squarediamonds.svg	stimuli_distractor_diamondtriangles.svg	8	yes	53	1	1063
6.6.1	win	2022-12-15	14:13:15	14:23:01	584834	5ff2240a2f567121402762e6	37520280	1	main_slash	11	advance_on_keypress_SLASH	102	stimuli_target_squarediamonds.svg	stimuli_distractor_diamondtriangles.svg	8	yes	57	0	66
6.6.1	win	2022-12-15	14:13:15	14:23:03	586493	5ff2240a2f567121402762e6	37520280	1	main_slash	11	main_slash	103	stimuli_target_trianglesquares.svg	stimuli_distractor_trianglediamonds.svg	18	yes	53	1	941
6.6.1	win	2022-12-15	14:13:15	14:23:03	586493	5ff2240a2f567121402762e6	37520280	1	main_slash	11	advance_on_keypress_SLASH	104	stimuli_target_trianglesquares.svg	stimuli_distractor_trianglediamonds.svg	18	yes	57	0	121
6.6.1	win	2022-12-15	14:13:15	14:23:05	588135	5ff2240a2f567121402762e6	37520280	1	main_slash	11	main_slash	105	stimuli_distractor_diamondtriangles.svg	stimuli_target_circletriangles.svg	13	yes	53	1	884
6.6.1	win	2022-12-15	14:13:15	14:23:05	588135	5ff2240a2f567121402762e6	37520280	1	main_slash	11	advance_on_keypress_SLASH	106	stimuli_distractor_diamondtriangles.svg	stimuli_target_circletriangles.svg	13	yes	57	0	119
6.6.1	win	2022-12-15	14:13:15	14:23:06	589613	5ff2240a2f567121402762e6	37520280	1	main_slash	11	main_slash	107	stimuli_target_diamondcircles.svg	stimuli_distractor_trianglediamonds.svg	19	yes	53	1	713
6.6.1	win	2022-12-15	14:13:15	14:23:06	589613	5ff2240a2f567121402762e6	37520280	1	main_slash	11	advance_on_keypress_SLASH	108	stimuli_target_diamondcircles.svg	stimuli_distractor_trianglediamonds.svg	19	yes	57	0	108
6.6.1	win	2022-12-15	14:13:15	14:23:07	590862	5ff2240a2f567121402762e6	37520280	1	main_slash	11	main_slash	109	stimuli_target_trianglecircles.svg	stimuli_distractor_trianglediamonds.svg	17	yes	53	1	496
6.6.1	win	2022-12-15	14:13:15	14:23:07	590862	5ff2240a2f567121402762e6	37520280	1	main_slash	11	advance_on_keypress_SLASH	110	stimuli_target_trianglecircles.svg	stimuli_distractor_trianglediamonds.svg	17	yes	57	0	161
6.6.1	win	2022-12-15	14:13:15	14:23:09	592329	5ff2240a2f567121402762e6	37520280	1	main_slash	11	main_slash	111	stimuli_target_squaretriangles.svg	stimuli_distractor_trianglediamonds.svg	3	yes	53	1	665
6.6.1	win	2022-12-15	14:13:15	14:23:09	592329	5ff2240a2f567121402762e6	37520280	1	main_slash	11	advance_on_keypress_SLASH	112	stimuli_target_squaretriangles.svg	stimuli_distractor_trianglediamonds.svg	3	yes	57	0	130
6.6.1	win	2022-12-15	14:13:15	14:23:10	593687	5ff2240a2f567121402762e6	37520280	1	main_slash	11	main_slash	113	stimuli_target_circletriangles.svg	stimuli_distractor_trianglediamonds.svg	1	yes	53	1	575
6.6.1	win	2022-12-15	14:13:15	14:23:10	593687	5ff2240a2f567121402762e6	37520280	1	main_slash	11	advance_on_keypress_SLASH	114	stimuli_target_circletriangles.svg	stimuli_distractor_trianglediamonds.svg	1	yes	57	0	133
6.6.1	win	2022-12-15	14:13:15	14:23:11	594913	5ff2240a2f567121402762e6	37520280	1	main_slash	11	main_slash	115	stimuli_distractor_trianglediamonds.svg	stimuli_target_circletriangles.svg	9	yes	53	1	452
6.6.1	win	2022-12-15	14:13:15	14:23:11	594913	5ff2240a2f567121402762e6	37520280	1	main_slash	11	advance_on_keypress_SLASH	116	stimuli_distractor_trianglediamonds.svg	stimuli_target_circletriangles.svg	9	yes	57	0	109
6.6.1	win	2022-12-15	14:13:15	14:23:13	596573	5ff2240a2f567121402762e6	37520280	1	main_slash	11	main_slash	117	stimuli_distractor_trianglediamonds.svg	stimuli_target_trianglesquares.svg	26	yes	53	1	912
6.6.1	win	2022-12-15	14:13:15	14:23:13	596573	5ff2240a2f567121402762e6	37520280	1	main_slash	11	advance_on_keypress_SLASH	118	stimuli_distractor_trianglediamonds.svg	stimuli_target_trianglesquares.svg	26	yes	57	0	138
6.6.1	win	2022-12-15	14:13:15	14:23:16	599343	5ff2240a2f567121402762e6	37520280	1	main_slash	11	main_slash	119	stimuli_distractor_diamondtriangles.svg	stimuli_distractor_diamondtriangles.svg	39	no	0	1	2000
6.6.1	win	2022-12-15	14:13:15	14:23:16	599343	5ff2240a2f567121402762e6	37520280	1	main_slash	11	advance_on_keypress_SLASH	120	stimuli_distractor_diamondtriangles.svg	stimuli_distractor_diamondtriangles.svg	39	no	57	0	923
6.6.1	win	2022-12-15	14:13:15	14:23:18	601728	5ff2240a2f567121402762e6	37520280	1	main_slash	11	main_slash	121	stimuli_target_diamondsquares.svg	stimuli_distractor_trianglediamonds.svg	20	yes	53	1	821
6.6.1	win	2022-12-15	14:13:15	14:23:18	601728	5ff2240a2f567121402762e6	37520280	1	main_slash	11	advance_on_keypress_SLASH	122	stimuli_target_diamondsquares.svg	stimuli_distractor_trianglediamonds.svg	20	yes	57	0	122
6.6.1	win	2022-12-15	14:13:15	14:23:20	603012	5ff2240a2f567121402762e6	37520280	1	main_slash	11	main_slash	123	stimuli_distractor_trianglediamonds.svg	stimuli_target_diamondcircles.svg	27	yes	53	1	523
6.6.1	win	2022-12-15	14:13:15	14:23:20	603012	5ff2240a2f567121402762e6	37520280	1	main_slash	11	advance_on_keypress_SLASH	124	stimuli_distractor_trianglediamonds.svg	stimuli_target_diamondcircles.svg	27	yes	57	0	107
6.6.1	win	2022-12-15	14:13:15	14:23:21	604471	5ff2240a2f567121402762e6	37520280	1	main_slash	11	main_slash	125	stimuli_target_diamondsquares.svg	stimuli_distractor_diamondtriangles.svg	24	yes	53	1	716
6.6.1	win	2022-12-15	14:13:15	14:23:21	604471	5ff2240a2f567121402762e6	37520280	1	main_slash	11	advance_on_keypress_SLASH	126	stimuli_target_diamondsquares.svg	stimuli_distractor_diamondtriangles.svg	24	yes	57	0	83
6.6.1	win	2022-12-15	14:13:15	14:23:22	605764	5ff2240a2f567121402762e6	37520280	1	main_slash	11	main_slash	127	stimuli_target_trianglecircles.svg	stimuli_distractor_diamondtriangles.svg	21	yes	53	1	561
6.6.1	win	2022-12-15	14:13:15	14:23:22	605764	5ff2240a2f567121402762e6	37520280	1	main_slash	11	advance_on_keypress_SLASH	128	stimuli_target_trianglecircles.svg	stimuli_distractor_diamondtriangles.svg	21	yes	57	0	107
6.6.1	win	2022-12-15	14:13:15	14:23:24	607500	5ff2240a2f567121402762e6	37520280	1	main_slash	11	main_slash	129	stimuli_target_squaretriangles.svg	stimuli_distractor_diamondtriangles.svg	7	yes	53	1	999
6.6.1	win	2022-12-15	14:13:15	14:23:24	607500	5ff2240a2f567121402762e6	37520280	1	main_slash	11	advance_on_keypress_SLASH	130	stimuli_target_squaretriangles.svg	stimuli_distractor_diamondtriangles.svg	7	yes	57	0	92
6.6.1	win	2022-12-15	14:13:15	14:23:25	608678	5ff2240a2f567121402762e6	37520280	1	main_slash	11	main_slash	131	stimuli_distractor_diamondtriangles.svg	stimuli_target_trianglecircles.svg	29	yes	53	1	445
6.6.1	win	2022-12-15	14:13:15	14:23:25	608678	5ff2240a2f567121402762e6	37520280	1	main_slash	11	advance_on_keypress_SLASH	132	stimuli_distractor_diamondtriangles.svg	stimuli_target_trianglecircles.svg	29	yes	57	0	118
6.6.1	win	2022-12-15	14:13:15	14:23:26	609861	5ff2240a2f567121402762e6	37520280	1	main_slash	11	main_slash	133	stimuli_distractor_diamondtriangles.svg	stimuli_target_squaretriangles.svg	15	yes	53	1	428
6.6.1	win	2022-12-15	14:13:15	14:23:26	609861	5ff2240a2f567121402762e6	37520280	1	main_slash	11	advance_on_keypress_SLASH	134	stimuli_distractor_diamondtriangles.svg	stimuli_target_squaretriangles.svg	15	yes	57	0	123
6.6.1	win	2022-12-15	14:13:15	14:23:28	611024	5ff2240a2f567121402762e6	37520280	1	main_slash	11	main_slash	135	stimuli_distractor_diamondtriangles.svg	stimuli_target_circlediamonds.svg	14	yes	53	1	410
6.6.1	win	2022-12-15	14:13:15	14:23:28	611024	5ff2240a2f567121402762e6	37520280	1	main_slash	11	advance_on_keypress_SLASH	136	stimuli_distractor_diamondtriangles.svg	stimuli_target_circlediamonds.svg	14	yes	57	0	120
6.6.1	win	2022-12-15	14:13:15	14:23:30	612982	5ff2240a2f567121402762e6	37520280	1	main_slash	11	main_slash	137	stimuli_target_circlediamonds.svg	stimuli_distractor_diamondtriangles.svg	6	yes	53	1	1202
6.6.1	win	2022-12-15	14:13:15	14:23:30	612982	5ff2240a2f567121402762e6	37520280	1	main_slash	11	advance_on_keypress_SLASH	138	stimuli_target_circlediamonds.svg	stimuli_distractor_diamondtriangles.svg	6	yes	57	0	69
6.6.1	win	2022-12-15	14:13:15	14:23:31	614258	5ff2240a2f567121402762e6	37520280	1	main_slash	11	main_slash	139	stimuli_target_circletriangles.svg	stimuli_distractor_diamondtriangles.svg	5	yes	53	1	563
6.6.1	win	2022-12-15	14:13:15	14:23:31	614258	5ff2240a2f567121402762e6	37520280	1	main_slash	11	advance_on_keypress_SLASH	140	stimuli_target_circletriangles.svg	stimuli_distractor_diamondtriangles.svg	5	yes	57	0	103
6.6.1	win	2022-12-15	14:13:15	14:23:32	615751	5ff2240a2f567121402762e6	37520280	1	main_slash	11	main_slash	141	stimuli_distractor_trianglediamonds.svg	stimuli_target_diamondsquares.svg	28	yes	53	1	739
6.6.1	win	2022-12-15	14:13:15	14:23:32	615751	5ff2240a2f567121402762e6	37520280	1	main_slash	11	advance_on_keypress_SLASH	142	stimuli_distractor_trianglediamonds.svg	stimuli_target_diamondsquares.svg	28	yes	57	0	108
6.6.1	win	2022-12-15	14:13:15	14:23:34	617322	5ff2240a2f567121402762e6	37520280	1	main_slash	11	main_slash	143	stimuli_target_circlediamonds.svg	stimuli_distractor_trianglediamonds.svg	2	yes	53	1	828
6.6.1	win	2022-12-15	14:13:15	14:23:34	617322	5ff2240a2f567121402762e6	37520280	1	main_slash	11	advance_on_keypress_SLASH	144	stimuli_target_circlediamonds.svg	stimuli_distractor_trianglediamonds.svg	2	yes	57	0	89
6.6.1	win	2022-12-15	14:13:15	14:23:36	619311	5ff2240a2f567121402762e6	37520280	1	main_slash	11	main_slash	145	stimuli_distractor_diamondtriangles.svg	stimuli_distractor_trianglediamonds.svg	38	no	53	0	1270
6.6.1	win	2022-12-15	14:13:15	14:23:36	619311	5ff2240a2f567121402762e6	37520280	1	main_slash	11	advance_on_keypress_SLASH	146	stimuli_distractor_diamondtriangles.svg	stimuli_distractor_trianglediamonds.svg	38	no	57	0	93
6.6.1	win	2022-12-15	14:13:15	14:23:39	622041	5ff2240a2f567121402762e6	37520280	1	main_slash	11	main_slash	147	stimuli_distractor_trianglediamonds.svg	stimuli_distractor_trianglediamonds.svg	34	no	0	1	2000
6.6.1	win	2022-12-15	14:13:15	14:23:39	622041	5ff2240a2f567121402762e6	37520280	1	main_slash	11	advance_on_keypress_SLASH	148	stimuli_distractor_trianglediamonds.svg	stimuli_distractor_trianglediamonds.svg	34	no	57	0	892
6.6.1	win	2022-12-15	14:13:15	14:23:41	624147	5ff2240a2f567121402762e6	37520280	1	main_slash	11	main_slash	149	stimuli_distractor_trianglediamonds.svg	stimuli_target_circlediamonds.svg	10	yes	53	1	577
6.6.1	win	2022-12-15	14:13:15	14:23:41	624147	5ff2240a2f567121402762e6	37520280	1	main_slash	11	advance_on_keypress_SLASH	150	stimuli_distractor_trianglediamonds.svg	stimuli_target_circlediamonds.svg	10	yes	57	0	72
6.6.1	win	2022-12-15	14:13:15	14:23:42	625339	5ff2240a2f567121402762e6	37520280	1	main_slash	11	main_slash	151	stimuli_distractor_trianglediamonds.svg	stimuli_target_trianglecircles.svg	25	yes	53	1	486
6.6.1	win	2022-12-15	14:13:15	14:23:42	625339	5ff2240a2f567121402762e6	37520280	1	main_slash	11	advance_on_keypress_SLASH	152	stimuli_distractor_trianglediamonds.svg	stimuli_target_trianglecircles.svg	25	yes	57	0	64
6.6.1	win	2022-12-15	14:13:15	14:23:43	626579	5ff2240a2f567121402762e6	37520280	1	main_slash	11	main_slash	153	stimuli_distractor_diamondtriangles.svg	stimuli_target_diamondsquares.svg	32	yes	53	1	527
6.6.1	win	2022-12-15	14:13:15	14:23:43	626579	5ff2240a2f567121402762e6	37520280	1	main_slash	11	advance_on_keypress_SLASH	154	stimuli_distractor_diamondtriangles.svg	stimuli_target_diamondsquares.svg	32	yes	57	0	81
6.6.1	win	2022-12-15	14:13:15	14:23:46	629302	5ff2240a2f567121402762e6	37520280	1	main_slash	11	main_slash	155	stimuli_distractor_diamondtriangles.svg	stimuli_distractor_trianglediamonds.svg	37	no	0	1	2000
6.6.1	win	2022-12-15	14:13:15	14:23:46	629302	5ff2240a2f567121402762e6	37520280	1	main_slash	11	advance_on_keypress_SLASH	156	stimuli_distractor_diamondtriangles.svg	stimuli_distractor_trianglediamonds.svg	37	no	57	0	758
6.6.1	win	2022-12-15	14:13:15	14:23:48	631232	5ff2240a2f567121402762e6	37520280	1	main_slash	11	main_slash	157	stimuli_distractor_diamondtriangles.svg	stimuli_target_squarediamonds.svg	16	yes	53	1	533
6.6.1	win	2022-12-15	14:13:15	14:23:48	631232	5ff2240a2f567121402762e6	37520280	1	main_slash	11	advance_on_keypress_SLASH	158	stimuli_distractor_diamondtriangles.svg	stimuli_target_squarediamonds.svg	16	yes	57	0	85
6.6.1	win	2022-12-15	14:13:15	14:23:51	633964	5ff2240a2f567121402762e6	37520280	1	main_slash	11	main_slash	159	stimuli_distractor_trianglediamonds.svg	stimuli_distractor_diamondtriangles.svg	36	no	0	1	2000
6.6.1	win	2022-12-15	14:13:15	14:23:51	633964	5ff2240a2f567121402762e6	37520280	1	main_slash	11	advance_on_keypress_SLASH	160	stimuli_distractor_trianglediamonds.svg	stimuli_distractor_diamondtriangles.svg	36	no	57	0	769