build	computer.platform	date	time	timestamp	time_elapsed_ms	subject	group	session	blockcode	blocknum	trialcode	trialnum	stimulus_left	stimulus_right	stim_index	target_present	response	correct	latency
6.6.0	mac	2022-12-14	18:24:19	18:29:24	304338	5ea9d795dec14d13eb7af3d9	107010425	1	practice_slash	5	practice_slash	1	stimuli_target_squarediamonds.svg	stimuli_distractor_diamondtriangles.svg	2	yes	53	1	653
6.6.0	mac	2022-12-14	18:24:19	18:29:24	304338	5ea9d795dec14d13eb7af3d9	107010425	1	practice_slash	5	advance_on_keypress_SLASH	2	stimuli_target_squarediamonds.svg	stimuli_distractor_diamondtriangles.svg	2	yes	57	0	816
6.6.0	mac	2022-12-14	18:24:19	18:29:27	307477	5ea9d795dec14d13eb7af3d9	107010425	1	practice_slash	5	practice_slash	3	stimuli_target_diamondsquares.svg	stimuli_distractor_diamondtriangles.svg	3	yes	53	1	691
6.6.0	mac	2022-12-14	18:24:19	18:29:27	307477	5ea9d795dec14d13eb7af3d9	107010425	1	practice_slash	5	advance_on_keypress_SLASH	4	stimuli_target_diamondsquares.svg	stimuli_distractor_diamondtriangles.svg	3	yes	57	0	541
6.6.0	mac	2022-12-14	18:24:19	18:29:32	311664	5ea9d795dec14d13eb7af3d9	107010425	1	practice_slash	5	practice_slash	5	stimuli_distractor_trianglediamonds.svg	stimuli_target_diamondcircles.svg	12	yes	0	0	2000
6.6.0	mac	2022-12-14	18:24:19	18:29:32	311664	5ea9d795dec14d13eb7af3d9	107010425	1	practice_slash	5	advance_on_keypress_SLASH	6	stimuli_distractor_trianglediamonds.svg	stimuli_target_diamondcircles.svg	12	yes	57	0	539
6.6.0	mac	2022-12-14	18:24:19	18:29:35	314987	5ea9d795dec14d13eb7af3d9	107010425	1	practice_slash	5	practice_slash	7	stimuli_target_circlediamonds.svg	stimuli_distractor_diamondtriangles.svg	1	yes	53	1	1149
6.6.0	mac	2022-12-14	18:24:19	18:29:35	314987	5ea9d795dec14d13eb7af3d9	107010425	1	practice_slash	5	advance_on_keypress_SLASH	8	stimuli_target_circlediamonds.svg	stimuli_distractor_diamondtriangles.svg	1	yes	57	0	757
6.6.0	mac	2022-12-14	18:24:19	18:29:38	317834	5ea9d795dec14d13eb7af3d9	107010425	1	practice_slash	5	practice_slash	9	stimuli_distractor_diamondtriangles.svg	stimuli_target_trianglecircles.svg	9	yes	53	1	462
6.6.0	mac	2022-12-14	18:24:19	18:29:38	317834	5ea9d795dec14d13eb7af3d9	107010425	1	practice_slash	5	advance_on_keypress_SLASH	10	stimuli_distractor_diamondtriangles.svg	stimuli_target_trianglecircles.svg	9	yes	57	0	765
6.6.0	mac	2022-12-14	18:24:19	18:29:42	322233	5ea9d795dec14d13eb7af3d9	107010425	1	practice_slash	5	practice_slash	11	stimuli_distractor_diamondtriangles.svg	stimuli_distractor_trianglediamonds.svg	14	no	0	1	2000
6.6.0	mac	2022-12-14	18:24:19	18:29:42	322233	5ea9d795dec14d13eb7af3d9	107010425	1	practice_slash	5	advance_on_keypress_SLASH	12	stimuli_distractor_diamondtriangles.svg	stimuli_distractor_trianglediamonds.svg	14	no	57	0	475
6.6.0	mac	2022-12-14	18:24:19	18:29:45	325167	5ea9d795dec14d13eb7af3d9	107010425	1	practice_slash	5	practice_slash	13	stimuli_distractor_diamondtriangles.svg	stimuli_target_circletriangles.svg	7	yes	53	1	817
6.6.0	mac	2022-12-14	18:24:19	18:29:45	325167	5ea9d795dec14d13eb7af3d9	107010425	1	practice_slash	5	advance_on_keypress_SLASH	14	stimuli_distractor_diamondtriangles.svg	stimuli_target_circletriangles.svg	7	yes	57	0	712
6.6.0	mac	2022-12-14	18:24:19	18:29:48	328268	5ea9d795dec14d13eb7af3d9	107010425	1	practice_slash	5	practice_slash	15	stimuli_target_squarediamonds.svg	stimuli_distractor_trianglediamonds.svg	5	yes	53	1	750
6.6.0	mac	2022-12-14	18:24:19	18:29:48	328268	5ea9d795dec14d13eb7af3d9	107010425	1	practice_slash	5	advance_on_keypress_SLASH	16	stimuli_target_squarediamonds.svg	stimuli_distractor_trianglediamonds.svg	5	yes	57	0	986
6.6.0	mac	2022-12-14	18:24:19	18:29:52	331937	5ea9d795dec14d13eb7af3d9	107010425	1	practice_slash	5	practice_slash	17	stimuli_target_diamondsquares.svg	stimuli_distractor_trianglediamonds.svg	6	yes	53	1	1049
6.6.0	mac	2022-12-14	18:24:19	18:29:52	331937	5ea9d795dec14d13eb7af3d9	107010425	1	practice_slash	5	advance_on_keypress_SLASH	18	stimuli_target_diamondsquares.svg	stimuli_distractor_trianglediamonds.svg	6	yes	57	0	835
6.6.0	mac	2022-12-14	18:24:19	18:29:56	335735	5ea9d795dec14d13eb7af3d9	107010425	1	practice_slash	5	practice_slash	19	stimuli_distractor_diamondtriangles.svg	stimuli_target_diamondcircles.svg	8	yes	53	1	1323
6.6.0	mac	2022-12-14	18:24:19	18:29:56	335735	5ea9d795dec14d13eb7af3d9	107010425	1	practice_slash	5	advance_on_keypress_SLASH	20	stimuli_distractor_diamondtriangles.svg	stimuli_target_diamondcircles.svg	8	yes	57	0	478
6.6.0	mac	2022-12-14	18:24:19	18:29:58	338411	5ea9d795dec14d13eb7af3d9	107010425	1	practice_slash	5	practice_slash	21	stimuli_distractor_trianglediamonds.svg	stimuli_target_squarediamonds.svg	11	yes	53	1	572
6.6.0	mac	2022-12-14	18:24:19	18:29:58	338411	5ea9d795dec14d13eb7af3d9	107010425	1	practice_slash	5	advance_on_keypress_SLASH	22	stimuli_distractor_trianglediamonds.svg	stimuli_target_squarediamonds.svg	11	yes	57	0	2508
6.6.0	mac	2022-12-14	18:24:19	18:30:04	344540	5ea9d795dec14d13eb7af3d9	107010425	1	practice_slash	5	practice_slash	23	stimuli_distractor_diamondtriangles.svg	stimuli_distractor_diamondtriangles.svg	13	no	0	1	2000
6.6.0	mac	2022-12-14	18:24:19	18:30:04	344540	5ea9d795dec14d13eb7af3d9	107010425	1	practice_slash	5	advance_on_keypress_SLASH	24	stimuli_distractor_diamondtriangles.svg	stimuli_distractor_diamondtriangles.svg	13	no	57	0	5274
6.6.0	mac	2022-12-14	18:24:19	18:30:12	352432	5ea9d795dec14d13eb7af3d9	107010425	1	practice_slash	5	practice_slash	25	stimuli_target_circlediamonds.svg	stimuli_distractor_trianglediamonds.svg	4	yes	53	1	980
6.6.0	mac	2022-12-14	18:24:19	18:30:12	352432	5ea9d795dec14d13eb7af3d9	107010425	1	practice_slash	5	advance_on_keypress_SLASH	26	stimuli_target_circlediamonds.svg	stimuli_distractor_trianglediamonds.svg	4	yes	57	0	1573
6.6.0	mac	2022-12-14	18:24:19	18:30:18	357632	5ea9d795dec14d13eb7af3d9	107010425	1	practice_slash	5	practice_slash	27	stimuli_distractor_trianglediamonds.svg	stimuli_distractor_diamondtriangles.svg	16	no	0	1	2000
6.6.0	mac	2022-12-14	18:24:19	18:30:18	357632	5ea9d795dec14d13eb7af3d9	107010425	1	practice_slash	5	advance_on_keypress_SLASH	28	stimuli_distractor_trianglediamonds.svg	stimuli_distractor_diamondtriangles.svg	16	no	57	0	335
6.6.0	mac	2022-12-14	18:24:19	18:30:22	361602	5ea9d795dec14d13eb7af3d9	107010425	1	practice_slash	5	practice_slash	29	stimuli_distractor_trianglediamonds.svg	stimuli_distractor_trianglediamonds.svg	15	no	0	1	2000
6.6.0	mac	2022-12-14	18:24:19	18:30:22	361602	5ea9d795dec14d13eb7af3d9	107010425	1	practice_slash	5	advance_on_keypress_SLASH	30	stimuli_distractor_trianglediamonds.svg	stimuli_distractor_trianglediamonds.svg	15	no	57	0	362
6.6.0	mac	2022-12-14	18:24:19	18:30:24	364388	5ea9d795dec14d13eb7af3d9	107010425	1	practice_slash	5	practice_slash	31	stimuli_distractor_trianglediamonds.svg	stimuli_target_circlediamonds.svg	10	yes	53	1	795
6.6.0	mac	2022-12-14	18:24:19	18:30:24	364388	5ea9d795dec14d13eb7af3d9	107010425	1	practice_slash	5	advance_on_keypress_SLASH	32	stimuli_distractor_trianglediamonds.svg	stimuli_target_circlediamonds.svg	10	yes	57	0	491
6.6.0	mac	2022-12-14	18:24:19	18:30:30	369744	5ea9d795dec14d13eb7af3d9	107010425	1	main_slash	7	main_slash	1	stimuli_target_trianglecircles.svg	stimuli_distractor_trianglediamonds.svg	17	yes	53	1	664
6.6.0	mac	2022-12-14	18:24:19	18:30:30	369744	5ea9d795dec14d13eb7af3d9	107010425	1	main_slash	7	advance_on_keypress_SLASH	2	stimuli_target_trianglecircles.svg	stimuli_distractor_trianglediamonds.svg	17	yes	57	0	1188
6.6.0	mac	2022-12-14	18:24:19	18:30:32	372356	5ea9d795dec14d13eb7af3d9	107010425	1	main_slash	7	main_slash	3	stimuli_distractor_diamondtriangles.svg	stimuli_target_trianglecircles.svg	29	yes	53	1	779
6.6.0	mac	2022-12-14	18:24:19	18:30:32	372356	5ea9d795dec14d13eb7af3d9	107010425	1	main_slash	7	advance_on_keypress_SLASH	4	stimuli_distractor_diamondtriangles.svg	stimuli_target_trianglecircles.svg	29	yes	57	0	586
6.6.0	mac	2022-12-14	18:24:19	18:30:34	374262	5ea9d795dec14d13eb7af3d9	107010425	1	main_slash	7	main_slash	5	stimuli_target_squaretriangles.svg	stimuli_distractor_diamondtriangles.svg	7	yes	53	1	693
6.6.0	mac	2022-12-14	18:24:19	18:30:34	374262	5ea9d795dec14d13eb7af3d9	107010425	1	main_slash	7	advance_on_keypress_SLASH	6	stimuli_target_squaretriangles.svg	stimuli_distractor_diamondtriangles.svg	7	yes	57	0	934
6.6.0	mac	2022-12-14	18:24:19	18:30:36	376470	5ea9d795dec14d13eb7af3d9	107010425	1	main_slash	7	main_slash	7	stimuli_distractor_diamondtriangles.svg	stimuli_target_diamondcircles.svg	31	yes	53	1	636
6.6.0	mac	2022-12-14	18:24:19	18:30:36	376470	5ea9d795dec14d13eb7af3d9	107010425	1	main_slash	7	advance_on_keypress_SLASH	8	stimuli_distractor_diamondtriangles.svg	stimuli_target_diamondcircles.svg	31	yes	57	0	1179
6.6.0	mac	2022-12-14	18:24:19	18:30:39	378649	5ea9d795dec14d13eb7af3d9	107010425	1	main_slash	7	main_slash	9	stimuli_distractor_trianglediamonds.svg	stimuli_target_diamondcircles.svg	27	yes	53	1	375
6.6.0	mac	2022-12-14	18:24:19	18:30:39	378649	5ea9d795dec14d13eb7af3d9	107010425	1	main_slash	7	advance_on_keypress_SLASH	10	stimuli_distractor_trianglediamonds.svg	stimuli_target_diamondcircles.svg	27	yes	57	0	565
6.6.0	mac	2022-12-14	18:24:19	18:30:40	380249	5ea9d795dec14d13eb7af3d9	107010425	1	main_slash	7	main_slash	11	stimuli_target_circlediamonds.svg	stimuli_distractor_diamondtriangles.svg	6	yes	53	1	413
6.6.0	mac	2022-12-14	18:24:19	18:30:40	380249	5ea9d795dec14d13eb7af3d9	107010425	1	main_slash	7	advance_on_keypress_SLASH	12	stimuli_target_circlediamonds.svg	stimuli_distractor_diamondtriangles.svg	6	yes	57	0	795
6.6.0	mac	2022-12-14	18:24:19	18:30:42	382049	5ea9d795dec14d13eb7af3d9	107010425	1	main_slash	7	main_slash	13	stimuli_target_squarediamonds.svg	stimuli_distractor_trianglediamonds.svg	4	yes	53	1	384
6.6.0	mac	2022-12-14	18:24:19	18:30:42	382049	5ea9d795dec14d13eb7af3d9	107010425	1	main_slash	7	advance_on_keypress_SLASH	14	stimuli_target_squarediamonds.svg	stimuli_distractor_trianglediamonds.svg	4	yes	57	0	531
6.6.0	mac	2022-12-14	18:24:19	18:30:45	385209	5ea9d795dec14d13eb7af3d9	107010425	1	main_slash	7	main_slash	15	stimuli_distractor_diamondtriangles.svg	stimuli_distractor_diamondtriangles.svg	40	no	0	1	2000
6.6.0	mac	2022-12-14	18:24:19	18:30:45	385209	5ea9d795dec14d13eb7af3d9	107010425	1	main_slash	7	advance_on_keypress_SLASH	16	stimuli_distractor_diamondtriangles.svg	stimuli_distractor_diamondtriangles.svg	40	no	57	0	389
6.6.0	mac	2022-12-14	18:24:19	18:30:47	387025	5ea9d795dec14d13eb7af3d9	107010425	1	main_slash	7	main_slash	17	stimuli_target_trianglesquares.svg	stimuli_distractor_diamondtriangles.svg	22	yes	53	1	794
6.6.0	mac	2022-12-14	18:24:19	18:30:47	387025	5ea9d795dec14d13eb7af3d9	107010425	1	main_slash	7	advance_on_keypress_SLASH	18	stimuli_target_trianglesquares.svg	stimuli_distractor_diamondtriangles.svg	22	yes	57	0	521
6.6.0	mac	2022-12-14	18:24:19	18:30:50	390169	5ea9d795dec14d13eb7af3d9	107010425	1	main_slash	7	main_slash	19	stimuli_distractor_trianglediamonds.svg	stimuli_distractor_trianglediamonds.svg	34	no	0	1	2000
6.6.0	mac	2022-12-14	18:24:19	18:30:50	390169	5ea9d795dec14d13eb7af3d9	107010425	1	main_slash	7	advance_on_keypress_SLASH	20	stimuli_distractor_trianglediamonds.svg	stimuli_distractor_trianglediamonds.svg	34	no	57	0	249
6.6.0	mac	2022-12-14	18:24:19	18:30:52	391868	5ea9d795dec14d13eb7af3d9	107010425	1	main_slash	7	main_slash	21	stimuli_distractor_diamondtriangles.svg	stimuli_target_squaretriangles.svg	15	yes	53	1	818
6.6.0	mac	2022-12-14	18:24:19	18:30:52	391868	5ea9d795dec14d13eb7af3d9	107010425	1	main_slash	7	advance_on_keypress_SLASH	22	stimuli_distractor_diamondtriangles.svg	stimuli_target_squaretriangles.svg	15	yes	57	0	869
6.6.0	mac	2022-12-14	18:24:19	18:30:54	393848	5ea9d795dec14d13eb7af3d9	107010425	1	main_slash	7	main_slash	23	stimuli_target_circletriangles.svg	stimuli_distractor_diamondtriangles.svg	5	yes	53	1	468
6.6.0	mac	2022-12-14	18:24:19	18:30:54	393848	5ea9d795dec14d13eb7af3d9	107010425	1	main_slash	7	advance_on_keypress_SLASH	24	stimuli_target_circletriangles.svg	stimuli_distractor_diamondtriangles.svg	5	yes	57	0	566
6.6.0	mac	2022-12-14	18:24:19	18:30:56	395690	5ea9d795dec14d13eb7af3d9	107010425	1	main_slash	7	main_slash	25	stimuli_distractor_diamondtriangles.svg	stimuli_target_squarediamonds.svg	16	yes	53	1	633
6.6.0	mac	2022-12-14	18:24:19	18:30:56	395690	5ea9d795dec14d13eb7af3d9	107010425	1	main_slash	7	advance_on_keypress_SLASH	26	stimuli_distractor_diamondtriangles.svg	stimuli_target_squarediamonds.svg	16	yes	57	0	545
6.6.0	mac	2022-12-14	18:24:19	18:30:57	397361	5ea9d795dec14d13eb7af3d9	107010425	1	main_slash	7	main_slash	27	stimuli_target_circlediamonds.svg	stimuli_distractor_trianglediamonds.svg	2	yes	53	1	494
6.6.0	mac	2022-12-14	18:24:19	18:30:57	397361	5ea9d795dec14d13eb7af3d9	107010425	1	main_slash	7	advance_on_keypress_SLASH	28	stimuli_target_circlediamonds.svg	stimuli_distractor_trianglediamonds.svg	2	yes	57	0	1231
6.6.0	mac	2022-12-14	18:24:19	18:31:00	399604	5ea9d795dec14d13eb7af3d9	107010425	1	main_slash	7	main_slash	29	stimuli_distractor_trianglediamonds.svg	stimuli_distractor_trianglediamonds.svg	33	no	53	0	374
6.6.0	mac	2022-12-14	18:24:19	18:31:00	399604	5ea9d795dec14d13eb7af3d9	107010425	1	main_slash	7	advance_on_keypress_SLASH	30	stimuli_distractor_trianglediamonds.svg	stimuli_distractor_trianglediamonds.svg	33	no	57	0	1036
6.6.0	mac	2022-12-14	18:24:19	18:31:02	401633	5ea9d795dec14d13eb7af3d9	107010425	1	main_slash	7	main_slash	31	stimuli_target_diamondcircles.svg	stimuli_distractor_trianglediamonds.svg	19	yes	53	1	361
6.6.0	mac	2022-12-14	18:24:19	18:31:02	401633	5ea9d795dec14d13eb7af3d9	107010425	1	main_slash	7	advance_on_keypress_SLASH	32	stimuli_target_diamondcircles.svg	stimuli_distractor_trianglediamonds.svg	19	yes	57	0	1106
6.6.0	mac	2022-12-14	18:24:19	18:31:04	403783	5ea9d795dec14d13eb7af3d9	107010425	1	main_slash	7	main_slash	33	stimuli_target_diamondsquares.svg	stimuli_distractor_diamondtriangles.svg	24	yes	53	1	415
6.6.0	mac	2022-12-14	18:24:19	18:31:04	403783	5ea9d795dec14d13eb7af3d9	107010425	1	main_slash	7	advance_on_keypress_SLASH	34	stimuli_target_diamondsquares.svg	stimuli_distractor_diamondtriangles.svg	24	yes	57	0	929
6.6.0	mac	2022-12-14	18:24:19	18:31:06	406129	5ea9d795dec14d13eb7af3d9	107010425	1	main_slash	7	main_slash	35	stimuli_distractor_trianglediamonds.svg	stimuli_target_trianglesquares.svg	26	yes	53	1	800
6.6.0	mac	2022-12-14	18:24:19	18:31:06	406129	5ea9d795dec14d13eb7af3d9	107010425	1	main_slash	7	advance_on_keypress_SLASH	36	stimuli_distractor_trianglediamonds.svg	stimuli_target_trianglesquares.svg	26	yes	57	0	443
6.6.0	mac	2022-12-14	18:24:19	18:31:08	407767	5ea9d795dec14d13eb7af3d9	107010425	1	main_slash	7	main_slash	37	stimuli_target_squaretriangles.svg	stimuli_distractor_trianglediamonds.svg	3	yes	53	1	544
6.6.0	mac	2022-12-14	18:24:19	18:31:08	407767	5ea9d795dec14d13eb7af3d9	107010425	1	main_slash	7	advance_on_keypress_SLASH	38	stimuli_target_squaretriangles.svg	stimuli_distractor_trianglediamonds.svg	3	yes	57	0	852
6.6.0	mac	2022-12-14	18:24:19	18:31:10	409691	5ea9d795dec14d13eb7af3d9	107010425	1	main_slash	7	main_slash	39	stimuli_distractor_trianglediamonds.svg	stimuli_target_trianglecircles.svg	25	yes	53	1	440
6.6.0	mac	2022-12-14	18:24:19	18:31:10	409691	5ea9d795dec14d13eb7af3d9	107010425	1	main_slash	7	advance_on_keypress_SLASH	40	stimuli_distractor_trianglediamonds.svg	stimuli_target_trianglecircles.svg	25	yes	57	0	546
6.6.0	mac	2022-12-14	18:24:19	18:31:11	411452	5ea9d795dec14d13eb7af3d9	107010425	1	main_slash	7	main_slash	41	stimuli_distractor_trianglediamonds.svg	stimuli_target_squaretriangles.svg	11	yes	53	1	586
6.6.0	mac	2022-12-14	18:24:19	18:31:11	411452	5ea9d795dec14d13eb7af3d9	107010425	1	main_slash	7	advance_on_keypress_SLASH	42	stimuli_distractor_trianglediamonds.svg	stimuli_target_squaretriangles.svg	11	yes	57	0	542
6.6.0	mac	2022-12-14	18:24:19	18:31:13	413187	5ea9d795dec14d13eb7af3d9	107010425	1	main_slash	7	main_slash	43	stimuli_distractor_diamondtriangles.svg	stimuli_target_diamondsquares.svg	32	yes	53	1	551
6.6.0	mac	2022-12-14	18:24:19	18:31:13	413187	5ea9d795dec14d13eb7af3d9	107010425	1	main_slash	7	advance_on_keypress_SLASH	44	stimuli_distractor_diamondtriangles.svg	stimuli_target_diamondsquares.svg	32	yes	57	0	538
6.6.0	mac	2022-12-14	18:24:19	18:31:15	414799	5ea9d795dec14d13eb7af3d9	107010425	1	main_slash	7	main_slash	45	stimuli_distractor_diamondtriangles.svg	stimuli_distractor_trianglediamonds.svg	37	no	53	0	443
6.6.0	mac	2022-12-14	18:24:19	18:31:15	414799	5ea9d795dec14d13eb7af3d9	107010425	1	main_slash	7	advance_on_keypress_SLASH	46	stimuli_distractor_diamondtriangles.svg	stimuli_distractor_trianglediamonds.svg	37	no	57	0	550
6.6.0	mac	2022-12-14	18:24:19	18:31:17	416634	5ea9d795dec14d13eb7af3d9	107010425	1	main_slash	7	main_slash	47	stimuli_distractor_trianglediamonds.svg	stimuli_distractor_diamondtriangles.svg	36	no	53	0	656
6.6.0	mac	2022-12-14	18:24:19	18:31:17	416634	5ea9d795dec14d13eb7af3d9	107010425	1	main_slash	7	advance_on_keypress_SLASH	48	stimuli_distractor_trianglediamonds.svg	stimuli_distractor_diamondtriangles.svg	36	no	57	0	571
6.6.0	mac	2022-12-14	18:24:19	18:31:18	418366	5ea9d795dec14d13eb7af3d9	107010425	1	main_slash	7	main_slash	49	stimuli_distractor_diamondtriangles.svg	stimuli_target_circlediamonds.svg	14	yes	53	1	528
6.6.0	mac	2022-12-14	18:24:19	18:31:18	418366	5ea9d795dec14d13eb7af3d9	107010425	1	main_slash	7	advance_on_keypress_SLASH	50	stimuli_distractor_diamondtriangles.svg	stimuli_target_circlediamonds.svg	14	yes	57	0	695
6.6.0	mac	2022-12-14	18:24:19	18:31:20	420243	5ea9d795dec14d13eb7af3d9	107010425	1	main_slash	7	main_slash	51	stimuli_distractor_diamondtriangles.svg	stimuli_target_circletriangles.svg	13	yes	53	1	553
6.6.0	mac	2022-12-14	18:24:19	18:31:20	420243	5ea9d795dec14d13eb7af3d9	107010425	1	main_slash	7	advance_on_keypress_SLASH	52	stimuli_distractor_diamondtriangles.svg	stimuli_target_circletriangles.svg	13	yes	57	0	568
6.6.0	mac	2022-12-14	18:24:19	18:31:22	421897	5ea9d795dec14d13eb7af3d9	107010425	1	main_slash	7	main_slash	53	stimuli_distractor_trianglediamonds.svg	stimuli_target_squarediamonds.svg	12	yes	53	1	442
6.6.0	mac	2022-12-14	18:24:19	18:31:22	421897	5ea9d795dec14d13eb7af3d9	107010425	1	main_slash	7	advance_on_keypress_SLASH	54	stimuli_distractor_trianglediamonds.svg	stimuli_target_squarediamonds.svg	12	yes	57	0	478
6.6.0	mac	2022-12-14	18:24:19	18:31:23	423537	5ea9d795dec14d13eb7af3d9	107010425	1	main_slash	7	main_slash	55	stimuli_target_squarediamonds.svg	stimuli_distractor_diamondtriangles.svg	8	yes	53	1	517
6.6.0	mac	2022-12-14	18:24:19	18:31:23	423537	5ea9d795dec14d13eb7af3d9	107010425	1	main_slash	7	advance_on_keypress_SLASH	56	stimuli_target_squarediamonds.svg	stimuli_distractor_diamondtriangles.svg	8	yes	57	0	584
6.6.0	mac	2022-12-14	18:24:19	18:31:25	425081	5ea9d795dec14d13eb7af3d9	107010425	1	main_slash	7	main_slash	57	stimuli_target_trianglecircles.svg	stimuli_distractor_diamondtriangles.svg	21	yes	53	1	336
6.6.0	mac	2022-12-14	18:24:19	18:31:25	425081	5ea9d795dec14d13eb7af3d9	107010425	1	main_slash	7	advance_on_keypress_SLASH	58	stimuli_target_trianglecircles.svg	stimuli_distractor_diamondtriangles.svg	21	yes	57	0	510
6.6.0	mac	2022-12-14	18:24:19	18:31:27	426681	5ea9d795dec14d13eb7af3d9	107010425	1	main_slash	7	main_slash	59	stimuli_target_circletriangles.svg	stimuli_distractor_trianglediamonds.svg	1	yes	53	1	458
6.6.0	mac	2022-12-14	18:24:19	18:31:27	426681	5ea9d795dec14d13eb7af3d9	107010425	1	main_slash	7	advance_on_keypress_SLASH	60	stimuli_target_circletriangles.svg	stimuli_distractor_trianglediamonds.svg	1	yes	57	0	478
6.6.0	mac	2022-12-14	18:24:19	18:31:28	428360	5ea9d795dec14d13eb7af3d9	107010425	1	main_slash	7	main_slash	61	stimuli_target_diamondsquares.svg	stimuli_distractor_trianglediamonds.svg	20	yes	53	1	565
6.6.0	mac	2022-12-14	18:24:19	18:31:28	428360	5ea9d795dec14d13eb7af3d9	107010425	1	main_slash	7	advance_on_keypress_SLASH	62	stimuli_target_diamondsquares.svg	stimuli_distractor_trianglediamonds.svg	20	yes	57	0	578
6.6.0	mac	2022-12-14	18:24:19	18:31:30	429954	5ea9d795dec14d13eb7af3d9	107010425	1	main_slash	7	main_slash	63	stimuli_distractor_diamondtriangles.svg	stimuli_target_trianglesquares.svg	30	yes	53	1	385
6.6.0	mac	2022-12-14	18:24:19	18:31:30	429954	5ea9d795dec14d13eb7af3d9	107010425	1	main_slash	7	advance_on_keypress_SLASH	64	stimuli_distractor_diamondtriangles.svg	stimuli_target_trianglesquares.svg	30	yes	57	0	483
6.6.0	mac	2022-12-14	18:24:19	18:31:31	431515	5ea9d795dec14d13eb7af3d9	107010425	1	main_slash	7	main_slash	65	stimuli_target_diamondcircles.svg	stimuli_distractor_diamondtriangles.svg	23	yes	53	1	438
6.6.0	mac	2022-12-14	18:24:19	18:31:31	431515	5ea9d795dec14d13eb7af3d9	107010425	1	main_slash	7	advance_on_keypress_SLASH	66	stimuli_target_diamondcircles.svg	stimuli_distractor_diamondtriangles.svg	23	yes	57	0	462
6.6.0	mac	2022-12-14	18:24:19	18:31:33	433037	5ea9d795dec14d13eb7af3d9	107010425	1	main_slash	7	main_slash	67	stimuli_distractor_diamondtriangles.svg	stimuli_distractor_diamondtriangles.svg	39	no	53	0	423
6.6.0	mac	2022-12-14	18:24:19	18:31:33	433037	5ea9d795dec14d13eb7af3d9	107010425	1	main_slash	7	advance_on_keypress_SLASH	68	stimuli_distractor_diamondtriangles.svg	stimuli_distractor_diamondtriangles.svg	39	no	57	0	471
6.6.0	mac	2022-12-14	18:24:19	18:31:35	434605	5ea9d795dec14d13eb7af3d9	107010425	1	main_slash	7	main_slash	69	stimuli_distractor_trianglediamonds.svg	stimuli_target_diamondsquares.svg	28	yes	53	1	463
6.6.0	mac	2022-12-14	18:24:19	18:31:35	434605	5ea9d795dec14d13eb7af3d9	107010425	1	main_slash	7	advance_on_keypress_SLASH	70	stimuli_distractor_trianglediamonds.svg	stimuli_target_diamondsquares.svg	28	yes	57	0	438
6.6.0	mac	2022-12-14	18:24:19	18:31:36	436236	5ea9d795dec14d13eb7af3d9	107010425	1	main_slash	7	main_slash	71	stimuli_distractor_trianglediamonds.svg	stimuli_distractor_diamondtriangles.svg	35	no	53	0	560
6.6.0	mac	2022-12-14	18:24:19	18:31:36	436236	5ea9d795dec14d13eb7af3d9	107010425	1	main_slash	7	advance_on_keypress_SLASH	72	stimuli_distractor_trianglediamonds.svg	stimuli_distractor_diamondtriangles.svg	35	no	57	0	387
6.6.0	mac	2022-12-14	18:24:19	18:31:38	437723	5ea9d795dec14d13eb7af3d9	107010425	1	main_slash	7	main_slash	73	stimuli_distractor_trianglediamonds.svg	stimuli_target_circletriangles.svg	9	yes	53	1	478
6.6.0	mac	2022-12-14	18:24:19	18:31:38	437723	5ea9d795dec14d13eb7af3d9	107010425	1	main_slash	7	advance_on_keypress_SLASH	74	stimuli_distractor_trianglediamonds.svg	stimuli_target_circletriangles.svg	9	yes	57	0	386
6.6.0	mac	2022-12-14	18:24:19	18:31:39	439180	5ea9d795dec14d13eb7af3d9	107010425	1	main_slash	7	main_slash	75	stimuli_target_trianglesquares.svg	stimuli_distractor_trianglediamonds.svg	18	yes	53	1	433
6.6.0	mac	2022-12-14	18:24:19	18:31:39	439180	5ea9d795dec14d13eb7af3d9	107010425	1	main_slash	7	advance_on_keypress_SLASH	76	stimuli_target_trianglesquares.svg	stimuli_distractor_trianglediamonds.svg	18	yes	57	0	368
6.6.0	mac	2022-12-14	18:24:19	18:31:41	440604	5ea9d795dec14d13eb7af3d9	107010425	1	main_slash	7	main_slash	77	stimuli_distractor_trianglediamonds.svg	stimuli_target_circlediamonds.svg	10	yes	53	1	415
6.6.0	mac	2022-12-14	18:24:19	18:31:41	440604	5ea9d795dec14d13eb7af3d9	107010425	1	main_slash	7	advance_on_keypress_SLASH	78	stimuli_distractor_trianglediamonds.svg	stimuli_target_circlediamonds.svg	10	yes	57	0	600
6.6.0	mac	2022-12-14	18:24:19	18:31:42	442375	5ea9d795dec14d13eb7af3d9	107010425	1	main_slash	7	main_slash	79	stimuli_distractor_diamondtriangles.svg	stimuli_distractor_trianglediamonds.svg	38	no	53	0	528
6.6.0	mac	2022-12-14	18:24:19	18:31:42	442375	5ea9d795dec14d13eb7af3d9	107010425	1	main_slash	7	advance_on_keypress_SLASH	80	stimuli_distractor_diamondtriangles.svg	stimuli_distractor_trianglediamonds.svg	38	no	57	0	408
6.6.0	mac	2022-12-14	18:24:19	18:31:44	443943	5ea9d795dec14d13eb7af3d9	107010425	1	main_slash	7	main_slash	81	stimuli_distractor_diamondtriangles.svg	stimuli_target_diamondsquares.svg	32	yes	53	1	540
6.6.0	mac	2022-12-14	18:24:19	18:31:44	443943	5ea9d795dec14d13eb7af3d9	107010425	1	main_slash	7	advance_on_keypress_SLASH	82	stimuli_distractor_diamondtriangles.svg	stimuli_target_diamondsquares.svg	32	yes	57	0	391
6.6.0	mac	2022-12-14	18:24:19	18:31:45	445384	5ea9d795dec14d13eb7af3d9	107010425	1	main_slash	7	main_slash	83	stimuli_distractor_diamondtriangles.svg	stimuli_target_squarediamonds.svg	16	yes	53	1	414
6.6.0	mac	2022-12-14	18:24:19	18:31:45	445384	5ea9d795dec14d13eb7af3d9	107010425	1	main_slash	7	advance_on_keypress_SLASH	84	stimuli_distractor_diamondtriangles.svg	stimuli_target_squarediamonds.svg	16	yes	57	0	442
6.6.0	mac	2022-12-14	18:24:19	18:31:47	447112	5ea9d795dec14d13eb7af3d9	107010425	1	main_slash	7	main_slash	85	stimuli_distractor_trianglediamonds.svg	stimuli_distractor_diamondtriangles.svg	35	no	53	0	668
6.6.0	mac	2022-12-14	18:24:19	18:31:47	447112	5ea9d795dec14d13eb7af3d9	107010425	1	main_slash	7	advance_on_keypress_SLASH	86	stimuli_distractor_trianglediamonds.svg	stimuli_distractor_diamondtriangles.svg	35	no	57	0	338
6.6.0	mac	2022-12-14	18:24:19	18:31:50	450081	5ea9d795dec14d13eb7af3d9	107010425	1	main_slash	7	main_slash	87	stimuli_distractor_trianglediamonds.svg	stimuli_distractor_diamondtriangles.svg	36	no	0	1	2000
6.6.0	mac	2022-12-14	18:24:19	18:31:50	450081	5ea9d795dec14d13eb7af3d9	107010425	1	main_slash	7	advance_on_keypress_SLASH	88	stimuli_distractor_trianglediamonds.svg	stimuli_distractor_diamondtriangles.svg	36	no	57	0	534
6.6.0	mac	2022-12-14	18:24:19	18:31:52	451666	5ea9d795dec14d13eb7af3d9	107010425	1	main_slash	7	main_slash	89	stimuli_target_trianglecircles.svg	stimuli_distractor_trianglediamonds.svg	17	yes	53	1	427
6.6.0	mac	2022-12-14	18:24:19	18:31:52	451666	5ea9d795dec14d13eb7af3d9	107010425	1	main_slash	7	advance_on_keypress_SLASH	90	stimuli_target_trianglecircles.svg	stimuli_distractor_trianglediamonds.svg	17	yes	57	0	458
6.6.0	mac	2022-12-14	18:24:19	18:31:53	453275	5ea9d795dec14d13eb7af3d9	107010425	1	main_slash	7	main_slash	91	stimuli_distractor_diamondtriangles.svg	stimuli_target_circlediamonds.svg	14	yes	53	1	531
6.6.0	mac	2022-12-14	18:24:19	18:31:53	453275	5ea9d795dec14d13eb7af3d9	107010425	1	main_slash	7	advance_on_keypress_SLASH	92	stimuli_distractor_diamondtriangles.svg	stimuli_target_circlediamonds.svg	14	yes	57	0	410
6.6.0	mac	2022-12-14	18:24:19	18:31:55	454831	5ea9d795dec14d13eb7af3d9	107010425	1	main_slash	7	main_slash	93	stimuli_target_circlediamonds.svg	stimuli_distractor_trianglediamonds.svg	2	yes	53	1	513
6.6.0	mac	2022-12-14	18:24:19	18:31:55	454831	5ea9d795dec14d13eb7af3d9	107010425	1	main_slash	7	advance_on_keypress_SLASH	94	stimuli_target_circlediamonds.svg	stimuli_distractor_trianglediamonds.svg	2	yes	57	0	375
6.6.0	mac	2022-12-14	18:24:19	18:31:56	456443	5ea9d795dec14d13eb7af3d9	107010425	1	main_slash	7	main_slash	95	stimuli_distractor_trianglediamonds.svg	stimuli_target_squaretriangles.svg	11	yes	53	1	586
6.6.0	mac	2022-12-14	18:24:19	18:31:56	456443	5ea9d795dec14d13eb7af3d9	107010425	1	main_slash	7	advance_on_keypress_SLASH	96	stimuli_distractor_trianglediamonds.svg	stimuli_target_squaretriangles.svg	11	yes	57	0	367
6.6.0	mac	2022-12-14	18:24:19	18:31:59	459447	5ea9d795dec14d13eb7af3d9	107010425	1	main_slash	7	main_slash	97	stimuli_distractor_diamondtriangles.svg	stimuli_distractor_trianglediamonds.svg	38	no	0	1	2000
6.6.0	mac	2022-12-14	18:24:19	18:31:59	459447	5ea9d795dec14d13eb7af3d9	107010425	1	main_slash	7	advance_on_keypress_SLASH	98	stimuli_distractor_diamondtriangles.svg	stimuli_distractor_trianglediamonds.svg	38	no	57	0	284
6.6.0	mac	2022-12-14	18:24:19	18:32:01	460870	5ea9d795dec14d13eb7af3d9	107010425	1	main_slash	7	main_slash	99	stimuli_distractor_trianglediamonds.svg	stimuli_target_trianglesquares.svg	26	yes	53	1	508
6.6.0	mac	2022-12-14	18:24:19	18:32:01	460870	5ea9d795dec14d13eb7af3d9	107010425	1	main_slash	7	advance_on_keypress_SLASH	100	stimuli_distractor_trianglediamonds.svg	stimuli_target_trianglesquares.svg	26	yes	57	0	377
6.6.0	mac	2022-12-14	18:24:19	18:32:02	462555	5ea9d795dec14d13eb7af3d9	107010425	1	main_slash	7	main_slash	101	stimuli_target_trianglesquares.svg	stimuli_distractor_diamondtriangles.svg	22	yes	53	1	678
6.6.0	mac	2022-12-14	18:24:19	18:32:02	462555	5ea9d795dec14d13eb7af3d9	107010425	1	main_slash	7	advance_on_keypress_SLASH	102	stimuli_target_trianglesquares.svg	stimuli_distractor_diamondtriangles.svg	22	yes	57	0	615
6.6.0	mac	2022-12-14	18:24:19	18:32:05	464644	5ea9d795dec14d13eb7af3d9	107010425	1	main_slash	7	main_slash	103	stimuli_target_diamondcircles.svg	stimuli_distractor_trianglediamonds.svg	19	yes	53	1	844
6.6.0	mac	2022-12-14	18:24:19	18:32:05	464644	5ea9d795dec14d13eb7af3d9	107010425	1	main_slash	7	advance_on_keypress_SLASH	104	stimuli_target_diamondcircles.svg	stimuli_distractor_trianglediamonds.svg	19	yes	57	0	390
6.6.0	mac	2022-12-14	18:24:19	18:32:08	467675	5ea9d795dec14d13eb7af3d9	107010425	1	main_slash	7	main_slash	105	stimuli_distractor_trianglediamonds.svg	stimuli_distractor_trianglediamonds.svg	33	no	0	1	2000
6.6.0	mac	2022-12-14	18:24:19	18:32:08	467675	5ea9d795dec14d13eb7af3d9	107010425	1	main_slash	7	advance_on_keypress_SLASH	106	stimuli_distractor_trianglediamonds.svg	stimuli_distractor_trianglediamonds.svg	33	no	57	0	312
6.6.0	mac	2022-12-14	18:24:19	18:32:09	469146	5ea9d795dec14d13eb7af3d9	107010425	1	main_slash	7	main_slash	107	stimuli_target_trianglesquares.svg	stimuli_distractor_trianglediamonds.svg	18	yes	53	1	508
6.6.0	mac	2022-12-14	18:24:19	18:32:09	469146	5ea9d795dec14d13eb7af3d9	107010425	1	main_slash	7	advance_on_keypress_SLASH	108	stimuli_target_trianglesquares.svg	stimuli_distractor_trianglediamonds.svg	18	yes	57	0	550
6.6.0	mac	2022-12-14	18:24:19	18:32:12	472317	5ea9d795dec14d13eb7af3d9	107010425	1	main_slash	7	main_slash	109	stimuli_distractor_diamondtriangles.svg	stimuli_distractor_diamondtriangles.svg	39	no	0	1	2000
6.6.0	mac	2022-12-14	18:24:19	18:32:12	472317	5ea9d795dec14d13eb7af3d9	107010425	1	main_slash	7	advance_on_keypress_SLASH	110	stimuli_distractor_diamondtriangles.svg	stimuli_distractor_diamondtriangles.svg	39	no	57	0	372
6.6.0	mac	2022-12-14	18:24:19	18:32:14	473844	5ea9d795dec14d13eb7af3d9	107010425	1	main_slash	7	main_slash	111	stimuli_distractor_trianglediamonds.svg	stimuli_target_circletriangles.svg	9	yes	53	1	523
6.6.0	mac	2022-12-14	18:24:19	18:32:14	473844	5ea9d795dec14d13eb7af3d9	107010425	1	main_slash	7	advance_on_keypress_SLASH	112	stimuli_distractor_trianglediamonds.svg	stimuli_target_circletriangles.svg	9	yes	57	0	440
6.6.0	mac	2022-12-14	18:24:19	18:32:16	475606	5ea9d795dec14d13eb7af3d9	107010425	1	main_slash	7	main_slash	113	stimuli_distractor_trianglediamonds.svg	stimuli_target_circlediamonds.svg	10	yes	53	1	702
6.6.0	mac	2022-12-14	18:24:19	18:32:16	475606	5ea9d795dec14d13eb7af3d9	107010425	1	main_slash	7	advance_on_keypress_SLASH	114	stimuli_distractor_trianglediamonds.svg	stimuli_target_circlediamonds.svg	10	yes	57	0	440
6.6.0	mac	2022-12-14	18:24:19	18:32:17	477211	5ea9d795dec14d13eb7af3d9	107010425	1	main_slash	7	main_slash	115	stimuli_target_circlediamonds.svg	stimuli_distractor_diamondtriangles.svg	6	yes	53	1	544
6.6.0	mac	2022-12-14	18:24:19	18:32:17	477211	5ea9d795dec14d13eb7af3d9	107010425	1	main_slash	7	advance_on_keypress_SLASH	116	stimuli_target_circlediamonds.svg	stimuli_distractor_diamondtriangles.svg	6	yes	57	0	451
6.6.0	mac	2022-12-14	18:24:19	18:32:20	479761	5ea9d795dec14d13eb7af3d9	107010425	1	main_slash	7	main_slash	117	stimuli_distractor_diamondtriangles.svg	stimuli_distractor_trianglediamonds.svg	37	no	53	0	1459
6.6.0	mac	2022-12-14	18:24:19	18:32:20	479761	5ea9d795dec14d13eb7af3d9	107010425	1	main_slash	7	advance_on_keypress_SLASH	118	stimuli_distractor_diamondtriangles.svg	stimuli_distractor_trianglediamonds.svg	37	no	57	0	330
6.6.0	mac	2022-12-14	18:24:19	18:32:23	482732	5ea9d795dec14d13eb7af3d9	107010425	1	main_slash	7	main_slash	119	stimuli_target_diamondcircles.svg	stimuli_distractor_diamondtriangles.svg	23	yes	0	0	2000
6.6.0	mac	2022-12-14	18:24:19	18:32:23	482732	5ea9d795dec14d13eb7af3d9	107010425	1	main_slash	7	advance_on_keypress_SLASH	120	stimuli_target_diamondcircles.svg	stimuli_distractor_diamondtriangles.svg	23	yes	57	0	4504
6.6.0	mac	2022-12-14	18:24:19	18:32:29	488623	5ea9d795dec14d13eb7af3d9	107010425	1	main_slash	7	main_slash	121	stimuli_distractor_diamondtriangles.svg	stimuli_target_circletriangles.svg	13	yes	53	1	754
6.6.0	mac	2022-12-14	18:24:19	18:32:29	488623	5ea9d795dec14d13eb7af3d9	107010425	1	main_slash	7	advance_on_keypress_SLASH	122	stimuli_distractor_diamondtriangles.svg	stimuli_target_circletriangles.svg	13	yes	57	0	1145
6.6.0	mac	2022-12-14	18:24:19	18:32:31	491008	5ea9d795dec14d13eb7af3d9	107010425	1	main_slash	7	main_slash	123	stimuli_target_squaretriangles.svg	stimuli_distractor_trianglediamonds.svg	3	yes	53	1	608
6.6.0	mac	2022-12-14	18:24:19	18:32:31	491008	5ea9d795dec14d13eb7af3d9	107010425	1	main_slash	7	advance_on_keypress_SLASH	124	stimuli_target_squaretriangles.svg	stimuli_distractor_trianglediamonds.svg	3	yes	57	0	718
6.6.0	mac	2022-12-14	18:24:19	18:32:33	492959	5ea9d795dec14d13eb7af3d9	107010425	1	main_slash	7	main_slash	125	stimuli_distractor_trianglediamonds.svg	stimuli_target_squarediamonds.svg	12	yes	53	1	600
6.6.0	mac	2022-12-14	18:24:19	18:32:33	492959	5ea9d795dec14d13eb7af3d9	107010425	1	main_slash	7	advance_on_keypress_SLASH	126	stimuli_distractor_trianglediamonds.svg	stimuli_target_squarediamonds.svg	12	yes	57	0	685
6.6.0	mac	2022-12-14	18:24:19	18:32:35	495170	5ea9d795dec14d13eb7af3d9	107010425	1	main_slash	7	main_slash	127	stimuli_target_diamondsquares.svg	stimuli_distractor_diamondtriangles.svg	24	yes	53	1	880
6.6.0	mac	2022-12-14	18:24:19	18:32:35	495170	5ea9d795dec14d13eb7af3d9	107010425	1	main_slash	7	advance_on_keypress_SLASH	128	stimuli_target_diamondsquares.svg	stimuli_distractor_diamondtriangles.svg	24	yes	57	0	661
6.6.0	mac	2022-12-14	18:24:19	18:32:37	497061	5ea9d795dec14d13eb7af3d9	107010425	1	main_slash	7	main_slash	129	stimuli_target_squaretriangles.svg	stimuli_distractor_diamondtriangles.svg	7	yes	53	1	608
6.6.0	mac	2022-12-14	18:24:19	18:32:37	497061	5ea9d795dec14d13eb7af3d9	107010425	1	main_slash	7	advance_on_keypress_SLASH	130	stimuli_target_squaretriangles.svg	stimuli_distractor_diamondtriangles.svg	7	yes	57	0	592
6.6.0	mac	2022-12-14	18:24:19	18:32:39	499479	5ea9d795dec14d13eb7af3d9	107010425	1	main_slash	7	main_slash	131	stimuli_distractor_trianglediamonds.svg	stimuli_target_diamondsquares.svg	28	yes	53	1	1194
6.6.0	mac	2022-12-14	18:24:19	18:32:39	499479	5ea9d795dec14d13eb7af3d9	107010425	1	main_slash	7	advance_on_keypress_SLASH	132	stimuli_distractor_trianglediamonds.svg	stimuli_target_diamondsquares.svg	28	yes	57	0	669
6.6.0	mac	2022-12-14	18:24:19	18:32:43	502782	5ea9d795dec14d13eb7af3d9	107010425	1	main_slash	7	main_slash	133	stimuli_distractor_trianglediamonds.svg	stimuli_distractor_trianglediamonds.svg	34	no	0	1	2000
6.6.0	mac	2022-12-14	18:24:19	18:32:43	502782	5ea9d795dec14d13eb7af3d9	107010425	1	main_slash	7	advance_on_keypress_SLASH	134	stimuli_distractor_trianglediamonds.svg	stimuli_distractor_trianglediamonds.svg	34	no	57	0	413
6.6.0	mac	2022-12-14	18:24:19	18:32:44	504321	5ea9d795dec14d13eb7af3d9	107010425	1	main_slash	7	main_slash	135	stimuli_distractor_diamondtriangles.svg	stimuli_target_trianglecircles.svg	29	yes	53	1	497
6.6.0	mac	2022-12-14	18:24:19	18:32:44	504321	5ea9d795dec14d13eb7af3d9	107010425	1	main_slash	7	advance_on_keypress_SLASH	136	stimuli_distractor_diamondtriangles.svg	stimuli_target_trianglecircles.svg	29	yes	57	0	926
6.6.0	mac	2022-12-14	18:24:19	18:32:46	506465	5ea9d795dec14d13eb7af3d9	107010425	1	main_slash	7	main_slash	137	stimuli_target_diamondsquares.svg	stimuli_distractor_trianglediamonds.svg	20	yes	53	1	570
6.6.0	mac	2022-12-14	18:24:19	18:32:46	506465	5ea9d795dec14d13eb7af3d9	107010425	1	main_slash	7	advance_on_keypress_SLASH	138	stimuli_target_diamondsquares.svg	stimuli_distractor_trianglediamonds.svg	20	yes	57	0	527
6.6.0	mac	2022-12-14	18:24:19	18:32:48	508085	5ea9d795dec14d13eb7af3d9	107010425	1	main_slash	7	main_slash	139	stimuli_distractor_trianglediamonds.svg	stimuli_target_trianglecircles.svg	25	yes	53	1	458
6.6.0	mac	2022-12-14	18:24:19	18:32:48	508085	5ea9d795dec14d13eb7af3d9	107010425	1	main_slash	7	advance_on_keypress_SLASH	140	stimuli_distractor_trianglediamonds.svg	stimuli_target_trianglecircles.svg	25	yes	57	0	419
6.6.0	mac	2022-12-14	18:24:19	18:32:50	509772	5ea9d795dec14d13eb7af3d9	107010425	1	main_slash	7	main_slash	141	stimuli_target_squarediamonds.svg	stimuli_distractor_diamondtriangles.svg	8	yes	53	1	636
6.6.0	mac	2022-12-14	18:24:19	18:32:50	509772	5ea9d795dec14d13eb7af3d9	107010425	1	main_slash	7	advance_on_keypress_SLASH	142	stimuli_target_squarediamonds.svg	stimuli_distractor_diamondtriangles.svg	8	yes	57	0	561
6.6.0	mac	2022-12-14	18:24:19	18:32:52	511805	5ea9d795dec14d13eb7af3d9	107010425	1	main_slash	7	main_slash	143	stimuli_distractor_trianglediamonds.svg	stimuli_target_diamondcircles.svg	27	yes	53	1	838
6.6.0	mac	2022-12-14	18:24:19	18:32:52	511805	5ea9d795dec14d13eb7af3d9	107010425	1	main_slash	7	advance_on_keypress_SLASH	144	stimuli_distractor_trianglediamonds.svg	stimuli_target_diamondcircles.svg	27	yes	57	0	449
6.6.0	mac	2022-12-14	18:24:19	18:32:53	513380	5ea9d795dec14d13eb7af3d9	107010425	1	main_slash	7	main_slash	145	stimuli_target_circletriangles.svg	stimuli_distractor_trianglediamonds.svg	1	yes	53	1	488
6.6.0	mac	2022-12-14	18:24:19	18:32:53	513380	5ea9d795dec14d13eb7af3d9	107010425	1	main_slash	7	advance_on_keypress_SLASH	146	stimuli_target_circletriangles.svg	stimuli_distractor_trianglediamonds.svg	1	yes	57	0	453
6.6.0	mac	2022-12-14	18:24:19	18:32:55	515052	5ea9d795dec14d13eb7af3d9	107010425	1	main_slash	7	main_slash	147	stimuli_target_trianglecircles.svg	stimuli_distractor_diamondtriangles.svg	21	yes	53	1	585
6.6.0	mac	2022-12-14	18:24:19	18:32:55	515052	5ea9d795dec14d13eb7af3d9	107010425	1	main_slash	7	advance_on_keypress_SLASH	148	stimuli_target_trianglecircles.svg	stimuli_distractor_diamondtriangles.svg	21	yes	57	0	438
6.6.0	mac	2022-12-14	18:24:19	18:32:57	516799	5ea9d795dec14d13eb7af3d9	107010425	1	main_slash	7	main_slash	149	stimuli_distractor_diamondtriangles.svg	stimuli_target_trianglesquares.svg	30	yes	53	1	669
6.6.0	mac	2022-12-14	18:24:19	18:32:57	516799	5ea9d795dec14d13eb7af3d9	107010425	1	main_slash	7	advance_on_keypress_SLASH	150	stimuli_distractor_diamondtriangles.svg	stimuli_target_trianglesquares.svg	30	yes	57	0	392
6.6.0	mac	2022-12-14	18:24:19	18:33:00	519824	5ea9d795dec14d13eb7af3d9	107010425	1	main_slash	7	main_slash	151	stimuli_distractor_diamondtriangles.svg	stimuli_distractor_diamondtriangles.svg	40	no	0	1	2000
6.6.0	mac	2022-12-14	18:24:19	18:33:00	519824	5ea9d795dec14d13eb7af3d9	107010425	1	main_slash	7	advance_on_keypress_SLASH	152	stimuli_distractor_diamondtriangles.svg	stimuli_distractor_diamondtriangles.svg	40	no	57	0	249
6.6.0	mac	2022-12-14	18:24:19	18:33:01	521447	5ea9d795dec14d13eb7af3d9	107010425	1	main_slash	7	main_slash	153	stimuli_target_circletriangles.svg	stimuli_distractor_diamondtriangles.svg	5	yes	53	1	750
6.6.0	mac	2022-12-14	18:24:19	18:33:01	521447	5ea9d795dec14d13eb7af3d9	107010425	1	main_slash	7	advance_on_keypress_SLASH	154	stimuli_target_circletriangles.svg	stimuli_distractor_diamondtriangles.svg	5	yes	57	0	551
6.6.0	mac	2022-12-14	18:24:19	18:33:03	523334	5ea9d795dec14d13eb7af3d9	107010425	1	main_slash	7	main_slash	155	stimuli_target_squarediamonds.svg	stimuli_distractor_trianglediamonds.svg	4	yes	53	1	705
6.6.0	mac	2022-12-14	18:24:19	18:33:03	523334	5ea9d795dec14d13eb7af3d9	107010425	1	main_slash	7	advance_on_keypress_SLASH	156	stimuli_target_squarediamonds.svg	stimuli_distractor_trianglediamonds.svg	4	yes	57	0	486
6.6.0	mac	2022-12-14	18:24:19	18:33:05	525501	5ea9d795dec14d13eb7af3d9	107010425	1	main_slash	7	main_slash	157	stimuli_distractor_diamondtriangles.svg	stimuli_target_diamondcircles.svg	31	yes	53	1	1047
6.6.0	mac	2022-12-14	18:24:19	18:33:05	525501	5ea9d795dec14d13eb7af3d9	107010425	1	main_slash	7	advance_on_keypress_SLASH	158	stimuli_distractor_diamondtriangles.svg	stimuli_target_diamondcircles.svg	31	yes	57	0	739
6.6.0	mac	2022-12-14	18:24:19	18:33:07	527448	5ea9d795dec14d13eb7af3d9	107010425	1	main_slash	7	main_slash	159	stimuli_distractor_diamondtriangles.svg	stimuli_target_squaretriangles.svg	15	yes	53	1	575
6.6.0	mac	2022-12-14	18:24:19	18:33:07	527448	5ea9d795dec14d13eb7af3d9	107010425	1	main_slash	7	advance_on_keypress_SLASH	160	stimuli_distractor_diamondtriangles.svg	stimuli_target_squaretriangles.svg	15	yes	57	0	437
6.6.0	mac	2022-12-14	18:24:19	18:33:19	538631	5ea9d795dec14d13eb7af3d9	107010425	1	practice_z	9	practice_z	1	stimuli_target_squarediamonds.svg	stimuli_distractor_trianglediamonds.svg	5	yes	44	1	706
6.6.0	mac	2022-12-14	18:24:19	18:33:19	538631	5ea9d795dec14d13eb7af3d9	107010425	1	practice_z	9	advance_on_keypress_ZEE	2	stimuli_target_squarediamonds.svg	stimuli_distractor_trianglediamonds.svg	5	yes	57	0	521
6.6.0	mac	2022-12-14	18:24:19	18:33:21	541267	5ea9d795dec14d13eb7af3d9	107010425	1	practice_z	9	practice_z	3	stimuli_distractor_trianglediamonds.svg	stimuli_target_circlediamonds.svg	10	yes	44	1	491
6.6.0	mac	2022-12-14	18:24:19	18:33:21	541267	5ea9d795dec14d13eb7af3d9	107010425	1	practice_z	9	advance_on_keypress_ZEE	4	stimuli_distractor_trianglediamonds.svg	stimuli_target_circlediamonds.svg	10	yes	57	0	1504
6.6.0	mac	2022-12-14	18:24:19	18:33:25	544750	5ea9d795dec14d13eb7af3d9	107010425	1	practice_z	9	practice_z	5	stimuli_distractor_diamondtriangles.svg	stimuli_target_circletriangles.svg	7	yes	44	1	352
6.6.0	mac	2022-12-14	18:24:19	18:33:25	544750	5ea9d795dec14d13eb7af3d9	107010425	1	practice_z	9	advance_on_keypress_ZEE	6	stimuli_distractor_diamondtriangles.svg	stimuli_target_circletriangles.svg	7	yes	57	0	747
6.6.0	mac	2022-12-14	18:24:19	18:33:29	549142	5ea9d795dec14d13eb7af3d9	107010425	1	practice_z	9	practice_z	7	stimuli_distractor_diamondtriangles.svg	stimuli_distractor_diamondtriangles.svg	13	no	0	1	2000
6.6.0	mac	2022-12-14	18:24:19	18:33:29	549142	5ea9d795dec14d13eb7af3d9	107010425	1	practice_z	9	advance_on_keypress_ZEE	8	stimuli_distractor_diamondtriangles.svg	stimuli_distractor_diamondtriangles.svg	13	no	57	0	384
6.6.0	mac	2022-12-14	18:24:19	18:33:33	553149	5ea9d795dec14d13eb7af3d9	107010425	1	practice_z	9	practice_z	9	stimuli_distractor_trianglediamonds.svg	stimuli_distractor_diamondtriangles.svg	16	no	0	1	2000
6.6.0	mac	2022-12-14	18:24:19	18:33:33	553149	5ea9d795dec14d13eb7af3d9	107010425	1	practice_z	9	advance_on_keypress_ZEE	10	stimuli_distractor_trianglediamonds.svg	stimuli_distractor_diamondtriangles.svg	16	no	57	0	216
6.6.0	mac	2022-12-14	18:24:19	18:33:35	555438	5ea9d795dec14d13eb7af3d9	107010425	1	practice_z	9	practice_z	11	stimuli_distractor_trianglediamonds.svg	stimuli_target_diamondcircles.svg	12	yes	44	1	434
6.6.0	mac	2022-12-14	18:24:19	18:33:35	555438	5ea9d795dec14d13eb7af3d9	107010425	1	practice_z	9	advance_on_keypress_ZEE	12	stimuli_distractor_trianglediamonds.svg	stimuli_target_diamondcircles.svg	12	yes	57	0	1135
6.6.0	mac	2022-12-14	18:24:19	18:33:39	558619	5ea9d795dec14d13eb7af3d9	107010425	1	practice_z	9	practice_z	13	stimuli_distractor_diamondtriangles.svg	stimuli_target_trianglecircles.svg	9	yes	44	1	405
6.6.0	mac	2022-12-14	18:24:19	18:33:39	558619	5ea9d795dec14d13eb7af3d9	107010425	1	practice_z	9	advance_on_keypress_ZEE	14	stimuli_distractor_diamondtriangles.svg	stimuli_target_trianglecircles.svg	9	yes	57	0	868
6.6.0	mac	2022-12-14	18:24:19	18:33:41	561482	5ea9d795dec14d13eb7af3d9	107010425	1	practice_z	9	practice_z	15	stimuli_distractor_diamondtriangles.svg	stimuli_target_diamondcircles.svg	8	yes	44	1	362
6.6.0	mac	2022-12-14	18:24:19	18:33:41	561482	5ea9d795dec14d13eb7af3d9	107010425	1	practice_z	9	advance_on_keypress_ZEE	16	stimuli_distractor_diamondtriangles.svg	stimuli_target_diamondcircles.svg	8	yes	57	0	346
6.6.0	mac	2022-12-14	18:24:19	18:33:44	564110	5ea9d795dec14d13eb7af3d9	107010425	1	practice_z	9	practice_z	17	stimuli_target_circlediamonds.svg	stimuli_distractor_trianglediamonds.svg	4	yes	44	1	647
6.6.0	mac	2022-12-14	18:24:19	18:33:44	564110	5ea9d795dec14d13eb7af3d9	107010425	1	practice_z	9	advance_on_keypress_ZEE	18	stimuli_target_circlediamonds.svg	stimuli_distractor_trianglediamonds.svg	4	yes	57	0	346
6.6.0	mac	2022-12-14	18:24:19	18:33:46	566492	5ea9d795dec14d13eb7af3d9	107010425	1	practice_z	9	practice_z	19	stimuli_target_circlediamonds.svg	stimuli_distractor_diamondtriangles.svg	1	yes	44	1	404
6.6.0	mac	2022-12-14	18:24:19	18:33:46	566492	5ea9d795dec14d13eb7af3d9	107010425	1	practice_z	9	advance_on_keypress_ZEE	20	stimuli_target_circlediamonds.svg	stimuli_distractor_diamondtriangles.svg	1	yes	57	0	397
6.6.0	mac	2022-12-14	18:24:19	18:33:50	570507	5ea9d795dec14d13eb7af3d9	107010425	1	practice_z	9	practice_z	21	stimuli_distractor_diamondtriangles.svg	stimuli_distractor_trianglediamonds.svg	14	no	0	1	2000
6.6.0	mac	2022-12-14	18:24:19	18:33:50	570507	5ea9d795dec14d13eb7af3d9	107010425	1	practice_z	9	advance_on_keypress_ZEE	22	stimuli_distractor_diamondtriangles.svg	stimuli_distractor_trianglediamonds.svg	14	no	57	0	328
6.6.0	mac	2022-12-14	18:24:19	18:33:53	572970	5ea9d795dec14d13eb7af3d9	107010425	1	practice_z	9	practice_z	23	stimuli_target_diamondsquares.svg	stimuli_distractor_diamondtriangles.svg	3	yes	44	1	497
6.6.0	mac	2022-12-14	18:24:19	18:33:53	572970	5ea9d795dec14d13eb7af3d9	107010425	1	practice_z	9	advance_on_keypress_ZEE	24	stimuli_target_diamondsquares.svg	stimuli_distractor_diamondtriangles.svg	3	yes	57	0	380
6.6.0	mac	2022-12-14	18:24:19	18:33:55	575460	5ea9d795dec14d13eb7af3d9	107010425	1	practice_z	9	practice_z	25	stimuli_distractor_trianglediamonds.svg	stimuli_target_squarediamonds.svg	11	yes	44	1	478
6.6.0	mac	2022-12-14	18:24:19	18:33:55	575460	5ea9d795dec14d13eb7af3d9	107010425	1	practice_z	9	advance_on_keypress_ZEE	26	stimuli_distractor_trianglediamonds.svg	stimuli_target_squarediamonds.svg	11	yes	57	0	339
6.6.0	mac	2022-12-14	18:24:19	18:33:58	578004	5ea9d795dec14d13eb7af3d9	107010425	1	practice_z	9	practice_z	27	stimuli_target_diamondsquares.svg	stimuli_distractor_trianglediamonds.svg	6	yes	44	1	565
6.6.0	mac	2022-12-14	18:24:19	18:33:58	578004	5ea9d795dec14d13eb7af3d9	107010425	1	practice_z	9	advance_on_keypress_ZEE	28	stimuli_target_diamondsquares.svg	stimuli_distractor_trianglediamonds.svg	6	yes	57	0	251
6.6.0	mac	2022-12-14	18:24:19	18:34:00	580324	5ea9d795dec14d13eb7af3d9	107010425	1	practice_z	9	practice_z	29	stimuli_target_squarediamonds.svg	stimuli_distractor_diamondtriangles.svg	2	yes	44	1	441
6.6.0	mac	2022-12-14	18:24:19	18:34:00	580324	5ea9d795dec14d13eb7af3d9	107010425	1	practice_z	9	advance_on_keypress_ZEE	30	stimuli_target_squarediamonds.svg	stimuli_distractor_diamondtriangles.svg	2	yes	57	0	314
6.6.0	mac	2022-12-14	18:24:19	18:34:04	584278	5ea9d795dec14d13eb7af3d9	107010425	1	practice_z	9	practice_z	31	stimuli_distractor_trianglediamonds.svg	stimuli_distractor_trianglediamonds.svg	15	no	0	1	2000
6.6.0	mac	2022-12-14	18:24:19	18:34:04	584278	5ea9d795dec14d13eb7af3d9	107010425	1	practice_z	9	advance_on_keypress_ZEE	32	stimuli_distractor_trianglediamonds.svg	stimuli_distractor_trianglediamonds.svg	15	no	57	0	4002
6.6.0	mac	2022-12-14	18:24:19	18:34:11	591204	5ea9d795dec14d13eb7af3d9	107010425	1	main_z	11	main_z	1	stimuli_distractor_trianglediamonds.svg	stimuli_target_trianglecircles.svg	25	yes	44	1	526
6.6.0	mac	2022-12-14	18:24:19	18:34:11	591204	5ea9d795dec14d13eb7af3d9	107010425	1	main_z	11	advance_on_keypress_ZEE	2	stimuli_distractor_trianglediamonds.svg	stimuli_target_trianglecircles.svg	25	yes	57	0	872
6.6.0	mac	2022-12-14	18:24:19	18:34:15	594725	5ea9d795dec14d13eb7af3d9	107010425	1	main_z	11	main_z	3	stimuli_distractor_diamondtriangles.svg	stimuli_distractor_diamondtriangles.svg	40	no	0	1	2000
6.6.0	mac	2022-12-14	18:24:19	18:34:15	594725	5ea9d795dec14d13eb7af3d9	107010425	1	main_z	11	advance_on_keypress_ZEE	4	stimuli_distractor_diamondtriangles.svg	stimuli_distractor_diamondtriangles.svg	40	no	57	0	403
6.6.0	mac	2022-12-14	18:24:19	18:34:16	596262	5ea9d795dec14d13eb7af3d9	107010425	1	main_z	11	main_z	5	stimuli_distractor_diamondtriangles.svg	stimuli_target_trianglesquares.svg	30	yes	44	1	514
6.6.0	mac	2022-12-14	18:24:19	18:34:16	596262	5ea9d795dec14d13eb7af3d9	107010425	1	main_z	11	advance_on_keypress_ZEE	6	stimuli_distractor_diamondtriangles.svg	stimuli_target_trianglesquares.svg	30	yes	57	0	544
6.6.0	mac	2022-12-14	18:24:19	18:34:18	597942	5ea9d795dec14d13eb7af3d9	107010425	1	main_z	11	main_z	7	stimuli_target_squaretriangles.svg	stimuli_distractor_trianglediamonds.svg	3	yes	44	1	487
6.6.0	mac	2022-12-14	18:24:19	18:34:18	597942	5ea9d795dec14d13eb7af3d9	107010425	1	main_z	11	advance_on_keypress_ZEE	8	stimuli_target_squaretriangles.svg	stimuli_distractor_trianglediamonds.svg	3	yes	57	0	417
6.6.0	mac	2022-12-14	18:24:19	18:34:19	599478	5ea9d795dec14d13eb7af3d9	107010425	1	main_z	11	main_z	9	stimuli_target_squaretriangles.svg	stimuli_distractor_diamondtriangles.svg	7	yes	44	1	485
6.6.0	mac	2022-12-14	18:24:19	18:34:19	599478	5ea9d795dec14d13eb7af3d9	107010425	1	main_z	11	advance_on_keypress_ZEE	10	stimuli_target_squaretriangles.svg	stimuli_distractor_diamondtriangles.svg	7	yes	57	0	710
6.6.0	mac	2022-12-14	18:24:19	18:34:21	601237	5ea9d795dec14d13eb7af3d9	107010425	1	main_z	11	main_z	11	stimuli_distractor_trianglediamonds.svg	stimuli_target_squarediamonds.svg	12	yes	44	1	411
6.6.0	mac	2022-12-14	18:24:19	18:34:21	601237	5ea9d795dec14d13eb7af3d9	107010425	1	main_z	11	advance_on_keypress_ZEE	12	stimuli_distractor_trianglediamonds.svg	stimuli_target_squarediamonds.svg	12	yes	57	0	439
6.6.0	mac	2022-12-14	18:24:19	18:34:23	602754	5ea9d795dec14d13eb7af3d9	107010425	1	main_z	11	main_z	13	stimuli_target_diamondcircles.svg	stimuli_distractor_trianglediamonds.svg	19	yes	44	1	454
6.6.0	mac	2022-12-14	18:24:19	18:34:23	602754	5ea9d795dec14d13eb7af3d9	107010425	1	main_z	11	advance_on_keypress_ZEE	14	stimuli_target_diamondcircles.svg	stimuli_distractor_trianglediamonds.svg	19	yes	57	0	717
6.6.0	mac	2022-12-14	18:24:19	18:34:24	604518	5ea9d795dec14d13eb7af3d9	107010425	1	main_z	11	main_z	15	stimuli_target_circlediamonds.svg	stimuli_distractor_diamondtriangles.svg	6	yes	44	1	409
6.6.0	mac	2022-12-14	18:24:19	18:34:24	604518	5ea9d795dec14d13eb7af3d9	107010425	1	main_z	11	advance_on_keypress_ZEE	16	stimuli_target_circlediamonds.svg	stimuli_distractor_diamondtriangles.svg	6	yes	57	0	442
6.6.0	mac	2022-12-14	18:24:19	18:34:26	606002	5ea9d795dec14d13eb7af3d9	107010425	1	main_z	11	main_z	17	stimuli_distractor_diamondtriangles.svg	stimuli_target_circletriangles.svg	13	yes	44	1	411
6.6.0	mac	2022-12-14	18:24:19	18:34:26	606002	5ea9d795dec14d13eb7af3d9	107010425	1	main_z	11	advance_on_keypress_ZEE	18	stimuli_distractor_diamondtriangles.svg	stimuli_target_circletriangles.svg	13	yes	57	0	364
6.6.0	mac	2022-12-14	18:24:19	18:34:27	607410	5ea9d795dec14d13eb7af3d9	107010425	1	main_z	11	main_z	19	stimuli_distractor_diamondtriangles.svg	stimuli_target_squarediamonds.svg	16	yes	44	1	420
6.6.0	mac	2022-12-14	18:24:19	18:34:27	607410	5ea9d795dec14d13eb7af3d9	107010425	1	main_z	11	advance_on_keypress_ZEE	20	stimuli_distractor_diamondtriangles.svg	stimuli_target_squarediamonds.svg	16	yes	57	0	777
6.6.0	mac	2022-12-14	18:24:19	18:34:29	609142	5ea9d795dec14d13eb7af3d9	107010425	1	main_z	11	main_z	21	stimuli_distractor_trianglediamonds.svg	stimuli_target_diamondsquares.svg	28	yes	44	1	320
6.6.0	mac	2022-12-14	18:24:19	18:34:29	609142	5ea9d795dec14d13eb7af3d9	107010425	1	main_z	11	advance_on_keypress_ZEE	22	stimuli_distractor_trianglediamonds.svg	stimuli_target_diamondsquares.svg	28	yes	57	0	496
6.6.0	mac	2022-12-14	18:24:19	18:34:31	610658	5ea9d795dec14d13eb7af3d9	107010425	1	main_z	11	main_z	23	stimuli_distractor_diamondtriangles.svg	stimuli_target_diamondcircles.svg	31	yes	44	1	397
6.6.0	mac	2022-12-14	18:24:19	18:34:31	610658	5ea9d795dec14d13eb7af3d9	107010425	1	main_z	11	advance_on_keypress_ZEE	24	stimuli_distractor_diamondtriangles.svg	stimuli_target_diamondcircles.svg	31	yes	57	0	487
6.6.0	mac	2022-12-14	18:24:19	18:34:32	612201	5ea9d795dec14d13eb7af3d9	107010425	1	main_z	11	main_z	25	stimuli_distractor_trianglediamonds.svg	stimuli_distractor_diamondtriangles.svg	36	no	44	0	431
6.6.0	mac	2022-12-14	18:24:19	18:34:32	612201	5ea9d795dec14d13eb7af3d9	107010425	1	main_z	11	advance_on_keypress_ZEE	26	stimuli_distractor_trianglediamonds.svg	stimuli_distractor_diamondtriangles.svg	36	no	57	0	870
6.6.0	mac	2022-12-14	18:24:19	18:34:34	614228	5ea9d795dec14d13eb7af3d9	107010425	1	main_z	11	main_z	27	stimuli_target_diamondsquares.svg	stimuli_distractor_diamondtriangles.svg	24	yes	44	1	529
6.6.0	mac	2022-12-14	18:24:19	18:34:34	614228	5ea9d795dec14d13eb7af3d9	107010425	1	main_z	11	advance_on_keypress_ZEE	28	stimuli_target_diamondsquares.svg	stimuli_distractor_diamondtriangles.svg	24	yes	57	0	345
6.6.0	mac	2022-12-14	18:24:19	18:34:35	615540	5ea9d795dec14d13eb7af3d9	107010425	1	main_z	11	main_z	29	stimuli_target_circletriangles.svg	stimuli_distractor_diamondtriangles.svg	5	yes	44	1	335
6.6.0	mac	2022-12-14	18:24:19	18:34:35	615540	5ea9d795dec14d13eb7af3d9	107010425	1	main_z	11	advance_on_keypress_ZEE	30	stimuli_target_circletriangles.svg	stimuli_distractor_diamondtriangles.svg	5	yes	57	0	415
6.6.0	mac	2022-12-14	18:24:19	18:34:37	617116	5ea9d795dec14d13eb7af3d9	107010425	1	main_z	11	main_z	31	stimuli_target_trianglesquares.svg	stimuli_distractor_diamondtriangles.svg	22	yes	44	1	515
6.6.0	mac	2022-12-14	18:24:19	18:34:37	617116	5ea9d795dec14d13eb7af3d9	107010425	1	main_z	11	advance_on_keypress_ZEE	32	stimuli_target_trianglesquares.svg	stimuli_distractor_diamondtriangles.svg	22	yes	57	0	333
6.6.0	mac	2022-12-14	18:24:19	18:34:38	618389	5ea9d795dec14d13eb7af3d9	107010425	1	main_z	11	main_z	33	stimuli_distractor_trianglediamonds.svg	stimuli_distractor_trianglediamonds.svg	34	no	44	0	299
6.6.0	mac	2022-12-14	18:24:19	18:34:38	618389	5ea9d795dec14d13eb7af3d9	107010425	1	main_z	11	advance_on_keypress_ZEE	34	stimuli_distractor_trianglediamonds.svg	stimuli_distractor_trianglediamonds.svg	34	no	57	0	445
6.6.0	mac	2022-12-14	18:24:19	18:34:41	621464	5ea9d795dec14d13eb7af3d9	107010425	1	main_z	11	main_z	35	stimuli_distractor_diamondtriangles.svg	stimuli_distractor_trianglediamonds.svg	37	no	0	1	2000
6.6.0	mac	2022-12-14	18:24:19	18:34:41	621464	5ea9d795dec14d13eb7af3d9	107010425	1	main_z	11	advance_on_keypress_ZEE	36	stimuli_distractor_diamondtriangles.svg	stimuli_distractor_trianglediamonds.svg	37	no	57	0	631
6.6.0	mac	2022-12-14	18:24:19	18:34:45	624730	5ea9d795dec14d13eb7af3d9	107010425	1	main_z	11	main_z	37	stimuli_distractor_diamondtriangles.svg	stimuli_distractor_diamondtriangles.svg	39	no	0	1	2000
6.6.0	mac	2022-12-14	18:24:19	18:34:45	624730	5ea9d795dec14d13eb7af3d9	107010425	1	main_z	11	advance_on_keypress_ZEE	38	stimuli_distractor_diamondtriangles.svg	stimuli_distractor_diamondtriangles.svg	39	no	57	0	408
6.6.0	mac	2022-12-14	18:24:19	18:34:46	626203	5ea9d795dec14d13eb7af3d9	107010425	1	main_z	11	main_z	39	stimuli_distractor_diamondtriangles.svg	stimuli_target_squaretriangles.svg	15	yes	44	1	436
6.6.0	mac	2022-12-14	18:24:19	18:34:46	626203	5ea9d795dec14d13eb7af3d9	107010425	1	main_z	11	advance_on_keypress_ZEE	40	stimuli_distractor_diamondtriangles.svg	stimuli_target_squaretriangles.svg	15	yes	57	0	525
6.6.0	mac	2022-12-14	18:24:19	18:34:48	627834	5ea9d795dec14d13eb7af3d9	107010425	1	main_z	11	main_z	41	stimuli_distractor_trianglediamonds.svg	stimuli_target_diamondcircles.svg	27	yes	44	1	467
6.6.0	mac	2022-12-14	18:24:19	18:34:48	627834	5ea9d795dec14d13eb7af3d9	107010425	1	main_z	11	advance_on_keypress_ZEE	42	stimuli_distractor_trianglediamonds.svg	stimuli_target_diamondcircles.svg	27	yes	57	0	369
6.6.0	mac	2022-12-14	18:24:19	18:34:49	629247	5ea9d795dec14d13eb7af3d9	107010425	1	main_z	11	main_z	43	stimuli_target_circlediamonds.svg	stimuli_distractor_trianglediamonds.svg	2	yes	44	1	416
6.6.0	mac	2022-12-14	18:24:19	18:34:49	629247	5ea9d795dec14d13eb7af3d9	107010425	1	main_z	11	advance_on_keypress_ZEE	44	stimuli_target_circlediamonds.svg	stimuli_distractor_trianglediamonds.svg	2	yes	57	0	350
6.6.0	mac	2022-12-14	18:24:19	18:34:51	630647	5ea9d795dec14d13eb7af3d9	107010425	1	main_z	11	main_z	45	stimuli_target_squarediamonds.svg	stimuli_distractor_trianglediamonds.svg	4	yes	44	1	426
6.6.0	mac	2022-12-14	18:24:19	18:34:51	630647	5ea9d795dec14d13eb7af3d9	107010425	1	main_z	11	advance_on_keypress_ZEE	46	stimuli_target_squarediamonds.svg	stimuli_distractor_trianglediamonds.svg	4	yes	57	0	339
6.6.0	mac	2022-12-14	18:24:19	18:34:52	632017	5ea9d795dec14d13eb7af3d9	107010425	1	main_z	11	main_z	47	stimuli_target_circletriangles.svg	stimuli_distractor_trianglediamonds.svg	1	yes	44	1	409
6.6.0	mac	2022-12-14	18:24:19	18:34:52	632017	5ea9d795dec14d13eb7af3d9	107010425	1	main_z	11	advance_on_keypress_ZEE	48	stimuli_target_circletriangles.svg	stimuli_distractor_trianglediamonds.svg	1	yes	57	0	317
6.6.0	mac	2022-12-14	18:24:19	18:34:53	633464	5ea9d795dec14d13eb7af3d9	107010425	1	main_z	11	main_z	49	stimuli_target_trianglesquares.svg	stimuli_distractor_trianglediamonds.svg	18	yes	44	1	505
6.6.0	mac	2022-12-14	18:24:19	18:34:53	633464	5ea9d795dec14d13eb7af3d9	107010425	1	main_z	11	advance_on_keypress_ZEE	50	stimuli_target_trianglesquares.svg	stimuli_distractor_trianglediamonds.svg	18	yes	57	0	332
6.6.0	mac	2022-12-14	18:24:19	18:34:55	634937	5ea9d795dec14d13eb7af3d9	107010425	1	main_z	11	main_z	51	stimuli_distractor_trianglediamonds.svg	stimuli_distractor_diamondtriangles.svg	35	no	44	0	516
6.6.0	mac	2022-12-14	18:24:19	18:34:55	634937	5ea9d795dec14d13eb7af3d9	107010425	1	main_z	11	advance_on_keypress_ZEE	52	stimuli_distractor_trianglediamonds.svg	stimuli_distractor_diamondtriangles.svg	35	no	57	0	477
6.6.0	mac	2022-12-14	18:24:19	18:34:58	638052	5ea9d795dec14d13eb7af3d9	107010425	1	main_z	11	main_z	53	stimuli_distractor_diamondtriangles.svg	stimuli_distractor_trianglediamonds.svg	38	no	0	1	2000
6.6.0	mac	2022-12-14	18:24:19	18:34:58	638052	5ea9d795dec14d13eb7af3d9	107010425	1	main_z	11	advance_on_keypress_ZEE	54	stimuli_distractor_diamondtriangles.svg	stimuli_distractor_trianglediamonds.svg	38	no	57	0	260
6.6.0	mac	2022-12-14	18:24:19	18:34:59	639333	5ea9d795dec14d13eb7af3d9	107010425	1	main_z	11	main_z	55	stimuli_distractor_trianglediamonds.svg	stimuli_target_circlediamonds.svg	10	yes	44	1	376
6.6.0	mac	2022-12-14	18:24:19	18:34:59	639333	5ea9d795dec14d13eb7af3d9	107010425	1	main_z	11	advance_on_keypress_ZEE	56	stimuli_distractor_trianglediamonds.svg	stimuli_target_circlediamonds.svg	10	yes	57	0	362
6.6.0	mac	2022-12-14	18:24:19	18:35:01	640741	5ea9d795dec14d13eb7af3d9	107010425	1	main_z	11	main_z	57	stimuli_distractor_diamondtriangles.svg	stimuli_target_trianglecircles.svg	29	yes	44	1	416
6.6.0	mac	2022-12-14	18:24:19	18:35:01	640741	5ea9d795dec14d13eb7af3d9	107010425	1	main_z	11	advance_on_keypress_ZEE	58	stimuli_distractor_diamondtriangles.svg	stimuli_target_trianglecircles.svg	29	yes	57	0	290
6.6.0	mac	2022-12-14	18:24:19	18:35:04	643658	5ea9d795dec14d13eb7af3d9	107010425	1	main_z	11	main_z	59	stimuli_distractor_trianglediamonds.svg	stimuli_distractor_trianglediamonds.svg	33	no	0	1	2000
6.6.0	mac	2022-12-14	18:24:19	18:35:04	643658	5ea9d795dec14d13eb7af3d9	107010425	1	main_z	11	advance_on_keypress_ZEE	60	stimuli_distractor_trianglediamonds.svg	stimuli_distractor_trianglediamonds.svg	33	no	57	0	317
6.6.0	mac	2022-12-14	18:24:19	18:35:05	645013	5ea9d795dec14d13eb7af3d9	107010425	1	main_z	11	main_z	61	stimuli_distractor_trianglediamonds.svg	stimuli_target_squaretriangles.svg	11	yes	44	1	397
6.6.0	mac	2022-12-14	18:24:19	18:35:05	645013	5ea9d795dec14d13eb7af3d9	107010425	1	main_z	11	advance_on_keypress_ZEE	62	stimuli_distractor_trianglediamonds.svg	stimuli_target_squaretriangles.svg	11	yes	57	0	356
6.6.0	mac	2022-12-14	18:24:19	18:35:06	646415	5ea9d795dec14d13eb7af3d9	107010425	1	main_z	11	main_z	63	stimuli_target_trianglecircles.svg	stimuli_distractor_diamondtriangles.svg	21	yes	44	1	411
6.6.0	mac	2022-12-14	18:24:19	18:35:06	646415	5ea9d795dec14d13eb7af3d9	107010425	1	main_z	11	advance_on_keypress_ZEE	64	stimuli_target_trianglecircles.svg	stimuli_distractor_diamondtriangles.svg	21	yes	57	0	333
6.6.0	mac	2022-12-14	18:24:19	18:35:08	647819	5ea9d795dec14d13eb7af3d9	107010425	1	main_z	11	main_z	65	stimuli_target_squarediamonds.svg	stimuli_distractor_diamondtriangles.svg	8	yes	44	1	429
6.6.0	mac	2022-12-14	18:24:19	18:35:08	647819	5ea9d795dec14d13eb7af3d9	107010425	1	main_z	11	advance_on_keypress_ZEE	66	stimuli_target_squarediamonds.svg	stimuli_distractor_diamondtriangles.svg	8	yes	57	0	778
6.6.0	mac	2022-12-14	18:24:19	18:35:09	649496	5ea9d795dec14d13eb7af3d9	107010425	1	main_z	11	main_z	67	stimuli_distractor_trianglediamonds.svg	stimuli_target_circletriangles.svg	9	yes	44	1	266
6.6.0	mac	2022-12-14	18:24:19	18:35:09	649496	5ea9d795dec14d13eb7af3d9	107010425	1	main_z	11	advance_on_keypress_ZEE	68	stimuli_distractor_trianglediamonds.svg	stimuli_target_circletriangles.svg	9	yes	57	0	339
6.6.0	mac	2022-12-14	18:24:19	18:35:11	650930	5ea9d795dec14d13eb7af3d9	107010425	1	main_z	11	main_z	69	stimuli_distractor_diamondtriangles.svg	stimuli_target_circlediamonds.svg	14	yes	44	1	460
6.6.0	mac	2022-12-14	18:24:19	18:35:11	650930	5ea9d795dec14d13eb7af3d9	107010425	1	main_z	11	advance_on_keypress_ZEE	70	stimuli_distractor_diamondtriangles.svg	stimuli_target_circlediamonds.svg	14	yes	57	0	357
6.6.0	mac	2022-12-14	18:24:19	18:35:12	652497	5ea9d795dec14d13eb7af3d9	107010425	1	main_z	11	main_z	71	stimuli_distractor_trianglediamonds.svg	stimuli_target_trianglesquares.svg	26	yes	44	1	574
6.6.0	mac	2022-12-14	18:24:19	18:35:12	652497	5ea9d795dec14d13eb7af3d9	107010425	1	main_z	11	advance_on_keypress_ZEE	72	stimuli_distractor_trianglediamonds.svg	stimuli_target_trianglesquares.svg	26	yes	57	0	475
6.6.0	mac	2022-12-14	18:24:19	18:35:14	654067	5ea9d795dec14d13eb7af3d9	107010425	1	main_z	11	main_z	73	stimuli_target_diamondsquares.svg	stimuli_distractor_trianglediamonds.svg	20	yes	44	1	457
6.6.0	mac	2022-12-14	18:24:19	18:35:14	654067	5ea9d795dec14d13eb7af3d9	107010425	1	main_z	11	advance_on_keypress_ZEE	74	stimuli_target_diamondsquares.svg	stimuli_distractor_trianglediamonds.svg	20	yes	57	0	639
6.6.0	mac	2022-12-14	18:24:19	18:35:16	655649	5ea9d795dec14d13eb7af3d9	107010425	1	main_z	11	main_z	75	stimuli_target_diamondcircles.svg	stimuli_distractor_diamondtriangles.svg	23	yes	44	1	303
6.6.0	mac	2022-12-14	18:24:19	18:35:16	655649	5ea9d795dec14d13eb7af3d9	107010425	1	main_z	11	advance_on_keypress_ZEE	76	stimuli_target_diamondcircles.svg	stimuli_distractor_diamondtriangles.svg	23	yes	57	0	316
6.6.0	mac	2022-12-14	18:24:19	18:35:17	656981	5ea9d795dec14d13eb7af3d9	107010425	1	main_z	11	main_z	77	stimuli_target_trianglecircles.svg	stimuli_distractor_trianglediamonds.svg	17	yes	44	1	386
6.6.0	mac	2022-12-14	18:24:19	18:35:17	656981	5ea9d795dec14d13eb7af3d9	107010425	1	main_z	11	advance_on_keypress_ZEE	78	stimuli_target_trianglecircles.svg	stimuli_distractor_trianglediamonds.svg	17	yes	57	0	392
6.6.0	mac	2022-12-14	18:24:19	18:35:18	658299	5ea9d795dec14d13eb7af3d9	107010425	1	main_z	11	main_z	79	stimuli_distractor_diamondtriangles.svg	stimuli_target_diamondsquares.svg	32	yes	44	1	280
6.6.0	mac	2022-12-14	18:24:19	18:35:18	658299	5ea9d795dec14d13eb7af3d9	107010425	1	main_z	11	advance_on_keypress_ZEE	80	stimuli_distractor_diamondtriangles.svg	stimuli_target_diamondsquares.svg	32	yes	57	0	445
6.6.0	mac	2022-12-14	18:24:19	18:35:20	659678	5ea9d795dec14d13eb7af3d9	107010425	1	main_z	11	main_z	81	stimuli_distractor_diamondtriangles.svg	stimuli_target_trianglesquares.svg	30	yes	44	1	303
6.6.0	mac	2022-12-14	18:24:19	18:35:20	659678	5ea9d795dec14d13eb7af3d9	107010425	1	main_z	11	advance_on_keypress_ZEE	82	stimuli_distractor_diamondtriangles.svg	stimuli_target_trianglesquares.svg	30	yes	57	0	881
6.6.0	mac	2022-12-14	18:24:19	18:35:21	661471	5ea9d795dec14d13eb7af3d9	107010425	1	main_z	11	main_z	83	stimuli_distractor_diamondtriangles.svg	stimuli_target_trianglecircles.svg	29	yes	44	1	271
6.6.0	mac	2022-12-14	18:24:19	18:35:21	661471	5ea9d795dec14d13eb7af3d9	107010425	1	main_z	11	advance_on_keypress_ZEE	84	stimuli_distractor_diamondtriangles.svg	stimuli_target_trianglecircles.svg	29	yes	57	0	315
6.6.0	mac	2022-12-14	18:24:19	18:35:23	662826	5ea9d795dec14d13eb7af3d9	107010425	1	main_z	11	main_z	85	stimuli_target_squaretriangles.svg	stimuli_distractor_trianglediamonds.svg	3	yes	44	1	408
6.6.0	mac	2022-12-14	18:24:19	18:35:23	662826	5ea9d795dec14d13eb7af3d9	107010425	1	main_z	11	advance_on_keypress_ZEE	86	stimuli_target_squaretriangles.svg	stimuli_distractor_trianglediamonds.svg	3	yes	57	0	413
6.6.0	mac	2022-12-14	18:24:19	18:35:24	664192	5ea9d795dec14d13eb7af3d9	107010425	1	main_z	11	main_z	87	stimuli_distractor_trianglediamonds.svg	stimuli_target_circlediamonds.svg	10	yes	44	1	333
6.6.0	mac	2022-12-14	18:24:19	18:35:24	664192	5ea9d795dec14d13eb7af3d9	107010425	1	main_z	11	advance_on_keypress_ZEE	88	stimuli_distractor_trianglediamonds.svg	stimuli_target_circlediamonds.svg	10	yes	57	0	374
6.6.0	mac	2022-12-14	18:24:19	18:35:27	667194	5ea9d795dec14d13eb7af3d9	107010425	1	main_z	11	main_z	89	stimuli_distractor_trianglediamonds.svg	stimuli_distractor_trianglediamonds.svg	34	no	0	1	2000
6.6.0	mac	2022-12-14	18:24:19	18:35:27	667194	5ea9d795dec14d13eb7af3d9	107010425	1	main_z	11	advance_on_keypress_ZEE	90	stimuli_distractor_trianglediamonds.svg	stimuli_distractor_trianglediamonds.svg	34	no	57	0	817
6.6.0	mac	2022-12-14	18:24:19	18:35:29	669038	5ea9d795dec14d13eb7af3d9	107010425	1	main_z	11	main_z	91	stimuli_distractor_diamondtriangles.svg	stimuli_target_squaretriangles.svg	15	yes	44	1	403
6.6.0	mac	2022-12-14	18:24:19	18:35:29	669038	5ea9d795dec14d13eb7af3d9	107010425	1	main_z	11	advance_on_keypress_ZEE	92	stimuli_distractor_diamondtriangles.svg	stimuli_target_squaretriangles.svg	15	yes	57	0	383
6.6.0	mac	2022-12-14	18:24:19	18:35:30	670399	5ea9d795dec14d13eb7af3d9	107010425	1	main_z	11	main_z	93	stimuli_distractor_trianglediamonds.svg	stimuli_distractor_trianglediamonds.svg	33	no	44	0	343
6.6.0	mac	2022-12-14	18:24:19	18:35:30	670399	5ea9d795dec14d13eb7af3d9	107010425	1	main_z	11	advance_on_keypress_ZEE	94	stimuli_distractor_trianglediamonds.svg	stimuli_distractor_trianglediamonds.svg	33	no	57	0	355
6.6.0	mac	2022-12-14	18:24:19	18:35:32	671919	5ea9d795dec14d13eb7af3d9	107010425	1	main_z	11	main_z	95	stimuli_target_circlediamonds.svg	stimuli_distractor_diamondtriangles.svg	6	yes	44	1	537
6.6.0	mac	2022-12-14	18:24:19	18:35:32	671919	5ea9d795dec14d13eb7af3d9	107010425	1	main_z	11	advance_on_keypress_ZEE	96	stimuli_target_circlediamonds.svg	stimuli_distractor_diamondtriangles.svg	6	yes	57	0	348
6.6.0	mac	2022-12-14	18:24:19	18:35:33	673523	5ea9d795dec14d13eb7af3d9	107010425	1	main_z	11	main_z	97	stimuli_target_diamondsquares.svg	stimuli_distractor_diamondtriangles.svg	24	yes	44	1	618
6.6.0	mac	2022-12-14	18:24:19	18:35:33	673523	5ea9d795dec14d13eb7af3d9	107010425	1	main_z	11	advance_on_keypress_ZEE	98	stimuli_target_diamondsquares.svg	stimuli_distractor_diamondtriangles.svg	24	yes	57	0	359
6.6.0	mac	2022-12-14	18:24:19	18:35:35	674875	5ea9d795dec14d13eb7af3d9	107010425	1	main_z	11	main_z	99	stimuli_target_trianglesquares.svg	stimuli_distractor_trianglediamonds.svg	18	yes	44	1	370
6.6.0	mac	2022-12-14	18:24:19	18:35:35	674875	5ea9d795dec14d13eb7af3d9	107010425	1	main_z	11	advance_on_keypress_ZEE	100	stimuli_target_trianglesquares.svg	stimuli_distractor_trianglediamonds.svg	18	yes	57	0	413
6.6.0	mac	2022-12-14	18:24:19	18:35:36	676270	5ea9d795dec14d13eb7af3d9	107010425	1	main_z	11	main_z	101	stimuli_distractor_trianglediamonds.svg	stimuli_target_diamondcircles.svg	27	yes	44	1	341
6.6.0	mac	2022-12-14	18:24:19	18:35:36	676270	5ea9d795dec14d13eb7af3d9	107010425	1	main_z	11	advance_on_keypress_ZEE	102	stimuli_distractor_trianglediamonds.svg	stimuli_target_diamondcircles.svg	27	yes	57	0	350
6.6.0	mac	2022-12-14	18:24:19	18:35:38	677577	5ea9d795dec14d13eb7af3d9	107010425	1	main_z	11	main_z	103	stimuli_distractor_diamondtriangles.svg	stimuli_distractor_trianglediamonds.svg	38	no	44	0	322
6.6.0	mac	2022-12-14	18:24:19	18:35:38	677577	5ea9d795dec14d13eb7af3d9	107010425	1	main_z	11	advance_on_keypress_ZEE	104	stimuli_distractor_diamondtriangles.svg	stimuli_distractor_trianglediamonds.svg	38	no	57	0	482
6.6.0	mac	2022-12-14	18:24:19	18:35:39	679127	5ea9d795dec14d13eb7af3d9	107010425	1	main_z	11	main_z	105	stimuli_target_trianglecircles.svg	stimuli_distractor_diamondtriangles.svg	21	yes	44	1	445
6.6.0	mac	2022-12-14	18:24:19	18:35:39	679127	5ea9d795dec14d13eb7af3d9	107010425	1	main_z	11	advance_on_keypress_ZEE	106	stimuli_target_trianglecircles.svg	stimuli_distractor_diamondtriangles.svg	21	yes	57	0	719
6.6.0	mac	2022-12-14	18:24:19	18:35:41	680736	5ea9d795dec14d13eb7af3d9	107010425	1	main_z	11	main_z	107	stimuli_distractor_trianglediamonds.svg	stimuli_target_circletriangles.svg	9	yes	44	1	260
6.6.0	mac	2022-12-14	18:24:19	18:35:41	680736	5ea9d795dec14d13eb7af3d9	107010425	1	main_z	11	advance_on_keypress_ZEE	108	stimuli_distractor_trianglediamonds.svg	stimuli_target_circletriangles.svg	9	yes	57	0	565
6.6.0	mac	2022-12-14	18:24:19	18:35:42	682255	5ea9d795dec14d13eb7af3d9	107010425	1	main_z	11	main_z	109	stimuli_distractor_trianglediamonds.svg	stimuli_target_squarediamonds.svg	12	yes	44	1	319
6.6.0	mac	2022-12-14	18:24:19	18:35:42	682255	5ea9d795dec14d13eb7af3d9	107010425	1	main_z	11	advance_on_keypress_ZEE	110	stimuli_distractor_trianglediamonds.svg	stimuli_target_squarediamonds.svg	12	yes	57	0	648
6.6.0	mac	2022-12-14	18:24:19	18:35:44	683803	5ea9d795dec14d13eb7af3d9	107010425	1	main_z	11	main_z	111	stimuli_distractor_trianglediamonds.svg	stimuli_target_trianglecircles.svg	25	yes	44	1	269
6.6.0	mac	2022-12-14	18:24:19	18:35:44	683803	5ea9d795dec14d13eb7af3d9	107010425	1	main_z	11	advance_on_keypress_ZEE	112	stimuli_distractor_trianglediamonds.svg	stimuli_target_trianglecircles.svg	25	yes	57	0	960
6.6.0	mac	2022-12-14	18:24:19	18:35:46	685675	5ea9d795dec14d13eb7af3d9	107010425	1	main_z	11	main_z	113	stimuli_target_diamondcircles.svg	stimuli_distractor_diamondtriangles.svg	23	yes	44	1	277
6.6.0	mac	2022-12-14	18:24:19	18:35:46	685675	5ea9d795dec14d13eb7af3d9	107010425	1	main_z	11	advance_on_keypress_ZEE	114	stimuli_target_diamondcircles.svg	stimuli_distractor_diamondtriangles.svg	23	yes	57	0	380
6.6.0	mac	2022-12-14	18:24:19	18:35:47	686972	5ea9d795dec14d13eb7af3d9	107010425	1	main_z	11	main_z	115	stimuli_distractor_diamondtriangles.svg	stimuli_target_diamondsquares.svg	32	yes	44	1	277
6.6.0	mac	2022-12-14	18:24:19	18:35:47	686972	5ea9d795dec14d13eb7af3d9	107010425	1	main_z	11	advance_on_keypress_ZEE	116	stimuli_distractor_diamondtriangles.svg	stimuli_target_diamondsquares.svg	32	yes	57	0	431
6.6.0	mac	2022-12-14	18:24:19	18:35:48	688328	5ea9d795dec14d13eb7af3d9	107010425	1	main_z	11	main_z	117	stimuli_distractor_trianglediamonds.svg	stimuli_target_trianglesquares.svg	26	yes	44	1	286
6.6.0	mac	2022-12-14	18:24:19	18:35:48	688328	5ea9d795dec14d13eb7af3d9	107010425	1	main_z	11	advance_on_keypress_ZEE	118	stimuli_distractor_trianglediamonds.svg	stimuli_target_trianglesquares.svg	26	yes	57	0	823
6.6.0	mac	2022-12-14	18:24:19	18:35:50	690044	5ea9d795dec14d13eb7af3d9	107010425	1	main_z	11	main_z	119	stimuli_distractor_trianglediamonds.svg	stimuli_target_squaretriangles.svg	11	yes	44	1	266
6.6.0	mac	2022-12-14	18:24:19	18:35:50	690044	5ea9d795dec14d13eb7af3d9	107010425	1	main_z	11	advance_on_keypress_ZEE	120	stimuli_distractor_trianglediamonds.svg	stimuli_target_squaretriangles.svg	11	yes	57	0	344
6.6.0	mac	2022-12-14	18:24:19	18:35:51	691247	5ea9d795dec14d13eb7af3d9	107010425	1	main_z	11	main_z	121	stimuli_distractor_diamondtriangles.svg	stimuli_target_squarediamonds.svg	16	yes	44	1	236
6.6.0	mac	2022-12-14	18:24:19	18:35:51	691247	5ea9d795dec14d13eb7af3d9	107010425	1	main_z	11	advance_on_keypress_ZEE	122	stimuli_distractor_diamondtriangles.svg	stimuli_target_squarediamonds.svg	16	yes	57	0	688
6.6.0	mac	2022-12-14	18:24:19	18:35:53	692827	5ea9d795dec14d13eb7af3d9	107010425	1	main_z	11	main_z	123	stimuli_distractor_diamondtriangles.svg	stimuli_distractor_diamondtriangles.svg	40	no	44	0	257
6.6.0	mac	2022-12-14	18:24:19	18:35:53	692827	5ea9d795dec14d13eb7af3d9	107010425	1	main_z	11	advance_on_keypress_ZEE	124	stimuli_distractor_diamondtriangles.svg	stimuli_distractor_diamondtriangles.svg	40	no	57	0	639
6.6.0	mac	2022-12-14	18:24:19	18:35:54	694398	5ea9d795dec14d13eb7af3d9	107010425	1	main_z	11	main_z	125	stimuli_distractor_trianglediamonds.svg	stimuli_distractor_diamondtriangles.svg	36	no	44	0	283
6.6.0	mac	2022-12-14	18:24:19	18:35:54	694398	5ea9d795dec14d13eb7af3d9	107010425	1	main_z	11	advance_on_keypress_ZEE	126	stimuli_distractor_trianglediamonds.svg	stimuli_distractor_diamondtriangles.svg	36	no	57	0	470
6.6.0	mac	2022-12-14	18:24:19	18:35:56	695923	5ea9d795dec14d13eb7af3d9	107010425	1	main_z	11	main_z	127	stimuli_target_trianglecircles.svg	stimuli_distractor_trianglediamonds.svg	17	yes	44	1	422
6.6.0	mac	2022-12-14	18:24:19	18:35:56	695923	5ea9d795dec14d13eb7af3d9	107010425	1	main_z	11	advance_on_keypress_ZEE	128	stimuli_target_trianglecircles.svg	stimuli_distractor_trianglediamonds.svg	17	yes	57	0	813
6.6.0	mac	2022-12-14	18:24:19	18:35:58	697627	5ea9d795dec14d13eb7af3d9	107010425	1	main_z	11	main_z	129	stimuli_distractor_diamondtriangles.svg	stimuli_target_circlediamonds.svg	14	yes	44	1	264
6.6.0	mac	2022-12-14	18:24:19	18:35:58	697627	5ea9d795dec14d13eb7af3d9	107010425	1	main_z	11	advance_on_keypress_ZEE	130	stimuli_distractor_diamondtriangles.svg	stimuli_target_circlediamonds.svg	14	yes	57	0	1848
6.6.0	mac	2022-12-14	18:24:19	18:36:00	700377	5ea9d795dec14d13eb7af3d9	107010425	1	main_z	11	main_z	131	stimuli_target_squaretriangles.svg	stimuli_distractor_diamondtriangles.svg	7	yes	44	1	265
6.6.0	mac	2022-12-14	18:24:19	18:36:00	700377	5ea9d795dec14d13eb7af3d9	107010425	1	main_z	11	advance_on_keypress_ZEE	132	stimuli_target_squaretriangles.svg	stimuli_distractor_diamondtriangles.svg	7	yes	57	0	369
6.6.0	mac	2022-12-14	18:24:19	18:36:02	701660	5ea9d795dec14d13eb7af3d9	107010425	1	main_z	11	main_z	133	stimuli_target_squarediamonds.svg	stimuli_distractor_trianglediamonds.svg	4	yes	44	1	281
6.6.0	mac	2022-12-14	18:24:19	18:36:02	701660	5ea9d795dec14d13eb7af3d9	107010425	1	main_z	11	advance_on_keypress_ZEE	134	stimuli_target_squarediamonds.svg	stimuli_distractor_trianglediamonds.svg	4	yes	57	0	323
6.6.0	mac	2022-12-14	18:24:19	18:36:03	702891	5ea9d795dec14d13eb7af3d9	107010425	1	main_z	11	main_z	135	stimuli_distractor_trianglediamonds.svg	stimuli_target_diamondsquares.svg	28	yes	44	1	276
6.6.0	mac	2022-12-14	18:24:19	18:36:03	702891	5ea9d795dec14d13eb7af3d9	107010425	1	main_z	11	advance_on_keypress_ZEE	136	stimuli_distractor_trianglediamonds.svg	stimuli_target_diamondsquares.svg	28	yes	57	0	692
6.6.0	mac	2022-12-14	18:24:19	18:36:04	704261	5ea9d795dec14d13eb7af3d9	107010425	1	main_z	11	main_z	137	stimuli_distractor_diamondtriangles.svg	stimuli_distractor_diamondtriangles.svg	39	no	44	0	48
6.6.0	mac	2022-12-14	18:24:19	18:36:04	704261	5ea9d795dec14d13eb7af3d9	107010425	1	main_z	11	advance_on_keypress_ZEE	138	stimuli_distractor_diamondtriangles.svg	stimuli_distractor_diamondtriangles.svg	39	no	57	0	755
6.6.0	mac	2022-12-14	18:24:19	18:36:06	705893	5ea9d795dec14d13eb7af3d9	107010425	1	main_z	11	main_z	139	stimuli_target_circletriangles.svg	stimuli_distractor_trianglediamonds.svg	1	yes	44	1	245
6.6.0	mac	2022-12-14	18:24:19	18:36:06	705893	5ea9d795dec14d13eb7af3d9	107010425	1	main_z	11	advance_on_keypress_ZEE	140	stimuli_target_circletriangles.svg	stimuli_distractor_trianglediamonds.svg	1	yes	57	0	452
6.6.0	mac	2022-12-14	18:24:19	18:36:07	707235	5ea9d795dec14d13eb7af3d9	107010425	1	main_z	11	main_z	141	stimuli_target_diamondsquares.svg	stimuli_distractor_trianglediamonds.svg	20	yes	44	1	268
6.6.0	mac	2022-12-14	18:24:19	18:36:07	707235	5ea9d795dec14d13eb7af3d9	107010425	1	main_z	11	advance_on_keypress_ZEE	142	stimuli_target_diamondsquares.svg	stimuli_distractor_trianglediamonds.svg	20	yes	57	0	523
6.6.0	mac	2022-12-14	18:24:19	18:36:09	708677	5ea9d795dec14d13eb7af3d9	107010425	1	main_z	11	main_z	143	stimuli_distractor_diamondtriangles.svg	stimuli_distractor_trianglediamonds.svg	37	no	44	0	270
6.6.0	mac	2022-12-14	18:24:19	18:36:09	708677	5ea9d795dec14d13eb7af3d9	107010425	1	main_z	11	advance_on_keypress_ZEE	144	stimuli_distractor_diamondtriangles.svg	stimuli_distractor_trianglediamonds.svg	37	no	57	0	562
6.6.0	mac	2022-12-14	18:24:19	18:36:12	711862	5ea9d795dec14d13eb7af3d9	107010425	1	main_z	11	main_z	145	stimuli_target_trianglesquares.svg	stimuli_distractor_diamondtriangles.svg	22	yes	0	0	2000
6.6.0	mac	2022-12-14	18:24:19	18:36:12	711862	5ea9d795dec14d13eb7af3d9	107010425	1	main_z	11	advance_on_keypress_ZEE	146	stimuli_target_trianglesquares.svg	stimuli_distractor_diamondtriangles.svg	22	yes	57	0	291
6.6.0	mac	2022-12-14	18:24:19	18:36:13	713191	5ea9d795dec14d13eb7af3d9	107010425	1	main_z	11	main_z	147	stimuli_distractor_diamondtriangles.svg	stimuli_target_circletriangles.svg	13	yes	44	1	388
6.6.0	mac	2022-12-14	18:24:19	18:36:13	713191	5ea9d795dec14d13eb7af3d9	107010425	1	main_z	11	advance_on_keypress_ZEE	148	stimuli_distractor_diamondtriangles.svg	stimuli_target_circletriangles.svg	13	yes	57	0	1086
6.6.0	mac	2022-12-14	18:24:19	18:36:15	715168	5ea9d795dec14d13eb7af3d9	107010425	1	main_z	11	main_z	149	stimuli_target_circletriangles.svg	stimuli_distractor_diamondtriangles.svg	5	yes	44	1	260
6.6.0	mac	2022-12-14	18:24:19	18:36:15	715168	5ea9d795dec14d13eb7af3d9	107010425	1	main_z	11	advance_on_keypress_ZEE	150	stimuli_target_circletriangles.svg	stimuli_distractor_diamondtriangles.svg	5	yes	57	0	393
6.6.0	mac	2022-12-14	18:24:19	18:36:16	716482	5ea9d795dec14d13eb7af3d9	107010425	1	main_z	11	main_z	151	stimuli_distractor_trianglediamonds.svg	stimuli_distractor_diamondtriangles.svg	35	no	44	0	292
6.6.0	mac	2022-12-14	18:24:19	18:36:16	716482	5ea9d795dec14d13eb7af3d9	107010425	1	main_z	11	advance_on_keypress_ZEE	152	stimuli_distractor_trianglediamonds.svg	stimuli_distractor_diamondtriangles.svg	35	no	57	0	489
6.6.0	mac	2022-12-14	18:24:19	18:36:18	717968	5ea9d795dec14d13eb7af3d9	107010425	1	main_z	11	main_z	153	stimuli_distractor_diamondtriangles.svg	stimuli_target_diamondcircles.svg	31	yes	44	1	363
6.6.0	mac	2022-12-14	18:24:19	18:36:18	717968	5ea9d795dec14d13eb7af3d9	107010425	1	main_z	11	advance_on_keypress_ZEE	154	stimuli_distractor_diamondtriangles.svg	stimuli_target_diamondcircles.svg	31	yes	57	0	357
6.6.0	mac	2022-12-14	18:24:19	18:36:19	719275	5ea9d795dec14d13eb7af3d9	107010425	1	main_z	11	main_z	155	stimuli_target_diamondcircles.svg	stimuli_distractor_trianglediamonds.svg	19	yes	44	1	315
6.6.0	mac	2022-12-14	18:24:19	18:36:19	719275	5ea9d795dec14d13eb7af3d9	107010425	1	main_z	11	advance_on_keypress_ZEE	156	stimuli_target_diamondcircles.svg	stimuli_distractor_trianglediamonds.svg	19	yes	57	0	360
6.6.0	mac	2022-12-14	18:24:19	18:36:21	720567	5ea9d795dec14d13eb7af3d9	107010425	1	main_z	11	main_z	157	stimuli_target_circlediamonds.svg	stimuli_distractor_trianglediamonds.svg	2	yes	44	1	300
6.6.0	mac	2022-12-14	18:24:19	18:36:21	720567	5ea9d795dec14d13eb7af3d9	107010425	1	main_z	11	advance_on_keypress_ZEE	158	stimuli_target_circlediamonds.svg	stimuli_distractor_trianglediamonds.svg	2	yes	57	0	352
6.6.0	mac	2022-12-14	18:24:19	18:36:22	721839	5ea9d795dec14d13eb7af3d9	107010425	1	main_z	11	main_z	159	stimuli_target_squarediamonds.svg	stimuli_distractor_diamondtriangles.svg	8	yes	44	1	281
6.6.0	mac	2022-12-14	18:24:19	18:36:22	721839	5ea9d795dec14d13eb7af3d9	107010425	1	main_z	11	advance_on_keypress_ZEE	160	stimuli_target_squarediamonds.svg	stimuli_distractor_diamondtriangles.svg	8	yes	57	0	364