build	computer.platform	date	time	timestamp	time_elapsed_ms	subject	group	session	blockcode	blocknum	trialcode	trialnum	stimulus_left	stimulus_right	stim_index	target_present	response	correct	latency
6.6.1	win	2022-12-14	23:38:05	23:40:58	169263	631bb11a022ba038ef69e7b1	938880893	1	practice_slash	5	practice_slash	1	stimuli_distractor_diamondtriangles.svg	stimuli_target_trianglecircles.svg	9	yes	0	0	2000
6.6.1	win	2022-12-14	23:38:05	23:40:58	169263	631bb11a022ba038ef69e7b1	938880893	1	practice_slash	5	advance_on_keypress_SLASH	2	stimuli_distractor_diamondtriangles.svg	stimuli_target_trianglecircles.svg	9	yes	57	0	919
6.6.1	win	2022-12-14	23:38:05	23:41:02	173862	631bb11a022ba038ef69e7b1	938880893	1	practice_slash	5	practice_slash	3	stimuli_distractor_diamondtriangles.svg	stimuli_target_diamondcircles.svg	8	yes	0	0	2000
6.6.1	win	2022-12-14	23:38:05	23:41:02	173862	631bb11a022ba038ef69e7b1	938880893	1	practice_slash	5	advance_on_keypress_SLASH	4	stimuli_distractor_diamondtriangles.svg	stimuli_target_diamondcircles.svg	8	yes	57	0	1217
6.6.1	win	2022-12-14	23:38:05	23:41:06	177760	631bb11a022ba038ef69e7b1	938880893	1	practice_slash	5	practice_slash	5	stimuli_target_diamondsquares.svg	stimuli_distractor_diamondtriangles.svg	3	yes	53	1	1031
6.6.1	win	2022-12-14	23:38:05	23:41:06	177760	631bb11a022ba038ef69e7b1	938880893	1	practice_slash	5	advance_on_keypress_SLASH	6	stimuli_target_diamondsquares.svg	stimuli_distractor_diamondtriangles.svg	3	yes	57	0	671
6.6.1	win	2022-12-14	23:38:05	23:41:09	180798	631bb11a022ba038ef69e7b1	938880893	1	practice_slash	5	practice_slash	7	stimuli_target_squarediamonds.svg	stimuli_distractor_trianglediamonds.svg	5	yes	53	1	702
6.6.1	win	2022-12-14	23:38:05	23:41:09	180798	631bb11a022ba038ef69e7b1	938880893	1	practice_slash	5	advance_on_keypress_SLASH	8	stimuli_target_squarediamonds.svg	stimuli_distractor_trianglediamonds.svg	5	yes	57	0	553
6.6.1	win	2022-12-14	23:38:05	23:41:12	183423	631bb11a022ba038ef69e7b1	938880893	1	practice_slash	5	practice_slash	9	stimuli_distractor_diamondtriangles.svg	stimuli_target_circletriangles.svg	7	yes	53	1	430
6.6.1	win	2022-12-14	23:38:05	23:41:12	183423	631bb11a022ba038ef69e7b1	938880893	1	practice_slash	5	advance_on_keypress_SLASH	10	stimuli_distractor_diamondtriangles.svg	stimuli_target_circletriangles.svg	7	yes	57	0	468
6.6.1	win	2022-12-14	23:38:05	23:41:15	186510	631bb11a022ba038ef69e7b1	938880893	1	practice_slash	5	practice_slash	11	stimuli_distractor_trianglediamonds.svg	stimuli_target_diamondcircles.svg	12	yes	53	1	964
6.6.1	win	2022-12-14	23:38:05	23:41:15	186510	631bb11a022ba038ef69e7b1	938880893	1	practice_slash	5	advance_on_keypress_SLASH	12	stimuli_distractor_trianglediamonds.svg	stimuli_target_diamondcircles.svg	12	yes	57	0	424
6.6.1	win	2022-12-14	23:38:05	23:41:18	189188	631bb11a022ba038ef69e7b1	938880893	1	practice_slash	5	practice_slash	13	stimuli_target_squarediamonds.svg	stimuli_distractor_diamondtriangles.svg	2	yes	53	1	611
6.6.1	win	2022-12-14	23:38:05	23:41:18	189188	631bb11a022ba038ef69e7b1	938880893	1	practice_slash	5	advance_on_keypress_SLASH	14	stimuli_target_squarediamonds.svg	stimuli_distractor_diamondtriangles.svg	2	yes	57	0	319
6.6.1	win	2022-12-14	23:38:05	23:41:20	191651	631bb11a022ba038ef69e7b1	938880893	1	practice_slash	5	practice_slash	15	stimuli_target_circlediamonds.svg	stimuli_distractor_trianglediamonds.svg	4	yes	53	1	490
6.6.1	win	2022-12-14	23:38:05	23:41:20	191651	631bb11a022ba038ef69e7b1	938880893	1	practice_slash	5	advance_on_keypress_SLASH	16	stimuli_target_circlediamonds.svg	stimuli_distractor_trianglediamonds.svg	4	yes	57	0	309
6.6.1	win	2022-12-14	23:38:05	23:41:22	194071	631bb11a022ba038ef69e7b1	938880893	1	practice_slash	5	practice_slash	17	stimuli_distractor_trianglediamonds.svg	stimuli_target_circlediamonds.svg	10	yes	53	1	459
6.6.1	win	2022-12-14	23:38:05	23:41:22	194071	631bb11a022ba038ef69e7b1	938880893	1	practice_slash	5	advance_on_keypress_SLASH	18	stimuli_distractor_trianglediamonds.svg	stimuli_target_circlediamonds.svg	10	yes	57	0	513
6.6.1	win	2022-12-14	23:38:05	23:41:25	196887	631bb11a022ba038ef69e7b1	938880893	1	practice_slash	5	practice_slash	19	stimuli_distractor_diamondtriangles.svg	stimuli_distractor_trianglediamonds.svg	14	no	53	0	643
6.6.1	win	2022-12-14	23:38:05	23:41:25	196887	631bb11a022ba038ef69e7b1	938880893	1	practice_slash	5	advance_on_keypress_SLASH	20	stimuli_distractor_diamondtriangles.svg	stimuli_distractor_trianglediamonds.svg	14	no	57	0	548
6.6.1	win	2022-12-14	23:38:05	23:41:28	200012	631bb11a022ba038ef69e7b1	938880893	1	practice_slash	5	practice_slash	21	stimuli_target_diamondsquares.svg	stimuli_distractor_trianglediamonds.svg	6	yes	53	1	919
6.6.1	win	2022-12-14	23:38:05	23:41:28	200012	631bb11a022ba038ef69e7b1	938880893	1	practice_slash	5	advance_on_keypress_SLASH	22	stimuli_target_diamondsquares.svg	stimuli_distractor_trianglediamonds.svg	6	yes	57	0	272
6.6.1	win	2022-12-14	23:38:05	23:41:31	202402	631bb11a022ba038ef69e7b1	938880893	1	practice_slash	5	practice_slash	23	stimuli_target_circlediamonds.svg	stimuli_distractor_diamondtriangles.svg	1	yes	53	1	475
6.6.1	win	2022-12-14	23:38:05	23:41:31	202402	631bb11a022ba038ef69e7b1	938880893	1	practice_slash	5	advance_on_keypress_SLASH	24	stimuli_target_circlediamonds.svg	stimuli_distractor_diamondtriangles.svg	1	yes	57	0	200
6.6.1	win	2022-12-14	23:38:05	23:41:35	206260	631bb11a022ba038ef69e7b1	938880893	1	practice_slash	5	practice_slash	25	stimuli_distractor_diamondtriangles.svg	stimuli_distractor_diamondtriangles.svg	13	no	0	1	2000
6.6.1	win	2022-12-14	23:38:05	23:41:35	206260	631bb11a022ba038ef69e7b1	938880893	1	practice_slash	5	advance_on_keypress_SLASH	26	stimuli_distractor_diamondtriangles.svg	stimuli_distractor_diamondtriangles.svg	13	no	57	0	506
6.6.1	win	2022-12-14	23:38:05	23:41:39	210410	631bb11a022ba038ef69e7b1	938880893	1	practice_slash	5	practice_slash	27	stimuli_distractor_trianglediamonds.svg	stimuli_distractor_diamondtriangles.svg	16	no	0	1	2000
6.6.1	win	2022-12-14	23:38:05	23:41:39	210410	631bb11a022ba038ef69e7b1	938880893	1	practice_slash	5	advance_on_keypress_SLASH	28	stimuli_distractor_trianglediamonds.svg	stimuli_distractor_diamondtriangles.svg	16	no	57	0	424
6.6.1	win	2022-12-14	23:38:05	23:41:43	214476	631bb11a022ba038ef69e7b1	938880893	1	practice_slash	5	practice_slash	29	stimuli_distractor_trianglediamonds.svg	stimuli_distractor_trianglediamonds.svg	15	no	0	1	2000
6.6.1	win	2022-12-14	23:38:05	23:41:43	214476	631bb11a022ba038ef69e7b1	938880893	1	practice_slash	5	advance_on_keypress_SLASH	30	stimuli_distractor_trianglediamonds.svg	stimuli_distractor_trianglediamonds.svg	15	no	57	0	306
6.6.1	win	2022-12-14	23:38:05	23:41:45	217023	631bb11a022ba038ef69e7b1	938880893	1	practice_slash	5	practice_slash	31	stimuli_distractor_trianglediamonds.svg	stimuli_target_squarediamonds.svg	11	yes	53	1	597
6.6.1	win	2022-12-14	23:38:05	23:41:45	217023	631bb11a022ba038ef69e7b1	938880893	1	practice_slash	5	advance_on_keypress_SLASH	32	stimuli_distractor_trianglediamonds.svg	stimuli_target_squarediamonds.svg	11	yes	57	0	317
6.6.1	win	2022-12-14	23:38:05	23:42:00	231229	631bb11a022ba038ef69e7b1	938880893	1	main_slash	7	main_slash	1	stimuli_distractor_trianglediamonds.svg	stimuli_target_squarediamonds.svg	12	yes	53	1	572
6.6.1	win	2022-12-14	23:38:05	23:42:00	231229	631bb11a022ba038ef69e7b1	938880893	1	main_slash	7	advance_on_keypress_SLASH	2	stimuli_distractor_trianglediamonds.svg	stimuli_target_squarediamonds.svg	12	yes	57	0	1056
6.6.1	win	2022-12-14	23:38:05	23:42:03	234923	631bb11a022ba038ef69e7b1	938880893	1	main_slash	7	main_slash	3	stimuli_distractor_diamondtriangles.svg	stimuli_distractor_diamondtriangles.svg	39	no	0	1	2000
6.6.1	win	2022-12-14	23:38:05	23:42:03	234923	631bb11a022ba038ef69e7b1	938880893	1	main_slash	7	advance_on_keypress_SLASH	4	stimuli_distractor_diamondtriangles.svg	stimuli_distractor_diamondtriangles.svg	39	no	57	0	599
6.6.1	win	2022-12-14	23:38:05	23:42:05	236784	631bb11a022ba038ef69e7b1	938880893	1	main_slash	7	main_slash	5	stimuli_target_circletriangles.svg	stimuli_distractor_trianglediamonds.svg	1	yes	53	1	610
6.6.1	win	2022-12-14	23:38:05	23:42:05	236784	631bb11a022ba038ef69e7b1	938880893	1	main_slash	7	advance_on_keypress_SLASH	6	stimuli_target_circletriangles.svg	stimuli_distractor_trianglediamonds.svg	1	yes	57	0	975
6.6.1	win	2022-12-14	23:38:05	23:42:08	239313	631bb11a022ba038ef69e7b1	938880893	1	main_slash	7	main_slash	7	stimuli_distractor_trianglediamonds.svg	stimuli_target_circletriangles.svg	9	yes	53	1	907
6.6.1	win	2022-12-14	23:38:05	23:42:08	239313	631bb11a022ba038ef69e7b1	938880893	1	main_slash	7	advance_on_keypress_SLASH	8	stimuli_distractor_trianglediamonds.svg	stimuli_target_circletriangles.svg	9	yes	57	0	612
6.6.1	win	2022-12-14	23:38:05	23:42:10	241273	631bb11a022ba038ef69e7b1	938880893	1	main_slash	7	main_slash	9	stimuli_distractor_diamondtriangles.svg	stimuli_target_diamondcircles.svg	31	yes	53	1	701
6.6.1	win	2022-12-14	23:38:05	23:42:10	241273	631bb11a022ba038ef69e7b1	938880893	1	main_slash	7	advance_on_keypress_SLASH	10	stimuli_distractor_diamondtriangles.svg	stimuli_target_diamondcircles.svg	31	yes	57	0	594
6.6.1	win	2022-12-14	23:38:05	23:42:11	243181	631bb11a022ba038ef69e7b1	938880893	1	main_slash	7	main_slash	11	stimuli_target_circletriangles.svg	stimuli_distractor_diamondtriangles.svg	5	yes	53	1	659
6.6.1	win	2022-12-14	23:38:05	23:42:11	243181	631bb11a022ba038ef69e7b1	938880893	1	main_slash	7	advance_on_keypress_SLASH	12	stimuli_target_circletriangles.svg	stimuli_distractor_diamondtriangles.svg	5	yes	57	0	398
6.6.1	win	2022-12-14	23:38:05	23:42:15	246223	631bb11a022ba038ef69e7b1	938880893	1	main_slash	7	main_slash	13	stimuli_distractor_trianglediamonds.svg	stimuli_distractor_trianglediamonds.svg	34	no	0	1	2000
6.6.1	win	2022-12-14	23:38:05	23:42:15	246223	631bb11a022ba038ef69e7b1	938880893	1	main_slash	7	advance_on_keypress_SLASH	14	stimuli_distractor_trianglediamonds.svg	stimuli_distractor_trianglediamonds.svg	34	no	57	0	418
6.6.1	win	2022-12-14	23:38:05	23:42:17	248255	631bb11a022ba038ef69e7b1	938880893	1	main_slash	7	main_slash	15	stimuli_target_diamondcircles.svg	stimuli_distractor_trianglediamonds.svg	19	yes	53	1	965
6.6.1	win	2022-12-14	23:38:05	23:42:17	248255	631bb11a022ba038ef69e7b1	938880893	1	main_slash	7	advance_on_keypress_SLASH	16	stimuli_target_diamondcircles.svg	stimuli_distractor_trianglediamonds.svg	19	yes	57	0	470
6.6.1	win	2022-12-14	23:38:05	23:42:20	251372	631bb11a022ba038ef69e7b1	938880893	1	main_slash	7	main_slash	17	stimuli_distractor_trianglediamonds.svg	stimuli_distractor_trianglediamonds.svg	33	no	0	1	2000
6.6.1	win	2022-12-14	23:38:05	23:42:20	251372	631bb11a022ba038ef69e7b1	938880893	1	main_slash	7	advance_on_keypress_SLASH	18	stimuli_distractor_trianglediamonds.svg	stimuli_distractor_trianglediamonds.svg	33	no	57	0	454
6.6.1	win	2022-12-14	23:38:05	23:42:21	253104	631bb11a022ba038ef69e7b1	938880893	1	main_slash	7	main_slash	19	stimuli_distractor_trianglediamonds.svg	stimuli_target_squaretriangles.svg	11	yes	53	1	632
6.6.1	win	2022-12-14	23:38:05	23:42:21	253104	631bb11a022ba038ef69e7b1	938880893	1	main_slash	7	advance_on_keypress_SLASH	20	stimuli_distractor_trianglediamonds.svg	stimuli_target_squaretriangles.svg	11	yes	57	0	477
6.6.1	win	2022-12-14	23:38:05	23:42:24	255291	631bb11a022ba038ef69e7b1	938880893	1	main_slash	7	main_slash	21	stimuli_distractor_diamondtriangles.svg	stimuli_target_diamondsquares.svg	32	yes	53	1	1069
6.6.1	win	2022-12-14	23:38:05	23:42:24	255291	631bb11a022ba038ef69e7b1	938880893	1	main_slash	7	advance_on_keypress_SLASH	22	stimuli_distractor_diamondtriangles.svg	stimuli_target_diamondsquares.svg	32	yes	57	0	393
6.6.1	win	2022-12-14	23:38:05	23:42:27	258322	631bb11a022ba038ef69e7b1	938880893	1	main_slash	7	main_slash	23	stimuli_distractor_diamondtriangles.svg	stimuli_distractor_trianglediamonds.svg	37	no	0	1	2000
6.6.1	win	2022-12-14	23:38:05	23:42:27	258322	631bb11a022ba038ef69e7b1	938880893	1	main_slash	7	advance_on_keypress_SLASH	24	stimuli_distractor_diamondtriangles.svg	stimuli_distractor_trianglediamonds.svg	37	no	57	0	500
6.6.1	win	2022-12-14	23:38:05	23:42:28	260138	631bb11a022ba038ef69e7b1	938880893	1	main_slash	7	main_slash	25	stimuli_distractor_diamondtriangles.svg	stimuli_target_trianglesquares.svg	30	yes	53	1	667
6.6.1	win	2022-12-14	23:38:05	23:42:28	260138	631bb11a022ba038ef69e7b1	938880893	1	main_slash	7	advance_on_keypress_SLASH	26	stimuli_distractor_diamondtriangles.svg	stimuli_target_trianglesquares.svg	30	yes	57	0	409
6.6.1	win	2022-12-14	23:38:05	23:42:30	261965	631bb11a022ba038ef69e7b1	938880893	1	main_slash	7	main_slash	27	stimuli_target_diamondcircles.svg	stimuli_distractor_diamondtriangles.svg	23	yes	53	1	777
6.6.1	win	2022-12-14	23:38:05	23:42:30	261965	631bb11a022ba038ef69e7b1	938880893	1	main_slash	7	advance_on_keypress_SLASH	28	stimuli_target_diamondcircles.svg	stimuli_distractor_diamondtriangles.svg	23	yes	57	0	334
6.6.1	win	2022-12-14	23:38:05	23:42:32	263614	631bb11a022ba038ef69e7b1	938880893	1	main_slash	7	main_slash	29	stimuli_distractor_diamondtriangles.svg	stimuli_target_squaretriangles.svg	15	yes	53	1	675
6.6.1	win	2022-12-14	23:38:05	23:42:32	263614	631bb11a022ba038ef69e7b1	938880893	1	main_slash	7	advance_on_keypress_SLASH	30	stimuli_distractor_diamondtriangles.svg	stimuli_target_squaretriangles.svg	15	yes	57	0	412
6.6.1	win	2022-12-14	23:38:05	23:42:34	265637	631bb11a022ba038ef69e7b1	938880893	1	main_slash	7	main_slash	31	stimuli_distractor_trianglediamonds.svg	stimuli_target_diamondcircles.svg	27	yes	53	1	966
6.6.1	win	2022-12-14	23:38:05	23:42:34	265637	631bb11a022ba038ef69e7b1	938880893	1	main_slash	7	advance_on_keypress_SLASH	32	stimuli_distractor_trianglediamonds.svg	stimuli_target_diamondcircles.svg	27	yes	57	0	351
6.6.1	win	2022-12-14	23:38:05	23:42:36	267354	631bb11a022ba038ef69e7b1	938880893	1	main_slash	7	main_slash	33	stimuli_distractor_diamondtriangles.svg	stimuli_target_trianglecircles.svg	29	yes	53	1	715
6.6.1	win	2022-12-14	23:38:05	23:42:36	267354	631bb11a022ba038ef69e7b1	938880893	1	main_slash	7	advance_on_keypress_SLASH	34	stimuli_distractor_diamondtriangles.svg	stimuli_target_trianglecircles.svg	29	yes	57	0	362
6.6.1	win	2022-12-14	23:38:05	23:42:37	269057	631bb11a022ba038ef69e7b1	938880893	1	main_slash	7	main_slash	35	stimuli_target_squarediamonds.svg	stimuli_distractor_trianglediamonds.svg	4	yes	53	1	686
6.6.1	win	2022-12-14	23:38:05	23:42:37	269057	631bb11a022ba038ef69e7b1	938880893	1	main_slash	7	advance_on_keypress_SLASH	36	stimuli_target_squarediamonds.svg	stimuli_distractor_trianglediamonds.svg	4	yes	57	0	472
6.6.1	win	2022-12-14	23:38:05	23:42:39	270646	631bb11a022ba038ef69e7b1	938880893	1	main_slash	7	main_slash	37	stimuli_distractor_trianglediamonds.svg	stimuli_target_trianglesquares.svg	26	yes	53	1	475
6.6.1	win	2022-12-14	23:38:05	23:42:39	270646	631bb11a022ba038ef69e7b1	938880893	1	main_slash	7	advance_on_keypress_SLASH	38	stimuli_distractor_trianglediamonds.svg	stimuli_target_trianglesquares.svg	26	yes	57	0	387
6.6.1	win	2022-12-14	23:38:05	23:42:42	273671	631bb11a022ba038ef69e7b1	938880893	1	main_slash	7	main_slash	39	stimuli_distractor_trianglediamonds.svg	stimuli_distractor_diamondtriangles.svg	35	no	0	1	2000
6.6.1	win	2022-12-14	23:38:05	23:42:42	273671	631bb11a022ba038ef69e7b1	938880893	1	main_slash	7	advance_on_keypress_SLASH	40	stimuli_distractor_trianglediamonds.svg	stimuli_distractor_diamondtriangles.svg	35	no	57	0	847
6.6.1	win	2022-12-14	23:38:05	23:42:44	275814	631bb11a022ba038ef69e7b1	938880893	1	main_slash	7	main_slash	41	stimuli_target_circlediamonds.svg	stimuli_distractor_diamondtriangles.svg	6	yes	53	1	644
6.6.1	win	2022-12-14	23:38:05	23:42:44	275814	631bb11a022ba038ef69e7b1	938880893	1	main_slash	7	advance_on_keypress_SLASH	42	stimuli_target_circlediamonds.svg	stimuli_distractor_diamondtriangles.svg	6	yes	57	0	333
6.6.1	win	2022-12-14	23:38:05	23:42:46	277512	631bb11a022ba038ef69e7b1	938880893	1	main_slash	7	main_slash	43	stimuli_target_squaretriangles.svg	stimuli_distractor_diamondtriangles.svg	7	yes	53	1	724
6.6.1	win	2022-12-14	23:38:05	23:42:46	277512	631bb11a022ba038ef69e7b1	938880893	1	main_slash	7	advance_on_keypress_SLASH	44	stimuli_target_squaretriangles.svg	stimuli_distractor_diamondtriangles.svg	7	yes	57	0	304
6.6.1	win	2022-12-14	23:38:05	23:42:47	279088	631bb11a022ba038ef69e7b1	938880893	1	main_slash	7	main_slash	45	stimuli_target_trianglesquares.svg	stimuli_distractor_diamondtriangles.svg	22	yes	53	1	634
6.6.1	win	2022-12-14	23:38:05	23:42:47	279088	631bb11a022ba038ef69e7b1	938880893	1	main_slash	7	advance_on_keypress_SLASH	46	stimuli_target_trianglesquares.svg	stimuli_distractor_diamondtriangles.svg	22	yes	57	0	383
6.6.1	win	2022-12-14	23:38:05	23:42:49	280854	631bb11a022ba038ef69e7b1	938880893	1	main_slash	7	main_slash	47	stimuli_distractor_diamondtriangles.svg	stimuli_target_circlediamonds.svg	14	yes	53	1	734
6.6.1	win	2022-12-14	23:38:05	23:42:49	280854	631bb11a022ba038ef69e7b1	938880893	1	main_slash	7	advance_on_keypress_SLASH	48	stimuli_distractor_diamondtriangles.svg	stimuli_target_circlediamonds.svg	14	yes	57	0	326
6.6.1	win	2022-12-14	23:38:05	23:42:51	282463	631bb11a022ba038ef69e7b1	938880893	1	main_slash	7	main_slash	49	stimuli_distractor_diamondtriangles.svg	stimuli_target_squarediamonds.svg	16	yes	53	1	643
6.6.1	win	2022-12-14	23:38:05	23:42:51	282463	631bb11a022ba038ef69e7b1	938880893	1	main_slash	7	advance_on_keypress_SLASH	50	stimuli_distractor_diamondtriangles.svg	stimuli_target_squarediamonds.svg	16	yes	57	0	350
6.6.1	win	2022-12-14	23:38:05	23:42:54	285454	631bb11a022ba038ef69e7b1	938880893	1	main_slash	7	main_slash	51	stimuli_distractor_diamondtriangles.svg	stimuli_distractor_diamondtriangles.svg	40	no	0	1	2000
6.6.1	win	2022-12-14	23:38:05	23:42:54	285454	631bb11a022ba038ef69e7b1	938880893	1	main_slash	7	advance_on_keypress_SLASH	52	stimuli_distractor_diamondtriangles.svg	stimuli_distractor_diamondtriangles.svg	40	no	57	0	404
6.6.1	win	2022-12-14	23:38:05	23:42:56	287212	631bb11a022ba038ef69e7b1	938880893	1	main_slash	7	main_slash	53	stimuli_target_diamondsquares.svg	stimuli_distractor_diamondtriangles.svg	24	yes	53	1	709
6.6.1	win	2022-12-14	23:38:05	23:42:56	287212	631bb11a022ba038ef69e7b1	938880893	1	main_slash	7	advance_on_keypress_SLASH	54	stimuli_target_diamondsquares.svg	stimuli_distractor_diamondtriangles.svg	24	yes	57	0	334
6.6.1	win	2022-12-14	23:38:05	23:42:57	288785	631bb11a022ba038ef69e7b1	938880893	1	main_slash	7	main_slash	55	stimuli_target_squaretriangles.svg	stimuli_distractor_trianglediamonds.svg	3	yes	53	1	597
6.6.1	win	2022-12-14	23:38:05	23:42:57	288785	631bb11a022ba038ef69e7b1	938880893	1	main_slash	7	advance_on_keypress_SLASH	56	stimuli_target_squaretriangles.svg	stimuli_distractor_trianglediamonds.svg	3	yes	57	0	349
6.6.1	win	2022-12-14	23:38:05	23:42:59	290508	631bb11a022ba038ef69e7b1	938880893	1	main_slash	7	main_slash	57	stimuli_target_diamondsquares.svg	stimuli_distractor_trianglediamonds.svg	20	yes	53	1	721
6.6.1	win	2022-12-14	23:38:05	23:42:59	290508	631bb11a022ba038ef69e7b1	938880893	1	main_slash	7	advance_on_keypress_SLASH	58	stimuli_target_diamondsquares.svg	stimuli_distractor_trianglediamonds.svg	20	yes	57	0	347
6.6.1	win	2022-12-14	23:38:05	23:43:00	292105	631bb11a022ba038ef69e7b1	938880893	1	main_slash	7	main_slash	59	stimuli_distractor_trianglediamonds.svg	stimuli_target_circlediamonds.svg	10	yes	53	1	602
6.6.1	win	2022-12-14	23:38:05	23:43:00	292105	631bb11a022ba038ef69e7b1	938880893	1	main_slash	7	advance_on_keypress_SLASH	60	stimuli_distractor_trianglediamonds.svg	stimuli_target_circlediamonds.svg	10	yes	57	0	456
6.6.1	win	2022-12-14	23:38:05	23:43:02	293810	631bb11a022ba038ef69e7b1	938880893	1	main_slash	7	main_slash	61	stimuli_target_trianglesquares.svg	stimuli_distractor_trianglediamonds.svg	18	yes	53	1	607
6.6.1	win	2022-12-14	23:38:05	23:43:02	293810	631bb11a022ba038ef69e7b1	938880893	1	main_slash	7	advance_on_keypress_SLASH	62	stimuli_target_trianglesquares.svg	stimuli_distractor_trianglediamonds.svg	18	yes	57	0	339
6.6.1	win	2022-12-14	23:38:05	23:43:04	295246	631bb11a022ba038ef69e7b1	938880893	1	main_slash	7	main_slash	63	stimuli_distractor_diamondtriangles.svg	stimuli_target_circletriangles.svg	13	yes	53	1	460
6.6.1	win	2022-12-14	23:38:05	23:43:04	295246	631bb11a022ba038ef69e7b1	938880893	1	main_slash	7	advance_on_keypress_SLASH	64	stimuli_distractor_diamondtriangles.svg	stimuli_target_circletriangles.svg	13	yes	57	0	411
6.6.1	win	2022-12-14	23:38:05	23:43:05	296818	631bb11a022ba038ef69e7b1	938880893	1	main_slash	7	main_slash	65	stimuli_target_trianglecircles.svg	stimuli_distractor_trianglediamonds.svg	17	yes	53	1	504
6.6.1	win	2022-12-14	23:38:05	23:43:05	296818	631bb11a022ba038ef69e7b1	938880893	1	main_slash	7	advance_on_keypress_SLASH	66	stimuli_target_trianglecircles.svg	stimuli_distractor_trianglediamonds.svg	17	yes	57	0	404
6.6.1	win	2022-12-14	23:38:05	23:43:07	298251	631bb11a022ba038ef69e7b1	938880893	1	main_slash	7	main_slash	67	stimuli_distractor_trianglediamonds.svg	stimuli_target_diamondsquares.svg	28	yes	53	1	379
6.6.1	win	2022-12-14	23:38:05	23:43:07	298251	631bb11a022ba038ef69e7b1	938880893	1	main_slash	7	advance_on_keypress_SLASH	68	stimuli_distractor_trianglediamonds.svg	stimuli_target_diamondsquares.svg	28	yes	57	0	431
6.6.1	win	2022-12-14	23:38:05	23:43:08	299740	631bb11a022ba038ef69e7b1	938880893	1	main_slash	7	main_slash	69	stimuli_target_trianglecircles.svg	stimuli_distractor_diamondtriangles.svg	21	yes	53	1	404
6.6.1	win	2022-12-14	23:38:05	23:43:08	299740	631bb11a022ba038ef69e7b1	938880893	1	main_slash	7	advance_on_keypress_SLASH	70	stimuli_target_trianglecircles.svg	stimuli_distractor_diamondtriangles.svg	21	yes	57	0	412
6.6.1	win	2022-12-14	23:38:05	23:43:10	301191	631bb11a022ba038ef69e7b1	938880893	1	main_slash	7	main_slash	71	stimuli_distractor_trianglediamonds.svg	stimuli_target_trianglecircles.svg	25	yes	53	1	389
6.6.1	win	2022-12-14	23:38:05	23:43:10	301191	631bb11a022ba038ef69e7b1	938880893	1	main_slash	7	advance_on_keypress_SLASH	72	stimuli_distractor_trianglediamonds.svg	stimuli_target_trianglecircles.svg	25	yes	57	0	422
6.6.1	win	2022-12-14	23:38:05	23:43:11	302608	631bb11a022ba038ef69e7b1	938880893	1	main_slash	7	main_slash	73	stimuli_target_circlediamonds.svg	stimuli_distractor_trianglediamonds.svg	2	yes	53	1	355
6.6.1	win	2022-12-14	23:38:05	23:43:11	302608	631bb11a022ba038ef69e7b1	938880893	1	main_slash	7	advance_on_keypress_SLASH	74	stimuli_target_circlediamonds.svg	stimuli_distractor_trianglediamonds.svg	2	yes	57	0	456
6.6.1	win	2022-12-14	23:38:05	23:43:12	304084	631bb11a022ba038ef69e7b1	938880893	1	main_slash	7	main_slash	75	stimuli_target_squarediamonds.svg	stimuli_distractor_diamondtriangles.svg	8	yes	53	1	378
6.6.1	win	2022-12-14	23:38:05	23:43:12	304084	631bb11a022ba038ef69e7b1	938880893	1	main_slash	7	advance_on_keypress_SLASH	76	stimuli_target_squarediamonds.svg	stimuli_distractor_diamondtriangles.svg	8	yes	57	0	404
6.6.1	win	2022-12-14	23:38:05	23:43:15	307136	631bb11a022ba038ef69e7b1	938880893	1	main_slash	7	main_slash	77	stimuli_distractor_diamondtriangles.svg	stimuli_distractor_trianglediamonds.svg	38	no	0	1	2000
6.6.1	win	2022-12-14	23:38:05	23:43:15	307136	631bb11a022ba038ef69e7b1	938880893	1	main_slash	7	advance_on_keypress_SLASH	78	stimuli_distractor_diamondtriangles.svg	stimuli_distractor_trianglediamonds.svg	38	no	57	0	614
6.6.1	win	2022-12-14	23:38:05	23:43:17	308935	631bb11a022ba038ef69e7b1	938880893	1	main_slash	7	main_slash	79	stimuli_distractor_trianglediamonds.svg	stimuli_distractor_diamondtriangles.svg	36	no	53	0	532
6.6.1	win	2022-12-14	23:38:05	23:43:17	308935	631bb11a022ba038ef69e7b1	938880893	1	main_slash	7	advance_on_keypress_SLASH	80	stimuli_distractor_trianglediamonds.svg	stimuli_distractor_diamondtriangles.svg	36	no	57	0	1623
6.6.1	win	2022-12-14	23:38:05	23:43:20	311842	631bb11a022ba038ef69e7b1	938880893	1	main_slash	7	main_slash	81	stimuli_target_diamondsquares.svg	stimuli_distractor_diamondtriangles.svg	24	yes	53	1	640
6.6.1	win	2022-12-14	23:38:05	23:43:20	311842	631bb11a022ba038ef69e7b1	938880893	1	main_slash	7	advance_on_keypress_SLASH	82	stimuli_target_diamondsquares.svg	stimuli_distractor_diamondtriangles.svg	24	yes	57	0	430
6.6.1	win	2022-12-14	23:38:05	23:43:22	313482	631bb11a022ba038ef69e7b1	938880893	1	main_slash	7	main_slash	83	stimuli_target_circlediamonds.svg	stimuli_distractor_trianglediamonds.svg	2	yes	53	1	563
6.6.1	win	2022-12-14	23:38:05	23:43:22	313482	631bb11a022ba038ef69e7b1	938880893	1	main_slash	7	advance_on_keypress_SLASH	84	stimuli_target_circlediamonds.svg	stimuli_distractor_trianglediamonds.svg	2	yes	57	0	374
6.6.1	win	2022-12-14	23:38:05	23:43:23	314989	631bb11a022ba038ef69e7b1	938880893	1	main_slash	7	main_slash	85	stimuli_target_trianglecircles.svg	stimuli_distractor_diamondtriangles.svg	21	yes	53	1	488
6.6.1	win	2022-12-14	23:38:05	23:43:23	314989	631bb11a022ba038ef69e7b1	938880893	1	main_slash	7	advance_on_keypress_SLASH	86	stimuli_target_trianglecircles.svg	stimuli_distractor_diamondtriangles.svg	21	yes	57	0	352
6.6.1	win	2022-12-14	23:38:05	23:43:25	316506	631bb11a022ba038ef69e7b1	938880893	1	main_slash	7	main_slash	87	stimuli_target_squaretriangles.svg	stimuli_distractor_diamondtriangles.svg	7	yes	53	1	520
6.6.1	win	2022-12-14	23:38:05	23:43:25	316506	631bb11a022ba038ef69e7b1	938880893	1	main_slash	7	advance_on_keypress_SLASH	88	stimuli_target_squaretriangles.svg	stimuli_distractor_diamondtriangles.svg	7	yes	57	0	269
6.6.1	win	2022-12-14	23:38:05	23:43:28	319419	631bb11a022ba038ef69e7b1	938880893	1	main_slash	7	main_slash	89	stimuli_distractor_trianglediamonds.svg	stimuli_distractor_diamondtriangles.svg	36	no	0	1	2000
6.6.1	win	2022-12-14	23:38:05	23:43:28	319419	631bb11a022ba038ef69e7b1	938880893	1	main_slash	7	advance_on_keypress_SLASH	90	stimuli_distractor_trianglediamonds.svg	stimuli_distractor_diamondtriangles.svg	36	no	57	0	517
6.6.1	win	2022-12-14	23:38:05	23:43:29	321078	631bb11a022ba038ef69e7b1	938880893	1	main_slash	7	main_slash	91	stimuli_distractor_trianglediamonds.svg	stimuli_target_circletriangles.svg	9	yes	53	1	493
6.6.1	win	2022-12-14	23:38:05	23:43:29	321078	631bb11a022ba038ef69e7b1	938880893	1	main_slash	7	advance_on_keypress_SLASH	92	stimuli_distractor_trianglediamonds.svg	stimuli_target_circletriangles.svg	9	yes	57	0	249
6.6.1	win	2022-12-14	23:38:05	23:43:31	322549	631bb11a022ba038ef69e7b1	938880893	1	main_slash	7	main_slash	93	stimuli_distractor_trianglediamonds.svg	stimuli_target_diamondsquares.svg	28	yes	53	1	580
6.6.1	win	2022-12-14	23:38:05	23:43:31	322549	631bb11a022ba038ef69e7b1	938880893	1	main_slash	7	advance_on_keypress_SLASH	94	stimuli_distractor_trianglediamonds.svg	stimuli_target_diamondsquares.svg	28	yes	57	0	364
6.6.1	win	2022-12-14	23:38:05	23:43:33	324525	631bb11a022ba038ef69e7b1	938880893	1	main_slash	7	main_slash	95	stimuli_distractor_diamondtriangles.svg	stimuli_target_squarediamonds.svg	16	yes	53	1	956
6.6.1	win	2022-12-14	23:38:05	23:43:33	324525	631bb11a022ba038ef69e7b1	938880893	1	main_slash	7	advance_on_keypress_SLASH	96	stimuli_distractor_diamondtriangles.svg	stimuli_target_squarediamonds.svg	16	yes	57	0	298
6.6.1	win	2022-12-14	23:38:05	23:43:34	326105	631bb11a022ba038ef69e7b1	938880893	1	main_slash	7	main_slash	97	stimuli_distractor_trianglediamonds.svg	stimuli_target_trianglesquares.svg	26	yes	53	1	638
6.6.1	win	2022-12-14	23:38:05	23:43:34	326105	631bb11a022ba038ef69e7b1	938880893	1	main_slash	7	advance_on_keypress_SLASH	98	stimuli_distractor_trianglediamonds.svg	stimuli_target_trianglesquares.svg	26	yes	57	0	317
6.6.1	win	2022-12-14	23:38:05	23:43:36	327784	631bb11a022ba038ef69e7b1	938880893	1	main_slash	7	main_slash	99	stimuli_distractor_trianglediamonds.svg	stimuli_target_squarediamonds.svg	12	yes	53	1	715
6.6.1	win	2022-12-14	23:38:05	23:43:36	327784	631bb11a022ba038ef69e7b1	938880893	1	main_slash	7	advance_on_keypress_SLASH	100	stimuli_distractor_trianglediamonds.svg	stimuli_target_squarediamonds.svg	12	yes	57	0	280
6.6.1	win	2022-12-14	23:38:05	23:43:38	329452	631bb11a022ba038ef69e7b1	938880893	1	main_slash	7	main_slash	101	stimuli_target_diamondsquares.svg	stimuli_distractor_trianglediamonds.svg	20	yes	53	1	733
6.6.1	win	2022-12-14	23:38:05	23:43:38	329452	631bb11a022ba038ef69e7b1	938880893	1	main_slash	7	advance_on_keypress_SLASH	102	stimuli_target_diamondsquares.svg	stimuli_distractor_trianglediamonds.svg	20	yes	57	0	637
6.6.1	win	2022-12-14	23:38:05	23:43:40	331371	631bb11a022ba038ef69e7b1	938880893	1	main_slash	7	main_slash	103	stimuli_target_circlediamonds.svg	stimuli_distractor_diamondtriangles.svg	6	yes	53	1	636
6.6.1	win	2022-12-14	23:38:05	23:43:40	331371	631bb11a022ba038ef69e7b1	938880893	1	main_slash	7	advance_on_keypress_SLASH	104	stimuli_target_circlediamonds.svg	stimuli_distractor_diamondtriangles.svg	6	yes	57	0	274
6.6.1	win	2022-12-14	23:38:05	23:43:41	332888	631bb11a022ba038ef69e7b1	938880893	1	main_slash	7	main_slash	105	stimuli_distractor_diamondtriangles.svg	stimuli_target_diamondsquares.svg	32	yes	53	1	603
6.6.1	win	2022-12-14	23:38:05	23:43:41	332888	631bb11a022ba038ef69e7b1	938880893	1	main_slash	7	advance_on_keypress_SLASH	106	stimuli_distractor_diamondtriangles.svg	stimuli_target_diamondsquares.svg	32	yes	57	0	207
6.6.1	win	2022-12-14	23:38:05	23:43:43	334388	631bb11a022ba038ef69e7b1	938880893	1	main_slash	7	main_slash	107	stimuli_distractor_trianglediamonds.svg	stimuli_target_circlediamonds.svg	10	yes	53	1	653
6.6.1	win	2022-12-14	23:38:05	23:43:43	334388	631bb11a022ba038ef69e7b1	938880893	1	main_slash	7	advance_on_keypress_SLASH	108	stimuli_distractor_trianglediamonds.svg	stimuli_target_circlediamonds.svg	10	yes	57	0	233
6.6.1	win	2022-12-14	23:38:05	23:43:44	335913	631bb11a022ba038ef69e7b1	938880893	1	main_slash	7	main_slash	109	stimuli_distractor_diamondtriangles.svg	stimuli_target_trianglecircles.svg	29	yes	53	1	645
6.6.1	win	2022-12-14	23:38:05	23:43:44	335913	631bb11a022ba038ef69e7b1	938880893	1	main_slash	7	advance_on_keypress_SLASH	110	stimuli_distractor_diamondtriangles.svg	stimuli_target_trianglecircles.svg	29	yes	57	0	285
6.6.1	win	2022-12-14	23:38:05	23:43:46	337470	631bb11a022ba038ef69e7b1	938880893	1	main_slash	7	main_slash	111	stimuli_target_squarediamonds.svg	stimuli_distractor_trianglediamonds.svg	4	yes	53	1	619
6.6.1	win	2022-12-14	23:38:05	23:43:46	337470	631bb11a022ba038ef69e7b1	938880893	1	main_slash	7	advance_on_keypress_SLASH	112	stimuli_target_squarediamonds.svg	stimuli_distractor_trianglediamonds.svg	4	yes	57	0	296
6.6.1	win	2022-12-14	23:38:05	23:43:49	340418	631bb11a022ba038ef69e7b1	938880893	1	main_slash	7	main_slash	113	stimuli_distractor_trianglediamonds.svg	stimuli_distractor_diamondtriangles.svg	35	no	0	1	2000
6.6.1	win	2022-12-14	23:38:05	23:43:49	340418	631bb11a022ba038ef69e7b1	938880893	1	main_slash	7	advance_on_keypress_SLASH	114	stimuli_distractor_trianglediamonds.svg	stimuli_distractor_diamondtriangles.svg	35	no	57	0	453
6.6.1	win	2022-12-14	23:38:05	23:43:50	342121	631bb11a022ba038ef69e7b1	938880893	1	main_slash	7	main_slash	115	stimuli_distractor_trianglediamonds.svg	stimuli_target_squaretriangles.svg	11	yes	53	1	604
6.6.1	win	2022-12-14	23:38:05	23:43:50	342121	631bb11a022ba038ef69e7b1	938880893	1	main_slash	7	advance_on_keypress_SLASH	116	stimuli_distractor_trianglediamonds.svg	stimuli_target_squaretriangles.svg	11	yes	57	0	215
6.6.1	win	2022-12-14	23:38:05	23:43:52	343619	631bb11a022ba038ef69e7b1	938880893	1	main_slash	7	main_slash	117	stimuli_distractor_diamondtriangles.svg	stimuli_target_trianglesquares.svg	30	yes	53	1	635
6.6.1	win	2022-12-14	23:38:05	23:43:52	343619	631bb11a022ba038ef69e7b1	938880893	1	main_slash	7	advance_on_keypress_SLASH	118	stimuli_distractor_diamondtriangles.svg	stimuli_target_trianglesquares.svg	30	yes	57	0	289
6.6.1	win	2022-12-14	23:38:05	23:43:54	345536	631bb11a022ba038ef69e7b1	938880893	1	main_slash	7	main_slash	119	stimuli_target_squaretriangles.svg	stimuli_distractor_trianglediamonds.svg	3	yes	53	1	985
6.6.1	win	2022-12-14	23:38:05	23:43:54	345536	631bb11a022ba038ef69e7b1	938880893	1	main_slash	7	advance_on_keypress_SLASH	120	stimuli_target_squaretriangles.svg	stimuli_distractor_trianglediamonds.svg	3	yes	57	0	241
6.6.1	win	2022-12-14	23:38:05	23:43:57	348417	631bb11a022ba038ef69e7b1	938880893	1	main_slash	7	main_slash	121	stimuli_distractor_diamondtriangles.svg	stimuli_distractor_diamondtriangles.svg	40	no	0	1	2000
6.6.1	win	2022-12-14	23:38:05	23:43:57	348417	631bb11a022ba038ef69e7b1	938880893	1	main_slash	7	advance_on_keypress_SLASH	122	stimuli_distractor_diamondtriangles.svg	stimuli_distractor_diamondtriangles.svg	40	no	57	0	398
6.6.1	win	2022-12-14	23:38:05	23:43:58	350055	631bb11a022ba038ef69e7b1	938880893	1	main_slash	7	main_slash	123	stimuli_distractor_trianglediamonds.svg	stimuli_target_diamondcircles.svg	27	yes	53	1	588
6.6.1	win	2022-12-14	23:38:05	23:43:58	350055	631bb11a022ba038ef69e7b1	938880893	1	main_slash	7	advance_on_keypress_SLASH	124	stimuli_distractor_trianglediamonds.svg	stimuli_target_diamondcircles.svg	27	yes	57	0	247
6.6.1	win	2022-12-14	23:38:05	23:44:00	351497	631bb11a022ba038ef69e7b1	938880893	1	main_slash	7	main_slash	125	stimuli_distractor_diamondtriangles.svg	stimuli_target_diamondcircles.svg	31	yes	53	1	546
6.6.1	win	2022-12-14	23:38:05	23:44:00	351497	631bb11a022ba038ef69e7b1	938880893	1	main_slash	7	advance_on_keypress_SLASH	126	stimuli_distractor_diamondtriangles.svg	stimuli_target_diamondcircles.svg	31	yes	57	0	254
6.6.1	win	2022-12-14	23:38:05	23:44:01	352986	631bb11a022ba038ef69e7b1	938880893	1	main_slash	7	main_slash	127	stimuli_target_diamondcircles.svg	stimuli_distractor_diamondtriangles.svg	23	yes	53	1	586
6.6.1	win	2022-12-14	23:38:05	23:44:01	352986	631bb11a022ba038ef69e7b1	938880893	1	main_slash	7	advance_on_keypress_SLASH	128	stimuli_target_diamondcircles.svg	stimuli_distractor_diamondtriangles.svg	23	yes	57	0	222
6.6.1	win	2022-12-14	23:38:05	23:44:03	354872	631bb11a022ba038ef69e7b1	938880893	1	main_slash	7	main_slash	129	stimuli_target_trianglecircles.svg	stimuli_distractor_trianglediamonds.svg	17	yes	53	1	1022
6.6.1	win	2022-12-14	23:38:05	23:44:03	354872	631bb11a022ba038ef69e7b1	938880893	1	main_slash	7	advance_on_keypress_SLASH	130	stimuli_target_trianglecircles.svg	stimuli_distractor_trianglediamonds.svg	17	yes	57	0	254
6.6.1	win	2022-12-14	23:38:05	23:44:05	356491	631bb11a022ba038ef69e7b1	938880893	1	main_slash	7	main_slash	131	stimuli_target_diamondcircles.svg	stimuli_distractor_trianglediamonds.svg	19	yes	53	1	721
6.6.1	win	2022-12-14	23:38:05	23:44:05	356491	631bb11a022ba038ef69e7b1	938880893	1	main_slash	7	advance_on_keypress_SLASH	132	stimuli_target_diamondcircles.svg	stimuli_distractor_trianglediamonds.svg	19	yes	57	0	221
6.6.1	win	2022-12-14	23:38:05	23:44:08	359350	631bb11a022ba038ef69e7b1	938880893	1	main_slash	7	main_slash	133	stimuli_distractor_diamondtriangles.svg	stimuli_distractor_trianglediamonds.svg	37	no	0	1	2000
6.6.1	win	2022-12-14	23:38:05	23:44:08	359350	631bb11a022ba038ef69e7b1	938880893	1	main_slash	7	advance_on_keypress_SLASH	134	stimuli_distractor_diamondtriangles.svg	stimuli_distractor_trianglediamonds.svg	37	no	57	0	536
6.6.1	win	2022-12-14	23:38:05	23:44:09	361092	631bb11a022ba038ef69e7b1	938880893	1	main_slash	7	main_slash	135	stimuli_distractor_diamondtriangles.svg	stimuli_target_circlediamonds.svg	14	yes	53	1	559
6.6.1	win	2022-12-14	23:38:05	23:44:09	361092	631bb11a022ba038ef69e7b1	938880893	1	main_slash	7	advance_on_keypress_SLASH	136	stimuli_distractor_diamondtriangles.svg	stimuli_target_circlediamonds.svg	14	yes	57	0	189
6.6.1	win	2022-12-14	23:38:05	23:44:12	363917	631bb11a022ba038ef69e7b1	938880893	1	main_slash	7	main_slash	137	stimuli_distractor_diamondtriangles.svg	stimuli_distractor_diamondtriangles.svg	39	no	0	1	2000
6.6.1	win	2022-12-14	23:38:05	23:44:12	363917	631bb11a022ba038ef69e7b1	938880893	1	main_slash	7	advance_on_keypress_SLASH	138	stimuli_distractor_diamondtriangles.svg	stimuli_distractor_diamondtriangles.svg	39	no	57	0	373
6.6.1	win	2022-12-14	23:38:05	23:44:14	365531	631bb11a022ba038ef69e7b1	938880893	1	main_slash	7	main_slash	139	stimuli_distractor_trianglediamonds.svg	stimuli_target_trianglecircles.svg	25	yes	53	1	598
6.6.1	win	2022-12-14	23:38:05	23:44:14	365531	631bb11a022ba038ef69e7b1	938880893	1	main_slash	7	advance_on_keypress_SLASH	140	stimuli_distractor_trianglediamonds.svg	stimuli_target_trianglecircles.svg	25	yes	57	0	221
6.6.1	win	2022-12-14	23:38:05	23:44:15	366823	631bb11a022ba038ef69e7b1	938880893	1	main_slash	7	main_slash	141	stimuli_target_trianglesquares.svg	stimuli_distractor_diamondtriangles.svg	22	yes	53	1	423
6.6.1	win	2022-12-14	23:38:05	23:44:15	366823	631bb11a022ba038ef69e7b1	938880893	1	main_slash	7	advance_on_keypress_SLASH	142	stimuli_target_trianglesquares.svg	stimuli_distractor_diamondtriangles.svg	22	yes	57	0	270
6.6.1	win	2022-12-14	23:38:05	23:44:18	369733	631bb11a022ba038ef69e7b1	938880893	1	main_slash	7	main_slash	143	stimuli_distractor_diamondtriangles.svg	stimuli_distractor_trianglediamonds.svg	38	no	0	1	2000
6.6.1	win	2022-12-14	23:38:05	23:44:18	369733	631bb11a022ba038ef69e7b1	938880893	1	main_slash	7	advance_on_keypress_SLASH	144	stimuli_distractor_diamondtriangles.svg	stimuli_distractor_trianglediamonds.svg	38	no	57	0	370
6.6.1	win	2022-12-14	23:38:05	23:44:21	372750	631bb11a022ba038ef69e7b1	938880893	1	main_slash	7	main_slash	145	stimuli_distractor_trianglediamonds.svg	stimuli_distractor_trianglediamonds.svg	33	no	0	1	2000
6.6.1	win	2022-12-14	23:38:05	23:44:21	372750	631bb11a022ba038ef69e7b1	938880893	1	main_slash	7	advance_on_keypress_SLASH	146	stimuli_distractor_trianglediamonds.svg	stimuli_distractor_trianglediamonds.svg	33	no	57	0	392
6.6.1	win	2022-12-14	23:38:05	23:44:23	374436	631bb11a022ba038ef69e7b1	938880893	1	main_slash	7	main_slash	147	stimuli_target_circletriangles.svg	stimuli_distractor_diamondtriangles.svg	5	yes	53	1	653
6.6.1	win	2022-12-14	23:38:05	23:44:23	374436	631bb11a022ba038ef69e7b1	938880893	1	main_slash	7	advance_on_keypress_SLASH	148	stimuli_target_circletriangles.svg	stimuli_distractor_diamondtriangles.svg	5	yes	57	0	177
6.6.1	win	2022-12-14	23:38:05	23:44:24	375669	631bb11a022ba038ef69e7b1	938880893	1	main_slash	7	main_slash	149	stimuli_target_trianglesquares.svg	stimuli_distractor_trianglediamonds.svg	18	yes	53	1	421
6.6.1	win	2022-12-14	23:38:05	23:44:24	375669	631bb11a022ba038ef69e7b1	938880893	1	main_slash	7	advance_on_keypress_SLASH	150	stimuli_target_trianglesquares.svg	stimuli_distractor_trianglediamonds.svg	18	yes	57	0	241
6.6.1	win	2022-12-14	23:38:05	23:44:25	376986	631bb11a022ba038ef69e7b1	938880893	1	main_slash	7	main_slash	151	stimuli_distractor_diamondtriangles.svg	stimuli_target_squaretriangles.svg	15	yes	53	1	437
6.6.1	win	2022-12-14	23:38:05	23:44:25	376986	631bb11a022ba038ef69e7b1	938880893	1	main_slash	7	advance_on_keypress_SLASH	152	stimuli_distractor_diamondtriangles.svg	stimuli_target_squaretriangles.svg	15	yes	57	0	249
6.6.1	win	2022-12-14	23:38:05	23:44:27	378279	631bb11a022ba038ef69e7b1	938880893	1	main_slash	7	main_slash	153	stimuli_distractor_diamondtriangles.svg	stimuli_target_circletriangles.svg	13	yes	53	1	397
6.6.1	win	2022-12-14	23:38:05	23:44:27	378279	631bb11a022ba038ef69e7b1	938880893	1	main_slash	7	advance_on_keypress_SLASH	154	stimuli_distractor_diamondtriangles.svg	stimuli_target_circletriangles.svg	13	yes	57	0	320
6.6.1	win	2022-12-14	23:38:05	23:44:30	381249	631bb11a022ba038ef69e7b1	938880893	1	main_slash	7	main_slash	155	stimuli_distractor_trianglediamonds.svg	stimuli_distractor_trianglediamonds.svg	34	no	0	1	2000
6.6.1	win	2022-12-14	23:38:05	23:44:30	381249	631bb11a022ba038ef69e7b1	938880893	1	main_slash	7	advance_on_keypress_SLASH	156	stimuli_distractor_trianglediamonds.svg	stimuli_distractor_trianglediamonds.svg	34	no	57	0	365
6.6.1	win	2022-12-14	23:38:05	23:44:31	382679	631bb11a022ba038ef69e7b1	938880893	1	main_slash	7	main_slash	157	stimuli_target_circletriangles.svg	stimuli_distractor_trianglediamonds.svg	1	yes	53	1	413
6.6.1	win	2022-12-14	23:38:05	23:44:31	382679	631bb11a022ba038ef69e7b1	938880893	1	main_slash	7	advance_on_keypress_SLASH	158	stimuli_target_circletriangles.svg	stimuli_distractor_trianglediamonds.svg	1	yes	57	0	222
6.6.1	win	2022-12-14	23:38:05	23:44:32	383996	631bb11a022ba038ef69e7b1	938880893	1	main_slash	7	main_slash	159	stimuli_target_squarediamonds.svg	stimuli_distractor_diamondtriangles.svg	8	yes	53	1	447
6.6.1	win	2022-12-14	23:38:05	23:44:32	383996	631bb11a022ba038ef69e7b1	938880893	1	main_slash	7	advance_on_keypress_SLASH	160	stimuli_target_squarediamonds.svg	stimuli_distractor_diamondtriangles.svg	8	yes	57	0	185
6.6.1	win	2022-12-14	23:38:05	23:44:59	410984	631bb11a022ba038ef69e7b1	938880893	1	practice_z	9	practice_z	1	stimuli_distractor_trianglediamonds.svg	stimuli_distractor_diamondtriangles.svg	16	no	44	0	966
6.6.1	win	2022-12-14	23:38:05	23:44:59	410984	631bb11a022ba038ef69e7b1	938880893	1	practice_z	9	advance_on_keypress_ZEE	2	stimuli_distractor_trianglediamonds.svg	stimuli_distractor_diamondtriangles.svg	16	no	57	0	476
6.6.1	win	2022-12-14	23:38:05	23:45:02	413614	631bb11a022ba038ef69e7b1	938880893	1	practice_z	9	practice_z	3	stimuli_distractor_diamondtriangles.svg	stimuli_target_diamondcircles.svg	8	yes	44	1	497
6.6.1	win	2022-12-14	23:38:05	23:45:02	413614	631bb11a022ba038ef69e7b1	938880893	1	practice_z	9	advance_on_keypress_ZEE	4	stimuli_distractor_diamondtriangles.svg	stimuli_target_diamondcircles.svg	8	yes	57	0	325
6.6.1	win	2022-12-14	23:38:05	23:45:04	416155	631bb11a022ba038ef69e7b1	938880893	1	practice_z	9	practice_z	5	stimuli_target_circlediamonds.svg	stimuli_distractor_trianglediamonds.svg	4	yes	44	1	571
6.6.1	win	2022-12-14	23:38:05	23:45:04	416155	631bb11a022ba038ef69e7b1	938880893	1	practice_z	9	advance_on_keypress_ZEE	6	stimuli_target_circlediamonds.svg	stimuli_distractor_trianglediamonds.svg	4	yes	57	0	276
6.6.1	win	2022-12-14	23:38:05	23:45:08	420067	631bb11a022ba038ef69e7b1	938880893	1	practice_z	9	practice_z	7	stimuli_distractor_diamondtriangles.svg	stimuli_distractor_trianglediamonds.svg	14	no	0	1	2000
6.6.1	win	2022-12-14	23:38:05	23:45:08	420067	631bb11a022ba038ef69e7b1	938880893	1	practice_z	9	advance_on_keypress_ZEE	8	stimuli_distractor_diamondtriangles.svg	stimuli_distractor_trianglediamonds.svg	14	no	57	0	285
6.6.1	win	2022-12-14	23:38:05	23:45:12	424000	631bb11a022ba038ef69e7b1	938880893	1	practice_z	9	practice_z	9	stimuli_distractor_diamondtriangles.svg	stimuli_distractor_diamondtriangles.svg	13	no	0	1	2000
6.6.1	win	2022-12-14	23:38:05	23:45:12	424000	631bb11a022ba038ef69e7b1	938880893	1	practice_z	9	advance_on_keypress_ZEE	10	stimuli_distractor_diamondtriangles.svg	stimuli_distractor_diamondtriangles.svg	13	no	57	0	314
6.6.1	win	2022-12-14	23:38:05	23:45:15	426481	631bb11a022ba038ef69e7b1	938880893	1	practice_z	9	practice_z	11	stimuli_distractor_trianglediamonds.svg	stimuli_target_circlediamonds.svg	10	yes	44	1	512
6.6.1	win	2022-12-14	23:38:05	23:45:15	426481	631bb11a022ba038ef69e7b1	938880893	1	practice_z	9	advance_on_keypress_ZEE	12	stimuli_distractor_trianglediamonds.svg	stimuli_target_circlediamonds.svg	10	yes	57	0	429
6.6.1	win	2022-12-14	23:38:05	23:45:17	429025	631bb11a022ba038ef69e7b1	938880893	1	practice_z	9	practice_z	13	stimuli_distractor_trianglediamonds.svg	stimuli_target_squarediamonds.svg	11	yes	44	1	459
6.6.1	win	2022-12-14	23:38:05	23:45:17	429025	631bb11a022ba038ef69e7b1	938880893	1	practice_z	9	advance_on_keypress_ZEE	14	stimuli_distractor_trianglediamonds.svg	stimuli_target_squarediamonds.svg	11	yes	57	0	371
6.6.1	win	2022-12-14	23:38:05	23:45:20	431527	631bb11a022ba038ef69e7b1	938880893	1	practice_z	9	practice_z	15	stimuli_target_squarediamonds.svg	stimuli_distractor_diamondtriangles.svg	2	yes	44	1	477
6.6.1	win	2022-12-14	23:38:05	23:45:20	431527	631bb11a022ba038ef69e7b1	938880893	1	practice_z	9	advance_on_keypress_ZEE	16	stimuli_target_squarediamonds.svg	stimuli_distractor_diamondtriangles.svg	2	yes	57	0	277
6.6.1	win	2022-12-14	23:38:05	23:45:22	433783	631bb11a022ba038ef69e7b1	938880893	1	practice_z	9	practice_z	17	stimuli_distractor_trianglediamonds.svg	stimuli_target_diamondcircles.svg	12	yes	44	1	317
6.6.1	win	2022-12-14	23:38:05	23:45:22	433783	631bb11a022ba038ef69e7b1	938880893	1	practice_z	9	advance_on_keypress_ZEE	18	stimuli_distractor_trianglediamonds.svg	stimuli_target_diamondcircles.svg	12	yes	57	0	265
6.6.1	win	2022-12-14	23:38:05	23:45:26	437701	631bb11a022ba038ef69e7b1	938880893	1	practice_z	9	practice_z	19	stimuli_distractor_trianglediamonds.svg	stimuli_distractor_trianglediamonds.svg	15	no	0	1	2000
6.6.1	win	2022-12-14	23:38:05	23:45:26	437701	631bb11a022ba038ef69e7b1	938880893	1	practice_z	9	advance_on_keypress_ZEE	20	stimuli_distractor_trianglediamonds.svg	stimuli_distractor_trianglediamonds.svg	15	no	57	0	409
6.6.1	win	2022-12-14	23:38:05	23:45:28	440146	631bb11a022ba038ef69e7b1	938880893	1	practice_z	9	practice_z	21	stimuli_target_diamondsquares.svg	stimuli_distractor_trianglediamonds.svg	6	yes	44	1	397
6.6.1	win	2022-12-14	23:38:05	23:45:28	440146	631bb11a022ba038ef69e7b1	938880893	1	practice_z	9	advance_on_keypress_ZEE	22	stimuli_target_diamondsquares.svg	stimuli_distractor_trianglediamonds.svg	6	yes	57	0	246
6.6.1	win	2022-12-14	23:38:05	23:45:31	442432	631bb11a022ba038ef69e7b1	938880893	1	practice_z	9	practice_z	23	stimuli_target_diamondsquares.svg	stimuli_distractor_diamondtriangles.svg	3	yes	44	1	382
6.6.1	win	2022-12-14	23:38:05	23:45:31	442432	631bb11a022ba038ef69e7b1	938880893	1	practice_z	9	advance_on_keypress_ZEE	24	stimuli_target_diamondsquares.svg	stimuli_distractor_diamondtriangles.svg	3	yes	57	0	267
6.6.1	win	2022-12-14	23:38:05	23:45:33	444760	631bb11a022ba038ef69e7b1	938880893	1	practice_z	9	practice_z	25	stimuli_target_circlediamonds.svg	stimuli_distractor_diamondtriangles.svg	1	yes	44	1	411
6.6.1	win	2022-12-14	23:38:05	23:45:33	444760	631bb11a022ba038ef69e7b1	938880893	1	practice_z	9	advance_on_keypress_ZEE	26	stimuli_target_circlediamonds.svg	stimuli_distractor_diamondtriangles.svg	1	yes	57	0	274
6.6.1	win	2022-12-14	23:38:05	23:45:35	447091	631bb11a022ba038ef69e7b1	938880893	1	practice_z	9	practice_z	27	stimuli_target_squarediamonds.svg	stimuli_distractor_trianglediamonds.svg	5	yes	44	1	409
6.6.1	win	2022-12-14	23:38:05	23:45:35	447091	631bb11a022ba038ef69e7b1	938880893	1	practice_z	9	advance_on_keypress_ZEE	28	stimuli_target_squarediamonds.svg	stimuli_distractor_trianglediamonds.svg	5	yes	57	0	271
6.6.1	win	2022-12-14	23:38:05	23:45:38	449499	631bb11a022ba038ef69e7b1	938880893	1	practice_z	9	practice_z	29	stimuli_distractor_diamondtriangles.svg	stimuli_target_trianglecircles.svg	9	yes	44	1	485
6.6.1	win	2022-12-14	23:38:05	23:45:38	449499	631bb11a022ba038ef69e7b1	938880893	1	practice_z	9	advance_on_keypress_ZEE	30	stimuli_distractor_diamondtriangles.svg	stimuli_target_trianglecircles.svg	9	yes	57	0	328
6.6.1	win	2022-12-14	23:38:05	23:45:40	451903	631bb11a022ba038ef69e7b1	938880893	1	practice_z	9	practice_z	31	stimuli_distractor_diamondtriangles.svg	stimuli_target_circletriangles.svg	7	yes	44	1	421
6.6.1	win	2022-12-14	23:38:05	23:45:40	451903	631bb11a022ba038ef69e7b1	938880893	1	practice_z	9	advance_on_keypress_ZEE	32	stimuli_distractor_diamondtriangles.svg	stimuli_target_circletriangles.svg	7	yes	57	0	346
6.6.1	win	2022-12-14	23:38:05	23:45:47	459096	631bb11a022ba038ef69e7b1	938880893	1	main_z	11	main_z	1	stimuli_distractor_diamondtriangles.svg	stimuli_distractor_trianglediamonds.svg	38	no	0	1	2000
6.6.1	win	2022-12-14	23:38:05	23:45:47	459096	631bb11a022ba038ef69e7b1	938880893	1	main_z	11	advance_on_keypress_ZEE	2	stimuli_distractor_diamondtriangles.svg	stimuli_distractor_trianglediamonds.svg	38	no	57	0	449
6.6.1	win	2022-12-14	23:38:05	23:45:49	460617	631bb11a022ba038ef69e7b1	938880893	1	main_z	11	main_z	3	stimuli_target_diamondcircles.svg	stimuli_distractor_diamondtriangles.svg	23	yes	44	1	422
6.6.1	win	2022-12-14	23:38:05	23:45:49	460617	631bb11a022ba038ef69e7b1	938880893	1	main_z	11	advance_on_keypress_ZEE	4	stimuli_target_diamondcircles.svg	stimuli_distractor_diamondtriangles.svg	23	yes	57	0	382
6.6.1	win	2022-12-14	23:38:05	23:45:50	462032	631bb11a022ba038ef69e7b1	938880893	1	main_z	11	main_z	5	stimuli_target_circletriangles.svg	stimuli_distractor_trianglediamonds.svg	1	yes	44	1	387
6.6.1	win	2022-12-14	23:38:05	23:45:50	462032	631bb11a022ba038ef69e7b1	938880893	1	main_z	11	advance_on_keypress_ZEE	6	stimuli_target_circletriangles.svg	stimuli_distractor_trianglediamonds.svg	1	yes	57	0	408
6.6.1	win	2022-12-14	23:38:05	23:45:52	463483	631bb11a022ba038ef69e7b1	938880893	1	main_z	11	main_z	7	stimuli_distractor_trianglediamonds.svg	stimuli_distractor_diamondtriangles.svg	36	no	44	0	404
6.6.1	win	2022-12-14	23:38:05	23:45:52	463483	631bb11a022ba038ef69e7b1	938880893	1	main_z	11	advance_on_keypress_ZEE	8	stimuli_distractor_trianglediamonds.svg	stimuli_distractor_diamondtriangles.svg	36	no	57	0	1026
6.6.1	win	2022-12-14	23:38:05	23:45:54	465564	631bb11a022ba038ef69e7b1	938880893	1	main_z	11	main_z	9	stimuli_distractor_trianglediamonds.svg	stimuli_target_trianglesquares.svg	26	yes	44	1	419
6.6.1	win	2022-12-14	23:38:05	23:45:54	465564	631bb11a022ba038ef69e7b1	938880893	1	main_z	11	advance_on_keypress_ZEE	10	stimuli_distractor_trianglediamonds.svg	stimuli_target_trianglesquares.svg	26	yes	57	0	548
6.6.1	win	2022-12-14	23:38:05	23:45:56	467234	631bb11a022ba038ef69e7b1	938880893	1	main_z	11	main_z	11	stimuli_distractor_diamondtriangles.svg	stimuli_target_diamondsquares.svg	32	yes	44	1	472
6.6.1	win	2022-12-14	23:38:05	23:45:56	467234	631bb11a022ba038ef69e7b1	938880893	1	main_z	11	advance_on_keypress_ZEE	12	stimuli_distractor_diamondtriangles.svg	stimuli_target_diamondsquares.svg	32	yes	57	0	366
6.6.1	win	2022-12-14	23:38:05	23:45:59	470245	631bb11a022ba038ef69e7b1	938880893	1	main_z	11	main_z	13	stimuli_distractor_diamondtriangles.svg	stimuli_distractor_diamondtriangles.svg	39	no	0	1	2000
6.6.1	win	2022-12-14	23:38:05	23:45:59	470245	631bb11a022ba038ef69e7b1	938880893	1	main_z	11	advance_on_keypress_ZEE	14	stimuli_distractor_diamondtriangles.svg	stimuli_distractor_diamondtriangles.svg	39	no	57	0	359
6.6.1	win	2022-12-14	23:38:05	23:46:00	471640	631bb11a022ba038ef69e7b1	938880893	1	main_z	11	main_z	15	stimuli_distractor_trianglediamonds.svg	stimuli_distractor_diamondtriangles.svg	35	no	44	0	395
6.6.1	win	2022-12-14	23:38:05	23:46:00	471640	631bb11a022ba038ef69e7b1	938880893	1	main_z	11	advance_on_keypress_ZEE	16	stimuli_distractor_trianglediamonds.svg	stimuli_distractor_diamondtriangles.svg	35	no	57	0	1308
6.6.1	win	2022-12-14	23:38:05	23:46:02	474121	631bb11a022ba038ef69e7b1	938880893	1	main_z	11	main_z	17	stimuli_target_trianglecircles.svg	stimuli_distractor_diamondtriangles.svg	21	yes	44	1	526
6.6.1	win	2022-12-14	23:38:05	23:46:02	474121	631bb11a022ba038ef69e7b1	938880893	1	main_z	11	advance_on_keypress_ZEE	18	stimuli_target_trianglecircles.svg	stimuli_distractor_diamondtriangles.svg	21	yes	57	0	391
6.6.1	win	2022-12-14	23:38:05	23:46:05	477145	631bb11a022ba038ef69e7b1	938880893	1	main_z	11	main_z	19	stimuli_distractor_diamondtriangles.svg	stimuli_distractor_trianglediamonds.svg	37	no	0	1	2000
6.6.1	win	2022-12-14	23:38:05	23:46:05	477145	631bb11a022ba038ef69e7b1	938880893	1	main_z	11	advance_on_keypress_ZEE	20	stimuli_distractor_diamondtriangles.svg	stimuli_distractor_trianglediamonds.svg	37	no	57	0	524
6.6.1	win	2022-12-14	23:38:05	23:46:07	478693	631bb11a022ba038ef69e7b1	938880893	1	main_z	11	main_z	21	stimuli_target_circlediamonds.svg	stimuli_distractor_diamondtriangles.svg	6	yes	44	1	380
6.6.1	win	2022-12-14	23:38:05	23:46:07	478693	631bb11a022ba038ef69e7b1	938880893	1	main_z	11	advance_on_keypress_ZEE	22	stimuli_target_circlediamonds.svg	stimuli_distractor_diamondtriangles.svg	6	yes	57	0	476
6.6.1	win	2022-12-14	23:38:05	23:46:09	480193	631bb11a022ba038ef69e7b1	938880893	1	main_z	11	main_z	23	stimuli_distractor_trianglediamonds.svg	stimuli_target_squarediamonds.svg	12	yes	44	1	373
6.6.1	win	2022-12-14	23:38:05	23:46:09	480193	631bb11a022ba038ef69e7b1	938880893	1	main_z	11	advance_on_keypress_ZEE	24	stimuli_distractor_trianglediamonds.svg	stimuli_target_squarediamonds.svg	12	yes	57	0	362
6.6.1	win	2022-12-14	23:38:05	23:46:10	481636	631bb11a022ba038ef69e7b1	938880893	1	main_z	11	main_z	25	stimuli_target_diamondsquares.svg	stimuli_distractor_trianglediamonds.svg	20	yes	44	1	425
6.6.1	win	2022-12-14	23:38:05	23:46:10	481636	631bb11a022ba038ef69e7b1	938880893	1	main_z	11	advance_on_keypress_ZEE	26	stimuli_target_diamondsquares.svg	stimuli_distractor_trianglediamonds.svg	20	yes	57	0	400
6.6.1	win	2022-12-14	23:38:05	23:46:12	483233	631bb11a022ba038ef69e7b1	938880893	1	main_z	11	main_z	27	stimuli_distractor_diamondtriangles.svg	stimuli_target_trianglesquares.svg	30	yes	44	1	555
6.6.1	win	2022-12-14	23:38:05	23:46:12	483233	631bb11a022ba038ef69e7b1	938880893	1	main_z	11	advance_on_keypress_ZEE	28	stimuli_distractor_diamondtriangles.svg	stimuli_target_trianglesquares.svg	30	yes	57	0	324
6.6.1	win	2022-12-14	23:38:05	23:46:13	484576	631bb11a022ba038ef69e7b1	938880893	1	main_z	11	main_z	29	stimuli_target_trianglesquares.svg	stimuli_distractor_trianglediamonds.svg	18	yes	44	1	371
6.6.1	win	2022-12-14	23:38:05	23:46:13	484576	631bb11a022ba038ef69e7b1	938880893	1	main_z	11	advance_on_keypress_ZEE	30	stimuli_target_trianglesquares.svg	stimuli_distractor_trianglediamonds.svg	18	yes	57	0	503
6.6.1	win	2022-12-14	23:38:05	23:46:15	486204	631bb11a022ba038ef69e7b1	938880893	1	main_z	11	main_z	31	stimuli_distractor_diamondtriangles.svg	stimuli_target_circlediamonds.svg	14	yes	44	1	476
6.6.1	win	2022-12-14	23:38:05	23:46:15	486204	631bb11a022ba038ef69e7b1	938880893	1	main_z	11	advance_on_keypress_ZEE	32	stimuli_distractor_diamondtriangles.svg	stimuli_target_circlediamonds.svg	14	yes	57	0	392
6.6.1	win	2022-12-14	23:38:05	23:46:16	487774	631bb11a022ba038ef69e7b1	938880893	1	main_z	11	main_z	33	stimuli_distractor_trianglediamonds.svg	stimuli_target_circlediamonds.svg	10	yes	44	1	547
6.6.1	win	2022-12-14	23:38:05	23:46:16	487774	631bb11a022ba038ef69e7b1	938880893	1	main_z	11	advance_on_keypress_ZEE	34	stimuli_distractor_trianglediamonds.svg	stimuli_target_circlediamonds.svg	10	yes	57	0	788
6.6.1	win	2022-12-14	23:38:05	23:46:18	489623	631bb11a022ba038ef69e7b1	938880893	1	main_z	11	main_z	35	stimuli_target_circletriangles.svg	stimuli_distractor_diamondtriangles.svg	5	yes	44	1	412
6.6.1	win	2022-12-14	23:38:05	23:46:18	489623	631bb11a022ba038ef69e7b1	938880893	1	main_z	11	advance_on_keypress_ZEE	36	stimuli_target_circletriangles.svg	stimuli_distractor_diamondtriangles.svg	5	yes	57	0	401
6.6.1	win	2022-12-14	23:38:05	23:46:21	492677	631bb11a022ba038ef69e7b1	938880893	1	main_z	11	main_z	37	stimuli_distractor_diamondtriangles.svg	stimuli_distractor_diamondtriangles.svg	40	no	0	1	2000
6.6.1	win	2022-12-14	23:38:05	23:46:21	492677	631bb11a022ba038ef69e7b1	938880893	1	main_z	11	advance_on_keypress_ZEE	38	stimuli_distractor_diamondtriangles.svg	stimuli_distractor_diamondtriangles.svg	40	no	57	0	427
6.6.1	win	2022-12-14	23:38:05	23:46:22	494172	631bb11a022ba038ef69e7b1	938880893	1	main_z	11	main_z	39	stimuli_distractor_diamondtriangles.svg	stimuli_target_trianglecircles.svg	29	yes	44	1	428
6.6.1	win	2022-12-14	23:38:05	23:46:22	494172	631bb11a022ba038ef69e7b1	938880893	1	main_z	11	advance_on_keypress_ZEE	40	stimuli_distractor_diamondtriangles.svg	stimuli_target_trianglecircles.svg	29	yes	57	0	357
6.6.1	win	2022-12-14	23:38:05	23:46:25	497177	631bb11a022ba038ef69e7b1	938880893	1	main_z	11	main_z	41	stimuli_distractor_trianglediamonds.svg	stimuli_distractor_trianglediamonds.svg	33	no	0	1	2000
6.6.1	win	2022-12-14	23:38:05	23:46:25	497177	631bb11a022ba038ef69e7b1	938880893	1	main_z	11	advance_on_keypress_ZEE	42	stimuli_distractor_trianglediamonds.svg	stimuli_distractor_trianglediamonds.svg	33	no	57	0	411
6.6.1	win	2022-12-14	23:38:05	23:46:27	498696	631bb11a022ba038ef69e7b1	938880893	1	main_z	11	main_z	43	stimuli_target_trianglesquares.svg	stimuli_distractor_diamondtriangles.svg	22	yes	44	1	451
6.6.1	win	2022-12-14	23:38:05	23:46:27	498696	631bb11a022ba038ef69e7b1	938880893	1	main_z	11	advance_on_keypress_ZEE	44	stimuli_target_trianglesquares.svg	stimuli_distractor_diamondtriangles.svg	22	yes	57	0	369
6.6.1	win	2022-12-14	23:38:05	23:46:29	500195	631bb11a022ba038ef69e7b1	938880893	1	main_z	11	main_z	45	stimuli_distractor_trianglediamonds.svg	stimuli_target_trianglecircles.svg	25	yes	44	1	484
6.6.1	win	2022-12-14	23:38:05	23:46:29	500195	631bb11a022ba038ef69e7b1	938880893	1	main_z	11	advance_on_keypress_ZEE	46	stimuli_distractor_trianglediamonds.svg	stimuli_target_trianglecircles.svg	25	yes	57	0	332
6.6.1	win	2022-12-14	23:38:05	23:46:30	501576	631bb11a022ba038ef69e7b1	938880893	1	main_z	11	main_z	47	stimuli_target_squaretriangles.svg	stimuli_distractor_diamondtriangles.svg	7	yes	44	1	398
6.6.1	win	2022-12-14	23:38:05	23:46:30	501576	631bb11a022ba038ef69e7b1	938880893	1	main_z	11	advance_on_keypress_ZEE	48	stimuli_target_squaretriangles.svg	stimuli_distractor_diamondtriangles.svg	7	yes	57	0	361
6.6.1	win	2022-12-14	23:38:05	23:46:31	503176	631bb11a022ba038ef69e7b1	938880893	1	main_z	11	main_z	49	stimuli_target_diamondsquares.svg	stimuli_distractor_diamondtriangles.svg	24	yes	44	1	582
6.6.1	win	2022-12-14	23:38:05	23:46:31	503176	631bb11a022ba038ef69e7b1	938880893	1	main_z	11	advance_on_keypress_ZEE	50	stimuli_target_diamondsquares.svg	stimuli_distractor_diamondtriangles.svg	24	yes	57	0	337
6.6.1	win	2022-12-14	23:38:05	23:46:33	504791	631bb11a022ba038ef69e7b1	938880893	1	main_z	11	main_z	51	stimuli_distractor_diamondtriangles.svg	stimuli_target_squaretriangles.svg	15	yes	44	1	631
6.6.1	win	2022-12-14	23:38:05	23:46:33	504791	631bb11a022ba038ef69e7b1	938880893	1	main_z	11	advance_on_keypress_ZEE	52	stimuli_distractor_diamondtriangles.svg	stimuli_target_squaretriangles.svg	15	yes	57	0	292
6.6.1	win	2022-12-14	23:38:05	23:46:35	506216	631bb11a022ba038ef69e7b1	938880893	1	main_z	11	main_z	53	stimuli_distractor_diamondtriangles.svg	stimuli_target_squarediamonds.svg	16	yes	44	1	489
6.6.1	win	2022-12-14	23:38:05	23:46:35	506216	631bb11a022ba038ef69e7b1	938880893	1	main_z	11	advance_on_keypress_ZEE	54	stimuli_distractor_diamondtriangles.svg	stimuli_target_squarediamonds.svg	16	yes	57	0	317
6.6.1	win	2022-12-14	23:38:05	23:46:36	507582	631bb11a022ba038ef69e7b1	938880893	1	main_z	11	main_z	55	stimuli_distractor_trianglediamonds.svg	stimuli_target_squaretriangles.svg	11	yes	44	1	405
6.6.1	win	2022-12-14	23:38:05	23:46:36	507582	631bb11a022ba038ef69e7b1	938880893	1	main_z	11	advance_on_keypress_ZEE	56	stimuli_distractor_trianglediamonds.svg	stimuli_target_squaretriangles.svg	11	yes	57	0	299
6.6.1	win	2022-12-14	23:38:05	23:46:37	509017	631bb11a022ba038ef69e7b1	938880893	1	main_z	11	main_z	57	stimuli_distractor_trianglediamonds.svg	stimuli_target_diamondsquares.svg	28	yes	44	1	489
6.6.1	win	2022-12-14	23:38:05	23:46:37	509017	631bb11a022ba038ef69e7b1	938880893	1	main_z	11	advance_on_keypress_ZEE	58	stimuli_distractor_trianglediamonds.svg	stimuli_target_diamondsquares.svg	28	yes	57	0	297
6.6.1	win	2022-12-14	23:38:05	23:46:39	510364	631bb11a022ba038ef69e7b1	938880893	1	main_z	11	main_z	59	stimuli_target_squarediamonds.svg	stimuli_distractor_trianglediamonds.svg	4	yes	44	1	404
6.6.1	win	2022-12-14	23:38:05	23:46:39	510364	631bb11a022ba038ef69e7b1	938880893	1	main_z	11	advance_on_keypress_ZEE	60	stimuli_target_squarediamonds.svg	stimuli_distractor_trianglediamonds.svg	4	yes	57	0	293
6.6.1	win	2022-12-14	23:38:05	23:46:40	511709	631bb11a022ba038ef69e7b1	938880893	1	main_z	11	main_z	61	stimuli_distractor_diamondtriangles.svg	stimuli_target_circletriangles.svg	13	yes	44	1	416
6.6.1	win	2022-12-14	23:38:05	23:46:40	511709	631bb11a022ba038ef69e7b1	938880893	1	main_z	11	advance_on_keypress_ZEE	62	stimuli_distractor_diamondtriangles.svg	stimuli_target_circletriangles.svg	13	yes	57	0	325
6.6.1	win	2022-12-14	23:38:05	23:46:41	513026	631bb11a022ba038ef69e7b1	938880893	1	main_z	11	main_z	63	stimuli_distractor_trianglediamonds.svg	stimuli_distractor_trianglediamonds.svg	34	no	44	0	351
6.6.1	win	2022-12-14	23:38:05	23:46:41	513026	631bb11a022ba038ef69e7b1	938880893	1	main_z	11	advance_on_keypress_ZEE	64	stimuli_distractor_trianglediamonds.svg	stimuli_distractor_trianglediamonds.svg	34	no	57	0	1199
6.6.1	win	2022-12-14	23:38:05	23:46:44	515350	631bb11a022ba038ef69e7b1	938880893	1	main_z	11	main_z	65	stimuli_target_diamondcircles.svg	stimuli_distractor_trianglediamonds.svg	19	yes	44	1	474
6.6.1	win	2022-12-14	23:38:05	23:46:44	515350	631bb11a022ba038ef69e7b1	938880893	1	main_z	11	advance_on_keypress_ZEE	66	stimuli_target_diamondcircles.svg	stimuli_distractor_trianglediamonds.svg	19	yes	57	0	575
6.6.1	win	2022-12-14	23:38:05	23:46:45	517081	631bb11a022ba038ef69e7b1	938880893	1	main_z	11	main_z	67	stimuli_target_circlediamonds.svg	stimuli_distractor_trianglediamonds.svg	2	yes	44	1	522
6.6.1	win	2022-12-14	23:38:05	23:46:45	517081	631bb11a022ba038ef69e7b1	938880893	1	main_z	11	advance_on_keypress_ZEE	68	stimuli_target_circlediamonds.svg	stimuli_distractor_trianglediamonds.svg	2	yes	57	0	417
6.6.1	win	2022-12-14	23:38:05	23:46:47	518716	631bb11a022ba038ef69e7b1	938880893	1	main_z	11	main_z	69	stimuli_distractor_trianglediamonds.svg	stimuli_target_diamondcircles.svg	27	yes	44	1	574
6.6.1	win	2022-12-14	23:38:05	23:46:47	518716	631bb11a022ba038ef69e7b1	938880893	1	main_z	11	advance_on_keypress_ZEE	70	stimuli_distractor_trianglediamonds.svg	stimuli_target_diamondcircles.svg	27	yes	57	0	346
6.6.1	win	2022-12-14	23:38:05	23:46:48	520138	631bb11a022ba038ef69e7b1	938880893	1	main_z	11	main_z	71	stimuli_target_squarediamonds.svg	stimuli_distractor_diamondtriangles.svg	8	yes	44	1	429
6.6.1	win	2022-12-14	23:38:05	23:46:48	520138	631bb11a022ba038ef69e7b1	938880893	1	main_z	11	advance_on_keypress_ZEE	72	stimuli_target_squarediamonds.svg	stimuli_distractor_diamondtriangles.svg	8	yes	57	0	633
6.6.1	win	2022-12-14	23:38:05	23:46:50	521831	631bb11a022ba038ef69e7b1	938880893	1	main_z	11	main_z	73	stimuli_distractor_trianglediamonds.svg	stimuli_target_circletriangles.svg	9	yes	44	1	405
6.6.1	win	2022-12-14	23:38:05	23:46:50	521831	631bb11a022ba038ef69e7b1	938880893	1	main_z	11	advance_on_keypress_ZEE	74	stimuli_distractor_trianglediamonds.svg	stimuli_target_circletriangles.svg	9	yes	57	0	526
6.6.1	win	2022-12-14	23:38:05	23:46:52	523403	631bb11a022ba038ef69e7b1	938880893	1	main_z	11	main_z	75	stimuli_target_squaretriangles.svg	stimuli_distractor_trianglediamonds.svg	3	yes	44	1	411
6.6.1	win	2022-12-14	23:38:05	23:46:52	523403	631bb11a022ba038ef69e7b1	938880893	1	main_z	11	advance_on_keypress_ZEE	76	stimuli_target_squaretriangles.svg	stimuli_distractor_trianglediamonds.svg	3	yes	57	0	400
6.6.1	win	2022-12-14	23:38:05	23:46:54	525519	631bb11a022ba038ef69e7b1	938880893	1	main_z	11	main_z	77	stimuli_distractor_diamondtriangles.svg	stimuli_target_diamondcircles.svg	31	yes	44	1	1076
6.6.1	win	2022-12-14	23:38:05	23:46:54	525519	631bb11a022ba038ef69e7b1	938880893	1	main_z	11	advance_on_keypress_ZEE	78	stimuli_distractor_diamondtriangles.svg	stimuli_target_diamondcircles.svg	31	yes	57	0	348
6.6.1	win	2022-12-14	23:38:05	23:46:55	527057	631bb11a022ba038ef69e7b1	938880893	1	main_z	11	main_z	79	stimuli_target_trianglecircles.svg	stimuli_distractor_trianglediamonds.svg	17	yes	44	1	549
6.6.1	win	2022-12-14	23:38:05	23:46:55	527057	631bb11a022ba038ef69e7b1	938880893	1	main_z	11	advance_on_keypress_ZEE	80	stimuli_target_trianglecircles.svg	stimuli_distractor_trianglediamonds.svg	17	yes	57	0	422
6.6.1	win	2022-12-14	23:38:05	23:46:57	528549	631bb11a022ba038ef69e7b1	938880893	1	main_z	11	main_z	81	stimuli_distractor_diamondtriangles.svg	stimuli_target_squarediamonds.svg	16	yes	44	1	423
6.6.1	win	2022-12-14	23:38:05	23:46:57	528549	631bb11a022ba038ef69e7b1	938880893	1	main_z	11	advance_on_keypress_ZEE	82	stimuli_distractor_diamondtriangles.svg	stimuli_target_squarediamonds.svg	16	yes	57	0	420
6.6.1	win	2022-12-14	23:38:05	23:46:58	530062	631bb11a022ba038ef69e7b1	938880893	1	main_z	11	main_z	83	stimuli_distractor_trianglediamonds.svg	stimuli_target_squaretriangles.svg	11	yes	44	1	454
6.6.1	win	2022-12-14	23:38:05	23:46:58	530062	631bb11a022ba038ef69e7b1	938880893	1	main_z	11	advance_on_keypress_ZEE	84	stimuli_distractor_trianglediamonds.svg	stimuli_target_squaretriangles.svg	11	yes	57	0	556
6.6.1	win	2022-12-14	23:38:05	23:47:00	531840	631bb11a022ba038ef69e7b1	938880893	1	main_z	11	main_z	85	stimuli_target_diamondcircles.svg	stimuli_distractor_diamondtriangles.svg	23	yes	44	1	581
6.6.1	win	2022-12-14	23:38:05	23:47:00	531840	631bb11a022ba038ef69e7b1	938880893	1	main_z	11	advance_on_keypress_ZEE	86	stimuli_target_diamondcircles.svg	stimuli_distractor_diamondtriangles.svg	23	yes	57	0	354
6.6.1	win	2022-12-14	23:38:05	23:47:02	533431	631bb11a022ba038ef69e7b1	938880893	1	main_z	11	main_z	87	stimuli_target_trianglecircles.svg	stimuli_distractor_diamondtriangles.svg	21	yes	44	1	588
6.6.1	win	2022-12-14	23:38:05	23:47:02	533431	631bb11a022ba038ef69e7b1	938880893	1	main_z	11	advance_on_keypress_ZEE	88	stimuli_target_trianglecircles.svg	stimuli_distractor_diamondtriangles.svg	21	yes	57	0	681
6.6.1	win	2022-12-14	23:38:05	23:47:04	536148	631bb11a022ba038ef69e7b1	938880893	1	main_z	11	main_z	89	stimuli_target_squarediamonds.svg	stimuli_distractor_trianglediamonds.svg	4	yes	44	1	1389
6.6.1	win	2022-12-14	23:38:05	23:47:04	536148	631bb11a022ba038ef69e7b1	938880893	1	main_z	11	advance_on_keypress_ZEE	90	stimuli_target_squarediamonds.svg	stimuli_distractor_trianglediamonds.svg	4	yes	57	0	330
6.6.1	win	2022-12-14	23:38:05	23:47:06	537687	631bb11a022ba038ef69e7b1	938880893	1	main_z	11	main_z	91	stimuli_target_trianglesquares.svg	stimuli_distractor_trianglediamonds.svg	18	yes	44	1	562
6.6.1	win	2022-12-14	23:38:05	23:47:06	537687	631bb11a022ba038ef69e7b1	938880893	1	main_z	11	advance_on_keypress_ZEE	92	stimuli_target_trianglesquares.svg	stimuli_distractor_trianglediamonds.svg	18	yes	57	0	351
6.6.1	win	2022-12-14	23:38:05	23:47:08	539296	631bb11a022ba038ef69e7b1	938880893	1	main_z	11	main_z	93	stimuli_target_diamondcircles.svg	stimuli_distractor_trianglediamonds.svg	19	yes	44	1	605
6.6.1	win	2022-12-14	23:38:05	23:47:08	539296	631bb11a022ba038ef69e7b1	938880893	1	main_z	11	advance_on_keypress_ZEE	94	stimuli_target_diamondcircles.svg	stimuli_distractor_trianglediamonds.svg	19	yes	57	0	369
6.6.1	win	2022-12-14	23:38:05	23:47:11	542309	631bb11a022ba038ef69e7b1	938880893	1	main_z	11	main_z	95	stimuli_distractor_trianglediamonds.svg	stimuli_distractor_trianglediamonds.svg	34	no	0	1	2000
6.6.1	win	2022-12-14	23:38:05	23:47:11	542309	631bb11a022ba038ef69e7b1	938880893	1	main_z	11	advance_on_keypress_ZEE	96	stimuli_distractor_trianglediamonds.svg	stimuli_distractor_trianglediamonds.svg	34	no	57	0	436
6.6.1	win	2022-12-14	23:38:05	23:47:14	545392	631bb11a022ba038ef69e7b1	938880893	1	main_z	11	main_z	97	stimuli_distractor_trianglediamonds.svg	stimuli_distractor_trianglediamonds.svg	33	no	0	1	2000
6.6.1	win	2022-12-14	23:38:05	23:47:14	545392	631bb11a022ba038ef69e7b1	938880893	1	main_z	11	advance_on_keypress_ZEE	98	stimuli_distractor_trianglediamonds.svg	stimuli_distractor_trianglediamonds.svg	33	no	57	0	388
6.6.1	win	2022-12-14	23:38:05	23:47:15	546969	631bb11a022ba038ef69e7b1	938880893	1	main_z	11	main_z	99	stimuli_distractor_diamondtriangles.svg	stimuli_target_squaretriangles.svg	15	yes	44	1	544
6.6.1	win	2022-12-14	23:38:05	23:47:15	546969	631bb11a022ba038ef69e7b1	938880893	1	main_z	11	advance_on_keypress_ZEE	100	stimuli_distractor_diamondtriangles.svg	stimuli_target_squaretriangles.svg	15	yes	57	0	253
6.6.1	win	2022-12-14	23:38:05	23:47:17	548374	631bb11a022ba038ef69e7b1	938880893	1	main_z	11	main_z	101	stimuli_target_squaretriangles.svg	stimuli_distractor_diamondtriangles.svg	7	yes	44	1	504
6.6.1	win	2022-12-14	23:38:05	23:47:17	548374	631bb11a022ba038ef69e7b1	938880893	1	main_z	11	advance_on_keypress_ZEE	102	stimuli_target_squaretriangles.svg	stimuli_distractor_diamondtriangles.svg	7	yes	57	0	346
6.6.1	win	2022-12-14	23:38:05	23:47:18	549780	631bb11a022ba038ef69e7b1	938880893	1	main_z	11	main_z	103	stimuli_distractor_diamondtriangles.svg	stimuli_target_circlediamonds.svg	14	yes	44	1	405
6.6.1	win	2022-12-14	23:38:05	23:47:18	549780	631bb11a022ba038ef69e7b1	938880893	1	main_z	11	advance_on_keypress_ZEE	104	stimuli_distractor_diamondtriangles.svg	stimuli_target_circlediamonds.svg	14	yes	57	0	575
6.6.1	win	2022-12-14	23:38:05	23:47:20	551451	631bb11a022ba038ef69e7b1	938880893	1	main_z	11	main_z	105	stimuli_distractor_trianglediamonds.svg	stimuli_target_circlediamonds.svg	10	yes	44	1	460
6.6.1	win	2022-12-14	23:38:05	23:47:20	551451	631bb11a022ba038ef69e7b1	938880893	1	main_z	11	advance_on_keypress_ZEE	106	stimuli_distractor_trianglediamonds.svg	stimuli_target_circlediamonds.svg	10	yes	57	0	360
6.6.1	win	2022-12-14	23:38:05	23:47:21	552868	631bb11a022ba038ef69e7b1	938880893	1	main_z	11	main_z	107	stimuli_target_trianglesquares.svg	stimuli_distractor_diamondtriangles.svg	22	yes	44	1	427
6.6.1	win	2022-12-14	23:38:05	23:47:21	552868	631bb11a022ba038ef69e7b1	938880893	1	main_z	11	advance_on_keypress_ZEE	108	stimuli_target_trianglesquares.svg	stimuli_distractor_diamondtriangles.svg	22	yes	57	0	464
6.6.1	win	2022-12-14	23:38:05	23:47:23	554490	631bb11a022ba038ef69e7b1	938880893	1	main_z	11	main_z	109	stimuli_target_trianglecircles.svg	stimuli_distractor_trianglediamonds.svg	17	yes	44	1	510
6.6.1	win	2022-12-14	23:38:05	23:47:23	554490	631bb11a022ba038ef69e7b1	938880893	1	main_z	11	advance_on_keypress_ZEE	110	stimuli_target_trianglecircles.svg	stimuli_distractor_trianglediamonds.svg	17	yes	57	0	457
6.6.1	win	2022-12-14	23:38:05	23:47:24	556028	631bb11a022ba038ef69e7b1	938880893	1	main_z	11	main_z	111	stimuli_distractor_trianglediamonds.svg	stimuli_target_diamondcircles.svg	27	yes	44	1	437
6.6.1	win	2022-12-14	23:38:05	23:47:24	556028	631bb11a022ba038ef69e7b1	938880893	1	main_z	11	advance_on_keypress_ZEE	112	stimuli_distractor_trianglediamonds.svg	stimuli_target_diamondcircles.svg	27	yes	57	0	340
6.6.1	win	2022-12-14	23:38:05	23:47:26	557507	631bb11a022ba038ef69e7b1	938880893	1	main_z	11	main_z	113	stimuli_distractor_diamondtriangles.svg	stimuli_target_circletriangles.svg	13	yes	44	1	500
6.6.1	win	2022-12-14	23:38:05	23:47:26	557507	631bb11a022ba038ef69e7b1	938880893	1	main_z	11	advance_on_keypress_ZEE	114	stimuli_distractor_diamondtriangles.svg	stimuli_target_circletriangles.svg	13	yes	57	0	709
6.6.1	win	2022-12-14	23:38:05	23:47:29	560857	631bb11a022ba038ef69e7b1	938880893	1	main_z	11	main_z	115	stimuli_distractor_diamondtriangles.svg	stimuli_distractor_diamondtriangles.svg	39	no	0	1	2000
6.6.1	win	2022-12-14	23:38:05	23:47:29	560857	631bb11a022ba038ef69e7b1	938880893	1	main_z	11	advance_on_keypress_ZEE	116	stimuli_distractor_diamondtriangles.svg	stimuli_distractor_diamondtriangles.svg	39	no	57	0	398
6.6.1	win	2022-12-14	23:38:05	23:47:31	562384	631bb11a022ba038ef69e7b1	938880893	1	main_z	11	main_z	117	stimuli_distractor_trianglediamonds.svg	stimuli_target_squarediamonds.svg	12	yes	44	1	477
6.6.1	win	2022-12-14	23:38:05	23:47:31	562384	631bb11a022ba038ef69e7b1	938880893	1	main_z	11	advance_on_keypress_ZEE	118	stimuli_distractor_trianglediamonds.svg	stimuli_target_squarediamonds.svg	12	yes	57	0	475
6.6.1	win	2022-12-14	23:38:05	23:47:32	564074	631bb11a022ba038ef69e7b1	938880893	1	main_z	11	main_z	119	stimuli_distractor_diamondtriangles.svg	stimuli_target_trianglecircles.svg	29	yes	44	1	582
6.6.1	win	2022-12-14	23:38:05	23:47:32	564074	631bb11a022ba038ef69e7b1	938880893	1	main_z	11	advance_on_keypress_ZEE	120	stimuli_distractor_diamondtriangles.svg	stimuli_target_trianglecircles.svg	29	yes	57	0	325
6.6.1	win	2022-12-14	23:38:05	23:47:34	565832	631bb11a022ba038ef69e7b1	938880893	1	main_z	11	main_z	121	stimuli_distractor_diamondtriangles.svg	stimuli_target_diamondsquares.svg	32	yes	44	1	792
6.6.1	win	2022-12-14	23:38:05	23:47:34	565832	631bb11a022ba038ef69e7b1	938880893	1	main_z	11	advance_on_keypress_ZEE	122	stimuli_distractor_diamondtriangles.svg	stimuli_target_diamondsquares.svg	32	yes	57	0	330
6.6.1	win	2022-12-14	23:38:05	23:47:37	568807	631bb11a022ba038ef69e7b1	938880893	1	main_z	11	main_z	123	stimuli_distractor_diamondtriangles.svg	stimuli_distractor_diamondtriangles.svg	40	no	0	1	2000
6.6.1	win	2022-12-14	23:38:05	23:47:37	568807	631bb11a022ba038ef69e7b1	938880893	1	main_z	11	advance_on_keypress_ZEE	124	stimuli_distractor_diamondtriangles.svg	stimuli_distractor_diamondtriangles.svg	40	no	57	0	422
6.6.1	win	2022-12-14	23:38:05	23:47:39	570329	631bb11a022ba038ef69e7b1	938880893	1	main_z	11	main_z	125	stimuli_distractor_trianglediamonds.svg	stimuli_target_circletriangles.svg	9	yes	44	1	455
6.6.1	win	2022-12-14	23:38:05	23:47:39	570329	631bb11a022ba038ef69e7b1	938880893	1	main_z	11	advance_on_keypress_ZEE	126	stimuli_distractor_trianglediamonds.svg	stimuli_target_circletriangles.svg	9	yes	57	0	284
6.6.1	win	2022-12-14	23:38:05	23:47:40	571787	631bb11a022ba038ef69e7b1	938880893	1	main_z	11	main_z	127	stimuli_distractor_trianglediamonds.svg	stimuli_distractor_diamondtriangles.svg	35	no	44	0	530
6.6.1	win	2022-12-14	23:38:05	23:47:40	571787	631bb11a022ba038ef69e7b1	938880893	1	main_z	11	advance_on_keypress_ZEE	128	stimuli_distractor_trianglediamonds.svg	stimuli_distractor_diamondtriangles.svg	35	no	57	0	613
6.6.1	win	2022-12-14	23:38:05	23:47:43	575057	631bb11a022ba038ef69e7b1	938880893	1	main_z	11	main_z	129	stimuli_distractor_diamondtriangles.svg	stimuli_distractor_trianglediamonds.svg	38	no	0	1	2000
6.6.1	win	2022-12-14	23:38:05	23:47:43	575057	631bb11a022ba038ef69e7b1	938880893	1	main_z	11	advance_on_keypress_ZEE	130	stimuli_distractor_diamondtriangles.svg	stimuli_distractor_trianglediamonds.svg	38	no	57	0	614
6.6.1	win	2022-12-14	23:38:05	23:47:45	576722	631bb11a022ba038ef69e7b1	938880893	1	main_z	11	main_z	131	stimuli_distractor_trianglediamonds.svg	stimuli_target_trianglesquares.svg	26	yes	44	1	398
6.6.1	win	2022-12-14	23:38:05	23:47:45	576722	631bb11a022ba038ef69e7b1	938880893	1	main_z	11	advance_on_keypress_ZEE	132	stimuli_distractor_trianglediamonds.svg	stimuli_target_trianglesquares.svg	26	yes	57	0	272
6.6.1	win	2022-12-14	23:38:05	23:47:46	578042	631bb11a022ba038ef69e7b1	938880893	1	main_z	11	main_z	133	stimuli_distractor_diamondtriangles.svg	stimuli_target_diamondcircles.svg	31	yes	44	1	403
6.6.1	win	2022-12-14	23:38:05	23:47:46	578042	631bb11a022ba038ef69e7b1	938880893	1	main_z	11	advance_on_keypress_ZEE	134	stimuli_distractor_diamondtriangles.svg	stimuli_target_diamondcircles.svg	31	yes	57	0	220
6.6.1	win	2022-12-14	23:38:05	23:47:49	580907	631bb11a022ba038ef69e7b1	938880893	1	main_z	11	main_z	135	stimuli_distractor_diamondtriangles.svg	stimuli_distractor_trianglediamonds.svg	37	no	0	1	2000
6.6.1	win	2022-12-14	23:38:05	23:47:49	580907	631bb11a022ba038ef69e7b1	938880893	1	main_z	11	advance_on_keypress_ZEE	136	stimuli_distractor_diamondtriangles.svg	stimuli_distractor_trianglediamonds.svg	37	no	57	0	427
6.6.1	win	2022-12-14	23:38:05	23:47:51	582392	631bb11a022ba038ef69e7b1	938880893	1	main_z	11	main_z	137	stimuli_target_circlediamonds.svg	stimuli_distractor_trianglediamonds.svg	2	yes	44	1	419
6.6.1	win	2022-12-14	23:38:05	23:47:51	582392	631bb11a022ba038ef69e7b1	938880893	1	main_z	11	advance_on_keypress_ZEE	138	stimuli_target_circlediamonds.svg	stimuli_distractor_trianglediamonds.svg	2	yes	57	0	256
6.6.1	win	2022-12-14	23:38:05	23:47:54	585290	631bb11a022ba038ef69e7b1	938880893	1	main_z	11	main_z	139	stimuli_distractor_trianglediamonds.svg	stimuli_distractor_diamondtriangles.svg	36	no	0	1	2000
6.6.1	win	2022-12-14	23:38:05	23:47:54	585290	631bb11a022ba038ef69e7b1	938880893	1	main_z	11	advance_on_keypress_ZEE	140	stimuli_distractor_trianglediamonds.svg	stimuli_distractor_diamondtriangles.svg	36	no	57	0	409
6.6.1	win	2022-12-14	23:38:05	23:47:55	586956	631bb11a022ba038ef69e7b1	938880893	1	main_z	11	main_z	141	stimuli_target_diamondsquares.svg	stimuli_distractor_diamondtriangles.svg	24	yes	44	1	616
6.6.1	win	2022-12-14	23:38:05	23:47:55	586956	631bb11a022ba038ef69e7b1	938880893	1	main_z	11	advance_on_keypress_ZEE	142	stimuli_target_diamondsquares.svg	stimuli_distractor_diamondtriangles.svg	24	yes	57	0	244
6.6.1	win	2022-12-14	23:38:05	23:47:57	588298	631bb11a022ba038ef69e7b1	938880893	1	main_z	11	main_z	143	stimuli_distractor_trianglediamonds.svg	stimuli_target_trianglecircles.svg	25	yes	44	1	459
6.6.1	win	2022-12-14	23:38:05	23:47:57	588298	631bb11a022ba038ef69e7b1	938880893	1	main_z	11	advance_on_keypress_ZEE	144	stimuli_distractor_trianglediamonds.svg	stimuli_target_trianglecircles.svg	25	yes	57	0	263
6.6.1	win	2022-12-14	23:38:05	23:47:58	589648	631bb11a022ba038ef69e7b1	938880893	1	main_z	11	main_z	145	stimuli_target_diamondsquares.svg	stimuli_distractor_trianglediamonds.svg	20	yes	44	1	442
6.6.1	win	2022-12-14	23:38:05	23:47:58	589648	631bb11a022ba038ef69e7b1	938880893	1	main_z	11	advance_on_keypress_ZEE	146	stimuli_target_diamondsquares.svg	stimuli_distractor_trianglediamonds.svg	20	yes	57	0	292
6.6.1	win	2022-12-14	23:38:05	23:47:59	590988	631bb11a022ba038ef69e7b1	938880893	1	main_z	11	main_z	147	stimuli_distractor_diamondtriangles.svg	stimuli_target_trianglesquares.svg	30	yes	44	1	415
6.6.1	win	2022-12-14	23:38:05	23:47:59	590988	631bb11a022ba038ef69e7b1	938880893	1	main_z	11	advance_on_keypress_ZEE	148	stimuli_distractor_diamondtriangles.svg	stimuli_target_trianglesquares.svg	30	yes	57	0	362
6.6.1	win	2022-12-14	23:38:05	23:48:01	592453	631bb11a022ba038ef69e7b1	938880893	1	main_z	11	main_z	149	stimuli_distractor_trianglediamonds.svg	stimuli_target_diamondsquares.svg	28	yes	44	1	446
6.6.1	win	2022-12-14	23:38:05	23:48:01	592453	631bb11a022ba038ef69e7b1	938880893	1	main_z	11	advance_on_keypress_ZEE	150	stimuli_distractor_trianglediamonds.svg	stimuli_target_diamondsquares.svg	28	yes	57	0	318
6.6.1	win	2022-12-14	23:38:05	23:48:02	593805	631bb11a022ba038ef69e7b1	938880893	1	main_z	11	main_z	151	stimuli_target_squarediamonds.svg	stimuli_distractor_diamondtriangles.svg	8	yes	44	1	371
6.6.1	win	2022-12-14	23:38:05	23:48:02	593805	631bb11a022ba038ef69e7b1	938880893	1	main_z	11	advance_on_keypress_ZEE	152	stimuli_target_squarediamonds.svg	stimuli_distractor_diamondtriangles.svg	8	yes	57	0	501
6.6.1	win	2022-12-14	23:38:05	23:48:04	595362	631bb11a022ba038ef69e7b1	938880893	1	main_z	11	main_z	153	stimuli_target_squaretriangles.svg	stimuli_distractor_trianglediamonds.svg	3	yes	44	1	407
6.6.1	win	2022-12-14	23:38:05	23:48:04	595362	631bb11a022ba038ef69e7b1	938880893	1	main_z	11	advance_on_keypress_ZEE	154	stimuli_target_squaretriangles.svg	stimuli_distractor_trianglediamonds.svg	3	yes	57	0	309
6.6.1	win	2022-12-14	23:38:05	23:48:05	596737	631bb11a022ba038ef69e7b1	938880893	1	main_z	11	main_z	155	stimuli_target_circletriangles.svg	stimuli_distractor_trianglediamonds.svg	1	yes	44	1	430
6.6.1	win	2022-12-14	23:38:05	23:48:05	596737	631bb11a022ba038ef69e7b1	938880893	1	main_z	11	advance_on_keypress_ZEE	156	stimuli_target_circletriangles.svg	stimuli_distractor_trianglediamonds.svg	1	yes	57	0	299
6.6.1	win	2022-12-14	23:38:05	23:48:06	598103	631bb11a022ba038ef69e7b1	938880893	1	main_z	11	main_z	157	stimuli_target_circletriangles.svg	stimuli_distractor_diamondtriangles.svg	5	yes	44	1	414
6.6.1	win	2022-12-14	23:38:05	23:48:06	598103	631bb11a022ba038ef69e7b1	938880893	1	main_z	11	advance_on_keypress_ZEE	158	stimuli_target_circletriangles.svg	stimuli_distractor_diamondtriangles.svg	5	yes	57	0	287
6.6.1	win	2022-12-14	23:38:05	23:48:08	599394	631bb11a022ba038ef69e7b1	938880893	1	main_z	11	main_z	159	stimuli_target_circlediamonds.svg	stimuli_distractor_diamondtriangles.svg	6	yes	44	1	355
6.6.1	win	2022-12-14	23:38:05	23:48:08	599394	631bb11a022ba038ef69e7b1	938880893	1	main_z	11	advance_on_keypress_ZEE	160	stimuli_target_circlediamonds.svg	stimuli_distractor_diamondtriangles.svg	6	yes	57	0	298