build	computer.platform	date	time	timestamp	time_elapsed_ms	subject	group	session	blockcode	blocknum	trialcode	trialnum	stimulus_left	stimulus_right	stim_index	target_present	response	correct	latency
6.6.1	win	2022-12-14	14:35:48	14:38:39	169284	6111f586fe99b25bb899861a	986651593	1	practice_slash	5	practice_slash	1	stimuli_distractor_trianglediamonds.svg	stimuli_distractor_diamondtriangles.svg	16	no	0	1	2000
6.6.1	win	2022-12-14	14:35:48	14:38:39	169284	6111f586fe99b25bb899861a	986651593	1	practice_slash	5	advance_on_keypress_SLASH	2	stimuli_distractor_trianglediamonds.svg	stimuli_distractor_diamondtriangles.svg	16	no	57	0	1059
6.6.1	win	2022-12-14	14:35:48	14:38:42	172604	6111f586fe99b25bb899861a	986651593	1	practice_slash	5	practice_slash	3	stimuli_distractor_trianglediamonds.svg	stimuli_target_circlediamonds.svg	10	yes	53	1	620
6.6.1	win	2022-12-14	14:35:48	14:38:42	172604	6111f586fe99b25bb899861a	986651593	1	practice_slash	5	advance_on_keypress_SLASH	4	stimuli_distractor_trianglediamonds.svg	stimuli_target_circlediamonds.svg	10	yes	57	0	1144
6.6.1	win	2022-12-14	14:35:48	14:38:46	176571	6111f586fe99b25bb899861a	986651593	1	practice_slash	5	practice_slash	5	stimuli_distractor_trianglediamonds.svg	stimuli_target_squarediamonds.svg	11	yes	53	1	1187
6.6.1	win	2022-12-14	14:35:48	14:38:46	176571	6111f586fe99b25bb899861a	986651593	1	practice_slash	5	advance_on_keypress_SLASH	6	stimuli_distractor_trianglediamonds.svg	stimuli_target_squarediamonds.svg	11	yes	57	0	2042
6.6.1	win	2022-12-14	14:35:48	14:38:50	181088	6111f586fe99b25bb899861a	986651593	1	practice_slash	5	practice_slash	7	stimuli_target_circlediamonds.svg	stimuli_distractor_diamondtriangles.svg	1	yes	53	1	836
6.6.1	win	2022-12-14	14:35:48	14:38:50	181088	6111f586fe99b25bb899861a	986651593	1	practice_slash	5	advance_on_keypress_SLASH	8	stimuli_target_circlediamonds.svg	stimuli_distractor_diamondtriangles.svg	1	yes	57	0	740
6.6.1	win	2022-12-14	14:35:48	14:38:54	184388	6111f586fe99b25bb899861a	986651593	1	practice_slash	5	practice_slash	9	stimuli_distractor_diamondtriangles.svg	stimuli_target_diamondcircles.svg	8	yes	53	1	920
6.6.1	win	2022-12-14	14:35:48	14:38:54	184388	6111f586fe99b25bb899861a	986651593	1	practice_slash	5	advance_on_keypress_SLASH	10	stimuli_distractor_diamondtriangles.svg	stimuli_target_diamondcircles.svg	8	yes	57	0	618
6.6.1	win	2022-12-14	14:35:48	14:38:57	187586	6111f586fe99b25bb899861a	986651593	1	practice_slash	5	practice_slash	11	stimuli_distractor_diamondtriangles.svg	stimuli_target_trianglecircles.svg	9	yes	53	1	935
6.6.1	win	2022-12-14	14:35:48	14:38:57	187586	6111f586fe99b25bb899861a	986651593	1	practice_slash	5	advance_on_keypress_SLASH	12	stimuli_distractor_diamondtriangles.svg	stimuli_target_trianglecircles.svg	9	yes	57	0	582
6.6.1	win	2022-12-14	14:35:48	14:39:01	191396	6111f586fe99b25bb899861a	986651593	1	practice_slash	5	practice_slash	13	stimuli_target_diamondsquares.svg	stimuli_distractor_diamondtriangles.svg	3	yes	53	1	1578
6.6.1	win	2022-12-14	14:35:48	14:39:01	191396	6111f586fe99b25bb899861a	986651593	1	practice_slash	5	advance_on_keypress_SLASH	14	stimuli_target_diamondsquares.svg	stimuli_distractor_diamondtriangles.svg	3	yes	57	0	542
6.6.1	win	2022-12-14	14:35:48	14:39:04	194832	6111f586fe99b25bb899861a	986651593	1	practice_slash	5	practice_slash	15	stimuli_distractor_diamondtriangles.svg	stimuli_target_circletriangles.svg	7	yes	53	1	1264
6.6.1	win	2022-12-14	14:35:48	14:39:04	194832	6111f586fe99b25bb899861a	986651593	1	practice_slash	5	advance_on_keypress_SLASH	16	stimuli_distractor_diamondtriangles.svg	stimuli_target_circletriangles.svg	7	yes	57	0	787
6.6.1	win	2022-12-14	14:35:48	14:39:09	199253	6111f586fe99b25bb899861a	986651593	1	practice_slash	5	practice_slash	17	stimuli_target_diamondsquares.svg	stimuli_distractor_trianglediamonds.svg	6	yes	0	0	2000
6.6.1	win	2022-12-14	14:35:48	14:39:09	199253	6111f586fe99b25bb899861a	986651593	1	practice_slash	5	advance_on_keypress_SLASH	18	stimuli_target_diamondsquares.svg	stimuli_distractor_trianglediamonds.svg	6	yes	57	0	519
6.6.1	win	2022-12-14	14:35:48	14:39:13	203418	6111f586fe99b25bb899861a	986651593	1	practice_slash	5	practice_slash	19	stimuli_distractor_diamondtriangles.svg	stimuli_distractor_trianglediamonds.svg	14	no	0	1	2000
6.6.1	win	2022-12-14	14:35:48	14:39:13	203418	6111f586fe99b25bb899861a	986651593	1	practice_slash	5	advance_on_keypress_SLASH	20	stimuli_distractor_diamondtriangles.svg	stimuli_distractor_trianglediamonds.svg	14	no	57	0	1119
6.6.1	win	2022-12-14	14:35:48	14:39:16	207012	6111f586fe99b25bb899861a	986651593	1	practice_slash	5	practice_slash	21	stimuli_distractor_trianglediamonds.svg	stimuli_target_diamondcircles.svg	12	yes	53	1	827
6.6.1	win	2022-12-14	14:35:48	14:39:16	207012	6111f586fe99b25bb899861a	986651593	1	practice_slash	5	advance_on_keypress_SLASH	22	stimuli_distractor_trianglediamonds.svg	stimuli_target_diamondcircles.svg	12	yes	57	0	2106
6.6.1	win	2022-12-14	14:35:48	14:39:21	211680	6111f586fe99b25bb899861a	986651593	1	practice_slash	5	practice_slash	23	stimuli_target_squarediamonds.svg	stimuli_distractor_diamondtriangles.svg	2	yes	53	1	928
6.6.1	win	2022-12-14	14:35:48	14:39:21	211680	6111f586fe99b25bb899861a	986651593	1	practice_slash	5	advance_on_keypress_SLASH	24	stimuli_target_squarediamonds.svg	stimuli_distractor_diamondtriangles.svg	2	yes	57	0	1446
6.6.1	win	2022-12-14	14:35:48	14:39:26	216752	6111f586fe99b25bb899861a	986651593	1	practice_slash	5	practice_slash	25	stimuli_distractor_diamondtriangles.svg	stimuli_distractor_diamondtriangles.svg	13	no	0	1	2000
6.6.1	win	2022-12-14	14:35:48	14:39:26	216752	6111f586fe99b25bb899861a	986651593	1	practice_slash	5	advance_on_keypress_SLASH	26	stimuli_distractor_diamondtriangles.svg	stimuli_distractor_diamondtriangles.svg	13	no	57	0	504
6.6.1	win	2022-12-14	14:35:48	14:39:29	219617	6111f586fe99b25bb899861a	986651593	1	practice_slash	5	practice_slash	27	stimuli_target_circlediamonds.svg	stimuli_distractor_trianglediamonds.svg	4	yes	53	1	714
6.6.1	win	2022-12-14	14:35:48	14:39:29	219617	6111f586fe99b25bb899861a	986651593	1	practice_slash	5	advance_on_keypress_SLASH	28	stimuli_target_circlediamonds.svg	stimuli_distractor_trianglediamonds.svg	4	yes	57	0	1379
6.6.1	win	2022-12-14	14:35:48	14:39:33	223397	6111f586fe99b25bb899861a	986651593	1	practice_slash	5	practice_slash	29	stimuli_target_squarediamonds.svg	stimuli_distractor_trianglediamonds.svg	5	yes	53	1	763
6.6.1	win	2022-12-14	14:35:48	14:39:33	223397	6111f586fe99b25bb899861a	986651593	1	practice_slash	5	advance_on_keypress_SLASH	30	stimuli_target_squarediamonds.svg	stimuli_distractor_trianglediamonds.svg	5	yes	57	0	1149
6.6.1	win	2022-12-14	14:35:48	14:39:38	228186	6111f586fe99b25bb899861a	986651593	1	practice_slash	5	practice_slash	31	stimuli_distractor_trianglediamonds.svg	stimuli_distractor_trianglediamonds.svg	15	no	0	1	2000
6.6.1	win	2022-12-14	14:35:48	14:39:38	228186	6111f586fe99b25bb899861a	986651593	1	practice_slash	5	advance_on_keypress_SLASH	32	stimuli_distractor_trianglediamonds.svg	stimuli_distractor_trianglediamonds.svg	15	no	57	0	870
6.6.1	win	2022-12-14	14:35:48	14:41:31	341356	6111f586fe99b25bb899861a	986651593	1	main_slash	7	main_slash	1	stimuli_distractor_diamondtriangles.svg	stimuli_distractor_trianglediamonds.svg	38	no	0	1	2000
6.6.1	win	2022-12-14	14:35:48	14:41:31	341356	6111f586fe99b25bb899861a	986651593	1	main_slash	7	advance_on_keypress_SLASH	2	stimuli_distractor_diamondtriangles.svg	stimuli_distractor_trianglediamonds.svg	38	no	57	0	861
6.6.1	win	2022-12-14	14:35:48	14:41:33	343526	6111f586fe99b25bb899861a	986651593	1	main_slash	7	main_slash	3	stimuli_target_circlediamonds.svg	stimuli_distractor_diamondtriangles.svg	6	yes	53	1	671
6.6.1	win	2022-12-14	14:35:48	14:41:33	343526	6111f586fe99b25bb899861a	986651593	1	main_slash	7	advance_on_keypress_SLASH	4	stimuli_target_circlediamonds.svg	stimuli_distractor_diamondtriangles.svg	6	yes	57	0	977
6.6.1	win	2022-12-14	14:35:48	14:41:35	345750	6111f586fe99b25bb899861a	986651593	1	main_slash	7	main_slash	5	stimuli_target_trianglecircles.svg	stimuli_distractor_trianglediamonds.svg	17	yes	53	1	612
6.6.1	win	2022-12-14	14:35:48	14:41:35	345750	6111f586fe99b25bb899861a	986651593	1	main_slash	7	advance_on_keypress_SLASH	6	stimuli_target_trianglecircles.svg	stimuli_distractor_trianglediamonds.svg	17	yes	57	0	388
6.6.1	win	2022-12-14	14:35:48	14:41:37	347427	6111f586fe99b25bb899861a	986651593	1	main_slash	7	main_slash	7	stimuli_target_squarediamonds.svg	stimuli_distractor_trianglediamonds.svg	4	yes	53	1	655
6.6.1	win	2022-12-14	14:35:48	14:41:37	347427	6111f586fe99b25bb899861a	986651593	1	main_slash	7	advance_on_keypress_SLASH	8	stimuli_target_squarediamonds.svg	stimuli_distractor_trianglediamonds.svg	4	yes	57	0	260
6.6.1	win	2022-12-14	14:35:48	14:41:38	349063	6111f586fe99b25bb899861a	986651593	1	main_slash	7	main_slash	9	stimuli_target_diamondsquares.svg	stimuli_distractor_diamondtriangles.svg	24	yes	53	1	741
6.6.1	win	2022-12-14	14:35:48	14:41:38	349063	6111f586fe99b25bb899861a	986651593	1	main_slash	7	advance_on_keypress_SLASH	10	stimuli_target_diamondsquares.svg	stimuli_distractor_diamondtriangles.svg	24	yes	57	0	213
6.6.1	win	2022-12-14	14:35:48	14:41:41	351159	6111f586fe99b25bb899861a	986651593	1	main_slash	7	main_slash	11	stimuli_target_squaretriangles.svg	stimuli_distractor_trianglediamonds.svg	3	yes	53	1	1254
6.6.1	win	2022-12-14	14:35:48	14:41:41	351159	6111f586fe99b25bb899861a	986651593	1	main_slash	7	advance_on_keypress_SLASH	12	stimuli_target_squaretriangles.svg	stimuli_distractor_trianglediamonds.svg	3	yes	57	0	450
6.6.1	win	2022-12-14	14:35:48	14:41:42	353067	6111f586fe99b25bb899861a	986651593	1	main_slash	7	main_slash	13	stimuli_target_circletriangles.svg	stimuli_distractor_trianglediamonds.svg	1	yes	53	1	812
6.6.1	win	2022-12-14	14:35:48	14:41:42	353067	6111f586fe99b25bb899861a	986651593	1	main_slash	7	advance_on_keypress_SLASH	14	stimuli_target_circletriangles.svg	stimuli_distractor_trianglediamonds.svg	1	yes	57	0	279
6.6.1	win	2022-12-14	14:35:48	14:41:44	354786	6111f586fe99b25bb899861a	986651593	1	main_slash	7	main_slash	15	stimuli_distractor_diamondtriangles.svg	stimuli_target_squarediamonds.svg	16	yes	53	1	814
6.6.1	win	2022-12-14	14:35:48	14:41:44	354786	6111f586fe99b25bb899861a	986651593	1	main_slash	7	advance_on_keypress_SLASH	16	stimuli_distractor_diamondtriangles.svg	stimuli_target_squarediamonds.svg	16	yes	57	0	240
6.6.1	win	2022-12-14	14:35:48	14:41:46	356314	6111f586fe99b25bb899861a	986651593	1	main_slash	7	main_slash	17	stimuli_target_diamondcircles.svg	stimuli_distractor_trianglediamonds.svg	19	yes	53	1	659
6.6.1	win	2022-12-14	14:35:48	14:41:46	356314	6111f586fe99b25bb899861a	986651593	1	main_slash	7	advance_on_keypress_SLASH	18	stimuli_target_diamondcircles.svg	stimuli_distractor_trianglediamonds.svg	19	yes	57	0	305
6.6.1	win	2022-12-14	14:35:48	14:41:49	359256	6111f586fe99b25bb899861a	986651593	1	main_slash	7	main_slash	19	stimuli_distractor_diamondtriangles.svg	stimuli_distractor_trianglediamonds.svg	37	no	0	1	2000
6.6.1	win	2022-12-14	14:35:48	14:41:49	359256	6111f586fe99b25bb899861a	986651593	1	main_slash	7	advance_on_keypress_SLASH	20	stimuli_distractor_diamondtriangles.svg	stimuli_distractor_trianglediamonds.svg	37	no	57	0	1297
6.6.1	win	2022-12-14	14:35:48	14:41:51	361996	6111f586fe99b25bb899861a	986651593	1	main_slash	7	main_slash	21	stimuli_target_trianglecircles.svg	stimuli_distractor_diamondtriangles.svg	21	yes	53	1	806
6.6.1	win	2022-12-14	14:35:48	14:41:51	361996	6111f586fe99b25bb899861a	986651593	1	main_slash	7	advance_on_keypress_SLASH	22	stimuli_target_trianglecircles.svg	stimuli_distractor_diamondtriangles.svg	21	yes	57	0	354
6.6.1	win	2022-12-14	14:35:48	14:41:53	363887	6111f586fe99b25bb899861a	986651593	1	main_slash	7	main_slash	23	stimuli_distractor_trianglediamonds.svg	stimuli_target_squarediamonds.svg	12	yes	53	1	898
6.6.1	win	2022-12-14	14:35:48	14:41:53	363887	6111f586fe99b25bb899861a	986651593	1	main_slash	7	advance_on_keypress_SLASH	24	stimuli_distractor_trianglediamonds.svg	stimuli_target_squarediamonds.svg	12	yes	57	0	397
6.6.1	win	2022-12-14	14:35:48	14:41:55	365858	6111f586fe99b25bb899861a	986651593	1	main_slash	7	main_slash	25	stimuli_distractor_trianglediamonds.svg	stimuli_target_squaretriangles.svg	11	yes	53	1	951
6.6.1	win	2022-12-14	14:35:48	14:41:55	365858	6111f586fe99b25bb899861a	986651593	1	main_slash	7	advance_on_keypress_SLASH	26	stimuli_distractor_trianglediamonds.svg	stimuli_target_squaretriangles.svg	11	yes	57	0	233
6.6.1	win	2022-12-14	14:35:48	14:41:57	367565	6111f586fe99b25bb899861a	986651593	1	main_slash	7	main_slash	27	stimuli_target_circletriangles.svg	stimuli_distractor_diamondtriangles.svg	5	yes	53	1	826
6.6.1	win	2022-12-14	14:35:48	14:41:57	367565	6111f586fe99b25bb899861a	986651593	1	main_slash	7	advance_on_keypress_SLASH	28	stimuli_target_circletriangles.svg	stimuli_distractor_diamondtriangles.svg	5	yes	57	0	300
6.6.1	win	2022-12-14	14:35:48	14:42:00	370506	6111f586fe99b25bb899861a	986651593	1	main_slash	7	main_slash	29	stimuli_distractor_diamondtriangles.svg	stimuli_target_circletriangles.svg	13	yes	0	0	2000
6.6.1	win	2022-12-14	14:35:48	14:42:00	370506	6111f586fe99b25bb899861a	986651593	1	main_slash	7	advance_on_keypress_SLASH	30	stimuli_distractor_diamondtriangles.svg	stimuli_target_circletriangles.svg	13	yes	57	0	417
6.6.1	win	2022-12-14	14:35:48	14:42:03	373573	6111f586fe99b25bb899861a	986651593	1	main_slash	7	main_slash	31	stimuli_distractor_trianglediamonds.svg	stimuli_distractor_trianglediamonds.svg	34	no	0	1	2000
6.6.1	win	2022-12-14	14:35:48	14:42:03	373573	6111f586fe99b25bb899861a	986651593	1	main_slash	7	advance_on_keypress_SLASH	32	stimuli_distractor_trianglediamonds.svg	stimuli_distractor_trianglediamonds.svg	34	no	57	0	774
6.6.1	win	2022-12-14	14:35:48	14:42:05	375686	6111f586fe99b25bb899861a	986651593	1	main_slash	7	main_slash	33	stimuli_distractor_trianglediamonds.svg	stimuli_target_trianglecircles.svg	25	yes	53	1	696
6.6.1	win	2022-12-14	14:35:48	14:42:05	375686	6111f586fe99b25bb899861a	986651593	1	main_slash	7	advance_on_keypress_SLASH	34	stimuli_distractor_trianglediamonds.svg	stimuli_target_trianglecircles.svg	25	yes	57	0	300
6.6.1	win	2022-12-14	14:35:48	14:42:07	377183	6111f586fe99b25bb899861a	986651593	1	main_slash	7	main_slash	35	stimuli_target_diamondcircles.svg	stimuli_distractor_diamondtriangles.svg	23	yes	53	1	561
6.6.1	win	2022-12-14	14:35:48	14:42:07	377183	6111f586fe99b25bb899861a	986651593	1	main_slash	7	advance_on_keypress_SLASH	36	stimuli_target_diamondcircles.svg	stimuli_distractor_diamondtriangles.svg	23	yes	57	0	167
6.6.1	win	2022-12-14	14:35:48	14:42:08	378868	6111f586fe99b25bb899861a	986651593	1	main_slash	7	main_slash	37	stimuli_distractor_trianglediamonds.svg	stimuli_target_trianglesquares.svg	26	yes	53	1	879
6.6.1	win	2022-12-14	14:35:48	14:42:08	378868	6111f586fe99b25bb899861a	986651593	1	main_slash	7	advance_on_keypress_SLASH	38	stimuli_distractor_trianglediamonds.svg	stimuli_target_trianglesquares.svg	26	yes	57	0	241
6.6.1	win	2022-12-14	14:35:48	14:42:10	380446	6111f586fe99b25bb899861a	986651593	1	main_slash	7	main_slash	39	stimuli_distractor_diamondtriangles.svg	stimuli_target_trianglesquares.svg	30	yes	53	1	706
6.6.1	win	2022-12-14	14:35:48	14:42:10	380446	6111f586fe99b25bb899861a	986651593	1	main_slash	7	advance_on_keypress_SLASH	40	stimuli_distractor_diamondtriangles.svg	stimuli_target_trianglesquares.svg	30	yes	57	0	257
6.6.1	win	2022-12-14	14:35:48	14:42:12	382359	6111f586fe99b25bb899861a	986651593	1	main_slash	7	main_slash	41	stimuli_distractor_diamondtriangles.svg	stimuli_target_squaretriangles.svg	15	yes	53	1	1020
6.6.1	win	2022-12-14	14:35:48	14:42:12	382359	6111f586fe99b25bb899861a	986651593	1	main_slash	7	advance_on_keypress_SLASH	42	stimuli_distractor_diamondtriangles.svg	stimuli_target_squaretriangles.svg	15	yes	57	0	259
6.6.1	win	2022-12-14	14:35:48	14:42:13	384088	6111f586fe99b25bb899861a	986651593	1	main_slash	7	main_slash	43	stimuli_target_squarediamonds.svg	stimuli_distractor_diamondtriangles.svg	8	yes	53	1	831
6.6.1	win	2022-12-14	14:35:48	14:42:13	384088	6111f586fe99b25bb899861a	986651593	1	main_slash	7	advance_on_keypress_SLASH	44	stimuli_target_squarediamonds.svg	stimuli_distractor_diamondtriangles.svg	8	yes	57	0	305
6.6.1	win	2022-12-14	14:35:48	14:42:15	385738	6111f586fe99b25bb899861a	986651593	1	main_slash	7	main_slash	45	stimuli_distractor_diamondtriangles.svg	stimuli_target_diamondcircles.svg	31	yes	53	1	715
6.6.1	win	2022-12-14	14:35:48	14:42:15	385738	6111f586fe99b25bb899861a	986651593	1	main_slash	7	advance_on_keypress_SLASH	46	stimuli_distractor_diamondtriangles.svg	stimuli_target_diamondcircles.svg	31	yes	57	0	280
6.6.1	win	2022-12-14	14:35:48	14:42:17	387301	6111f586fe99b25bb899861a	986651593	1	main_slash	7	main_slash	47	stimuli_distractor_diamondtriangles.svg	stimuli_target_trianglecircles.svg	29	yes	53	1	661
6.6.1	win	2022-12-14	14:35:48	14:42:17	387301	6111f586fe99b25bb899861a	986651593	1	main_slash	7	advance_on_keypress_SLASH	48	stimuli_distractor_diamondtriangles.svg	stimuli_target_trianglecircles.svg	29	yes	57	0	305
6.6.1	win	2022-12-14	14:35:48	14:42:19	389416	6111f586fe99b25bb899861a	986651593	1	main_slash	7	main_slash	49	stimuli_distractor_trianglediamonds.svg	stimuli_target_circletriangles.svg	9	yes	53	1	1177
6.6.1	win	2022-12-14	14:35:48	14:42:19	389416	6111f586fe99b25bb899861a	986651593	1	main_slash	7	advance_on_keypress_SLASH	50	stimuli_distractor_trianglediamonds.svg	stimuli_target_circletriangles.svg	9	yes	57	0	302
6.6.1	win	2022-12-14	14:35:48	14:42:21	391380	6111f586fe99b25bb899861a	986651593	1	main_slash	7	main_slash	51	stimuli_distractor_trianglediamonds.svg	stimuli_target_circlediamonds.svg	10	yes	53	1	1024
6.6.1	win	2022-12-14	14:35:48	14:42:21	391380	6111f586fe99b25bb899861a	986651593	1	main_slash	7	advance_on_keypress_SLASH	52	stimuli_distractor_trianglediamonds.svg	stimuli_target_circlediamonds.svg	10	yes	57	0	341
6.6.1	win	2022-12-14	14:35:48	14:42:24	394357	6111f586fe99b25bb899861a	986651593	1	main_slash	7	main_slash	53	stimuli_distractor_trianglediamonds.svg	stimuli_distractor_diamondtriangles.svg	35	no	0	1	2000
6.6.1	win	2022-12-14	14:35:48	14:42:24	394357	6111f586fe99b25bb899861a	986651593	1	main_slash	7	advance_on_keypress_SLASH	54	stimuli_distractor_trianglediamonds.svg	stimuli_distractor_diamondtriangles.svg	35	no	57	0	304
6.6.1	win	2022-12-14	14:35:48	14:42:25	395936	6111f586fe99b25bb899861a	986651593	1	main_slash	7	main_slash	55	stimuli_distractor_trianglediamonds.svg	stimuli_target_diamondsquares.svg	28	yes	53	1	630
6.6.1	win	2022-12-14	14:35:48	14:42:25	395936	6111f586fe99b25bb899861a	986651593	1	main_slash	7	advance_on_keypress_SLASH	56	stimuli_distractor_trianglediamonds.svg	stimuli_target_diamondsquares.svg	28	yes	57	0	298
6.6.1	win	2022-12-14	14:35:48	14:42:27	397466	6111f586fe99b25bb899861a	986651593	1	main_slash	7	main_slash	57	stimuli_target_circlediamonds.svg	stimuli_distractor_trianglediamonds.svg	2	yes	53	1	593
6.6.1	win	2022-12-14	14:35:48	14:42:27	397466	6111f586fe99b25bb899861a	986651593	1	main_slash	7	advance_on_keypress_SLASH	58	stimuli_target_circlediamonds.svg	stimuli_distractor_trianglediamonds.svg	2	yes	57	0	284
6.6.1	win	2022-12-14	14:35:48	14:42:28	399084	6111f586fe99b25bb899861a	986651593	1	main_slash	7	main_slash	59	stimuli_distractor_diamondtriangles.svg	stimuli_target_circlediamonds.svg	14	yes	53	1	694
6.6.1	win	2022-12-14	14:35:48	14:42:28	399084	6111f586fe99b25bb899861a	986651593	1	main_slash	7	advance_on_keypress_SLASH	60	stimuli_distractor_diamondtriangles.svg	stimuli_target_circlediamonds.svg	14	yes	57	0	293
6.6.1	win	2022-12-14	14:35:48	14:42:30	400656	6111f586fe99b25bb899861a	986651593	1	main_slash	7	main_slash	61	stimuli_target_squaretriangles.svg	stimuli_distractor_diamondtriangles.svg	7	yes	53	1	650
6.6.1	win	2022-12-14	14:35:48	14:42:30	400656	6111f586fe99b25bb899861a	986651593	1	main_slash	7	advance_on_keypress_SLASH	62	stimuli_target_squaretriangles.svg	stimuli_distractor_diamondtriangles.svg	7	yes	57	0	224
6.6.1	win	2022-12-14	14:35:48	14:42:32	402376	6111f586fe99b25bb899861a	986651593	1	main_slash	7	main_slash	63	stimuli_target_trianglesquares.svg	stimuli_distractor_diamondtriangles.svg	22	yes	53	1	851
6.6.1	win	2022-12-14	14:35:48	14:42:32	402376	6111f586fe99b25bb899861a	986651593	1	main_slash	7	advance_on_keypress_SLASH	64	stimuli_target_trianglesquares.svg	stimuli_distractor_diamondtriangles.svg	22	yes	57	0	269
6.6.1	win	2022-12-14	14:35:48	14:42:33	404116	6111f586fe99b25bb899861a	986651593	1	main_slash	7	main_slash	65	stimuli_distractor_trianglediamonds.svg	stimuli_target_diamondcircles.svg	27	yes	53	1	826
6.6.1	win	2022-12-14	14:35:48	14:42:33	404116	6111f586fe99b25bb899861a	986651593	1	main_slash	7	advance_on_keypress_SLASH	66	stimuli_distractor_trianglediamonds.svg	stimuli_target_diamondcircles.svg	27	yes	57	0	287
6.6.1	win	2022-12-14	14:35:48	14:42:36	407044	6111f586fe99b25bb899861a	986651593	1	main_slash	7	main_slash	67	stimuli_distractor_diamondtriangles.svg	stimuli_distractor_diamondtriangles.svg	39	no	0	1	2000
6.6.1	win	2022-12-14	14:35:48	14:42:36	407044	6111f586fe99b25bb899861a	986651593	1	main_slash	7	advance_on_keypress_SLASH	68	stimuli_distractor_diamondtriangles.svg	stimuli_distractor_diamondtriangles.svg	39	no	57	0	357
6.6.1	win	2022-12-14	14:35:48	14:42:39	410042	6111f586fe99b25bb899861a	986651593	1	main_slash	7	main_slash	69	stimuli_distractor_trianglediamonds.svg	stimuli_distractor_trianglediamonds.svg	33	no	0	1	2000
6.6.1	win	2022-12-14	14:35:48	14:42:39	410042	6111f586fe99b25bb899861a	986651593	1	main_slash	7	advance_on_keypress_SLASH	70	stimuli_distractor_trianglediamonds.svg	stimuli_distractor_trianglediamonds.svg	33	no	57	0	381
6.6.1	win	2022-12-14	14:35:48	14:42:42	413058	6111f586fe99b25bb899861a	986651593	1	main_slash	7	main_slash	71	stimuli_distractor_diamondtriangles.svg	stimuli_distractor_diamondtriangles.svg	40	no	0	1	2000
6.6.1	win	2022-12-14	14:35:48	14:42:42	413058	6111f586fe99b25bb899861a	986651593	1	main_slash	7	advance_on_keypress_SLASH	72	stimuli_distractor_diamondtriangles.svg	stimuli_distractor_diamondtriangles.svg	40	no	57	0	627
6.6.1	win	2022-12-14	14:35:48	14:42:44	415092	6111f586fe99b25bb899861a	986651593	1	main_slash	7	main_slash	73	stimuli_target_trianglesquares.svg	stimuli_distractor_trianglediamonds.svg	18	yes	53	1	767
6.6.1	win	2022-12-14	14:35:48	14:42:44	415092	6111f586fe99b25bb899861a	986651593	1	main_slash	7	advance_on_keypress_SLASH	74	stimuli_target_trianglesquares.svg	stimuli_distractor_trianglediamonds.svg	18	yes	57	0	320
6.6.1	win	2022-12-14	14:35:48	14:42:47	418058	6111f586fe99b25bb899861a	986651593	1	main_slash	7	main_slash	75	stimuli_distractor_trianglediamonds.svg	stimuli_distractor_diamondtriangles.svg	36	no	0	1	2000
6.6.1	win	2022-12-14	14:35:48	14:42:47	418058	6111f586fe99b25bb899861a	986651593	1	main_slash	7	advance_on_keypress_SLASH	76	stimuli_distractor_trianglediamonds.svg	stimuli_distractor_diamondtriangles.svg	36	no	57	0	560
6.6.1	win	2022-12-14	14:35:48	14:42:49	420034	6111f586fe99b25bb899861a	986651593	1	main_slash	7	main_slash	77	stimuli_distractor_diamondtriangles.svg	stimuli_target_diamondsquares.svg	32	yes	53	1	777
6.6.1	win	2022-12-14	14:35:48	14:42:49	420034	6111f586fe99b25bb899861a	986651593	1	main_slash	7	advance_on_keypress_SLASH	78	stimuli_distractor_diamondtriangles.svg	stimuli_target_diamondsquares.svg	32	yes	57	0	265
6.6.1	win	2022-12-14	14:35:48	14:42:52	422167	6111f586fe99b25bb899861a	986651593	1	main_slash	7	main_slash	79	stimuli_target_diamondsquares.svg	stimuli_distractor_trianglediamonds.svg	20	yes	53	1	1243
6.6.1	win	2022-12-14	14:35:48	14:42:52	422167	6111f586fe99b25bb899861a	986651593	1	main_slash	7	advance_on_keypress_SLASH	80	stimuli_target_diamondsquares.svg	stimuli_distractor_trianglediamonds.svg	20	yes	57	0	276
6.6.1	win	2022-12-14	14:35:48	14:42:53	423803	6111f586fe99b25bb899861a	986651593	1	main_slash	7	main_slash	81	stimuli_target_circletriangles.svg	stimuli_distractor_trianglediamonds.svg	1	yes	53	1	729
6.6.1	win	2022-12-14	14:35:48	14:42:53	423803	6111f586fe99b25bb899861a	986651593	1	main_slash	7	advance_on_keypress_SLASH	82	stimuli_target_circletriangles.svg	stimuli_distractor_trianglediamonds.svg	1	yes	57	0	260
6.6.1	win	2022-12-14	14:35:48	14:42:56	426692	6111f586fe99b25bb899861a	986651593	1	main_slash	7	main_slash	83	stimuli_distractor_diamondtriangles.svg	stimuli_distractor_diamondtriangles.svg	40	no	0	1	2000
6.6.1	win	2022-12-14	14:35:48	14:42:56	426692	6111f586fe99b25bb899861a	986651593	1	main_slash	7	advance_on_keypress_SLASH	84	stimuli_distractor_diamondtriangles.svg	stimuli_distractor_diamondtriangles.svg	40	no	57	0	379
6.6.1	win	2022-12-14	14:35:48	14:42:58	428801	6111f586fe99b25bb899861a	986651593	1	main_slash	7	main_slash	85	stimuli_distractor_trianglediamonds.svg	stimuli_target_circletriangles.svg	9	yes	53	1	1094
6.6.1	win	2022-12-14	14:35:48	14:42:58	428801	6111f586fe99b25bb899861a	986651593	1	main_slash	7	advance_on_keypress_SLASH	86	stimuli_distractor_trianglediamonds.svg	stimuli_target_circletriangles.svg	9	yes	57	0	238
6.6.1	win	2022-12-14	14:35:48	14:43:00	430458	6111f586fe99b25bb899861a	986651593	1	main_slash	7	main_slash	87	stimuli_distractor_trianglediamonds.svg	stimuli_target_squarediamonds.svg	12	yes	53	1	783
6.6.1	win	2022-12-14	14:35:48	14:43:00	430458	6111f586fe99b25bb899861a	986651593	1	main_slash	7	advance_on_keypress_SLASH	88	stimuli_distractor_trianglediamonds.svg	stimuli_target_squarediamonds.svg	12	yes	57	0	217
6.6.1	win	2022-12-14	14:35:48	14:43:03	433325	6111f586fe99b25bb899861a	986651593	1	main_slash	7	main_slash	89	stimuli_distractor_trianglediamonds.svg	stimuli_distractor_trianglediamonds.svg	34	no	0	1	2000
6.6.1	win	2022-12-14	14:35:48	14:43:03	433325	6111f586fe99b25bb899861a	986651593	1	main_slash	7	advance_on_keypress_SLASH	90	stimuli_distractor_trianglediamonds.svg	stimuli_distractor_trianglediamonds.svg	34	no	57	0	798
6.6.1	win	2022-12-14	14:35:48	14:43:05	435461	6111f586fe99b25bb899861a	986651593	1	main_slash	7	main_slash	91	stimuli_target_squarediamonds.svg	stimuli_distractor_diamondtriangles.svg	8	yes	53	1	703
6.6.1	win	2022-12-14	14:35:48	14:43:05	435461	6111f586fe99b25bb899861a	986651593	1	main_slash	7	advance_on_keypress_SLASH	92	stimuli_target_squarediamonds.svg	stimuli_distractor_diamondtriangles.svg	8	yes	57	0	289
6.6.1	win	2022-12-14	14:35:48	14:43:06	437011	6111f586fe99b25bb899861a	986651593	1	main_slash	7	main_slash	93	stimuli_distractor_diamondtriangles.svg	stimuli_target_squarediamonds.svg	16	yes	53	1	620
6.6.1	win	2022-12-14	14:35:48	14:43:06	437011	6111f586fe99b25bb899861a	986651593	1	main_slash	7	advance_on_keypress_SLASH	94	stimuli_distractor_diamondtriangles.svg	stimuli_target_squarediamonds.svg	16	yes	57	0	341
6.6.1	win	2022-12-14	14:35:48	14:43:08	438597	6111f586fe99b25bb899861a	986651593	1	main_slash	7	main_slash	95	stimuli_target_circlediamonds.svg	stimuli_distractor_trianglediamonds.svg	2	yes	53	1	605
6.6.1	win	2022-12-14	14:35:48	14:43:08	438597	6111f586fe99b25bb899861a	986651593	1	main_slash	7	advance_on_keypress_SLASH	96	stimuli_target_circlediamonds.svg	stimuli_distractor_trianglediamonds.svg	2	yes	57	0	348
6.6.1	win	2022-12-14	14:35:48	14:43:10	440263	6111f586fe99b25bb899861a	986651593	1	main_slash	7	main_slash	97	stimuli_target_squarediamonds.svg	stimuli_distractor_trianglediamonds.svg	4	yes	53	1	672
6.6.1	win	2022-12-14	14:35:48	14:43:10	440263	6111f586fe99b25bb899861a	986651593	1	main_slash	7	advance_on_keypress_SLASH	98	stimuli_target_squarediamonds.svg	stimuli_distractor_trianglediamonds.svg	4	yes	57	0	289
6.6.1	win	2022-12-14	14:35:48	14:43:11	441795	6111f586fe99b25bb899861a	986651593	1	main_slash	7	main_slash	99	stimuli_distractor_trianglediamonds.svg	stimuli_target_diamondcircles.svg	27	yes	53	1	604
6.6.1	win	2022-12-14	14:35:48	14:43:11	441795	6111f586fe99b25bb899861a	986651593	1	main_slash	7	advance_on_keypress_SLASH	100	stimuli_distractor_trianglediamonds.svg	stimuli_target_diamondcircles.svg	27	yes	57	0	290
6.6.1	win	2022-12-14	14:35:48	14:43:13	443337	6111f586fe99b25bb899861a	986651593	1	main_slash	7	main_slash	101	stimuli_distractor_trianglediamonds.svg	stimuli_target_circlediamonds.svg	10	yes	53	1	613
6.6.1	win	2022-12-14	14:35:48	14:43:13	443337	6111f586fe99b25bb899861a	986651593	1	main_slash	7	advance_on_keypress_SLASH	102	stimuli_distractor_trianglediamonds.svg	stimuli_target_circlediamonds.svg	10	yes	57	0	274
6.6.1	win	2022-12-14	14:35:48	14:43:16	446242	6111f586fe99b25bb899861a	986651593	1	main_slash	7	main_slash	103	stimuli_distractor_diamondtriangles.svg	stimuli_distractor_diamondtriangles.svg	39	no	0	1	2000
6.6.1	win	2022-12-14	14:35:48	14:43:16	446242	6111f586fe99b25bb899861a	986651593	1	main_slash	7	advance_on_keypress_SLASH	104	stimuli_distractor_diamondtriangles.svg	stimuli_distractor_diamondtriangles.svg	39	no	57	0	6293
6.6.1	win	2022-12-14	14:35:48	14:43:24	454286	6111f586fe99b25bb899861a	986651593	1	main_slash	7	main_slash	105	stimuli_distractor_diamondtriangles.svg	stimuli_target_circlediamonds.svg	14	yes	53	1	1110
6.6.1	win	2022-12-14	14:35:48	14:43:24	454286	6111f586fe99b25bb899861a	986651593	1	main_slash	7	advance_on_keypress_SLASH	106	stimuli_distractor_diamondtriangles.svg	stimuli_target_circlediamonds.svg	14	yes	57	0	182
6.6.1	win	2022-12-14	14:35:48	14:43:25	455739	6111f586fe99b25bb899861a	986651593	1	main_slash	7	main_slash	107	stimuli_distractor_diamondtriangles.svg	stimuli_target_circletriangles.svg	13	yes	53	1	648
6.6.1	win	2022-12-14	14:35:48	14:43:25	455739	6111f586fe99b25bb899861a	986651593	1	main_slash	7	advance_on_keypress_SLASH	108	stimuli_distractor_diamondtriangles.svg	stimuli_target_circletriangles.svg	13	yes	57	0	220
6.6.1	win	2022-12-14	14:35:48	14:43:28	458593	6111f586fe99b25bb899861a	986651593	1	main_slash	7	main_slash	109	stimuli_distractor_diamondtriangles.svg	stimuli_distractor_trianglediamonds.svg	38	no	0	1	2000
6.6.1	win	2022-12-14	14:35:48	14:43:28	458593	6111f586fe99b25bb899861a	986651593	1	main_slash	7	advance_on_keypress_SLASH	110	stimuli_distractor_diamondtriangles.svg	stimuli_distractor_trianglediamonds.svg	38	no	57	0	587
6.6.1	win	2022-12-14	14:35:48	14:43:30	460647	6111f586fe99b25bb899861a	986651593	1	main_slash	7	main_slash	111	stimuli_target_diamondsquares.svg	stimuli_distractor_diamondtriangles.svg	24	yes	53	1	821
6.6.1	win	2022-12-14	14:35:48	14:43:30	460647	6111f586fe99b25bb899861a	986651593	1	main_slash	7	advance_on_keypress_SLASH	112	stimuli_target_diamondsquares.svg	stimuli_distractor_diamondtriangles.svg	24	yes	57	0	239
6.6.1	win	2022-12-14	14:35:48	14:43:32	462813	6111f586fe99b25bb899861a	986651593	1	main_slash	7	main_slash	113	stimuli_target_trianglesquares.svg	stimuli_distractor_diamondtriangles.svg	22	yes	53	1	1288
6.6.1	win	2022-12-14	14:35:48	14:43:32	462813	6111f586fe99b25bb899861a	986651593	1	main_slash	7	advance_on_keypress_SLASH	114	stimuli_target_trianglesquares.svg	stimuli_distractor_diamondtriangles.svg	22	yes	57	0	237
6.6.1	win	2022-12-14	14:35:48	14:43:35	465693	6111f586fe99b25bb899861a	986651593	1	main_slash	7	main_slash	115	stimuli_distractor_trianglediamonds.svg	stimuli_distractor_diamondtriangles.svg	35	no	0	1	2000
6.6.1	win	2022-12-14	14:35:48	14:43:35	465693	6111f586fe99b25bb899861a	986651593	1	main_slash	7	advance_on_keypress_SLASH	116	stimuli_distractor_trianglediamonds.svg	stimuli_distractor_diamondtriangles.svg	35	no	57	0	302
6.6.1	win	2022-12-14	14:35:48	14:43:37	467271	6111f586fe99b25bb899861a	986651593	1	main_slash	7	main_slash	117	stimuli_target_diamondcircles.svg	stimuli_distractor_diamondtriangles.svg	23	yes	53	1	628
6.6.1	win	2022-12-14	14:35:48	14:43:37	467271	6111f586fe99b25bb899861a	986651593	1	main_slash	7	advance_on_keypress_SLASH	118	stimuli_target_diamondcircles.svg	stimuli_distractor_diamondtriangles.svg	23	yes	57	0	237
6.6.1	win	2022-12-14	14:35:48	14:43:38	468873	6111f586fe99b25bb899861a	986651593	1	main_slash	7	main_slash	119	stimuli_target_trianglesquares.svg	stimuli_distractor_trianglediamonds.svg	18	yes	53	1	730
6.6.1	win	2022-12-14	14:35:48	14:43:38	468873	6111f586fe99b25bb899861a	986651593	1	main_slash	7	advance_on_keypress_SLASH	120	stimuli_target_trianglesquares.svg	stimuli_distractor_trianglediamonds.svg	18	yes	57	0	247
6.6.1	win	2022-12-14	14:35:48	14:43:40	470412	6111f586fe99b25bb899861a	986651593	1	main_slash	7	main_slash	121	stimuli_target_circlediamonds.svg	stimuli_distractor_diamondtriangles.svg	6	yes	53	1	669
6.6.1	win	2022-12-14	14:35:48	14:43:40	470412	6111f586fe99b25bb899861a	986651593	1	main_slash	7	advance_on_keypress_SLASH	122	stimuli_target_circlediamonds.svg	stimuli_distractor_diamondtriangles.svg	6	yes	57	0	262
6.6.1	win	2022-12-14	14:35:48	14:43:41	471968	6111f586fe99b25bb899861a	986651593	1	main_slash	7	main_slash	123	stimuli_distractor_diamondtriangles.svg	stimuli_target_squaretriangles.svg	15	yes	53	1	658
6.6.1	win	2022-12-14	14:35:48	14:43:41	471968	6111f586fe99b25bb899861a	986651593	1	main_slash	7	advance_on_keypress_SLASH	124	stimuli_distractor_diamondtriangles.svg	stimuli_target_squaretriangles.svg	15	yes	57	0	275
6.6.1	win	2022-12-14	14:35:48	14:43:44	474876	6111f586fe99b25bb899861a	986651593	1	main_slash	7	main_slash	125	stimuli_distractor_trianglediamonds.svg	stimuli_distractor_trianglediamonds.svg	33	no	0	1	2000
6.6.1	win	2022-12-14	14:35:48	14:43:44	474876	6111f586fe99b25bb899861a	986651593	1	main_slash	7	advance_on_keypress_SLASH	126	stimuli_distractor_trianglediamonds.svg	stimuli_distractor_trianglediamonds.svg	33	no	57	0	417
6.6.1	win	2022-12-14	14:35:48	14:43:46	476604	6111f586fe99b25bb899861a	986651593	1	main_slash	7	main_slash	127	stimuli_distractor_diamondtriangles.svg	stimuli_target_trianglecircles.svg	29	yes	53	1	661
6.6.1	win	2022-12-14	14:35:48	14:43:46	476604	6111f586fe99b25bb899861a	986651593	1	main_slash	7	advance_on_keypress_SLASH	128	stimuli_distractor_diamondtriangles.svg	stimuli_target_trianglecircles.svg	29	yes	57	0	219
6.6.1	win	2022-12-14	14:35:48	14:43:47	478030	6111f586fe99b25bb899861a	986651593	1	main_slash	7	main_slash	129	stimuli_target_trianglecircles.svg	stimuli_distractor_trianglediamonds.svg	17	yes	53	1	571
6.6.1	win	2022-12-14	14:35:48	14:43:47	478030	6111f586fe99b25bb899861a	986651593	1	main_slash	7	advance_on_keypress_SLASH	130	stimuli_target_trianglecircles.svg	stimuli_distractor_trianglediamonds.svg	17	yes	57	0	264
6.6.1	win	2022-12-14	14:35:48	14:43:49	479748	6111f586fe99b25bb899861a	986651593	1	main_slash	7	main_slash	131	stimuli_target_squaretriangles.svg	stimuli_distractor_diamondtriangles.svg	7	yes	53	1	822
6.6.1	win	2022-12-14	14:35:48	14:43:49	479748	6111f586fe99b25bb899861a	986651593	1	main_slash	7	advance_on_keypress_SLASH	132	stimuli_target_squaretriangles.svg	stimuli_distractor_diamondtriangles.svg	7	yes	57	0	231
6.6.1	win	2022-12-14	14:35:48	14:43:51	481333	6111f586fe99b25bb899861a	986651593	1	main_slash	7	main_slash	133	stimuli_distractor_diamondtriangles.svg	stimuli_target_diamondsquares.svg	32	yes	53	1	724
6.6.1	win	2022-12-14	14:35:48	14:43:51	481333	6111f586fe99b25bb899861a	986651593	1	main_slash	7	advance_on_keypress_SLASH	134	stimuli_distractor_diamondtriangles.svg	stimuli_target_diamondsquares.svg	32	yes	57	0	286
6.6.1	win	2022-12-14	14:35:48	14:43:52	482875	6111f586fe99b25bb899861a	986651593	1	main_slash	7	main_slash	135	stimuli_target_trianglecircles.svg	stimuli_distractor_diamondtriangles.svg	21	yes	53	1	615
6.6.1	win	2022-12-14	14:35:48	14:43:52	482875	6111f586fe99b25bb899861a	986651593	1	main_slash	7	advance_on_keypress_SLASH	136	stimuli_target_trianglecircles.svg	stimuli_distractor_diamondtriangles.svg	21	yes	57	0	209
6.6.1	win	2022-12-14	14:35:48	14:43:54	484345	6111f586fe99b25bb899861a	986651593	1	main_slash	7	main_slash	137	stimuli_distractor_diamondtriangles.svg	stimuli_target_trianglesquares.svg	30	yes	53	1	618
6.6.1	win	2022-12-14	14:35:48	14:43:54	484345	6111f586fe99b25bb899861a	986651593	1	main_slash	7	advance_on_keypress_SLASH	138	stimuli_distractor_diamondtriangles.svg	stimuli_target_trianglesquares.svg	30	yes	57	0	242
6.6.1	win	2022-12-14	14:35:48	14:43:55	485823	6111f586fe99b25bb899861a	986651593	1	main_slash	7	main_slash	139	stimuli_distractor_trianglediamonds.svg	stimuli_target_trianglecircles.svg	25	yes	53	1	597
6.6.1	win	2022-12-14	14:35:48	14:43:55	485823	6111f586fe99b25bb899861a	986651593	1	main_slash	7	advance_on_keypress_SLASH	140	stimuli_distractor_trianglediamonds.svg	stimuli_target_trianglecircles.svg	25	yes	57	0	336
6.6.1	win	2022-12-14	14:35:48	14:43:57	487375	6111f586fe99b25bb899861a	986651593	1	main_slash	7	main_slash	141	stimuli_distractor_trianglediamonds.svg	stimuli_target_trianglesquares.svg	26	yes	53	1	556
6.6.1	win	2022-12-14	14:35:48	14:43:57	487375	6111f586fe99b25bb899861a	986651593	1	main_slash	7	advance_on_keypress_SLASH	142	stimuli_distractor_trianglediamonds.svg	stimuli_target_trianglesquares.svg	26	yes	57	0	216
6.6.1	win	2022-12-14	14:35:48	14:43:58	488890	6111f586fe99b25bb899861a	986651593	1	main_slash	7	main_slash	143	stimuli_distractor_trianglediamonds.svg	stimuli_target_diamondsquares.svg	28	yes	53	1	647
6.6.1	win	2022-12-14	14:35:48	14:43:58	488890	6111f586fe99b25bb899861a	986651593	1	main_slash	7	advance_on_keypress_SLASH	144	stimuli_distractor_trianglediamonds.svg	stimuli_target_diamondsquares.svg	28	yes	57	0	270
6.6.1	win	2022-12-14	14:35:48	14:44:00	490402	6111f586fe99b25bb899861a	986651593	1	main_slash	7	main_slash	145	stimuli_target_diamondsquares.svg	stimuli_distractor_trianglediamonds.svg	20	yes	53	1	609
6.6.1	win	2022-12-14	14:35:48	14:44:00	490402	6111f586fe99b25bb899861a	986651593	1	main_slash	7	advance_on_keypress_SLASH	146	stimuli_target_diamondsquares.svg	stimuli_distractor_trianglediamonds.svg	20	yes	57	0	255
6.6.1	win	2022-12-14	14:35:48	14:44:03	493295	6111f586fe99b25bb899861a	986651593	1	main_slash	7	main_slash	147	stimuli_distractor_trianglediamonds.svg	stimuli_distractor_diamondtriangles.svg	36	no	0	1	2000
6.6.1	win	2022-12-14	14:35:48	14:44:03	493295	6111f586fe99b25bb899861a	986651593	1	main_slash	7	advance_on_keypress_SLASH	148	stimuli_distractor_trianglediamonds.svg	stimuli_distractor_diamondtriangles.svg	36	no	57	0	306
6.6.1	win	2022-12-14	14:35:48	14:44:04	494945	6111f586fe99b25bb899861a	986651593	1	main_slash	7	main_slash	149	stimuli_distractor_diamondtriangles.svg	stimuli_target_diamondcircles.svg	31	yes	53	1	700
6.6.1	win	2022-12-14	14:35:48	14:44:04	494945	6111f586fe99b25bb899861a	986651593	1	main_slash	7	advance_on_keypress_SLASH	150	stimuli_distractor_diamondtriangles.svg	stimuli_target_diamondcircles.svg	31	yes	57	0	191
6.6.1	win	2022-12-14	14:35:48	14:44:06	496401	6111f586fe99b25bb899861a	986651593	1	main_slash	7	main_slash	151	stimuli_target_diamondcircles.svg	stimuli_distractor_trianglediamonds.svg	19	yes	53	1	625
6.6.1	win	2022-12-14	14:35:48	14:44:06	496401	6111f586fe99b25bb899861a	986651593	1	main_slash	7	advance_on_keypress_SLASH	152	stimuli_target_diamondcircles.svg	stimuli_distractor_trianglediamonds.svg	19	yes	57	0	285
6.6.1	win	2022-12-14	14:35:48	14:44:09	499327	6111f586fe99b25bb899861a	986651593	1	main_slash	7	main_slash	153	stimuli_distractor_diamondtriangles.svg	stimuli_distractor_trianglediamonds.svg	37	no	0	1	2000
6.6.1	win	2022-12-14	14:35:48	14:44:09	499327	6111f586fe99b25bb899861a	986651593	1	main_slash	7	advance_on_keypress_SLASH	154	stimuli_distractor_diamondtriangles.svg	stimuli_distractor_trianglediamonds.svg	37	no	57	0	514
6.6.1	win	2022-12-14	14:35:48	14:44:11	501201	6111f586fe99b25bb899861a	986651593	1	main_slash	7	main_slash	155	stimuli_target_squaretriangles.svg	stimuli_distractor_trianglediamonds.svg	3	yes	53	1	725
6.6.1	win	2022-12-14	14:35:48	14:44:11	501201	6111f586fe99b25bb899861a	986651593	1	main_slash	7	advance_on_keypress_SLASH	156	stimuli_target_squaretriangles.svg	stimuli_distractor_trianglediamonds.svg	3	yes	57	0	225
6.6.1	win	2022-12-14	14:35:48	14:44:12	502623	6111f586fe99b25bb899861a	986651593	1	main_slash	7	main_slash	157	stimuli_target_circletriangles.svg	stimuli_distractor_diamondtriangles.svg	5	yes	53	1	564
6.6.1	win	2022-12-14	14:35:48	14:44:12	502623	6111f586fe99b25bb899861a	986651593	1	main_slash	7	advance_on_keypress_SLASH	158	stimuli_target_circletriangles.svg	stimuli_distractor_diamondtriangles.svg	5	yes	57	0	219
6.6.1	win	2022-12-14	14:35:48	14:44:13	504071	6111f586fe99b25bb899861a	986651593	1	main_slash	7	main_slash	159	stimuli_distractor_trianglediamonds.svg	stimuli_target_squaretriangles.svg	11	yes	53	1	595
6.6.1	win	2022-12-14	14:35:48	14:44:13	504071	6111f586fe99b25bb899861a	986651593	1	main_slash	7	advance_on_keypress_SLASH	160	stimuli_distractor_trianglediamonds.svg	stimuli_target_squaretriangles.svg	11	yes	57	0	236
6.6.1	win	2022-12-14	14:35:48	14:44:41	531483	6111f586fe99b25bb899861a	986651593	1	practice_z	9	practice_z	1	stimuli_distractor_diamondtriangles.svg	stimuli_target_circletriangles.svg	7	yes	44	1	1355
6.6.1	win	2022-12-14	14:35:48	14:44:41	531483	6111f586fe99b25bb899861a	986651593	1	practice_z	9	advance_on_keypress_ZEE	2	stimuli_distractor_diamondtriangles.svg	stimuli_target_circletriangles.svg	7	yes	57	0	582
6.6.1	win	2022-12-14	14:35:48	14:44:44	534327	6111f586fe99b25bb899861a	986651593	1	practice_z	9	practice_z	3	stimuli_target_diamondsquares.svg	stimuli_distractor_diamondtriangles.svg	3	yes	44	1	616
6.6.1	win	2022-12-14	14:35:48	14:44:44	534327	6111f586fe99b25bb899861a	986651593	1	practice_z	9	advance_on_keypress_ZEE	4	stimuli_target_diamondsquares.svg	stimuli_distractor_diamondtriangles.svg	3	yes	57	0	671
6.6.1	win	2022-12-14	14:35:48	14:44:47	537368	6111f586fe99b25bb899861a	986651593	1	practice_z	9	practice_z	5	stimuli_target_squarediamonds.svg	stimuli_distractor_diamondtriangles.svg	2	yes	44	1	723
6.6.1	win	2022-12-14	14:35:48	14:44:47	537368	6111f586fe99b25bb899861a	986651593	1	practice_z	9	advance_on_keypress_ZEE	6	stimuli_target_squarediamonds.svg	stimuli_distractor_diamondtriangles.svg	2	yes	57	0	402
6.6.1	win	2022-12-14	14:35:48	14:44:50	540206	6111f586fe99b25bb899861a	986651593	1	practice_z	9	practice_z	7	stimuli_distractor_diamondtriangles.svg	stimuli_target_trianglecircles.svg	9	yes	44	1	795
6.6.1	win	2022-12-14	14:35:48	14:44:50	540206	6111f586fe99b25bb899861a	986651593	1	practice_z	9	advance_on_keypress_ZEE	8	stimuli_distractor_diamondtriangles.svg	stimuli_target_trianglecircles.svg	9	yes	57	0	386
6.6.1	win	2022-12-14	14:35:48	14:44:52	542726	6111f586fe99b25bb899861a	986651593	1	practice_z	9	practice_z	9	stimuli_target_circlediamonds.svg	stimuli_distractor_trianglediamonds.svg	4	yes	44	1	498
6.6.1	win	2022-12-14	14:35:48	14:44:52	542726	6111f586fe99b25bb899861a	986651593	1	practice_z	9	advance_on_keypress_ZEE	10	stimuli_target_circlediamonds.svg	stimuli_distractor_trianglediamonds.svg	4	yes	57	0	409
6.6.1	win	2022-12-14	14:35:48	14:44:55	545588	6111f586fe99b25bb899861a	986651593	1	practice_z	9	practice_z	11	stimuli_target_diamondsquares.svg	stimuli_distractor_trianglediamonds.svg	6	yes	44	1	826
6.6.1	win	2022-12-14	14:35:48	14:44:55	545588	6111f586fe99b25bb899861a	986651593	1	practice_z	9	advance_on_keypress_ZEE	12	stimuli_target_diamondsquares.svg	stimuli_distractor_trianglediamonds.svg	6	yes	57	0	296
6.6.1	win	2022-12-14	14:35:48	14:44:59	549514	6111f586fe99b25bb899861a	986651593	1	practice_z	9	practice_z	13	stimuli_distractor_diamondtriangles.svg	stimuli_distractor_diamondtriangles.svg	13	no	0	1	2000
6.6.1	win	2022-12-14	14:35:48	14:44:59	549514	6111f586fe99b25bb899861a	986651593	1	practice_z	9	advance_on_keypress_ZEE	14	stimuli_distractor_diamondtriangles.svg	stimuli_distractor_diamondtriangles.svg	13	no	57	0	415
6.6.1	win	2022-12-14	14:35:48	14:45:03	553580	6111f586fe99b25bb899861a	986651593	1	practice_z	9	practice_z	15	stimuli_distractor_trianglediamonds.svg	stimuli_distractor_diamondtriangles.svg	16	no	0	1	2000
6.6.1	win	2022-12-14	14:35:48	14:45:03	553580	6111f586fe99b25bb899861a	986651593	1	practice_z	9	advance_on_keypress_ZEE	16	stimuli_distractor_trianglediamonds.svg	stimuli_distractor_diamondtriangles.svg	16	no	57	0	509
6.6.1	win	2022-12-14	14:35:48	14:45:06	556374	6111f586fe99b25bb899861a	986651593	1	practice_z	9	practice_z	17	stimuli_distractor_diamondtriangles.svg	stimuli_target_diamondcircles.svg	8	yes	44	1	645
6.6.1	win	2022-12-14	14:35:48	14:45:06	556374	6111f586fe99b25bb899861a	986651593	1	practice_z	9	advance_on_keypress_ZEE	18	stimuli_distractor_diamondtriangles.svg	stimuli_target_diamondcircles.svg	8	yes	57	0	749
6.6.1	win	2022-12-14	14:35:48	14:45:09	559489	6111f586fe99b25bb899861a	986651593	1	practice_z	9	practice_z	19	stimuli_target_squarediamonds.svg	stimuli_distractor_trianglediamonds.svg	5	yes	44	1	727
6.6.1	win	2022-12-14	14:35:48	14:45:09	559489	6111f586fe99b25bb899861a	986651593	1	practice_z	9	advance_on_keypress_ZEE	20	stimuli_target_squarediamonds.svg	stimuli_distractor_trianglediamonds.svg	5	yes	57	0	701
6.6.1	win	2022-12-14	14:35:48	14:45:12	562810	6111f586fe99b25bb899861a	986651593	1	practice_z	9	practice_z	21	stimuli_distractor_trianglediamonds.svg	stimuli_target_squarediamonds.svg	11	yes	44	1	981
6.6.1	win	2022-12-14	14:35:48	14:45:12	562810	6111f586fe99b25bb899861a	986651593	1	practice_z	9	advance_on_keypress_ZEE	22	stimuli_distractor_trianglediamonds.svg	stimuli_target_squarediamonds.svg	11	yes	57	0	456
6.6.1	win	2022-12-14	14:35:48	14:45:16	566897	6111f586fe99b25bb899861a	986651593	1	practice_z	9	practice_z	23	stimuli_distractor_trianglediamonds.svg	stimuli_distractor_trianglediamonds.svg	15	no	0	1	2000
6.6.1	win	2022-12-14	14:35:48	14:45:16	566897	6111f586fe99b25bb899861a	986651593	1	practice_z	9	advance_on_keypress_ZEE	24	stimuli_distractor_trianglediamonds.svg	stimuli_distractor_trianglediamonds.svg	15	no	57	0	581
6.6.1	win	2022-12-14	14:35:48	14:45:19	569742	6111f586fe99b25bb899861a	986651593	1	practice_z	9	practice_z	25	stimuli_distractor_trianglediamonds.svg	stimuli_target_circlediamonds.svg	10	yes	44	1	631
6.6.1	win	2022-12-14	14:35:48	14:45:19	569742	6111f586fe99b25bb899861a	986651593	1	practice_z	9	advance_on_keypress_ZEE	26	stimuli_distractor_trianglediamonds.svg	stimuli_target_circlediamonds.svg	10	yes	57	0	569
6.6.1	win	2022-12-14	14:35:48	14:45:22	572558	6111f586fe99b25bb899861a	986651593	1	practice_z	9	practice_z	27	stimuli_target_circlediamonds.svg	stimuli_distractor_diamondtriangles.svg	1	yes	44	1	612
6.6.1	win	2022-12-14	14:35:48	14:45:22	572558	6111f586fe99b25bb899861a	986651593	1	practice_z	9	advance_on_keypress_ZEE	28	stimuli_target_circlediamonds.svg	stimuli_distractor_diamondtriangles.svg	1	yes	57	0	688
6.6.1	win	2022-12-14	14:35:48	14:45:25	575511	6111f586fe99b25bb899861a	986651593	1	practice_z	9	practice_z	29	stimuli_distractor_trianglediamonds.svg	stimuli_target_diamondcircles.svg	12	yes	44	1	633
6.6.1	win	2022-12-14	14:35:48	14:45:25	575511	6111f586fe99b25bb899861a	986651593	1	practice_z	9	advance_on_keypress_ZEE	30	stimuli_distractor_trianglediamonds.svg	stimuli_target_diamondcircles.svg	12	yes	57	0	493
6.6.1	win	2022-12-14	14:35:48	14:45:29	579648	6111f586fe99b25bb899861a	986651593	1	practice_z	9	practice_z	31	stimuli_distractor_diamondtriangles.svg	stimuli_distractor_trianglediamonds.svg	14	no	0	1	2000
6.6.1	win	2022-12-14	14:35:48	14:45:29	579648	6111f586fe99b25bb899861a	986651593	1	practice_z	9	advance_on_keypress_ZEE	32	stimuli_distractor_diamondtriangles.svg	stimuli_distractor_trianglediamonds.svg	14	no	57	0	437
6.6.1	win	2022-12-14	14:35:48	14:45:36	586570	6111f586fe99b25bb899861a	986651593	1	main_z	11	main_z	1	stimuli_distractor_diamondtriangles.svg	stimuli_target_squaretriangles.svg	15	yes	44	1	1007
6.6.1	win	2022-12-14	14:35:48	14:45:36	586570	6111f586fe99b25bb899861a	986651593	1	main_z	11	advance_on_keypress_ZEE	2	stimuli_distractor_diamondtriangles.svg	stimuli_target_squaretriangles.svg	15	yes	57	0	567
6.6.1	win	2022-12-14	14:35:48	14:45:39	589780	6111f586fe99b25bb899861a	986651593	1	main_z	11	main_z	3	stimuli_distractor_trianglediamonds.svg	stimuli_distractor_diamondtriangles.svg	35	no	0	1	2000
6.6.1	win	2022-12-14	14:35:48	14:45:39	589780	6111f586fe99b25bb899861a	986651593	1	main_z	11	advance_on_keypress_ZEE	4	stimuli_distractor_trianglediamonds.svg	stimuli_distractor_diamondtriangles.svg	35	no	57	0	304
6.6.1	win	2022-12-14	14:35:48	14:45:41	591247	6111f586fe99b25bb899861a	986651593	1	main_z	11	main_z	5	stimuli_target_diamondcircles.svg	stimuli_distractor_diamondtriangles.svg	23	yes	44	1	501
6.6.1	win	2022-12-14	14:35:48	14:45:41	591247	6111f586fe99b25bb899861a	986651593	1	main_z	11	advance_on_keypress_ZEE	6	stimuli_target_diamondcircles.svg	stimuli_distractor_diamondtriangles.svg	23	yes	57	0	456
6.6.1	win	2022-12-14	14:35:48	14:45:43	593318	6111f586fe99b25bb899861a	986651593	1	main_z	11	main_z	7	stimuli_distractor_trianglediamonds.svg	stimuli_target_circlediamonds.svg	10	yes	44	1	973
6.6.1	win	2022-12-14	14:35:48	14:45:43	593318	6111f586fe99b25bb899861a	986651593	1	main_z	11	advance_on_keypress_ZEE	8	stimuli_distractor_trianglediamonds.svg	stimuli_target_circlediamonds.svg	10	yes	57	0	186
6.6.1	win	2022-12-14	14:35:48	14:45:44	594887	6111f586fe99b25bb899861a	986651593	1	main_z	11	main_z	9	stimuli_distractor_diamondtriangles.svg	stimuli_target_circletriangles.svg	13	yes	44	1	741
6.6.1	win	2022-12-14	14:35:48	14:45:44	594887	6111f586fe99b25bb899861a	986651593	1	main_z	11	advance_on_keypress_ZEE	10	stimuli_distractor_diamondtriangles.svg	stimuli_target_circletriangles.svg	13	yes	57	0	223
6.6.1	win	2022-12-14	14:35:48	14:45:46	596416	6111f586fe99b25bb899861a	986651593	1	main_z	11	main_z	11	stimuli_target_diamondcircles.svg	stimuli_distractor_trianglediamonds.svg	19	yes	44	1	670
6.6.1	win	2022-12-14	14:35:48	14:45:46	596416	6111f586fe99b25bb899861a	986651593	1	main_z	11	advance_on_keypress_ZEE	12	stimuli_target_diamondcircles.svg	stimuli_distractor_trianglediamonds.svg	19	yes	57	0	189
6.6.1	win	2022-12-14	14:35:48	14:45:47	598036	6111f586fe99b25bb899861a	986651593	1	main_z	11	main_z	13	stimuli_target_diamondsquares.svg	stimuli_distractor_trianglediamonds.svg	20	yes	44	1	790
6.6.1	win	2022-12-14	14:35:48	14:45:47	598036	6111f586fe99b25bb899861a	986651593	1	main_z	11	advance_on_keypress_ZEE	14	stimuli_target_diamondsquares.svg	stimuli_distractor_trianglediamonds.svg	20	yes	57	0	171
6.6.1	win	2022-12-14	14:35:48	14:45:50	600847	6111f586fe99b25bb899861a	986651593	1	main_z	11	main_z	15	stimuli_distractor_trianglediamonds.svg	stimuli_distractor_trianglediamonds.svg	33	no	0	1	2000
6.6.1	win	2022-12-14	14:35:48	14:45:50	600847	6111f586fe99b25bb899861a	986651593	1	main_z	11	advance_on_keypress_ZEE	16	stimuli_distractor_trianglediamonds.svg	stimuli_distractor_trianglediamonds.svg	33	no	57	0	261
6.6.1	win	2022-12-14	14:35:48	14:45:52	602353	6111f586fe99b25bb899861a	986651593	1	main_z	11	main_z	17	stimuli_target_circletriangles.svg	stimuli_distractor_diamondtriangles.svg	5	yes	44	1	607
6.6.1	win	2022-12-14	14:35:48	14:45:52	602353	6111f586fe99b25bb899861a	986651593	1	main_z	11	advance_on_keypress_ZEE	18	stimuli_target_circletriangles.svg	stimuli_distractor_diamondtriangles.svg	5	yes	57	0	175
6.6.1	win	2022-12-14	14:35:48	14:45:55	605164	6111f586fe99b25bb899861a	986651593	1	main_z	11	main_z	19	stimuli_distractor_trianglediamonds.svg	stimuli_distractor_diamondtriangles.svg	36	no	0	1	2000
6.6.1	win	2022-12-14	14:35:48	14:45:55	605164	6111f586fe99b25bb899861a	986651593	1	main_z	11	advance_on_keypress_ZEE	20	stimuli_distractor_trianglediamonds.svg	stimuli_distractor_diamondtriangles.svg	36	no	57	0	320
6.6.1	win	2022-12-14	14:35:48	14:45:56	606927	6111f586fe99b25bb899861a	986651593	1	main_z	11	main_z	21	stimuli_distractor_trianglediamonds.svg	stimuli_target_circletriangles.svg	9	yes	44	1	798
6.6.1	win	2022-12-14	14:35:48	14:45:56	606927	6111f586fe99b25bb899861a	986651593	1	main_z	11	advance_on_keypress_ZEE	22	stimuli_distractor_trianglediamonds.svg	stimuli_target_circletriangles.svg	9	yes	57	0	213
6.6.1	win	2022-12-14	14:35:48	14:45:58	608567	6111f586fe99b25bb899861a	986651593	1	main_z	11	main_z	23	stimuli_distractor_trianglediamonds.svg	stimuli_target_trianglesquares.svg	26	yes	44	1	804
6.6.1	win	2022-12-14	14:35:48	14:45:58	608567	6111f586fe99b25bb899861a	986651593	1	main_z	11	advance_on_keypress_ZEE	24	stimuli_distractor_trianglediamonds.svg	stimuli_target_trianglesquares.svg	26	yes	57	0	202
6.6.1	win	2022-12-14	14:35:48	14:45:59	610060	6111f586fe99b25bb899861a	986651593	1	main_z	11	main_z	25	stimuli_target_circlediamonds.svg	stimuli_distractor_diamondtriangles.svg	6	yes	44	1	647
6.6.1	win	2022-12-14	14:35:48	14:45:59	610060	6111f586fe99b25bb899861a	986651593	1	main_z	11	advance_on_keypress_ZEE	26	stimuli_target_circlediamonds.svg	stimuli_distractor_diamondtriangles.svg	6	yes	57	0	214
6.6.1	win	2022-12-14	14:35:48	14:46:01	611535	6111f586fe99b25bb899861a	986651593	1	main_z	11	main_z	27	stimuli_distractor_trianglediamonds.svg	stimuli_target_squaretriangles.svg	11	yes	44	1	639
6.6.1	win	2022-12-14	14:35:48	14:46:01	611535	6111f586fe99b25bb899861a	986651593	1	main_z	11	advance_on_keypress_ZEE	28	stimuli_distractor_trianglediamonds.svg	stimuli_target_squaretriangles.svg	11	yes	57	0	225
6.6.1	win	2022-12-14	14:35:48	14:46:02	613072	6111f586fe99b25bb899861a	986651593	1	main_z	11	main_z	29	stimuli_target_squaretriangles.svg	stimuli_distractor_trianglediamonds.svg	3	yes	44	1	676
6.6.1	win	2022-12-14	14:35:48	14:46:02	613072	6111f586fe99b25bb899861a	986651593	1	main_z	11	advance_on_keypress_ZEE	30	stimuli_target_squaretriangles.svg	stimuli_distractor_trianglediamonds.svg	3	yes	57	0	223
6.6.1	win	2022-12-14	14:35:48	14:46:04	614566	6111f586fe99b25bb899861a	986651593	1	main_z	11	main_z	31	stimuli_distractor_trianglediamonds.svg	stimuli_target_diamondcircles.svg	27	yes	44	1	635
6.6.1	win	2022-12-14	14:35:48	14:46:04	614566	6111f586fe99b25bb899861a	986651593	1	main_z	11	advance_on_keypress_ZEE	32	stimuli_distractor_trianglediamonds.svg	stimuli_target_diamondcircles.svg	27	yes	57	0	247
6.6.1	win	2022-12-14	14:35:48	14:46:06	616148	6111f586fe99b25bb899861a	986651593	1	main_z	11	main_z	33	stimuli_distractor_trianglediamonds.svg	stimuli_target_squarediamonds.svg	12	yes	44	1	701
6.6.1	win	2022-12-14	14:35:48	14:46:06	616148	6111f586fe99b25bb899861a	986651593	1	main_z	11	advance_on_keypress_ZEE	34	stimuli_distractor_trianglediamonds.svg	stimuli_target_squarediamonds.svg	12	yes	57	0	204
6.6.1	win	2022-12-14	14:35:48	14:46:07	617638	6111f586fe99b25bb899861a	986651593	1	main_z	11	main_z	35	stimuli_target_squarediamonds.svg	stimuli_distractor_diamondtriangles.svg	8	yes	44	1	642
6.6.1	win	2022-12-14	14:35:48	14:46:07	617638	6111f586fe99b25bb899861a	986651593	1	main_z	11	advance_on_keypress_ZEE	36	stimuli_target_squarediamonds.svg	stimuli_distractor_diamondtriangles.svg	8	yes	57	0	234
6.6.1	win	2022-12-14	14:35:48	14:46:09	619150	6111f586fe99b25bb899861a	986651593	1	main_z	11	main_z	37	stimuli_distractor_trianglediamonds.svg	stimuli_target_diamondsquares.svg	28	yes	44	1	637
6.6.1	win	2022-12-14	14:35:48	14:46:09	619150	6111f586fe99b25bb899861a	986651593	1	main_z	11	advance_on_keypress_ZEE	38	stimuli_distractor_trianglediamonds.svg	stimuli_target_diamondsquares.svg	28	yes	57	0	172
6.6.1	win	2022-12-14	14:35:48	14:46:10	620666	6111f586fe99b25bb899861a	986651593	1	main_z	11	main_z	39	stimuli_target_circletriangles.svg	stimuli_distractor_trianglediamonds.svg	1	yes	44	1	700
6.6.1	win	2022-12-14	14:35:48	14:46:10	620666	6111f586fe99b25bb899861a	986651593	1	main_z	11	advance_on_keypress_ZEE	40	stimuli_target_circletriangles.svg	stimuli_distractor_trianglediamonds.svg	1	yes	57	0	203
6.6.1	win	2022-12-14	14:35:48	14:46:12	622166	6111f586fe99b25bb899861a	986651593	1	main_z	11	main_z	41	stimuli_target_squarediamonds.svg	stimuli_distractor_trianglediamonds.svg	4	yes	44	1	653
6.6.1	win	2022-12-14	14:35:48	14:46:12	622166	6111f586fe99b25bb899861a	986651593	1	main_z	11	advance_on_keypress_ZEE	42	stimuli_target_squarediamonds.svg	stimuli_distractor_trianglediamonds.svg	4	yes	57	0	189
6.6.1	win	2022-12-14	14:35:48	14:46:13	623647	6111f586fe99b25bb899861a	986651593	1	main_z	11	main_z	43	stimuli_target_circlediamonds.svg	stimuli_distractor_trianglediamonds.svg	2	yes	44	1	651
6.6.1	win	2022-12-14	14:35:48	14:46:13	623647	6111f586fe99b25bb899861a	986651593	1	main_z	11	advance_on_keypress_ZEE	44	stimuli_target_circlediamonds.svg	stimuli_distractor_trianglediamonds.svg	2	yes	57	0	172
6.6.1	win	2022-12-14	14:35:48	14:46:14	625088	6111f586fe99b25bb899861a	986651593	1	main_z	11	main_z	45	stimuli_target_diamondsquares.svg	stimuli_distractor_diamondtriangles.svg	24	yes	44	1	625
6.6.1	win	2022-12-14	14:35:48	14:46:14	625088	6111f586fe99b25bb899861a	986651593	1	main_z	11	advance_on_keypress_ZEE	46	stimuli_target_diamondsquares.svg	stimuli_distractor_diamondtriangles.svg	24	yes	57	0	190
6.6.1	win	2022-12-14	14:35:48	14:46:16	626556	6111f586fe99b25bb899861a	986651593	1	main_z	11	main_z	47	stimuli_target_trianglesquares.svg	stimuli_distractor_trianglediamonds.svg	18	yes	44	1	643
6.6.1	win	2022-12-14	14:35:48	14:46:16	626556	6111f586fe99b25bb899861a	986651593	1	main_z	11	advance_on_keypress_ZEE	48	stimuli_target_trianglesquares.svg	stimuli_distractor_trianglediamonds.svg	18	yes	57	0	207
6.6.1	win	2022-12-14	14:35:48	14:46:17	627975	6111f586fe99b25bb899861a	986651593	1	main_z	11	main_z	49	stimuli_distractor_diamondtriangles.svg	stimuli_target_trianglesquares.svg	30	yes	44	1	578
6.6.1	win	2022-12-14	14:35:48	14:46:17	627975	6111f586fe99b25bb899861a	986651593	1	main_z	11	advance_on_keypress_ZEE	50	stimuli_distractor_diamondtriangles.svg	stimuli_target_trianglesquares.svg	30	yes	57	0	180
6.6.1	win	2022-12-14	14:35:48	14:46:20	630781	6111f586fe99b25bb899861a	986651593	1	main_z	11	main_z	51	stimuli_distractor_diamondtriangles.svg	stimuli_distractor_diamondtriangles.svg	40	no	0	1	2000
6.6.1	win	2022-12-14	14:35:48	14:46:20	630781	6111f586fe99b25bb899861a	986651593	1	main_z	11	advance_on_keypress_ZEE	52	stimuli_distractor_diamondtriangles.svg	stimuli_distractor_diamondtriangles.svg	40	no	57	0	352
6.6.1	win	2022-12-14	14:35:48	14:46:22	632493	6111f586fe99b25bb899861a	986651593	1	main_z	11	main_z	53	stimuli_distractor_diamondtriangles.svg	stimuli_target_diamondcircles.svg	31	yes	44	1	712
6.6.1	win	2022-12-14	14:35:48	14:46:22	632493	6111f586fe99b25bb899861a	986651593	1	main_z	11	advance_on_keypress_ZEE	54	stimuli_distractor_diamondtriangles.svg	stimuli_target_diamondcircles.svg	31	yes	57	0	344
6.6.1	win	2022-12-14	14:35:48	14:46:25	635465	6111f586fe99b25bb899861a	986651593	1	main_z	11	main_z	55	stimuli_distractor_diamondtriangles.svg	stimuli_distractor_trianglediamonds.svg	38	no	0	1	2000
6.6.1	win	2022-12-14	14:35:48	14:46:25	635465	6111f586fe99b25bb899861a	986651593	1	main_z	11	advance_on_keypress_ZEE	56	stimuli_distractor_diamondtriangles.svg	stimuli_distractor_trianglediamonds.svg	38	no	57	0	272
6.6.1	win	2022-12-14	14:35:48	14:46:26	637022	6111f586fe99b25bb899861a	986651593	1	main_z	11	main_z	57	stimuli_distractor_trianglediamonds.svg	stimuli_target_trianglecircles.svg	25	yes	44	1	642
6.6.1	win	2022-12-14	14:35:48	14:46:26	637022	6111f586fe99b25bb899861a	986651593	1	main_z	11	advance_on_keypress_ZEE	58	stimuli_distractor_trianglediamonds.svg	stimuli_target_trianglecircles.svg	25	yes	57	0	196
6.6.1	win	2022-12-14	14:35:48	14:46:28	638501	6111f586fe99b25bb899861a	986651593	1	main_z	11	main_z	59	stimuli_target_trianglecircles.svg	stimuli_distractor_trianglediamonds.svg	17	yes	44	1	654
6.6.1	win	2022-12-14	14:35:48	14:46:28	638501	6111f586fe99b25bb899861a	986651593	1	main_z	11	advance_on_keypress_ZEE	60	stimuli_target_trianglecircles.svg	stimuli_distractor_trianglediamonds.svg	17	yes	57	0	211
6.6.1	win	2022-12-14	14:35:48	14:46:31	641348	6111f586fe99b25bb899861a	986651593	1	main_z	11	main_z	61	stimuli_distractor_diamondtriangles.svg	stimuli_distractor_diamondtriangles.svg	39	no	0	1	2000
6.6.1	win	2022-12-14	14:35:48	14:46:31	641348	6111f586fe99b25bb899861a	986651593	1	main_z	11	advance_on_keypress_ZEE	62	stimuli_distractor_diamondtriangles.svg	stimuli_distractor_diamondtriangles.svg	39	no	57	0	308
6.6.1	win	2022-12-14	14:35:48	14:46:32	643022	6111f586fe99b25bb899861a	986651593	1	main_z	11	main_z	63	stimuli_target_squaretriangles.svg	stimuli_distractor_diamondtriangles.svg	7	yes	44	1	725
6.6.1	win	2022-12-14	14:35:48	14:46:32	643022	6111f586fe99b25bb899861a	986651593	1	main_z	11	advance_on_keypress_ZEE	64	stimuli_target_squaretriangles.svg	stimuli_distractor_diamondtriangles.svg	7	yes	57	0	198
6.6.1	win	2022-12-14	14:35:48	14:46:35	645287	6111f586fe99b25bb899861a	986651593	1	main_z	11	main_z	65	stimuli_target_trianglesquares.svg	stimuli_distractor_diamondtriangles.svg	22	yes	44	1	1439
6.6.1	win	2022-12-14	14:35:48	14:46:35	645287	6111f586fe99b25bb899861a	986651593	1	main_z	11	advance_on_keypress_ZEE	66	stimuli_target_trianglesquares.svg	stimuli_distractor_diamondtriangles.svg	22	yes	57	0	160
6.6.1	win	2022-12-14	14:35:48	14:46:37	647735	6111f586fe99b25bb899861a	986651593	1	main_z	11	main_z	67	stimuli_distractor_diamondtriangles.svg	stimuli_target_circlediamonds.svg	14	yes	44	1	1655
6.6.1	win	2022-12-14	14:35:48	14:46:37	647735	6111f586fe99b25bb899861a	986651593	1	main_z	11	advance_on_keypress_ZEE	68	stimuli_distractor_diamondtriangles.svg	stimuli_target_circlediamonds.svg	14	yes	57	0	239
6.6.1	win	2022-12-14	14:35:48	14:46:39	649367	6111f586fe99b25bb899861a	986651593	1	main_z	11	main_z	69	stimuli_distractor_diamondtriangles.svg	stimuli_target_trianglecircles.svg	29	yes	44	1	750
6.6.1	win	2022-12-14	14:35:48	14:46:39	649367	6111f586fe99b25bb899861a	986651593	1	main_z	11	advance_on_keypress_ZEE	70	stimuli_distractor_diamondtriangles.svg	stimuli_target_trianglecircles.svg	29	yes	57	0	180
6.6.1	win	2022-12-14	14:35:48	14:46:41	651392	6111f586fe99b25bb899861a	986651593	1	main_z	11	main_z	71	stimuli_distractor_trianglediamonds.svg	stimuli_distractor_trianglediamonds.svg	34	no	44	0	1210
6.6.1	win	2022-12-14	14:35:48	14:46:41	651392	6111f586fe99b25bb899861a	986651593	1	main_z	11	advance_on_keypress_ZEE	72	stimuli_distractor_trianglediamonds.svg	stimuli_distractor_trianglediamonds.svg	34	no	57	0	224
6.6.1	win	2022-12-14	14:35:48	14:46:44	654249	6111f586fe99b25bb899861a	986651593	1	main_z	11	main_z	73	stimuli_distractor_diamondtriangles.svg	stimuli_distractor_trianglediamonds.svg	37	no	0	1	2000
6.6.1	win	2022-12-14	14:35:48	14:46:44	654249	6111f586fe99b25bb899861a	986651593	1	main_z	11	advance_on_keypress_ZEE	74	stimuli_distractor_diamondtriangles.svg	stimuli_distractor_trianglediamonds.svg	37	no	57	0	369
6.6.1	win	2022-12-14	14:35:48	14:46:45	655912	6111f586fe99b25bb899861a	986651593	1	main_z	11	main_z	75	stimuli_target_trianglecircles.svg	stimuli_distractor_diamondtriangles.svg	21	yes	44	1	648
6.6.1	win	2022-12-14	14:35:48	14:46:45	655912	6111f586fe99b25bb899861a	986651593	1	main_z	11	advance_on_keypress_ZEE	76	stimuli_target_trianglecircles.svg	stimuli_distractor_diamondtriangles.svg	21	yes	57	0	226
6.6.1	win	2022-12-14	14:35:48	14:46:47	657505	6111f586fe99b25bb899861a	986651593	1	main_z	11	main_z	77	stimuli_distractor_diamondtriangles.svg	stimuli_target_diamondsquares.svg	32	yes	44	1	741
6.6.1	win	2022-12-14	14:35:48	14:46:47	657505	6111f586fe99b25bb899861a	986651593	1	main_z	11	advance_on_keypress_ZEE	78	stimuli_distractor_diamondtriangles.svg	stimuli_target_diamondsquares.svg	32	yes	57	0	187
6.6.1	win	2022-12-14	14:35:48	14:46:49	659228	6111f586fe99b25bb899861a	986651593	1	main_z	11	main_z	79	stimuli_distractor_diamondtriangles.svg	stimuli_target_squarediamonds.svg	16	yes	44	1	896
6.6.1	win	2022-12-14	14:35:48	14:46:49	659228	6111f586fe99b25bb899861a	986651593	1	main_z	11	advance_on_keypress_ZEE	80	stimuli_distractor_diamondtriangles.svg	stimuli_target_squarediamonds.svg	16	yes	57	0	204
6.6.1	win	2022-12-14	14:35:48	14:46:50	660755	6111f586fe99b25bb899861a	986651593	1	main_z	11	main_z	81	stimuli_target_circletriangles.svg	stimuli_distractor_diamondtriangles.svg	5	yes	44	1	691
6.6.1	win	2022-12-14	14:35:48	14:46:50	660755	6111f586fe99b25bb899861a	986651593	1	main_z	11	advance_on_keypress_ZEE	82	stimuli_target_circletriangles.svg	stimuli_distractor_diamondtriangles.svg	5	yes	57	0	201
6.6.1	win	2022-12-14	14:35:48	14:46:53	663599	6111f586fe99b25bb899861a	986651593	1	main_z	11	main_z	83	stimuli_distractor_trianglediamonds.svg	stimuli_distractor_diamondtriangles.svg	36	no	0	1	2000
6.6.1	win	2022-12-14	14:35:48	14:46:53	663599	6111f586fe99b25bb899861a	986651593	1	main_z	11	advance_on_keypress_ZEE	84	stimuli_distractor_trianglediamonds.svg	stimuli_distractor_diamondtriangles.svg	36	no	57	0	1006
6.6.1	win	2022-12-14	14:35:48	14:46:55	665870	6111f586fe99b25bb899861a	986651593	1	main_z	11	main_z	85	stimuli_distractor_diamondtriangles.svg	stimuli_target_squarediamonds.svg	16	yes	44	1	622
6.6.1	win	2022-12-14	14:35:48	14:46:55	665870	6111f586fe99b25bb899861a	986651593	1	main_z	11	advance_on_keypress_ZEE	86	stimuli_distractor_diamondtriangles.svg	stimuli_target_squarediamonds.svg	16	yes	57	0	141
6.6.1	win	2022-12-14	14:35:48	14:46:57	667294	6111f586fe99b25bb899861a	986651593	1	main_z	11	main_z	87	stimuli_target_diamondsquares.svg	stimuli_distractor_trianglediamonds.svg	20	yes	44	1	646
6.6.1	win	2022-12-14	14:35:48	14:46:57	667294	6111f586fe99b25bb899861a	986651593	1	main_z	11	advance_on_keypress_ZEE	88	stimuli_target_diamondsquares.svg	stimuli_distractor_trianglediamonds.svg	20	yes	57	0	158
6.6.1	win	2022-12-14	14:35:48	14:46:59	670083	6111f586fe99b25bb899861a	986651593	1	main_z	11	main_z	89	stimuli_distractor_trianglediamonds.svg	stimuli_distractor_trianglediamonds.svg	33	no	0	1	2000
6.6.1	win	2022-12-14	14:35:48	14:46:59	670083	6111f586fe99b25bb899861a	986651593	1	main_z	11	advance_on_keypress_ZEE	90	stimuli_distractor_trianglediamonds.svg	stimuli_distractor_trianglediamonds.svg	33	no	57	0	289
6.6.1	win	2022-12-14	14:35:48	14:47:01	671671	6111f586fe99b25bb899861a	986651593	1	main_z	11	main_z	91	stimuli_distractor_trianglediamonds.svg	stimuli_target_trianglesquares.svg	26	yes	44	1	656
6.6.1	win	2022-12-14	14:35:48	14:47:01	671671	6111f586fe99b25bb899861a	986651593	1	main_z	11	advance_on_keypress_ZEE	92	stimuli_distractor_trianglediamonds.svg	stimuli_target_trianglesquares.svg	26	yes	57	0	241
6.6.1	win	2022-12-14	14:35:48	14:47:03	673170	6111f586fe99b25bb899861a	986651593	1	main_z	11	main_z	93	stimuli_distractor_trianglediamonds.svg	stimuli_target_diamondsquares.svg	28	yes	44	1	622
6.6.1	win	2022-12-14	14:35:48	14:47:03	673170	6111f586fe99b25bb899861a	986651593	1	main_z	11	advance_on_keypress_ZEE	94	stimuli_distractor_trianglediamonds.svg	stimuli_target_diamondsquares.svg	28	yes	57	0	237
6.6.1	win	2022-12-14	14:35:48	14:47:04	674620	6111f586fe99b25bb899861a	986651593	1	main_z	11	main_z	95	stimuli_distractor_diamondtriangles.svg	stimuli_target_trianglesquares.svg	30	yes	44	1	572
6.6.1	win	2022-12-14	14:35:48	14:47:04	674620	6111f586fe99b25bb899861a	986651593	1	main_z	11	advance_on_keypress_ZEE	96	stimuli_distractor_diamondtriangles.svg	stimuli_target_trianglesquares.svg	30	yes	57	0	229
6.6.1	win	2022-12-14	14:35:48	14:47:06	676200	6111f586fe99b25bb899861a	986651593	1	main_z	11	main_z	97	stimuli_target_trianglecircles.svg	stimuli_distractor_diamondtriangles.svg	21	yes	44	1	718
6.6.1	win	2022-12-14	14:35:48	14:47:06	676200	6111f586fe99b25bb899861a	986651593	1	main_z	11	advance_on_keypress_ZEE	98	stimuli_target_trianglecircles.svg	stimuli_distractor_diamondtriangles.svg	21	yes	57	0	213
6.6.1	win	2022-12-14	14:35:48	14:47:07	677644	6111f586fe99b25bb899861a	986651593	1	main_z	11	main_z	99	stimuli_distractor_diamondtriangles.svg	stimuli_target_diamondsquares.svg	32	yes	44	1	596
6.6.1	win	2022-12-14	14:35:48	14:47:07	677644	6111f586fe99b25bb899861a	986651593	1	main_z	11	advance_on_keypress_ZEE	100	stimuli_distractor_diamondtriangles.svg	stimuli_target_diamondsquares.svg	32	yes	57	0	254
6.6.1	win	2022-12-14	14:35:48	14:47:10	680533	6111f586fe99b25bb899861a	986651593	1	main_z	11	main_z	101	stimuli_distractor_diamondtriangles.svg	stimuli_distractor_trianglediamonds.svg	38	no	0	1	2000
6.6.1	win	2022-12-14	14:35:48	14:47:10	680533	6111f586fe99b25bb899861a	986651593	1	main_z	11	advance_on_keypress_ZEE	102	stimuli_distractor_diamondtriangles.svg	stimuli_distractor_trianglediamonds.svg	38	no	57	0	635
6.6.1	win	2022-12-14	14:35:48	14:47:12	682422	6111f586fe99b25bb899861a	986651593	1	main_z	11	main_z	103	stimuli_target_circlediamonds.svg	stimuli_distractor_trianglediamonds.svg	2	yes	44	1	606
6.6.1	win	2022-12-14	14:35:48	14:47:12	682422	6111f586fe99b25bb899861a	986651593	1	main_z	11	advance_on_keypress_ZEE	104	stimuli_target_circlediamonds.svg	stimuli_distractor_trianglediamonds.svg	2	yes	57	0	170
6.6.1	win	2022-12-14	14:35:48	14:47:13	683853	6111f586fe99b25bb899861a	986651593	1	main_z	11	main_z	105	stimuli_target_diamondcircles.svg	stimuli_distractor_trianglediamonds.svg	19	yes	44	1	621
6.6.1	win	2022-12-14	14:35:48	14:47:13	683853	6111f586fe99b25bb899861a	986651593	1	main_z	11	advance_on_keypress_ZEE	106	stimuli_target_diamondcircles.svg	stimuli_distractor_trianglediamonds.svg	19	yes	57	0	196
6.6.1	win	2022-12-14	14:35:48	14:47:16	686685	6111f586fe99b25bb899861a	986651593	1	main_z	11	main_z	107	stimuli_distractor_diamondtriangles.svg	stimuli_distractor_trianglediamonds.svg	37	no	0	1	2000
6.6.1	win	2022-12-14	14:35:48	14:47:16	686685	6111f586fe99b25bb899861a	986651593	1	main_z	11	advance_on_keypress_ZEE	108	stimuli_distractor_diamondtriangles.svg	stimuli_distractor_trianglediamonds.svg	37	no	57	0	303
6.6.1	win	2022-12-14	14:35:48	14:47:19	689633	6111f586fe99b25bb899861a	986651593	1	main_z	11	main_z	109	stimuli_distractor_diamondtriangles.svg	stimuli_target_circlediamonds.svg	14	yes	0	0	2000
6.6.1	win	2022-12-14	14:35:48	14:47:19	689633	6111f586fe99b25bb899861a	986651593	1	main_z	11	advance_on_keypress_ZEE	110	stimuli_distractor_diamondtriangles.svg	stimuli_target_circlediamonds.svg	14	yes	57	0	303
6.6.1	win	2022-12-14	14:35:48	14:47:21	691630	6111f586fe99b25bb899861a	986651593	1	main_z	11	main_z	111	stimuli_distractor_trianglediamonds.svg	stimuli_distractor_diamondtriangles.svg	35	no	44	0	1048
6.6.1	win	2022-12-14	14:35:48	14:47:21	691630	6111f586fe99b25bb899861a	986651593	1	main_z	11	advance_on_keypress_ZEE	112	stimuli_distractor_trianglediamonds.svg	stimuli_distractor_diamondtriangles.svg	35	no	57	0	184
6.6.1	win	2022-12-14	14:35:48	14:47:22	693043	6111f586fe99b25bb899861a	986651593	1	main_z	11	main_z	113	stimuli_distractor_trianglediamonds.svg	stimuli_target_squaretriangles.svg	11	yes	44	1	595
6.6.1	win	2022-12-14	14:35:48	14:47:22	693043	6111f586fe99b25bb899861a	986651593	1	main_z	11	advance_on_keypress_ZEE	114	stimuli_distractor_trianglediamonds.svg	stimuli_target_squaretriangles.svg	11	yes	57	0	163
6.6.1	win	2022-12-14	14:35:48	14:47:25	695833	6111f586fe99b25bb899861a	986651593	1	main_z	11	main_z	115	stimuli_distractor_diamondtriangles.svg	stimuli_distractor_diamondtriangles.svg	39	no	0	1	2000
6.6.1	win	2022-12-14	14:35:48	14:47:25	695833	6111f586fe99b25bb899861a	986651593	1	main_z	11	advance_on_keypress_ZEE	116	stimuli_distractor_diamondtriangles.svg	stimuli_distractor_diamondtriangles.svg	39	no	57	0	307
6.6.1	win	2022-12-14	14:35:48	14:47:27	697496	6111f586fe99b25bb899861a	986651593	1	main_z	11	main_z	117	stimuli_distractor_diamondtriangles.svg	stimuli_target_trianglecircles.svg	29	yes	44	1	714
6.6.1	win	2022-12-14	14:35:48	14:47:27	697496	6111f586fe99b25bb899861a	986651593	1	main_z	11	advance_on_keypress_ZEE	118	stimuli_distractor_diamondtriangles.svg	stimuli_target_trianglecircles.svg	29	yes	57	0	255
6.6.1	win	2022-12-14	14:35:48	14:47:29	699218	6111f586fe99b25bb899861a	986651593	1	main_z	11	main_z	119	stimuli_target_squarediamonds.svg	stimuli_distractor_trianglediamonds.svg	4	yes	44	1	835
6.6.1	win	2022-12-14	14:35:48	14:47:29	699218	6111f586fe99b25bb899861a	986651593	1	main_z	11	advance_on_keypress_ZEE	120	stimuli_target_squarediamonds.svg	stimuli_distractor_trianglediamonds.svg	4	yes	57	0	205
6.6.1	win	2022-12-14	14:35:48	14:47:30	700718	6111f586fe99b25bb899861a	986651593	1	main_z	11	main_z	121	stimuli_distractor_diamondtriangles.svg	stimuli_target_squaretriangles.svg	15	yes	44	1	651
6.6.1	win	2022-12-14	14:35:48	14:47:30	700718	6111f586fe99b25bb899861a	986651593	1	main_z	11	advance_on_keypress_ZEE	122	stimuli_distractor_diamondtriangles.svg	stimuli_target_squaretriangles.svg	15	yes	57	0	164
6.6.1	win	2022-12-14	14:35:48	14:47:32	702152	6111f586fe99b25bb899861a	986651593	1	main_z	11	main_z	123	stimuli_target_trianglecircles.svg	stimuli_distractor_trianglediamonds.svg	17	yes	44	1	637
6.6.1	win	2022-12-14	14:35:48	14:47:32	702152	6111f586fe99b25bb899861a	986651593	1	main_z	11	advance_on_keypress_ZEE	124	stimuli_target_trianglecircles.svg	stimuli_distractor_trianglediamonds.svg	17	yes	57	0	193
6.6.1	win	2022-12-14	14:35:48	14:47:33	703659	6111f586fe99b25bb899861a	986651593	1	main_z	11	main_z	125	stimuli_target_squaretriangles.svg	stimuli_distractor_diamondtriangles.svg	7	yes	44	1	676
6.6.1	win	2022-12-14	14:35:48	14:47:33	703659	6111f586fe99b25bb899861a	986651593	1	main_z	11	advance_on_keypress_ZEE	126	stimuli_target_squaretriangles.svg	stimuli_distractor_diamondtriangles.svg	7	yes	57	0	193
6.6.1	win	2022-12-14	14:35:48	14:47:36	706484	6111f586fe99b25bb899861a	986651593	1	main_z	11	main_z	127	stimuli_distractor_trianglediamonds.svg	stimuli_distractor_trianglediamonds.svg	34	no	0	1	2000
6.6.1	win	2022-12-14	14:35:48	14:47:36	706484	6111f586fe99b25bb899861a	986651593	1	main_z	11	advance_on_keypress_ZEE	128	stimuli_distractor_trianglediamonds.svg	stimuli_distractor_trianglediamonds.svg	34	no	57	0	336
6.6.1	win	2022-12-14	14:35:48	14:47:37	708109	6111f586fe99b25bb899861a	986651593	1	main_z	11	main_z	129	stimuli_distractor_trianglediamonds.svg	stimuli_target_circletriangles.svg	9	yes	44	1	643
6.6.1	win	2022-12-14	14:35:48	14:47:37	708109	6111f586fe99b25bb899861a	986651593	1	main_z	11	advance_on_keypress_ZEE	130	stimuli_distractor_trianglediamonds.svg	stimuli_target_circletriangles.svg	9	yes	57	0	182
6.6.1	win	2022-12-14	14:35:48	14:47:39	709544	6111f586fe99b25bb899861a	986651593	1	main_z	11	main_z	131	stimuli_target_diamondsquares.svg	stimuli_distractor_diamondtriangles.svg	24	yes	44	1	612
6.6.1	win	2022-12-14	14:35:48	14:47:39	709544	6111f586fe99b25bb899861a	986651593	1	main_z	11	advance_on_keypress_ZEE	132	stimuli_target_diamondsquares.svg	stimuli_distractor_diamondtriangles.svg	24	yes	57	0	215
6.6.1	win	2022-12-14	14:35:48	14:47:41	711154	6111f586fe99b25bb899861a	986651593	1	main_z	11	main_z	133	stimuli_distractor_diamondtriangles.svg	stimuli_target_circletriangles.svg	13	yes	44	1	772
6.6.1	win	2022-12-14	14:35:48	14:47:41	711154	6111f586fe99b25bb899861a	986651593	1	main_z	11	advance_on_keypress_ZEE	134	stimuli_distractor_diamondtriangles.svg	stimuli_target_circletriangles.svg	13	yes	57	0	183
6.6.1	win	2022-12-14	14:35:48	14:47:42	712657	6111f586fe99b25bb899861a	986651593	1	main_z	11	main_z	135	stimuli_target_trianglesquares.svg	stimuli_distractor_trianglediamonds.svg	18	yes	44	1	674
6.6.1	win	2022-12-14	14:35:48	14:47:42	712657	6111f586fe99b25bb899861a	986651593	1	main_z	11	advance_on_keypress_ZEE	136	stimuli_target_trianglesquares.svg	stimuli_distractor_trianglediamonds.svg	18	yes	57	0	211
6.6.1	win	2022-12-14	14:35:48	14:47:45	715500	6111f586fe99b25bb899861a	986651593	1	main_z	11	main_z	137	stimuli_distractor_diamondtriangles.svg	stimuli_distractor_diamondtriangles.svg	40	no	0	1	2000
6.6.1	win	2022-12-14	14:35:48	14:47:45	715500	6111f586fe99b25bb899861a	986651593	1	main_z	11	advance_on_keypress_ZEE	138	stimuli_distractor_diamondtriangles.svg	stimuli_distractor_diamondtriangles.svg	40	no	57	0	356
6.6.1	win	2022-12-14	14:35:48	14:47:46	717080	6111f586fe99b25bb899861a	986651593	1	main_z	11	main_z	139	stimuli_target_squarediamonds.svg	stimuli_distractor_diamondtriangles.svg	8	yes	44	1	581
6.6.1	win	2022-12-14	14:35:48	14:47:46	717080	6111f586fe99b25bb899861a	986651593	1	main_z	11	advance_on_keypress_ZEE	140	stimuli_target_squarediamonds.svg	stimuli_distractor_diamondtriangles.svg	8	yes	57	0	463
6.6.1	win	2022-12-14	14:35:48	14:47:48	718757	6111f586fe99b25bb899861a	986651593	1	main_z	11	main_z	141	stimuli_distractor_diamondtriangles.svg	stimuli_target_diamondcircles.svg	31	yes	44	1	591
6.6.1	win	2022-12-14	14:35:48	14:47:48	718757	6111f586fe99b25bb899861a	986651593	1	main_z	11	advance_on_keypress_ZEE	142	stimuli_distractor_diamondtriangles.svg	stimuli_target_diamondcircles.svg	31	yes	57	0	223
6.6.1	win	2022-12-14	14:35:48	14:47:50	720195	6111f586fe99b25bb899861a	986651593	1	main_z	11	main_z	143	stimuli_target_circlediamonds.svg	stimuli_distractor_diamondtriangles.svg	6	yes	44	1	579
6.6.1	win	2022-12-14	14:35:48	14:47:50	720195	6111f586fe99b25bb899861a	986651593	1	main_z	11	advance_on_keypress_ZEE	144	stimuli_target_circlediamonds.svg	stimuli_distractor_diamondtriangles.svg	6	yes	57	0	193
6.6.1	win	2022-12-14	14:35:48	14:47:51	721686	6111f586fe99b25bb899861a	986651593	1	main_z	11	main_z	145	stimuli_distractor_trianglediamonds.svg	stimuli_target_trianglecircles.svg	25	yes	44	1	670
6.6.1	win	2022-12-14	14:35:48	14:47:51	721686	6111f586fe99b25bb899861a	986651593	1	main_z	11	advance_on_keypress_ZEE	146	stimuli_distractor_trianglediamonds.svg	stimuli_target_trianglecircles.svg	25	yes	57	0	206
6.6.1	win	2022-12-14	14:35:48	14:47:53	723282	6111f586fe99b25bb899861a	986651593	1	main_z	11	main_z	147	stimuli_distractor_trianglediamonds.svg	stimuli_target_squarediamonds.svg	12	yes	44	1	749
6.6.1	win	2022-12-14	14:35:48	14:47:53	723282	6111f586fe99b25bb899861a	986651593	1	main_z	11	advance_on_keypress_ZEE	148	stimuli_distractor_trianglediamonds.svg	stimuli_target_squarediamonds.svg	12	yes	57	0	225
6.6.1	win	2022-12-14	14:35:48	14:47:54	724824	6111f586fe99b25bb899861a	986651593	1	main_z	11	main_z	149	stimuli_target_diamondcircles.svg	stimuli_distractor_diamondtriangles.svg	23	yes	44	1	675
6.6.1	win	2022-12-14	14:35:48	14:47:54	724824	6111f586fe99b25bb899861a	986651593	1	main_z	11	advance_on_keypress_ZEE	150	stimuli_target_diamondcircles.svg	stimuli_distractor_diamondtriangles.svg	23	yes	57	0	203
6.6.1	win	2022-12-14	14:35:48	14:47:56	726253	6111f586fe99b25bb899861a	986651593	1	main_z	11	main_z	151	stimuli_target_trianglesquares.svg	stimuli_distractor_diamondtriangles.svg	22	yes	44	1	587
6.6.1	win	2022-12-14	14:35:48	14:47:56	726253	6111f586fe99b25bb899861a	986651593	1	main_z	11	advance_on_keypress_ZEE	152	stimuli_target_trianglesquares.svg	stimuli_distractor_diamondtriangles.svg	22	yes	57	0	246
6.6.1	win	2022-12-14	14:35:48	14:47:57	727973	6111f586fe99b25bb899861a	986651593	1	main_z	11	main_z	153	stimuli_target_squaretriangles.svg	stimuli_distractor_trianglediamonds.svg	3	yes	44	1	840
6.6.1	win	2022-12-14	14:35:48	14:47:57	727973	6111f586fe99b25bb899861a	986651593	1	main_z	11	advance_on_keypress_ZEE	154	stimuli_target_squaretriangles.svg	stimuli_distractor_trianglediamonds.svg	3	yes	57	0	251
6.6.1	win	2022-12-14	14:35:48	14:47:59	729525	6111f586fe99b25bb899861a	986651593	1	main_z	11	main_z	155	stimuli_distractor_trianglediamonds.svg	stimuli_target_circlediamonds.svg	10	yes	44	1	659
6.6.1	win	2022-12-14	14:35:48	14:47:59	729525	6111f586fe99b25bb899861a	986651593	1	main_z	11	advance_on_keypress_ZEE	156	stimuli_distractor_trianglediamonds.svg	stimuli_target_circlediamonds.svg	10	yes	57	0	240
6.6.1	win	2022-12-14	14:35:48	14:48:00	731111	6111f586fe99b25bb899861a	986651593	1	main_z	11	main_z	157	stimuli_distractor_trianglediamonds.svg	stimuli_target_diamondcircles.svg	27	yes	44	1	710
6.6.1	win	2022-12-14	14:35:48	14:48:00	731111	6111f586fe99b25bb899861a	986651593	1	main_z	11	advance_on_keypress_ZEE	158	stimuli_distractor_trianglediamonds.svg	stimuli_target_diamondcircles.svg	27	yes	57	0	222
6.6.1	win	2022-12-14	14:35:48	14:48:03	733967	6111f586fe99b25bb899861a	986651593	1	main_z	11	main_z	159	stimuli_target_circletriangles.svg	stimuli_distractor_trianglediamonds.svg	1	yes	0	0	2000
6.6.1	win	2022-12-14	14:35:48	14:48:03	733967	6111f586fe99b25bb899861a	986651593	1	main_z	11	advance_on_keypress_ZEE	160	stimuli_target_circletriangles.svg	stimuli_distractor_trianglediamonds.svg	1	yes	57	0	462