build	computer.platform	date	time	timestamp	time_elapsed_ms	subject	group	session	blockcode	blocknum	trialcode	trialnum	stimulus_left	stimulus_right	stim_index	target_present	response	correct	latency
6.6.1	win	2022-12-21	13:34:43	13:38:31	227069	5a8ac2d8f49c9a0001f3ab34	921026877	1	practice_slash	5	practice_slash	1	stimuli_distractor_diamondtriangles.svg	stimuli_distractor_diamondtriangles.svg	13	no	0	1	2000
6.6.1	win	2022-12-21	13:34:43	13:38:31	227069	5a8ac2d8f49c9a0001f3ab34	921026877	1	practice_slash	5	advance_on_keypress_SLASH	2	stimuli_distractor_diamondtriangles.svg	stimuli_distractor_diamondtriangles.svg	13	no	57	0	958
6.6.1	win	2022-12-21	13:34:43	13:38:36	231701	5a8ac2d8f49c9a0001f3ab34	921026877	1	practice_slash	5	practice_slash	3	stimuli_distractor_trianglediamonds.svg	stimuli_distractor_trianglediamonds.svg	15	no	0	1	2000
6.6.1	win	2022-12-21	13:34:43	13:38:36	231701	5a8ac2d8f49c9a0001f3ab34	921026877	1	practice_slash	5	advance_on_keypress_SLASH	4	stimuli_distractor_trianglediamonds.svg	stimuli_distractor_trianglediamonds.svg	15	no	57	0	709
6.6.1	win	2022-12-21	13:34:43	13:38:40	236066	5a8ac2d8f49c9a0001f3ab34	921026877	1	practice_slash	5	practice_slash	5	stimuli_distractor_diamondtriangles.svg	stimuli_distractor_trianglediamonds.svg	14	no	0	1	2000
6.6.1	win	2022-12-21	13:34:43	13:38:40	236066	5a8ac2d8f49c9a0001f3ab34	921026877	1	practice_slash	5	advance_on_keypress_SLASH	6	stimuli_distractor_diamondtriangles.svg	stimuli_distractor_trianglediamonds.svg	14	no	57	0	538
6.6.1	win	2022-12-21	13:34:43	13:38:45	240249	5a8ac2d8f49c9a0001f3ab34	921026877	1	practice_slash	5	practice_slash	7	stimuli_distractor_trianglediamonds.svg	stimuli_distractor_diamondtriangles.svg	16	no	0	1	2000
6.6.1	win	2022-12-21	13:34:43	13:38:45	240249	5a8ac2d8f49c9a0001f3ab34	921026877	1	practice_slash	5	advance_on_keypress_SLASH	8	stimuli_distractor_trianglediamonds.svg	stimuli_distractor_diamondtriangles.svg	16	no	57	0	786
6.6.1	win	2022-12-21	13:34:43	13:38:49	244696	5a8ac2d8f49c9a0001f3ab34	921026877	1	practice_slash	5	practice_slash	9	stimuli_target_diamondsquares.svg	stimuli_distractor_diamondtriangles.svg	3	yes	0	0	2000
6.6.1	win	2022-12-21	13:34:43	13:38:49	244696	5a8ac2d8f49c9a0001f3ab34	921026877	1	practice_slash	5	advance_on_keypress_SLASH	10	stimuli_target_diamondsquares.svg	stimuli_distractor_diamondtriangles.svg	3	yes	57	0	659
6.6.1	win	2022-12-21	13:34:43	13:38:53	248390	5a8ac2d8f49c9a0001f3ab34	921026877	1	practice_slash	5	practice_slash	11	stimuli_distractor_trianglediamonds.svg	stimuli_target_diamondcircles.svg	12	yes	53	1	1378
6.6.1	win	2022-12-21	13:34:43	13:38:53	248390	5a8ac2d8f49c9a0001f3ab34	921026877	1	practice_slash	5	advance_on_keypress_SLASH	12	stimuli_distractor_trianglediamonds.svg	stimuli_target_diamondcircles.svg	12	yes	57	0	718
6.6.1	win	2022-12-21	13:34:43	13:38:56	251858	5a8ac2d8f49c9a0001f3ab34	921026877	1	practice_slash	5	practice_slash	13	stimuli_target_circlediamonds.svg	stimuli_distractor_trianglediamonds.svg	4	yes	53	1	1097
6.6.1	win	2022-12-21	13:34:43	13:38:56	251858	5a8ac2d8f49c9a0001f3ab34	921026877	1	practice_slash	5	advance_on_keypress_SLASH	14	stimuli_target_circlediamonds.svg	stimuli_distractor_trianglediamonds.svg	4	yes	57	0	476
6.6.1	win	2022-12-21	13:34:43	13:38:59	254927	5a8ac2d8f49c9a0001f3ab34	921026877	1	practice_slash	5	practice_slash	15	stimuli_distractor_diamondtriangles.svg	stimuli_target_trianglecircles.svg	9	yes	53	1	935
6.6.1	win	2022-12-21	13:34:43	13:38:59	254927	5a8ac2d8f49c9a0001f3ab34	921026877	1	practice_slash	5	advance_on_keypress_SLASH	16	stimuli_distractor_diamondtriangles.svg	stimuli_target_trianglecircles.svg	9	yes	57	0	509
6.6.1	win	2022-12-21	13:34:43	13:39:03	258288	5a8ac2d8f49c9a0001f3ab34	921026877	1	practice_slash	5	practice_slash	17	stimuli_target_diamondsquares.svg	stimuli_distractor_trianglediamonds.svg	6	yes	53	1	1195
6.6.1	win	2022-12-21	13:34:43	13:39:03	258288	5a8ac2d8f49c9a0001f3ab34	921026877	1	practice_slash	5	advance_on_keypress_SLASH	18	stimuli_target_diamondsquares.svg	stimuli_distractor_trianglediamonds.svg	6	yes	57	0	1196
6.6.1	win	2022-12-21	13:34:43	13:39:06	262056	5a8ac2d8f49c9a0001f3ab34	921026877	1	practice_slash	5	practice_slash	19	stimuli_target_squarediamonds.svg	stimuli_distractor_diamondtriangles.svg	2	yes	53	1	914
6.6.1	win	2022-12-21	13:34:43	13:39:06	262056	5a8ac2d8f49c9a0001f3ab34	921026877	1	practice_slash	5	advance_on_keypress_SLASH	20	stimuli_target_squarediamonds.svg	stimuli_distractor_diamondtriangles.svg	2	yes	57	0	1298
6.6.1	win	2022-12-21	13:34:43	13:39:10	265611	5a8ac2d8f49c9a0001f3ab34	921026877	1	practice_slash	5	practice_slash	21	stimuli_target_squarediamonds.svg	stimuli_distractor_trianglediamonds.svg	5	yes	53	1	606
6.6.1	win	2022-12-21	13:34:43	13:39:10	265611	5a8ac2d8f49c9a0001f3ab34	921026877	1	practice_slash	5	advance_on_keypress_SLASH	22	stimuli_target_squarediamonds.svg	stimuli_distractor_trianglediamonds.svg	5	yes	57	0	2243
6.6.1	win	2022-12-21	13:34:43	13:39:15	270107	5a8ac2d8f49c9a0001f3ab34	921026877	1	practice_slash	5	practice_slash	23	stimuli_distractor_trianglediamonds.svg	stimuli_target_circlediamonds.svg	10	yes	53	1	586
6.6.1	win	2022-12-21	13:34:43	13:39:15	270107	5a8ac2d8f49c9a0001f3ab34	921026877	1	practice_slash	5	advance_on_keypress_SLASH	24	stimuli_distractor_trianglediamonds.svg	stimuli_target_circlediamonds.svg	10	yes	57	0	496
6.6.1	win	2022-12-21	13:34:43	13:39:17	272808	5a8ac2d8f49c9a0001f3ab34	921026877	1	practice_slash	5	practice_slash	25	stimuli_target_circlediamonds.svg	stimuli_distractor_diamondtriangles.svg	1	yes	53	1	554
6.6.1	win	2022-12-21	13:34:43	13:39:17	272808	5a8ac2d8f49c9a0001f3ab34	921026877	1	practice_slash	5	advance_on_keypress_SLASH	26	stimuli_target_circlediamonds.svg	stimuli_distractor_diamondtriangles.svg	1	yes	57	0	2113
6.6.1	win	2022-12-21	13:34:43	13:39:21	277052	5a8ac2d8f49c9a0001f3ab34	921026877	1	practice_slash	5	practice_slash	27	stimuli_distractor_diamondtriangles.svg	stimuli_target_circletriangles.svg	7	yes	53	1	481
6.6.1	win	2022-12-21	13:34:43	13:39:21	277052	5a8ac2d8f49c9a0001f3ab34	921026877	1	practice_slash	5	advance_on_keypress_SLASH	28	stimuli_distractor_diamondtriangles.svg	stimuli_target_circletriangles.svg	7	yes	57	0	447
6.6.1	win	2022-12-21	13:34:43	13:39:24	279617	5a8ac2d8f49c9a0001f3ab34	921026877	1	practice_slash	5	practice_slash	29	stimuli_distractor_diamondtriangles.svg	stimuli_target_diamondcircles.svg	8	yes	53	1	464
6.6.1	win	2022-12-21	13:34:43	13:39:24	279617	5a8ac2d8f49c9a0001f3ab34	921026877	1	practice_slash	5	advance_on_keypress_SLASH	30	stimuli_distractor_diamondtriangles.svg	stimuli_target_diamondcircles.svg	8	yes	57	0	383
6.6.1	win	2022-12-21	13:34:43	13:39:27	282253	5a8ac2d8f49c9a0001f3ab34	921026877	1	practice_slash	5	practice_slash	31	stimuli_distractor_trianglediamonds.svg	stimuli_target_squarediamonds.svg	11	yes	53	1	601
6.6.1	win	2022-12-21	13:34:43	13:39:27	282253	5a8ac2d8f49c9a0001f3ab34	921026877	1	practice_slash	5	advance_on_keypress_SLASH	32	stimuli_distractor_trianglediamonds.svg	stimuli_target_squarediamonds.svg	11	yes	57	0	485
6.6.1	win	2022-12-21	13:34:43	13:39:32	287105	5a8ac2d8f49c9a0001f3ab34	921026877	1	main_slash	7	main_slash	1	stimuli_target_diamondcircles.svg	stimuli_distractor_diamondtriangles.svg	23	yes	53	1	658
6.6.1	win	2022-12-21	13:34:43	13:39:32	287105	5a8ac2d8f49c9a0001f3ab34	921026877	1	main_slash	7	advance_on_keypress_SLASH	2	stimuli_target_diamondcircles.svg	stimuli_distractor_diamondtriangles.svg	23	yes	57	0	544
6.6.1	win	2022-12-21	13:34:43	13:39:34	289223	5a8ac2d8f49c9a0001f3ab34	921026877	1	main_slash	7	main_slash	3	stimuli_target_trianglecircles.svg	stimuli_distractor_trianglediamonds.svg	17	yes	53	1	911
6.6.1	win	2022-12-21	13:34:43	13:39:34	289223	5a8ac2d8f49c9a0001f3ab34	921026877	1	main_slash	7	advance_on_keypress_SLASH	4	stimuli_target_trianglecircles.svg	stimuli_distractor_trianglediamonds.svg	17	yes	57	0	531
6.6.1	win	2022-12-21	13:34:43	13:39:36	291222	5a8ac2d8f49c9a0001f3ab34	921026877	1	main_slash	7	main_slash	5	stimuli_distractor_trianglediamonds.svg	stimuli_target_squaretriangles.svg	11	yes	53	1	809
6.6.1	win	2022-12-21	13:34:43	13:39:36	291222	5a8ac2d8f49c9a0001f3ab34	921026877	1	main_slash	7	advance_on_keypress_SLASH	6	stimuli_distractor_trianglediamonds.svg	stimuli_target_squaretriangles.svg	11	yes	57	0	395
6.6.1	win	2022-12-21	13:34:43	13:39:37	292937	5a8ac2d8f49c9a0001f3ab34	921026877	1	main_slash	7	main_slash	7	stimuli_target_circlediamonds.svg	stimuli_distractor_trianglediamonds.svg	2	yes	53	1	659
6.6.1	win	2022-12-21	13:34:43	13:39:37	292937	5a8ac2d8f49c9a0001f3ab34	921026877	1	main_slash	7	advance_on_keypress_SLASH	8	stimuli_target_circlediamonds.svg	stimuli_distractor_trianglediamonds.svg	2	yes	57	0	475
6.6.1	win	2022-12-21	13:34:43	13:39:40	296044	5a8ac2d8f49c9a0001f3ab34	921026877	1	main_slash	7	main_slash	9	stimuli_target_diamondsquares.svg	stimuli_distractor_diamondtriangles.svg	24	yes	0	0	2000
6.6.1	win	2022-12-21	13:34:43	13:39:40	296044	5a8ac2d8f49c9a0001f3ab34	921026877	1	main_slash	7	advance_on_keypress_SLASH	10	stimuli_target_diamondsquares.svg	stimuli_distractor_diamondtriangles.svg	24	yes	57	0	508
6.6.1	win	2022-12-21	13:34:43	13:39:42	297750	5a8ac2d8f49c9a0001f3ab34	921026877	1	main_slash	7	main_slash	11	stimuli_target_trianglecircles.svg	stimuli_distractor_diamondtriangles.svg	21	yes	53	1	557
6.6.1	win	2022-12-21	13:34:43	13:39:42	297750	5a8ac2d8f49c9a0001f3ab34	921026877	1	main_slash	7	advance_on_keypress_SLASH	12	stimuli_target_trianglecircles.svg	stimuli_distractor_diamondtriangles.svg	21	yes	57	0	753
6.6.1	win	2022-12-21	13:34:43	13:39:45	300217	5a8ac2d8f49c9a0001f3ab34	921026877	1	main_slash	7	main_slash	13	stimuli_distractor_diamondtriangles.svg	stimuli_target_squarediamonds.svg	16	yes	53	1	1073
6.6.1	win	2022-12-21	13:34:43	13:39:45	300217	5a8ac2d8f49c9a0001f3ab34	921026877	1	main_slash	7	advance_on_keypress_SLASH	14	stimuli_distractor_diamondtriangles.svg	stimuli_target_squarediamonds.svg	16	yes	57	0	857
6.6.1	win	2022-12-21	13:34:43	13:39:48	303709	5a8ac2d8f49c9a0001f3ab34	921026877	1	main_slash	7	main_slash	15	stimuli_distractor_trianglediamonds.svg	stimuli_target_squarediamonds.svg	12	yes	0	0	2000
6.6.1	win	2022-12-21	13:34:43	13:39:48	303709	5a8ac2d8f49c9a0001f3ab34	921026877	1	main_slash	7	advance_on_keypress_SLASH	16	stimuli_distractor_trianglediamonds.svg	stimuli_target_squarediamonds.svg	12	yes	57	0	559
6.6.1	win	2022-12-21	13:34:43	13:39:50	305620	5a8ac2d8f49c9a0001f3ab34	921026877	1	main_slash	7	main_slash	17	stimuli_target_squaretriangles.svg	stimuli_distractor_diamondtriangles.svg	7	yes	53	1	710
6.6.1	win	2022-12-21	13:34:43	13:39:50	305620	5a8ac2d8f49c9a0001f3ab34	921026877	1	main_slash	7	advance_on_keypress_SLASH	18	stimuli_target_squaretriangles.svg	stimuli_distractor_diamondtriangles.svg	7	yes	57	0	417
6.6.1	win	2022-12-21	13:34:43	13:39:52	307528	5a8ac2d8f49c9a0001f3ab34	921026877	1	main_slash	7	main_slash	19	stimuli_distractor_diamondtriangles.svg	stimuli_target_circletriangles.svg	13	yes	53	1	837
6.6.1	win	2022-12-21	13:34:43	13:39:52	307528	5a8ac2d8f49c9a0001f3ab34	921026877	1	main_slash	7	advance_on_keypress_SLASH	20	stimuli_distractor_diamondtriangles.svg	stimuli_target_circletriangles.svg	13	yes	57	0	476
6.6.1	win	2022-12-21	13:34:43	13:39:54	309326	5a8ac2d8f49c9a0001f3ab34	921026877	1	main_slash	7	main_slash	21	stimuli_target_circletriangles.svg	stimuli_distractor_diamondtriangles.svg	5	yes	53	1	686
6.6.1	win	2022-12-21	13:34:43	13:39:54	309326	5a8ac2d8f49c9a0001f3ab34	921026877	1	main_slash	7	advance_on_keypress_SLASH	22	stimuli_target_circletriangles.svg	stimuli_distractor_diamondtriangles.svg	5	yes	57	0	471
6.6.1	win	2022-12-21	13:34:43	13:39:57	312442	5a8ac2d8f49c9a0001f3ab34	921026877	1	main_slash	7	main_slash	23	stimuli_distractor_diamondtriangles.svg	stimuli_distractor_trianglediamonds.svg	38	no	0	1	2000
6.6.1	win	2022-12-21	13:34:43	13:39:57	312442	5a8ac2d8f49c9a0001f3ab34	921026877	1	main_slash	7	advance_on_keypress_SLASH	24	stimuli_distractor_diamondtriangles.svg	stimuli_distractor_trianglediamonds.svg	38	no	57	0	329
6.6.1	win	2022-12-21	13:34:43	13:40:00	315421	5a8ac2d8f49c9a0001f3ab34	921026877	1	main_slash	7	main_slash	25	stimuli_distractor_diamondtriangles.svg	stimuli_distractor_diamondtriangles.svg	39	no	0	1	2000
6.6.1	win	2022-12-21	13:34:43	13:40:00	315421	5a8ac2d8f49c9a0001f3ab34	921026877	1	main_slash	7	advance_on_keypress_SLASH	26	stimuli_distractor_diamondtriangles.svg	stimuli_distractor_diamondtriangles.svg	39	no	57	0	346
6.6.1	win	2022-12-21	13:34:43	13:40:03	318421	5a8ac2d8f49c9a0001f3ab34	921026877	1	main_slash	7	main_slash	27	stimuli_distractor_trianglediamonds.svg	stimuli_distractor_diamondtriangles.svg	35	no	0	1	2000
6.6.1	win	2022-12-21	13:34:43	13:40:03	318421	5a8ac2d8f49c9a0001f3ab34	921026877	1	main_slash	7	advance_on_keypress_SLASH	28	stimuli_distractor_trianglediamonds.svg	stimuli_distractor_diamondtriangles.svg	35	no	57	0	348
6.6.1	win	2022-12-21	13:34:43	13:40:05	320884	5a8ac2d8f49c9a0001f3ab34	921026877	1	main_slash	7	main_slash	29	stimuli_target_trianglesquares.svg	stimuli_distractor_diamondtriangles.svg	22	yes	53	1	1464
6.6.1	win	2022-12-21	13:34:43	13:40:05	320884	5a8ac2d8f49c9a0001f3ab34	921026877	1	main_slash	7	advance_on_keypress_SLASH	30	stimuli_target_trianglesquares.svg	stimuli_distractor_diamondtriangles.svg	22	yes	57	0	523
6.6.1	win	2022-12-21	13:34:43	13:40:08	324053	5a8ac2d8f49c9a0001f3ab34	921026877	1	main_slash	7	main_slash	31	stimuli_distractor_diamondtriangles.svg	stimuli_distractor_diamondtriangles.svg	40	no	0	1	2000
6.6.1	win	2022-12-21	13:34:43	13:40:08	324053	5a8ac2d8f49c9a0001f3ab34	921026877	1	main_slash	7	advance_on_keypress_SLASH	32	stimuli_distractor_diamondtriangles.svg	stimuli_distractor_diamondtriangles.svg	40	no	57	0	263
6.6.1	win	2022-12-21	13:34:43	13:40:11	326969	5a8ac2d8f49c9a0001f3ab34	921026877	1	main_slash	7	main_slash	33	stimuli_distractor_diamondtriangles.svg	stimuli_target_trianglesquares.svg	30	yes	0	0	2000
6.6.1	win	2022-12-21	13:34:43	13:40:11	326969	5a8ac2d8f49c9a0001f3ab34	921026877	1	main_slash	7	advance_on_keypress_SLASH	34	stimuli_distractor_diamondtriangles.svg	stimuli_target_trianglesquares.svg	30	yes	57	0	551
6.6.1	win	2022-12-21	13:34:43	13:40:15	330167	5a8ac2d8f49c9a0001f3ab34	921026877	1	main_slash	7	main_slash	35	stimuli_distractor_trianglediamonds.svg	stimuli_distractor_trianglediamonds.svg	33	no	0	1	2000
6.6.1	win	2022-12-21	13:34:43	13:40:15	330167	5a8ac2d8f49c9a0001f3ab34	921026877	1	main_slash	7	advance_on_keypress_SLASH	36	stimuli_distractor_trianglediamonds.svg	stimuli_distractor_trianglediamonds.svg	33	no	57	0	666
6.6.1	win	2022-12-21	13:34:43	13:40:17	332120	5a8ac2d8f49c9a0001f3ab34	921026877	1	main_slash	7	main_slash	37	stimuli_target_diamondcircles.svg	stimuli_distractor_trianglediamonds.svg	19	yes	53	1	636
6.6.1	win	2022-12-21	13:34:43	13:40:17	332120	5a8ac2d8f49c9a0001f3ab34	921026877	1	main_slash	7	advance_on_keypress_SLASH	38	stimuli_target_diamondcircles.svg	stimuli_distractor_trianglediamonds.svg	19	yes	57	0	675
6.6.1	win	2022-12-21	13:34:43	13:40:20	335434	5a8ac2d8f49c9a0001f3ab34	921026877	1	main_slash	7	main_slash	39	stimuli_distractor_trianglediamonds.svg	stimuli_distractor_trianglediamonds.svg	34	no	0	1	2000
6.6.1	win	2022-12-21	13:34:43	13:40:20	335434	5a8ac2d8f49c9a0001f3ab34	921026877	1	main_slash	7	advance_on_keypress_SLASH	40	stimuli_distractor_trianglediamonds.svg	stimuli_distractor_trianglediamonds.svg	34	no	57	0	259
6.6.1	win	2022-12-21	13:34:43	13:40:23	338333	5a8ac2d8f49c9a0001f3ab34	921026877	1	main_slash	7	main_slash	41	stimuli_target_diamondsquares.svg	stimuli_distractor_trianglediamonds.svg	20	yes	0	0	2000
6.6.1	win	2022-12-21	13:34:43	13:40:23	338333	5a8ac2d8f49c9a0001f3ab34	921026877	1	main_slash	7	advance_on_keypress_SLASH	42	stimuli_target_diamondsquares.svg	stimuli_distractor_trianglediamonds.svg	20	yes	57	0	757
6.6.1	win	2022-12-21	13:34:43	13:40:25	340567	5a8ac2d8f49c9a0001f3ab34	921026877	1	main_slash	7	main_slash	43	stimuli_distractor_trianglediamonds.svg	stimuli_target_diamondsquares.svg	28	yes	53	1	835
6.6.1	win	2022-12-21	13:34:43	13:40:25	340567	5a8ac2d8f49c9a0001f3ab34	921026877	1	main_slash	7	advance_on_keypress_SLASH	44	stimuli_distractor_trianglediamonds.svg	stimuli_target_diamondsquares.svg	28	yes	57	0	439
6.6.1	win	2022-12-21	13:34:43	13:40:27	342614	5a8ac2d8f49c9a0001f3ab34	921026877	1	main_slash	7	main_slash	45	stimuli_distractor_diamondtriangles.svg	stimuli_target_squaretriangles.svg	15	yes	53	1	966
6.6.1	win	2022-12-21	13:34:43	13:40:27	342614	5a8ac2d8f49c9a0001f3ab34	921026877	1	main_slash	7	advance_on_keypress_SLASH	46	stimuli_distractor_diamondtriangles.svg	stimuli_target_squaretriangles.svg	15	yes	57	0	417
6.6.1	win	2022-12-21	13:34:43	13:40:30	345680	5a8ac2d8f49c9a0001f3ab34	921026877	1	main_slash	7	main_slash	47	stimuli_distractor_diamondtriangles.svg	stimuli_distractor_trianglediamonds.svg	37	no	0	1	2000
6.6.1	win	2022-12-21	13:34:43	13:40:30	345680	5a8ac2d8f49c9a0001f3ab34	921026877	1	main_slash	7	advance_on_keypress_SLASH	48	stimuli_distractor_diamondtriangles.svg	stimuli_distractor_trianglediamonds.svg	37	no	57	0	392
6.6.1	win	2022-12-21	13:34:43	13:40:32	347448	5a8ac2d8f49c9a0001f3ab34	921026877	1	main_slash	7	main_slash	49	stimuli_distractor_trianglediamonds.svg	stimuli_target_trianglecircles.svg	25	yes	53	1	735
6.6.1	win	2022-12-21	13:34:43	13:40:32	347448	5a8ac2d8f49c9a0001f3ab34	921026877	1	main_slash	7	advance_on_keypress_SLASH	50	stimuli_distractor_trianglediamonds.svg	stimuli_target_trianglecircles.svg	25	yes	57	0	548
6.6.1	win	2022-12-21	13:34:43	13:40:34	349386	5a8ac2d8f49c9a0001f3ab34	921026877	1	main_slash	7	main_slash	51	stimuli_distractor_diamondtriangles.svg	stimuli_target_circlediamonds.svg	14	yes	53	1	740
6.6.1	win	2022-12-21	13:34:43	13:40:34	349386	5a8ac2d8f49c9a0001f3ab34	921026877	1	main_slash	7	advance_on_keypress_SLASH	52	stimuli_distractor_diamondtriangles.svg	stimuli_target_circlediamonds.svg	14	yes	57	0	555
6.6.1	win	2022-12-21	13:34:43	13:40:36	351354	5a8ac2d8f49c9a0001f3ab34	921026877	1	main_slash	7	main_slash	53	stimuli_distractor_trianglediamonds.svg	stimuli_target_trianglesquares.svg	26	yes	53	1	776
6.6.1	win	2022-12-21	13:34:43	13:40:36	351354	5a8ac2d8f49c9a0001f3ab34	921026877	1	main_slash	7	advance_on_keypress_SLASH	54	stimuli_distractor_trianglediamonds.svg	stimuli_target_trianglesquares.svg	26	yes	57	0	485
6.6.1	win	2022-12-21	13:34:43	13:40:39	354494	5a8ac2d8f49c9a0001f3ab34	921026877	1	main_slash	7	main_slash	55	stimuli_distractor_trianglediamonds.svg	stimuli_distractor_diamondtriangles.svg	36	no	0	1	2000
6.6.1	win	2022-12-21	13:34:43	13:40:39	354494	5a8ac2d8f49c9a0001f3ab34	921026877	1	main_slash	7	advance_on_keypress_SLASH	56	stimuli_distractor_trianglediamonds.svg	stimuli_distractor_diamondtriangles.svg	36	no	57	0	601
6.6.1	win	2022-12-21	13:34:43	13:40:41	356421	5a8ac2d8f49c9a0001f3ab34	921026877	1	main_slash	7	main_slash	57	stimuli_target_circlediamonds.svg	stimuli_distractor_diamondtriangles.svg	6	yes	53	1	678
6.6.1	win	2022-12-21	13:34:43	13:40:41	356421	5a8ac2d8f49c9a0001f3ab34	921026877	1	main_slash	7	advance_on_keypress_SLASH	58	stimuli_target_circlediamonds.svg	stimuli_distractor_diamondtriangles.svg	6	yes	57	0	487
6.6.1	win	2022-12-21	13:34:43	13:40:43	358255	5a8ac2d8f49c9a0001f3ab34	921026877	1	main_slash	7	main_slash	59	stimuli_target_squarediamonds.svg	stimuli_distractor_diamondtriangles.svg	8	yes	53	1	696
6.6.1	win	2022-12-21	13:34:43	13:40:43	358255	5a8ac2d8f49c9a0001f3ab34	921026877	1	main_slash	7	advance_on_keypress_SLASH	60	stimuli_target_squarediamonds.svg	stimuli_distractor_diamondtriangles.svg	8	yes	57	0	528
6.6.1	win	2022-12-21	13:34:43	13:40:45	360310	5a8ac2d8f49c9a0001f3ab34	921026877	1	main_slash	7	main_slash	61	stimuli_target_squarediamonds.svg	stimuli_distractor_trianglediamonds.svg	4	yes	53	1	866
6.6.1	win	2022-12-21	13:34:43	13:40:45	360310	5a8ac2d8f49c9a0001f3ab34	921026877	1	main_slash	7	advance_on_keypress_SLASH	62	stimuli_target_squarediamonds.svg	stimuli_distractor_trianglediamonds.svg	4	yes	57	0	587
6.6.1	win	2022-12-21	13:34:43	13:40:47	362865	5a8ac2d8f49c9a0001f3ab34	921026877	1	main_slash	7	main_slash	63	stimuli_target_trianglesquares.svg	stimuli_distractor_trianglediamonds.svg	18	yes	53	1	1324
6.6.1	win	2022-12-21	13:34:43	13:40:47	362865	5a8ac2d8f49c9a0001f3ab34	921026877	1	main_slash	7	advance_on_keypress_SLASH	64	stimuli_target_trianglesquares.svg	stimuli_distractor_trianglediamonds.svg	18	yes	57	0	324
6.6.1	win	2022-12-21	13:34:43	13:40:50	365825	5a8ac2d8f49c9a0001f3ab34	921026877	1	main_slash	7	main_slash	65	stimuli_distractor_diamondtriangles.svg	stimuli_target_diamondsquares.svg	32	yes	0	0	2000
6.6.1	win	2022-12-21	13:34:43	13:40:50	365825	5a8ac2d8f49c9a0001f3ab34	921026877	1	main_slash	7	advance_on_keypress_SLASH	66	stimuli_distractor_diamondtriangles.svg	stimuli_target_diamondsquares.svg	32	yes	57	0	552
6.6.1	win	2022-12-21	13:34:43	13:40:52	367614	5a8ac2d8f49c9a0001f3ab34	921026877	1	main_slash	7	main_slash	67	stimuli_distractor_diamondtriangles.svg	stimuli_target_trianglecircles.svg	29	yes	53	1	590
6.6.1	win	2022-12-21	13:34:43	13:40:52	367614	5a8ac2d8f49c9a0001f3ab34	921026877	1	main_slash	7	advance_on_keypress_SLASH	68	stimuli_distractor_diamondtriangles.svg	stimuli_target_trianglecircles.svg	29	yes	57	0	545
6.6.1	win	2022-12-21	13:34:43	13:40:54	369407	5a8ac2d8f49c9a0001f3ab34	921026877	1	main_slash	7	main_slash	69	stimuli_distractor_trianglediamonds.svg	stimuli_target_diamondcircles.svg	27	yes	53	1	601
6.6.1	win	2022-12-21	13:34:43	13:40:54	369407	5a8ac2d8f49c9a0001f3ab34	921026877	1	main_slash	7	advance_on_keypress_SLASH	70	stimuli_distractor_trianglediamonds.svg	stimuli_target_diamondcircles.svg	27	yes	57	0	613
6.6.1	win	2022-12-21	13:34:43	13:40:56	371380	5a8ac2d8f49c9a0001f3ab34	921026877	1	main_slash	7	main_slash	71	stimuli_distractor_diamondtriangles.svg	stimuli_target_diamondcircles.svg	31	yes	53	1	709
6.6.1	win	2022-12-21	13:34:43	13:40:56	371380	5a8ac2d8f49c9a0001f3ab34	921026877	1	main_slash	7	advance_on_keypress_SLASH	72	stimuli_distractor_diamondtriangles.svg	stimuli_target_diamondcircles.svg	31	yes	57	0	486
6.6.1	win	2022-12-21	13:34:43	13:40:58	373170	5a8ac2d8f49c9a0001f3ab34	921026877	1	main_slash	7	main_slash	73	stimuli_distractor_trianglediamonds.svg	stimuli_target_circlediamonds.svg	10	yes	53	1	665
6.6.1	win	2022-12-21	13:34:43	13:40:58	373170	5a8ac2d8f49c9a0001f3ab34	921026877	1	main_slash	7	advance_on_keypress_SLASH	74	stimuli_distractor_trianglediamonds.svg	stimuli_target_circlediamonds.svg	10	yes	57	0	536
6.6.1	win	2022-12-21	13:34:43	13:41:00	375517	5a8ac2d8f49c9a0001f3ab34	921026877	1	main_slash	7	main_slash	75	stimuli_distractor_trianglediamonds.svg	stimuli_target_circletriangles.svg	9	yes	53	1	1162
6.6.1	win	2022-12-21	13:34:43	13:41:00	375517	5a8ac2d8f49c9a0001f3ab34	921026877	1	main_slash	7	advance_on_keypress_SLASH	76	stimuli_distractor_trianglediamonds.svg	stimuli_target_circletriangles.svg	9	yes	57	0	368
6.6.1	win	2022-12-21	13:34:43	13:41:02	377117	5a8ac2d8f49c9a0001f3ab34	921026877	1	main_slash	7	main_slash	77	stimuli_target_circletriangles.svg	stimuli_distractor_trianglediamonds.svg	1	yes	53	1	579
6.6.1	win	2022-12-21	13:34:43	13:41:02	377117	5a8ac2d8f49c9a0001f3ab34	921026877	1	main_slash	7	advance_on_keypress_SLASH	78	stimuli_target_circletriangles.svg	stimuli_distractor_trianglediamonds.svg	1	yes	57	0	529
6.6.1	win	2022-12-21	13:34:43	13:41:03	378906	5a8ac2d8f49c9a0001f3ab34	921026877	1	main_slash	7	main_slash	79	stimuli_target_squaretriangles.svg	stimuli_distractor_trianglediamonds.svg	3	yes	53	1	602
6.6.1	win	2022-12-21	13:34:43	13:41:03	378906	5a8ac2d8f49c9a0001f3ab34	921026877	1	main_slash	7	advance_on_keypress_SLASH	80	stimuli_target_squaretriangles.svg	stimuli_distractor_trianglediamonds.svg	3	yes	57	0	458
6.6.1	win	2022-12-21	13:34:43	13:41:05	380590	5a8ac2d8f49c9a0001f3ab34	921026877	1	main_slash	7	main_slash	81	stimuli_target_diamondcircles.svg	stimuli_distractor_trianglediamonds.svg	19	yes	53	1	588
6.6.1	win	2022-12-21	13:34:43	13:41:05	380590	5a8ac2d8f49c9a0001f3ab34	921026877	1	main_slash	7	advance_on_keypress_SLASH	82	stimuli_target_diamondcircles.svg	stimuli_distractor_trianglediamonds.svg	19	yes	57	0	461
6.6.1	win	2022-12-21	13:34:43	13:41:08	383702	5a8ac2d8f49c9a0001f3ab34	921026877	1	main_slash	7	main_slash	83	stimuli_distractor_diamondtriangles.svg	stimuli_target_squarediamonds.svg	16	yes	0	0	2000
6.6.1	win	2022-12-21	13:34:43	13:41:08	383702	5a8ac2d8f49c9a0001f3ab34	921026877	1	main_slash	7	advance_on_keypress_SLASH	84	stimuli_distractor_diamondtriangles.svg	stimuli_target_squarediamonds.svg	16	yes	57	0	624
6.6.1	win	2022-12-21	13:34:43	13:41:11	386969	5a8ac2d8f49c9a0001f3ab34	921026877	1	main_slash	7	main_slash	85	stimuli_distractor_diamondtriangles.svg	stimuli_distractor_diamondtriangles.svg	40	no	0	1	2000
6.6.1	win	2022-12-21	13:34:43	13:41:11	386969	5a8ac2d8f49c9a0001f3ab34	921026877	1	main_slash	7	advance_on_keypress_SLASH	86	stimuli_distractor_diamondtriangles.svg	stimuli_distractor_diamondtriangles.svg	40	no	57	0	533
6.6.1	win	2022-12-21	13:34:43	13:41:13	388807	5a8ac2d8f49c9a0001f3ab34	921026877	1	main_slash	7	main_slash	87	stimuli_target_diamondsquares.svg	stimuli_distractor_diamondtriangles.svg	24	yes	53	1	657
6.6.1	win	2022-12-21	13:34:43	13:41:13	388807	5a8ac2d8f49c9a0001f3ab34	921026877	1	main_slash	7	advance_on_keypress_SLASH	88	stimuli_target_diamondsquares.svg	stimuli_distractor_diamondtriangles.svg	24	yes	57	0	474
6.6.1	win	2022-12-21	13:34:43	13:41:15	390820	5a8ac2d8f49c9a0001f3ab34	921026877	1	main_slash	7	main_slash	89	stimuli_distractor_trianglediamonds.svg	stimuli_distractor_trianglediamonds.svg	33	no	53	0	904
6.6.1	win	2022-12-21	13:34:43	13:41:15	390820	5a8ac2d8f49c9a0001f3ab34	921026877	1	main_slash	7	advance_on_keypress_SLASH	90	stimuli_distractor_trianglediamonds.svg	stimuli_distractor_trianglediamonds.svg	33	no	57	0	307
6.6.1	win	2022-12-21	13:34:43	13:41:17	392462	5a8ac2d8f49c9a0001f3ab34	921026877	1	main_slash	7	main_slash	91	stimuli_distractor_diamondtriangles.svg	stimuli_target_trianglesquares.svg	30	yes	53	1	693
6.6.1	win	2022-12-21	13:34:43	13:41:17	392462	5a8ac2d8f49c9a0001f3ab34	921026877	1	main_slash	7	advance_on_keypress_SLASH	92	stimuli_distractor_diamondtriangles.svg	stimuli_target_trianglesquares.svg	30	yes	57	0	436
6.6.1	win	2022-12-21	13:34:43	13:41:19	394373	5a8ac2d8f49c9a0001f3ab34	921026877	1	main_slash	7	main_slash	93	stimuli_target_circletriangles.svg	stimuli_distractor_diamondtriangles.svg	5	yes	53	1	825
6.6.1	win	2022-12-21	13:34:43	13:41:19	394373	5a8ac2d8f49c9a0001f3ab34	921026877	1	main_slash	7	advance_on_keypress_SLASH	94	stimuli_target_circletriangles.svg	stimuli_distractor_diamondtriangles.svg	5	yes	57	0	315
6.6.1	win	2022-12-21	13:34:43	13:41:22	397332	5a8ac2d8f49c9a0001f3ab34	921026877	1	main_slash	7	main_slash	95	stimuli_target_trianglecircles.svg	stimuli_distractor_trianglediamonds.svg	17	yes	0	0	2000
6.6.1	win	2022-12-21	13:34:43	13:41:22	397332	5a8ac2d8f49c9a0001f3ab34	921026877	1	main_slash	7	advance_on_keypress_SLASH	96	stimuli_target_trianglecircles.svg	stimuli_distractor_trianglediamonds.svg	17	yes	57	0	554
6.6.1	win	2022-12-21	13:34:43	13:41:25	400530	5a8ac2d8f49c9a0001f3ab34	921026877	1	main_slash	7	main_slash	97	stimuli_distractor_trianglediamonds.svg	stimuli_distractor_trianglediamonds.svg	34	no	0	1	2000
6.6.1	win	2022-12-21	13:34:43	13:41:25	400530	5a8ac2d8f49c9a0001f3ab34	921026877	1	main_slash	7	advance_on_keypress_SLASH	98	stimuli_distractor_trianglediamonds.svg	stimuli_distractor_trianglediamonds.svg	34	no	57	0	465
6.6.1	win	2022-12-21	13:34:43	13:41:27	402117	5a8ac2d8f49c9a0001f3ab34	921026877	1	main_slash	7	main_slash	99	stimuli_target_squarediamonds.svg	stimuli_distractor_trianglediamonds.svg	4	yes	53	1	471
6.6.1	win	2022-12-21	13:34:43	13:41:27	402117	5a8ac2d8f49c9a0001f3ab34	921026877	1	main_slash	7	advance_on_keypress_SLASH	100	stimuli_target_squarediamonds.svg	stimuli_distractor_trianglediamonds.svg	4	yes	57	0	596
6.6.1	win	2022-12-21	13:34:43	13:41:30	405364	5a8ac2d8f49c9a0001f3ab34	921026877	1	main_slash	7	main_slash	101	stimuli_distractor_diamondtriangles.svg	stimuli_distractor_trianglediamonds.svg	38	no	0	1	2000
6.6.1	win	2022-12-21	13:34:43	13:41:30	405364	5a8ac2d8f49c9a0001f3ab34	921026877	1	main_slash	7	advance_on_keypress_SLASH	102	stimuli_distractor_diamondtriangles.svg	stimuli_distractor_trianglediamonds.svg	38	no	57	0	398
6.6.1	win	2022-12-21	13:34:43	13:41:31	406967	5a8ac2d8f49c9a0001f3ab34	921026877	1	main_slash	7	main_slash	103	stimuli_target_trianglecircles.svg	stimuli_distractor_diamondtriangles.svg	21	yes	53	1	556
6.6.1	win	2022-12-21	13:34:43	13:41:31	406967	5a8ac2d8f49c9a0001f3ab34	921026877	1	main_slash	7	advance_on_keypress_SLASH	104	stimuli_target_trianglecircles.svg	stimuli_distractor_diamondtriangles.svg	21	yes	57	0	427
6.6.1	win	2022-12-21	13:34:43	13:41:33	408776	5a8ac2d8f49c9a0001f3ab34	921026877	1	main_slash	7	main_slash	105	stimuli_distractor_trianglediamonds.svg	stimuli_target_trianglesquares.svg	26	yes	53	1	732
6.6.1	win	2022-12-21	13:34:43	13:41:33	408776	5a8ac2d8f49c9a0001f3ab34	921026877	1	main_slash	7	advance_on_keypress_SLASH	106	stimuli_distractor_trianglediamonds.svg	stimuli_target_trianglesquares.svg	26	yes	57	0	410
6.6.1	win	2022-12-21	13:34:43	13:41:35	410515	5a8ac2d8f49c9a0001f3ab34	921026877	1	main_slash	7	main_slash	107	stimuli_target_circlediamonds.svg	stimuli_distractor_diamondtriangles.svg	6	yes	53	1	671
6.6.1	win	2022-12-21	13:34:43	13:41:35	410515	5a8ac2d8f49c9a0001f3ab34	921026877	1	main_slash	7	advance_on_keypress_SLASH	108	stimuli_target_circlediamonds.svg	stimuli_distractor_diamondtriangles.svg	6	yes	57	0	506
6.6.1	win	2022-12-21	13:34:43	13:41:37	412937	5a8ac2d8f49c9a0001f3ab34	921026877	1	main_slash	7	main_slash	109	stimuli_target_squaretriangles.svg	stimuli_distractor_trianglediamonds.svg	3	yes	53	1	1277
6.6.1	win	2022-12-21	13:34:43	13:41:37	412937	5a8ac2d8f49c9a0001f3ab34	921026877	1	main_slash	7	advance_on_keypress_SLASH	110	stimuli_target_squaretriangles.svg	stimuli_distractor_trianglediamonds.svg	3	yes	57	0	485
6.6.1	win	2022-12-21	13:34:43	13:41:40	416077	5a8ac2d8f49c9a0001f3ab34	921026877	1	main_slash	7	main_slash	111	stimuli_distractor_trianglediamonds.svg	stimuli_distractor_diamondtriangles.svg	36	no	0	1	2000
6.6.1	win	2022-12-21	13:34:43	13:41:40	416077	5a8ac2d8f49c9a0001f3ab34	921026877	1	main_slash	7	advance_on_keypress_SLASH	112	stimuli_distractor_trianglediamonds.svg	stimuli_distractor_diamondtriangles.svg	36	no	57	0	1888
6.6.1	win	2022-12-21	13:34:43	13:41:44	419644	5a8ac2d8f49c9a0001f3ab34	921026877	1	main_slash	7	main_slash	113	stimuli_distractor_trianglediamonds.svg	stimuli_target_squaretriangles.svg	11	yes	53	1	1036
6.6.1	win	2022-12-21	13:34:43	13:41:44	419644	5a8ac2d8f49c9a0001f3ab34	921026877	1	main_slash	7	advance_on_keypress_SLASH	114	stimuli_distractor_trianglediamonds.svg	stimuli_target_squaretriangles.svg	11	yes	57	0	366
6.6.1	win	2022-12-21	13:34:43	13:41:46	421504	5a8ac2d8f49c9a0001f3ab34	921026877	1	main_slash	7	main_slash	115	stimuli_target_trianglesquares.svg	stimuli_distractor_diamondtriangles.svg	22	yes	53	1	847
6.6.1	win	2022-12-21	13:34:43	13:41:46	421504	5a8ac2d8f49c9a0001f3ab34	921026877	1	main_slash	7	advance_on_keypress_SLASH	116	stimuli_target_trianglesquares.svg	stimuli_distractor_diamondtriangles.svg	22	yes	57	0	413
6.6.1	win	2022-12-21	13:34:43	13:41:48	423557	5a8ac2d8f49c9a0001f3ab34	921026877	1	main_slash	7	main_slash	117	stimuli_distractor_diamondtriangles.svg	stimuli_target_trianglecircles.svg	29	yes	53	1	984
6.6.1	win	2022-12-21	13:34:43	13:41:48	423557	5a8ac2d8f49c9a0001f3ab34	921026877	1	main_slash	7	advance_on_keypress_SLASH	118	stimuli_distractor_diamondtriangles.svg	stimuli_target_trianglecircles.svg	29	yes	57	0	381
6.6.1	win	2022-12-21	13:34:43	13:41:51	426590	5a8ac2d8f49c9a0001f3ab34	921026877	1	main_slash	7	main_slash	119	stimuli_distractor_diamondtriangles.svg	stimuli_distractor_trianglediamonds.svg	37	no	0	1	2000
6.6.1	win	2022-12-21	13:34:43	13:41:51	426590	5a8ac2d8f49c9a0001f3ab34	921026877	1	main_slash	7	advance_on_keypress_SLASH	120	stimuli_distractor_diamondtriangles.svg	stimuli_distractor_trianglediamonds.svg	37	no	57	0	1307
6.6.1	win	2022-12-21	13:34:43	13:41:54	429198	5a8ac2d8f49c9a0001f3ab34	921026877	1	main_slash	7	main_slash	121	stimuli_target_trianglesquares.svg	stimuli_distractor_trianglediamonds.svg	18	yes	53	1	659
6.6.1	win	2022-12-21	13:34:43	13:41:54	429198	5a8ac2d8f49c9a0001f3ab34	921026877	1	main_slash	7	advance_on_keypress_SLASH	122	stimuli_target_trianglesquares.svg	stimuli_distractor_trianglediamonds.svg	18	yes	57	0	415
6.6.1	win	2022-12-21	13:34:43	13:41:55	431016	5a8ac2d8f49c9a0001f3ab34	921026877	1	main_slash	7	main_slash	123	stimuli_target_circletriangles.svg	stimuli_distractor_trianglediamonds.svg	1	yes	53	1	762
6.6.1	win	2022-12-21	13:34:43	13:41:55	431016	5a8ac2d8f49c9a0001f3ab34	921026877	1	main_slash	7	advance_on_keypress_SLASH	124	stimuli_target_circletriangles.svg	stimuli_distractor_trianglediamonds.svg	1	yes	57	0	392
6.6.1	win	2022-12-21	13:34:43	13:41:58	434054	5a8ac2d8f49c9a0001f3ab34	921026877	1	main_slash	7	main_slash	125	stimuli_distractor_diamondtriangles.svg	stimuli_target_circlediamonds.svg	14	yes	0	0	2000
6.6.1	win	2022-12-21	13:34:43	13:41:58	434054	5a8ac2d8f49c9a0001f3ab34	921026877	1	main_slash	7	advance_on_keypress_SLASH	126	stimuli_distractor_diamondtriangles.svg	stimuli_target_circlediamonds.svg	14	yes	57	0	2522
6.6.1	win	2022-12-21	13:34:43	13:42:02	437963	5a8ac2d8f49c9a0001f3ab34	921026877	1	main_slash	7	main_slash	127	stimuli_distractor_trianglediamonds.svg	stimuli_target_diamondsquares.svg	28	yes	53	1	744
6.6.1	win	2022-12-21	13:34:43	13:42:02	437963	5a8ac2d8f49c9a0001f3ab34	921026877	1	main_slash	7	advance_on_keypress_SLASH	128	stimuli_distractor_trianglediamonds.svg	stimuli_target_diamondsquares.svg	28	yes	57	0	795
6.6.1	win	2022-12-21	13:34:43	13:42:06	441419	5a8ac2d8f49c9a0001f3ab34	921026877	1	main_slash	7	main_slash	129	stimuli_distractor_trianglediamonds.svg	stimuli_target_diamondcircles.svg	27	yes	0	0	2000
6.6.1	win	2022-12-21	13:34:43	13:42:06	441419	5a8ac2d8f49c9a0001f3ab34	921026877	1	main_slash	7	advance_on_keypress_SLASH	130	stimuli_distractor_trianglediamonds.svg	stimuli_target_diamondcircles.svg	27	yes	57	0	655
6.6.1	win	2022-12-21	13:34:43	13:42:08	443375	5a8ac2d8f49c9a0001f3ab34	921026877	1	main_slash	7	main_slash	131	stimuli_distractor_trianglediamonds.svg	stimuli_target_squarediamonds.svg	12	yes	53	1	658
6.6.1	win	2022-12-21	13:34:43	13:42:08	443375	5a8ac2d8f49c9a0001f3ab34	921026877	1	main_slash	7	advance_on_keypress_SLASH	132	stimuli_distractor_trianglediamonds.svg	stimuli_target_squarediamonds.svg	12	yes	57	0	404
6.6.1	win	2022-12-21	13:34:43	13:42:11	446335	5a8ac2d8f49c9a0001f3ab34	921026877	1	main_slash	7	main_slash	133	stimuli_target_diamondsquares.svg	stimuli_distractor_trianglediamonds.svg	20	yes	53	1	1918
6.6.1	win	2022-12-21	13:34:43	13:42:11	446335	5a8ac2d8f49c9a0001f3ab34	921026877	1	main_slash	7	advance_on_keypress_SLASH	134	stimuli_target_diamondsquares.svg	stimuli_distractor_trianglediamonds.svg	20	yes	57	0	229
6.6.1	win	2022-12-21	13:34:43	13:42:14	449217	5a8ac2d8f49c9a0001f3ab34	921026877	1	main_slash	7	main_slash	135	stimuli_distractor_trianglediamonds.svg	stimuli_distractor_diamondtriangles.svg	35	no	0	1	2000
6.6.1	win	2022-12-21	13:34:43	13:42:14	449217	5a8ac2d8f49c9a0001f3ab34	921026877	1	main_slash	7	advance_on_keypress_SLASH	136	stimuli_distractor_trianglediamonds.svg	stimuli_distractor_diamondtriangles.svg	35	no	57	0	317
6.6.1	win	2022-12-21	13:34:43	13:42:15	450895	5a8ac2d8f49c9a0001f3ab34	921026877	1	main_slash	7	main_slash	137	stimuli_distractor_trianglediamonds.svg	stimuli_target_trianglecircles.svg	25	yes	53	1	713
6.6.1	win	2022-12-21	13:34:43	13:42:15	450895	5a8ac2d8f49c9a0001f3ab34	921026877	1	main_slash	7	advance_on_keypress_SLASH	138	stimuli_distractor_trianglediamonds.svg	stimuli_target_trianglecircles.svg	25	yes	57	0	328
6.6.1	win	2022-12-21	13:34:43	13:42:17	453003	5a8ac2d8f49c9a0001f3ab34	921026877	1	main_slash	7	main_slash	139	stimuli_distractor_diamondtriangles.svg	stimuli_target_squaretriangles.svg	15	yes	53	1	1122
6.6.1	win	2022-12-21	13:34:43	13:42:17	453003	5a8ac2d8f49c9a0001f3ab34	921026877	1	main_slash	7	advance_on_keypress_SLASH	140	stimuli_distractor_diamondtriangles.svg	stimuli_target_squaretriangles.svg	15	yes	57	0	268
6.6.1	win	2022-12-21	13:34:43	13:42:19	454887	5a8ac2d8f49c9a0001f3ab34	921026877	1	main_slash	7	main_slash	141	stimuli_distractor_trianglediamonds.svg	stimuli_target_circletriangles.svg	9	yes	53	1	972
6.6.1	win	2022-12-21	13:34:43	13:42:19	454887	5a8ac2d8f49c9a0001f3ab34	921026877	1	main_slash	7	advance_on_keypress_SLASH	142	stimuli_distractor_trianglediamonds.svg	stimuli_target_circletriangles.svg	9	yes	57	0	278
6.6.1	win	2022-12-21	13:34:43	13:42:22	457814	5a8ac2d8f49c9a0001f3ab34	921026877	1	main_slash	7	main_slash	143	stimuli_target_squaretriangles.svg	stimuli_distractor_diamondtriangles.svg	7	yes	0	0	2000
6.6.1	win	2022-12-21	13:34:43	13:42:22	457814	5a8ac2d8f49c9a0001f3ab34	921026877	1	main_slash	7	advance_on_keypress_SLASH	144	stimuli_target_squaretriangles.svg	stimuli_distractor_diamondtriangles.svg	7	yes	57	0	421
6.6.1	win	2022-12-21	13:34:43	13:42:24	459496	5a8ac2d8f49c9a0001f3ab34	921026877	1	main_slash	7	main_slash	145	stimuli_distractor_trianglediamonds.svg	stimuli_target_circlediamonds.svg	10	yes	53	1	617
6.6.1	win	2022-12-21	13:34:43	13:42:24	459496	5a8ac2d8f49c9a0001f3ab34	921026877	1	main_slash	7	advance_on_keypress_SLASH	146	stimuli_distractor_trianglediamonds.svg	stimuli_target_circlediamonds.svg	10	yes	57	0	357
6.6.1	win	2022-12-21	13:34:43	13:42:26	461130	5a8ac2d8f49c9a0001f3ab34	921026877	1	main_slash	7	main_slash	147	stimuli_target_circlediamonds.svg	stimuli_distractor_trianglediamonds.svg	2	yes	53	1	634
6.6.1	win	2022-12-21	13:34:43	13:42:26	461130	5a8ac2d8f49c9a0001f3ab34	921026877	1	main_slash	7	advance_on_keypress_SLASH	148	stimuli_target_circlediamonds.svg	stimuli_distractor_trianglediamonds.svg	2	yes	57	0	268
6.6.1	win	2022-12-21	13:34:43	13:42:28	464045	5a8ac2d8f49c9a0001f3ab34	921026877	1	main_slash	7	main_slash	149	stimuli_distractor_diamondtriangles.svg	stimuli_distractor_diamondtriangles.svg	39	no	0	1	2000
6.6.1	win	2022-12-21	13:34:43	13:42:28	464045	5a8ac2d8f49c9a0001f3ab34	921026877	1	main_slash	7	advance_on_keypress_SLASH	150	stimuli_distractor_diamondtriangles.svg	stimuli_distractor_diamondtriangles.svg	39	no	57	0	428
6.6.1	win	2022-12-21	13:34:43	13:42:30	465642	5a8ac2d8f49c9a0001f3ab34	921026877	1	main_slash	7	main_slash	151	stimuli_distractor_diamondtriangles.svg	stimuli_target_diamondcircles.svg	31	yes	53	1	512
6.6.1	win	2022-12-21	13:34:43	13:42:30	465642	5a8ac2d8f49c9a0001f3ab34	921026877	1	main_slash	7	advance_on_keypress_SLASH	152	stimuli_distractor_diamondtriangles.svg	stimuli_target_diamondcircles.svg	31	yes	57	0	333
6.6.1	win	2022-12-21	13:34:43	13:42:32	467305	5a8ac2d8f49c9a0001f3ab34	921026877	1	main_slash	7	main_slash	153	stimuli_target_squarediamonds.svg	stimuli_distractor_diamondtriangles.svg	8	yes	53	1	678
6.6.1	win	2022-12-21	13:34:43	13:42:32	467305	5a8ac2d8f49c9a0001f3ab34	921026877	1	main_slash	7	advance_on_keypress_SLASH	154	stimuli_target_squarediamonds.svg	stimuli_distractor_diamondtriangles.svg	8	yes	57	0	306
6.6.1	win	2022-12-21	13:34:43	13:42:33	468994	5a8ac2d8f49c9a0001f3ab34	921026877	1	main_slash	7	main_slash	155	stimuli_distractor_diamondtriangles.svg	stimuli_target_circletriangles.svg	13	yes	53	1	734
6.6.1	win	2022-12-21	13:34:43	13:42:33	468994	5a8ac2d8f49c9a0001f3ab34	921026877	1	main_slash	7	advance_on_keypress_SLASH	156	stimuli_distractor_diamondtriangles.svg	stimuli_target_circletriangles.svg	13	yes	57	0	263
6.6.1	win	2022-12-21	13:34:43	13:42:35	470554	5a8ac2d8f49c9a0001f3ab34	921026877	1	main_slash	7	main_slash	157	stimuli_target_diamondcircles.svg	stimuli_distractor_diamondtriangles.svg	23	yes	53	1	645
6.6.1	win	2022-12-21	13:34:43	13:42:35	470554	5a8ac2d8f49c9a0001f3ab34	921026877	1	main_slash	7	advance_on_keypress_SLASH	158	stimuli_target_diamondcircles.svg	stimuli_distractor_diamondtriangles.svg	23	yes	57	0	302
6.6.1	win	2022-12-21	13:34:43	13:42:37	472346	5a8ac2d8f49c9a0001f3ab34	921026877	1	main_slash	7	main_slash	159	stimuli_distractor_diamondtriangles.svg	stimuli_target_diamondsquares.svg	32	yes	53	1	834
6.6.1	win	2022-12-21	13:34:43	13:42:37	472346	5a8ac2d8f49c9a0001f3ab34	921026877	1	main_slash	7	advance_on_keypress_SLASH	160	stimuli_distractor_diamondtriangles.svg	stimuli_target_diamondsquares.svg	32	yes	57	0	263
6.6.1	win	2022-12-21	13:34:43	13:42:59	494209	5a8ac2d8f49c9a0001f3ab34	921026877	1	practice_z	9	practice_z	1	stimuli_target_diamondsquares.svg	stimuli_distractor_trianglediamonds.svg	6	yes	44	1	949
6.6.1	win	2022-12-21	13:34:43	13:42:59	494209	5a8ac2d8f49c9a0001f3ab34	921026877	1	practice_z	9	advance_on_keypress_ZEE	2	stimuli_target_diamondsquares.svg	stimuli_distractor_trianglediamonds.svg	6	yes	57	0	531
6.6.1	win	2022-12-21	13:34:43	13:43:01	496897	5a8ac2d8f49c9a0001f3ab34	921026877	1	practice_z	9	practice_z	3	stimuli_target_circlediamonds.svg	stimuli_distractor_diamondtriangles.svg	1	yes	44	1	491
6.6.1	win	2022-12-21	13:34:43	13:43:01	496897	5a8ac2d8f49c9a0001f3ab34	921026877	1	practice_z	9	advance_on_keypress_ZEE	4	stimuli_target_circlediamonds.svg	stimuli_distractor_diamondtriangles.svg	1	yes	57	0	514
6.6.1	win	2022-12-21	13:34:43	13:43:04	499681	5a8ac2d8f49c9a0001f3ab34	921026877	1	practice_z	9	practice_z	5	stimuli_distractor_diamondtriangles.svg	stimuli_target_circletriangles.svg	7	yes	44	1	610
6.6.1	win	2022-12-21	13:34:43	13:43:04	499681	5a8ac2d8f49c9a0001f3ab34	921026877	1	practice_z	9	advance_on_keypress_ZEE	6	stimuli_distractor_diamondtriangles.svg	stimuli_target_circletriangles.svg	7	yes	57	0	427
6.6.1	win	2022-12-21	13:34:43	13:43:08	503771	5a8ac2d8f49c9a0001f3ab34	921026877	1	practice_z	9	practice_z	7	stimuli_distractor_diamondtriangles.svg	stimuli_distractor_trianglediamonds.svg	14	no	0	1	2000
6.6.1	win	2022-12-21	13:34:43	13:43:08	503771	5a8ac2d8f49c9a0001f3ab34	921026877	1	practice_z	9	advance_on_keypress_ZEE	8	stimuli_distractor_diamondtriangles.svg	stimuli_distractor_trianglediamonds.svg	14	no	57	0	620
6.6.1	win	2022-12-21	13:34:43	13:43:11	506997	5a8ac2d8f49c9a0001f3ab34	921026877	1	practice_z	9	practice_z	9	stimuli_target_diamondsquares.svg	stimuli_distractor_diamondtriangles.svg	3	yes	44	1	961
6.6.1	win	2022-12-21	13:34:43	13:43:11	506997	5a8ac2d8f49c9a0001f3ab34	921026877	1	practice_z	9	advance_on_keypress_ZEE	10	stimuli_target_diamondsquares.svg	stimuli_distractor_diamondtriangles.svg	3	yes	57	0	433
6.6.1	win	2022-12-21	13:34:43	13:43:14	509643	5a8ac2d8f49c9a0001f3ab34	921026877	1	practice_z	9	practice_z	11	stimuli_distractor_trianglediamonds.svg	stimuli_target_diamondcircles.svg	12	yes	44	1	557
6.6.1	win	2022-12-21	13:34:43	13:43:14	509643	5a8ac2d8f49c9a0001f3ab34	921026877	1	practice_z	9	advance_on_keypress_ZEE	12	stimuli_distractor_trianglediamonds.svg	stimuli_target_diamondcircles.svg	12	yes	57	0	296
6.6.1	win	2022-12-21	13:34:43	13:43:17	512235	5a8ac2d8f49c9a0001f3ab34	921026877	1	practice_z	9	practice_z	13	stimuli_distractor_trianglediamonds.svg	stimuli_target_squarediamonds.svg	11	yes	44	1	633
6.6.1	win	2022-12-21	13:34:43	13:43:17	512235	5a8ac2d8f49c9a0001f3ab34	921026877	1	practice_z	9	advance_on_keypress_ZEE	14	stimuli_distractor_trianglediamonds.svg	stimuli_target_squarediamonds.svg	11	yes	57	0	354
6.6.1	win	2022-12-21	13:34:43	13:43:19	514791	5a8ac2d8f49c9a0001f3ab34	921026877	1	practice_z	9	practice_z	15	stimuli_target_squarediamonds.svg	stimuli_distractor_diamondtriangles.svg	2	yes	44	1	557
6.6.1	win	2022-12-21	13:34:43	13:43:19	514791	5a8ac2d8f49c9a0001f3ab34	921026877	1	practice_z	9	advance_on_keypress_ZEE	16	stimuli_target_squarediamonds.svg	stimuli_distractor_diamondtriangles.svg	2	yes	57	0	349
6.6.1	win	2022-12-21	13:34:43	13:43:22	517315	5a8ac2d8f49c9a0001f3ab34	921026877	1	practice_z	9	practice_z	17	stimuli_target_squarediamonds.svg	stimuli_distractor_trianglediamonds.svg	5	yes	44	1	512
6.6.1	win	2022-12-21	13:34:43	13:43:22	517315	5a8ac2d8f49c9a0001f3ab34	921026877	1	practice_z	9	advance_on_keypress_ZEE	18	stimuli_target_squarediamonds.svg	stimuli_distractor_trianglediamonds.svg	5	yes	57	0	319
6.6.1	win	2022-12-21	13:34:43	13:43:24	519824	5a8ac2d8f49c9a0001f3ab34	921026877	1	practice_z	9	practice_z	19	stimuli_target_circlediamonds.svg	stimuli_distractor_trianglediamonds.svg	4	yes	44	1	541
6.6.1	win	2022-12-21	13:34:43	13:43:24	519824	5a8ac2d8f49c9a0001f3ab34	921026877	1	practice_z	9	advance_on_keypress_ZEE	20	stimuli_target_circlediamonds.svg	stimuli_distractor_trianglediamonds.svg	4	yes	57	0	370
6.6.1	win	2022-12-21	13:34:43	13:43:27	522708	5a8ac2d8f49c9a0001f3ab34	921026877	1	practice_z	9	practice_z	21	stimuli_distractor_diamondtriangles.svg	stimuli_target_trianglecircles.svg	9	yes	44	1	860
6.6.1	win	2022-12-21	13:34:43	13:43:27	522708	5a8ac2d8f49c9a0001f3ab34	921026877	1	practice_z	9	advance_on_keypress_ZEE	22	stimuli_distractor_diamondtriangles.svg	stimuli_target_trianglecircles.svg	9	yes	57	0	562
6.6.1	win	2022-12-21	13:34:43	13:43:30	525548	5a8ac2d8f49c9a0001f3ab34	921026877	1	practice_z	9	practice_z	23	stimuli_distractor_trianglediamonds.svg	stimuli_target_circlediamonds.svg	10	yes	44	1	618
6.6.1	win	2022-12-21	13:34:43	13:43:30	525548	5a8ac2d8f49c9a0001f3ab34	921026877	1	practice_z	9	advance_on_keypress_ZEE	24	stimuli_distractor_trianglediamonds.svg	stimuli_target_circlediamonds.svg	10	yes	57	0	350
6.6.1	win	2022-12-21	13:34:43	13:43:33	528130	5a8ac2d8f49c9a0001f3ab34	921026877	1	practice_z	9	practice_z	25	stimuli_distractor_diamondtriangles.svg	stimuli_target_diamondcircles.svg	8	yes	44	1	583
6.6.1	win	2022-12-21	13:34:43	13:43:33	528130	5a8ac2d8f49c9a0001f3ab34	921026877	1	practice_z	9	advance_on_keypress_ZEE	26	stimuli_distractor_diamondtriangles.svg	stimuli_target_diamondcircles.svg	8	yes	57	0	335
6.6.1	win	2022-12-21	13:34:43	13:43:37	532113	5a8ac2d8f49c9a0001f3ab34	921026877	1	practice_z	9	practice_z	27	stimuli_distractor_diamondtriangles.svg	stimuli_distractor_diamondtriangles.svg	13	no	0	1	2000
6.6.1	win	2022-12-21	13:34:43	13:43:37	532113	5a8ac2d8f49c9a0001f3ab34	921026877	1	practice_z	9	advance_on_keypress_ZEE	28	stimuli_distractor_diamondtriangles.svg	stimuli_distractor_diamondtriangles.svg	13	no	57	0	398
6.6.1	win	2022-12-21	13:34:43	13:43:41	536162	5a8ac2d8f49c9a0001f3ab34	921026877	1	practice_z	9	practice_z	29	stimuli_distractor_trianglediamonds.svg	stimuli_distractor_diamondtriangles.svg	16	no	0	1	2000
6.6.1	win	2022-12-21	13:34:43	13:43:41	536162	5a8ac2d8f49c9a0001f3ab34	921026877	1	practice_z	9	advance_on_keypress_ZEE	30	stimuli_distractor_trianglediamonds.svg	stimuli_distractor_diamondtriangles.svg	16	no	57	0	441
6.6.1	win	2022-12-21	13:34:43	13:43:45	540244	5a8ac2d8f49c9a0001f3ab34	921026877	1	practice_z	9	practice_z	31	stimuli_distractor_trianglediamonds.svg	stimuli_distractor_trianglediamonds.svg	15	no	0	1	2000
6.6.1	win	2022-12-21	13:34:43	13:43:45	540244	5a8ac2d8f49c9a0001f3ab34	921026877	1	practice_z	9	advance_on_keypress_ZEE	32	stimuli_distractor_trianglediamonds.svg	stimuli_distractor_trianglediamonds.svg	15	no	57	0	554
6.6.1	win	2022-12-21	13:34:43	13:43:50	545345	5a8ac2d8f49c9a0001f3ab34	921026877	1	main_z	11	main_z	1	stimuli_distractor_diamondtriangles.svg	stimuli_target_squaretriangles.svg	15	yes	44	1	789
6.6.1	win	2022-12-21	13:34:43	13:43:50	545345	5a8ac2d8f49c9a0001f3ab34	921026877	1	main_z	11	advance_on_keypress_ZEE	2	stimuli_distractor_diamondtriangles.svg	stimuli_target_squaretriangles.svg	15	yes	57	0	533
6.6.1	win	2022-12-21	13:34:43	13:43:52	547597	5a8ac2d8f49c9a0001f3ab34	921026877	1	main_z	11	main_z	3	stimuli_distractor_trianglediamonds.svg	stimuli_target_diamondsquares.svg	28	yes	44	1	1075
6.6.1	win	2022-12-21	13:34:43	13:43:52	547597	5a8ac2d8f49c9a0001f3ab34	921026877	1	main_z	11	advance_on_keypress_ZEE	4	stimuli_distractor_trianglediamonds.svg	stimuli_target_diamondsquares.svg	28	yes	57	0	478
6.6.1	win	2022-12-21	13:34:43	13:43:55	550721	5a8ac2d8f49c9a0001f3ab34	921026877	1	main_z	11	main_z	5	stimuli_distractor_diamondtriangles.svg	stimuli_distractor_trianglediamonds.svg	37	no	0	1	2000
6.6.1	win	2022-12-21	13:34:43	13:43:55	550721	5a8ac2d8f49c9a0001f3ab34	921026877	1	main_z	11	advance_on_keypress_ZEE	6	stimuli_distractor_diamondtriangles.svg	stimuli_distractor_trianglediamonds.svg	37	no	57	0	513
6.6.1	win	2022-12-21	13:34:43	13:43:57	552988	5a8ac2d8f49c9a0001f3ab34	921026877	1	main_z	11	main_z	7	stimuli_target_diamondsquares.svg	stimuli_distractor_diamondtriangles.svg	24	yes	44	1	1102
6.6.1	win	2022-12-21	13:34:43	13:43:57	552988	5a8ac2d8f49c9a0001f3ab34	921026877	1	main_z	11	advance_on_keypress_ZEE	8	stimuli_target_diamondsquares.svg	stimuli_distractor_diamondtriangles.svg	24	yes	57	0	480
6.6.1	win	2022-12-21	13:34:43	13:43:59	554832	5a8ac2d8f49c9a0001f3ab34	921026877	1	main_z	11	main_z	9	stimuli_target_circlediamonds.svg	stimuli_distractor_diamondtriangles.svg	6	yes	44	1	714
6.6.1	win	2022-12-21	13:34:43	13:43:59	554832	5a8ac2d8f49c9a0001f3ab34	921026877	1	main_z	11	advance_on_keypress_ZEE	10	stimuli_target_circlediamonds.svg	stimuli_distractor_diamondtriangles.svg	6	yes	57	0	1172
6.6.1	win	2022-12-21	13:34:43	13:44:02	557354	5a8ac2d8f49c9a0001f3ab34	921026877	1	main_z	11	main_z	11	stimuli_target_circlediamonds.svg	stimuli_distractor_trianglediamonds.svg	2	yes	44	1	703
6.6.1	win	2022-12-21	13:34:43	13:44:02	557354	5a8ac2d8f49c9a0001f3ab34	921026877	1	main_z	11	advance_on_keypress_ZEE	12	stimuli_target_circlediamonds.svg	stimuli_distractor_trianglediamonds.svg	2	yes	57	0	893
6.6.1	win	2022-12-21	13:34:43	13:44:05	560134	5a8ac2d8f49c9a0001f3ab34	921026877	1	main_z	11	main_z	13	stimuli_target_trianglesquares.svg	stimuli_distractor_trianglediamonds.svg	18	yes	44	1	1234
6.6.1	win	2022-12-21	13:34:43	13:44:05	560134	5a8ac2d8f49c9a0001f3ab34	921026877	1	main_z	11	advance_on_keypress_ZEE	14	stimuli_target_trianglesquares.svg	stimuli_distractor_trianglediamonds.svg	18	yes	57	0	1135
6.6.1	win	2022-12-21	13:34:43	13:44:08	563916	5a8ac2d8f49c9a0001f3ab34	921026877	1	main_z	11	main_z	15	stimuli_distractor_diamondtriangles.svg	stimuli_distractor_diamondtriangles.svg	39	no	0	1	2000
6.6.1	win	2022-12-21	13:34:43	13:44:08	563916	5a8ac2d8f49c9a0001f3ab34	921026877	1	main_z	11	advance_on_keypress_ZEE	16	stimuli_distractor_diamondtriangles.svg	stimuli_distractor_diamondtriangles.svg	39	no	57	0	403
6.6.1	win	2022-12-21	13:34:43	13:44:10	565667	5a8ac2d8f49c9a0001f3ab34	921026877	1	main_z	11	main_z	17	stimuli_distractor_diamondtriangles.svg	stimuli_target_circlediamonds.svg	14	yes	44	1	700
6.6.1	win	2022-12-21	13:34:43	13:44:10	565667	5a8ac2d8f49c9a0001f3ab34	921026877	1	main_z	11	advance_on_keypress_ZEE	18	stimuli_distractor_diamondtriangles.svg	stimuli_target_circlediamonds.svg	14	yes	57	0	1356
6.6.1	win	2022-12-21	13:34:43	13:44:14	569665	5a8ac2d8f49c9a0001f3ab34	921026877	1	main_z	11	main_z	19	stimuli_distractor_diamondtriangles.svg	stimuli_distractor_trianglediamonds.svg	38	no	0	1	2000
6.6.1	win	2022-12-21	13:34:43	13:44:14	569665	5a8ac2d8f49c9a0001f3ab34	921026877	1	main_z	11	advance_on_keypress_ZEE	20	stimuli_distractor_diamondtriangles.svg	stimuli_distractor_trianglediamonds.svg	38	no	57	0	402
6.6.1	win	2022-12-21	13:34:43	13:44:16	571362	5a8ac2d8f49c9a0001f3ab34	921026877	1	main_z	11	main_z	21	stimuli_distractor_diamondtriangles.svg	stimuli_target_trianglecircles.svg	29	yes	44	1	648
6.6.1	win	2022-12-21	13:34:43	13:44:16	571362	5a8ac2d8f49c9a0001f3ab34	921026877	1	main_z	11	advance_on_keypress_ZEE	22	stimuli_distractor_diamondtriangles.svg	stimuli_target_trianglecircles.svg	29	yes	57	0	859
6.6.1	win	2022-12-21	13:34:43	13:44:18	573645	5a8ac2d8f49c9a0001f3ab34	921026877	1	main_z	11	main_z	23	stimuli_distractor_diamondtriangles.svg	stimuli_target_diamondcircles.svg	31	yes	44	1	781
6.6.1	win	2022-12-21	13:34:43	13:44:18	573645	5a8ac2d8f49c9a0001f3ab34	921026877	1	main_z	11	advance_on_keypress_ZEE	24	stimuli_distractor_diamondtriangles.svg	stimuli_target_diamondcircles.svg	31	yes	57	0	585
6.6.1	win	2022-12-21	13:34:43	13:44:20	575629	5a8ac2d8f49c9a0001f3ab34	921026877	1	main_z	11	main_z	25	stimuli_distractor_trianglediamonds.svg	stimuli_target_squarediamonds.svg	12	yes	44	1	748
6.6.1	win	2022-12-21	13:34:43	13:44:20	575629	5a8ac2d8f49c9a0001f3ab34	921026877	1	main_z	11	advance_on_keypress_ZEE	26	stimuli_distractor_trianglediamonds.svg	stimuli_target_squarediamonds.svg	12	yes	57	0	645
6.6.1	win	2022-12-21	13:34:43	13:44:22	578084	5a8ac2d8f49c9a0001f3ab34	921026877	1	main_z	11	main_z	27	stimuli_distractor_trianglediamonds.svg	stimuli_distractor_trianglediamonds.svg	34	no	44	0	1154
6.6.1	win	2022-12-21	13:34:43	13:44:22	578084	5a8ac2d8f49c9a0001f3ab34	921026877	1	main_z	11	advance_on_keypress_ZEE	28	stimuli_distractor_trianglediamonds.svg	stimuli_distractor_trianglediamonds.svg	34	no	57	0	483
6.6.1	win	2022-12-21	13:34:43	13:44:24	580033	5a8ac2d8f49c9a0001f3ab34	921026877	1	main_z	11	main_z	29	stimuli_target_diamondsquares.svg	stimuli_distractor_trianglediamonds.svg	20	yes	44	1	822
6.6.1	win	2022-12-21	13:34:43	13:44:24	580033	5a8ac2d8f49c9a0001f3ab34	921026877	1	main_z	11	advance_on_keypress_ZEE	30	stimuli_target_diamondsquares.svg	stimuli_distractor_trianglediamonds.svg	20	yes	57	0	680
6.6.1	win	2022-12-21	13:34:43	13:44:27	582618	5a8ac2d8f49c9a0001f3ab34	921026877	1	main_z	11	main_z	31	stimuli_distractor_diamondtriangles.svg	stimuli_target_trianglesquares.svg	30	yes	44	1	1258
6.6.1	win	2022-12-21	13:34:43	13:44:27	582618	5a8ac2d8f49c9a0001f3ab34	921026877	1	main_z	11	advance_on_keypress_ZEE	32	stimuli_distractor_diamondtriangles.svg	stimuli_target_trianglesquares.svg	30	yes	57	0	743
6.6.1	win	2022-12-21	13:34:43	13:44:29	585021	5a8ac2d8f49c9a0001f3ab34	921026877	1	main_z	11	main_z	33	stimuli_distractor_trianglediamonds.svg	stimuli_target_circletriangles.svg	9	yes	44	1	1011
6.6.1	win	2022-12-21	13:34:43	13:44:29	585021	5a8ac2d8f49c9a0001f3ab34	921026877	1	main_z	11	advance_on_keypress_ZEE	34	stimuli_distractor_trianglediamonds.svg	stimuli_target_circletriangles.svg	9	yes	57	0	695
6.6.1	win	2022-12-21	13:34:43	13:44:32	587566	5a8ac2d8f49c9a0001f3ab34	921026877	1	main_z	11	main_z	35	stimuli_distractor_trianglediamonds.svg	stimuli_target_trianglecircles.svg	25	yes	44	1	1190
6.6.1	win	2022-12-21	13:34:43	13:44:32	587566	5a8ac2d8f49c9a0001f3ab34	921026877	1	main_z	11	advance_on_keypress_ZEE	36	stimuli_distractor_trianglediamonds.svg	stimuli_target_trianglecircles.svg	25	yes	57	0	624
6.6.1	win	2022-12-21	13:34:43	13:44:34	589703	5a8ac2d8f49c9a0001f3ab34	921026877	1	main_z	11	main_z	37	stimuli_distractor_trianglediamonds.svg	stimuli_target_circlediamonds.svg	10	yes	44	1	878
6.6.1	win	2022-12-21	13:34:43	13:44:34	589703	5a8ac2d8f49c9a0001f3ab34	921026877	1	main_z	11	advance_on_keypress_ZEE	38	stimuli_distractor_trianglediamonds.svg	stimuli_target_circlediamonds.svg	10	yes	57	0	692
6.6.1	win	2022-12-21	13:34:43	13:44:37	593042	5a8ac2d8f49c9a0001f3ab34	921026877	1	main_z	11	main_z	39	stimuli_distractor_trianglediamonds.svg	stimuli_distractor_trianglediamonds.svg	33	no	0	1	2000
6.6.1	win	2022-12-21	13:34:43	13:44:37	593042	5a8ac2d8f49c9a0001f3ab34	921026877	1	main_z	11	advance_on_keypress_ZEE	40	stimuli_distractor_trianglediamonds.svg	stimuli_distractor_trianglediamonds.svg	33	no	57	0	463
6.6.1	win	2022-12-21	13:34:43	13:44:41	596158	5a8ac2d8f49c9a0001f3ab34	921026877	1	main_z	11	main_z	41	stimuli_distractor_trianglediamonds.svg	stimuli_distractor_diamondtriangles.svg	35	no	0	1	2000
6.6.1	win	2022-12-21	13:34:43	13:44:41	596158	5a8ac2d8f49c9a0001f3ab34	921026877	1	main_z	11	advance_on_keypress_ZEE	42	stimuli_distractor_trianglediamonds.svg	stimuli_distractor_diamondtriangles.svg	35	no	57	0	402
6.6.1	win	2022-12-21	13:34:43	13:44:42	597932	5a8ac2d8f49c9a0001f3ab34	921026877	1	main_z	11	main_z	43	stimuli_target_squarediamonds.svg	stimuli_distractor_trianglediamonds.svg	4	yes	44	1	725
6.6.1	win	2022-12-21	13:34:43	13:44:42	597932	5a8ac2d8f49c9a0001f3ab34	921026877	1	main_z	11	advance_on_keypress_ZEE	44	stimuli_target_squarediamonds.svg	stimuli_distractor_trianglediamonds.svg	4	yes	57	0	559
6.6.1	win	2022-12-21	13:34:43	13:44:46	601122	5a8ac2d8f49c9a0001f3ab34	921026877	1	main_z	11	main_z	45	stimuli_distractor_diamondtriangles.svg	stimuli_distractor_diamondtriangles.svg	40	no	0	1	2000
6.6.1	win	2022-12-21	13:34:43	13:44:46	601122	5a8ac2d8f49c9a0001f3ab34	921026877	1	main_z	11	advance_on_keypress_ZEE	46	stimuli_distractor_diamondtriangles.svg	stimuli_distractor_diamondtriangles.svg	40	no	57	0	529
6.6.1	win	2022-12-21	13:34:43	13:44:47	602939	5a8ac2d8f49c9a0001f3ab34	921026877	1	main_z	11	main_z	47	stimuli_target_trianglesquares.svg	stimuli_distractor_diamondtriangles.svg	22	yes	44	1	635
6.6.1	win	2022-12-21	13:34:43	13:44:47	602939	5a8ac2d8f49c9a0001f3ab34	921026877	1	main_z	11	advance_on_keypress_ZEE	48	stimuli_target_trianglesquares.svg	stimuli_distractor_diamondtriangles.svg	22	yes	57	0	667
6.6.1	win	2022-12-21	13:34:43	13:44:50	605141	5a8ac2d8f49c9a0001f3ab34	921026877	1	main_z	11	main_z	49	stimuli_target_trianglecircles.svg	stimuli_distractor_trianglediamonds.svg	17	yes	44	1	886
6.6.1	win	2022-12-21	13:34:43	13:44:50	605141	5a8ac2d8f49c9a0001f3ab34	921026877	1	main_z	11	advance_on_keypress_ZEE	50	stimuli_target_trianglecircles.svg	stimuli_distractor_trianglediamonds.svg	17	yes	57	0	496
6.6.1	win	2022-12-21	13:34:43	13:44:52	607737	5a8ac2d8f49c9a0001f3ab34	921026877	1	main_z	11	main_z	51	stimuli_distractor_diamondtriangles.svg	stimuli_target_squarediamonds.svg	16	yes	44	1	1450
6.6.1	win	2022-12-21	13:34:43	13:44:52	607737	5a8ac2d8f49c9a0001f3ab34	921026877	1	main_z	11	advance_on_keypress_ZEE	52	stimuli_distractor_diamondtriangles.svg	stimuli_target_squarediamonds.svg	16	yes	57	0	900
6.6.1	win	2022-12-21	13:34:43	13:44:56	611286	5a8ac2d8f49c9a0001f3ab34	921026877	1	main_z	11	main_z	53	stimuli_distractor_diamondtriangles.svg	stimuli_target_circletriangles.svg	13	yes	0	0	2000
6.6.1	win	2022-12-21	13:34:43	13:44:56	611286	5a8ac2d8f49c9a0001f3ab34	921026877	1	main_z	11	advance_on_keypress_ZEE	54	stimuli_distractor_diamondtriangles.svg	stimuli_target_circletriangles.svg	13	yes	57	0	452
6.6.1	win	2022-12-21	13:34:43	13:44:57	612985	5a8ac2d8f49c9a0001f3ab34	921026877	1	main_z	11	main_z	55	stimuli_target_circletriangles.svg	stimuli_distractor_diamondtriangles.svg	5	yes	44	1	599
6.6.1	win	2022-12-21	13:34:43	13:44:57	612985	5a8ac2d8f49c9a0001f3ab34	921026877	1	main_z	11	advance_on_keypress_ZEE	56	stimuli_target_circletriangles.svg	stimuli_distractor_diamondtriangles.svg	5	yes	57	0	856
6.6.1	win	2022-12-21	13:34:43	13:45:00	615620	5a8ac2d8f49c9a0001f3ab34	921026877	1	main_z	11	main_z	57	stimuli_distractor_trianglediamonds.svg	stimuli_target_squaretriangles.svg	11	yes	44	1	1136
6.6.1	win	2022-12-21	13:34:43	13:45:00	615620	5a8ac2d8f49c9a0001f3ab34	921026877	1	main_z	11	advance_on_keypress_ZEE	58	stimuli_distractor_trianglediamonds.svg	stimuli_target_squaretriangles.svg	11	yes	57	0	475
6.6.1	win	2022-12-21	13:34:43	13:45:02	617913	5a8ac2d8f49c9a0001f3ab34	921026877	1	main_z	11	main_z	59	stimuli_target_squaretriangles.svg	stimuli_distractor_diamondtriangles.svg	7	yes	44	1	1180
6.6.1	win	2022-12-21	13:34:43	13:45:02	617913	5a8ac2d8f49c9a0001f3ab34	921026877	1	main_z	11	advance_on_keypress_ZEE	60	stimuli_target_squaretriangles.svg	stimuli_distractor_diamondtriangles.svg	7	yes	57	0	497
6.6.1	win	2022-12-21	13:34:43	13:45:04	619945	5a8ac2d8f49c9a0001f3ab34	921026877	1	main_z	11	main_z	61	stimuli_distractor_trianglediamonds.svg	stimuli_target_diamondcircles.svg	27	yes	44	1	879
6.6.1	win	2022-12-21	13:34:43	13:45:04	619945	5a8ac2d8f49c9a0001f3ab34	921026877	1	main_z	11	advance_on_keypress_ZEE	62	stimuli_distractor_trianglediamonds.svg	stimuli_target_diamondcircles.svg	27	yes	57	0	507
6.6.1	win	2022-12-21	13:34:43	13:45:06	622029	5a8ac2d8f49c9a0001f3ab34	921026877	1	main_z	11	main_z	63	stimuli_target_squaretriangles.svg	stimuli_distractor_trianglediamonds.svg	3	yes	44	1	929
6.6.1	win	2022-12-21	13:34:43	13:45:06	622029	5a8ac2d8f49c9a0001f3ab34	921026877	1	main_z	11	advance_on_keypress_ZEE	64	stimuli_target_squaretriangles.svg	stimuli_distractor_trianglediamonds.svg	3	yes	57	0	572
6.6.1	win	2022-12-21	13:34:43	13:45:09	624290	5a8ac2d8f49c9a0001f3ab34	921026877	1	main_z	11	main_z	65	stimuli_target_diamondcircles.svg	stimuli_distractor_diamondtriangles.svg	23	yes	44	1	1042
6.6.1	win	2022-12-21	13:34:43	13:45:09	624290	5a8ac2d8f49c9a0001f3ab34	921026877	1	main_z	11	advance_on_keypress_ZEE	66	stimuli_target_diamondcircles.svg	stimuli_distractor_diamondtriangles.svg	23	yes	57	0	571
6.6.1	win	2022-12-21	13:34:43	13:45:11	626952	5a8ac2d8f49c9a0001f3ab34	921026877	1	main_z	11	main_z	67	stimuli_target_squarediamonds.svg	stimuli_distractor_diamondtriangles.svg	8	yes	44	1	1453
6.6.1	win	2022-12-21	13:34:43	13:45:11	626952	5a8ac2d8f49c9a0001f3ab34	921026877	1	main_z	11	advance_on_keypress_ZEE	68	stimuli_target_squarediamonds.svg	stimuli_distractor_diamondtriangles.svg	8	yes	57	0	515
6.6.1	win	2022-12-21	13:34:43	13:45:14	629338	5a8ac2d8f49c9a0001f3ab34	921026877	1	main_z	11	main_z	69	stimuli_distractor_diamondtriangles.svg	stimuli_target_diamondsquares.svg	32	yes	44	1	1225
6.6.1	win	2022-12-21	13:34:43	13:45:14	629338	5a8ac2d8f49c9a0001f3ab34	921026877	1	main_z	11	advance_on_keypress_ZEE	70	stimuli_distractor_diamondtriangles.svg	stimuli_target_diamondsquares.svg	32	yes	57	0	554
6.6.1	win	2022-12-21	13:34:43	13:45:17	632530	5a8ac2d8f49c9a0001f3ab34	921026877	1	main_z	11	main_z	71	stimuli_distractor_trianglediamonds.svg	stimuli_target_trianglesquares.svg	26	yes	0	0	2000
6.6.1	win	2022-12-21	13:34:43	13:45:17	632530	5a8ac2d8f49c9a0001f3ab34	921026877	1	main_z	11	advance_on_keypress_ZEE	72	stimuli_distractor_trianglediamonds.svg	stimuli_target_trianglesquares.svg	26	yes	57	0	584
6.6.1	win	2022-12-21	13:34:43	13:45:19	634290	5a8ac2d8f49c9a0001f3ab34	921026877	1	main_z	11	main_z	73	stimuli_target_circletriangles.svg	stimuli_distractor_trianglediamonds.svg	1	yes	44	1	528
6.6.1	win	2022-12-21	13:34:43	13:45:19	634290	5a8ac2d8f49c9a0001f3ab34	921026877	1	main_z	11	advance_on_keypress_ZEE	74	stimuli_target_circletriangles.svg	stimuli_distractor_trianglediamonds.svg	1	yes	57	0	662
6.6.1	win	2022-12-21	13:34:43	13:45:21	636931	5a8ac2d8f49c9a0001f3ab34	921026877	1	main_z	11	main_z	75	stimuli_target_diamondcircles.svg	stimuli_distractor_trianglediamonds.svg	19	yes	44	1	1320
6.6.1	win	2022-12-21	13:34:43	13:45:21	636931	5a8ac2d8f49c9a0001f3ab34	921026877	1	main_z	11	advance_on_keypress_ZEE	76	stimuli_target_diamondcircles.svg	stimuli_distractor_trianglediamonds.svg	19	yes	57	0	605
6.6.1	win	2022-12-21	13:34:43	13:45:25	640178	5a8ac2d8f49c9a0001f3ab34	921026877	1	main_z	11	main_z	77	stimuli_target_trianglecircles.svg	stimuli_distractor_diamondtriangles.svg	21	yes	0	0	2000
6.6.1	win	2022-12-21	13:34:43	13:45:25	640178	5a8ac2d8f49c9a0001f3ab34	921026877	1	main_z	11	advance_on_keypress_ZEE	78	stimuli_target_trianglecircles.svg	stimuli_distractor_diamondtriangles.svg	21	yes	57	0	909
6.6.1	win	2022-12-21	13:34:43	13:45:27	642169	5a8ac2d8f49c9a0001f3ab34	921026877	1	main_z	11	main_z	79	stimuli_distractor_trianglediamonds.svg	stimuli_distractor_diamondtriangles.svg	36	no	44	0	442
6.6.1	win	2022-12-21	13:34:43	13:45:27	642169	5a8ac2d8f49c9a0001f3ab34	921026877	1	main_z	11	advance_on_keypress_ZEE	80	stimuli_distractor_trianglediamonds.svg	stimuli_distractor_diamondtriangles.svg	36	no	57	0	1836
6.6.1	win	2022-12-21	13:34:43	13:45:31	646642	5a8ac2d8f49c9a0001f3ab34	921026877	1	main_z	11	main_z	81	stimuli_distractor_trianglediamonds.svg	stimuli_distractor_diamondtriangles.svg	35	no	0	1	2000
6.6.1	win	2022-12-21	13:34:43	13:45:31	646642	5a8ac2d8f49c9a0001f3ab34	921026877	1	main_z	11	advance_on_keypress_ZEE	82	stimuli_distractor_trianglediamonds.svg	stimuli_distractor_diamondtriangles.svg	35	no	57	0	314
6.6.1	win	2022-12-21	13:34:43	13:45:34	649329	5a8ac2d8f49c9a0001f3ab34	921026877	1	main_z	11	main_z	83	stimuli_distractor_diamondtriangles.svg	stimuli_target_circlediamonds.svg	14	yes	44	1	1721
6.6.1	win	2022-12-21	13:34:43	13:45:34	649329	5a8ac2d8f49c9a0001f3ab34	921026877	1	main_z	11	advance_on_keypress_ZEE	84	stimuli_distractor_diamondtriangles.svg	stimuli_target_circlediamonds.svg	14	yes	57	0	2386
6.6.1	win	2022-12-21	13:34:43	13:45:39	654357	5a8ac2d8f49c9a0001f3ab34	921026877	1	main_z	11	main_z	85	stimuli_distractor_diamondtriangles.svg	stimuli_distractor_diamondtriangles.svg	40	no	0	1	2000
6.6.1	win	2022-12-21	13:34:43	13:45:39	654357	5a8ac2d8f49c9a0001f3ab34	921026877	1	main_z	11	advance_on_keypress_ZEE	86	stimuli_distractor_diamondtriangles.svg	stimuli_distractor_diamondtriangles.svg	40	no	57	0	2028
6.6.1	win	2022-12-21	13:34:43	13:45:43	659039	5a8ac2d8f49c9a0001f3ab34	921026877	1	main_z	11	main_z	87	stimuli_distractor_diamondtriangles.svg	stimuli_distractor_trianglediamonds.svg	37	no	0	1	2000
6.6.1	win	2022-12-21	13:34:43	13:45:43	659039	5a8ac2d8f49c9a0001f3ab34	921026877	1	main_z	11	advance_on_keypress_ZEE	88	stimuli_distractor_diamondtriangles.svg	stimuli_distractor_trianglediamonds.svg	37	no	57	0	256
6.6.1	win	2022-12-21	13:34:43	13:45:46	661309	5a8ac2d8f49c9a0001f3ab34	921026877	1	main_z	11	main_z	89	stimuli_target_diamondsquares.svg	stimuli_distractor_diamondtriangles.svg	24	yes	44	1	1371
6.6.1	win	2022-12-21	13:34:43	13:45:46	661309	5a8ac2d8f49c9a0001f3ab34	921026877	1	main_z	11	advance_on_keypress_ZEE	90	stimuli_target_diamondsquares.svg	stimuli_distractor_diamondtriangles.svg	24	yes	57	0	1389
6.6.1	win	2022-12-21	13:34:43	13:45:50	665337	5a8ac2d8f49c9a0001f3ab34	921026877	1	main_z	11	main_z	91	stimuli_distractor_trianglediamonds.svg	stimuli_target_trianglesquares.svg	26	yes	0	0	2000
6.6.1	win	2022-12-21	13:34:43	13:45:50	665337	5a8ac2d8f49c9a0001f3ab34	921026877	1	main_z	11	advance_on_keypress_ZEE	92	stimuli_distractor_trianglediamonds.svg	stimuli_target_trianglesquares.svg	26	yes	57	0	470
6.6.1	win	2022-12-21	13:34:43	13:45:53	668453	5a8ac2d8f49c9a0001f3ab34	921026877	1	main_z	11	main_z	93	stimuli_distractor_diamondtriangles.svg	stimuli_target_circletriangles.svg	13	yes	0	0	2000
6.6.1	win	2022-12-21	13:34:43	13:45:53	668453	5a8ac2d8f49c9a0001f3ab34	921026877	1	main_z	11	advance_on_keypress_ZEE	94	stimuli_distractor_diamondtriangles.svg	stimuli_target_circletriangles.svg	13	yes	57	0	3783
6.6.1	win	2022-12-21	13:34:43	13:45:59	674884	5a8ac2d8f49c9a0001f3ab34	921026877	1	main_z	11	main_z	95	stimuli_target_squaretriangles.svg	stimuli_distractor_trianglediamonds.svg	3	yes	0	0	2000
6.6.1	win	2022-12-21	13:34:43	13:45:59	674884	5a8ac2d8f49c9a0001f3ab34	921026877	1	main_z	11	advance_on_keypress_ZEE	96	stimuli_target_squaretriangles.svg	stimuli_distractor_trianglediamonds.svg	3	yes	57	0	923
6.6.1	win	2022-12-21	13:34:43	13:46:03	678449	5a8ac2d8f49c9a0001f3ab34	921026877	1	main_z	11	main_z	97	stimuli_distractor_diamondtriangles.svg	stimuli_distractor_diamondtriangles.svg	39	no	0	1	2000
6.6.1	win	2022-12-21	13:34:43	13:46:03	678449	5a8ac2d8f49c9a0001f3ab34	921026877	1	main_z	11	advance_on_keypress_ZEE	98	stimuli_distractor_diamondtriangles.svg	stimuli_distractor_diamondtriangles.svg	39	no	57	0	488
6.6.1	win	2022-12-21	13:34:43	13:46:06	681582	5a8ac2d8f49c9a0001f3ab34	921026877	1	main_z	11	main_z	99	stimuli_distractor_trianglediamonds.svg	stimuli_target_squaretriangles.svg	11	yes	0	0	2000
6.6.1	win	2022-12-21	13:34:43	13:46:06	681582	5a8ac2d8f49c9a0001f3ab34	921026877	1	main_z	11	advance_on_keypress_ZEE	100	stimuli_distractor_trianglediamonds.svg	stimuli_target_squaretriangles.svg	11	yes	57	0	6037
6.6.1	win	2022-12-21	13:34:43	13:46:14	689507	5a8ac2d8f49c9a0001f3ab34	921026877	1	main_z	11	main_z	101	stimuli_distractor_diamondtriangles.svg	stimuli_target_diamondcircles.svg	31	yes	44	1	1244
6.6.1	win	2022-12-21	13:34:43	13:46:14	689507	5a8ac2d8f49c9a0001f3ab34	921026877	1	main_z	11	advance_on_keypress_ZEE	102	stimuli_distractor_diamondtriangles.svg	stimuli_target_diamondcircles.svg	31	yes	57	0	421
6.6.1	win	2022-12-21	13:34:43	13:46:17	692579	5a8ac2d8f49c9a0001f3ab34	921026877	1	main_z	11	main_z	103	stimuli_distractor_trianglediamonds.svg	stimuli_distractor_diamondtriangles.svg	36	no	0	1	2000
6.6.1	win	2022-12-21	13:34:43	13:46:17	692579	5a8ac2d8f49c9a0001f3ab34	921026877	1	main_z	11	advance_on_keypress_ZEE	104	stimuli_distractor_trianglediamonds.svg	stimuli_distractor_diamondtriangles.svg	36	no	57	0	635
6.6.1	win	2022-12-21	13:34:43	13:46:19	694480	5a8ac2d8f49c9a0001f3ab34	921026877	1	main_z	11	main_z	105	stimuli_target_circlediamonds.svg	stimuli_distractor_diamondtriangles.svg	6	yes	44	1	617
6.6.1	win	2022-12-21	13:34:43	13:46:19	694480	5a8ac2d8f49c9a0001f3ab34	921026877	1	main_z	11	advance_on_keypress_ZEE	106	stimuli_target_circlediamonds.svg	stimuli_distractor_diamondtriangles.svg	6	yes	57	0	454
6.6.1	win	2022-12-21	13:34:43	13:46:21	696384	5a8ac2d8f49c9a0001f3ab34	921026877	1	main_z	11	main_z	107	stimuli_target_circletriangles.svg	stimuli_distractor_diamondtriangles.svg	5	yes	44	1	806
6.6.1	win	2022-12-21	13:34:43	13:46:21	696384	5a8ac2d8f49c9a0001f3ab34	921026877	1	main_z	11	advance_on_keypress_ZEE	108	stimuli_target_circletriangles.svg	stimuli_distractor_diamondtriangles.svg	5	yes	57	0	474
6.6.1	win	2022-12-21	13:34:43	13:46:23	698213	5a8ac2d8f49c9a0001f3ab34	921026877	1	main_z	11	main_z	109	stimuli_target_diamondcircles.svg	stimuli_distractor_trianglediamonds.svg	19	yes	44	1	719
6.6.1	win	2022-12-21	13:34:43	13:46:23	698213	5a8ac2d8f49c9a0001f3ab34	921026877	1	main_z	11	advance_on_keypress_ZEE	110	stimuli_target_diamondcircles.svg	stimuli_distractor_trianglediamonds.svg	19	yes	57	0	599
6.6.1	win	2022-12-21	13:34:43	13:46:26	701460	5a8ac2d8f49c9a0001f3ab34	921026877	1	main_z	11	main_z	111	stimuli_distractor_diamondtriangles.svg	stimuli_target_squaretriangles.svg	15	yes	0	0	2000
6.6.1	win	2022-12-21	13:34:43	13:46:26	701460	5a8ac2d8f49c9a0001f3ab34	921026877	1	main_z	11	advance_on_keypress_ZEE	112	stimuli_distractor_diamondtriangles.svg	stimuli_target_squaretriangles.svg	15	yes	57	0	340
6.6.1	win	2022-12-21	13:34:43	13:46:28	703176	5a8ac2d8f49c9a0001f3ab34	921026877	1	main_z	11	main_z	113	stimuli_target_squarediamonds.svg	stimuli_distractor_diamondtriangles.svg	8	yes	44	1	734
6.6.1	win	2022-12-21	13:34:43	13:46:28	703176	5a8ac2d8f49c9a0001f3ab34	921026877	1	main_z	11	advance_on_keypress_ZEE	114	stimuli_target_squarediamonds.svg	stimuli_distractor_diamondtriangles.svg	8	yes	57	0	478
6.6.1	win	2022-12-21	13:34:43	13:46:29	704935	5a8ac2d8f49c9a0001f3ab34	921026877	1	main_z	11	main_z	115	stimuli_distractor_trianglediamonds.svg	stimuli_target_squarediamonds.svg	12	yes	44	1	626
6.6.1	win	2022-12-21	13:34:43	13:46:29	704935	5a8ac2d8f49c9a0001f3ab34	921026877	1	main_z	11	advance_on_keypress_ZEE	116	stimuli_distractor_trianglediamonds.svg	stimuli_target_squarediamonds.svg	12	yes	57	0	447
6.6.1	win	2022-12-21	13:34:43	13:46:31	706863	5a8ac2d8f49c9a0001f3ab34	921026877	1	main_z	11	main_z	117	stimuli_distractor_trianglediamonds.svg	stimuli_target_circletriangles.svg	9	yes	44	1	839
6.6.1	win	2022-12-21	13:34:43	13:46:31	706863	5a8ac2d8f49c9a0001f3ab34	921026877	1	main_z	11	advance_on_keypress_ZEE	118	stimuli_distractor_trianglediamonds.svg	stimuli_target_circletriangles.svg	9	yes	57	0	297
6.6.1	win	2022-12-21	13:34:43	13:46:34	709807	5a8ac2d8f49c9a0001f3ab34	921026877	1	main_z	11	main_z	119	stimuli_distractor_trianglediamonds.svg	stimuli_distractor_trianglediamonds.svg	34	no	0	1	2000
6.6.1	win	2022-12-21	13:34:43	13:46:34	709807	5a8ac2d8f49c9a0001f3ab34	921026877	1	main_z	11	advance_on_keypress_ZEE	120	stimuli_distractor_trianglediamonds.svg	stimuli_distractor_trianglediamonds.svg	34	no	57	0	448
6.6.1	win	2022-12-21	13:34:43	13:46:36	711691	5a8ac2d8f49c9a0001f3ab34	921026877	1	main_z	11	main_z	121	stimuli_distractor_diamondtriangles.svg	stimuli_target_squarediamonds.svg	16	yes	44	1	785
6.6.1	win	2022-12-21	13:34:43	13:46:36	711691	5a8ac2d8f49c9a0001f3ab34	921026877	1	main_z	11	advance_on_keypress_ZEE	122	stimuli_distractor_diamondtriangles.svg	stimuli_target_squarediamonds.svg	16	yes	57	0	448
6.6.1	win	2022-12-21	13:34:43	13:46:38	713523	5a8ac2d8f49c9a0001f3ab34	921026877	1	main_z	11	main_z	123	stimuli_target_trianglesquares.svg	stimuli_distractor_diamondtriangles.svg	22	yes	44	1	732
6.6.1	win	2022-12-21	13:34:43	13:46:38	713523	5a8ac2d8f49c9a0001f3ab34	921026877	1	main_z	11	advance_on_keypress_ZEE	124	stimuli_target_trianglesquares.svg	stimuli_distractor_diamondtriangles.svg	22	yes	57	0	400
6.6.1	win	2022-12-21	13:34:43	13:46:41	716572	5a8ac2d8f49c9a0001f3ab34	921026877	1	main_z	11	main_z	125	stimuli_distractor_trianglediamonds.svg	stimuli_distractor_trianglediamonds.svg	33	no	0	1	2000
6.6.1	win	2022-12-21	13:34:43	13:46:41	716572	5a8ac2d8f49c9a0001f3ab34	921026877	1	main_z	11	advance_on_keypress_ZEE	126	stimuli_distractor_trianglediamonds.svg	stimuli_distractor_trianglediamonds.svg	33	no	57	0	494
6.6.1	win	2022-12-21	13:34:43	13:46:43	718214	5a8ac2d8f49c9a0001f3ab34	921026877	1	main_z	11	main_z	127	stimuli_target_trianglecircles.svg	stimuli_distractor_trianglediamonds.svg	17	yes	44	1	492
6.6.1	win	2022-12-21	13:34:43	13:46:43	718214	5a8ac2d8f49c9a0001f3ab34	921026877	1	main_z	11	advance_on_keypress_ZEE	128	stimuli_target_trianglecircles.svg	stimuli_distractor_trianglediamonds.svg	17	yes	57	0	457
6.6.1	win	2022-12-21	13:34:43	13:46:46	721305	5a8ac2d8f49c9a0001f3ab34	921026877	1	main_z	11	main_z	129	stimuli_distractor_diamondtriangles.svg	stimuli_distractor_trianglediamonds.svg	38	no	0	1	2000
6.6.1	win	2022-12-21	13:34:43	13:46:46	721305	5a8ac2d8f49c9a0001f3ab34	921026877	1	main_z	11	advance_on_keypress_ZEE	130	stimuli_distractor_diamondtriangles.svg	stimuli_distractor_trianglediamonds.svg	38	no	57	0	507
6.6.1	win	2022-12-21	13:34:43	13:46:48	723301	5a8ac2d8f49c9a0001f3ab34	921026877	1	main_z	11	main_z	131	stimuli_target_diamondsquares.svg	stimuli_distractor_trianglediamonds.svg	20	yes	44	1	848
6.6.1	win	2022-12-21	13:34:43	13:46:48	723301	5a8ac2d8f49c9a0001f3ab34	921026877	1	main_z	11	advance_on_keypress_ZEE	132	stimuli_target_diamondsquares.svg	stimuli_distractor_trianglediamonds.svg	20	yes	57	0	400
6.6.1	win	2022-12-21	13:34:43	13:46:50	725573	5a8ac2d8f49c9a0001f3ab34	921026877	1	main_z	11	main_z	133	stimuli_distractor_trianglediamonds.svg	stimuli_target_trianglecircles.svg	25	yes	44	1	1221
6.6.1	win	2022-12-21	13:34:43	13:46:50	725573	5a8ac2d8f49c9a0001f3ab34	921026877	1	main_z	11	advance_on_keypress_ZEE	134	stimuli_distractor_trianglediamonds.svg	stimuli_target_trianglecircles.svg	25	yes	57	0	471
6.6.1	win	2022-12-21	13:34:43	13:46:52	727721	5a8ac2d8f49c9a0001f3ab34	921026877	1	main_z	11	main_z	135	stimuli_target_squaretriangles.svg	stimuli_distractor_diamondtriangles.svg	7	yes	44	1	1036
6.6.1	win	2022-12-21	13:34:43	13:46:52	727721	5a8ac2d8f49c9a0001f3ab34	921026877	1	main_z	11	advance_on_keypress_ZEE	136	stimuli_target_squaretriangles.svg	stimuli_distractor_diamondtriangles.svg	7	yes	57	0	256
6.6.1	win	2022-12-21	13:34:43	13:46:54	729435	5a8ac2d8f49c9a0001f3ab34	921026877	1	main_z	11	main_z	137	stimuli_target_trianglecircles.svg	stimuli_distractor_diamondtriangles.svg	21	yes	44	1	817
6.6.1	win	2022-12-21	13:34:43	13:46:54	729435	5a8ac2d8f49c9a0001f3ab34	921026877	1	main_z	11	advance_on_keypress_ZEE	138	stimuli_target_trianglecircles.svg	stimuli_distractor_diamondtriangles.svg	21	yes	57	0	363
6.6.1	win	2022-12-21	13:34:43	13:46:56	731289	5a8ac2d8f49c9a0001f3ab34	921026877	1	main_z	11	main_z	139	stimuli_distractor_trianglediamonds.svg	stimuli_target_circlediamonds.svg	10	yes	44	1	839
6.6.1	win	2022-12-21	13:34:43	13:46:56	731289	5a8ac2d8f49c9a0001f3ab34	921026877	1	main_z	11	advance_on_keypress_ZEE	140	stimuli_distractor_trianglediamonds.svg	stimuli_target_circlediamonds.svg	10	yes	57	0	322
6.6.1	win	2022-12-21	13:34:43	13:46:58	733292	5a8ac2d8f49c9a0001f3ab34	921026877	1	main_z	11	main_z	141	stimuli_target_circlediamonds.svg	stimuli_distractor_trianglediamonds.svg	2	yes	44	1	1042
6.6.1	win	2022-12-21	13:34:43	13:46:58	733292	5a8ac2d8f49c9a0001f3ab34	921026877	1	main_z	11	advance_on_keypress_ZEE	142	stimuli_target_circlediamonds.svg	stimuli_distractor_trianglediamonds.svg	2	yes	57	0	287
6.6.1	win	2022-12-21	13:34:43	13:46:59	735081	5a8ac2d8f49c9a0001f3ab34	921026877	1	main_z	11	main_z	143	stimuli_target_trianglesquares.svg	stimuli_distractor_trianglediamonds.svg	18	yes	44	1	864
6.6.1	win	2022-12-21	13:34:43	13:46:59	735081	5a8ac2d8f49c9a0001f3ab34	921026877	1	main_z	11	advance_on_keypress_ZEE	144	stimuli_target_trianglesquares.svg	stimuli_distractor_trianglediamonds.svg	18	yes	57	0	286
6.6.1	win	2022-12-21	13:34:43	13:47:01	736800	5a8ac2d8f49c9a0001f3ab34	921026877	1	main_z	11	main_z	145	stimuli_target_diamondcircles.svg	stimuli_distractor_diamondtriangles.svg	23	yes	44	1	784
6.6.1	win	2022-12-21	13:34:43	13:47:01	736800	5a8ac2d8f49c9a0001f3ab34	921026877	1	main_z	11	advance_on_keypress_ZEE	146	stimuli_target_diamondcircles.svg	stimuli_distractor_diamondtriangles.svg	23	yes	57	0	303
6.6.1	win	2022-12-21	13:34:43	13:47:03	738760	5a8ac2d8f49c9a0001f3ab34	921026877	1	main_z	11	main_z	147	stimuli_target_squarediamonds.svg	stimuli_distractor_trianglediamonds.svg	4	yes	44	1	1010
6.6.1	win	2022-12-21	13:34:43	13:47:03	738760	5a8ac2d8f49c9a0001f3ab34	921026877	1	main_z	11	advance_on_keypress_ZEE	148	stimuli_target_squarediamonds.svg	stimuli_distractor_trianglediamonds.svg	4	yes	57	0	311
6.6.1	win	2022-12-21	13:34:43	13:47:05	740657	5a8ac2d8f49c9a0001f3ab34	921026877	1	main_z	11	main_z	149	stimuli_distractor_diamondtriangles.svg	stimuli_target_diamondsquares.svg	32	yes	44	1	926
6.6.1	win	2022-12-21	13:34:43	13:47:05	740657	5a8ac2d8f49c9a0001f3ab34	921026877	1	main_z	11	advance_on_keypress_ZEE	150	stimuli_distractor_diamondtriangles.svg	stimuli_target_diamondsquares.svg	32	yes	57	0	336
6.6.1	win	2022-12-21	13:34:43	13:47:08	743631	5a8ac2d8f49c9a0001f3ab34	921026877	1	main_z	11	main_z	151	stimuli_distractor_diamondtriangles.svg	stimuli_target_trianglesquares.svg	30	yes	0	0	2000
6.6.1	win	2022-12-21	13:34:43	13:47:08	743631	5a8ac2d8f49c9a0001f3ab34	921026877	1	main_z	11	advance_on_keypress_ZEE	152	stimuli_distractor_diamondtriangles.svg	stimuli_target_trianglesquares.svg	30	yes	57	0	444
6.6.1	win	2022-12-21	13:34:43	13:47:10	745361	5a8ac2d8f49c9a0001f3ab34	921026877	1	main_z	11	main_z	153	stimuli_distractor_diamondtriangles.svg	stimuli_target_trianglecircles.svg	29	yes	44	1	647
6.6.1	win	2022-12-21	13:34:43	13:47:10	745361	5a8ac2d8f49c9a0001f3ab34	921026877	1	main_z	11	advance_on_keypress_ZEE	154	stimuli_distractor_diamondtriangles.svg	stimuli_target_trianglecircles.svg	29	yes	57	0	360
6.6.1	win	2022-12-21	13:34:43	13:47:12	747480	5a8ac2d8f49c9a0001f3ab34	921026877	1	main_z	11	main_z	155	stimuli_distractor_trianglediamonds.svg	stimuli_target_diamondsquares.svg	28	yes	44	1	1119
6.6.1	win	2022-12-21	13:34:43	13:47:12	747480	5a8ac2d8f49c9a0001f3ab34	921026877	1	main_z	11	advance_on_keypress_ZEE	156	stimuli_distractor_trianglediamonds.svg	stimuli_target_diamondsquares.svg	28	yes	57	0	282
6.6.1	win	2022-12-21	13:34:43	13:47:14	749088	5a8ac2d8f49c9a0001f3ab34	921026877	1	main_z	11	main_z	157	stimuli_target_circletriangles.svg	stimuli_distractor_trianglediamonds.svg	1	yes	44	1	675
6.6.1	win	2022-12-21	13:34:43	13:47:14	749088	5a8ac2d8f49c9a0001f3ab34	921026877	1	main_z	11	advance_on_keypress_ZEE	158	stimuli_target_circletriangles.svg	stimuli_distractor_trianglediamonds.svg	1	yes	57	0	271
6.6.1	win	2022-12-21	13:34:43	13:47:15	750632	5a8ac2d8f49c9a0001f3ab34	921026877	1	main_z	11	main_z	159	stimuli_distractor_trianglediamonds.svg	stimuli_target_diamondcircles.svg	27	yes	44	1	637
6.6.1	win	2022-12-21	13:34:43	13:47:15	750632	5a8ac2d8f49c9a0001f3ab34	921026877	1	main_z	11	advance_on_keypress_ZEE	160	stimuli_distractor_trianglediamonds.svg	stimuli_target_diamondcircles.svg	27	yes	57	0	152