build	computer.platform	date	time	timestamp	time_elapsed_ms	subject	group	session	blockcode	blocknum	trialcode	trialnum	stimulus_left	stimulus_right	stim_index	target_present	response	correct	latency
6.6.1	win	2022-12-14	14:21:29	14:24:45	194898	62cd8af88ff531583cbd24a9	128341728	1	practice_z	5	practice_z	1	stimuli_target_circlediamonds.svg	stimuli_distractor_trianglediamonds.svg	4	yes	44	1	536
6.6.1	win	2022-12-14	14:21:29	14:24:45	194898	62cd8af88ff531583cbd24a9	128341728	1	practice_z	5	advance_on_keypress_ZEE	2	stimuli_target_circlediamonds.svg	stimuli_distractor_trianglediamonds.svg	4	yes	57	0	11523
6.6.1	win	2022-12-14	14:21:29	14:25:01	210055	62cd8af88ff531583cbd24a9	128341728	1	practice_z	5	practice_z	3	stimuli_target_diamondsquares.svg	stimuli_distractor_trianglediamonds.svg	6	yes	0	0	2000
6.6.1	win	2022-12-14	14:21:29	14:25:01	210055	62cd8af88ff531583cbd24a9	128341728	1	practice_z	5	advance_on_keypress_ZEE	4	stimuli_target_diamondsquares.svg	stimuli_distractor_trianglediamonds.svg	6	yes	57	0	4290
6.6.1	win	2022-12-14	14:21:29	14:25:09	217973	62cd8af88ff531583cbd24a9	128341728	1	practice_z	5	practice_z	5	stimuli_distractor_trianglediamonds.svg	stimuli_distractor_diamondtriangles.svg	16	no	0	1	2000
6.6.1	win	2022-12-14	14:21:29	14:25:09	217973	62cd8af88ff531583cbd24a9	128341728	1	practice_z	5	advance_on_keypress_ZEE	6	stimuli_distractor_trianglediamonds.svg	stimuli_distractor_diamondtriangles.svg	16	no	57	0	1205
6.6.1	win	2022-12-14	14:21:29	14:25:13	221955	62cd8af88ff531583cbd24a9	128341728	1	practice_z	5	practice_z	7	stimuli_target_circlediamonds.svg	stimuli_distractor_diamondtriangles.svg	1	yes	44	1	1148
6.6.1	win	2022-12-14	14:21:29	14:25:13	221955	62cd8af88ff531583cbd24a9	128341728	1	practice_z	5	advance_on_keypress_ZEE	8	stimuli_target_circlediamonds.svg	stimuli_distractor_diamondtriangles.svg	1	yes	57	0	709
6.6.1	win	2022-12-14	14:21:29	14:25:16	225618	62cd8af88ff531583cbd24a9	128341728	1	practice_z	5	practice_z	9	stimuli_distractor_diamondtriangles.svg	stimuli_target_trianglecircles.svg	9	yes	44	1	1328
6.6.1	win	2022-12-14	14:21:29	14:25:16	225618	62cd8af88ff531583cbd24a9	128341728	1	practice_z	5	advance_on_keypress_ZEE	10	stimuli_distractor_diamondtriangles.svg	stimuli_target_trianglecircles.svg	9	yes	57	0	603
6.6.1	win	2022-12-14	14:21:29	14:25:20	229858	62cd8af88ff531583cbd24a9	128341728	1	practice_z	5	practice_z	11	stimuli_distractor_diamondtriangles.svg	stimuli_distractor_trianglediamonds.svg	14	no	0	1	2000
6.6.1	win	2022-12-14	14:21:29	14:25:20	229858	62cd8af88ff531583cbd24a9	128341728	1	practice_z	5	advance_on_keypress_ZEE	12	stimuli_distractor_diamondtriangles.svg	stimuli_distractor_trianglediamonds.svg	14	no	57	0	646
6.6.1	win	2022-12-14	14:21:29	14:25:23	232873	62cd8af88ff531583cbd24a9	128341728	1	practice_z	5	practice_z	13	stimuli_distractor_diamondtriangles.svg	stimuli_target_circletriangles.svg	7	yes	44	1	731
6.6.1	win	2022-12-14	14:21:29	14:25:23	232873	62cd8af88ff531583cbd24a9	128341728	1	practice_z	5	advance_on_keypress_ZEE	14	stimuli_distractor_diamondtriangles.svg	stimuli_target_circletriangles.svg	7	yes	57	0	30030
6.6.1	win	2022-12-14	14:21:29	14:25:57	266267	62cd8af88ff531583cbd24a9	128341728	1	practice_z	5	practice_z	15	stimuli_distractor_trianglediamonds.svg	stimuli_target_diamondcircles.svg	12	yes	44	1	1729
6.6.1	win	2022-12-14	14:21:29	14:25:57	266267	62cd8af88ff531583cbd24a9	128341728	1	practice_z	5	advance_on_keypress_ZEE	16	stimuli_distractor_trianglediamonds.svg	stimuli_target_diamondcircles.svg	12	yes	57	0	914
6.6.1	win	2022-12-14	14:21:29	14:26:00	269434	62cd8af88ff531583cbd24a9	128341728	1	practice_z	5	practice_z	17	stimuli_distractor_diamondtriangles.svg	stimuli_target_diamondcircles.svg	8	yes	44	1	620
6.6.1	win	2022-12-14	14:21:29	14:26:00	269434	62cd8af88ff531583cbd24a9	128341728	1	practice_z	5	advance_on_keypress_ZEE	18	stimuli_distractor_diamondtriangles.svg	stimuli_target_diamondcircles.svg	8	yes	57	0	979
6.6.1	win	2022-12-14	14:21:29	14:26:03	272785	62cd8af88ff531583cbd24a9	128341728	1	practice_z	5	practice_z	19	stimuli_target_diamondsquares.svg	stimuli_distractor_diamondtriangles.svg	3	yes	44	1	738
6.6.1	win	2022-12-14	14:21:29	14:26:03	272785	62cd8af88ff531583cbd24a9	128341728	1	practice_z	5	advance_on_keypress_ZEE	20	stimuli_target_diamondsquares.svg	stimuli_distractor_diamondtriangles.svg	3	yes	57	0	653
6.6.1	win	2022-12-14	14:21:29	14:26:08	277073	62cd8af88ff531583cbd24a9	128341728	1	practice_z	5	practice_z	21	stimuli_target_squarediamonds.svg	stimuli_distractor_diamondtriangles.svg	2	yes	0	0	2000
6.6.1	win	2022-12-14	14:21:29	14:26:08	277073	62cd8af88ff531583cbd24a9	128341728	1	practice_z	5	advance_on_keypress_ZEE	22	stimuli_target_squarediamonds.svg	stimuli_distractor_diamondtriangles.svg	2	yes	57	0	2287
6.6.1	win	2022-12-14	14:21:29	14:26:12	281948	62cd8af88ff531583cbd24a9	128341728	1	practice_z	5	practice_z	23	stimuli_target_squarediamonds.svg	stimuli_distractor_trianglediamonds.svg	5	yes	44	1	956
6.6.1	win	2022-12-14	14:21:29	14:26:12	281948	62cd8af88ff531583cbd24a9	128341728	1	practice_z	5	advance_on_keypress_ZEE	24	stimuli_target_squarediamonds.svg	stimuli_distractor_trianglediamonds.svg	5	yes	57	0	804
6.6.1	win	2022-12-14	14:21:29	14:26:17	286383	62cd8af88ff531583cbd24a9	128341728	1	practice_z	5	practice_z	25	stimuli_distractor_trianglediamonds.svg	stimuli_distractor_trianglediamonds.svg	15	no	0	1	2000
6.6.1	win	2022-12-14	14:21:29	14:26:17	286383	62cd8af88ff531583cbd24a9	128341728	1	practice_z	5	advance_on_keypress_ZEE	26	stimuli_distractor_trianglediamonds.svg	stimuli_distractor_trianglediamonds.svg	15	no	57	0	465
6.6.1	win	2022-12-14	14:21:29	14:26:20	289171	62cd8af88ff531583cbd24a9	128341728	1	practice_z	5	practice_z	27	stimuli_distractor_trianglediamonds.svg	stimuli_target_circlediamonds.svg	10	yes	44	1	687
6.6.1	win	2022-12-14	14:21:29	14:26:20	289171	62cd8af88ff531583cbd24a9	128341728	1	practice_z	5	advance_on_keypress_ZEE	28	stimuli_distractor_trianglediamonds.svg	stimuli_target_circlediamonds.svg	10	yes	57	0	818
6.6.1	win	2022-12-14	14:21:29	14:26:23	292619	62cd8af88ff531583cbd24a9	128341728	1	practice_z	5	practice_z	29	stimuli_distractor_trianglediamonds.svg	stimuli_target_squarediamonds.svg	11	yes	44	1	1002
6.6.1	win	2022-12-14	14:21:29	14:26:23	292619	62cd8af88ff531583cbd24a9	128341728	1	practice_z	5	advance_on_keypress_ZEE	30	stimuli_distractor_trianglediamonds.svg	stimuli_target_squarediamonds.svg	11	yes	57	0	545
6.6.1	win	2022-12-14	14:21:29	14:26:27	296784	62cd8af88ff531583cbd24a9	128341728	1	practice_z	5	practice_z	31	stimuli_distractor_diamondtriangles.svg	stimuli_distractor_diamondtriangles.svg	13	no	0	1	2000
6.6.1	win	2022-12-14	14:21:29	14:26:27	296784	62cd8af88ff531583cbd24a9	128341728	1	practice_z	5	advance_on_keypress_ZEE	32	stimuli_distractor_diamondtriangles.svg	stimuli_distractor_diamondtriangles.svg	13	no	57	0	881
6.6.1	win	2022-12-14	14:21:29	14:26:41	310337	62cd8af88ff531583cbd24a9	128341728	1	main_z	7	main_z	1	stimuli_target_trianglesquares.svg	stimuli_distractor_diamondtriangles.svg	22	yes	44	1	594
6.6.1	win	2022-12-14	14:21:29	14:26:41	310337	62cd8af88ff531583cbd24a9	128341728	1	main_z	7	advance_on_keypress_ZEE	2	stimuli_target_trianglesquares.svg	stimuli_distractor_diamondtriangles.svg	22	yes	57	0	1697
6.6.1	win	2022-12-14	14:21:29	14:26:44	313337	62cd8af88ff531583cbd24a9	128341728	1	main_z	7	main_z	3	stimuli_target_diamondcircles.svg	stimuli_distractor_trianglediamonds.svg	19	yes	44	1	678
6.6.1	win	2022-12-14	14:21:29	14:26:44	313337	62cd8af88ff531583cbd24a9	128341728	1	main_z	7	advance_on_keypress_ZEE	4	stimuli_target_diamondcircles.svg	stimuli_distractor_trianglediamonds.svg	19	yes	57	0	729
6.6.1	win	2022-12-14	14:21:29	14:26:46	315903	62cd8af88ff531583cbd24a9	128341728	1	main_z	7	main_z	5	stimuli_distractor_trianglediamonds.svg	stimuli_target_squarediamonds.svg	12	yes	44	1	1210
6.6.1	win	2022-12-14	14:21:29	14:26:46	315903	62cd8af88ff531583cbd24a9	128341728	1	main_z	7	advance_on_keypress_ZEE	6	stimuli_distractor_trianglediamonds.svg	stimuli_target_squarediamonds.svg	12	yes	57	0	1427
6.6.1	win	2022-12-14	14:21:29	14:26:49	318623	62cd8af88ff531583cbd24a9	128341728	1	main_z	7	main_z	7	stimuli_distractor_trianglediamonds.svg	stimuli_target_circletriangles.svg	9	yes	44	1	672
6.6.1	win	2022-12-14	14:21:29	14:26:49	318623	62cd8af88ff531583cbd24a9	128341728	1	main_z	7	advance_on_keypress_ZEE	8	stimuli_distractor_trianglediamonds.svg	stimuli_target_circletriangles.svg	9	yes	57	0	476
6.6.1	win	2022-12-14	14:21:29	14:26:52	321242	62cd8af88ff531583cbd24a9	128341728	1	main_z	7	main_z	9	stimuli_target_diamondsquares.svg	stimuli_distractor_diamondtriangles.svg	24	yes	44	1	1515
6.6.1	win	2022-12-14	14:21:29	14:26:52	321242	62cd8af88ff531583cbd24a9	128341728	1	main_z	7	advance_on_keypress_ZEE	10	stimuli_target_diamondsquares.svg	stimuli_distractor_diamondtriangles.svg	24	yes	57	0	427
6.6.1	win	2022-12-14	14:21:29	14:26:54	323279	62cd8af88ff531583cbd24a9	128341728	1	main_z	7	main_z	11	stimuli_target_squarediamonds.svg	stimuli_distractor_trianglediamonds.svg	4	yes	44	1	985
6.6.1	win	2022-12-14	14:21:29	14:26:54	323279	62cd8af88ff531583cbd24a9	128341728	1	main_z	7	advance_on_keypress_ZEE	12	stimuli_target_squarediamonds.svg	stimuli_distractor_trianglediamonds.svg	4	yes	57	0	634
6.6.1	win	2022-12-14	14:21:29	14:26:57	326536	62cd8af88ff531583cbd24a9	128341728	1	main_z	7	main_z	13	stimuli_distractor_trianglediamonds.svg	stimuli_target_trianglesquares.svg	26	yes	0	0	2000
6.6.1	win	2022-12-14	14:21:29	14:26:57	326536	62cd8af88ff531583cbd24a9	128341728	1	main_z	7	advance_on_keypress_ZEE	14	stimuli_distractor_trianglediamonds.svg	stimuli_target_trianglesquares.svg	26	yes	57	0	870
6.6.1	win	2022-12-14	14:21:29	14:27:00	329111	62cd8af88ff531583cbd24a9	128341728	1	main_z	7	main_z	15	stimuli_distractor_diamondtriangles.svg	stimuli_target_diamondsquares.svg	32	yes	44	1	1082
6.6.1	win	2022-12-14	14:21:29	14:27:00	329111	62cd8af88ff531583cbd24a9	128341728	1	main_z	7	advance_on_keypress_ZEE	16	stimuli_distractor_diamondtriangles.svg	stimuli_target_diamondsquares.svg	32	yes	57	0	559
6.6.1	win	2022-12-14	14:21:29	14:27:02	331392	62cd8af88ff531583cbd24a9	128341728	1	main_z	7	main_z	17	stimuli_target_diamondsquares.svg	stimuli_distractor_trianglediamonds.svg	20	yes	44	1	1097
6.6.1	win	2022-12-14	14:21:29	14:27:02	331392	62cd8af88ff531583cbd24a9	128341728	1	main_z	7	advance_on_keypress_ZEE	18	stimuli_target_diamondsquares.svg	stimuli_distractor_trianglediamonds.svg	20	yes	57	0	668
6.6.1	win	2022-12-14	14:21:29	14:27:05	334280	62cd8af88ff531583cbd24a9	128341728	1	main_z	7	main_z	19	stimuli_distractor_diamondtriangles.svg	stimuli_distractor_trianglediamonds.svg	38	no	44	0	1592
6.6.1	win	2022-12-14	14:21:29	14:27:05	334280	62cd8af88ff531583cbd24a9	128341728	1	main_z	7	advance_on_keypress_ZEE	20	stimuli_distractor_diamondtriangles.svg	stimuli_distractor_trianglediamonds.svg	38	no	57	0	919
6.6.1	win	2022-12-14	14:21:29	14:27:08	337135	62cd8af88ff531583cbd24a9	128341728	1	main_z	7	main_z	21	stimuli_distractor_diamondtriangles.svg	stimuli_target_trianglesquares.svg	30	yes	44	1	1313
6.6.1	win	2022-12-14	14:21:29	14:27:08	337135	62cd8af88ff531583cbd24a9	128341728	1	main_z	7	advance_on_keypress_ZEE	22	stimuli_distractor_diamondtriangles.svg	stimuli_target_trianglesquares.svg	30	yes	57	0	1366
6.6.1	win	2022-12-14	14:21:29	14:27:10	339874	62cd8af88ff531583cbd24a9	128341728	1	main_z	7	main_z	23	stimuli_target_circlediamonds.svg	stimuli_distractor_trianglediamonds.svg	2	yes	44	1	744
6.6.1	win	2022-12-14	14:21:29	14:27:10	339874	62cd8af88ff531583cbd24a9	128341728	1	main_z	7	advance_on_keypress_ZEE	24	stimuli_target_circlediamonds.svg	stimuli_distractor_trianglediamonds.svg	2	yes	57	0	806
6.6.1	win	2022-12-14	14:21:29	14:27:14	343305	62cd8af88ff531583cbd24a9	128341728	1	main_z	7	main_z	25	stimuli_distractor_diamondtriangles.svg	stimuli_distractor_diamondtriangles.svg	39	no	0	1	2000
6.6.1	win	2022-12-14	14:21:29	14:27:14	343305	62cd8af88ff531583cbd24a9	128341728	1	main_z	7	advance_on_keypress_ZEE	26	stimuli_distractor_diamondtriangles.svg	stimuli_distractor_diamondtriangles.svg	39	no	57	0	1910
6.6.1	win	2022-12-14	14:21:29	14:27:17	346463	62cd8af88ff531583cbd24a9	128341728	1	main_z	7	main_z	27	stimuli_target_diamondcircles.svg	stimuli_distractor_diamondtriangles.svg	23	yes	44	1	623
6.6.1	win	2022-12-14	14:21:29	14:27:17	346463	62cd8af88ff531583cbd24a9	128341728	1	main_z	7	advance_on_keypress_ZEE	28	stimuli_target_diamondcircles.svg	stimuli_distractor_diamondtriangles.svg	23	yes	57	0	710
6.6.1	win	2022-12-14	14:21:29	14:27:20	349798	62cd8af88ff531583cbd24a9	128341728	1	main_z	7	main_z	29	stimuli_distractor_diamondtriangles.svg	stimuli_distractor_diamondtriangles.svg	40	no	0	1	2000
6.6.1	win	2022-12-14	14:21:29	14:27:20	349798	62cd8af88ff531583cbd24a9	128341728	1	main_z	7	advance_on_keypress_ZEE	30	stimuli_distractor_diamondtriangles.svg	stimuli_distractor_diamondtriangles.svg	40	no	57	0	755
6.6.1	win	2022-12-14	14:21:29	14:27:23	352086	62cd8af88ff531583cbd24a9	128341728	1	main_z	7	main_z	31	stimuli_distractor_diamondtriangles.svg	stimuli_target_diamondcircles.svg	31	yes	44	1	905
6.6.1	win	2022-12-14	14:21:29	14:27:23	352086	62cd8af88ff531583cbd24a9	128341728	1	main_z	7	advance_on_keypress_ZEE	32	stimuli_distractor_diamondtriangles.svg	stimuli_target_diamondcircles.svg	31	yes	57	0	773
6.6.1	win	2022-12-14	14:21:29	14:27:25	354479	62cd8af88ff531583cbd24a9	128341728	1	main_z	7	main_z	33	stimuli_target_trianglecircles.svg	stimuli_distractor_diamondtriangles.svg	21	yes	44	1	996
6.6.1	win	2022-12-14	14:21:29	14:27:25	354479	62cd8af88ff531583cbd24a9	128341728	1	main_z	7	advance_on_keypress_ZEE	34	stimuli_target_trianglecircles.svg	stimuli_distractor_diamondtriangles.svg	21	yes	57	0	494
6.6.1	win	2022-12-14	14:21:29	14:27:28	357001	62cd8af88ff531583cbd24a9	128341728	1	main_z	7	main_z	35	stimuli_target_squarediamonds.svg	stimuli_distractor_diamondtriangles.svg	8	yes	44	1	1401
6.6.1	win	2022-12-14	14:21:29	14:27:28	357001	62cd8af88ff531583cbd24a9	128341728	1	main_z	7	advance_on_keypress_ZEE	36	stimuli_target_squarediamonds.svg	stimuli_distractor_diamondtriangles.svg	8	yes	57	0	5504
6.6.1	win	2022-12-14	14:21:29	14:27:36	365125	62cd8af88ff531583cbd24a9	128341728	1	main_z	7	main_z	37	stimuli_distractor_trianglediamonds.svg	stimuli_distractor_diamondtriangles.svg	35	no	0	1	2000
6.6.1	win	2022-12-14	14:21:29	14:27:36	365125	62cd8af88ff531583cbd24a9	128341728	1	main_z	7	advance_on_keypress_ZEE	38	stimuli_distractor_trianglediamonds.svg	stimuli_distractor_diamondtriangles.svg	35	no	57	0	689
6.6.1	win	2022-12-14	14:21:29	14:27:38	367839	62cd8af88ff531583cbd24a9	128341728	1	main_z	7	main_z	39	stimuli_distractor_trianglediamonds.svg	stimuli_target_diamondsquares.svg	28	yes	44	1	1396
6.6.1	win	2022-12-14	14:21:29	14:27:38	367839	62cd8af88ff531583cbd24a9	128341728	1	main_z	7	advance_on_keypress_ZEE	40	stimuli_distractor_trianglediamonds.svg	stimuli_target_diamondsquares.svg	28	yes	57	0	741
6.6.1	win	2022-12-14	14:21:29	14:27:41	370321	62cd8af88ff531583cbd24a9	128341728	1	main_z	7	main_z	41	stimuli_distractor_diamondtriangles.svg	stimuli_target_squaretriangles.svg	15	yes	44	1	1111
6.6.1	win	2022-12-14	14:21:29	14:27:41	370321	62cd8af88ff531583cbd24a9	128341728	1	main_z	7	advance_on_keypress_ZEE	42	stimuli_distractor_diamondtriangles.svg	stimuli_target_squaretriangles.svg	15	yes	57	0	488
6.6.1	win	2022-12-14	14:21:29	14:27:43	372223	62cd8af88ff531583cbd24a9	128341728	1	main_z	7	main_z	43	stimuli_distractor_trianglediamonds.svg	stimuli_target_squaretriangles.svg	11	yes	44	1	788
6.6.1	win	2022-12-14	14:21:29	14:27:43	372223	62cd8af88ff531583cbd24a9	128341728	1	main_z	7	advance_on_keypress_ZEE	44	stimuli_distractor_trianglediamonds.svg	stimuli_target_squaretriangles.svg	11	yes	57	0	477
6.6.1	win	2022-12-14	14:21:29	14:27:46	375327	62cd8af88ff531583cbd24a9	128341728	1	main_z	7	main_z	45	stimuli_distractor_trianglediamonds.svg	stimuli_distractor_trianglediamonds.svg	34	no	0	1	2000
6.6.1	win	2022-12-14	14:21:29	14:27:46	375327	62cd8af88ff531583cbd24a9	128341728	1	main_z	7	advance_on_keypress_ZEE	46	stimuli_distractor_trianglediamonds.svg	stimuli_distractor_trianglediamonds.svg	34	no	57	0	543
6.6.1	win	2022-12-14	14:21:29	14:27:48	377095	62cd8af88ff531583cbd24a9	128341728	1	main_z	7	main_z	47	stimuli_distractor_diamondtriangles.svg	stimuli_target_circletriangles.svg	13	yes	44	1	602
6.6.1	win	2022-12-14	14:21:29	14:27:48	377095	62cd8af88ff531583cbd24a9	128341728	1	main_z	7	advance_on_keypress_ZEE	48	stimuli_distractor_diamondtriangles.svg	stimuli_target_circletriangles.svg	13	yes	57	0	577
6.6.1	win	2022-12-14	14:21:29	14:27:50	379207	62cd8af88ff531583cbd24a9	128341728	1	main_z	7	main_z	49	stimuli_distractor_trianglediamonds.svg	stimuli_target_circlediamonds.svg	10	yes	44	1	913
6.6.1	win	2022-12-14	14:21:29	14:27:50	379207	62cd8af88ff531583cbd24a9	128341728	1	main_z	7	advance_on_keypress_ZEE	50	stimuli_distractor_trianglediamonds.svg	stimuli_target_circlediamonds.svg	10	yes	57	0	1836
6.6.1	win	2022-12-14	14:21:29	14:27:54	383670	62cd8af88ff531583cbd24a9	128341728	1	main_z	7	main_z	51	stimuli_distractor_trianglediamonds.svg	stimuli_distractor_diamondtriangles.svg	36	no	0	1	2000
6.6.1	win	2022-12-14	14:21:29	14:27:54	383670	62cd8af88ff531583cbd24a9	128341728	1	main_z	7	advance_on_keypress_ZEE	52	stimuli_distractor_trianglediamonds.svg	stimuli_distractor_diamondtriangles.svg	36	no	57	0	506
6.6.1	win	2022-12-14	14:21:29	14:27:56	385896	62cd8af88ff531583cbd24a9	128341728	1	main_z	7	main_z	53	stimuli_target_trianglesquares.svg	stimuli_distractor_trianglediamonds.svg	18	yes	44	1	1093
6.6.1	win	2022-12-14	14:21:29	14:27:56	385896	62cd8af88ff531583cbd24a9	128341728	1	main_z	7	advance_on_keypress_ZEE	54	stimuli_target_trianglesquares.svg	stimuli_distractor_trianglediamonds.svg	18	yes	57	0	313
6.6.1	win	2022-12-14	14:21:29	14:27:58	387519	62cd8af88ff531583cbd24a9	128341728	1	main_z	7	main_z	55	stimuli_target_circletriangles.svg	stimuli_distractor_diamondtriangles.svg	5	yes	44	1	681
6.6.1	win	2022-12-14	14:21:29	14:27:58	387519	62cd8af88ff531583cbd24a9	128341728	1	main_z	7	advance_on_keypress_ZEE	56	stimuli_target_circletriangles.svg	stimuli_distractor_diamondtriangles.svg	5	yes	57	0	327
6.6.1	win	2022-12-14	14:21:29	14:28:00	389135	62cd8af88ff531583cbd24a9	128341728	1	main_z	7	main_z	57	stimuli_target_circlediamonds.svg	stimuli_distractor_diamondtriangles.svg	6	yes	44	1	665
6.6.1	win	2022-12-14	14:21:29	14:28:00	389135	62cd8af88ff531583cbd24a9	128341728	1	main_z	7	advance_on_keypress_ZEE	58	stimuli_target_circlediamonds.svg	stimuli_distractor_diamondtriangles.svg	6	yes	57	0	213
6.6.1	win	2022-12-14	14:21:29	14:28:03	391979	62cd8af88ff531583cbd24a9	128341728	1	main_z	7	main_z	59	stimuli_distractor_diamondtriangles.svg	stimuli_distractor_trianglediamonds.svg	37	no	0	1	2000
6.6.1	win	2022-12-14	14:21:29	14:28:03	391979	62cd8af88ff531583cbd24a9	128341728	1	main_z	7	advance_on_keypress_ZEE	60	stimuli_distractor_diamondtriangles.svg	stimuli_distractor_trianglediamonds.svg	37	no	57	0	715
6.6.1	win	2022-12-14	14:21:29	14:28:05	394262	62cd8af88ff531583cbd24a9	128341728	1	main_z	7	main_z	61	stimuli_distractor_diamondtriangles.svg	stimuli_target_trianglecircles.svg	29	yes	44	1	941
6.6.1	win	2022-12-14	14:21:29	14:28:05	394262	62cd8af88ff531583cbd24a9	128341728	1	main_z	7	advance_on_keypress_ZEE	62	stimuli_distractor_diamondtriangles.svg	stimuli_target_trianglecircles.svg	29	yes	57	0	271
6.6.1	win	2022-12-14	14:21:29	14:28:06	395719	62cd8af88ff531583cbd24a9	128341728	1	main_z	7	main_z	63	stimuli_target_trianglecircles.svg	stimuli_distractor_trianglediamonds.svg	17	yes	44	1	564
6.6.1	win	2022-12-14	14:21:29	14:28:06	395719	62cd8af88ff531583cbd24a9	128341728	1	main_z	7	advance_on_keypress_ZEE	64	stimuli_target_trianglecircles.svg	stimuli_distractor_trianglediamonds.svg	17	yes	57	0	197
6.6.1	win	2022-12-14	14:21:29	14:28:08	397855	62cd8af88ff531583cbd24a9	128341728	1	main_z	7	main_z	65	stimuli_target_squaretriangles.svg	stimuli_distractor_diamondtriangles.svg	7	yes	44	1	1308
6.6.1	win	2022-12-14	14:21:29	14:28:08	397855	62cd8af88ff531583cbd24a9	128341728	1	main_z	7	advance_on_keypress_ZEE	66	stimuli_target_squaretriangles.svg	stimuli_distractor_diamondtriangles.svg	7	yes	57	0	1199
6.6.1	win	2022-12-14	14:21:29	14:28:11	400657	62cd8af88ff531583cbd24a9	128341728	1	main_z	7	main_z	67	stimuli_distractor_trianglediamonds.svg	stimuli_target_trianglecircles.svg	25	yes	44	1	977
6.6.1	win	2022-12-14	14:21:29	14:28:11	400657	62cd8af88ff531583cbd24a9	128341728	1	main_z	7	advance_on_keypress_ZEE	68	stimuli_distractor_trianglediamonds.svg	stimuli_target_trianglecircles.svg	25	yes	57	0	287
6.6.1	win	2022-12-14	14:21:29	14:28:13	402322	62cd8af88ff531583cbd24a9	128341728	1	main_z	7	main_z	69	stimuli_distractor_diamondtriangles.svg	stimuli_target_squarediamonds.svg	16	yes	44	1	758
6.6.1	win	2022-12-14	14:21:29	14:28:13	402322	62cd8af88ff531583cbd24a9	128341728	1	main_z	7	advance_on_keypress_ZEE	70	stimuli_distractor_diamondtriangles.svg	stimuli_target_squarediamonds.svg	16	yes	57	0	252
6.6.1	win	2022-12-14	14:21:29	14:28:14	403879	62cd8af88ff531583cbd24a9	128341728	1	main_z	7	main_z	71	stimuli_distractor_diamondtriangles.svg	stimuli_target_circlediamonds.svg	14	yes	44	1	681
6.6.1	win	2022-12-14	14:21:29	14:28:14	403879	62cd8af88ff531583cbd24a9	128341728	1	main_z	7	advance_on_keypress_ZEE	72	stimuli_distractor_diamondtriangles.svg	stimuli_target_circlediamonds.svg	14	yes	57	0	326
6.6.1	win	2022-12-14	14:21:29	14:28:17	405999	62cd8af88ff531583cbd24a9	128341728	1	main_z	7	main_z	73	stimuli_distractor_trianglediamonds.svg	stimuli_target_diamondcircles.svg	27	yes	44	1	1168
6.6.1	win	2022-12-14	14:21:29	14:28:17	405999	62cd8af88ff531583cbd24a9	128341728	1	main_z	7	advance_on_keypress_ZEE	74	stimuli_distractor_trianglediamonds.svg	stimuli_target_diamondcircles.svg	27	yes	57	0	232
6.6.1	win	2022-12-14	14:21:29	14:28:19	408856	62cd8af88ff531583cbd24a9	128341728	1	main_z	7	main_z	75	stimuli_distractor_trianglediamonds.svg	stimuli_distractor_trianglediamonds.svg	33	no	0	1	2000
6.6.1	win	2022-12-14	14:21:29	14:28:19	408856	62cd8af88ff531583cbd24a9	128341728	1	main_z	7	advance_on_keypress_ZEE	76	stimuli_distractor_trianglediamonds.svg	stimuli_distractor_trianglediamonds.svg	33	no	57	0	44997
6.6.1	win	2022-12-14	14:21:29	14:29:06	455086	62cd8af88ff531583cbd24a9	128341728	1	main_z	7	main_z	77	stimuli_target_circletriangles.svg	stimuli_distractor_trianglediamonds.svg	1	yes	44	1	606
6.6.1	win	2022-12-14	14:21:29	14:29:06	455086	62cd8af88ff531583cbd24a9	128341728	1	main_z	7	advance_on_keypress_ZEE	78	stimuli_target_circletriangles.svg	stimuli_distractor_trianglediamonds.svg	1	yes	57	0	927
6.6.1	win	2022-12-14	14:21:29	14:29:08	457247	62cd8af88ff531583cbd24a9	128341728	1	main_z	7	main_z	79	stimuli_target_squaretriangles.svg	stimuli_distractor_trianglediamonds.svg	3	yes	44	1	608
6.6.1	win	2022-12-14	14:21:29	14:29:08	457247	62cd8af88ff531583cbd24a9	128341728	1	main_z	7	advance_on_keypress_ZEE	80	stimuli_target_squaretriangles.svg	stimuli_distractor_trianglediamonds.svg	3	yes	57	0	407
6.6.1	win	2022-12-14	14:21:29	14:29:10	459150	62cd8af88ff531583cbd24a9	128341728	1	main_z	7	main_z	81	stimuli_distractor_trianglediamonds.svg	stimuli_target_trianglesquares.svg	26	yes	44	1	870
6.6.1	win	2022-12-14	14:21:29	14:29:10	459150	62cd8af88ff531583cbd24a9	128341728	1	main_z	7	advance_on_keypress_ZEE	82	stimuli_distractor_trianglediamonds.svg	stimuli_target_trianglesquares.svg	26	yes	57	0	467
6.6.1	win	2022-12-14	14:21:29	14:29:11	460887	62cd8af88ff531583cbd24a9	128341728	1	main_z	7	main_z	83	stimuli_target_trianglesquares.svg	stimuli_distractor_trianglediamonds.svg	18	yes	44	1	647
6.6.1	win	2022-12-14	14:21:29	14:29:11	460887	62cd8af88ff531583cbd24a9	128341728	1	main_z	7	advance_on_keypress_ZEE	84	stimuli_target_trianglesquares.svg	stimuli_distractor_trianglediamonds.svg	18	yes	57	0	360
6.6.1	win	2022-12-14	14:21:29	14:29:13	462397	62cd8af88ff531583cbd24a9	128341728	1	main_z	7	main_z	85	stimuli_distractor_trianglediamonds.svg	stimuli_target_circlediamonds.svg	10	yes	44	1	521
6.6.1	win	2022-12-14	14:21:29	14:29:13	462397	62cd8af88ff531583cbd24a9	128341728	1	main_z	7	advance_on_keypress_ZEE	86	stimuli_distractor_trianglediamonds.svg	stimuli_target_circlediamonds.svg	10	yes	57	0	361
6.6.1	win	2022-12-14	14:21:29	14:29:14	463911	62cd8af88ff531583cbd24a9	128341728	1	main_z	7	main_z	87	stimuli_target_squarediamonds.svg	stimuli_distractor_trianglediamonds.svg	4	yes	44	1	530
6.6.1	win	2022-12-14	14:21:29	14:29:14	463911	62cd8af88ff531583cbd24a9	128341728	1	main_z	7	advance_on_keypress_ZEE	88	stimuli_target_squarediamonds.svg	stimuli_distractor_trianglediamonds.svg	4	yes	57	0	228
6.6.1	win	2022-12-14	14:21:29	14:29:16	465303	62cd8af88ff531583cbd24a9	128341728	1	main_z	7	main_z	89	stimuli_target_squaretriangles.svg	stimuli_distractor_diamondtriangles.svg	7	yes	44	1	538
6.6.1	win	2022-12-14	14:21:29	14:29:16	465303	62cd8af88ff531583cbd24a9	128341728	1	main_z	7	advance_on_keypress_ZEE	90	stimuli_target_squaretriangles.svg	stimuli_distractor_diamondtriangles.svg	7	yes	57	0	195
6.6.1	win	2022-12-14	14:21:29	14:29:17	466542	62cd8af88ff531583cbd24a9	128341728	1	main_z	7	main_z	91	stimuli_target_squarediamonds.svg	stimuli_distractor_diamondtriangles.svg	8	yes	44	1	419
6.6.1	win	2022-12-14	14:21:29	14:29:17	466542	62cd8af88ff531583cbd24a9	128341728	1	main_z	7	advance_on_keypress_ZEE	92	stimuli_target_squarediamonds.svg	stimuli_distractor_diamondtriangles.svg	8	yes	57	0	218
6.6.1	win	2022-12-14	14:21:29	14:29:19	467952	62cd8af88ff531583cbd24a9	128341728	1	main_z	7	main_z	93	stimuli_distractor_diamondtriangles.svg	stimuli_target_circlediamonds.svg	14	yes	44	1	569
6.6.1	win	2022-12-14	14:21:29	14:29:19	467952	62cd8af88ff531583cbd24a9	128341728	1	main_z	7	advance_on_keypress_ZEE	94	stimuli_distractor_diamondtriangles.svg	stimuli_target_circlediamonds.svg	14	yes	57	0	3964
6.6.1	win	2022-12-14	14:21:29	14:29:24	473048	62cd8af88ff531583cbd24a9	128341728	1	main_z	7	main_z	95	stimuli_distractor_trianglediamonds.svg	stimuli_target_squarediamonds.svg	12	yes	44	1	506
6.6.1	win	2022-12-14	14:21:29	14:29:24	473048	62cd8af88ff531583cbd24a9	128341728	1	main_z	7	advance_on_keypress_ZEE	96	stimuli_distractor_trianglediamonds.svg	stimuli_target_squarediamonds.svg	12	yes	57	0	2181
6.6.1	win	2022-12-14	14:21:29	14:29:28	477858	62cd8af88ff531583cbd24a9	128341728	1	main_z	7	main_z	97	stimuli_distractor_diamondtriangles.svg	stimuli_distractor_trianglediamonds.svg	38	no	0	1	2000
6.6.1	win	2022-12-14	14:21:29	14:29:28	477858	62cd8af88ff531583cbd24a9	128341728	1	main_z	7	advance_on_keypress_ZEE	98	stimuli_distractor_diamondtriangles.svg	stimuli_distractor_trianglediamonds.svg	38	no	57	0	404
6.6.1	win	2022-12-14	14:21:29	14:29:30	479423	62cd8af88ff531583cbd24a9	128341728	1	main_z	7	main_z	99	stimuli_distractor_trianglediamonds.svg	stimuli_target_circletriangles.svg	9	yes	44	1	531
6.6.1	win	2022-12-14	14:21:29	14:29:30	479423	62cd8af88ff531583cbd24a9	128341728	1	main_z	7	advance_on_keypress_ZEE	100	stimuli_distractor_trianglediamonds.svg	stimuli_target_circletriangles.svg	9	yes	57	0	302
6.6.1	win	2022-12-14	14:21:29	14:29:31	480770	62cd8af88ff531583cbd24a9	128341728	1	main_z	7	main_z	101	stimuli_target_squaretriangles.svg	stimuli_distractor_trianglediamonds.svg	3	yes	44	1	419
6.6.1	win	2022-12-14	14:21:29	14:29:31	480770	62cd8af88ff531583cbd24a9	128341728	1	main_z	7	advance_on_keypress_ZEE	102	stimuli_target_squaretriangles.svg	stimuli_distractor_trianglediamonds.svg	3	yes	57	0	255
6.6.1	win	2022-12-14	14:21:29	14:29:33	482103	62cd8af88ff531583cbd24a9	128341728	1	main_z	7	main_z	103	stimuli_target_circletriangles.svg	stimuli_distractor_diamondtriangles.svg	5	yes	44	1	452
6.6.1	win	2022-12-14	14:21:29	14:29:33	482103	62cd8af88ff531583cbd24a9	128341728	1	main_z	7	advance_on_keypress_ZEE	104	stimuli_target_circletriangles.svg	stimuli_distractor_diamondtriangles.svg	5	yes	57	0	249
6.6.1	win	2022-12-14	14:21:29	14:29:36	484976	62cd8af88ff531583cbd24a9	128341728	1	main_z	7	main_z	105	stimuli_distractor_diamondtriangles.svg	stimuli_distractor_diamondtriangles.svg	40	no	0	1	2000
6.6.1	win	2022-12-14	14:21:29	14:29:36	484976	62cd8af88ff531583cbd24a9	128341728	1	main_z	7	advance_on_keypress_ZEE	106	stimuli_distractor_diamondtriangles.svg	stimuli_distractor_diamondtriangles.svg	40	no	57	0	768
6.6.1	win	2022-12-14	14:21:29	14:29:39	488368	62cd8af88ff531583cbd24a9	128341728	1	main_z	7	main_z	107	stimuli_distractor_trianglediamonds.svg	stimuli_distractor_diamondtriangles.svg	36	no	0	1	2000
6.6.1	win	2022-12-14	14:21:29	14:29:39	488368	62cd8af88ff531583cbd24a9	128341728	1	main_z	7	advance_on_keypress_ZEE	108	stimuli_distractor_trianglediamonds.svg	stimuli_distractor_diamondtriangles.svg	36	no	57	0	494
6.6.1	win	2022-12-14	14:21:29	14:29:41	490790	62cd8af88ff531583cbd24a9	128341728	1	main_z	7	main_z	109	stimuli_distractor_diamondtriangles.svg	stimuli_distractor_diamondtriangles.svg	39	no	44	0	1305
6.6.1	win	2022-12-14	14:21:29	14:29:41	490790	62cd8af88ff531583cbd24a9	128341728	1	main_z	7	advance_on_keypress_ZEE	110	stimuli_distractor_diamondtriangles.svg	stimuli_distractor_diamondtriangles.svg	39	no	57	0	382
6.6.1	win	2022-12-14	14:21:29	14:29:43	492719	62cd8af88ff531583cbd24a9	128341728	1	main_z	7	main_z	111	stimuli_distractor_diamondtriangles.svg	stimuli_target_trianglesquares.svg	30	yes	44	1	916
6.6.1	win	2022-12-14	14:21:29	14:29:43	492719	62cd8af88ff531583cbd24a9	128341728	1	main_z	7	advance_on_keypress_ZEE	112	stimuli_distractor_diamondtriangles.svg	stimuli_target_trianglesquares.svg	30	yes	57	0	248
6.6.1	win	2022-12-14	14:21:29	14:29:45	494129	62cd8af88ff531583cbd24a9	128341728	1	main_z	7	main_z	113	stimuli_target_diamondcircles.svg	stimuli_distractor_diamondtriangles.svg	23	yes	44	1	534
6.6.1	win	2022-12-14	14:21:29	14:29:45	494129	62cd8af88ff531583cbd24a9	128341728	1	main_z	7	advance_on_keypress_ZEE	114	stimuli_target_diamondcircles.svg	stimuli_distractor_diamondtriangles.svg	23	yes	57	0	182
6.6.1	win	2022-12-14	14:21:29	14:29:46	495926	62cd8af88ff531583cbd24a9	128341728	1	main_z	7	main_z	115	stimuli_distractor_trianglediamonds.svg	stimuli_target_squaretriangles.svg	11	yes	44	1	991
6.6.1	win	2022-12-14	14:21:29	14:29:46	495926	62cd8af88ff531583cbd24a9	128341728	1	main_z	7	advance_on_keypress_ZEE	116	stimuli_distractor_trianglediamonds.svg	stimuli_target_squaretriangles.svg	11	yes	57	0	304
6.6.1	win	2022-12-14	14:21:29	14:29:48	497431	62cd8af88ff531583cbd24a9	128341728	1	main_z	7	main_z	117	stimuli_distractor_diamondtriangles.svg	stimuli_target_squarediamonds.svg	16	yes	44	1	578
6.6.1	win	2022-12-14	14:21:29	14:29:48	497431	62cd8af88ff531583cbd24a9	128341728	1	main_z	7	advance_on_keypress_ZEE	118	stimuli_distractor_diamondtriangles.svg	stimuli_target_squarediamonds.svg	16	yes	57	0	235
6.6.1	win	2022-12-14	14:21:29	14:29:49	498767	62cd8af88ff531583cbd24a9	128341728	1	main_z	7	main_z	119	stimuli_target_circlediamonds.svg	stimuli_distractor_diamondtriangles.svg	6	yes	44	1	480
6.6.1	win	2022-12-14	14:21:29	14:29:49	498767	62cd8af88ff531583cbd24a9	128341728	1	main_z	7	advance_on_keypress_ZEE	120	stimuli_target_circlediamonds.svg	stimuli_distractor_diamondtriangles.svg	6	yes	57	0	252
6.6.1	win	2022-12-14	14:21:29	14:29:51	500497	62cd8af88ff531583cbd24a9	128341728	1	main_z	7	main_z	121	stimuli_distractor_diamondtriangles.svg	stimuli_target_trianglecircles.svg	29	yes	44	1	852
6.6.1	win	2022-12-14	14:21:29	14:29:51	500497	62cd8af88ff531583cbd24a9	128341728	1	main_z	7	advance_on_keypress_ZEE	122	stimuli_distractor_diamondtriangles.svg	stimuli_target_trianglecircles.svg	29	yes	57	0	199
6.6.1	win	2022-12-14	14:21:29	14:29:54	503321	62cd8af88ff531583cbd24a9	128341728	1	main_z	7	main_z	123	stimuli_distractor_trianglediamonds.svg	stimuli_distractor_diamondtriangles.svg	35	no	0	1	2000
6.6.1	win	2022-12-14	14:21:29	14:29:54	503321	62cd8af88ff531583cbd24a9	128341728	1	main_z	7	advance_on_keypress_ZEE	124	stimuli_distractor_trianglediamonds.svg	stimuli_distractor_diamondtriangles.svg	35	no	57	0	584
6.6.1	win	2022-12-14	14:21:29	14:29:57	506122	62cd8af88ff531583cbd24a9	128341728	1	main_z	7	main_z	125	stimuli_distractor_diamondtriangles.svg	stimuli_target_squaretriangles.svg	15	yes	44	1	1593
6.6.1	win	2022-12-14	14:21:29	14:29:57	506122	62cd8af88ff531583cbd24a9	128341728	1	main_z	7	advance_on_keypress_ZEE	126	stimuli_distractor_diamondtriangles.svg	stimuli_target_squaretriangles.svg	15	yes	57	0	991
6.6.1	win	2022-12-14	14:21:29	14:29:59	508327	62cd8af88ff531583cbd24a9	128341728	1	main_z	7	main_z	127	stimuli_distractor_diamondtriangles.svg	stimuli_target_circletriangles.svg	13	yes	44	1	588
6.6.1	win	2022-12-14	14:21:29	14:29:59	508327	62cd8af88ff531583cbd24a9	128341728	1	main_z	7	advance_on_keypress_ZEE	128	stimuli_distractor_diamondtriangles.svg	stimuli_target_circletriangles.svg	13	yes	57	0	236
6.6.1	win	2022-12-14	14:21:29	14:30:00	509703	62cd8af88ff531583cbd24a9	128341728	1	main_z	7	main_z	129	stimuli_target_circletriangles.svg	stimuli_distractor_trianglediamonds.svg	1	yes	44	1	514
6.6.1	win	2022-12-14	14:21:29	14:30:00	509703	62cd8af88ff531583cbd24a9	128341728	1	main_z	7	advance_on_keypress_ZEE	130	stimuli_target_circletriangles.svg	stimuli_distractor_trianglediamonds.svg	1	yes	57	0	173
6.6.1	win	2022-12-14	14:21:29	14:30:01	510903	62cd8af88ff531583cbd24a9	128341728	1	main_z	7	main_z	131	stimuli_target_circlediamonds.svg	stimuli_distractor_trianglediamonds.svg	2	yes	44	1	398
6.6.1	win	2022-12-14	14:21:29	14:30:01	510903	62cd8af88ff531583cbd24a9	128341728	1	main_z	7	advance_on_keypress_ZEE	132	stimuli_target_circlediamonds.svg	stimuli_distractor_trianglediamonds.svg	2	yes	57	0	197
6.6.1	win	2022-12-14	14:21:29	14:30:03	512656	62cd8af88ff531583cbd24a9	128341728	1	main_z	7	main_z	133	stimuli_distractor_trianglediamonds.svg	stimuli_target_diamondcircles.svg	27	yes	44	1	925
6.6.1	win	2022-12-14	14:21:29	14:30:03	512656	62cd8af88ff531583cbd24a9	128341728	1	main_z	7	advance_on_keypress_ZEE	134	stimuli_distractor_trianglediamonds.svg	stimuli_target_diamondcircles.svg	27	yes	57	0	289
6.6.1	win	2022-12-14	14:21:29	14:30:05	514272	62cd8af88ff531583cbd24a9	128341728	1	main_z	7	main_z	135	stimuli_distractor_trianglediamonds.svg	stimuli_target_diamondsquares.svg	28	yes	44	1	699
6.6.1	win	2022-12-14	14:21:29	14:30:05	514272	62cd8af88ff531583cbd24a9	128341728	1	main_z	7	advance_on_keypress_ZEE	136	stimuli_distractor_trianglediamonds.svg	stimuli_target_diamondsquares.svg	28	yes	57	0	272
6.6.1	win	2022-12-14	14:21:29	14:30:06	515777	62cd8af88ff531583cbd24a9	128341728	1	main_z	7	main_z	137	stimuli_target_diamondsquares.svg	stimuli_distractor_trianglediamonds.svg	20	yes	44	1	604
6.6.1	win	2022-12-14	14:21:29	14:30:06	515777	62cd8af88ff531583cbd24a9	128341728	1	main_z	7	advance_on_keypress_ZEE	138	stimuli_target_diamondsquares.svg	stimuli_distractor_trianglediamonds.svg	20	yes	57	0	219
6.6.1	win	2022-12-14	14:21:29	14:30:08	517487	62cd8af88ff531583cbd24a9	128341728	1	main_z	7	main_z	139	stimuli_distractor_diamondtriangles.svg	stimuli_distractor_trianglediamonds.svg	37	no	44	0	873
6.6.1	win	2022-12-14	14:21:29	14:30:08	517487	62cd8af88ff531583cbd24a9	128341728	1	main_z	7	advance_on_keypress_ZEE	140	stimuli_distractor_diamondtriangles.svg	stimuli_distractor_trianglediamonds.svg	37	no	57	0	173
6.6.1	win	2022-12-14	14:21:29	14:30:09	518935	62cd8af88ff531583cbd24a9	128341728	1	main_z	7	main_z	141	stimuli_distractor_diamondtriangles.svg	stimuli_target_diamondsquares.svg	32	yes	44	1	645
6.6.1	win	2022-12-14	14:21:29	14:30:09	518935	62cd8af88ff531583cbd24a9	128341728	1	main_z	7	advance_on_keypress_ZEE	142	stimuli_distractor_diamondtriangles.svg	stimuli_target_diamondsquares.svg	32	yes	57	0	202
6.6.1	win	2022-12-14	14:21:29	14:30:12	521756	62cd8af88ff531583cbd24a9	128341728	1	main_z	7	main_z	143	stimuli_distractor_trianglediamonds.svg	stimuli_distractor_trianglediamonds.svg	34	no	0	1	2000
6.6.1	win	2022-12-14	14:21:29	14:30:12	521756	62cd8af88ff531583cbd24a9	128341728	1	main_z	7	advance_on_keypress_ZEE	144	stimuli_distractor_trianglediamonds.svg	stimuli_distractor_trianglediamonds.svg	34	no	57	0	490
6.6.1	win	2022-12-14	14:21:29	14:30:14	523479	62cd8af88ff531583cbd24a9	128341728	1	main_z	7	main_z	145	stimuli_target_diamondsquares.svg	stimuli_distractor_diamondtriangles.svg	24	yes	44	1	605
6.6.1	win	2022-12-14	14:21:29	14:30:14	523479	62cd8af88ff531583cbd24a9	128341728	1	main_z	7	advance_on_keypress_ZEE	146	stimuli_target_diamondsquares.svg	stimuli_distractor_diamondtriangles.svg	24	yes	57	0	156
6.6.1	win	2022-12-14	14:21:29	14:30:15	524776	62cd8af88ff531583cbd24a9	128341728	1	main_z	7	main_z	147	stimuli_distractor_diamondtriangles.svg	stimuli_target_diamondcircles.svg	31	yes	44	1	510
6.6.1	win	2022-12-14	14:21:29	14:30:15	524776	62cd8af88ff531583cbd24a9	128341728	1	main_z	7	advance_on_keypress_ZEE	148	stimuli_distractor_diamondtriangles.svg	stimuli_target_diamondcircles.svg	31	yes	57	0	144
6.6.1	win	2022-12-14	14:21:29	14:30:17	526022	62cd8af88ff531583cbd24a9	128341728	1	main_z	7	main_z	149	stimuli_target_trianglecircles.svg	stimuli_distractor_trianglediamonds.svg	17	yes	44	1	482
6.6.1	win	2022-12-14	14:21:29	14:30:17	526022	62cd8af88ff531583cbd24a9	128341728	1	main_z	7	advance_on_keypress_ZEE	150	stimuli_target_trianglecircles.svg	stimuli_distractor_trianglediamonds.svg	17	yes	57	0	134
6.6.1	win	2022-12-14	14:21:29	14:30:18	527791	62cd8af88ff531583cbd24a9	128341728	1	main_z	7	main_z	151	stimuli_distractor_trianglediamonds.svg	stimuli_distractor_trianglediamonds.svg	33	no	44	0	1009
6.6.1	win	2022-12-14	14:21:29	14:30:18	527791	62cd8af88ff531583cbd24a9	128341728	1	main_z	7	advance_on_keypress_ZEE	152	stimuli_distractor_trianglediamonds.svg	stimuli_distractor_trianglediamonds.svg	33	no	57	0	143
6.6.1	win	2022-12-14	14:21:29	14:30:20	529144	62cd8af88ff531583cbd24a9	128341728	1	main_z	7	main_z	153	stimuli_distractor_trianglediamonds.svg	stimuli_target_trianglecircles.svg	25	yes	44	1	586
6.6.1	win	2022-12-14	14:21:29	14:30:20	529144	62cd8af88ff531583cbd24a9	128341728	1	main_z	7	advance_on_keypress_ZEE	154	stimuli_distractor_trianglediamonds.svg	stimuli_target_trianglecircles.svg	25	yes	57	0	161
6.6.1	win	2022-12-14	14:21:29	14:30:21	530326	62cd8af88ff531583cbd24a9	128341728	1	main_z	7	main_z	155	stimuli_target_trianglecircles.svg	stimuli_distractor_diamondtriangles.svg	21	yes	44	1	402
6.6.1	win	2022-12-14	14:21:29	14:30:21	530326	62cd8af88ff531583cbd24a9	128341728	1	main_z	7	advance_on_keypress_ZEE	156	stimuli_target_trianglecircles.svg	stimuli_distractor_diamondtriangles.svg	21	yes	57	0	139
6.6.1	win	2022-12-14	14:21:29	14:30:22	531494	62cd8af88ff531583cbd24a9	128341728	1	main_z	7	main_z	157	stimuli_target_trianglesquares.svg	stimuli_distractor_diamondtriangles.svg	22	yes	44	1	403
6.6.1	win	2022-12-14	14:21:29	14:30:22	531494	62cd8af88ff531583cbd24a9	128341728	1	main_z	7	advance_on_keypress_ZEE	158	stimuli_target_trianglesquares.svg	stimuli_distractor_diamondtriangles.svg	22	yes	57	0	195
6.6.1	win	2022-12-14	14:21:29	14:30:24	533031	62cd8af88ff531583cbd24a9	128341728	1	main_z	7	main_z	159	stimuli_target_diamondcircles.svg	stimuli_distractor_trianglediamonds.svg	19	yes	44	1	714
6.6.1	win	2022-12-14	14:21:29	14:30:24	533031	62cd8af88ff531583cbd24a9	128341728	1	main_z	7	advance_on_keypress_ZEE	160	stimuli_target_diamondcircles.svg	stimuli_distractor_trianglediamonds.svg	19	yes	57	0	157
6.6.1	win	2022-12-14	14:21:29	14:30:55	564362	62cd8af88ff531583cbd24a9	128341728	1	practice_slash	9	practice_slash	1	stimuli_distractor_trianglediamonds.svg	stimuli_distractor_diamondtriangles.svg	16	no	53	0	739
6.6.1	win	2022-12-14	14:21:29	14:30:55	564362	62cd8af88ff531583cbd24a9	128341728	1	practice_slash	9	advance_on_keypress_SLASH	2	stimuli_distractor_trianglediamonds.svg	stimuli_distractor_diamondtriangles.svg	16	no	57	0	555
6.6.1	win	2022-12-14	14:21:29	14:30:58	567441	62cd8af88ff531583cbd24a9	128341728	1	practice_slash	9	practice_slash	3	stimuli_target_squarediamonds.svg	stimuli_distractor_trianglediamonds.svg	5	yes	53	1	892
6.6.1	win	2022-12-14	14:21:29	14:30:58	567441	62cd8af88ff531583cbd24a9	128341728	1	practice_slash	9	advance_on_keypress_SLASH	4	stimuli_target_squarediamonds.svg	stimuli_distractor_trianglediamonds.svg	5	yes	57	0	650
6.6.1	win	2022-12-14	14:21:29	14:31:01	570777	62cd8af88ff531583cbd24a9	128341728	1	practice_slash	9	practice_slash	5	stimuli_distractor_trianglediamonds.svg	stimuli_distractor_trianglediamonds.svg	15	no	53	0	1061
6.6.1	win	2022-12-14	14:21:29	14:31:01	570777	62cd8af88ff531583cbd24a9	128341728	1	practice_slash	9	advance_on_keypress_SLASH	6	stimuli_distractor_trianglediamonds.svg	stimuli_distractor_trianglediamonds.svg	15	no	57	0	667
6.6.1	win	2022-12-14	14:21:29	14:31:04	573794	62cd8af88ff531583cbd24a9	128341728	1	practice_slash	9	practice_slash	7	stimuli_distractor_diamondtriangles.svg	stimuli_target_diamondcircles.svg	8	yes	53	1	719
6.6.1	win	2022-12-14	14:21:29	14:31:04	573794	62cd8af88ff531583cbd24a9	128341728	1	practice_slash	9	advance_on_keypress_SLASH	8	stimuli_distractor_diamondtriangles.svg	stimuli_target_diamondcircles.svg	8	yes	57	0	665
6.6.1	win	2022-12-14	14:21:29	14:31:08	577705	62cd8af88ff531583cbd24a9	128341728	1	practice_slash	9	practice_slash	9	stimuli_distractor_diamondtriangles.svg	stimuli_distractor_trianglediamonds.svg	14	no	53	0	1613
6.6.1	win	2022-12-14	14:21:29	14:31:08	577705	62cd8af88ff531583cbd24a9	128341728	1	practice_slash	9	advance_on_keypress_SLASH	10	stimuli_distractor_diamondtriangles.svg	stimuli_distractor_trianglediamonds.svg	14	no	57	0	515
6.6.1	win	2022-12-14	14:21:29	14:31:11	580536	62cd8af88ff531583cbd24a9	128341728	1	practice_slash	9	practice_slash	11	stimuli_distractor_trianglediamonds.svg	stimuli_target_diamondcircles.svg	12	yes	53	1	685
6.6.1	win	2022-12-14	14:21:29	14:31:11	580536	62cd8af88ff531583cbd24a9	128341728	1	practice_slash	9	advance_on_keypress_SLASH	12	stimuli_distractor_trianglediamonds.svg	stimuli_target_diamondcircles.svg	12	yes	57	0	490
6.6.1	win	2022-12-14	14:21:29	14:31:14	583497	62cd8af88ff531583cbd24a9	128341728	1	practice_slash	9	practice_slash	13	stimuli_target_diamondsquares.svg	stimuli_distractor_diamondtriangles.svg	3	yes	53	1	837
6.6.1	win	2022-12-14	14:21:29	14:31:14	583497	62cd8af88ff531583cbd24a9	128341728	1	practice_slash	9	advance_on_keypress_SLASH	14	stimuli_target_diamondsquares.svg	stimuli_distractor_diamondtriangles.svg	3	yes	57	0	515
6.6.1	win	2022-12-14	14:21:29	14:31:18	587643	62cd8af88ff531583cbd24a9	128341728	1	practice_slash	9	practice_slash	15	stimuli_distractor_diamondtriangles.svg	stimuli_target_circletriangles.svg	7	yes	0	0	2000
6.6.1	win	2022-12-14	14:21:29	14:31:18	587643	62cd8af88ff531583cbd24a9	128341728	1	practice_slash	9	advance_on_keypress_SLASH	16	stimuli_distractor_diamondtriangles.svg	stimuli_target_circletriangles.svg	7	yes	57	0	477
6.6.1	win	2022-12-14	14:21:29	14:31:21	590562	62cd8af88ff531583cbd24a9	128341728	1	practice_slash	9	practice_slash	17	stimuli_distractor_trianglediamonds.svg	stimuli_target_squarediamonds.svg	11	yes	53	1	818
6.6.1	win	2022-12-14	14:21:29	14:31:21	590562	62cd8af88ff531583cbd24a9	128341728	1	practice_slash	9	advance_on_keypress_SLASH	18	stimuli_distractor_trianglediamonds.svg	stimuli_target_squarediamonds.svg	11	yes	57	0	655
6.6.1	win	2022-12-14	14:21:29	14:31:24	593448	62cd8af88ff531583cbd24a9	128341728	1	practice_slash	9	practice_slash	19	stimuli_distractor_trianglediamonds.svg	stimuli_target_circlediamonds.svg	10	yes	53	1	605
6.6.1	win	2022-12-14	14:21:29	14:31:24	593448	62cd8af88ff531583cbd24a9	128341728	1	practice_slash	9	advance_on_keypress_SLASH	20	stimuli_distractor_trianglediamonds.svg	stimuli_target_circlediamonds.svg	10	yes	57	0	420
6.6.1	win	2022-12-14	14:21:29	14:31:27	596169	62cd8af88ff531583cbd24a9	128341728	1	practice_slash	9	practice_slash	21	stimuli_target_squarediamonds.svg	stimuli_distractor_diamondtriangles.svg	2	yes	53	1	674
6.6.1	win	2022-12-14	14:21:29	14:31:27	596169	62cd8af88ff531583cbd24a9	128341728	1	practice_slash	9	advance_on_keypress_SLASH	22	stimuli_target_squarediamonds.svg	stimuli_distractor_diamondtriangles.svg	2	yes	57	0	439
6.6.1	win	2022-12-14	14:21:29	14:31:29	598867	62cd8af88ff531583cbd24a9	128341728	1	practice_slash	9	practice_slash	23	stimuli_target_circlediamonds.svg	stimuli_distractor_diamondtriangles.svg	1	yes	53	1	630
6.6.1	win	2022-12-14	14:21:29	14:31:29	598867	62cd8af88ff531583cbd24a9	128341728	1	practice_slash	9	advance_on_keypress_SLASH	24	stimuli_target_circlediamonds.svg	stimuli_distractor_diamondtriangles.svg	1	yes	57	0	538
6.6.1	win	2022-12-14	14:21:29	14:31:33	602313	62cd8af88ff531583cbd24a9	128341728	1	practice_slash	9	practice_slash	25	stimuli_distractor_diamondtriangles.svg	stimuli_target_trianglecircles.svg	9	yes	53	1	1276
6.6.1	win	2022-12-14	14:21:29	14:31:33	602313	62cd8af88ff531583cbd24a9	128341728	1	practice_slash	9	advance_on_keypress_SLASH	26	stimuli_distractor_diamondtriangles.svg	stimuli_target_trianglecircles.svg	9	yes	57	0	449
6.6.1	win	2022-12-14	14:21:29	14:31:37	606387	62cd8af88ff531583cbd24a9	128341728	1	practice_slash	9	practice_slash	27	stimuli_target_diamondsquares.svg	stimuli_distractor_trianglediamonds.svg	6	yes	0	0	2000
6.6.1	win	2022-12-14	14:21:29	14:31:37	606387	62cd8af88ff531583cbd24a9	128341728	1	practice_slash	9	advance_on_keypress_SLASH	28	stimuli_target_diamondsquares.svg	stimuli_distractor_trianglediamonds.svg	6	yes	57	0	532
6.6.1	win	2022-12-14	14:21:29	14:31:41	610546	62cd8af88ff531583cbd24a9	128341728	1	practice_slash	9	practice_slash	29	stimuli_distractor_diamondtriangles.svg	stimuli_distractor_diamondtriangles.svg	13	no	0	1	2000
6.6.1	win	2022-12-14	14:21:29	14:31:41	610546	62cd8af88ff531583cbd24a9	128341728	1	practice_slash	9	advance_on_keypress_SLASH	30	stimuli_distractor_diamondtriangles.svg	stimuli_distractor_diamondtriangles.svg	13	no	57	0	495
6.6.1	win	2022-12-14	14:21:29	14:31:44	613297	62cd8af88ff531583cbd24a9	128341728	1	practice_slash	9	practice_slash	31	stimuli_target_circlediamonds.svg	stimuli_distractor_trianglediamonds.svg	4	yes	53	1	634
6.6.1	win	2022-12-14	14:21:29	14:31:44	613297	62cd8af88ff531583cbd24a9	128341728	1	practice_slash	9	advance_on_keypress_SLASH	32	stimuli_target_circlediamonds.svg	stimuli_distractor_trianglediamonds.svg	4	yes	57	0	390
6.6.1	win	2022-12-14	14:21:29	14:31:48	617630	62cd8af88ff531583cbd24a9	128341728	1	main_slash	11	main_slash	1	stimuli_target_circlediamonds.svg	stimuli_distractor_diamondtriangles.svg	6	yes	53	1	577
6.6.1	win	2022-12-14	14:21:29	14:31:48	617630	62cd8af88ff531583cbd24a9	128341728	1	main_slash	11	advance_on_keypress_SLASH	2	stimuli_target_circlediamonds.svg	stimuli_distractor_diamondtriangles.svg	6	yes	57	0	707
6.6.1	win	2022-12-14	14:21:29	14:31:51	620175	62cd8af88ff531583cbd24a9	128341728	1	main_slash	11	main_slash	3	stimuli_target_diamondcircles.svg	stimuli_distractor_trianglediamonds.svg	19	yes	53	1	1212
6.6.1	win	2022-12-14	14:21:29	14:31:51	620175	62cd8af88ff531583cbd24a9	128341728	1	main_slash	11	advance_on_keypress_SLASH	4	stimuli_target_diamondcircles.svg	stimuli_distractor_trianglediamonds.svg	19	yes	57	0	989
6.6.1	win	2022-12-14	14:21:29	14:31:53	622392	62cd8af88ff531583cbd24a9	128341728	1	main_slash	11	main_slash	5	stimuli_distractor_diamondtriangles.svg	stimuli_target_diamondcircles.svg	31	yes	53	1	605
6.6.1	win	2022-12-14	14:21:29	14:31:53	622392	62cd8af88ff531583cbd24a9	128341728	1	main_slash	11	advance_on_keypress_SLASH	6	stimuli_distractor_diamondtriangles.svg	stimuli_target_diamondcircles.svg	31	yes	57	0	621
6.6.1	win	2022-12-14	14:21:29	14:31:55	624206	62cd8af88ff531583cbd24a9	128341728	1	main_slash	11	main_slash	7	stimuli_target_diamondcircles.svg	stimuli_distractor_diamondtriangles.svg	23	yes	53	1	568
6.6.1	win	2022-12-14	14:21:29	14:31:55	624206	62cd8af88ff531583cbd24a9	128341728	1	main_slash	11	advance_on_keypress_SLASH	8	stimuli_target_diamondcircles.svg	stimuli_distractor_diamondtriangles.svg	23	yes	57	0	595
6.6.1	win	2022-12-14	14:21:29	14:31:56	625886	62cd8af88ff531583cbd24a9	128341728	1	main_slash	11	main_slash	9	stimuli_target_trianglecircles.svg	stimuli_distractor_trianglediamonds.svg	17	yes	53	1	464
6.6.1	win	2022-12-14	14:21:29	14:31:56	625886	62cd8af88ff531583cbd24a9	128341728	1	main_slash	11	advance_on_keypress_SLASH	10	stimuli_target_trianglecircles.svg	stimuli_distractor_trianglediamonds.svg	17	yes	57	0	806
6.6.1	win	2022-12-14	14:21:29	14:31:59	628000	62cd8af88ff531583cbd24a9	128341728	1	main_slash	11	main_slash	11	stimuli_distractor_trianglediamonds.svg	stimuli_target_trianglesquares.svg	26	yes	53	1	678
6.6.1	win	2022-12-14	14:21:29	14:31:59	628000	62cd8af88ff531583cbd24a9	128341728	1	main_slash	11	advance_on_keypress_SLASH	12	stimuli_distractor_trianglediamonds.svg	stimuli_target_trianglesquares.svg	26	yes	57	0	1338
6.6.1	win	2022-12-14	14:21:29	14:32:03	631956	62cd8af88ff531583cbd24a9	128341728	1	main_slash	11	main_slash	13	stimuli_distractor_trianglediamonds.svg	stimuli_distractor_trianglediamonds.svg	33	no	0	1	2000
6.6.1	win	2022-12-14	14:21:29	14:32:03	631956	62cd8af88ff531583cbd24a9	128341728	1	main_slash	11	advance_on_keypress_SLASH	14	stimuli_distractor_trianglediamonds.svg	stimuli_distractor_trianglediamonds.svg	33	no	57	0	778
6.6.1	win	2022-12-14	14:21:29	14:32:05	634121	62cd8af88ff531583cbd24a9	128341728	1	main_slash	11	main_slash	15	stimuli_distractor_diamondtriangles.svg	stimuli_target_trianglesquares.svg	30	yes	53	1	764
6.6.1	win	2022-12-14	14:21:29	14:32:05	634121	62cd8af88ff531583cbd24a9	128341728	1	main_slash	11	advance_on_keypress_SLASH	16	stimuli_distractor_diamondtriangles.svg	stimuli_target_trianglesquares.svg	30	yes	57	0	587
6.6.1	win	2022-12-14	14:21:29	14:32:08	637331	62cd8af88ff531583cbd24a9	128341728	1	main_slash	11	main_slash	17	stimuli_distractor_diamondtriangles.svg	stimuli_distractor_diamondtriangles.svg	39	no	0	1	2000
6.6.1	win	2022-12-14	14:21:29	14:32:08	637331	62cd8af88ff531583cbd24a9	128341728	1	main_slash	11	advance_on_keypress_SLASH	18	stimuli_distractor_diamondtriangles.svg	stimuli_distractor_diamondtriangles.svg	39	no	57	0	1449
6.6.1	win	2022-12-14	14:21:29	14:32:12	641407	62cd8af88ff531583cbd24a9	128341728	1	main_slash	11	main_slash	19	stimuli_distractor_diamondtriangles.svg	stimuli_target_squarediamonds.svg	16	yes	0	0	2000
6.6.1	win	2022-12-14	14:21:29	14:32:12	641407	62cd8af88ff531583cbd24a9	128341728	1	main_slash	11	advance_on_keypress_SLASH	20	stimuli_distractor_diamondtriangles.svg	stimuli_target_squarediamonds.svg	16	yes	57	0	750
6.6.1	win	2022-12-14	14:21:29	14:32:14	643360	62cd8af88ff531583cbd24a9	128341728	1	main_slash	11	main_slash	21	stimuli_distractor_diamondtriangles.svg	stimuli_target_trianglecircles.svg	29	yes	53	1	577
6.6.1	win	2022-12-14	14:21:29	14:32:14	643360	62cd8af88ff531583cbd24a9	128341728	1	main_slash	11	advance_on_keypress_SLASH	22	stimuli_distractor_diamondtriangles.svg	stimuli_target_trianglecircles.svg	29	yes	57	0	800
6.6.1	win	2022-12-14	14:21:29	14:32:17	646784	62cd8af88ff531583cbd24a9	128341728	1	main_slash	11	main_slash	23	stimuli_distractor_trianglediamonds.svg	stimuli_distractor_diamondtriangles.svg	35	no	0	1	2000
6.6.1	win	2022-12-14	14:21:29	14:32:17	646784	62cd8af88ff531583cbd24a9	128341728	1	main_slash	11	advance_on_keypress_SLASH	24	stimuli_distractor_trianglediamonds.svg	stimuli_distractor_diamondtriangles.svg	35	no	57	0	327
6.6.1	win	2022-12-14	14:21:29	14:32:19	648862	62cd8af88ff531583cbd24a9	128341728	1	main_slash	11	main_slash	25	stimuli_distractor_diamondtriangles.svg	stimuli_distractor_trianglediamonds.svg	37	no	53	0	1128
6.6.1	win	2022-12-14	14:21:29	14:32:19	648862	62cd8af88ff531583cbd24a9	128341728	1	main_slash	11	advance_on_keypress_SLASH	26	stimuli_distractor_diamondtriangles.svg	stimuli_distractor_trianglediamonds.svg	37	no	57	0	555
6.6.1	win	2022-12-14	14:21:29	14:32:21	650878	62cd8af88ff531583cbd24a9	128341728	1	main_slash	11	main_slash	27	stimuli_target_circletriangles.svg	stimuli_distractor_diamondtriangles.svg	5	yes	53	1	837
6.6.1	win	2022-12-14	14:21:29	14:32:21	650878	62cd8af88ff531583cbd24a9	128341728	1	main_slash	11	advance_on_keypress_SLASH	28	stimuli_target_circletriangles.svg	stimuli_distractor_diamondtriangles.svg	5	yes	57	0	1602
6.6.1	win	2022-12-14	14:21:29	14:32:25	654014	62cd8af88ff531583cbd24a9	128341728	1	main_slash	11	main_slash	29	stimuli_target_circlediamonds.svg	stimuli_distractor_trianglediamonds.svg	2	yes	53	1	913
6.6.1	win	2022-12-14	14:21:29	14:32:25	654014	62cd8af88ff531583cbd24a9	128341728	1	main_slash	11	advance_on_keypress_SLASH	30	stimuli_target_circlediamonds.svg	stimuli_distractor_trianglediamonds.svg	2	yes	57	0	973
6.6.1	win	2022-12-14	14:21:29	14:32:27	656326	62cd8af88ff531583cbd24a9	128341728	1	main_slash	11	main_slash	31	stimuli_distractor_trianglediamonds.svg	stimuli_target_trianglecircles.svg	25	yes	53	1	708
6.6.1	win	2022-12-14	14:21:29	14:32:27	656326	62cd8af88ff531583cbd24a9	128341728	1	main_slash	11	advance_on_keypress_SLASH	32	stimuli_distractor_trianglediamonds.svg	stimuli_target_trianglecircles.svg	25	yes	57	0	592
6.6.1	win	2022-12-14	14:21:29	14:32:29	658119	62cd8af88ff531583cbd24a9	128341728	1	main_slash	11	main_slash	33	stimuli_target_circletriangles.svg	stimuli_distractor_trianglediamonds.svg	1	yes	53	1	576
6.6.1	win	2022-12-14	14:21:29	14:32:29	658119	62cd8af88ff531583cbd24a9	128341728	1	main_slash	11	advance_on_keypress_SLASH	34	stimuli_target_circletriangles.svg	stimuli_distractor_trianglediamonds.svg	1	yes	57	0	576
6.6.1	win	2022-12-14	14:21:29	14:32:30	659873	62cd8af88ff531583cbd24a9	128341728	1	main_slash	11	main_slash	35	stimuli_distractor_diamondtriangles.svg	stimuli_target_circletriangles.svg	13	yes	53	1	555
6.6.1	win	2022-12-14	14:21:29	14:32:30	659873	62cd8af88ff531583cbd24a9	128341728	1	main_slash	11	advance_on_keypress_SLASH	36	stimuli_distractor_diamondtriangles.svg	stimuli_target_circletriangles.svg	13	yes	57	0	441
6.6.1	win	2022-12-14	14:21:29	14:32:33	662943	62cd8af88ff531583cbd24a9	128341728	1	main_slash	11	main_slash	37	stimuli_distractor_trianglediamonds.svg	stimuli_distractor_trianglediamonds.svg	34	no	0	1	2000
6.6.1	win	2022-12-14	14:21:29	14:32:33	662943	62cd8af88ff531583cbd24a9	128341728	1	main_slash	11	advance_on_keypress_SLASH	38	stimuli_distractor_trianglediamonds.svg	stimuli_distractor_trianglediamonds.svg	34	no	57	0	422
6.6.1	win	2022-12-14	14:21:29	14:32:35	664489	62cd8af88ff531583cbd24a9	128341728	1	main_slash	11	main_slash	39	stimuli_target_trianglesquares.svg	stimuli_distractor_diamondtriangles.svg	22	yes	53	1	495
6.6.1	win	2022-12-14	14:21:29	14:32:35	664489	62cd8af88ff531583cbd24a9	128341728	1	main_slash	11	advance_on_keypress_SLASH	40	stimuli_target_trianglesquares.svg	stimuli_distractor_diamondtriangles.svg	22	yes	57	0	648
6.6.1	win	2022-12-14	14:21:29	14:32:37	666454	62cd8af88ff531583cbd24a9	128341728	1	main_slash	11	main_slash	41	stimuli_distractor_trianglediamonds.svg	stimuli_target_circletriangles.svg	9	yes	53	1	684
6.6.1	win	2022-12-14	14:21:29	14:32:37	666454	62cd8af88ff531583cbd24a9	128341728	1	main_slash	11	advance_on_keypress_SLASH	42	stimuli_distractor_trianglediamonds.svg	stimuli_target_circletriangles.svg	9	yes	57	0	635
6.6.1	win	2022-12-14	14:21:29	14:32:39	668702	62cd8af88ff531583cbd24a9	128341728	1	main_slash	11	main_slash	43	stimuli_target_diamondsquares.svg	stimuli_distractor_diamondtriangles.svg	24	yes	53	1	990
6.6.1	win	2022-12-14	14:21:29	14:32:39	668702	62cd8af88ff531583cbd24a9	128341728	1	main_slash	11	advance_on_keypress_SLASH	44	stimuli_target_diamondsquares.svg	stimuli_distractor_diamondtriangles.svg	24	yes	57	0	360
6.6.1	win	2022-12-14	14:21:29	14:32:42	671686	62cd8af88ff531583cbd24a9	128341728	1	main_slash	11	main_slash	45	stimuli_distractor_trianglediamonds.svg	stimuli_target_squarediamonds.svg	12	yes	0	0	2000
6.6.1	win	2022-12-14	14:21:29	14:32:42	671686	62cd8af88ff531583cbd24a9	128341728	1	main_slash	11	advance_on_keypress_SLASH	46	stimuli_distractor_trianglediamonds.svg	stimuli_target_squarediamonds.svg	12	yes	57	0	665
6.6.1	win	2022-12-14	14:21:29	14:32:45	674751	62cd8af88ff531583cbd24a9	128341728	1	main_slash	11	main_slash	47	stimuli_target_squaretriangles.svg	stimuli_distractor_trianglediamonds.svg	3	yes	53	1	1772
6.6.1	win	2022-12-14	14:21:29	14:32:45	674751	62cd8af88ff531583cbd24a9	128341728	1	main_slash	11	advance_on_keypress_SLASH	48	stimuli_target_squaretriangles.svg	stimuli_distractor_trianglediamonds.svg	3	yes	57	0	603
6.6.1	win	2022-12-14	14:21:29	14:32:47	676581	62cd8af88ff531583cbd24a9	128341728	1	main_slash	11	main_slash	49	stimuli_target_squarediamonds.svg	stimuli_distractor_diamondtriangles.svg	8	yes	53	1	594
6.6.1	win	2022-12-14	14:21:29	14:32:47	676581	62cd8af88ff531583cbd24a9	128341728	1	main_slash	11	advance_on_keypress_SLASH	50	stimuli_target_squarediamonds.svg	stimuli_distractor_diamondtriangles.svg	8	yes	57	0	522
6.6.1	win	2022-12-14	14:21:29	14:32:49	678576	62cd8af88ff531583cbd24a9	128341728	1	main_slash	11	main_slash	51	stimuli_target_squarediamonds.svg	stimuli_distractor_trianglediamonds.svg	4	yes	53	1	846
6.6.1	win	2022-12-14	14:21:29	14:32:49	678576	62cd8af88ff531583cbd24a9	128341728	1	main_slash	11	advance_on_keypress_SLASH	52	stimuli_target_squarediamonds.svg	stimuli_distractor_trianglediamonds.svg	4	yes	57	0	843
6.6.1	win	2022-12-14	14:21:29	14:32:52	680998	62cd8af88ff531583cbd24a9	128341728	1	main_slash	11	main_slash	53	stimuli_distractor_diamondtriangles.svg	stimuli_distractor_diamondtriangles.svg	40	no	53	0	951
6.6.1	win	2022-12-14	14:21:29	14:32:52	680998	62cd8af88ff531583cbd24a9	128341728	1	main_slash	11	advance_on_keypress_SLASH	54	stimuli_distractor_diamondtriangles.svg	stimuli_distractor_diamondtriangles.svg	40	no	57	0	729
6.6.1	win	2022-12-14	14:21:29	14:32:54	683414	62cd8af88ff531583cbd24a9	128341728	1	main_slash	11	main_slash	55	stimuli_distractor_diamondtriangles.svg	stimuli_target_squaretriangles.svg	15	yes	53	1	1067
6.6.1	win	2022-12-14	14:21:29	14:32:54	683414	62cd8af88ff531583cbd24a9	128341728	1	main_slash	11	advance_on_keypress_SLASH	56	stimuli_distractor_diamondtriangles.svg	stimuli_target_squaretriangles.svg	15	yes	57	0	456
6.6.1	win	2022-12-14	14:21:29	14:32:56	685824	62cd8af88ff531583cbd24a9	128341728	1	main_slash	11	main_slash	57	stimuli_target_trianglesquares.svg	stimuli_distractor_trianglediamonds.svg	18	yes	53	1	1327
6.6.1	win	2022-12-14	14:21:29	14:32:56	685824	62cd8af88ff531583cbd24a9	128341728	1	main_slash	11	advance_on_keypress_SLASH	58	stimuli_target_trianglesquares.svg	stimuli_distractor_trianglediamonds.svg	18	yes	57	0	447
6.6.1	win	2022-12-14	14:21:29	14:32:59	688350	62cd8af88ff531583cbd24a9	128341728	1	main_slash	11	main_slash	59	stimuli_distractor_trianglediamonds.svg	stimuli_target_circlediamonds.svg	10	yes	53	1	1452
6.6.1	win	2022-12-14	14:21:29	14:32:59	688350	62cd8af88ff531583cbd24a9	128341728	1	main_slash	11	advance_on_keypress_SLASH	60	stimuli_distractor_trianglediamonds.svg	stimuli_target_circlediamonds.svg	10	yes	57	0	493
6.6.1	win	2022-12-14	14:21:29	14:33:01	690398	62cd8af88ff531583cbd24a9	128341728	1	main_slash	11	main_slash	61	stimuli_distractor_trianglediamonds.svg	stimuli_target_diamondsquares.svg	28	yes	53	1	934
6.6.1	win	2022-12-14	14:21:29	14:33:01	690398	62cd8af88ff531583cbd24a9	128341728	1	main_slash	11	advance_on_keypress_SLASH	62	stimuli_distractor_trianglediamonds.svg	stimuli_target_diamondsquares.svg	28	yes	57	0	385
6.6.1	win	2022-12-14	14:21:29	14:33:03	692151	62cd8af88ff531583cbd24a9	128341728	1	main_slash	11	main_slash	63	stimuli_distractor_diamondtriangles.svg	stimuli_target_circlediamonds.svg	14	yes	53	1	744
6.6.1	win	2022-12-14	14:21:29	14:33:03	692151	62cd8af88ff531583cbd24a9	128341728	1	main_slash	11	advance_on_keypress_SLASH	64	stimuli_distractor_diamondtriangles.svg	stimuli_target_circlediamonds.svg	14	yes	57	0	332
6.6.1	win	2022-12-14	14:21:29	14:33:06	695107	62cd8af88ff531583cbd24a9	128341728	1	main_slash	11	main_slash	65	stimuli_distractor_diamondtriangles.svg	stimuli_target_diamondsquares.svg	32	yes	0	0	2000
6.6.1	win	2022-12-14	14:21:29	14:33:06	695107	62cd8af88ff531583cbd24a9	128341728	1	main_slash	11	advance_on_keypress_SLASH	66	stimuli_distractor_diamondtriangles.svg	stimuli_target_diamondsquares.svg	32	yes	57	0	459
6.6.1	win	2022-12-14	14:21:29	14:33:07	696822	62cd8af88ff531583cbd24a9	128341728	1	main_slash	11	main_slash	67	stimuli_target_diamondsquares.svg	stimuli_distractor_trianglediamonds.svg	20	yes	53	1	632
6.6.1	win	2022-12-14	14:21:29	14:33:07	696822	62cd8af88ff531583cbd24a9	128341728	1	main_slash	11	advance_on_keypress_SLASH	68	stimuli_target_diamondsquares.svg	stimuli_distractor_trianglediamonds.svg	20	yes	57	0	456
6.6.1	win	2022-12-14	14:21:29	14:33:09	698877	62cd8af88ff531583cbd24a9	128341728	1	main_slash	11	main_slash	69	stimuli_target_trianglecircles.svg	stimuli_distractor_diamondtriangles.svg	21	yes	53	1	970
6.6.1	win	2022-12-14	14:21:29	14:33:09	698877	62cd8af88ff531583cbd24a9	128341728	1	main_slash	11	advance_on_keypress_SLASH	70	stimuli_target_trianglecircles.svg	stimuli_distractor_diamondtriangles.svg	21	yes	57	0	611
6.6.1	win	2022-12-14	14:21:29	14:33:13	702108	62cd8af88ff531583cbd24a9	128341728	1	main_slash	11	main_slash	71	stimuli_target_squaretriangles.svg	stimuli_distractor_diamondtriangles.svg	7	yes	0	0	2000
6.6.1	win	2022-12-14	14:21:29	14:33:13	702108	62cd8af88ff531583cbd24a9	128341728	1	main_slash	11	advance_on_keypress_SLASH	72	stimuli_target_squaretriangles.svg	stimuli_distractor_diamondtriangles.svg	7	yes	57	0	457
6.6.1	win	2022-12-14	14:21:29	14:33:15	704830	62cd8af88ff531583cbd24a9	128341728	1	main_slash	11	main_slash	73	stimuli_distractor_trianglediamonds.svg	stimuli_target_squaretriangles.svg	11	yes	53	1	1638
6.6.1	win	2022-12-14	14:21:29	14:33:15	704830	62cd8af88ff531583cbd24a9	128341728	1	main_slash	11	advance_on_keypress_SLASH	74	stimuli_distractor_trianglediamonds.svg	stimuli_target_squaretriangles.svg	11	yes	57	0	621
6.6.1	win	2022-12-14	14:21:29	14:33:17	706767	62cd8af88ff531583cbd24a9	128341728	1	main_slash	11	main_slash	75	stimuli_distractor_trianglediamonds.svg	stimuli_target_diamondcircles.svg	27	yes	53	1	683
6.6.1	win	2022-12-14	14:21:29	14:33:17	706767	62cd8af88ff531583cbd24a9	128341728	1	main_slash	11	advance_on_keypress_SLASH	76	stimuli_distractor_trianglediamonds.svg	stimuli_target_diamondcircles.svg	27	yes	57	0	406
6.6.1	win	2022-12-14	14:21:29	14:33:20	709238	62cd8af88ff531583cbd24a9	128341728	1	main_slash	11	main_slash	77	stimuli_distractor_trianglediamonds.svg	stimuli_distractor_diamondtriangles.svg	36	no	53	0	1437
6.6.1	win	2022-12-14	14:21:29	14:33:20	709238	62cd8af88ff531583cbd24a9	128341728	1	main_slash	11	advance_on_keypress_SLASH	78	stimuli_distractor_trianglediamonds.svg	stimuli_distractor_diamondtriangles.svg	36	no	57	0	2555
6.6.1	win	2022-12-14	14:21:29	14:33:25	714418	62cd8af88ff531583cbd24a9	128341728	1	main_slash	11	main_slash	79	stimuli_distractor_diamondtriangles.svg	stimuli_distractor_trianglediamonds.svg	38	no	0	1	2000
6.6.1	win	2022-12-14	14:21:29	14:33:25	714418	62cd8af88ff531583cbd24a9	128341728	1	main_slash	11	advance_on_keypress_SLASH	80	stimuli_distractor_diamondtriangles.svg	stimuli_distractor_trianglediamonds.svg	38	no	57	0	587
6.6.1	win	2022-12-14	14:21:29	14:33:27	716185	62cd8af88ff531583cbd24a9	128341728	1	main_slash	11	main_slash	81	stimuli_distractor_trianglediamonds.svg	stimuli_target_circletriangles.svg	9	yes	53	1	550
6.6.1	win	2022-12-14	14:21:29	14:33:27	716185	62cd8af88ff531583cbd24a9	128341728	1	main_slash	11	advance_on_keypress_SLASH	82	stimuli_distractor_trianglediamonds.svg	stimuli_target_circletriangles.svg	9	yes	57	0	709
6.6.1	win	2022-12-14	14:21:29	14:33:30	719518	62cd8af88ff531583cbd24a9	128341728	1	main_slash	11	main_slash	83	stimuli_distractor_diamondtriangles.svg	stimuli_distractor_trianglediamonds.svg	37	no	0	1	2000
6.6.1	win	2022-12-14	14:21:29	14:33:30	719518	62cd8af88ff531583cbd24a9	128341728	1	main_slash	11	advance_on_keypress_SLASH	84	stimuli_distractor_diamondtriangles.svg	stimuli_distractor_trianglediamonds.svg	37	no	57	0	454
6.6.1	win	2022-12-14	14:21:29	14:33:33	722102	62cd8af88ff531583cbd24a9	128341728	1	main_slash	11	main_slash	85	stimuli_target_diamondsquares.svg	stimuli_distractor_trianglediamonds.svg	20	yes	53	1	1508
6.6.1	win	2022-12-14	14:21:29	14:33:33	722102	62cd8af88ff531583cbd24a9	128341728	1	main_slash	11	advance_on_keypress_SLASH	86	stimuli_target_diamondsquares.svg	stimuli_distractor_trianglediamonds.svg	20	yes	57	0	360
6.6.1	win	2022-12-14	14:21:29	14:33:35	723983	62cd8af88ff531583cbd24a9	128341728	1	main_slash	11	main_slash	87	stimuli_distractor_diamondtriangles.svg	stimuli_target_trianglesquares.svg	30	yes	53	1	897
6.6.1	win	2022-12-14	14:21:29	14:33:35	723983	62cd8af88ff531583cbd24a9	128341728	1	main_slash	11	advance_on_keypress_SLASH	88	stimuli_distractor_diamondtriangles.svg	stimuli_target_trianglesquares.svg	30	yes	57	0	413
6.6.1	win	2022-12-14	14:21:29	14:33:37	726088	62cd8af88ff531583cbd24a9	128341728	1	main_slash	11	main_slash	89	stimuli_target_diamondsquares.svg	stimuli_distractor_diamondtriangles.svg	24	yes	53	1	1060
6.6.1	win	2022-12-14	14:21:29	14:33:37	726088	62cd8af88ff531583cbd24a9	128341728	1	main_slash	11	advance_on_keypress_SLASH	90	stimuli_target_diamondsquares.svg	stimuli_distractor_diamondtriangles.svg	24	yes	57	0	591
6.6.1	win	2022-12-14	14:21:29	14:33:39	728294	62cd8af88ff531583cbd24a9	128341728	1	main_slash	11	main_slash	91	stimuli_distractor_trianglediamonds.svg	stimuli_target_diamondsquares.svg	28	yes	53	1	990
6.6.1	win	2022-12-14	14:21:29	14:33:39	728294	62cd8af88ff531583cbd24a9	128341728	1	main_slash	11	advance_on_keypress_SLASH	92	stimuli_distractor_trianglediamonds.svg	stimuli_target_diamondsquares.svg	28	yes	57	0	494
6.6.1	win	2022-12-14	14:21:29	14:33:42	731412	62cd8af88ff531583cbd24a9	128341728	1	main_slash	11	main_slash	93	stimuli_distractor_trianglediamonds.svg	stimuli_distractor_diamondtriangles.svg	36	no	0	1	2000
6.6.1	win	2022-12-14	14:21:29	14:33:42	731412	62cd8af88ff531583cbd24a9	128341728	1	main_slash	11	advance_on_keypress_SLASH	94	stimuli_distractor_trianglediamonds.svg	stimuli_distractor_diamondtriangles.svg	36	no	57	0	708
6.6.1	win	2022-12-14	14:21:29	14:33:45	734746	62cd8af88ff531583cbd24a9	128341728	1	main_slash	11	main_slash	95	stimuli_distractor_diamondtriangles.svg	stimuli_distractor_diamondtriangles.svg	39	no	0	1	2000
6.6.1	win	2022-12-14	14:21:29	14:33:45	734746	62cd8af88ff531583cbd24a9	128341728	1	main_slash	11	advance_on_keypress_SLASH	96	stimuli_distractor_diamondtriangles.svg	stimuli_distractor_diamondtriangles.svg	39	no	57	0	779
6.6.1	win	2022-12-14	14:21:29	14:33:47	736662	62cd8af88ff531583cbd24a9	128341728	1	main_slash	11	main_slash	97	stimuli_distractor_diamondtriangles.svg	stimuli_target_circlediamonds.svg	14	yes	53	1	516
6.6.1	win	2022-12-14	14:21:29	14:33:47	736662	62cd8af88ff531583cbd24a9	128341728	1	main_slash	11	advance_on_keypress_SLASH	98	stimuli_distractor_diamondtriangles.svg	stimuli_target_circlediamonds.svg	14	yes	57	0	535
6.6.1	win	2022-12-14	14:21:29	14:33:50	739357	62cd8af88ff531583cbd24a9	128341728	1	main_slash	11	main_slash	99	stimuli_distractor_trianglediamonds.svg	stimuli_distractor_diamondtriangles.svg	35	no	53	0	1536
6.6.1	win	2022-12-14	14:21:29	14:33:50	739357	62cd8af88ff531583cbd24a9	128341728	1	main_slash	11	advance_on_keypress_SLASH	100	stimuli_distractor_trianglediamonds.svg	stimuli_distractor_diamondtriangles.svg	35	no	57	0	988
6.6.1	win	2022-12-14	14:21:29	14:33:53	742566	62cd8af88ff531583cbd24a9	128341728	1	main_slash	11	main_slash	101	stimuli_distractor_trianglediamonds.svg	stimuli_distractor_trianglediamonds.svg	34	no	53	0	1594
6.6.1	win	2022-12-14	14:21:29	14:33:53	742566	62cd8af88ff531583cbd24a9	128341728	1	main_slash	11	advance_on_keypress_SLASH	102	stimuli_distractor_trianglediamonds.svg	stimuli_distractor_trianglediamonds.svg	34	no	57	0	571
6.6.1	win	2022-12-14	14:21:29	14:33:56	745184	62cd8af88ff531583cbd24a9	128341728	1	main_slash	11	main_slash	103	stimuli_distractor_trianglediamonds.svg	stimuli_target_squaretriangles.svg	11	yes	53	1	1421
6.6.1	win	2022-12-14	14:21:29	14:33:56	745184	62cd8af88ff531583cbd24a9	128341728	1	main_slash	11	advance_on_keypress_SLASH	104	stimuli_distractor_trianglediamonds.svg	stimuli_target_squaretriangles.svg	11	yes	57	0	424
6.6.1	win	2022-12-14	14:21:29	14:33:59	748231	62cd8af88ff531583cbd24a9	128341728	1	main_slash	11	main_slash	105	stimuli_target_circlediamonds.svg	stimuli_distractor_trianglediamonds.svg	2	yes	0	0	2000
6.6.1	win	2022-12-14	14:21:29	14:33:59	748231	62cd8af88ff531583cbd24a9	128341728	1	main_slash	11	advance_on_keypress_SLASH	106	stimuli_target_circlediamonds.svg	stimuli_distractor_trianglediamonds.svg	2	yes	57	0	15414
6.6.1	win	2022-12-14	14:21:29	14:34:16	765046	62cd8af88ff531583cbd24a9	128341728	1	main_slash	11	main_slash	107	stimuli_distractor_trianglediamonds.svg	stimuli_target_trianglesquares.svg	26	yes	53	1	779
6.6.1	win	2022-12-14	14:21:29	14:34:16	765046	62cd8af88ff531583cbd24a9	128341728	1	main_slash	11	advance_on_keypress_SLASH	108	stimuli_distractor_trianglediamonds.svg	stimuli_target_trianglesquares.svg	26	yes	57	0	588
6.6.1	win	2022-12-14	14:21:29	14:34:18	767191	62cd8af88ff531583cbd24a9	128341728	1	main_slash	11	main_slash	109	stimuli_distractor_diamondtriangles.svg	stimuli_distractor_trianglediamonds.svg	38	no	53	0	931
6.6.1	win	2022-12-14	14:21:29	14:34:18	767191	62cd8af88ff531583cbd24a9	128341728	1	main_slash	11	advance_on_keypress_SLASH	110	stimuli_distractor_diamondtriangles.svg	stimuli_distractor_trianglediamonds.svg	38	no	57	0	376
6.6.1	win	2022-12-14	14:21:29	14:34:20	769014	62cd8af88ff531583cbd24a9	128341728	1	main_slash	11	main_slash	111	stimuli_target_squaretriangles.svg	stimuli_distractor_trianglediamonds.svg	3	yes	53	1	821
6.6.1	win	2022-12-14	14:21:29	14:34:20	769014	62cd8af88ff531583cbd24a9	128341728	1	main_slash	11	advance_on_keypress_SLASH	112	stimuli_target_squaretriangles.svg	stimuli_distractor_trianglediamonds.svg	3	yes	57	0	331
6.6.1	win	2022-12-14	14:21:29	14:34:21	770639	62cd8af88ff531583cbd24a9	128341728	1	main_slash	11	main_slash	113	stimuli_target_squarediamonds.svg	stimuli_distractor_diamondtriangles.svg	8	yes	53	1	662
6.6.1	win	2022-12-14	14:21:29	14:34:21	770639	62cd8af88ff531583cbd24a9	128341728	1	main_slash	11	advance_on_keypress_SLASH	114	stimuli_target_squarediamonds.svg	stimuli_distractor_diamondtriangles.svg	8	yes	57	0	451
6.6.1	win	2022-12-14	14:21:29	14:34:23	772328	62cd8af88ff531583cbd24a9	128341728	1	main_slash	11	main_slash	115	stimuli_target_circletriangles.svg	stimuli_distractor_trianglediamonds.svg	1	yes	53	1	609
6.6.1	win	2022-12-14	14:21:29	14:34:23	772328	62cd8af88ff531583cbd24a9	128341728	1	main_slash	11	advance_on_keypress_SLASH	116	stimuli_target_circletriangles.svg	stimuli_distractor_trianglediamonds.svg	1	yes	57	0	439
6.6.1	win	2022-12-14	14:21:29	14:34:25	774417	62cd8af88ff531583cbd24a9	128341728	1	main_slash	11	main_slash	117	stimuli_distractor_diamondtriangles.svg	stimuli_target_trianglecircles.svg	29	yes	53	1	1023
6.6.1	win	2022-12-14	14:21:29	14:34:25	774417	62cd8af88ff531583cbd24a9	128341728	1	main_slash	11	advance_on_keypress_SLASH	118	stimuli_distractor_diamondtriangles.svg	stimuli_target_trianglecircles.svg	29	yes	57	0	515
6.6.1	win	2022-12-14	14:21:29	14:34:27	776318	62cd8af88ff531583cbd24a9	128341728	1	main_slash	11	main_slash	119	stimuli_distractor_diamondtriangles.svg	stimuli_target_squaretriangles.svg	15	yes	53	1	757
6.6.1	win	2022-12-14	14:21:29	14:34:27	776318	62cd8af88ff531583cbd24a9	128341728	1	main_slash	11	advance_on_keypress_SLASH	120	stimuli_distractor_diamondtriangles.svg	stimuli_target_squaretriangles.svg	15	yes	57	0	398
6.6.1	win	2022-12-14	14:21:29	14:34:29	778183	62cd8af88ff531583cbd24a9	128341728	1	main_slash	11	main_slash	121	stimuli_distractor_diamondtriangles.svg	stimuli_target_diamondcircles.svg	31	yes	53	1	839
6.6.1	win	2022-12-14	14:21:29	14:34:29	778183	62cd8af88ff531583cbd24a9	128341728	1	main_slash	11	advance_on_keypress_SLASH	122	stimuli_distractor_diamondtriangles.svg	stimuli_target_diamondcircles.svg	31	yes	57	0	411
6.6.1	win	2022-12-14	14:21:29	14:34:30	779870	62cd8af88ff531583cbd24a9	128341728	1	main_slash	11	main_slash	123	stimuli_distractor_trianglediamonds.svg	stimuli_target_circlediamonds.svg	10	yes	53	1	651
6.6.1	win	2022-12-14	14:21:29	14:34:30	779870	62cd8af88ff531583cbd24a9	128341728	1	main_slash	11	advance_on_keypress_SLASH	124	stimuli_distractor_trianglediamonds.svg	stimuli_target_circlediamonds.svg	10	yes	57	0	440
6.6.1	win	2022-12-14	14:21:29	14:34:32	781598	62cd8af88ff531583cbd24a9	128341728	1	main_slash	11	main_slash	125	stimuli_target_trianglecircles.svg	stimuli_distractor_diamondtriangles.svg	21	yes	53	1	661
6.6.1	win	2022-12-14	14:21:29	14:34:32	781598	62cd8af88ff531583cbd24a9	128341728	1	main_slash	11	advance_on_keypress_SLASH	126	stimuli_target_trianglecircles.svg	stimuli_distractor_diamondtriangles.svg	21	yes	57	0	515
6.6.1	win	2022-12-14	14:21:29	14:34:34	783606	62cd8af88ff531583cbd24a9	128341728	1	main_slash	11	main_slash	127	stimuli_distractor_diamondtriangles.svg	stimuli_target_diamondsquares.svg	32	yes	53	1	869
6.6.1	win	2022-12-14	14:21:29	14:34:34	783606	62cd8af88ff531583cbd24a9	128341728	1	main_slash	11	advance_on_keypress_SLASH	128	stimuli_distractor_diamondtriangles.svg	stimuli_target_diamondsquares.svg	32	yes	57	0	402
6.6.1	win	2022-12-14	14:21:29	14:34:37	786628	62cd8af88ff531583cbd24a9	128341728	1	main_slash	11	main_slash	129	stimuli_distractor_trianglediamonds.svg	stimuli_distractor_trianglediamonds.svg	33	no	0	1	2000
6.6.1	win	2022-12-14	14:21:29	14:34:37	786628	62cd8af88ff531583cbd24a9	128341728	1	main_slash	11	advance_on_keypress_SLASH	130	stimuli_distractor_trianglediamonds.svg	stimuli_distractor_trianglediamonds.svg	33	no	57	0	529
6.6.1	win	2022-12-14	14:21:29	14:34:40	789779	62cd8af88ff531583cbd24a9	128341728	1	main_slash	11	main_slash	131	stimuli_distractor_diamondtriangles.svg	stimuli_distractor_diamondtriangles.svg	40	no	0	1	2000
6.6.1	win	2022-12-14	14:21:29	14:34:40	789779	62cd8af88ff531583cbd24a9	128341728	1	main_slash	11	advance_on_keypress_SLASH	132	stimuli_distractor_diamondtriangles.svg	stimuli_distractor_diamondtriangles.svg	40	no	57	0	426
6.6.1	win	2022-12-14	14:21:29	14:34:42	791494	62cd8af88ff531583cbd24a9	128341728	1	main_slash	11	main_slash	133	stimuli_distractor_trianglediamonds.svg	stimuli_target_trianglecircles.svg	25	yes	53	1	664
6.6.1	win	2022-12-14	14:21:29	14:34:42	791494	62cd8af88ff531583cbd24a9	128341728	1	main_slash	11	advance_on_keypress_SLASH	134	stimuli_distractor_trianglediamonds.svg	stimuli_target_trianglecircles.svg	25	yes	57	0	376
6.6.1	win	2022-12-14	14:21:29	14:34:44	793598	62cd8af88ff531583cbd24a9	128341728	1	main_slash	11	main_slash	135	stimuli_target_circlediamonds.svg	stimuli_distractor_diamondtriangles.svg	6	yes	53	1	1102
6.6.1	win	2022-12-14	14:21:29	14:34:44	793598	62cd8af88ff531583cbd24a9	128341728	1	main_slash	11	advance_on_keypress_SLASH	136	stimuli_target_circlediamonds.svg	stimuli_distractor_diamondtriangles.svg	6	yes	57	0	531
6.6.1	win	2022-12-14	14:21:29	14:34:46	795382	62cd8af88ff531583cbd24a9	128341728	1	main_slash	11	main_slash	137	stimuli_target_trianglecircles.svg	stimuli_distractor_trianglediamonds.svg	17	yes	53	1	626
6.6.1	win	2022-12-14	14:21:29	14:34:46	795382	62cd8af88ff531583cbd24a9	128341728	1	main_slash	11	advance_on_keypress_SLASH	138	stimuli_target_trianglecircles.svg	stimuli_distractor_trianglediamonds.svg	17	yes	57	0	537
6.6.1	win	2022-12-14	14:21:29	14:34:48	797493	62cd8af88ff531583cbd24a9	128341728	1	main_slash	11	main_slash	139	stimuli_target_trianglesquares.svg	stimuli_distractor_diamondtriangles.svg	22	yes	53	1	955
6.6.1	win	2022-12-14	14:21:29	14:34:48	797493	62cd8af88ff531583cbd24a9	128341728	1	main_slash	11	advance_on_keypress_SLASH	140	stimuli_target_trianglesquares.svg	stimuli_distractor_diamondtriangles.svg	22	yes	57	0	620
6.6.1	win	2022-12-14	14:21:29	14:34:51	799957	62cd8af88ff531583cbd24a9	128341728	1	main_slash	11	main_slash	141	stimuli_distractor_diamondtriangles.svg	stimuli_target_squarediamonds.svg	16	yes	53	1	1219
6.6.1	win	2022-12-14	14:21:29	14:34:51	799957	62cd8af88ff531583cbd24a9	128341728	1	main_slash	11	advance_on_keypress_SLASH	142	stimuli_distractor_diamondtriangles.svg	stimuli_target_squarediamonds.svg	16	yes	57	0	514
6.6.1	win	2022-12-14	14:21:29	14:34:52	801741	62cd8af88ff531583cbd24a9	128341728	1	main_slash	11	main_slash	143	stimuli_target_squarediamonds.svg	stimuli_distractor_trianglediamonds.svg	4	yes	53	1	644
6.6.1	win	2022-12-14	14:21:29	14:34:52	801741	62cd8af88ff531583cbd24a9	128341728	1	main_slash	11	advance_on_keypress_SLASH	144	stimuli_target_squarediamonds.svg	stimuli_distractor_trianglediamonds.svg	4	yes	57	0	418
6.6.1	win	2022-12-14	14:21:29	14:34:54	803584	62cd8af88ff531583cbd24a9	128341728	1	main_slash	11	main_slash	145	stimuli_target_trianglesquares.svg	stimuli_distractor_trianglediamonds.svg	18	yes	53	1	804
6.6.1	win	2022-12-14	14:21:29	14:34:54	803584	62cd8af88ff531583cbd24a9	128341728	1	main_slash	11	advance_on_keypress_SLASH	146	stimuli_target_trianglesquares.svg	stimuli_distractor_trianglediamonds.svg	18	yes	57	0	440
6.6.1	win	2022-12-14	14:21:29	14:34:56	805293	62cd8af88ff531583cbd24a9	128341728	1	main_slash	11	main_slash	147	stimuli_distractor_diamondtriangles.svg	stimuli_target_circletriangles.svg	13	yes	53	1	646
6.6.1	win	2022-12-14	14:21:29	14:34:56	805293	62cd8af88ff531583cbd24a9	128341728	1	main_slash	11	advance_on_keypress_SLASH	148	stimuli_distractor_diamondtriangles.svg	stimuli_target_circletriangles.svg	13	yes	57	0	764
6.6.1	win	2022-12-14	14:21:29	14:34:58	807198	62cd8af88ff531583cbd24a9	128341728	1	main_slash	11	main_slash	149	stimuli_target_diamondcircles.svg	stimuli_distractor_diamondtriangles.svg	23	yes	53	1	516
6.6.1	win	2022-12-14	14:21:29	14:34:58	807198	62cd8af88ff531583cbd24a9	128341728	1	main_slash	11	advance_on_keypress_SLASH	150	stimuli_target_diamondcircles.svg	stimuli_distractor_diamondtriangles.svg	23	yes	57	0	1066
6.6.1	win	2022-12-14	14:21:29	14:35:00	809734	62cd8af88ff531583cbd24a9	128341728	1	main_slash	11	main_slash	151	stimuli_distractor_trianglediamonds.svg	stimuli_target_diamondcircles.svg	27	yes	53	1	843
6.6.1	win	2022-12-14	14:21:29	14:35:00	809734	62cd8af88ff531583cbd24a9	128341728	1	main_slash	11	advance_on_keypress_SLASH	152	stimuli_distractor_trianglediamonds.svg	stimuli_target_diamondcircles.svg	27	yes	57	0	394
6.6.1	win	2022-12-14	14:21:29	14:35:02	811502	62cd8af88ff531583cbd24a9	128341728	1	main_slash	11	main_slash	153	stimuli_target_circletriangles.svg	stimuli_distractor_diamondtriangles.svg	5	yes	53	1	753
6.6.1	win	2022-12-14	14:21:29	14:35:02	811502	62cd8af88ff531583cbd24a9	128341728	1	main_slash	11	advance_on_keypress_SLASH	154	stimuli_target_circletriangles.svg	stimuli_distractor_diamondtriangles.svg	5	yes	57	0	306
6.6.1	win	2022-12-14	14:21:29	14:35:04	813118	62cd8af88ff531583cbd24a9	128341728	1	main_slash	11	main_slash	155	stimuli_target_squaretriangles.svg	stimuli_distractor_diamondtriangles.svg	7	yes	53	1	685
6.6.1	win	2022-12-14	14:21:29	14:35:04	813118	62cd8af88ff531583cbd24a9	128341728	1	main_slash	11	advance_on_keypress_SLASH	156	stimuli_target_squaretriangles.svg	stimuli_distractor_diamondtriangles.svg	7	yes	57	0	418
6.6.1	win	2022-12-14	14:21:29	14:35:05	814869	62cd8af88ff531583cbd24a9	128341728	1	main_slash	11	main_slash	157	stimuli_target_diamondcircles.svg	stimuli_distractor_trianglediamonds.svg	19	yes	53	1	712
6.6.1	win	2022-12-14	14:21:29	14:35:05	814869	62cd8af88ff531583cbd24a9	128341728	1	main_slash	11	advance_on_keypress_SLASH	158	stimuli_target_diamondcircles.svg	stimuli_distractor_trianglediamonds.svg	19	yes	57	0	851
6.6.1	win	2022-12-14	14:21:29	14:35:07	816902	62cd8af88ff531583cbd24a9	128341728	1	main_slash	11	main_slash	159	stimuli_distractor_trianglediamonds.svg	stimuli_target_squarediamonds.svg	12	yes	53	1	561
6.6.1	win	2022-12-14	14:21:29	14:35:07	816902	62cd8af88ff531583cbd24a9	128341728	1	main_slash	11	advance_on_keypress_SLASH	160	stimuli_distractor_trianglediamonds.svg	stimuli_target_squarediamonds.svg	12	yes	57	0	362