build	computer.platform	date	time	timestamp	time_elapsed_ms	subject	group	session	blockcode	blocknum	trialcode	trialnum	stimulus_left	stimulus_right	stim_index	target_present	response	correct	latency
6.6.1	win	2022-12-14	14:19:36	14:30:03	625834	5d269fedf6dec40019b87a59	964238172	1	practice_z	5	practice_z	1	stimuli_target_diamondsquares.svg	stimuli_distractor_diamondtriangles.svg	3	yes	44	1	1216
6.6.1	win	2022-12-14	14:19:36	14:30:03	625834	5d269fedf6dec40019b87a59	964238172	1	practice_z	5	advance_on_keypress_ZEE	2	stimuli_target_diamondsquares.svg	stimuli_distractor_diamondtriangles.svg	3	yes	57	0	1657
6.6.1	win	2022-12-14	14:19:36	14:30:07	629835	5d269fedf6dec40019b87a59	964238172	1	practice_z	5	practice_z	3	stimuli_distractor_diamondtriangles.svg	stimuli_target_diamondcircles.svg	8	yes	44	1	713
6.6.1	win	2022-12-14	14:19:36	14:30:07	629835	5d269fedf6dec40019b87a59	964238172	1	practice_z	5	advance_on_keypress_ZEE	4	stimuli_distractor_diamondtriangles.svg	stimuli_target_diamondcircles.svg	8	yes	57	0	391
6.6.1	win	2022-12-14	14:19:36	14:30:09	632587	5d269fedf6dec40019b87a59	964238172	1	practice_z	5	practice_z	5	stimuli_distractor_trianglediamonds.svg	stimuli_target_squarediamonds.svg	11	yes	44	1	720
6.6.1	win	2022-12-14	14:19:36	14:30:09	632587	5d269fedf6dec40019b87a59	964238172	1	practice_z	5	advance_on_keypress_ZEE	6	stimuli_distractor_trianglediamonds.svg	stimuli_target_squarediamonds.svg	11	yes	57	0	599
6.6.1	win	2022-12-14	14:19:36	14:30:14	636807	5d269fedf6dec40019b87a59	964238172	1	practice_z	5	practice_z	7	stimuli_distractor_trianglediamonds.svg	stimuli_distractor_diamondtriangles.svg	16	no	0	1	2003
6.6.1	win	2022-12-14	14:19:36	14:30:14	636807	5d269fedf6dec40019b87a59	964238172	1	practice_z	5	advance_on_keypress_ZEE	8	stimuli_distractor_trianglediamonds.svg	stimuli_distractor_diamondtriangles.svg	16	no	57	0	7797
6.6.1	win	2022-12-14	14:19:36	14:30:25	648231	5d269fedf6dec40019b87a59	964238172	1	practice_z	5	practice_z	9	stimuli_distractor_trianglediamonds.svg	stimuli_distractor_trianglediamonds.svg	15	no	0	1	2003
6.6.1	win	2022-12-14	14:19:36	14:30:25	648231	5d269fedf6dec40019b87a59	964238172	1	practice_z	5	advance_on_keypress_ZEE	10	stimuli_distractor_trianglediamonds.svg	stimuli_distractor_trianglediamonds.svg	15	no	57	0	302
6.6.1	win	2022-12-14	14:19:36	14:30:29	651955	5d269fedf6dec40019b87a59	964238172	1	practice_z	5	practice_z	11	stimuli_distractor_diamondtriangles.svg	stimuli_distractor_trianglediamonds.svg	14	no	44	0	1800
6.6.1	win	2022-12-14	14:19:36	14:30:29	651955	5d269fedf6dec40019b87a59	964238172	1	practice_z	5	advance_on_keypress_ZEE	12	stimuli_distractor_diamondtriangles.svg	stimuli_distractor_trianglediamonds.svg	14	no	57	0	385
6.6.1	win	2022-12-14	14:19:36	14:30:31	654715	5d269fedf6dec40019b87a59	964238172	1	practice_z	5	practice_z	13	stimuli_distractor_trianglediamonds.svg	stimuli_target_diamondcircles.svg	12	yes	44	1	752
6.6.1	win	2022-12-14	14:19:36	14:30:31	654715	5d269fedf6dec40019b87a59	964238172	1	practice_z	5	advance_on_keypress_ZEE	14	stimuli_distractor_trianglediamonds.svg	stimuli_target_diamondcircles.svg	12	yes	57	0	362
6.6.1	win	2022-12-14	14:19:36	14:30:34	657418	5d269fedf6dec40019b87a59	964238172	1	practice_z	5	practice_z	15	stimuli_target_squarediamonds.svg	stimuli_distractor_trianglediamonds.svg	5	yes	44	1	726
6.6.1	win	2022-12-14	14:19:36	14:30:34	657418	5d269fedf6dec40019b87a59	964238172	1	practice_z	5	advance_on_keypress_ZEE	16	stimuli_target_squarediamonds.svg	stimuli_distractor_trianglediamonds.svg	5	yes	57	0	203
6.6.1	win	2022-12-14	14:19:36	14:30:37	659875	5d269fedf6dec40019b87a59	964238172	1	practice_z	5	practice_z	17	stimuli_distractor_trianglediamonds.svg	stimuli_target_circlediamonds.svg	10	yes	44	1	631
6.6.1	win	2022-12-14	14:19:36	14:30:37	659875	5d269fedf6dec40019b87a59	964238172	1	practice_z	5	advance_on_keypress_ZEE	18	stimuli_distractor_trianglediamonds.svg	stimuli_target_circlediamonds.svg	10	yes	57	0	239
6.6.1	win	2022-12-14	14:19:36	14:30:39	662474	5d269fedf6dec40019b87a59	964238172	1	practice_z	5	practice_z	19	stimuli_target_circlediamonds.svg	stimuli_distractor_diamondtriangles.svg	1	yes	44	1	737
6.6.1	win	2022-12-14	14:19:36	14:30:39	662474	5d269fedf6dec40019b87a59	964238172	1	practice_z	5	advance_on_keypress_ZEE	20	stimuli_target_circlediamonds.svg	stimuli_distractor_diamondtriangles.svg	1	yes	57	0	240
6.6.1	win	2022-12-14	14:19:36	14:30:42	665019	5d269fedf6dec40019b87a59	964238172	1	practice_z	5	practice_z	21	stimuli_target_squarediamonds.svg	stimuli_distractor_diamondtriangles.svg	2	yes	44	1	674
6.6.1	win	2022-12-14	14:19:36	14:30:42	665019	5d269fedf6dec40019b87a59	964238172	1	practice_z	5	advance_on_keypress_ZEE	22	stimuli_target_squarediamonds.svg	stimuli_distractor_diamondtriangles.svg	2	yes	57	0	433
6.6.1	win	2022-12-14	14:19:36	14:30:46	669085	5d269fedf6dec40019b87a59	964238172	1	practice_z	5	practice_z	23	stimuli_distractor_diamondtriangles.svg	stimuli_distractor_diamondtriangles.svg	13	no	0	1	2003
6.6.1	win	2022-12-14	14:19:36	14:30:46	669085	5d269fedf6dec40019b87a59	964238172	1	practice_z	5	advance_on_keypress_ZEE	24	stimuli_distractor_diamondtriangles.svg	stimuli_distractor_diamondtriangles.svg	13	no	57	0	240
6.6.1	win	2022-12-14	14:19:36	14:30:48	671555	5d269fedf6dec40019b87a59	964238172	1	practice_z	5	practice_z	25	stimuli_distractor_diamondtriangles.svg	stimuli_target_circletriangles.svg	7	yes	44	1	610
6.6.1	win	2022-12-14	14:19:36	14:30:48	671555	5d269fedf6dec40019b87a59	964238172	1	practice_z	5	advance_on_keypress_ZEE	26	stimuli_distractor_diamondtriangles.svg	stimuli_target_circletriangles.svg	7	yes	57	0	382
6.6.1	win	2022-12-14	14:19:36	14:30:51	674139	5d269fedf6dec40019b87a59	964238172	1	practice_z	5	practice_z	27	stimuli_target_circlediamonds.svg	stimuli_distractor_trianglediamonds.svg	4	yes	44	1	581
6.6.1	win	2022-12-14	14:19:36	14:30:51	674139	5d269fedf6dec40019b87a59	964238172	1	practice_z	5	advance_on_keypress_ZEE	28	stimuli_target_circlediamonds.svg	stimuli_distractor_trianglediamonds.svg	4	yes	57	0	318
6.6.1	win	2022-12-14	14:19:36	14:30:53	676738	5d269fedf6dec40019b87a59	964238172	1	practice_z	5	practice_z	29	stimuli_target_diamondsquares.svg	stimuli_distractor_trianglediamonds.svg	6	yes	44	1	659
6.6.1	win	2022-12-14	14:19:36	14:30:53	676738	5d269fedf6dec40019b87a59	964238172	1	practice_z	5	advance_on_keypress_ZEE	30	stimuli_target_diamondsquares.svg	stimuli_distractor_trianglediamonds.svg	6	yes	57	0	199
6.6.1	win	2022-12-14	14:19:36	14:30:56	679155	5d269fedf6dec40019b87a59	964238172	1	practice_z	5	practice_z	31	stimuli_distractor_diamondtriangles.svg	stimuli_target_trianglecircles.svg	9	yes	44	1	595
6.6.1	win	2022-12-14	14:19:36	14:30:56	679155	5d269fedf6dec40019b87a59	964238172	1	practice_z	5	advance_on_keypress_ZEE	32	stimuli_distractor_diamondtriangles.svg	stimuli_target_trianglecircles.svg	9	yes	57	0	381
6.6.1	win	2022-12-14	14:19:36	14:31:29	712210	5d269fedf6dec40019b87a59	964238172	1	main_z	7	main_z	1	stimuli_distractor_diamondtriangles.svg	stimuli_distractor_diamondtriangles.svg	39	no	0	1	2003
6.6.1	win	2022-12-14	14:19:36	14:31:29	712210	5d269fedf6dec40019b87a59	964238172	1	main_z	7	advance_on_keypress_ZEE	2	stimuli_distractor_diamondtriangles.svg	stimuli_distractor_diamondtriangles.svg	39	no	57	0	542
6.6.1	win	2022-12-14	14:19:36	14:31:32	714822	5d269fedf6dec40019b87a59	964238172	1	main_z	7	main_z	3	stimuli_distractor_trianglediamonds.svg	stimuli_distractor_trianglediamonds.svg	34	no	44	0	1431
6.6.1	win	2022-12-14	14:19:36	14:31:32	714822	5d269fedf6dec40019b87a59	964238172	1	main_z	7	advance_on_keypress_ZEE	4	stimuli_distractor_trianglediamonds.svg	stimuli_distractor_trianglediamonds.svg	34	no	57	0	560
6.6.1	win	2022-12-14	14:19:36	14:31:35	718016	5d269fedf6dec40019b87a59	964238172	1	main_z	7	main_z	5	stimuli_distractor_diamondtriangles.svg	stimuli_distractor_diamondtriangles.svg	40	no	0	1	2003
6.6.1	win	2022-12-14	14:19:36	14:31:35	718016	5d269fedf6dec40019b87a59	964238172	1	main_z	7	advance_on_keypress_ZEE	6	stimuli_distractor_diamondtriangles.svg	stimuli_distractor_diamondtriangles.svg	40	no	57	0	364
6.6.1	win	2022-12-14	14:19:36	14:31:36	719617	5d269fedf6dec40019b87a59	964238172	1	main_z	7	main_z	7	stimuli_target_diamondcircles.svg	stimuli_distractor_trianglediamonds.svg	19	yes	44	1	623
6.6.1	win	2022-12-14	14:19:36	14:31:36	719617	5d269fedf6dec40019b87a59	964238172	1	main_z	7	advance_on_keypress_ZEE	8	stimuli_target_diamondcircles.svg	stimuli_distractor_trianglediamonds.svg	19	yes	57	0	487
6.6.1	win	2022-12-14	14:19:36	14:31:38	721450	5d269fedf6dec40019b87a59	964238172	1	main_z	7	main_z	9	stimuli_distractor_diamondtriangles.svg	stimuli_target_circletriangles.svg	13	yes	44	1	725
6.6.1	win	2022-12-14	14:19:36	14:31:38	721450	5d269fedf6dec40019b87a59	964238172	1	main_z	7	advance_on_keypress_ZEE	10	stimuli_distractor_diamondtriangles.svg	stimuli_target_circletriangles.svg	13	yes	57	0	275
6.6.1	win	2022-12-14	14:19:36	14:31:40	723002	5d269fedf6dec40019b87a59	964238172	1	main_z	7	main_z	11	stimuli_distractor_diamondtriangles.svg	stimuli_target_trianglecircles.svg	29	yes	44	1	665
6.6.1	win	2022-12-14	14:19:36	14:31:40	723002	5d269fedf6dec40019b87a59	964238172	1	main_z	7	advance_on_keypress_ZEE	12	stimuli_distractor_diamondtriangles.svg	stimuli_target_trianglecircles.svg	29	yes	57	0	167
6.6.1	win	2022-12-14	14:19:36	14:31:41	724466	5d269fedf6dec40019b87a59	964238172	1	main_z	7	main_z	13	stimuli_target_trianglecircles.svg	stimuli_distractor_diamondtriangles.svg	21	yes	44	1	677
6.6.1	win	2022-12-14	14:19:36	14:31:41	724466	5d269fedf6dec40019b87a59	964238172	1	main_z	7	advance_on_keypress_ZEE	14	stimuli_target_trianglecircles.svg	stimuli_distractor_diamondtriangles.svg	21	yes	57	0	139
6.6.1	win	2022-12-14	14:19:36	14:31:43	725882	5d269fedf6dec40019b87a59	964238172	1	main_z	7	main_z	15	stimuli_target_squarediamonds.svg	stimuli_distractor_diamondtriangles.svg	8	yes	44	1	661
6.6.1	win	2022-12-14	14:19:36	14:31:43	725882	5d269fedf6dec40019b87a59	964238172	1	main_z	7	advance_on_keypress_ZEE	16	stimuli_target_squarediamonds.svg	stimuli_distractor_diamondtriangles.svg	8	yes	57	0	130
6.6.1	win	2022-12-14	14:19:36	14:31:44	727354	5d269fedf6dec40019b87a59	964238172	1	main_z	7	main_z	17	stimuli_distractor_trianglediamonds.svg	stimuli_target_diamondsquares.svg	28	yes	44	1	716
6.6.1	win	2022-12-14	14:19:36	14:31:44	727354	5d269fedf6dec40019b87a59	964238172	1	main_z	7	advance_on_keypress_ZEE	18	stimuli_distractor_trianglediamonds.svg	stimuli_target_diamondsquares.svg	28	yes	57	0	153
6.6.1	win	2022-12-14	14:19:36	14:31:46	728818	5d269fedf6dec40019b87a59	964238172	1	main_z	7	main_z	19	stimuli_distractor_trianglediamonds.svg	stimuli_target_circletriangles.svg	9	yes	44	1	693
6.6.1	win	2022-12-14	14:19:36	14:31:46	728818	5d269fedf6dec40019b87a59	964238172	1	main_z	7	advance_on_keypress_ZEE	20	stimuli_distractor_trianglediamonds.svg	stimuli_target_circletriangles.svg	9	yes	57	0	135
6.6.1	win	2022-12-14	14:19:36	14:31:47	730274	5d269fedf6dec40019b87a59	964238172	1	main_z	7	main_z	21	stimuli_distractor_diamondtriangles.svg	stimuli_target_diamondsquares.svg	32	yes	44	1	703
6.6.1	win	2022-12-14	14:19:36	14:31:47	730274	5d269fedf6dec40019b87a59	964238172	1	main_z	7	advance_on_keypress_ZEE	22	stimuli_distractor_diamondtriangles.svg	stimuli_target_diamondsquares.svg	32	yes	57	0	130
6.6.1	win	2022-12-14	14:19:36	14:31:48	731762	5d269fedf6dec40019b87a59	964238172	1	main_z	7	main_z	23	stimuli_target_trianglesquares.svg	stimuli_distractor_diamondtriangles.svg	22	yes	44	1	724
6.6.1	win	2022-12-14	14:19:36	14:31:48	731762	5d269fedf6dec40019b87a59	964238172	1	main_z	7	advance_on_keypress_ZEE	24	stimuli_target_trianglesquares.svg	stimuli_distractor_diamondtriangles.svg	22	yes	57	0	139
6.6.1	win	2022-12-14	14:19:36	14:31:50	733210	5d269fedf6dec40019b87a59	964238172	1	main_z	7	main_z	25	stimuli_target_trianglesquares.svg	stimuli_distractor_trianglediamonds.svg	18	yes	44	1	693
6.6.1	win	2022-12-14	14:19:36	14:31:50	733210	5d269fedf6dec40019b87a59	964238172	1	main_z	7	advance_on_keypress_ZEE	26	stimuli_target_trianglesquares.svg	stimuli_distractor_trianglediamonds.svg	18	yes	57	0	135
6.6.1	win	2022-12-14	14:19:36	14:31:51	734682	5d269fedf6dec40019b87a59	964238172	1	main_z	7	main_z	27	stimuli_target_trianglecircles.svg	stimuli_distractor_trianglediamonds.svg	17	yes	44	1	720
6.6.1	win	2022-12-14	14:19:36	14:31:51	734682	5d269fedf6dec40019b87a59	964238172	1	main_z	7	advance_on_keypress_ZEE	28	stimuli_target_trianglecircles.svg	stimuli_distractor_trianglediamonds.svg	17	yes	57	0	117
6.6.1	win	2022-12-14	14:19:36	14:31:53	736090	5d269fedf6dec40019b87a59	964238172	1	main_z	7	main_z	29	stimuli_distractor_diamondtriangles.svg	stimuli_target_diamondcircles.svg	31	yes	44	1	676
6.6.1	win	2022-12-14	14:19:36	14:31:53	736090	5d269fedf6dec40019b87a59	964238172	1	main_z	7	advance_on_keypress_ZEE	30	stimuli_distractor_diamondtriangles.svg	stimuli_target_diamondcircles.svg	31	yes	57	0	162
6.6.1	win	2022-12-14	14:19:36	14:31:54	737638	5d269fedf6dec40019b87a59	964238172	1	main_z	7	main_z	31	stimuli_target_squaretriangles.svg	stimuli_distractor_diamondtriangles.svg	7	yes	44	1	738
6.6.1	win	2022-12-14	14:19:36	14:31:54	737638	5d269fedf6dec40019b87a59	964238172	1	main_z	7	advance_on_keypress_ZEE	32	stimuli_target_squaretriangles.svg	stimuli_distractor_diamondtriangles.svg	7	yes	57	0	141
6.6.1	win	2022-12-14	14:19:36	14:31:56	739099	5d269fedf6dec40019b87a59	964238172	1	main_z	7	main_z	33	stimuli_target_squarediamonds.svg	stimuli_distractor_trianglediamonds.svg	4	yes	44	1	687
6.6.1	win	2022-12-14	14:19:36	14:31:56	739099	5d269fedf6dec40019b87a59	964238172	1	main_z	7	advance_on_keypress_ZEE	34	stimuli_target_squarediamonds.svg	stimuli_distractor_trianglediamonds.svg	4	yes	57	0	154
6.6.1	win	2022-12-14	14:19:36	14:31:59	741879	5d269fedf6dec40019b87a59	964238172	1	main_z	7	main_z	35	stimuli_distractor_diamondtriangles.svg	stimuli_distractor_trianglediamonds.svg	37	no	0	1	2003
6.6.1	win	2022-12-14	14:19:36	14:31:59	741879	5d269fedf6dec40019b87a59	964238172	1	main_z	7	advance_on_keypress_ZEE	36	stimuli_distractor_diamondtriangles.svg	stimuli_distractor_trianglediamonds.svg	37	no	57	0	518
6.6.1	win	2022-12-14	14:19:36	14:32:00	743791	5d269fedf6dec40019b87a59	964238172	1	main_z	7	main_z	37	stimuli_distractor_diamondtriangles.svg	stimuli_target_circlediamonds.svg	14	yes	44	1	760
6.6.1	win	2022-12-14	14:19:36	14:32:00	743791	5d269fedf6dec40019b87a59	964238172	1	main_z	7	advance_on_keypress_ZEE	38	stimuli_distractor_diamondtriangles.svg	stimuli_target_circlediamonds.svg	14	yes	57	0	135
6.6.1	win	2022-12-14	14:19:36	14:32:02	745298	5d269fedf6dec40019b87a59	964238172	1	main_z	7	main_z	39	stimuli_distractor_diamondtriangles.svg	stimuli_target_squaretriangles.svg	15	yes	44	1	753
6.6.1	win	2022-12-14	14:19:36	14:32:02	745298	5d269fedf6dec40019b87a59	964238172	1	main_z	7	advance_on_keypress_ZEE	40	stimuli_distractor_diamondtriangles.svg	stimuli_target_squaretriangles.svg	15	yes	57	0	139
6.6.1	win	2022-12-14	14:19:36	14:32:05	748055	5d269fedf6dec40019b87a59	964238172	1	main_z	7	main_z	41	stimuli_distractor_trianglediamonds.svg	stimuli_distractor_diamondtriangles.svg	36	no	0	1	2003
6.6.1	win	2022-12-14	14:19:36	14:32:05	748055	5d269fedf6dec40019b87a59	964238172	1	main_z	7	advance_on_keypress_ZEE	42	stimuli_distractor_trianglediamonds.svg	stimuli_distractor_diamondtriangles.svg	36	no	57	0	261
6.6.1	win	2022-12-14	14:19:36	14:32:06	749570	5d269fedf6dec40019b87a59	964238172	1	main_z	7	main_z	43	stimuli_distractor_trianglediamonds.svg	stimuli_target_squarediamonds.svg	12	yes	44	1	641
6.6.1	win	2022-12-14	14:19:36	14:32:06	749570	5d269fedf6dec40019b87a59	964238172	1	main_z	7	advance_on_keypress_ZEE	44	stimuli_distractor_trianglediamonds.svg	stimuli_target_squarediamonds.svg	12	yes	57	0	138
6.6.1	win	2022-12-14	14:19:36	14:32:08	751042	5d269fedf6dec40019b87a59	964238172	1	main_z	7	main_z	45	stimuli_target_circlediamonds.svg	stimuli_distractor_diamondtriangles.svg	6	yes	44	1	717
6.6.1	win	2022-12-14	14:19:36	14:32:08	751042	5d269fedf6dec40019b87a59	964238172	1	main_z	7	advance_on_keypress_ZEE	46	stimuli_target_circlediamonds.svg	stimuli_distractor_diamondtriangles.svg	6	yes	57	0	137
6.6.1	win	2022-12-14	14:19:36	14:32:09	752474	5d269fedf6dec40019b87a59	964238172	1	main_z	7	main_z	47	stimuli_distractor_trianglediamonds.svg	stimuli_target_diamondcircles.svg	27	yes	44	1	675
6.6.1	win	2022-12-14	14:19:36	14:32:09	752474	5d269fedf6dec40019b87a59	964238172	1	main_z	7	advance_on_keypress_ZEE	48	stimuli_distractor_trianglediamonds.svg	stimuli_target_diamondcircles.svg	27	yes	57	0	129
6.6.1	win	2022-12-14	14:19:36	14:32:11	753985	5d269fedf6dec40019b87a59	964238172	1	main_z	7	main_z	49	stimuli_target_diamondsquares.svg	stimuli_distractor_trianglediamonds.svg	20	yes	44	1	762
6.6.1	win	2022-12-14	14:19:36	14:32:11	753985	5d269fedf6dec40019b87a59	964238172	1	main_z	7	advance_on_keypress_ZEE	50	stimuli_target_diamondsquares.svg	stimuli_distractor_trianglediamonds.svg	20	yes	57	0	127
6.6.1	win	2022-12-14	14:19:36	14:32:12	755451	5d269fedf6dec40019b87a59	964238172	1	main_z	7	main_z	51	stimuli_target_circletriangles.svg	stimuli_distractor_diamondtriangles.svg	5	yes	44	1	716
6.6.1	win	2022-12-14	14:19:36	14:32:12	755451	5d269fedf6dec40019b87a59	964238172	1	main_z	7	advance_on_keypress_ZEE	52	stimuli_target_circletriangles.svg	stimuli_distractor_diamondtriangles.svg	5	yes	57	0	163
6.6.1	win	2022-12-14	14:19:36	14:32:14	756946	5d269fedf6dec40019b87a59	964238172	1	main_z	7	main_z	53	stimuli_distractor_trianglediamonds.svg	stimuli_target_trianglesquares.svg	26	yes	44	1	720
6.6.1	win	2022-12-14	14:19:36	14:32:14	756946	5d269fedf6dec40019b87a59	964238172	1	main_z	7	advance_on_keypress_ZEE	54	stimuli_distractor_trianglediamonds.svg	stimuli_target_trianglesquares.svg	26	yes	57	0	150
6.6.1	win	2022-12-14	14:19:36	14:32:15	758329	5d269fedf6dec40019b87a59	964238172	1	main_z	7	main_z	55	stimuli_distractor_trianglediamonds.svg	stimuli_target_circlediamonds.svg	10	yes	44	1	610
6.6.1	win	2022-12-14	14:19:36	14:32:15	758329	5d269fedf6dec40019b87a59	964238172	1	main_z	7	advance_on_keypress_ZEE	56	stimuli_distractor_trianglediamonds.svg	stimuli_target_circlediamonds.svg	10	yes	57	0	136
6.6.1	win	2022-12-14	14:19:36	14:32:16	759762	5d269fedf6dec40019b87a59	964238172	1	main_z	7	main_z	57	stimuli_target_circlediamonds.svg	stimuli_distractor_trianglediamonds.svg	2	yes	44	1	680
6.6.1	win	2022-12-14	14:19:36	14:32:16	759762	5d269fedf6dec40019b87a59	964238172	1	main_z	7	advance_on_keypress_ZEE	58	stimuli_target_circlediamonds.svg	stimuli_distractor_trianglediamonds.svg	2	yes	57	0	112
6.6.1	win	2022-12-14	14:19:36	14:32:18	761191	5d269fedf6dec40019b87a59	964238172	1	main_z	7	main_z	59	stimuli_distractor_trianglediamonds.svg	stimuli_target_trianglecircles.svg	25	yes	44	1	686
6.6.1	win	2022-12-14	14:19:36	14:32:18	761191	5d269fedf6dec40019b87a59	964238172	1	main_z	7	advance_on_keypress_ZEE	60	stimuli_distractor_trianglediamonds.svg	stimuli_target_trianglecircles.svg	25	yes	57	0	104
6.6.1	win	2022-12-14	14:19:36	14:32:19	762567	5d269fedf6dec40019b87a59	964238172	1	main_z	7	main_z	61	stimuli_distractor_diamondtriangles.svg	stimuli_target_squarediamonds.svg	16	yes	44	1	648
6.6.1	win	2022-12-14	14:19:36	14:32:19	762567	5d269fedf6dec40019b87a59	964238172	1	main_z	7	advance_on_keypress_ZEE	62	stimuli_distractor_diamondtriangles.svg	stimuli_target_squarediamonds.svg	16	yes	57	0	106
6.6.1	win	2022-12-14	14:19:36	14:32:21	764076	5d269fedf6dec40019b87a59	964238172	1	main_z	7	main_z	63	stimuli_target_squaretriangles.svg	stimuli_distractor_trianglediamonds.svg	3	yes	44	1	763
6.6.1	win	2022-12-14	14:19:36	14:32:21	764076	5d269fedf6dec40019b87a59	964238172	1	main_z	7	advance_on_keypress_ZEE	64	stimuli_target_squaretriangles.svg	stimuli_distractor_trianglediamonds.svg	3	yes	57	0	133
6.6.1	win	2022-12-14	14:19:36	14:32:22	765505	5d269fedf6dec40019b87a59	964238172	1	main_z	7	main_z	65	stimuli_target_diamondcircles.svg	stimuli_distractor_diamondtriangles.svg	23	yes	44	1	664
6.6.1	win	2022-12-14	14:19:36	14:32:22	765505	5d269fedf6dec40019b87a59	964238172	1	main_z	7	advance_on_keypress_ZEE	66	stimuli_target_diamondcircles.svg	stimuli_distractor_diamondtriangles.svg	23	yes	57	0	117
6.6.1	win	2022-12-14	14:19:36	14:32:24	766954	5d269fedf6dec40019b87a59	964238172	1	main_z	7	main_z	67	stimuli_distractor_diamondtriangles.svg	stimuli_target_trianglesquares.svg	30	yes	44	1	715
6.6.1	win	2022-12-14	14:19:36	14:32:24	766954	5d269fedf6dec40019b87a59	964238172	1	main_z	7	advance_on_keypress_ZEE	68	stimuli_distractor_diamondtriangles.svg	stimuli_target_trianglesquares.svg	30	yes	57	0	96
6.6.1	win	2022-12-14	14:19:36	14:32:25	768370	5d269fedf6dec40019b87a59	964238172	1	main_z	7	main_z	69	stimuli_target_circletriangles.svg	stimuli_distractor_trianglediamonds.svg	1	yes	44	1	700
6.6.1	win	2022-12-14	14:19:36	14:32:25	768370	5d269fedf6dec40019b87a59	964238172	1	main_z	7	advance_on_keypress_ZEE	70	stimuli_target_circletriangles.svg	stimuli_distractor_trianglediamonds.svg	1	yes	57	0	71
6.6.1	win	2022-12-14	14:19:36	14:32:27	769818	5d269fedf6dec40019b87a59	964238172	1	main_z	7	main_z	71	stimuli_distractor_trianglediamonds.svg	stimuli_target_squaretriangles.svg	11	yes	44	1	758
6.6.1	win	2022-12-14	14:19:36	14:32:27	769818	5d269fedf6dec40019b87a59	964238172	1	main_z	7	advance_on_keypress_ZEE	72	stimuli_distractor_trianglediamonds.svg	stimuli_target_squaretriangles.svg	11	yes	57	0	74
6.6.1	win	2022-12-14	14:19:36	14:32:29	772520	5d269fedf6dec40019b87a59	964238172	1	main_z	7	main_z	73	stimuli_distractor_trianglediamonds.svg	stimuli_distractor_trianglediamonds.svg	33	no	0	1	2003
6.6.1	win	2022-12-14	14:19:36	14:32:29	772520	5d269fedf6dec40019b87a59	964238172	1	main_z	7	advance_on_keypress_ZEE	74	stimuli_distractor_trianglediamonds.svg	stimuli_distractor_trianglediamonds.svg	33	no	57	0	227
6.6.1	win	2022-12-14	14:19:36	14:32:31	774210	5d269fedf6dec40019b87a59	964238172	1	main_z	7	main_z	75	stimuli_distractor_diamondtriangles.svg	stimuli_distractor_trianglediamonds.svg	38	no	44	0	843
6.6.1	win	2022-12-14	14:19:36	14:32:31	774210	5d269fedf6dec40019b87a59	964238172	1	main_z	7	advance_on_keypress_ZEE	76	stimuli_distractor_diamondtriangles.svg	stimuli_distractor_trianglediamonds.svg	38	no	57	0	114
6.6.1	win	2022-12-14	14:19:36	14:32:34	776941	5d269fedf6dec40019b87a59	964238172	1	main_z	7	main_z	77	stimuli_distractor_trianglediamonds.svg	stimuli_distractor_diamondtriangles.svg	35	no	0	1	2003
6.6.1	win	2022-12-14	14:19:36	14:32:34	776941	5d269fedf6dec40019b87a59	964238172	1	main_z	7	advance_on_keypress_ZEE	78	stimuli_distractor_trianglediamonds.svg	stimuli_distractor_diamondtriangles.svg	35	no	57	0	199
6.6.1	win	2022-12-14	14:19:36	14:32:35	778482	5d269fedf6dec40019b87a59	964238172	1	main_z	7	main_z	79	stimuli_target_diamondsquares.svg	stimuli_distractor_diamondtriangles.svg	24	yes	44	1	721
6.6.1	win	2022-12-14	14:19:36	14:32:35	778482	5d269fedf6dec40019b87a59	964238172	1	main_z	7	advance_on_keypress_ZEE	80	stimuli_target_diamondsquares.svg	stimuli_distractor_diamondtriangles.svg	24	yes	57	0	113
6.6.1	win	2022-12-14	14:19:36	14:32:37	779866	5d269fedf6dec40019b87a59	964238172	1	main_z	7	main_z	81	stimuli_target_trianglecircles.svg	stimuli_distractor_diamondtriangles.svg	21	yes	44	1	654
6.6.1	win	2022-12-14	14:19:36	14:32:37	779866	5d269fedf6dec40019b87a59	964238172	1	main_z	7	advance_on_keypress_ZEE	82	stimuli_target_trianglecircles.svg	stimuli_distractor_diamondtriangles.svg	21	yes	57	0	122
6.6.1	win	2022-12-14	14:19:36	14:32:38	781378	5d269fedf6dec40019b87a59	964238172	1	main_z	7	main_z	83	stimuli_distractor_diamondtriangles.svg	stimuli_distractor_diamondtriangles.svg	40	no	44	0	777
6.6.1	win	2022-12-14	14:19:36	14:32:38	781378	5d269fedf6dec40019b87a59	964238172	1	main_z	7	advance_on_keypress_ZEE	84	stimuli_distractor_diamondtriangles.svg	stimuli_distractor_diamondtriangles.svg	40	no	57	0	656
6.6.1	win	2022-12-14	14:19:36	14:32:40	783274	5d269fedf6dec40019b87a59	964238172	1	main_z	7	main_z	85	stimuli_target_squarediamonds.svg	stimuli_distractor_trianglediamonds.svg	4	yes	44	1	623
6.6.1	win	2022-12-14	14:19:36	14:32:40	783274	5d269fedf6dec40019b87a59	964238172	1	main_z	7	advance_on_keypress_ZEE	86	stimuli_target_squarediamonds.svg	stimuli_distractor_trianglediamonds.svg	4	yes	57	0	77
6.6.1	win	2022-12-14	14:19:36	14:32:41	784603	5d269fedf6dec40019b87a59	964238172	1	main_z	7	main_z	87	stimuli_target_squarediamonds.svg	stimuli_distractor_diamondtriangles.svg	8	yes	44	1	637
6.6.1	win	2022-12-14	14:19:36	14:32:41	784603	5d269fedf6dec40019b87a59	964238172	1	main_z	7	advance_on_keypress_ZEE	88	stimuli_target_squarediamonds.svg	stimuli_distractor_diamondtriangles.svg	8	yes	57	0	71
6.6.1	win	2022-12-14	14:19:36	14:32:43	785930	5d269fedf6dec40019b87a59	964238172	1	main_z	7	main_z	89	stimuli_target_diamondsquares.svg	stimuli_distractor_trianglediamonds.svg	20	yes	44	1	638
6.6.1	win	2022-12-14	14:19:36	14:32:43	785930	5d269fedf6dec40019b87a59	964238172	1	main_z	7	advance_on_keypress_ZEE	90	stimuli_target_diamondsquares.svg	stimuli_distractor_trianglediamonds.svg	20	yes	57	0	72
6.6.1	win	2022-12-14	14:19:36	14:32:44	787275	5d269fedf6dec40019b87a59	964238172	1	main_z	7	main_z	91	stimuli_distractor_trianglediamonds.svg	stimuli_target_circletriangles.svg	9	yes	44	1	645
6.6.1	win	2022-12-14	14:19:36	14:32:44	787275	5d269fedf6dec40019b87a59	964238172	1	main_z	7	advance_on_keypress_ZEE	92	stimuli_distractor_trianglediamonds.svg	stimuli_target_circletriangles.svg	9	yes	57	0	67
6.6.1	win	2022-12-14	14:19:36	14:32:45	788611	5d269fedf6dec40019b87a59	964238172	1	main_z	7	main_z	93	stimuli_target_diamondcircles.svg	stimuli_distractor_diamondtriangles.svg	23	yes	44	1	639
6.6.1	win	2022-12-14	14:19:36	14:32:45	788611	5d269fedf6dec40019b87a59	964238172	1	main_z	7	advance_on_keypress_ZEE	94	stimuli_target_diamondcircles.svg	stimuli_distractor_diamondtriangles.svg	23	yes	57	0	93
6.6.1	win	2022-12-14	14:19:36	14:32:47	789962	5d269fedf6dec40019b87a59	964238172	1	main_z	7	main_z	95	stimuli_distractor_trianglediamonds.svg	stimuli_target_trianglecircles.svg	25	yes	44	1	640
6.6.1	win	2022-12-14	14:19:36	14:32:47	789962	5d269fedf6dec40019b87a59	964238172	1	main_z	7	advance_on_keypress_ZEE	96	stimuli_distractor_trianglediamonds.svg	stimuli_target_trianglecircles.svg	25	yes	57	0	73
6.6.1	win	2022-12-14	14:19:36	14:32:48	791314	5d269fedf6dec40019b87a59	964238172	1	main_z	7	main_z	97	stimuli_target_trianglecircles.svg	stimuli_distractor_trianglediamonds.svg	17	yes	44	1	665
6.6.1	win	2022-12-14	14:19:36	14:32:48	791314	5d269fedf6dec40019b87a59	964238172	1	main_z	7	advance_on_keypress_ZEE	98	stimuli_target_trianglecircles.svg	stimuli_distractor_trianglediamonds.svg	17	yes	57	0	70
6.6.1	win	2022-12-14	14:19:36	14:32:49	792641	5d269fedf6dec40019b87a59	964238172	1	main_z	7	main_z	99	stimuli_target_trianglesquares.svg	stimuli_distractor_trianglediamonds.svg	18	yes	44	1	638
6.6.1	win	2022-12-14	14:19:36	14:32:49	792641	5d269fedf6dec40019b87a59	964238172	1	main_z	7	advance_on_keypress_ZEE	100	stimuli_target_trianglesquares.svg	stimuli_distractor_trianglediamonds.svg	18	yes	57	0	95
6.6.1	win	2022-12-14	14:19:36	14:32:51	794010	5d269fedf6dec40019b87a59	964238172	1	main_z	7	main_z	101	stimuli_distractor_trianglediamonds.svg	stimuli_target_circlediamonds.svg	10	yes	44	1	651
6.6.1	win	2022-12-14	14:19:36	14:32:51	794010	5d269fedf6dec40019b87a59	964238172	1	main_z	7	advance_on_keypress_ZEE	102	stimuli_distractor_trianglediamonds.svg	stimuli_target_circlediamonds.svg	10	yes	57	0	54
6.6.1	win	2022-12-14	14:19:36	14:32:52	795322	5d269fedf6dec40019b87a59	964238172	1	main_z	7	main_z	103	stimuli_distractor_diamondtriangles.svg	stimuli_target_squaretriangles.svg	15	yes	44	1	636
6.6.1	win	2022-12-14	14:19:36	14:32:52	795322	5d269fedf6dec40019b87a59	964238172	1	main_z	7	advance_on_keypress_ZEE	104	stimuli_distractor_diamondtriangles.svg	stimuli_target_squaretriangles.svg	15	yes	57	0	76
6.6.1	win	2022-12-14	14:19:36	14:32:53	796655	5d269fedf6dec40019b87a59	964238172	1	main_z	7	main_z	105	stimuli_distractor_trianglediamonds.svg	stimuli_target_squarediamonds.svg	12	yes	44	1	635
6.6.1	win	2022-12-14	14:19:36	14:32:53	796655	5d269fedf6dec40019b87a59	964238172	1	main_z	7	advance_on_keypress_ZEE	106	stimuli_distractor_trianglediamonds.svg	stimuli_target_squarediamonds.svg	12	yes	57	0	94
6.6.1	win	2022-12-14	14:19:36	14:32:56	799364	5d269fedf6dec40019b87a59	964238172	1	main_z	7	main_z	107	stimuli_distractor_diamondtriangles.svg	stimuli_distractor_diamondtriangles.svg	39	no	0	1	2003
6.6.1	win	2022-12-14	14:19:36	14:32:56	799364	5d269fedf6dec40019b87a59	964238172	1	main_z	7	advance_on_keypress_ZEE	108	stimuli_distractor_diamondtriangles.svg	stimuli_distractor_diamondtriangles.svg	39	no	57	0	5
6.6.1	win	2022-12-14	14:19:36	14:32:57	800667	5d269fedf6dec40019b87a59	964238172	1	main_z	7	main_z	109	stimuli_target_squaretriangles.svg	stimuli_distractor_trianglediamonds.svg	3	yes	44	1	663
6.6.1	win	2022-12-14	14:19:36	14:32:57	800667	5d269fedf6dec40019b87a59	964238172	1	main_z	7	advance_on_keypress_ZEE	110	stimuli_target_squaretriangles.svg	stimuli_distractor_trianglediamonds.svg	3	yes	57	0	61
6.6.1	win	2022-12-14	14:19:36	14:33:00	803360	5d269fedf6dec40019b87a59	964238172	1	main_z	7	main_z	111	stimuli_distractor_trianglediamonds.svg	stimuli_distractor_diamondtriangles.svg	36	no	0	1	2003
6.6.1	win	2022-12-14	14:19:36	14:33:00	803360	5d269fedf6dec40019b87a59	964238172	1	main_z	7	advance_on_keypress_ZEE	112	stimuli_distractor_trianglediamonds.svg	stimuli_distractor_diamondtriangles.svg	36	no	57	0	252
6.6.1	win	2022-12-14	14:19:36	14:33:02	804866	5d269fedf6dec40019b87a59	964238172	1	main_z	7	main_z	113	stimuli_target_diamondsquares.svg	stimuli_distractor_diamondtriangles.svg	24	yes	44	1	639
6.6.1	win	2022-12-14	14:19:36	14:33:02	804866	5d269fedf6dec40019b87a59	964238172	1	main_z	7	advance_on_keypress_ZEE	114	stimuli_target_diamondsquares.svg	stimuli_distractor_diamondtriangles.svg	24	yes	57	0	97
6.6.1	win	2022-12-14	14:19:36	14:33:03	806202	5d269fedf6dec40019b87a59	964238172	1	main_z	7	main_z	115	stimuli_distractor_trianglediamonds.svg	stimuli_target_trianglesquares.svg	26	yes	44	1	620
6.6.1	win	2022-12-14	14:19:36	14:33:03	806202	5d269fedf6dec40019b87a59	964238172	1	main_z	7	advance_on_keypress_ZEE	116	stimuli_distractor_trianglediamonds.svg	stimuli_target_trianglesquares.svg	26	yes	57	0	90
6.6.1	win	2022-12-14	14:19:36	14:33:05	807834	5d269fedf6dec40019b87a59	964238172	1	main_z	7	main_z	117	stimuli_target_trianglesquares.svg	stimuli_distractor_diamondtriangles.svg	22	yes	44	1	925
6.6.1	win	2022-12-14	14:19:36	14:33:05	807834	5d269fedf6dec40019b87a59	964238172	1	main_z	7	advance_on_keypress_ZEE	118	stimuli_target_trianglesquares.svg	stimuli_distractor_diamondtriangles.svg	22	yes	57	0	113
6.6.1	win	2022-12-14	14:19:36	14:33:06	809285	5d269fedf6dec40019b87a59	964238172	1	main_z	7	main_z	119	stimuli_target_circlediamonds.svg	stimuli_distractor_trianglediamonds.svg	2	yes	44	1	702
6.6.1	win	2022-12-14	14:19:36	14:33:06	809285	5d269fedf6dec40019b87a59	964238172	1	main_z	7	advance_on_keypress_ZEE	120	stimuli_target_circlediamonds.svg	stimuli_distractor_trianglediamonds.svg	2	yes	57	0	45
6.6.1	win	2022-12-14	14:19:36	14:33:07	810609	5d269fedf6dec40019b87a59	964238172	1	main_z	7	main_z	121	stimuli_target_circlediamonds.svg	stimuli_distractor_diamondtriangles.svg	6	yes	44	1	648
6.6.1	win	2022-12-14	14:19:36	14:33:07	810609	5d269fedf6dec40019b87a59	964238172	1	main_z	7	advance_on_keypress_ZEE	122	stimuli_target_circlediamonds.svg	stimuli_distractor_diamondtriangles.svg	6	yes	57	0	101
6.6.1	win	2022-12-14	14:19:36	14:33:09	811938	5d269fedf6dec40019b87a59	964238172	1	main_z	7	main_z	123	stimuli_target_diamondcircles.svg	stimuli_distractor_trianglediamonds.svg	19	yes	44	1	617
6.6.1	win	2022-12-14	14:19:36	14:33:09	811938	5d269fedf6dec40019b87a59	964238172	1	main_z	7	advance_on_keypress_ZEE	124	stimuli_target_diamondcircles.svg	stimuli_distractor_trianglediamonds.svg	19	yes	57	0	71
6.6.1	win	2022-12-14	14:19:36	14:33:10	813256	5d269fedf6dec40019b87a59	964238172	1	main_z	7	main_z	125	stimuli_distractor_diamondtriangles.svg	stimuli_target_circlediamonds.svg	14	yes	44	1	620
6.6.1	win	2022-12-14	14:19:36	14:33:10	813256	5d269fedf6dec40019b87a59	964238172	1	main_z	7	advance_on_keypress_ZEE	126	stimuli_distractor_diamondtriangles.svg	stimuli_target_circlediamonds.svg	14	yes	57	0	71
6.6.1	win	2022-12-14	14:19:36	14:33:11	814621	5d269fedf6dec40019b87a59	964238172	1	main_z	7	main_z	127	stimuli_target_circletriangles.svg	stimuli_distractor_diamondtriangles.svg	5	yes	44	1	666
6.6.1	win	2022-12-14	14:19:36	14:33:11	814621	5d269fedf6dec40019b87a59	964238172	1	main_z	7	advance_on_keypress_ZEE	128	stimuli_target_circletriangles.svg	stimuli_distractor_diamondtriangles.svg	5	yes	57	0	69
6.6.1	win	2022-12-14	14:19:36	14:33:14	817312	5d269fedf6dec40019b87a59	964238172	1	main_z	7	main_z	129	stimuli_distractor_trianglediamonds.svg	stimuli_distractor_trianglediamonds.svg	33	no	0	1	2003
6.6.1	win	2022-12-14	14:19:36	14:33:14	817312	5d269fedf6dec40019b87a59	964238172	1	main_z	7	advance_on_keypress_ZEE	130	stimuli_distractor_trianglediamonds.svg	stimuli_distractor_trianglediamonds.svg	33	no	57	0	220
6.6.1	win	2022-12-14	14:19:36	14:33:17	820156	5d269fedf6dec40019b87a59	964238172	1	main_z	7	main_z	131	stimuli_distractor_trianglediamonds.svg	stimuli_distractor_trianglediamonds.svg	34	no	0	1	2003
6.6.1	win	2022-12-14	14:19:36	14:33:17	820156	5d269fedf6dec40019b87a59	964238172	1	main_z	7	advance_on_keypress_ZEE	132	stimuli_distractor_trianglediamonds.svg	stimuli_distractor_trianglediamonds.svg	34	no	57	0	241
6.6.1	win	2022-12-14	14:19:36	14:33:19	821970	5d269fedf6dec40019b87a59	964238172	1	main_z	7	main_z	133	stimuli_distractor_diamondtriangles.svg	stimuli_distractor_trianglediamonds.svg	38	no	44	0	955
6.6.1	win	2022-12-14	14:19:36	14:33:19	821970	5d269fedf6dec40019b87a59	964238172	1	main_z	7	advance_on_keypress_ZEE	134	stimuli_distractor_diamondtriangles.svg	stimuli_distractor_trianglediamonds.svg	38	no	57	0	140
6.6.1	win	2022-12-14	14:19:36	14:33:20	823386	5d269fedf6dec40019b87a59	964238172	1	main_z	7	main_z	135	stimuli_distractor_trianglediamonds.svg	stimuli_target_diamondcircles.svg	27	yes	44	1	662
6.6.1	win	2022-12-14	14:19:36	14:33:20	823386	5d269fedf6dec40019b87a59	964238172	1	main_z	7	advance_on_keypress_ZEE	136	stimuli_distractor_trianglediamonds.svg	stimuli_target_diamondcircles.svg	27	yes	57	0	74
6.6.1	win	2022-12-14	14:19:36	14:33:21	824745	5d269fedf6dec40019b87a59	964238172	1	main_z	7	main_z	137	stimuli_distractor_diamondtriangles.svg	stimuli_target_diamondsquares.svg	32	yes	44	1	643
6.6.1	win	2022-12-14	14:19:36	14:33:21	824745	5d269fedf6dec40019b87a59	964238172	1	main_z	7	advance_on_keypress_ZEE	138	stimuli_distractor_diamondtriangles.svg	stimuli_target_diamondsquares.svg	32	yes	57	0	80
6.6.1	win	2022-12-14	14:19:36	14:33:24	827467	5d269fedf6dec40019b87a59	964238172	1	main_z	7	main_z	139	stimuli_distractor_diamondtriangles.svg	stimuli_distractor_trianglediamonds.svg	37	no	0	1	2003
6.6.1	win	2022-12-14	14:19:36	14:33:24	827467	5d269fedf6dec40019b87a59	964238172	1	main_z	7	advance_on_keypress_ZEE	140	stimuli_distractor_diamondtriangles.svg	stimuli_distractor_trianglediamonds.svg	37	no	57	0	238
6.6.1	win	2022-12-14	14:19:36	14:33:26	829096	5d269fedf6dec40019b87a59	964238172	1	main_z	7	main_z	141	stimuli_distractor_trianglediamonds.svg	stimuli_target_squaretriangles.svg	11	yes	44	1	749
6.6.1	win	2022-12-14	14:19:36	14:33:26	829096	5d269fedf6dec40019b87a59	964238172	1	main_z	7	advance_on_keypress_ZEE	142	stimuli_distractor_trianglediamonds.svg	stimuli_target_squaretriangles.svg	11	yes	57	0	83
6.6.1	win	2022-12-14	14:19:36	14:33:27	830513	5d269fedf6dec40019b87a59	964238172	1	main_z	7	main_z	143	stimuli_distractor_diamondtriangles.svg	stimuli_target_circletriangles.svg	13	yes	44	1	709
6.6.1	win	2022-12-14	14:19:36	14:33:27	830513	5d269fedf6dec40019b87a59	964238172	1	main_z	7	advance_on_keypress_ZEE	144	stimuli_distractor_diamondtriangles.svg	stimuli_target_circletriangles.svg	13	yes	57	0	98
6.6.1	win	2022-12-14	14:19:36	14:33:29	831882	5d269fedf6dec40019b87a59	964238172	1	main_z	7	main_z	145	stimuli_distractor_trianglediamonds.svg	stimuli_target_diamondsquares.svg	28	yes	44	1	653
6.6.1	win	2022-12-14	14:19:36	14:33:29	831882	5d269fedf6dec40019b87a59	964238172	1	main_z	7	advance_on_keypress_ZEE	146	stimuli_distractor_trianglediamonds.svg	stimuli_target_diamondsquares.svg	28	yes	57	0	72
6.6.1	win	2022-12-14	14:19:36	14:33:30	833250	5d269fedf6dec40019b87a59	964238172	1	main_z	7	main_z	147	stimuli_distractor_diamondtriangles.svg	stimuli_target_squarediamonds.svg	16	yes	44	1	680
6.6.1	win	2022-12-14	14:19:36	14:33:30	833250	5d269fedf6dec40019b87a59	964238172	1	main_z	7	advance_on_keypress_ZEE	148	stimuli_distractor_diamondtriangles.svg	stimuli_target_squarediamonds.svg	16	yes	57	0	119
6.6.1	win	2022-12-14	14:19:36	14:33:31	834642	5d269fedf6dec40019b87a59	964238172	1	main_z	7	main_z	149	stimuli_distractor_diamondtriangles.svg	stimuli_target_trianglecircles.svg	29	yes	44	1	648
6.6.1	win	2022-12-14	14:19:36	14:33:31	834642	5d269fedf6dec40019b87a59	964238172	1	main_z	7	advance_on_keypress_ZEE	150	stimuli_distractor_diamondtriangles.svg	stimuli_target_trianglecircles.svg	29	yes	57	0	114
6.6.1	win	2022-12-14	14:19:36	14:33:33	836338	5d269fedf6dec40019b87a59	964238172	1	main_z	7	main_z	151	stimuli_target_circletriangles.svg	stimuli_distractor_trianglediamonds.svg	1	yes	44	1	967
6.6.1	win	2022-12-14	14:19:36	14:33:33	836338	5d269fedf6dec40019b87a59	964238172	1	main_z	7	advance_on_keypress_ZEE	152	stimuli_target_circletriangles.svg	stimuli_distractor_trianglediamonds.svg	1	yes	57	0	75
6.6.1	win	2022-12-14	14:19:36	14:33:36	839052	5d269fedf6dec40019b87a59	964238172	1	main_z	7	main_z	153	stimuli_distractor_trianglediamonds.svg	stimuli_distractor_diamondtriangles.svg	35	no	0	1	2003
6.6.1	win	2022-12-14	14:19:36	14:33:36	839052	5d269fedf6dec40019b87a59	964238172	1	main_z	7	advance_on_keypress_ZEE	154	stimuli_distractor_trianglediamonds.svg	stimuli_distractor_diamondtriangles.svg	35	no	57	0	238
6.6.1	win	2022-12-14	14:19:36	14:33:37	840610	5d269fedf6dec40019b87a59	964238172	1	main_z	7	main_z	155	stimuli_distractor_diamondtriangles.svg	stimuli_target_diamondcircles.svg	31	yes	44	1	692
6.6.1	win	2022-12-14	14:19:36	14:33:37	840610	5d269fedf6dec40019b87a59	964238172	1	main_z	7	advance_on_keypress_ZEE	156	stimuli_distractor_diamondtriangles.svg	stimuli_target_diamondcircles.svg	31	yes	57	0	89
6.6.1	win	2022-12-14	14:19:36	14:33:39	841954	5d269fedf6dec40019b87a59	964238172	1	main_z	7	main_z	157	stimuli_distractor_diamondtriangles.svg	stimuli_target_trianglesquares.svg	30	yes	44	1	635
6.6.1	win	2022-12-14	14:19:36	14:33:39	841954	5d269fedf6dec40019b87a59	964238172	1	main_z	7	advance_on_keypress_ZEE	158	stimuli_distractor_diamondtriangles.svg	stimuli_target_trianglesquares.svg	30	yes	57	0	76
6.6.1	win	2022-12-14	14:19:36	14:33:41	844648	5d269fedf6dec40019b87a59	964238172	1	main_z	7	main_z	159	stimuli_target_squaretriangles.svg	stimuli_distractor_diamondtriangles.svg	7	yes	0	0	2003
6.6.1	win	2022-12-14	14:19:36	14:33:41	844648	5d269fedf6dec40019b87a59	964238172	1	main_z	7	advance_on_keypress_ZEE	160	stimuli_target_squaretriangles.svg	stimuli_distractor_diamondtriangles.svg	7	yes	57	0	548
6.6.1	win	2022-12-14	14:19:36	14:33:55	858691	5d269fedf6dec40019b87a59	964238172	1	practice_slash	9	practice_slash	1	stimuli_distractor_trianglediamonds.svg	stimuli_target_diamondcircles.svg	12	yes	53	1	681
6.6.1	win	2022-12-14	14:19:36	14:33:55	858691	5d269fedf6dec40019b87a59	964238172	1	practice_slash	9	advance_on_keypress_SLASH	2	stimuli_distractor_trianglediamonds.svg	stimuli_target_diamondcircles.svg	12	yes	57	0	440
6.6.1	win	2022-12-14	14:19:36	14:33:58	861346	5d269fedf6dec40019b87a59	964238172	1	practice_slash	9	practice_slash	3	stimuli_distractor_trianglediamonds.svg	stimuli_target_circlediamonds.svg	10	yes	53	1	592
6.6.1	win	2022-12-14	14:19:36	14:33:58	861346	5d269fedf6dec40019b87a59	964238172	1	practice_slash	9	advance_on_keypress_SLASH	4	stimuli_distractor_trianglediamonds.svg	stimuli_target_circlediamonds.svg	10	yes	57	0	227
6.6.1	win	2022-12-14	14:19:36	14:34:01	863931	5d269fedf6dec40019b87a59	964238172	1	practice_slash	9	practice_slash	5	stimuli_target_diamondsquares.svg	stimuli_distractor_diamondtriangles.svg	3	yes	53	1	737
6.6.1	win	2022-12-14	14:19:36	14:34:01	863931	5d269fedf6dec40019b87a59	964238172	1	practice_slash	9	advance_on_keypress_SLASH	6	stimuli_target_diamondsquares.svg	stimuli_distractor_diamondtriangles.svg	3	yes	57	0	385
6.6.1	win	2022-12-14	14:19:36	14:34:05	867962	5d269fedf6dec40019b87a59	964238172	1	practice_slash	9	practice_slash	7	stimuli_distractor_diamondtriangles.svg	stimuli_distractor_diamondtriangles.svg	13	no	0	1	2003
6.6.1	win	2022-12-14	14:19:36	14:34:05	867962	5d269fedf6dec40019b87a59	964238172	1	practice_slash	9	advance_on_keypress_SLASH	8	stimuli_distractor_diamondtriangles.svg	stimuli_distractor_diamondtriangles.svg	13	no	57	0	340
6.6.1	win	2022-12-14	14:19:36	14:34:07	870635	5d269fedf6dec40019b87a59	964238172	1	practice_slash	9	practice_slash	9	stimuli_target_diamondsquares.svg	stimuli_distractor_trianglediamonds.svg	6	yes	53	1	715
6.6.1	win	2022-12-14	14:19:36	14:34:07	870635	5d269fedf6dec40019b87a59	964238172	1	practice_slash	9	advance_on_keypress_SLASH	10	stimuli_target_diamondsquares.svg	stimuli_distractor_trianglediamonds.svg	6	yes	57	0	527
6.6.1	win	2022-12-14	14:19:36	14:34:10	873459	5d269fedf6dec40019b87a59	964238172	1	practice_slash	9	practice_slash	11	stimuli_distractor_diamondtriangles.svg	stimuli_target_diamondcircles.svg	8	yes	53	1	676
6.6.1	win	2022-12-14	14:19:36	14:34:10	873459	5d269fedf6dec40019b87a59	964238172	1	practice_slash	9	advance_on_keypress_SLASH	12	stimuli_distractor_diamondtriangles.svg	stimuli_target_diamondcircles.svg	8	yes	57	0	42
6.6.1	win	2022-12-14	14:19:36	14:34:12	875794	5d269fedf6dec40019b87a59	964238172	1	practice_slash	9	practice_slash	13	stimuli_target_squarediamonds.svg	stimuli_distractor_diamondtriangles.svg	2	yes	53	1	678
6.6.1	win	2022-12-14	14:19:36	14:34:12	875794	5d269fedf6dec40019b87a59	964238172	1	practice_slash	9	advance_on_keypress_SLASH	14	stimuli_target_squarediamonds.svg	stimuli_distractor_diamondtriangles.svg	2	yes	57	0	44
6.6.1	win	2022-12-14	14:19:36	14:34:15	878171	5d269fedf6dec40019b87a59	964238172	1	practice_slash	9	practice_slash	15	stimuli_distractor_diamondtriangles.svg	stimuli_target_circletriangles.svg	7	yes	53	1	719
6.6.1	win	2022-12-14	14:19:36	14:34:15	878171	5d269fedf6dec40019b87a59	964238172	1	practice_slash	9	advance_on_keypress_SLASH	16	stimuli_distractor_diamondtriangles.svg	stimuli_target_circletriangles.svg	7	yes	57	0	140
6.6.1	win	2022-12-14	14:19:36	14:34:19	881951	5d269fedf6dec40019b87a59	964238172	1	practice_slash	9	practice_slash	17	stimuli_distractor_trianglediamonds.svg	stimuli_distractor_diamondtriangles.svg	16	no	0	1	2003
6.6.1	win	2022-12-14	14:19:36	14:34:19	881951	5d269fedf6dec40019b87a59	964238172	1	practice_slash	9	advance_on_keypress_SLASH	18	stimuli_distractor_trianglediamonds.svg	stimuli_distractor_diamondtriangles.svg	16	no	57	0	391
6.6.1	win	2022-12-14	14:19:36	14:34:21	884739	5d269fedf6dec40019b87a59	964238172	1	practice_slash	9	practice_slash	19	stimuli_distractor_diamondtriangles.svg	stimuli_distractor_trianglediamonds.svg	14	no	53	0	769
6.6.1	win	2022-12-14	14:19:36	14:34:21	884739	5d269fedf6dec40019b87a59	964238172	1	practice_slash	9	advance_on_keypress_SLASH	20	stimuli_distractor_diamondtriangles.svg	stimuli_distractor_trianglediamonds.svg	14	no	57	0	422
6.6.1	win	2022-12-14	14:19:36	14:34:24	887442	5d269fedf6dec40019b87a59	964238172	1	practice_slash	9	practice_slash	21	stimuli_target_circlediamonds.svg	stimuli_distractor_diamondtriangles.svg	1	yes	53	1	659
6.6.1	win	2022-12-14	14:19:36	14:34:24	887442	5d269fedf6dec40019b87a59	964238172	1	practice_slash	9	advance_on_keypress_SLASH	22	stimuli_target_circlediamonds.svg	stimuli_distractor_diamondtriangles.svg	1	yes	57	0	416
6.6.1	win	2022-12-14	14:19:36	14:34:28	891482	5d269fedf6dec40019b87a59	964238172	1	practice_slash	9	practice_slash	23	stimuli_distractor_trianglediamonds.svg	stimuli_distractor_trianglediamonds.svg	15	no	0	1	2003
6.6.1	win	2022-12-14	14:19:36	14:34:28	891482	5d269fedf6dec40019b87a59	964238172	1	practice_slash	9	advance_on_keypress_SLASH	24	stimuli_distractor_trianglediamonds.svg	stimuli_distractor_trianglediamonds.svg	15	no	57	0	346
6.6.1	win	2022-12-14	14:19:36	14:34:31	894162	5d269fedf6dec40019b87a59	964238172	1	practice_slash	9	practice_slash	25	stimuli_distractor_diamondtriangles.svg	stimuli_target_trianglecircles.svg	9	yes	53	1	687
6.6.1	win	2022-12-14	14:19:36	14:34:31	894162	5d269fedf6dec40019b87a59	964238172	1	practice_slash	9	advance_on_keypress_SLASH	26	stimuli_distractor_diamondtriangles.svg	stimuli_target_trianglecircles.svg	9	yes	57	0	383
6.6.1	win	2022-12-14	14:19:36	14:34:34	896803	5d269fedf6dec40019b87a59	964238172	1	practice_slash	9	practice_slash	27	stimuli_target_circlediamonds.svg	stimuli_distractor_trianglediamonds.svg	4	yes	53	1	631
6.6.1	win	2022-12-14	14:19:36	14:34:34	896803	5d269fedf6dec40019b87a59	964238172	1	practice_slash	9	advance_on_keypress_SLASH	28	stimuli_target_circlediamonds.svg	stimuli_distractor_trianglediamonds.svg	4	yes	57	0	367
6.6.1	win	2022-12-14	14:19:36	14:34:36	899508	5d269fedf6dec40019b87a59	964238172	1	practice_slash	9	practice_slash	29	stimuli_distractor_trianglediamonds.svg	stimuli_target_squarediamonds.svg	11	yes	53	1	715
6.6.1	win	2022-12-14	14:19:36	14:34:36	899508	5d269fedf6dec40019b87a59	964238172	1	practice_slash	9	advance_on_keypress_SLASH	30	stimuli_distractor_trianglediamonds.svg	stimuli_target_squarediamonds.svg	11	yes	57	0	400
6.6.1	win	2022-12-14	14:19:36	14:34:39	902187	5d269fedf6dec40019b87a59	964238172	1	practice_slash	9	practice_slash	31	stimuli_target_squarediamonds.svg	stimuli_distractor_trianglediamonds.svg	5	yes	53	1	644
6.6.1	win	2022-12-14	14:19:36	14:34:39	902187	5d269fedf6dec40019b87a59	964238172	1	practice_slash	9	advance_on_keypress_SLASH	32	stimuli_target_squarediamonds.svg	stimuli_distractor_trianglediamonds.svg	5	yes	57	0	422
6.6.1	win	2022-12-14	14:19:36	14:34:42	905274	5d269fedf6dec40019b87a59	964238172	1	main_slash	11	main_slash	1	stimuli_target_squaretriangles.svg	stimuli_distractor_diamondtriangles.svg	7	yes	53	1	637
6.6.1	win	2022-12-14	14:19:36	14:34:42	905274	5d269fedf6dec40019b87a59	964238172	1	main_slash	11	advance_on_keypress_SLASH	2	stimuli_target_squaretriangles.svg	stimuli_distractor_diamondtriangles.svg	7	yes	57	0	336
6.6.1	win	2022-12-14	14:19:36	14:34:44	906930	5d269fedf6dec40019b87a59	964238172	1	main_slash	11	main_slash	3	stimuli_distractor_trianglediamonds.svg	stimuli_target_diamondsquares.svg	28	yes	53	1	704
6.6.1	win	2022-12-14	14:19:36	14:34:44	906930	5d269fedf6dec40019b87a59	964238172	1	main_slash	11	advance_on_keypress_SLASH	4	stimuli_distractor_trianglediamonds.svg	stimuli_target_diamondsquares.svg	28	yes	57	0	195
6.6.1	win	2022-12-14	14:19:36	14:34:45	908394	5d269fedf6dec40019b87a59	964238172	1	main_slash	11	main_slash	5	stimuli_distractor_trianglediamonds.svg	stimuli_target_trianglesquares.svg	26	yes	53	1	638
6.6.1	win	2022-12-14	14:19:36	14:34:45	908394	5d269fedf6dec40019b87a59	964238172	1	main_slash	11	advance_on_keypress_SLASH	6	stimuli_distractor_trianglediamonds.svg	stimuli_target_trianglesquares.svg	26	yes	57	0	112
6.6.1	win	2022-12-14	14:19:36	14:34:46	909770	5d269fedf6dec40019b87a59	964238172	1	main_slash	11	main_slash	7	stimuli_distractor_diamondtriangles.svg	stimuli_target_trianglecircles.svg	29	yes	53	1	646
6.6.1	win	2022-12-14	14:19:36	14:34:46	909770	5d269fedf6dec40019b87a59	964238172	1	main_slash	11	advance_on_keypress_SLASH	8	stimuli_distractor_diamondtriangles.svg	stimuli_target_trianglecircles.svg	29	yes	57	0	89
6.6.1	win	2022-12-14	14:19:36	14:34:48	911194	5d269fedf6dec40019b87a59	964238172	1	main_slash	11	main_slash	9	stimuli_distractor_diamondtriangles.svg	stimuli_target_circletriangles.svg	13	yes	53	1	715
6.6.1	win	2022-12-14	14:19:36	14:34:48	911194	5d269fedf6dec40019b87a59	964238172	1	main_slash	11	advance_on_keypress_SLASH	10	stimuli_distractor_diamondtriangles.svg	stimuli_target_circletriangles.svg	13	yes	57	0	113
6.6.1	win	2022-12-14	14:19:36	14:34:49	912570	5d269fedf6dec40019b87a59	964238172	1	main_slash	11	main_slash	11	stimuli_distractor_diamondtriangles.svg	stimuli_target_circlediamonds.svg	14	yes	53	1	646
6.6.1	win	2022-12-14	14:19:36	14:34:49	912570	5d269fedf6dec40019b87a59	964238172	1	main_slash	11	advance_on_keypress_SLASH	12	stimuli_distractor_diamondtriangles.svg	stimuli_target_circlediamonds.svg	14	yes	57	0	88
6.6.1	win	2022-12-14	14:19:36	14:34:51	913978	5d269fedf6dec40019b87a59	964238172	1	main_slash	11	main_slash	13	stimuli_target_trianglesquares.svg	stimuli_distractor_trianglediamonds.svg	18	yes	53	1	699
6.6.1	win	2022-12-14	14:19:36	14:34:51	913978	5d269fedf6dec40019b87a59	964238172	1	main_slash	11	advance_on_keypress_SLASH	14	stimuli_target_trianglesquares.svg	stimuli_distractor_trianglediamonds.svg	18	yes	57	0	133
6.6.1	win	2022-12-14	14:19:36	14:34:52	915370	5d269fedf6dec40019b87a59	964238172	1	main_slash	11	main_slash	15	stimuli_distractor_trianglediamonds.svg	stimuli_target_trianglecircles.svg	25	yes	53	1	647
6.6.1	win	2022-12-14	14:19:36	14:34:52	915370	5d269fedf6dec40019b87a59	964238172	1	main_slash	11	advance_on_keypress_SLASH	16	stimuli_distractor_trianglediamonds.svg	stimuli_target_trianglecircles.svg	25	yes	57	0	112
6.6.1	win	2022-12-14	14:19:36	14:34:55	918134	5d269fedf6dec40019b87a59	964238172	1	main_slash	11	main_slash	17	stimuli_distractor_diamondtriangles.svg	stimuli_distractor_diamondtriangles.svg	39	no	0	1	2003
6.6.1	win	2022-12-14	14:19:36	14:34:55	918134	5d269fedf6dec40019b87a59	964238172	1	main_slash	11	advance_on_keypress_SLASH	18	stimuli_distractor_diamondtriangles.svg	stimuli_distractor_diamondtriangles.svg	39	no	57	0	203
6.6.1	win	2022-12-14	14:19:36	14:34:56	919702	5d269fedf6dec40019b87a59	964238172	1	main_slash	11	main_slash	19	stimuli_target_diamondcircles.svg	stimuli_distractor_trianglediamonds.svg	19	yes	53	1	731
6.6.1	win	2022-12-14	14:19:36	14:34:56	919702	5d269fedf6dec40019b87a59	964238172	1	main_slash	11	advance_on_keypress_SLASH	20	stimuli_target_diamondcircles.svg	stimuli_distractor_trianglediamonds.svg	19	yes	57	0	95
6.6.1	win	2022-12-14	14:19:36	14:34:59	922438	5d269fedf6dec40019b87a59	964238172	1	main_slash	11	main_slash	21	stimuli_distractor_trianglediamonds.svg	stimuli_distractor_trianglediamonds.svg	33	no	0	1	2003
6.6.1	win	2022-12-14	14:19:36	14:34:59	922438	5d269fedf6dec40019b87a59	964238172	1	main_slash	11	advance_on_keypress_SLASH	22	stimuli_distractor_trianglediamonds.svg	stimuli_distractor_trianglediamonds.svg	33	no	57	0	413
6.6.1	win	2022-12-14	14:19:36	14:35:01	924285	5d269fedf6dec40019b87a59	964238172	1	main_slash	11	main_slash	23	stimuli_distractor_diamondtriangles.svg	stimuli_target_diamondcircles.svg	31	yes	53	1	801
6.6.1	win	2022-12-14	14:19:36	14:35:01	924285	5d269fedf6dec40019b87a59	964238172	1	main_slash	11	advance_on_keypress_SLASH	24	stimuli_distractor_diamondtriangles.svg	stimuli_target_diamondcircles.svg	31	yes	57	0	342
6.6.1	win	2022-12-14	14:19:36	14:35:03	926066	5d269fedf6dec40019b87a59	964238172	1	main_slash	11	main_slash	25	stimuli_target_diamondsquares.svg	stimuli_distractor_trianglediamonds.svg	20	yes	53	1	807
6.6.1	win	2022-12-14	14:19:36	14:35:03	926066	5d269fedf6dec40019b87a59	964238172	1	main_slash	11	advance_on_keypress_SLASH	26	stimuli_target_diamondsquares.svg	stimuli_distractor_trianglediamonds.svg	20	yes	57	0	234
6.6.1	win	2022-12-14	14:19:36	14:35:04	927618	5d269fedf6dec40019b87a59	964238172	1	main_slash	11	main_slash	27	stimuli_distractor_trianglediamonds.svg	stimuli_target_circlediamonds.svg	10	yes	53	1	700
6.6.1	win	2022-12-14	14:19:36	14:35:04	927618	5d269fedf6dec40019b87a59	964238172	1	main_slash	11	advance_on_keypress_SLASH	28	stimuli_distractor_trianglediamonds.svg	stimuli_target_circlediamonds.svg	10	yes	57	0	117
6.6.1	win	2022-12-14	14:19:36	14:35:06	929066	5d269fedf6dec40019b87a59	964238172	1	main_slash	11	main_slash	29	stimuli_target_circletriangles.svg	stimuli_distractor_diamondtriangles.svg	5	yes	53	1	716
6.6.1	win	2022-12-14	14:19:36	14:35:06	929066	5d269fedf6dec40019b87a59	964238172	1	main_slash	11	advance_on_keypress_SLASH	30	stimuli_target_circletriangles.svg	stimuli_distractor_diamondtriangles.svg	5	yes	57	0	113
6.6.1	win	2022-12-14	14:19:36	14:35:07	930458	5d269fedf6dec40019b87a59	964238172	1	main_slash	11	main_slash	31	stimuli_target_trianglesquares.svg	stimuli_distractor_diamondtriangles.svg	22	yes	53	1	663
6.6.1	win	2022-12-14	14:19:36	14:35:07	930458	5d269fedf6dec40019b87a59	964238172	1	main_slash	11	advance_on_keypress_SLASH	32	stimuli_target_trianglesquares.svg	stimuli_distractor_diamondtriangles.svg	22	yes	57	0	115
6.6.1	win	2022-12-14	14:19:36	14:35:09	931912	5d269fedf6dec40019b87a59	964238172	1	main_slash	11	main_slash	33	stimuli_distractor_trianglediamonds.svg	stimuli_target_circletriangles.svg	9	yes	53	1	711
6.6.1	win	2022-12-14	14:19:36	14:35:09	931912	5d269fedf6dec40019b87a59	964238172	1	main_slash	11	advance_on_keypress_SLASH	34	stimuli_distractor_trianglediamonds.svg	stimuli_target_circletriangles.svg	9	yes	57	0	63
6.6.1	win	2022-12-14	14:19:36	14:35:11	934618	5d269fedf6dec40019b87a59	964238172	1	main_slash	11	main_slash	35	stimuli_distractor_trianglediamonds.svg	stimuli_distractor_diamondtriangles.svg	36	no	0	1	2003
6.6.1	win	2022-12-14	14:19:36	14:35:11	934618	5d269fedf6dec40019b87a59	964238172	1	main_slash	11	advance_on_keypress_SLASH	36	stimuli_distractor_trianglediamonds.svg	stimuli_distractor_diamondtriangles.svg	36	no	57	0	345
6.6.1	win	2022-12-14	14:19:36	14:35:13	936324	5d269fedf6dec40019b87a59	964238172	1	main_slash	11	main_slash	37	stimuli_target_squaretriangles.svg	stimuli_distractor_trianglediamonds.svg	3	yes	53	1	723
6.6.1	win	2022-12-14	14:19:36	14:35:13	936324	5d269fedf6dec40019b87a59	964238172	1	main_slash	11	advance_on_keypress_SLASH	38	stimuli_target_squaretriangles.svg	stimuli_distractor_trianglediamonds.svg	3	yes	57	0	274
6.6.1	win	2022-12-14	14:19:36	14:35:15	937945	5d269fedf6dec40019b87a59	964238172	1	main_slash	11	main_slash	39	stimuli_distractor_trianglediamonds.svg	stimuli_target_squaretriangles.svg	11	yes	53	1	699
6.6.1	win	2022-12-14	14:19:36	14:35:15	937945	5d269fedf6dec40019b87a59	964238172	1	main_slash	11	advance_on_keypress_SLASH	40	stimuli_distractor_trianglediamonds.svg	stimuli_target_squaretriangles.svg	11	yes	57	0	96
6.6.1	win	2022-12-14	14:19:36	14:35:16	939346	5d269fedf6dec40019b87a59	964238172	1	main_slash	11	main_slash	41	stimuli_target_squarediamonds.svg	stimuli_distractor_trianglediamonds.svg	4	yes	53	1	664
6.6.1	win	2022-12-14	14:19:36	14:35:16	939346	5d269fedf6dec40019b87a59	964238172	1	main_slash	11	advance_on_keypress_SLASH	42	stimuli_target_squarediamonds.svg	stimuli_distractor_trianglediamonds.svg	4	yes	57	0	67
6.6.1	win	2022-12-14	14:19:36	14:35:17	940734	5d269fedf6dec40019b87a59	964238172	1	main_slash	11	main_slash	43	stimuli_target_trianglecircles.svg	stimuli_distractor_diamondtriangles.svg	21	yes	53	1	693
6.6.1	win	2022-12-14	14:19:36	14:35:17	940734	5d269fedf6dec40019b87a59	964238172	1	main_slash	11	advance_on_keypress_SLASH	44	stimuli_target_trianglecircles.svg	stimuli_distractor_diamondtriangles.svg	21	yes	57	0	86
6.6.1	win	2022-12-14	14:19:36	14:35:19	942122	5d269fedf6dec40019b87a59	964238172	1	main_slash	11	main_slash	45	stimuli_distractor_diamondtriangles.svg	stimuli_target_trianglesquares.svg	30	yes	53	1	681
6.6.1	win	2022-12-14	14:19:36	14:35:19	942122	5d269fedf6dec40019b87a59	964238172	1	main_slash	11	advance_on_keypress_SLASH	46	stimuli_distractor_diamondtriangles.svg	stimuli_target_trianglesquares.svg	30	yes	57	0	88
6.6.1	win	2022-12-14	14:19:36	14:35:22	944834	5d269fedf6dec40019b87a59	964238172	1	main_slash	11	main_slash	47	stimuli_distractor_trianglediamonds.svg	stimuli_distractor_diamondtriangles.svg	35	no	0	1	2003
6.6.1	win	2022-12-14	14:19:36	14:35:22	944834	5d269fedf6dec40019b87a59	964238172	1	main_slash	11	advance_on_keypress_SLASH	48	stimuli_distractor_trianglediamonds.svg	stimuli_distractor_diamondtriangles.svg	35	no	57	0	259
6.6.1	win	2022-12-14	14:19:36	14:35:23	946410	5d269fedf6dec40019b87a59	964238172	1	main_slash	11	main_slash	49	stimuli_target_squarediamonds.svg	stimuli_distractor_diamondtriangles.svg	8	yes	53	1	693
6.6.1	win	2022-12-14	14:19:36	14:35:23	946410	5d269fedf6dec40019b87a59	964238172	1	main_slash	11	advance_on_keypress_SLASH	50	stimuli_target_squarediamonds.svg	stimuli_distractor_diamondtriangles.svg	8	yes	57	0	97
6.6.1	win	2022-12-14	14:19:36	14:35:25	947841	5d269fedf6dec40019b87a59	964238172	1	main_slash	11	main_slash	51	stimuli_target_diamondcircles.svg	stimuli_distractor_diamondtriangles.svg	23	yes	53	1	716
6.6.1	win	2022-12-14	14:19:36	14:35:25	947841	5d269fedf6dec40019b87a59	964238172	1	main_slash	11	advance_on_keypress_SLASH	52	stimuli_target_diamondcircles.svg	stimuli_distractor_diamondtriangles.svg	23	yes	57	0	89
6.6.1	win	2022-12-14	14:19:36	14:35:27	950553	5d269fedf6dec40019b87a59	964238172	1	main_slash	11	main_slash	53	stimuli_distractor_diamondtriangles.svg	stimuli_distractor_trianglediamonds.svg	38	no	0	1	2003
6.6.1	win	2022-12-14	14:19:36	14:35:27	950553	5d269fedf6dec40019b87a59	964238172	1	main_slash	11	advance_on_keypress_SLASH	54	stimuli_distractor_diamondtriangles.svg	stimuli_distractor_trianglediamonds.svg	38	no	57	0	259
6.6.1	win	2022-12-14	14:19:36	14:35:29	952129	5d269fedf6dec40019b87a59	964238172	1	main_slash	11	main_slash	55	stimuli_target_circlediamonds.svg	stimuli_distractor_diamondtriangles.svg	6	yes	53	1	686
6.6.1	win	2022-12-14	14:19:36	14:35:29	952129	5d269fedf6dec40019b87a59	964238172	1	main_slash	11	advance_on_keypress_SLASH	56	stimuli_target_circlediamonds.svg	stimuli_distractor_diamondtriangles.svg	6	yes	57	0	98
6.6.1	win	2022-12-14	14:19:36	14:35:30	953618	5d269fedf6dec40019b87a59	964238172	1	main_slash	11	main_slash	57	stimuli_distractor_diamondtriangles.svg	stimuli_target_diamondsquares.svg	32	yes	53	1	750
6.6.1	win	2022-12-14	14:19:36	14:35:30	953618	5d269fedf6dec40019b87a59	964238172	1	main_slash	11	advance_on_keypress_SLASH	58	stimuli_distractor_diamondtriangles.svg	stimuli_target_diamondsquares.svg	32	yes	57	0	84
6.6.1	win	2022-12-14	14:19:36	14:35:32	955043	5d269fedf6dec40019b87a59	964238172	1	main_slash	11	main_slash	59	stimuli_distractor_diamondtriangles.svg	stimuli_target_squaretriangles.svg	15	yes	53	1	708
6.6.1	win	2022-12-14	14:19:36	14:35:32	955043	5d269fedf6dec40019b87a59	964238172	1	main_slash	11	advance_on_keypress_SLASH	60	stimuli_distractor_diamondtriangles.svg	stimuli_target_squaretriangles.svg	15	yes	57	0	106
6.6.1	win	2022-12-14	14:19:36	14:35:35	957800	5d269fedf6dec40019b87a59	964238172	1	main_slash	11	main_slash	61	stimuli_distractor_diamondtriangles.svg	stimuli_distractor_trianglediamonds.svg	37	no	0	1	2003
6.6.1	win	2022-12-14	14:19:36	14:35:35	957800	5d269fedf6dec40019b87a59	964238172	1	main_slash	11	advance_on_keypress_SLASH	62	stimuli_distractor_diamondtriangles.svg	stimuli_distractor_trianglediamonds.svg	37	no	57	0	292
6.6.1	win	2022-12-14	14:19:36	14:35:36	959445	5d269fedf6dec40019b87a59	964238172	1	main_slash	11	main_slash	63	stimuli_distractor_trianglediamonds.svg	stimuli_target_squarediamonds.svg	12	yes	53	1	716
6.6.1	win	2022-12-14	14:19:36	14:35:36	959445	5d269fedf6dec40019b87a59	964238172	1	main_slash	11	advance_on_keypress_SLASH	64	stimuli_distractor_trianglediamonds.svg	stimuli_target_squarediamonds.svg	12	yes	57	0	94
6.6.1	win	2022-12-14	14:19:36	14:35:38	960834	5d269fedf6dec40019b87a59	964238172	1	main_slash	11	main_slash	65	stimuli_target_diamondsquares.svg	stimuli_distractor_diamondtriangles.svg	24	yes	53	1	664
6.6.1	win	2022-12-14	14:19:36	14:35:38	960834	5d269fedf6dec40019b87a59	964238172	1	main_slash	11	advance_on_keypress_SLASH	66	stimuli_target_diamondsquares.svg	stimuli_distractor_diamondtriangles.svg	24	yes	57	0	112
6.6.1	win	2022-12-14	14:19:36	14:35:40	963568	5d269fedf6dec40019b87a59	964238172	1	main_slash	11	main_slash	67	stimuli_distractor_trianglediamonds.svg	stimuli_distractor_trianglediamonds.svg	34	no	0	1	2003
6.6.1	win	2022-12-14	14:19:36	14:35:40	963568	5d269fedf6dec40019b87a59	964238172	1	main_slash	11	advance_on_keypress_SLASH	68	stimuli_distractor_trianglediamonds.svg	stimuli_distractor_trianglediamonds.svg	34	no	57	0	60
6.6.1	win	2022-12-14	14:19:36	14:35:43	966250	5d269fedf6dec40019b87a59	964238172	1	main_slash	11	main_slash	69	stimuli_distractor_diamondtriangles.svg	stimuli_distractor_diamondtriangles.svg	40	no	0	1	2003
6.6.1	win	2022-12-14	14:19:36	14:35:43	966250	5d269fedf6dec40019b87a59	964238172	1	main_slash	11	advance_on_keypress_SLASH	70	stimuli_distractor_diamondtriangles.svg	stimuli_distractor_diamondtriangles.svg	40	no	57	0	123
6.6.1	win	2022-12-14	14:19:36	14:35:44	967666	5d269fedf6dec40019b87a59	964238172	1	main_slash	11	main_slash	71	stimuli_target_circletriangles.svg	stimuli_distractor_trianglediamonds.svg	1	yes	53	1	681
6.6.1	win	2022-12-14	14:19:36	14:35:44	967666	5d269fedf6dec40019b87a59	964238172	1	main_slash	11	advance_on_keypress_SLASH	72	stimuli_target_circletriangles.svg	stimuli_distractor_trianglediamonds.svg	1	yes	57	0	192
6.6.1	win	2022-12-14	14:19:36	14:35:46	969194	5d269fedf6dec40019b87a59	964238172	1	main_slash	11	main_slash	73	stimuli_distractor_trianglediamonds.svg	stimuli_target_diamondcircles.svg	27	yes	53	1	715
6.6.1	win	2022-12-14	14:19:36	14:35:46	969194	5d269fedf6dec40019b87a59	964238172	1	main_slash	11	advance_on_keypress_SLASH	74	stimuli_distractor_trianglediamonds.svg	stimuli_target_diamondcircles.svg	27	yes	57	0	136
6.6.1	win	2022-12-14	14:19:36	14:35:47	970586	5d269fedf6dec40019b87a59	964238172	1	main_slash	11	main_slash	75	stimuli_distractor_diamondtriangles.svg	stimuli_target_squarediamonds.svg	16	yes	53	1	641
6.6.1	win	2022-12-14	14:19:36	14:35:47	970586	5d269fedf6dec40019b87a59	964238172	1	main_slash	11	advance_on_keypress_SLASH	76	stimuli_distractor_diamondtriangles.svg	stimuli_target_squarediamonds.svg	16	yes	57	0	234
6.6.1	win	2022-12-14	14:19:36	14:35:49	972098	5d269fedf6dec40019b87a59	964238172	1	main_slash	11	main_slash	77	stimuli_target_circlediamonds.svg	stimuli_distractor_trianglediamonds.svg	2	yes	53	1	660
6.6.1	win	2022-12-14	14:19:36	14:35:49	972098	5d269fedf6dec40019b87a59	964238172	1	main_slash	11	advance_on_keypress_SLASH	78	stimuli_target_circlediamonds.svg	stimuli_distractor_trianglediamonds.svg	2	yes	57	0	111
6.6.1	win	2022-12-14	14:19:36	14:35:50	973466	5d269fedf6dec40019b87a59	964238172	1	main_slash	11	main_slash	79	stimuli_target_trianglecircles.svg	stimuli_distractor_trianglediamonds.svg	17	yes	53	1	636
6.6.1	win	2022-12-14	14:19:36	14:35:50	973466	5d269fedf6dec40019b87a59	964238172	1	main_slash	11	advance_on_keypress_SLASH	80	stimuli_target_trianglecircles.svg	stimuli_distractor_trianglediamonds.svg	17	yes	57	0	110
6.6.1	win	2022-12-14	14:19:36	14:35:52	974913	5d269fedf6dec40019b87a59	964238172	1	main_slash	11	main_slash	81	stimuli_distractor_trianglediamonds.svg	stimuli_target_squaretriangles.svg	11	yes	53	1	716
6.6.1	win	2022-12-14	14:19:36	14:35:52	974913	5d269fedf6dec40019b87a59	964238172	1	main_slash	11	advance_on_keypress_SLASH	82	stimuli_distractor_trianglediamonds.svg	stimuli_target_squaretriangles.svg	11	yes	57	0	113
6.6.1	win	2022-12-14	14:19:36	14:35:53	976266	5d269fedf6dec40019b87a59	964238172	1	main_slash	11	main_slash	83	stimuli_target_trianglecircles.svg	stimuli_distractor_trianglediamonds.svg	17	yes	53	1	623
6.6.1	win	2022-12-14	14:19:36	14:35:53	976266	5d269fedf6dec40019b87a59	964238172	1	main_slash	11	advance_on_keypress_SLASH	84	stimuli_target_trianglecircles.svg	stimuli_distractor_trianglediamonds.svg	17	yes	57	0	117
6.6.1	win	2022-12-14	14:19:36	14:35:54	977618	5d269fedf6dec40019b87a59	964238172	1	main_slash	11	main_slash	85	stimuli_distractor_trianglediamonds.svg	stimuli_target_diamondcircles.svg	27	yes	53	1	621
6.6.1	win	2022-12-14	14:19:36	14:35:54	977618	5d269fedf6dec40019b87a59	964238172	1	main_slash	11	advance_on_keypress_SLASH	86	stimuli_distractor_trianglediamonds.svg	stimuli_target_diamondcircles.svg	27	yes	57	0	90
6.6.1	win	2022-12-14	14:19:36	14:35:56	978938	5d269fedf6dec40019b87a59	964238172	1	main_slash	11	main_slash	87	stimuli_target_squaretriangles.svg	stimuli_distractor_diamondtriangles.svg	7	yes	53	1	595
6.6.1	win	2022-12-14	14:19:36	14:35:56	978938	5d269fedf6dec40019b87a59	964238172	1	main_slash	11	advance_on_keypress_SLASH	88	stimuli_target_squaretriangles.svg	stimuli_distractor_diamondtriangles.svg	7	yes	57	0	99
6.6.1	win	2022-12-14	14:19:36	14:35:57	980236	5d269fedf6dec40019b87a59	964238172	1	main_slash	11	main_slash	89	stimuli_distractor_trianglediamonds.svg	stimuli_target_squarediamonds.svg	12	yes	53	1	573
6.6.1	win	2022-12-14	14:19:36	14:35:57	980236	5d269fedf6dec40019b87a59	964238172	1	main_slash	11	advance_on_keypress_SLASH	90	stimuli_distractor_trianglediamonds.svg	stimuli_target_squarediamonds.svg	12	yes	57	0	110
6.6.1	win	2022-12-14	14:19:36	14:36:00	982968	5d269fedf6dec40019b87a59	964238172	1	main_slash	11	main_slash	91	stimuli_distractor_trianglediamonds.svg	stimuli_distractor_diamondtriangles.svg	35	no	0	1	2003
6.6.1	win	2022-12-14	14:19:36	14:36:00	982968	5d269fedf6dec40019b87a59	964238172	1	main_slash	11	advance_on_keypress_SLASH	92	stimuli_distractor_trianglediamonds.svg	stimuli_distractor_diamondtriangles.svg	35	no	57	0	260
6.6.1	win	2022-12-14	14:19:36	14:36:03	985845	5d269fedf6dec40019b87a59	964238172	1	main_slash	11	main_slash	93	stimuli_distractor_trianglediamonds.svg	stimuli_distractor_trianglediamonds.svg	34	no	0	1	2003
6.6.1	win	2022-12-14	14:19:36	14:36:03	985845	5d269fedf6dec40019b87a59	964238172	1	main_slash	11	advance_on_keypress_SLASH	94	stimuli_distractor_trianglediamonds.svg	stimuli_distractor_trianglediamonds.svg	34	no	57	0	247
6.6.1	win	2022-12-14	14:19:36	14:36:04	987346	5d269fedf6dec40019b87a59	964238172	1	main_slash	11	main_slash	95	stimuli_target_circlediamonds.svg	stimuli_distractor_trianglediamonds.svg	2	yes	53	1	641
6.6.1	win	2022-12-14	14:19:36	14:36:04	987346	5d269fedf6dec40019b87a59	964238172	1	main_slash	11	advance_on_keypress_SLASH	96	stimuli_target_circlediamonds.svg	stimuli_distractor_trianglediamonds.svg	2	yes	57	0	98
6.6.1	win	2022-12-14	14:19:36	14:36:05	988634	5d269fedf6dec40019b87a59	964238172	1	main_slash	11	main_slash	97	stimuli_distractor_diamondtriangles.svg	stimuli_target_diamondsquares.svg	32	yes	53	1	573
6.6.1	win	2022-12-14	14:19:36	14:36:05	988634	5d269fedf6dec40019b87a59	964238172	1	main_slash	11	advance_on_keypress_SLASH	98	stimuli_distractor_diamondtriangles.svg	stimuli_target_diamondsquares.svg	32	yes	57	0	117
6.6.1	win	2022-12-14	14:19:36	14:36:07	989946	5d269fedf6dec40019b87a59	964238172	1	main_slash	11	main_slash	99	stimuli_distractor_diamondtriangles.svg	stimuli_target_trianglecircles.svg	29	yes	53	1	580
6.6.1	win	2022-12-14	14:19:36	14:36:07	989946	5d269fedf6dec40019b87a59	964238172	1	main_slash	11	advance_on_keypress_SLASH	100	stimuli_distractor_diamondtriangles.svg	stimuli_target_trianglecircles.svg	29	yes	57	0	91
6.6.1	win	2022-12-14	14:19:36	14:36:08	991194	5d269fedf6dec40019b87a59	964238172	1	main_slash	11	main_slash	101	stimuli_distractor_trianglediamonds.svg	stimuli_target_diamondsquares.svg	28	yes	53	1	542
6.6.1	win	2022-12-14	14:19:36	14:36:08	991194	5d269fedf6dec40019b87a59	964238172	1	main_slash	11	advance_on_keypress_SLASH	102	stimuli_distractor_trianglediamonds.svg	stimuli_target_diamondsquares.svg	28	yes	57	0	136
6.6.1	win	2022-12-14	14:19:36	14:36:11	993954	5d269fedf6dec40019b87a59	964238172	1	main_slash	11	main_slash	103	stimuli_distractor_diamondtriangles.svg	stimuli_distractor_trianglediamonds.svg	37	no	0	1	2003
6.6.1	win	2022-12-14	14:19:36	14:36:11	993954	5d269fedf6dec40019b87a59	964238172	1	main_slash	11	advance_on_keypress_SLASH	104	stimuli_distractor_diamondtriangles.svg	stimuli_distractor_trianglediamonds.svg	37	no	57	0	258
6.6.1	win	2022-12-14	14:19:36	14:36:12	995431	5d269fedf6dec40019b87a59	964238172	1	main_slash	11	main_slash	105	stimuli_target_diamondcircles.svg	stimuli_distractor_diamondtriangles.svg	23	yes	53	1	589
6.6.1	win	2022-12-14	14:19:36	14:36:12	995431	5d269fedf6dec40019b87a59	964238172	1	main_slash	11	advance_on_keypress_SLASH	106	stimuli_target_diamondcircles.svg	stimuli_distractor_diamondtriangles.svg	23	yes	57	0	82
6.6.1	win	2022-12-14	14:19:36	14:36:13	996687	5d269fedf6dec40019b87a59	964238172	1	main_slash	11	main_slash	107	stimuli_distractor_trianglediamonds.svg	stimuli_target_trianglecircles.svg	25	yes	53	1	534
6.6.1	win	2022-12-14	14:19:36	14:36:13	996687	5d269fedf6dec40019b87a59	964238172	1	main_slash	11	advance_on_keypress_SLASH	108	stimuli_distractor_trianglediamonds.svg	stimuli_target_trianglecircles.svg	25	yes	57	0	103
6.6.1	win	2022-12-14	14:19:36	14:36:15	997986	5d269fedf6dec40019b87a59	964238172	1	main_slash	11	main_slash	109	stimuli_target_circlediamonds.svg	stimuli_distractor_diamondtriangles.svg	6	yes	53	1	580
6.6.1	win	2022-12-14	14:19:36	14:36:15	997986	5d269fedf6dec40019b87a59	964238172	1	main_slash	11	advance_on_keypress_SLASH	110	stimuli_target_circlediamonds.svg	stimuli_distractor_diamondtriangles.svg	6	yes	57	0	92
6.6.1	win	2022-12-14	14:19:36	14:36:16	999240	5d269fedf6dec40019b87a59	964238172	1	main_slash	11	main_slash	111	stimuli_target_squaretriangles.svg	stimuli_distractor_trianglediamonds.svg	3	yes	53	1	539
6.6.1	win	2022-12-14	14:19:36	14:36:16	999240	5d269fedf6dec40019b87a59	964238172	1	main_slash	11	advance_on_keypress_SLASH	112	stimuli_target_squaretriangles.svg	stimuli_distractor_trianglediamonds.svg	3	yes	57	0	83
6.6.1	win	2022-12-14	14:19:36	14:36:19	1001951	5d269fedf6dec40019b87a59	964238172	1	main_slash	11	main_slash	113	stimuli_distractor_diamondtriangles.svg	stimuli_distractor_trianglediamonds.svg	38	no	0	1	2003
6.6.1	win	2022-12-14	14:19:36	14:36:19	1001951	5d269fedf6dec40019b87a59	964238172	1	main_slash	11	advance_on_keypress_SLASH	114	stimuli_distractor_diamondtriangles.svg	stimuli_distractor_trianglediamonds.svg	38	no	57	0	252
6.6.1	win	2022-12-14	14:19:36	14:36:20	1003411	5d269fedf6dec40019b87a59	964238172	1	main_slash	11	main_slash	115	stimuli_distractor_trianglediamonds.svg	stimuli_target_trianglesquares.svg	26	yes	53	1	583
6.6.1	win	2022-12-14	14:19:36	14:36:20	1003411	5d269fedf6dec40019b87a59	964238172	1	main_slash	11	advance_on_keypress_SLASH	116	stimuli_distractor_trianglediamonds.svg	stimuli_target_trianglesquares.svg	26	yes	57	0	65
6.6.1	win	2022-12-14	14:19:36	14:36:21	1004674	5d269fedf6dec40019b87a59	964238172	1	main_slash	11	main_slash	117	stimuli_distractor_trianglediamonds.svg	stimuli_target_circlediamonds.svg	10	yes	53	1	569
6.6.1	win	2022-12-14	14:19:36	14:36:21	1004674	5d269fedf6dec40019b87a59	964238172	1	main_slash	11	advance_on_keypress_SLASH	118	stimuli_distractor_trianglediamonds.svg	stimuli_target_circlediamonds.svg	10	yes	57	0	72
6.6.1	win	2022-12-14	14:19:36	14:36:23	1005897	5d269fedf6dec40019b87a59	964238172	1	main_slash	11	main_slash	119	stimuli_target_trianglesquares.svg	stimuli_distractor_trianglediamonds.svg	18	yes	53	1	536
6.6.1	win	2022-12-14	14:19:36	14:36:23	1005897	5d269fedf6dec40019b87a59	964238172	1	main_slash	11	advance_on_keypress_SLASH	120	stimuli_target_trianglesquares.svg	stimuli_distractor_trianglediamonds.svg	18	yes	57	0	98
6.6.1	win	2022-12-14	14:19:36	14:36:24	1007130	5d269fedf6dec40019b87a59	964238172	1	main_slash	11	main_slash	121	stimuli_target_circletriangles.svg	stimuli_distractor_trianglediamonds.svg	1	yes	53	1	517
6.6.1	win	2022-12-14	14:19:36	14:36:24	1007130	5d269fedf6dec40019b87a59	964238172	1	main_slash	11	advance_on_keypress_SLASH	122	stimuli_target_circletriangles.svg	stimuli_distractor_trianglediamonds.svg	1	yes	57	0	132
6.6.1	win	2022-12-14	14:19:36	14:36:25	1008426	5d269fedf6dec40019b87a59	964238172	1	main_slash	11	main_slash	123	stimuli_distractor_diamondtriangles.svg	stimuli_target_circletriangles.svg	13	yes	53	1	541
6.6.1	win	2022-12-14	14:19:36	14:36:25	1008426	5d269fedf6dec40019b87a59	964238172	1	main_slash	11	advance_on_keypress_SLASH	124	stimuli_distractor_diamondtriangles.svg	stimuli_target_circletriangles.svg	13	yes	57	0	104
6.6.1	win	2022-12-14	14:19:36	14:36:26	1009718	5d269fedf6dec40019b87a59	964238172	1	main_slash	11	main_slash	125	stimuli_target_squarediamonds.svg	stimuli_distractor_trianglediamonds.svg	4	yes	53	1	537
6.6.1	win	2022-12-14	14:19:36	14:36:26	1009718	5d269fedf6dec40019b87a59	964238172	1	main_slash	11	advance_on_keypress_SLASH	126	stimuli_target_squarediamonds.svg	stimuli_distractor_trianglediamonds.svg	4	yes	57	0	84
6.6.1	win	2022-12-14	14:19:36	14:36:28	1010922	5d269fedf6dec40019b87a59	964238172	1	main_slash	11	main_slash	127	stimuli_target_trianglesquares.svg	stimuli_distractor_diamondtriangles.svg	22	yes	53	1	492
6.6.1	win	2022-12-14	14:19:36	14:36:28	1010922	5d269fedf6dec40019b87a59	964238172	1	main_slash	11	advance_on_keypress_SLASH	128	stimuli_target_trianglesquares.svg	stimuli_distractor_diamondtriangles.svg	22	yes	57	0	106
6.6.1	win	2022-12-14	14:19:36	14:36:29	1012146	5d269fedf6dec40019b87a59	964238172	1	main_slash	11	main_slash	129	stimuli_distractor_diamondtriangles.svg	stimuli_target_diamondcircles.svg	31	yes	53	1	489
6.6.1	win	2022-12-14	14:19:36	14:36:29	1012146	5d269fedf6dec40019b87a59	964238172	1	main_slash	11	advance_on_keypress_SLASH	130	stimuli_distractor_diamondtriangles.svg	stimuli_target_diamondcircles.svg	31	yes	57	0	90
6.6.1	win	2022-12-14	14:19:36	14:36:32	1014856	5d269fedf6dec40019b87a59	964238172	1	main_slash	11	main_slash	131	stimuli_distractor_diamondtriangles.svg	stimuli_distractor_diamondtriangles.svg	40	no	0	1	2003
6.6.1	win	2022-12-14	14:19:36	14:36:32	1014856	5d269fedf6dec40019b87a59	964238172	1	main_slash	11	advance_on_keypress_SLASH	132	stimuli_distractor_diamondtriangles.svg	stimuli_distractor_diamondtriangles.svg	40	no	57	0	285
6.6.1	win	2022-12-14	14:19:36	14:36:33	1016337	5d269fedf6dec40019b87a59	964238172	1	main_slash	11	main_slash	133	stimuli_target_trianglecircles.svg	stimuli_distractor_diamondtriangles.svg	21	yes	53	1	572
6.6.1	win	2022-12-14	14:19:36	14:36:33	1016337	5d269fedf6dec40019b87a59	964238172	1	main_slash	11	advance_on_keypress_SLASH	134	stimuli_target_trianglecircles.svg	stimuli_distractor_diamondtriangles.svg	21	yes	57	0	93
6.6.1	win	2022-12-14	14:19:36	14:36:34	1017642	5d269fedf6dec40019b87a59	964238172	1	main_slash	11	main_slash	135	stimuli_target_squarediamonds.svg	stimuli_distractor_diamondtriangles.svg	8	yes	53	1	590
6.6.1	win	2022-12-14	14:19:36	14:36:34	1017642	5d269fedf6dec40019b87a59	964238172	1	main_slash	11	advance_on_keypress_SLASH	136	stimuli_target_squarediamonds.svg	stimuli_distractor_diamondtriangles.svg	8	yes	57	0	74
6.6.1	win	2022-12-14	14:19:36	14:36:37	1020338	5d269fedf6dec40019b87a59	964238172	1	main_slash	11	main_slash	137	stimuli_distractor_trianglediamonds.svg	stimuli_distractor_diamondtriangles.svg	36	no	0	1	2003
6.6.1	win	2022-12-14	14:19:36	14:36:37	1020338	5d269fedf6dec40019b87a59	964238172	1	main_slash	11	advance_on_keypress_SLASH	138	stimuli_distractor_trianglediamonds.svg	stimuli_distractor_diamondtriangles.svg	36	no	57	0	283
6.6.1	win	2022-12-14	14:19:36	14:36:39	1021818	5d269fedf6dec40019b87a59	964238172	1	main_slash	11	main_slash	139	stimuli_distractor_diamondtriangles.svg	stimuli_target_circlediamonds.svg	14	yes	53	1	565
6.6.1	win	2022-12-14	14:19:36	14:36:39	1021818	5d269fedf6dec40019b87a59	964238172	1	main_slash	11	advance_on_keypress_SLASH	140	stimuli_distractor_diamondtriangles.svg	stimuli_target_circlediamonds.svg	14	yes	57	0	91
6.6.1	win	2022-12-14	14:19:36	14:36:40	1023002	5d269fedf6dec40019b87a59	964238172	1	main_slash	11	main_slash	141	stimuli_target_diamondcircles.svg	stimuli_distractor_trianglediamonds.svg	19	yes	53	1	463
6.6.1	win	2022-12-14	14:19:36	14:36:40	1023002	5d269fedf6dec40019b87a59	964238172	1	main_slash	11	advance_on_keypress_SLASH	142	stimuli_target_diamondcircles.svg	stimuli_distractor_trianglediamonds.svg	19	yes	57	0	100
6.6.1	win	2022-12-14	14:19:36	14:36:41	1024194	5d269fedf6dec40019b87a59	964238172	1	main_slash	11	main_slash	143	stimuli_target_diamondsquares.svg	stimuli_distractor_diamondtriangles.svg	24	yes	53	1	481
6.6.1	win	2022-12-14	14:19:36	14:36:41	1024194	5d269fedf6dec40019b87a59	964238172	1	main_slash	11	advance_on_keypress_SLASH	144	stimuli_target_diamondsquares.svg	stimuli_distractor_diamondtriangles.svg	24	yes	57	0	113
6.6.1	win	2022-12-14	14:19:36	14:36:42	1025402	5d269fedf6dec40019b87a59	964238172	1	main_slash	11	main_slash	145	stimuli_distractor_diamondtriangles.svg	stimuli_target_trianglesquares.svg	30	yes	53	1	473
6.6.1	win	2022-12-14	14:19:36	14:36:42	1025402	5d269fedf6dec40019b87a59	964238172	1	main_slash	11	advance_on_keypress_SLASH	146	stimuli_distractor_diamondtriangles.svg	stimuli_target_trianglesquares.svg	30	yes	57	0	112
6.6.1	win	2022-12-14	14:19:36	14:36:43	1026625	5d269fedf6dec40019b87a59	964238172	1	main_slash	11	main_slash	147	stimuli_distractor_trianglediamonds.svg	stimuli_target_circletriangles.svg	9	yes	53	1	494
6.6.1	win	2022-12-14	14:19:36	14:36:43	1026625	5d269fedf6dec40019b87a59	964238172	1	main_slash	11	advance_on_keypress_SLASH	148	stimuli_distractor_trianglediamonds.svg	stimuli_target_circletriangles.svg	9	yes	57	0	97
6.6.1	win	2022-12-14	14:19:36	14:36:45	1027858	5d269fedf6dec40019b87a59	964238172	1	main_slash	11	main_slash	149	stimuli_distractor_diamondtriangles.svg	stimuli_target_squarediamonds.svg	16	yes	53	1	518
6.6.1	win	2022-12-14	14:19:36	14:36:45	1027858	5d269fedf6dec40019b87a59	964238172	1	main_slash	11	advance_on_keypress_SLASH	150	stimuli_distractor_diamondtriangles.svg	stimuli_target_squarediamonds.svg	16	yes	57	0	99
6.6.1	win	2022-12-14	14:19:36	14:36:46	1029106	5d269fedf6dec40019b87a59	964238172	1	main_slash	11	main_slash	151	stimuli_distractor_diamondtriangles.svg	stimuli_target_squaretriangles.svg	15	yes	53	1	535
6.6.1	win	2022-12-14	14:19:36	14:36:46	1029106	5d269fedf6dec40019b87a59	964238172	1	main_slash	11	advance_on_keypress_SLASH	152	stimuli_distractor_diamondtriangles.svg	stimuli_target_squaretriangles.svg	15	yes	57	0	97
6.6.1	win	2022-12-14	14:19:36	14:36:49	1031824	5d269fedf6dec40019b87a59	964238172	1	main_slash	11	main_slash	153	stimuli_distractor_diamondtriangles.svg	stimuli_distractor_diamondtriangles.svg	39	no	0	1	2003
6.6.1	win	2022-12-14	14:19:36	14:36:49	1031824	5d269fedf6dec40019b87a59	964238172	1	main_slash	11	advance_on_keypress_SLASH	154	stimuli_distractor_diamondtriangles.svg	stimuli_distractor_diamondtriangles.svg	39	no	57	0	277
6.6.1	win	2022-12-14	14:19:36	14:36:50	1033218	5d269fedf6dec40019b87a59	964238172	1	main_slash	11	main_slash	155	stimuli_target_diamondsquares.svg	stimuli_distractor_trianglediamonds.svg	20	yes	53	1	498
6.6.1	win	2022-12-14	14:19:36	14:36:50	1033218	5d269fedf6dec40019b87a59	964238172	1	main_slash	11	advance_on_keypress_SLASH	156	stimuli_target_diamondsquares.svg	stimuli_distractor_trianglediamonds.svg	20	yes	57	0	88
6.6.1	win	2022-12-14	14:19:36	14:36:53	1035924	5d269fedf6dec40019b87a59	964238172	1	main_slash	11	main_slash	157	stimuli_distractor_trianglediamonds.svg	stimuli_distractor_trianglediamonds.svg	33	no	0	1	2003
6.6.1	win	2022-12-14	14:19:36	14:36:53	1035924	5d269fedf6dec40019b87a59	964238172	1	main_slash	11	advance_on_keypress_SLASH	158	stimuli_distractor_trianglediamonds.svg	stimuli_distractor_trianglediamonds.svg	33	no	57	0	289
6.6.1	win	2022-12-14	14:19:36	14:36:54	1037386	5d269fedf6dec40019b87a59	964238172	1	main_slash	11	main_slash	159	stimuli_target_circletriangles.svg	stimuli_distractor_diamondtriangles.svg	5	yes	53	1	561
6.6.1	win	2022-12-14	14:19:36	14:36:54	1037386	5d269fedf6dec40019b87a59	964238172	1	main_slash	11	advance_on_keypress_SLASH	160	stimuli_target_circletriangles.svg	stimuli_distractor_diamondtriangles.svg	5	yes	57	0	61