build	computer.platform	date	time	timestamp	time_elapsed_ms	subject	group	session	blockcode	blocknum	trialcode	trialnum	stimulus_left	stimulus_right	stim_index	target_present	response	correct	latency
6.6.1	win	2022-12-14	15:26:36	15:32:42	357656	5df2f36b617219204de98060	162173154	1	practice_z	5	practice_z	1	stimuli_target_diamondsquares.svg	stimuli_distractor_trianglediamonds.svg	6	yes	44	1	897
6.6.1	win	2022-12-14	15:26:36	15:32:42	357656	5df2f36b617219204de98060	162173154	1	practice_z	5	advance_on_keypress_ZEE	2	stimuli_target_diamondsquares.svg	stimuli_distractor_trianglediamonds.svg	6	yes	57	0	1718
6.6.1	win	2022-12-14	15:26:36	15:32:46	361798	5df2f36b617219204de98060	162173154	1	practice_z	5	practice_z	3	stimuli_target_circlediamonds.svg	stimuli_distractor_diamondtriangles.svg	1	yes	44	1	536
6.6.1	win	2022-12-14	15:26:36	15:32:46	361798	5df2f36b617219204de98060	162173154	1	practice_z	5	advance_on_keypress_ZEE	4	stimuli_target_circlediamonds.svg	stimuli_distractor_diamondtriangles.svg	1	yes	57	0	2909
6.6.1	win	2022-12-14	15:26:36	15:32:51	366981	5df2f36b617219204de98060	162173154	1	practice_z	5	practice_z	5	stimuli_target_squarediamonds.svg	stimuli_distractor_diamondtriangles.svg	2	yes	44	1	589
6.6.1	win	2022-12-14	15:26:36	15:32:51	366981	5df2f36b617219204de98060	162173154	1	practice_z	5	advance_on_keypress_ZEE	6	stimuli_target_squarediamonds.svg	stimuli_distractor_diamondtriangles.svg	2	yes	57	0	733
6.6.1	win	2022-12-14	15:26:36	15:32:55	370189	5df2f36b617219204de98060	162173154	1	practice_z	5	practice_z	7	stimuli_distractor_diamondtriangles.svg	stimuli_distractor_trianglediamonds.svg	14	no	44	0	813
6.6.1	win	2022-12-14	15:26:36	15:32:55	370189	5df2f36b617219204de98060	162173154	1	practice_z	5	advance_on_keypress_ZEE	8	stimuli_distractor_diamondtriangles.svg	stimuli_distractor_trianglediamonds.svg	14	no	57	0	1139
6.6.1	win	2022-12-14	15:26:36	15:32:59	375019	5df2f36b617219204de98060	162173154	1	practice_z	5	practice_z	9	stimuli_distractor_trianglediamonds.svg	stimuli_target_diamondcircles.svg	12	yes	0	0	2000
6.6.1	win	2022-12-14	15:26:36	15:32:59	375019	5df2f36b617219204de98060	162173154	1	practice_z	5	advance_on_keypress_ZEE	10	stimuli_distractor_trianglediamonds.svg	stimuli_target_diamondcircles.svg	12	yes	57	0	483
6.6.1	win	2022-12-14	15:26:36	15:33:04	379291	5df2f36b617219204de98060	162173154	1	practice_z	5	practice_z	11	stimuli_distractor_diamondtriangles.svg	stimuli_distractor_diamondtriangles.svg	13	no	0	1	2000
6.6.1	win	2022-12-14	15:26:36	15:33:04	379291	5df2f36b617219204de98060	162173154	1	practice_z	5	advance_on_keypress_ZEE	12	stimuli_distractor_diamondtriangles.svg	stimuli_distractor_diamondtriangles.svg	13	no	57	0	652
6.6.1	win	2022-12-14	15:26:36	15:33:07	382448	5df2f36b617219204de98060	162173154	1	practice_z	5	practice_z	13	stimuli_target_squarediamonds.svg	stimuli_distractor_trianglediamonds.svg	5	yes	44	1	685
6.6.1	win	2022-12-14	15:26:36	15:33:07	382448	5df2f36b617219204de98060	162173154	1	practice_z	5	advance_on_keypress_ZEE	14	stimuli_target_squarediamonds.svg	stimuli_distractor_trianglediamonds.svg	5	yes	57	0	908
6.6.1	win	2022-12-14	15:26:36	15:33:10	385714	5df2f36b617219204de98060	162173154	1	practice_z	5	practice_z	15	stimuli_distractor_diamondtriangles.svg	stimuli_target_circletriangles.svg	7	yes	44	1	691
6.6.1	win	2022-12-14	15:26:36	15:33:10	385714	5df2f36b617219204de98060	162173154	1	practice_z	5	advance_on_keypress_ZEE	16	stimuli_distractor_diamondtriangles.svg	stimuli_target_circletriangles.svg	7	yes	57	0	479
6.6.1	win	2022-12-14	15:26:36	15:33:14	389871	5df2f36b617219204de98060	162173154	1	practice_z	5	practice_z	17	stimuli_distractor_diamondtriangles.svg	stimuli_target_trianglecircles.svg	9	yes	0	0	2000
6.6.1	win	2022-12-14	15:26:36	15:33:14	389871	5df2f36b617219204de98060	162173154	1	practice_z	5	advance_on_keypress_ZEE	18	stimuli_distractor_diamondtriangles.svg	stimuli_target_trianglecircles.svg	9	yes	57	0	373
6.6.1	win	2022-12-14	15:26:36	15:33:18	393952	5df2f36b617219204de98060	162173154	1	practice_z	5	practice_z	19	stimuli_distractor_trianglediamonds.svg	stimuli_distractor_diamondtriangles.svg	16	no	0	1	2000
6.6.1	win	2022-12-14	15:26:36	15:33:18	393952	5df2f36b617219204de98060	162173154	1	practice_z	5	advance_on_keypress_ZEE	20	stimuli_distractor_trianglediamonds.svg	stimuli_distractor_diamondtriangles.svg	16	no	57	0	446
6.6.1	win	2022-12-14	15:26:36	15:33:22	397129	5df2f36b617219204de98060	162173154	1	practice_z	5	practice_z	21	stimuli_distractor_trianglediamonds.svg	stimuli_target_circlediamonds.svg	10	yes	44	1	855
6.6.1	win	2022-12-14	15:26:36	15:33:22	397129	5df2f36b617219204de98060	162173154	1	practice_z	5	advance_on_keypress_ZEE	22	stimuli_distractor_trianglediamonds.svg	stimuli_target_circlediamonds.svg	10	yes	57	0	533
6.6.1	win	2022-12-14	15:26:36	15:33:25	400225	5df2f36b617219204de98060	162173154	1	practice_z	5	practice_z	23	stimuli_target_circlediamonds.svg	stimuli_distractor_trianglediamonds.svg	4	yes	44	1	588
6.6.1	win	2022-12-14	15:26:36	15:33:25	400225	5df2f36b617219204de98060	162173154	1	practice_z	5	advance_on_keypress_ZEE	24	stimuli_target_circlediamonds.svg	stimuli_distractor_trianglediamonds.svg	4	yes	57	0	519
6.6.1	win	2022-12-14	15:26:36	15:33:29	404411	5df2f36b617219204de98060	162173154	1	practice_z	5	practice_z	25	stimuli_target_diamondsquares.svg	stimuli_distractor_diamondtriangles.svg	3	yes	0	0	2000
6.6.1	win	2022-12-14	15:26:36	15:33:29	404411	5df2f36b617219204de98060	162173154	1	practice_z	5	advance_on_keypress_ZEE	26	stimuli_target_diamondsquares.svg	stimuli_distractor_diamondtriangles.svg	3	yes	57	0	492
6.6.1	win	2022-12-14	15:26:36	15:33:33	408592	5df2f36b617219204de98060	162173154	1	practice_z	5	practice_z	27	stimuli_distractor_diamondtriangles.svg	stimuli_target_diamondcircles.svg	8	yes	0	0	2000
6.6.1	win	2022-12-14	15:26:36	15:33:33	408592	5df2f36b617219204de98060	162173154	1	practice_z	5	advance_on_keypress_ZEE	28	stimuli_distractor_diamondtriangles.svg	stimuli_target_diamondcircles.svg	8	yes	57	0	320
6.6.1	win	2022-12-14	15:26:36	15:33:37	412685	5df2f36b617219204de98060	162173154	1	practice_z	5	practice_z	29	stimuli_distractor_trianglediamonds.svg	stimuli_distractor_trianglediamonds.svg	15	no	0	1	2000
6.6.1	win	2022-12-14	15:26:36	15:33:37	412685	5df2f36b617219204de98060	162173154	1	practice_z	5	advance_on_keypress_ZEE	30	stimuli_distractor_trianglediamonds.svg	stimuli_distractor_trianglediamonds.svg	15	no	57	0	435
6.6.1	win	2022-12-14	15:26:36	15:33:40	415847	5df2f36b617219204de98060	162173154	1	practice_z	5	practice_z	31	stimuli_distractor_trianglediamonds.svg	stimuli_target_squarediamonds.svg	11	yes	44	1	718
6.6.1	win	2022-12-14	15:26:36	15:33:40	415847	5df2f36b617219204de98060	162173154	1	practice_z	5	advance_on_keypress_ZEE	32	stimuli_distractor_trianglediamonds.svg	stimuli_target_squarediamonds.svg	11	yes	57	0	560
6.6.1	win	2022-12-14	15:26:36	15:35:48	543876	5df2f36b617219204de98060	162173154	1	main_z	7	main_z	1	stimuli_distractor_diamondtriangles.svg	stimuli_distractor_trianglediamonds.svg	37	no	0	1	2000
6.6.1	win	2022-12-14	15:26:36	15:35:48	543876	5df2f36b617219204de98060	162173154	1	main_z	7	advance_on_keypress_ZEE	2	stimuli_distractor_diamondtriangles.svg	stimuli_distractor_trianglediamonds.svg	37	no	57	0	1244
6.6.1	win	2022-12-14	15:26:36	15:35:52	547788	5df2f36b617219204de98060	162173154	1	main_z	7	main_z	3	stimuli_distractor_diamondtriangles.svg	stimuli_distractor_diamondtriangles.svg	39	no	0	1	2000
6.6.1	win	2022-12-14	15:26:36	15:35:52	547788	5df2f36b617219204de98060	162173154	1	main_z	7	advance_on_keypress_ZEE	4	stimuli_distractor_diamondtriangles.svg	stimuli_distractor_diamondtriangles.svg	39	no	57	0	468
6.6.1	win	2022-12-14	15:26:36	15:35:55	550914	5df2f36b617219204de98060	162173154	1	main_z	7	main_z	5	stimuli_distractor_diamondtriangles.svg	stimuli_target_trianglesquares.svg	30	yes	0	0	2000
6.6.1	win	2022-12-14	15:26:36	15:35:55	550914	5df2f36b617219204de98060	162173154	1	main_z	7	advance_on_keypress_ZEE	6	stimuli_distractor_diamondtriangles.svg	stimuli_target_trianglesquares.svg	30	yes	57	0	399
6.6.1	win	2022-12-14	15:26:36	15:35:57	552593	5df2f36b617219204de98060	162173154	1	main_z	7	main_z	7	stimuli_target_circletriangles.svg	stimuli_distractor_trianglediamonds.svg	1	yes	44	1	618
6.6.1	win	2022-12-14	15:26:36	15:35:57	552593	5df2f36b617219204de98060	162173154	1	main_z	7	advance_on_keypress_ZEE	8	stimuli_target_circletriangles.svg	stimuli_distractor_trianglediamonds.svg	1	yes	57	0	766
6.6.1	win	2022-12-14	15:26:36	15:35:59	554655	5df2f36b617219204de98060	162173154	1	main_z	7	main_z	9	stimuli_distractor_diamondtriangles.svg	stimuli_target_circlediamonds.svg	14	yes	44	1	421
6.6.1	win	2022-12-14	15:26:36	15:35:59	554655	5df2f36b617219204de98060	162173154	1	main_z	7	advance_on_keypress_ZEE	10	stimuli_distractor_diamondtriangles.svg	stimuli_target_circlediamonds.svg	14	yes	57	0	586
6.6.1	win	2022-12-14	15:26:36	15:36:01	556385	5df2f36b617219204de98060	162173154	1	main_z	7	main_z	11	stimuli_target_diamondcircles.svg	stimuli_distractor_diamondtriangles.svg	23	yes	44	1	394
6.6.1	win	2022-12-14	15:26:36	15:36:01	556385	5df2f36b617219204de98060	162173154	1	main_z	7	advance_on_keypress_ZEE	12	stimuli_target_diamondcircles.svg	stimuli_distractor_diamondtriangles.svg	23	yes	57	0	507
6.6.1	win	2022-12-14	15:26:36	15:36:03	558262	5df2f36b617219204de98060	162173154	1	main_z	7	main_z	13	stimuli_target_squarediamonds.svg	stimuli_distractor_trianglediamonds.svg	4	yes	44	1	567
6.6.1	win	2022-12-14	15:26:36	15:36:03	558262	5df2f36b617219204de98060	162173154	1	main_z	7	advance_on_keypress_ZEE	14	stimuli_target_squarediamonds.svg	stimuli_distractor_trianglediamonds.svg	4	yes	57	0	466
6.6.1	win	2022-12-14	15:26:36	15:36:04	560005	5df2f36b617219204de98060	162173154	1	main_z	7	main_z	15	stimuli_target_circlediamonds.svg	stimuli_distractor_trianglediamonds.svg	2	yes	44	1	526
6.6.1	win	2022-12-14	15:26:36	15:36:04	560005	5df2f36b617219204de98060	162173154	1	main_z	7	advance_on_keypress_ZEE	16	stimuli_target_circlediamonds.svg	stimuli_distractor_trianglediamonds.svg	2	yes	57	0	343
6.6.1	win	2022-12-14	15:26:36	15:36:07	563018	5df2f36b617219204de98060	162173154	1	main_z	7	main_z	17	stimuli_distractor_trianglediamonds.svg	stimuli_distractor_trianglediamonds.svg	33	no	0	1	2000
6.6.1	win	2022-12-14	15:26:36	15:36:07	563018	5df2f36b617219204de98060	162173154	1	main_z	7	advance_on_keypress_ZEE	18	stimuli_distractor_trianglediamonds.svg	stimuli_distractor_trianglediamonds.svg	33	no	57	0	485
6.6.1	win	2022-12-14	15:26:36	15:36:11	566162	5df2f36b617219204de98060	162173154	1	main_z	7	main_z	19	stimuli_distractor_diamondtriangles.svg	stimuli_distractor_diamondtriangles.svg	40	no	0	1	2000
6.6.1	win	2022-12-14	15:26:36	15:36:11	566162	5df2f36b617219204de98060	162173154	1	main_z	7	advance_on_keypress_ZEE	20	stimuli_distractor_diamondtriangles.svg	stimuli_distractor_diamondtriangles.svg	40	no	57	0	390
6.6.1	win	2022-12-14	15:26:36	15:36:12	567696	5df2f36b617219204de98060	162173154	1	main_z	7	main_z	21	stimuli_target_circletriangles.svg	stimuli_distractor_diamondtriangles.svg	5	yes	44	1	492
6.6.1	win	2022-12-14	15:26:36	15:36:12	567696	5df2f36b617219204de98060	162173154	1	main_z	7	advance_on_keypress_ZEE	22	stimuli_target_circletriangles.svg	stimuli_distractor_diamondtriangles.svg	5	yes	57	0	541
6.6.1	win	2022-12-14	15:26:36	15:36:14	569361	5df2f36b617219204de98060	162173154	1	main_z	7	main_z	23	stimuli_target_squaretriangles.svg	stimuli_distractor_trianglediamonds.svg	3	yes	44	1	468
6.6.1	win	2022-12-14	15:26:36	15:36:14	569361	5df2f36b617219204de98060	162173154	1	main_z	7	advance_on_keypress_ZEE	24	stimuli_target_squaretriangles.svg	stimuli_distractor_trianglediamonds.svg	3	yes	57	0	405
6.6.1	win	2022-12-14	15:26:36	15:36:15	570811	5df2f36b617219204de98060	162173154	1	main_z	7	main_z	25	stimuli_target_squaretriangles.svg	stimuli_distractor_diamondtriangles.svg	7	yes	44	1	378
6.6.1	win	2022-12-14	15:26:36	15:36:15	570811	5df2f36b617219204de98060	162173154	1	main_z	7	advance_on_keypress_ZEE	26	stimuli_target_squaretriangles.svg	stimuli_distractor_diamondtriangles.svg	7	yes	57	0	414
6.6.1	win	2022-12-14	15:26:36	15:36:17	572828	5df2f36b617219204de98060	162173154	1	main_z	7	main_z	27	stimuli_distractor_diamondtriangles.svg	stimuli_target_trianglecircles.svg	29	yes	44	1	914
6.6.1	win	2022-12-14	15:26:36	15:36:17	572828	5df2f36b617219204de98060	162173154	1	main_z	7	advance_on_keypress_ZEE	28	stimuli_distractor_diamondtriangles.svg	stimuli_target_trianglecircles.svg	29	yes	57	0	432
6.6.1	win	2022-12-14	15:26:36	15:36:21	576111	5df2f36b617219204de98060	162173154	1	main_z	7	main_z	29	stimuli_target_diamondsquares.svg	stimuli_distractor_diamondtriangles.svg	24	yes	0	0	2000
6.6.1	win	2022-12-14	15:26:36	15:36:21	576111	5df2f36b617219204de98060	162173154	1	main_z	7	advance_on_keypress_ZEE	30	stimuli_target_diamondsquares.svg	stimuli_distractor_diamondtriangles.svg	24	yes	57	0	454
6.6.1	win	2022-12-14	15:26:36	15:36:24	579270	5df2f36b617219204de98060	162173154	1	main_z	7	main_z	31	stimuli_distractor_trianglediamonds.svg	stimuli_distractor_diamondtriangles.svg	36	no	0	1	2000
6.6.1	win	2022-12-14	15:26:36	15:36:24	579270	5df2f36b617219204de98060	162173154	1	main_z	7	advance_on_keypress_ZEE	32	stimuli_distractor_trianglediamonds.svg	stimuli_distractor_diamondtriangles.svg	36	no	57	0	341
6.6.1	win	2022-12-14	15:26:36	15:36:25	580842	5df2f36b617219204de98060	162173154	1	main_z	7	main_z	33	stimuli_distractor_diamondtriangles.svg	stimuli_target_squarediamonds.svg	16	yes	44	1	510
6.6.1	win	2022-12-14	15:26:36	15:36:25	580842	5df2f36b617219204de98060	162173154	1	main_z	7	advance_on_keypress_ZEE	34	stimuli_distractor_diamondtriangles.svg	stimuli_target_squarediamonds.svg	16	yes	57	0	567
6.6.1	win	2022-12-14	15:26:36	15:36:27	582615	5df2f36b617219204de98060	162173154	1	main_z	7	main_z	35	stimuli_distractor_trianglediamonds.svg	stimuli_target_squaretriangles.svg	11	yes	44	1	509
6.6.1	win	2022-12-14	15:26:36	15:36:27	582615	5df2f36b617219204de98060	162173154	1	main_z	7	advance_on_keypress_ZEE	36	stimuli_distractor_trianglediamonds.svg	stimuli_target_squaretriangles.svg	11	yes	57	0	347
6.6.1	win	2022-12-14	15:26:36	15:36:28	584033	5df2f36b617219204de98060	162173154	1	main_z	7	main_z	37	stimuli_distractor_diamondtriangles.svg	stimuli_target_squaretriangles.svg	15	yes	44	1	410
6.6.1	win	2022-12-14	15:26:36	15:36:28	584033	5df2f36b617219204de98060	162173154	1	main_z	7	advance_on_keypress_ZEE	38	stimuli_distractor_diamondtriangles.svg	stimuli_target_squaretriangles.svg	15	yes	57	0	334
6.6.1	win	2022-12-14	15:26:36	15:36:30	585500	5df2f36b617219204de98060	162173154	1	main_z	7	main_z	39	stimuli_target_squarediamonds.svg	stimuli_distractor_diamondtriangles.svg	8	yes	44	1	464
6.6.1	win	2022-12-14	15:26:36	15:36:30	585500	5df2f36b617219204de98060	162173154	1	main_z	7	advance_on_keypress_ZEE	40	stimuli_target_squarediamonds.svg	stimuli_distractor_diamondtriangles.svg	8	yes	57	0	336
6.6.1	win	2022-12-14	15:26:36	15:36:31	586912	5df2f36b617219204de98060	162173154	1	main_z	7	main_z	41	stimuli_distractor_trianglediamonds.svg	stimuli_target_diamondcircles.svg	27	yes	44	1	414
6.6.1	win	2022-12-14	15:26:36	15:36:31	586912	5df2f36b617219204de98060	162173154	1	main_z	7	advance_on_keypress_ZEE	42	stimuli_distractor_trianglediamonds.svg	stimuli_target_diamondcircles.svg	27	yes	57	0	399
6.6.1	win	2022-12-14	15:26:36	15:36:33	588424	5df2f36b617219204de98060	162173154	1	main_z	7	main_z	43	stimuli_distractor_trianglediamonds.svg	stimuli_target_circletriangles.svg	9	yes	44	1	455
6.6.1	win	2022-12-14	15:26:36	15:36:33	588424	5df2f36b617219204de98060	162173154	1	main_z	7	advance_on_keypress_ZEE	44	stimuli_distractor_trianglediamonds.svg	stimuli_target_circletriangles.svg	9	yes	57	0	361
6.6.1	win	2022-12-14	15:26:36	15:36:35	590188	5df2f36b617219204de98060	162173154	1	main_z	7	main_z	45	stimuli_target_trianglesquares.svg	stimuli_distractor_trianglediamonds.svg	18	yes	44	1	635
6.6.1	win	2022-12-14	15:26:36	15:36:35	590188	5df2f36b617219204de98060	162173154	1	main_z	7	advance_on_keypress_ZEE	46	stimuli_target_trianglesquares.svg	stimuli_distractor_trianglediamonds.svg	18	yes	57	0	469
6.6.1	win	2022-12-14	15:26:36	15:36:36	591913	5df2f36b617219204de98060	162173154	1	main_z	7	main_z	47	stimuli_target_circlediamonds.svg	stimuli_distractor_diamondtriangles.svg	6	yes	44	1	392
6.6.1	win	2022-12-14	15:26:36	15:36:36	591913	5df2f36b617219204de98060	162173154	1	main_z	7	advance_on_keypress_ZEE	48	stimuli_target_circlediamonds.svg	stimuli_distractor_diamondtriangles.svg	6	yes	57	0	347
6.6.1	win	2022-12-14	15:26:36	15:36:38	593548	5df2f36b617219204de98060	162173154	1	main_z	7	main_z	49	stimuli_distractor_diamondtriangles.svg	stimuli_target_diamondcircles.svg	31	yes	44	1	531
6.6.1	win	2022-12-14	15:26:36	15:36:38	593548	5df2f36b617219204de98060	162173154	1	main_z	7	advance_on_keypress_ZEE	50	stimuli_distractor_diamondtriangles.svg	stimuli_target_diamondcircles.svg	31	yes	57	0	332
6.6.1	win	2022-12-14	15:26:36	15:36:40	595193	5df2f36b617219204de98060	162173154	1	main_z	7	main_z	51	stimuli_distractor_trianglediamonds.svg	stimuli_target_circlediamonds.svg	10	yes	44	1	451
6.6.1	win	2022-12-14	15:26:36	15:36:40	595193	5df2f36b617219204de98060	162173154	1	main_z	7	advance_on_keypress_ZEE	52	stimuli_distractor_trianglediamonds.svg	stimuli_target_circlediamonds.svg	10	yes	57	0	286
6.6.1	win	2022-12-14	15:26:36	15:36:41	596902	5df2f36b617219204de98060	162173154	1	main_z	7	main_z	53	stimuli_distractor_diamondtriangles.svg	stimuli_distractor_trianglediamonds.svg	38	no	44	0	615
6.6.1	win	2022-12-14	15:26:36	15:36:41	596902	5df2f36b617219204de98060	162173154	1	main_z	7	advance_on_keypress_ZEE	54	stimuli_distractor_diamondtriangles.svg	stimuli_distractor_trianglediamonds.svg	38	no	57	0	405
6.6.1	win	2022-12-14	15:26:36	15:36:43	598720	5df2f36b617219204de98060	162173154	1	main_z	7	main_z	55	stimuli_distractor_trianglediamonds.svg	stimuli_target_trianglecircles.svg	25	yes	44	1	743
6.6.1	win	2022-12-14	15:26:36	15:36:43	598720	5df2f36b617219204de98060	162173154	1	main_z	7	advance_on_keypress_ZEE	56	stimuli_distractor_trianglediamonds.svg	stimuli_target_trianglecircles.svg	25	yes	57	0	358
6.6.1	win	2022-12-14	15:26:36	15:36:45	600607	5df2f36b617219204de98060	162173154	1	main_z	7	main_z	57	stimuli_target_trianglesquares.svg	stimuli_distractor_diamondtriangles.svg	22	yes	44	1	676
6.6.1	win	2022-12-14	15:26:36	15:36:45	600607	5df2f36b617219204de98060	162173154	1	main_z	7	advance_on_keypress_ZEE	58	stimuli_target_trianglesquares.svg	stimuli_distractor_diamondtriangles.svg	22	yes	57	0	377
6.6.1	win	2022-12-14	15:26:36	15:36:47	602349	5df2f36b617219204de98060	162173154	1	main_z	7	main_z	59	stimuli_target_diamondsquares.svg	stimuli_distractor_trianglediamonds.svg	20	yes	44	1	568
6.6.1	win	2022-12-14	15:26:36	15:36:47	602349	5df2f36b617219204de98060	162173154	1	main_z	7	advance_on_keypress_ZEE	60	stimuli_target_diamondsquares.svg	stimuli_distractor_trianglediamonds.svg	20	yes	57	0	402
6.6.1	win	2022-12-14	15:26:36	15:36:49	604115	5df2f36b617219204de98060	162173154	1	main_z	7	main_z	61	stimuli_target_trianglecircles.svg	stimuli_distractor_trianglediamonds.svg	17	yes	44	1	630
6.6.1	win	2022-12-14	15:26:36	15:36:49	604115	5df2f36b617219204de98060	162173154	1	main_z	7	advance_on_keypress_ZEE	62	stimuli_target_trianglecircles.svg	stimuli_distractor_trianglediamonds.svg	17	yes	57	0	349
6.6.1	win	2022-12-14	15:26:36	15:36:50	605928	5df2f36b617219204de98060	162173154	1	main_z	7	main_z	63	stimuli_target_trianglecircles.svg	stimuli_distractor_diamondtriangles.svg	21	yes	44	1	744
6.6.1	win	2022-12-14	15:26:36	15:36:50	605928	5df2f36b617219204de98060	162173154	1	main_z	7	advance_on_keypress_ZEE	64	stimuli_target_trianglecircles.svg	stimuli_distractor_diamondtriangles.svg	21	yes	57	0	287
6.6.1	win	2022-12-14	15:26:36	15:36:52	607717	5df2f36b617219204de98060	162173154	1	main_z	7	main_z	65	stimuli_distractor_trianglediamonds.svg	stimuli_target_trianglesquares.svg	26	yes	44	1	755
6.6.1	win	2022-12-14	15:26:36	15:36:52	607717	5df2f36b617219204de98060	162173154	1	main_z	7	advance_on_keypress_ZEE	66	stimuli_distractor_trianglediamonds.svg	stimuli_target_trianglesquares.svg	26	yes	57	0	347
6.6.1	win	2022-12-14	15:26:36	15:36:55	610913	5df2f36b617219204de98060	162173154	1	main_z	7	main_z	67	stimuli_distractor_trianglediamonds.svg	stimuli_distractor_diamondtriangles.svg	35	no	0	1	2000
6.6.1	win	2022-12-14	15:26:36	15:36:55	610913	5df2f36b617219204de98060	162173154	1	main_z	7	advance_on_keypress_ZEE	68	stimuli_distractor_trianglediamonds.svg	stimuli_distractor_diamondtriangles.svg	35	no	57	0	385
6.6.1	win	2022-12-14	15:26:36	15:36:57	612696	5df2f36b617219204de98060	162173154	1	main_z	7	main_z	69	stimuli_distractor_diamondtriangles.svg	stimuli_target_circletriangles.svg	13	yes	44	1	687
6.6.1	win	2022-12-14	15:26:36	15:36:57	612696	5df2f36b617219204de98060	162173154	1	main_z	7	advance_on_keypress_ZEE	70	stimuli_distractor_diamondtriangles.svg	stimuli_target_circletriangles.svg	13	yes	57	0	493
6.6.1	win	2022-12-14	15:26:36	15:37:00	615883	5df2f36b617219204de98060	162173154	1	main_z	7	main_z	71	stimuli_distractor_trianglediamonds.svg	stimuli_target_diamondsquares.svg	28	yes	0	0	2000
6.6.1	win	2022-12-14	15:26:36	15:37:00	615883	5df2f36b617219204de98060	162173154	1	main_z	7	advance_on_keypress_ZEE	72	stimuli_distractor_trianglediamonds.svg	stimuli_target_diamondsquares.svg	28	yes	57	0	299
6.6.1	win	2022-12-14	15:26:36	15:37:03	618851	5df2f36b617219204de98060	162173154	1	main_z	7	main_z	73	stimuli_distractor_trianglediamonds.svg	stimuli_distractor_trianglediamonds.svg	34	no	0	1	2000
6.6.1	win	2022-12-14	15:26:36	15:37:03	618851	5df2f36b617219204de98060	162173154	1	main_z	7	advance_on_keypress_ZEE	74	stimuli_distractor_trianglediamonds.svg	stimuli_distractor_trianglediamonds.svg	34	no	57	0	292
6.6.1	win	2022-12-14	15:26:36	15:37:05	620904	5df2f36b617219204de98060	162173154	1	main_z	7	main_z	75	stimuli_distractor_trianglediamonds.svg	stimuli_target_squarediamonds.svg	12	yes	44	1	1101
6.6.1	win	2022-12-14	15:26:36	15:37:05	620904	5df2f36b617219204de98060	162173154	1	main_z	7	advance_on_keypress_ZEE	76	stimuli_distractor_trianglediamonds.svg	stimuli_target_squarediamonds.svg	12	yes	57	0	1035
6.6.1	win	2022-12-14	15:26:36	15:37:08	623408	5df2f36b617219204de98060	162173154	1	main_z	7	main_z	77	stimuli_target_diamondcircles.svg	stimuli_distractor_trianglediamonds.svg	19	yes	44	1	813
6.6.1	win	2022-12-14	15:26:36	15:37:08	623408	5df2f36b617219204de98060	162173154	1	main_z	7	advance_on_keypress_ZEE	78	stimuli_target_diamondcircles.svg	stimuli_distractor_trianglediamonds.svg	19	yes	57	0	616
6.6.1	win	2022-12-14	15:26:36	15:37:11	626131	5df2f36b617219204de98060	162173154	1	main_z	7	main_z	79	stimuli_distractor_diamondtriangles.svg	stimuli_target_diamondsquares.svg	32	yes	44	1	1089
6.6.1	win	2022-12-14	15:26:36	15:37:11	626131	5df2f36b617219204de98060	162173154	1	main_z	7	advance_on_keypress_ZEE	80	stimuli_distractor_diamondtriangles.svg	stimuli_target_diamondsquares.svg	32	yes	57	0	530
6.6.1	win	2022-12-14	15:26:36	15:37:13	628524	5df2f36b617219204de98060	162173154	1	main_z	7	main_z	81	stimuli_target_squarediamonds.svg	stimuli_distractor_trianglediamonds.svg	4	yes	44	1	1076
6.6.1	win	2022-12-14	15:26:36	15:37:13	628524	5df2f36b617219204de98060	162173154	1	main_z	7	advance_on_keypress_ZEE	82	stimuli_target_squarediamonds.svg	stimuli_distractor_trianglediamonds.svg	4	yes	57	0	563
6.6.1	win	2022-12-14	15:26:36	15:37:15	630616	5df2f36b617219204de98060	162173154	1	main_z	7	main_z	83	stimuli_target_diamondcircles.svg	stimuli_distractor_diamondtriangles.svg	23	yes	44	1	818
6.6.1	win	2022-12-14	15:26:36	15:37:15	630616	5df2f36b617219204de98060	162173154	1	main_z	7	advance_on_keypress_ZEE	84	stimuli_target_diamondcircles.svg	stimuli_distractor_diamondtriangles.svg	23	yes	57	0	482
6.6.1	win	2022-12-14	15:26:36	15:37:17	632521	5df2f36b617219204de98060	162173154	1	main_z	7	main_z	85	stimuli_target_trianglesquares.svg	stimuli_distractor_diamondtriangles.svg	22	yes	44	1	765
6.6.1	win	2022-12-14	15:26:36	15:37:17	632521	5df2f36b617219204de98060	162173154	1	main_z	7	advance_on_keypress_ZEE	86	stimuli_target_trianglesquares.svg	stimuli_distractor_diamondtriangles.svg	22	yes	57	0	408
6.6.1	win	2022-12-14	15:26:36	15:37:19	634595	5df2f36b617219204de98060	162173154	1	main_z	7	main_z	87	stimuli_distractor_trianglediamonds.svg	stimuli_target_squaretriangles.svg	11	yes	44	1	996
6.6.1	win	2022-12-14	15:26:36	15:37:19	634595	5df2f36b617219204de98060	162173154	1	main_z	7	advance_on_keypress_ZEE	88	stimuli_distractor_trianglediamonds.svg	stimuli_target_squaretriangles.svg	11	yes	57	0	400
6.6.1	win	2022-12-14	15:26:36	15:37:22	637669	5df2f36b617219204de98060	162173154	1	main_z	7	main_z	89	stimuli_distractor_diamondtriangles.svg	stimuli_distractor_trianglediamonds.svg	38	no	0	1	2000
6.6.1	win	2022-12-14	15:26:36	15:37:22	637669	5df2f36b617219204de98060	162173154	1	main_z	7	advance_on_keypress_ZEE	90	stimuli_distractor_diamondtriangles.svg	stimuli_distractor_trianglediamonds.svg	38	no	57	0	338
6.6.1	win	2022-12-14	15:26:36	15:37:24	639256	5df2f36b617219204de98060	162173154	1	main_z	7	main_z	91	stimuli_distractor_trianglediamonds.svg	stimuli_target_squarediamonds.svg	12	yes	44	1	588
6.6.1	win	2022-12-14	15:26:36	15:37:24	639256	5df2f36b617219204de98060	162173154	1	main_z	7	advance_on_keypress_ZEE	92	stimuli_distractor_trianglediamonds.svg	stimuli_target_squarediamonds.svg	12	yes	57	0	375
6.6.1	win	2022-12-14	15:26:36	15:37:27	642316	5df2f36b617219204de98060	162173154	1	main_z	7	main_z	93	stimuli_distractor_diamondtriangles.svg	stimuli_target_diamondsquares.svg	32	yes	0	0	2000
6.6.1	win	2022-12-14	15:26:36	15:37:27	642316	5df2f36b617219204de98060	162173154	1	main_z	7	advance_on_keypress_ZEE	94	stimuli_distractor_diamondtriangles.svg	stimuli_target_diamondsquares.svg	32	yes	57	0	290
6.6.1	win	2022-12-14	15:26:36	15:37:29	644426	5df2f36b617219204de98060	162173154	1	main_z	7	main_z	95	stimuli_target_diamondsquares.svg	stimuli_distractor_trianglediamonds.svg	20	yes	44	1	1148
6.6.1	win	2022-12-14	15:26:36	15:37:29	644426	5df2f36b617219204de98060	162173154	1	main_z	7	advance_on_keypress_ZEE	96	stimuli_target_diamondsquares.svg	stimuli_distractor_trianglediamonds.svg	20	yes	57	0	492
6.6.1	win	2022-12-14	15:26:36	15:37:31	646995	5df2f36b617219204de98060	162173154	1	main_z	7	main_z	97	stimuli_target_circlediamonds.svg	stimuli_distractor_trianglediamonds.svg	2	yes	44	1	1303
6.6.1	win	2022-12-14	15:26:36	15:37:31	646995	5df2f36b617219204de98060	162173154	1	main_z	7	advance_on_keypress_ZEE	98	stimuli_target_circlediamonds.svg	stimuli_distractor_trianglediamonds.svg	2	yes	57	0	481
6.6.1	win	2022-12-14	15:26:36	15:37:34	649345	5df2f36b617219204de98060	162173154	1	main_z	7	main_z	99	stimuli_target_circletriangles.svg	stimuli_distractor_diamondtriangles.svg	5	yes	44	1	1071
6.6.1	win	2022-12-14	15:26:36	15:37:34	649345	5df2f36b617219204de98060	162173154	1	main_z	7	advance_on_keypress_ZEE	100	stimuli_target_circletriangles.svg	stimuli_distractor_diamondtriangles.svg	5	yes	57	0	576
6.6.1	win	2022-12-14	15:26:36	15:37:36	651994	5df2f36b617219204de98060	162173154	1	main_z	7	main_z	101	stimuli_distractor_diamondtriangles.svg	stimuli_target_circletriangles.svg	13	yes	44	1	1242
6.6.1	win	2022-12-14	15:26:36	15:37:36	651994	5df2f36b617219204de98060	162173154	1	main_z	7	advance_on_keypress_ZEE	102	stimuli_distractor_diamondtriangles.svg	stimuli_target_circletriangles.svg	13	yes	57	0	498
6.6.1	win	2022-12-14	15:26:36	15:37:39	654103	5df2f36b617219204de98060	162173154	1	main_z	7	main_z	103	stimuli_distractor_trianglediamonds.svg	stimuli_target_circletriangles.svg	9	yes	44	1	896
6.6.1	win	2022-12-14	15:26:36	15:37:39	654103	5df2f36b617219204de98060	162173154	1	main_z	7	advance_on_keypress_ZEE	104	stimuli_distractor_trianglediamonds.svg	stimuli_target_circletriangles.svg	9	yes	57	0	519
6.6.1	win	2022-12-14	15:26:36	15:37:41	656116	5df2f36b617219204de98060	162173154	1	main_z	7	main_z	105	stimuli_distractor_trianglediamonds.svg	stimuli_target_diamondcircles.svg	27	yes	44	1	766
6.6.1	win	2022-12-14	15:26:36	15:37:41	656116	5df2f36b617219204de98060	162173154	1	main_z	7	advance_on_keypress_ZEE	106	stimuli_distractor_trianglediamonds.svg	stimuli_target_diamondcircles.svg	27	yes	57	0	481
6.6.1	win	2022-12-14	15:26:36	15:37:42	657951	5df2f36b617219204de98060	162173154	1	main_z	7	main_z	107	stimuli_distractor_diamondtriangles.svg	stimuli_target_diamondcircles.svg	31	yes	44	1	610
6.6.1	win	2022-12-14	15:26:36	15:37:42	657951	5df2f36b617219204de98060	162173154	1	main_z	7	advance_on_keypress_ZEE	108	stimuli_distractor_diamondtriangles.svg	stimuli_target_diamondcircles.svg	31	yes	57	0	434
6.6.1	win	2022-12-14	15:26:36	15:37:44	660063	5df2f36b617219204de98060	162173154	1	main_z	7	main_z	109	stimuli_distractor_trianglediamonds.svg	stimuli_target_diamondsquares.svg	28	yes	44	1	1022
6.6.1	win	2022-12-14	15:26:36	15:37:44	660063	5df2f36b617219204de98060	162173154	1	main_z	7	advance_on_keypress_ZEE	110	stimuli_distractor_trianglediamonds.svg	stimuli_target_diamondsquares.svg	28	yes	57	0	432
6.6.1	win	2022-12-14	15:26:36	15:37:48	663148	5df2f36b617219204de98060	162173154	1	main_z	7	main_z	111	stimuli_distractor_diamondtriangles.svg	stimuli_distractor_trianglediamonds.svg	37	no	0	1	2000
6.6.1	win	2022-12-14	15:26:36	15:37:48	663148	5df2f36b617219204de98060	162173154	1	main_z	7	advance_on_keypress_ZEE	112	stimuli_distractor_diamondtriangles.svg	stimuli_distractor_trianglediamonds.svg	37	no	57	0	299
6.6.1	win	2022-12-14	15:26:36	15:37:49	664823	5df2f36b617219204de98060	162173154	1	main_z	7	main_z	113	stimuli_target_circletriangles.svg	stimuli_distractor_trianglediamonds.svg	1	yes	44	1	684
6.6.1	win	2022-12-14	15:26:36	15:37:49	664823	5df2f36b617219204de98060	162173154	1	main_z	7	advance_on_keypress_ZEE	114	stimuli_target_circletriangles.svg	stimuli_distractor_trianglediamonds.svg	1	yes	57	0	467
6.6.1	win	2022-12-14	15:26:36	15:37:53	668309	5df2f36b617219204de98060	162173154	1	main_z	7	main_z	115	stimuli_target_diamondsquares.svg	stimuli_distractor_diamondtriangles.svg	24	yes	0	0	2000
6.6.1	win	2022-12-14	15:26:36	15:37:53	668309	5df2f36b617219204de98060	162173154	1	main_z	7	advance_on_keypress_ZEE	116	stimuli_target_diamondsquares.svg	stimuli_distractor_diamondtriangles.svg	24	yes	57	0	363
6.6.1	win	2022-12-14	15:26:36	15:37:54	670006	5df2f36b617219204de98060	162173154	1	main_z	7	main_z	117	stimuli_distractor_diamondtriangles.svg	stimuli_target_squaretriangles.svg	15	yes	44	1	568
6.6.1	win	2022-12-14	15:26:36	15:37:54	670006	5df2f36b617219204de98060	162173154	1	main_z	7	advance_on_keypress_ZEE	118	stimuli_distractor_diamondtriangles.svg	stimuli_target_squaretriangles.svg	15	yes	57	0	332
6.6.1	win	2022-12-14	15:26:36	15:37:56	671610	5df2f36b617219204de98060	162173154	1	main_z	7	main_z	119	stimuli_target_squarediamonds.svg	stimuli_distractor_diamondtriangles.svg	8	yes	44	1	547
6.6.1	win	2022-12-14	15:26:36	15:37:56	671610	5df2f36b617219204de98060	162173154	1	main_z	7	advance_on_keypress_ZEE	120	stimuli_target_squarediamonds.svg	stimuli_distractor_diamondtriangles.svg	8	yes	57	0	279
6.6.1	win	2022-12-14	15:26:36	15:37:59	674550	5df2f36b617219204de98060	162173154	1	main_z	7	main_z	121	stimuli_distractor_diamondtriangles.svg	stimuli_distractor_diamondtriangles.svg	40	no	0	1	2000
6.6.1	win	2022-12-14	15:26:36	15:37:59	674550	5df2f36b617219204de98060	162173154	1	main_z	7	advance_on_keypress_ZEE	122	stimuli_distractor_diamondtriangles.svg	stimuli_distractor_diamondtriangles.svg	40	no	57	0	288
6.6.1	win	2022-12-14	15:26:36	15:38:00	675959	5df2f36b617219204de98060	162173154	1	main_z	7	main_z	123	stimuli_target_diamondcircles.svg	stimuli_distractor_trianglediamonds.svg	19	yes	44	1	467
6.6.1	win	2022-12-14	15:26:36	15:38:00	675959	5df2f36b617219204de98060	162173154	1	main_z	7	advance_on_keypress_ZEE	124	stimuli_target_diamondcircles.svg	stimuli_distractor_trianglediamonds.svg	19	yes	57	0	356
6.6.1	win	2022-12-14	15:26:36	15:38:03	678981	5df2f36b617219204de98060	162173154	1	main_z	7	main_z	125	stimuli_distractor_trianglediamonds.svg	stimuli_distractor_diamondtriangles.svg	35	no	0	1	2000
6.6.1	win	2022-12-14	15:26:36	15:38:03	678981	5df2f36b617219204de98060	162173154	1	main_z	7	advance_on_keypress_ZEE	126	stimuli_distractor_trianglediamonds.svg	stimuli_distractor_diamondtriangles.svg	35	no	57	0	290
6.6.1	win	2022-12-14	15:26:36	15:38:05	680759	5df2f36b617219204de98060	162173154	1	main_z	7	main_z	127	stimuli_distractor_diamondtriangles.svg	stimuli_target_trianglesquares.svg	30	yes	44	1	830
6.6.1	win	2022-12-14	15:26:36	15:38:05	680759	5df2f36b617219204de98060	162173154	1	main_z	7	advance_on_keypress_ZEE	128	stimuli_distractor_diamondtriangles.svg	stimuli_target_trianglesquares.svg	30	yes	57	0	333
6.6.1	win	2022-12-14	15:26:36	15:38:07	682276	5df2f36b617219204de98060	162173154	1	main_z	7	main_z	129	stimuli_target_circlediamonds.svg	stimuli_distractor_diamondtriangles.svg	6	yes	44	1	526
6.6.1	win	2022-12-14	15:26:36	15:38:07	682276	5df2f36b617219204de98060	162173154	1	main_z	7	advance_on_keypress_ZEE	130	stimuli_target_circlediamonds.svg	stimuli_distractor_diamondtriangles.svg	6	yes	57	0	276
6.6.1	win	2022-12-14	15:26:36	15:38:08	683575	5df2f36b617219204de98060	162173154	1	main_z	7	main_z	131	stimuli_distractor_trianglediamonds.svg	stimuli_target_trianglesquares.svg	26	yes	44	1	359
6.6.1	win	2022-12-14	15:26:36	15:38:08	683575	5df2f36b617219204de98060	162173154	1	main_z	7	advance_on_keypress_ZEE	132	stimuli_distractor_trianglediamonds.svg	stimuli_target_trianglesquares.svg	26	yes	57	0	2133
6.6.1	win	2022-12-14	15:26:36	15:38:12	687724	5df2f36b617219204de98060	162173154	1	main_z	7	main_z	133	stimuli_distractor_diamondtriangles.svg	stimuli_target_trianglecircles.svg	29	yes	44	1	1100
6.6.1	win	2022-12-14	15:26:36	15:38:12	687724	5df2f36b617219204de98060	162173154	1	main_z	7	advance_on_keypress_ZEE	134	stimuli_distractor_diamondtriangles.svg	stimuli_target_trianglecircles.svg	29	yes	57	0	451
6.6.1	win	2022-12-14	15:26:36	15:38:14	689588	5df2f36b617219204de98060	162173154	1	main_z	7	main_z	135	stimuli_target_trianglecircles.svg	stimuli_distractor_diamondtriangles.svg	21	yes	44	1	527
6.6.1	win	2022-12-14	15:26:36	15:38:14	689588	5df2f36b617219204de98060	162173154	1	main_z	7	advance_on_keypress_ZEE	136	stimuli_target_trianglecircles.svg	stimuli_distractor_diamondtriangles.svg	21	yes	57	0	285
6.6.1	win	2022-12-14	15:26:36	15:38:17	692776	5df2f36b617219204de98060	162173154	1	main_z	7	main_z	137	stimuli_distractor_trianglediamonds.svg	stimuli_distractor_trianglediamonds.svg	34	no	0	1	2000
6.6.1	win	2022-12-14	15:26:36	15:38:17	692776	5df2f36b617219204de98060	162173154	1	main_z	7	advance_on_keypress_ZEE	138	stimuli_distractor_trianglediamonds.svg	stimuli_distractor_trianglediamonds.svg	34	no	57	0	104
6.6.1	win	2022-12-14	15:26:36	15:38:20	695565	5df2f36b617219204de98060	162173154	1	main_z	7	main_z	139	stimuli_distractor_diamondtriangles.svg	stimuli_distractor_diamondtriangles.svg	39	no	0	1	2000
6.6.1	win	2022-12-14	15:26:36	15:38:20	695565	5df2f36b617219204de98060	162173154	1	main_z	7	advance_on_keypress_ZEE	140	stimuli_distractor_diamondtriangles.svg	stimuli_distractor_diamondtriangles.svg	39	no	57	0	272
6.6.1	win	2022-12-14	15:26:36	15:38:21	696975	5df2f36b617219204de98060	162173154	1	main_z	7	main_z	141	stimuli_target_trianglecircles.svg	stimuli_distractor_trianglediamonds.svg	17	yes	44	1	483
6.6.1	win	2022-12-14	15:26:36	15:38:21	696975	5df2f36b617219204de98060	162173154	1	main_z	7	advance_on_keypress_ZEE	142	stimuli_target_trianglecircles.svg	stimuli_distractor_trianglediamonds.svg	17	yes	57	0	363
6.6.1	win	2022-12-14	15:26:36	15:38:23	698455	5df2f36b617219204de98060	162173154	1	main_z	7	main_z	143	stimuli_target_squaretriangles.svg	stimuli_distractor_diamondtriangles.svg	7	yes	44	1	458
6.6.1	win	2022-12-14	15:26:36	15:38:23	698455	5df2f36b617219204de98060	162173154	1	main_z	7	advance_on_keypress_ZEE	144	stimuli_target_squaretriangles.svg	stimuli_distractor_diamondtriangles.svg	7	yes	57	0	316
6.6.1	win	2022-12-14	15:26:36	15:38:24	699839	5df2f36b617219204de98060	162173154	1	main_z	7	main_z	145	stimuli_distractor_diamondtriangles.svg	stimuli_target_squarediamonds.svg	16	yes	44	1	420
6.6.1	win	2022-12-14	15:26:36	15:38:24	699839	5df2f36b617219204de98060	162173154	1	main_z	7	advance_on_keypress_ZEE	146	stimuli_distractor_diamondtriangles.svg	stimuli_target_squarediamonds.svg	16	yes	57	0	296
6.6.1	win	2022-12-14	15:26:36	15:38:26	701212	5df2f36b617219204de98060	162173154	1	main_z	7	main_z	147	stimuli_target_squaretriangles.svg	stimuli_distractor_trianglediamonds.svg	3	yes	44	1	418
6.6.1	win	2022-12-14	15:26:36	15:38:26	701212	5df2f36b617219204de98060	162173154	1	main_z	7	advance_on_keypress_ZEE	148	stimuli_target_squaretriangles.svg	stimuli_distractor_trianglediamonds.svg	3	yes	57	0	277
6.6.1	win	2022-12-14	15:26:36	15:38:27	702600	5df2f36b617219204de98060	162173154	1	main_z	7	main_z	149	stimuli_distractor_diamondtriangles.svg	stimuli_target_circlediamonds.svg	14	yes	44	1	405
6.6.1	win	2022-12-14	15:26:36	15:38:27	702600	5df2f36b617219204de98060	162173154	1	main_z	7	advance_on_keypress_ZEE	150	stimuli_distractor_diamondtriangles.svg	stimuli_target_circlediamonds.svg	14	yes	57	0	338
6.6.1	win	2022-12-14	15:26:36	15:38:30	705581	5df2f36b617219204de98060	162173154	1	main_z	7	main_z	151	stimuli_distractor_trianglediamonds.svg	stimuli_distractor_diamondtriangles.svg	36	no	0	1	2000
6.6.1	win	2022-12-14	15:26:36	15:38:30	705581	5df2f36b617219204de98060	162173154	1	main_z	7	advance_on_keypress_ZEE	152	stimuli_distractor_trianglediamonds.svg	stimuli_distractor_diamondtriangles.svg	36	no	57	0	273
6.6.1	win	2022-12-14	15:26:36	15:38:32	707114	5df2f36b617219204de98060	162173154	1	main_z	7	main_z	153	stimuli_distractor_trianglediamonds.svg	stimuli_target_trianglecircles.svg	25	yes	44	1	542
6.6.1	win	2022-12-14	15:26:36	15:38:32	707114	5df2f36b617219204de98060	162173154	1	main_z	7	advance_on_keypress_ZEE	154	stimuli_distractor_trianglediamonds.svg	stimuli_target_trianglecircles.svg	25	yes	57	0	215
6.6.1	win	2022-12-14	15:26:36	15:38:33	708441	5df2f36b617219204de98060	162173154	1	main_z	7	main_z	155	stimuli_distractor_trianglediamonds.svg	stimuli_target_circlediamonds.svg	10	yes	44	1	385
6.6.1	win	2022-12-14	15:26:36	15:38:33	708441	5df2f36b617219204de98060	162173154	1	main_z	7	advance_on_keypress_ZEE	156	stimuli_distractor_trianglediamonds.svg	stimuli_target_circlediamonds.svg	10	yes	57	0	190
6.6.1	win	2022-12-14	15:26:36	15:38:36	711426	5df2f36b617219204de98060	162173154	1	main_z	7	main_z	157	stimuli_distractor_trianglediamonds.svg	stimuli_distractor_trianglediamonds.svg	33	no	0	1	2000
6.6.1	win	2022-12-14	15:26:36	15:38:36	711426	5df2f36b617219204de98060	162173154	1	main_z	7	advance_on_keypress_ZEE	158	stimuli_distractor_trianglediamonds.svg	stimuli_distractor_trianglediamonds.svg	33	no	57	0	326
6.6.1	win	2022-12-14	15:26:36	15:38:37	713043	5df2f36b617219204de98060	162173154	1	main_z	7	main_z	159	stimuli_target_trianglesquares.svg	stimuli_distractor_trianglediamonds.svg	18	yes	44	1	547
6.6.1	win	2022-12-14	15:26:36	15:38:37	713043	5df2f36b617219204de98060	162173154	1	main_z	7	advance_on_keypress_ZEE	160	stimuli_target_trianglesquares.svg	stimuli_distractor_trianglediamonds.svg	18	yes	57	0	269
6.6.1	win	2022-12-14	15:26:36	15:39:08	743651	5df2f36b617219204de98060	162173154	1	practice_slash	9	practice_slash	1	stimuli_target_diamondsquares.svg	stimuli_distractor_diamondtriangles.svg	3	yes	53	1	423
6.6.1	win	2022-12-14	15:26:36	15:39:08	743651	5df2f36b617219204de98060	162173154	1	practice_slash	9	advance_on_keypress_SLASH	2	stimuli_target_diamondsquares.svg	stimuli_distractor_diamondtriangles.svg	3	yes	57	0	699
6.6.1	win	2022-12-14	15:26:36	15:39:13	748272	5df2f36b617219204de98060	162173154	1	practice_slash	9	practice_slash	3	stimuli_distractor_diamondtriangles.svg	stimuli_distractor_diamondtriangles.svg	13	no	0	1	2000
6.6.1	win	2022-12-14	15:26:36	15:39:13	748272	5df2f36b617219204de98060	162173154	1	practice_slash	9	advance_on_keypress_SLASH	4	stimuli_distractor_diamondtriangles.svg	stimuli_distractor_diamondtriangles.svg	13	no	57	0	389
6.6.1	win	2022-12-14	15:26:36	15:39:17	752427	5df2f36b617219204de98060	162173154	1	practice_slash	9	practice_slash	5	stimuli_distractor_trianglediamonds.svg	stimuli_distractor_trianglediamonds.svg	15	no	0	1	2000
6.6.1	win	2022-12-14	15:26:36	15:39:17	752427	5df2f36b617219204de98060	162173154	1	practice_slash	9	advance_on_keypress_SLASH	6	stimuli_distractor_trianglediamonds.svg	stimuli_distractor_trianglediamonds.svg	15	no	57	0	307
6.6.1	win	2022-12-14	15:26:36	15:39:19	754877	5df2f36b617219204de98060	162173154	1	practice_slash	9	practice_slash	7	stimuli_target_squarediamonds.svg	stimuli_distractor_trianglediamonds.svg	5	yes	53	1	467
6.6.1	win	2022-12-14	15:26:36	15:39:19	754877	5df2f36b617219204de98060	162173154	1	practice_slash	9	advance_on_keypress_SLASH	8	stimuli_target_squarediamonds.svg	stimuli_distractor_trianglediamonds.svg	5	yes	57	0	330
6.6.1	win	2022-12-14	15:26:36	15:39:22	757378	5df2f36b617219204de98060	162173154	1	practice_slash	9	practice_slash	9	stimuli_distractor_diamondtriangles.svg	stimuli_target_diamondcircles.svg	8	yes	53	1	481
6.6.1	win	2022-12-14	15:26:36	15:39:22	757378	5df2f36b617219204de98060	162173154	1	practice_slash	9	advance_on_keypress_SLASH	10	stimuli_distractor_diamondtriangles.svg	stimuli_target_diamondcircles.svg	8	yes	57	0	278
6.6.1	win	2022-12-14	15:26:36	15:39:24	759762	5df2f36b617219204de98060	162173154	1	practice_slash	9	practice_slash	11	stimuli_distractor_trianglediamonds.svg	stimuli_target_circlediamonds.svg	10	yes	53	1	401
6.6.1	win	2022-12-14	15:26:36	15:39:24	759762	5df2f36b617219204de98060	162173154	1	practice_slash	9	advance_on_keypress_SLASH	12	stimuli_distractor_trianglediamonds.svg	stimuli_target_circlediamonds.svg	10	yes	57	0	336
6.6.1	win	2022-12-14	15:26:36	15:39:27	762186	5df2f36b617219204de98060	162173154	1	practice_slash	9	practice_slash	13	stimuli_target_circlediamonds.svg	stimuli_distractor_trianglediamonds.svg	4	yes	53	1	432
6.6.1	win	2022-12-14	15:26:36	15:39:27	762186	5df2f36b617219204de98060	162173154	1	practice_slash	9	advance_on_keypress_SLASH	14	stimuli_target_circlediamonds.svg	stimuli_distractor_trianglediamonds.svg	4	yes	57	0	311
6.6.1	win	2022-12-14	15:26:36	15:39:29	764733	5df2f36b617219204de98060	162173154	1	practice_slash	9	practice_slash	15	stimuli_target_squarediamonds.svg	stimuli_distractor_diamondtriangles.svg	2	yes	53	1	488
6.6.1	win	2022-12-14	15:26:36	15:39:29	764733	5df2f36b617219204de98060	162173154	1	practice_slash	9	advance_on_keypress_SLASH	16	stimuli_target_squarediamonds.svg	stimuli_distractor_diamondtriangles.svg	2	yes	57	0	353
6.6.1	win	2022-12-14	15:26:36	15:39:32	767300	5df2f36b617219204de98060	162173154	1	practice_slash	9	practice_slash	17	stimuli_target_circlediamonds.svg	stimuli_distractor_diamondtriangles.svg	1	yes	53	1	395
6.6.1	win	2022-12-14	15:26:36	15:39:32	767300	5df2f36b617219204de98060	162173154	1	practice_slash	9	advance_on_keypress_SLASH	18	stimuli_target_circlediamonds.svg	stimuli_distractor_diamondtriangles.svg	1	yes	57	0	403
6.6.1	win	2022-12-14	15:26:36	15:39:34	769943	5df2f36b617219204de98060	162173154	1	practice_slash	9	practice_slash	19	stimuli_target_diamondsquares.svg	stimuli_distractor_trianglediamonds.svg	6	yes	53	1	496
6.6.1	win	2022-12-14	15:26:36	15:39:34	769943	5df2f36b617219204de98060	162173154	1	practice_slash	9	advance_on_keypress_SLASH	20	stimuli_target_diamondsquares.svg	stimuli_distractor_trianglediamonds.svg	6	yes	57	0	298
6.6.1	win	2022-12-14	15:26:36	15:39:38	774027	5df2f36b617219204de98060	162173154	1	practice_slash	9	practice_slash	21	stimuli_distractor_trianglediamonds.svg	stimuli_distractor_diamondtriangles.svg	16	no	0	1	2000
6.6.1	win	2022-12-14	15:26:36	15:39:38	774027	5df2f36b617219204de98060	162173154	1	practice_slash	9	advance_on_keypress_SLASH	22	stimuli_distractor_trianglediamonds.svg	stimuli_distractor_diamondtriangles.svg	16	no	57	0	354
6.6.1	win	2022-12-14	15:26:36	15:39:41	776540	5df2f36b617219204de98060	162173154	1	practice_slash	9	practice_slash	23	stimuli_distractor_trianglediamonds.svg	stimuli_target_diamondcircles.svg	12	yes	53	1	497
6.6.1	win	2022-12-14	15:26:36	15:39:41	776540	5df2f36b617219204de98060	162173154	1	practice_slash	9	advance_on_keypress_SLASH	24	stimuli_distractor_trianglediamonds.svg	stimuli_target_diamondcircles.svg	12	yes	57	0	382
6.6.1	win	2022-12-14	15:26:36	15:39:43	779022	5df2f36b617219204de98060	162173154	1	practice_slash	9	practice_slash	25	stimuli_distractor_diamondtriangles.svg	stimuli_target_trianglecircles.svg	9	yes	53	1	436
6.6.1	win	2022-12-14	15:26:36	15:39:43	779022	5df2f36b617219204de98060	162173154	1	practice_slash	9	advance_on_keypress_SLASH	26	stimuli_distractor_diamondtriangles.svg	stimuli_target_trianglecircles.svg	9	yes	57	0	323
6.6.1	win	2022-12-14	15:26:36	15:39:47	783010	5df2f36b617219204de98060	162173154	1	practice_slash	9	practice_slash	27	stimuli_distractor_diamondtriangles.svg	stimuli_distractor_trianglediamonds.svg	14	no	0	1	2000
6.6.1	win	2022-12-14	15:26:36	15:39:47	783010	5df2f36b617219204de98060	162173154	1	practice_slash	9	advance_on_keypress_SLASH	28	stimuli_distractor_diamondtriangles.svg	stimuli_distractor_trianglediamonds.svg	14	no	57	0	423
6.6.1	win	2022-12-14	15:26:36	15:39:50	785698	5df2f36b617219204de98060	162173154	1	practice_slash	9	practice_slash	29	stimuli_distractor_trianglediamonds.svg	stimuli_target_squarediamonds.svg	11	yes	53	1	480
6.6.1	win	2022-12-14	15:26:36	15:39:50	785698	5df2f36b617219204de98060	162173154	1	practice_slash	9	advance_on_keypress_SLASH	30	stimuli_distractor_trianglediamonds.svg	stimuli_target_squarediamonds.svg	11	yes	57	0	331
6.6.1	win	2022-12-14	15:26:36	15:39:53	788333	5df2f36b617219204de98060	162173154	1	practice_slash	9	practice_slash	31	stimuli_distractor_diamondtriangles.svg	stimuli_target_circletriangles.svg	7	yes	53	1	584
6.6.1	win	2022-12-14	15:26:36	15:39:53	788333	5df2f36b617219204de98060	162173154	1	practice_slash	9	advance_on_keypress_SLASH	32	stimuli_distractor_diamondtriangles.svg	stimuli_target_circletriangles.svg	7	yes	57	0	499
6.6.1	win	2022-12-14	15:26:36	15:40:02	797398	5df2f36b617219204de98060	162173154	1	main_slash	11	main_slash	1	stimuli_distractor_trianglediamonds.svg	stimuli_target_circlediamonds.svg	10	yes	53	1	543
6.6.1	win	2022-12-14	15:26:36	15:40:02	797398	5df2f36b617219204de98060	162173154	1	main_slash	11	advance_on_keypress_SLASH	2	stimuli_distractor_trianglediamonds.svg	stimuli_target_circlediamonds.svg	10	yes	57	0	396
6.6.1	win	2022-12-14	15:26:36	15:40:04	799129	5df2f36b617219204de98060	162173154	1	main_slash	11	main_slash	3	stimuli_distractor_diamondtriangles.svg	stimuli_target_diamondcircles.svg	31	yes	53	1	634
6.6.1	win	2022-12-14	15:26:36	15:40:04	799129	5df2f36b617219204de98060	162173154	1	main_slash	11	advance_on_keypress_SLASH	4	stimuli_distractor_diamondtriangles.svg	stimuli_target_diamondcircles.svg	31	yes	57	0	522
6.6.1	win	2022-12-14	15:26:36	15:40:07	802300	5df2f36b617219204de98060	162173154	1	main_slash	11	main_slash	5	stimuli_target_diamondsquares.svg	stimuli_distractor_trianglediamonds.svg	20	yes	0	0	2000
6.6.1	win	2022-12-14	15:26:36	15:40:07	802300	5df2f36b617219204de98060	162173154	1	main_slash	11	advance_on_keypress_SLASH	6	stimuli_target_diamondsquares.svg	stimuli_distractor_trianglediamonds.svg	20	yes	57	0	265
6.6.1	win	2022-12-14	15:26:36	15:40:08	803655	5df2f36b617219204de98060	162173154	1	main_slash	11	main_slash	7	stimuli_distractor_trianglediamonds.svg	stimuli_target_trianglecircles.svg	25	yes	53	1	428
6.6.1	win	2022-12-14	15:26:36	15:40:08	803655	5df2f36b617219204de98060	162173154	1	main_slash	11	advance_on_keypress_SLASH	8	stimuli_distractor_trianglediamonds.svg	stimuli_target_trianglecircles.svg	25	yes	57	0	351
6.6.1	win	2022-12-14	15:26:36	15:40:09	805030	5df2f36b617219204de98060	162173154	1	main_slash	11	main_slash	9	stimuli_distractor_diamondtriangles.svg	stimuli_target_squarediamonds.svg	16	yes	53	1	366
6.6.1	win	2022-12-14	15:26:36	15:40:09	805030	5df2f36b617219204de98060	162173154	1	main_slash	11	advance_on_keypress_SLASH	10	stimuli_distractor_diamondtriangles.svg	stimuli_target_squarediamonds.svg	16	yes	57	0	356
6.6.1	win	2022-12-14	15:26:36	15:40:13	808221	5df2f36b617219204de98060	162173154	1	main_slash	11	main_slash	11	stimuli_distractor_trianglediamonds.svg	stimuli_distractor_diamondtriangles.svg	35	no	0	1	2000
6.6.1	win	2022-12-14	15:26:36	15:40:13	808221	5df2f36b617219204de98060	162173154	1	main_slash	11	advance_on_keypress_SLASH	12	stimuli_distractor_trianglediamonds.svg	stimuli_distractor_diamondtriangles.svg	35	no	57	0	139
6.6.1	win	2022-12-14	15:26:36	15:40:14	809571	5df2f36b617219204de98060	162173154	1	main_slash	11	main_slash	13	stimuli_target_circlediamonds.svg	stimuli_distractor_trianglediamonds.svg	2	yes	53	1	422
6.6.1	win	2022-12-14	15:26:36	15:40:14	809571	5df2f36b617219204de98060	162173154	1	main_slash	11	advance_on_keypress_SLASH	14	stimuli_target_circlediamonds.svg	stimuli_distractor_trianglediamonds.svg	2	yes	57	0	328
6.6.1	win	2022-12-14	15:26:36	15:40:16	811460	5df2f36b617219204de98060	162173154	1	main_slash	11	main_slash	15	stimuli_target_trianglesquares.svg	stimuli_distractor_trianglediamonds.svg	18	yes	53	1	753
6.6.1	win	2022-12-14	15:26:36	15:40:16	811460	5df2f36b617219204de98060	162173154	1	main_slash	11	advance_on_keypress_SLASH	16	stimuli_target_trianglesquares.svg	stimuli_distractor_trianglediamonds.svg	18	yes	57	0	600
6.6.1	win	2022-12-14	15:26:36	15:40:18	813308	5df2f36b617219204de98060	162173154	1	main_slash	11	main_slash	17	stimuli_target_squarediamonds.svg	stimuli_distractor_diamondtriangles.svg	8	yes	53	1	476
6.6.1	win	2022-12-14	15:26:36	15:40:18	813308	5df2f36b617219204de98060	162173154	1	main_slash	11	advance_on_keypress_SLASH	18	stimuli_target_squarediamonds.svg	stimuli_distractor_diamondtriangles.svg	8	yes	57	0	344
6.6.1	win	2022-12-14	15:26:36	15:40:21	816310	5df2f36b617219204de98060	162173154	1	main_slash	11	main_slash	19	stimuli_distractor_trianglediamonds.svg	stimuli_distractor_trianglediamonds.svg	34	no	0	1	2000
6.6.1	win	2022-12-14	15:26:36	15:40:21	816310	5df2f36b617219204de98060	162173154	1	main_slash	11	advance_on_keypress_SLASH	20	stimuli_distractor_trianglediamonds.svg	stimuli_distractor_trianglediamonds.svg	34	no	57	0	262
6.6.1	win	2022-12-14	15:26:36	15:40:22	817663	5df2f36b617219204de98060	162173154	1	main_slash	11	main_slash	21	stimuli_target_circletriangles.svg	stimuli_distractor_diamondtriangles.svg	5	yes	53	1	426
6.6.1	win	2022-12-14	15:26:36	15:40:22	817663	5df2f36b617219204de98060	162173154	1	main_slash	11	advance_on_keypress_SLASH	22	stimuli_target_circletriangles.svg	stimuli_distractor_diamondtriangles.svg	5	yes	57	0	308
6.6.1	win	2022-12-14	15:26:36	15:40:24	819179	5df2f36b617219204de98060	162173154	1	main_slash	11	main_slash	23	stimuli_distractor_diamondtriangles.svg	stimuli_target_squaretriangles.svg	15	yes	53	1	537
6.6.1	win	2022-12-14	15:26:36	15:40:24	819179	5df2f36b617219204de98060	162173154	1	main_slash	11	advance_on_keypress_SLASH	24	stimuli_distractor_diamondtriangles.svg	stimuli_target_squaretriangles.svg	15	yes	57	0	300
6.6.1	win	2022-12-14	15:26:36	15:40:25	820826	5df2f36b617219204de98060	162173154	1	main_slash	11	main_slash	25	stimuli_distractor_trianglediamonds.svg	stimuli_target_diamondsquares.svg	28	yes	53	1	677
6.6.1	win	2022-12-14	15:26:36	15:40:25	820826	5df2f36b617219204de98060	162173154	1	main_slash	11	advance_on_keypress_SLASH	26	stimuli_distractor_trianglediamonds.svg	stimuli_target_diamondsquares.svg	28	yes	57	0	284
6.6.1	win	2022-12-14	15:26:36	15:40:27	822297	5df2f36b617219204de98060	162173154	1	main_slash	11	main_slash	27	stimuli_target_squaretriangles.svg	stimuli_distractor_diamondtriangles.svg	7	yes	53	1	510
6.6.1	win	2022-12-14	15:26:36	15:40:27	822297	5df2f36b617219204de98060	162173154	1	main_slash	11	advance_on_keypress_SLASH	28	stimuli_target_squaretriangles.svg	stimuli_distractor_diamondtriangles.svg	7	yes	57	0	270
6.6.1	win	2022-12-14	15:26:36	15:40:30	825239	5df2f36b617219204de98060	162173154	1	main_slash	11	main_slash	29	stimuli_distractor_trianglediamonds.svg	stimuli_distractor_trianglediamonds.svg	33	no	0	1	2000
6.6.1	win	2022-12-14	15:26:36	15:40:30	825239	5df2f36b617219204de98060	162173154	1	main_slash	11	advance_on_keypress_SLASH	30	stimuli_distractor_trianglediamonds.svg	stimuli_distractor_trianglediamonds.svg	33	no	57	0	295
6.6.1	win	2022-12-14	15:26:36	15:40:31	826728	5df2f36b617219204de98060	162173154	1	main_slash	11	main_slash	31	stimuli_distractor_trianglediamonds.svg	stimuli_target_diamondcircles.svg	27	yes	53	1	483
6.6.1	win	2022-12-14	15:26:36	15:40:31	826728	5df2f36b617219204de98060	162173154	1	main_slash	11	advance_on_keypress_SLASH	32	stimuli_distractor_trianglediamonds.svg	stimuli_target_diamondcircles.svg	27	yes	57	0	255
6.6.1	win	2022-12-14	15:26:36	15:40:34	829803	5df2f36b617219204de98060	162173154	1	main_slash	11	main_slash	33	stimuli_distractor_diamondtriangles.svg	stimuli_distractor_diamondtriangles.svg	39	no	0	1	2000
6.6.1	win	2022-12-14	15:26:36	15:40:34	829803	5df2f36b617219204de98060	162173154	1	main_slash	11	advance_on_keypress_SLASH	34	stimuli_distractor_diamondtriangles.svg	stimuli_distractor_diamondtriangles.svg	39	no	57	0	291
6.6.1	win	2022-12-14	15:26:36	15:40:36	831287	5df2f36b617219204de98060	162173154	1	main_slash	11	main_slash	35	stimuli_target_trianglecircles.svg	stimuli_distractor_diamondtriangles.svg	21	yes	53	1	385
6.6.1	win	2022-12-14	15:26:36	15:40:36	831287	5df2f36b617219204de98060	162173154	1	main_slash	11	advance_on_keypress_SLASH	36	stimuli_target_trianglecircles.svg	stimuli_distractor_diamondtriangles.svg	21	yes	57	0	292
6.6.1	win	2022-12-14	15:26:36	15:40:37	832670	5df2f36b617219204de98060	162173154	1	main_slash	11	main_slash	37	stimuli_target_circlediamonds.svg	stimuli_distractor_diamondtriangles.svg	6	yes	53	1	401
6.6.1	win	2022-12-14	15:26:36	15:40:37	832670	5df2f36b617219204de98060	162173154	1	main_slash	11	advance_on_keypress_SLASH	38	stimuli_target_circlediamonds.svg	stimuli_distractor_diamondtriangles.svg	6	yes	57	0	215
6.6.1	win	2022-12-14	15:26:36	15:40:40	835570	5df2f36b617219204de98060	162173154	1	main_slash	11	main_slash	39	stimuli_distractor_diamondtriangles.svg	stimuli_distractor_diamondtriangles.svg	40	no	0	1	2000
6.6.1	win	2022-12-14	15:26:36	15:40:40	835570	5df2f36b617219204de98060	162173154	1	main_slash	11	advance_on_keypress_SLASH	40	stimuli_distractor_diamondtriangles.svg	stimuli_distractor_diamondtriangles.svg	40	no	57	0	255
6.6.1	win	2022-12-14	15:26:36	15:40:41	836846	5df2f36b617219204de98060	162173154	1	main_slash	11	main_slash	41	stimuli_distractor_diamondtriangles.svg	stimuli_target_trianglecircles.svg	29	yes	53	1	366
6.6.1	win	2022-12-14	15:26:36	15:40:41	836846	5df2f36b617219204de98060	162173154	1	main_slash	11	advance_on_keypress_SLASH	42	stimuli_distractor_diamondtriangles.svg	stimuli_target_trianglecircles.svg	29	yes	57	0	460
6.6.1	win	2022-12-14	15:26:36	15:40:43	838398	5df2f36b617219204de98060	162173154	1	main_slash	11	main_slash	43	stimuli_target_squarediamonds.svg	stimuli_distractor_trianglediamonds.svg	4	yes	53	1	430
6.6.1	win	2022-12-14	15:26:36	15:40:43	838398	5df2f36b617219204de98060	162173154	1	main_slash	11	advance_on_keypress_SLASH	44	stimuli_target_squarediamonds.svg	stimuli_distractor_trianglediamonds.svg	4	yes	57	0	321
6.6.1	win	2022-12-14	15:26:36	15:40:46	841381	5df2f36b617219204de98060	162173154	1	main_slash	11	main_slash	45	stimuli_distractor_diamondtriangles.svg	stimuli_distractor_trianglediamonds.svg	37	no	0	1	2000
6.6.1	win	2022-12-14	15:26:36	15:40:46	841381	5df2f36b617219204de98060	162173154	1	main_slash	11	advance_on_keypress_SLASH	46	stimuli_distractor_diamondtriangles.svg	stimuli_distractor_trianglediamonds.svg	37	no	57	0	241
6.6.1	win	2022-12-14	15:26:36	15:40:47	842687	5df2f36b617219204de98060	162173154	1	main_slash	11	main_slash	47	stimuli_target_diamondcircles.svg	stimuli_distractor_trianglediamonds.svg	19	yes	53	1	398
6.6.1	win	2022-12-14	15:26:36	15:40:47	842687	5df2f36b617219204de98060	162173154	1	main_slash	11	advance_on_keypress_SLASH	48	stimuli_target_diamondcircles.svg	stimuli_distractor_trianglediamonds.svg	19	yes	57	0	313
6.6.1	win	2022-12-14	15:26:36	15:40:49	844110	5df2f36b617219204de98060	162173154	1	main_slash	11	main_slash	49	stimuli_target_squaretriangles.svg	stimuli_distractor_trianglediamonds.svg	3	yes	53	1	458
6.6.1	win	2022-12-14	15:26:36	15:40:49	844110	5df2f36b617219204de98060	162173154	1	main_slash	11	advance_on_keypress_SLASH	50	stimuli_target_squaretriangles.svg	stimuli_distractor_trianglediamonds.svg	3	yes	57	0	275
6.6.1	win	2022-12-14	15:26:36	15:40:50	845446	5df2f36b617219204de98060	162173154	1	main_slash	11	main_slash	51	stimuli_target_circletriangles.svg	stimuli_distractor_trianglediamonds.svg	1	yes	53	1	406
6.6.1	win	2022-12-14	15:26:36	15:40:50	845446	5df2f36b617219204de98060	162173154	1	main_slash	11	advance_on_keypress_SLASH	52	stimuli_target_circletriangles.svg	stimuli_distractor_trianglediamonds.svg	1	yes	57	0	298
6.6.1	win	2022-12-14	15:26:36	15:40:51	847035	5df2f36b617219204de98060	162173154	1	main_slash	11	main_slash	53	stimuli_distractor_diamondtriangles.svg	stimuli_target_diamondsquares.svg	32	yes	53	1	551
6.6.1	win	2022-12-14	15:26:36	15:40:51	847035	5df2f36b617219204de98060	162173154	1	main_slash	11	advance_on_keypress_SLASH	54	stimuli_distractor_diamondtriangles.svg	stimuli_target_diamondsquares.svg	32	yes	57	0	212
6.6.1	win	2022-12-14	15:26:36	15:40:53	848427	5df2f36b617219204de98060	162173154	1	main_slash	11	main_slash	55	stimuli_distractor_diamondtriangles.svg	stimuli_target_circlediamonds.svg	14	yes	53	1	376
6.6.1	win	2022-12-14	15:26:36	15:40:53	848427	5df2f36b617219204de98060	162173154	1	main_slash	11	advance_on_keypress_SLASH	56	stimuli_distractor_diamondtriangles.svg	stimuli_target_circlediamonds.svg	14	yes	57	0	210
6.6.1	win	2022-12-14	15:26:36	15:40:54	849706	5df2f36b617219204de98060	162173154	1	main_slash	11	main_slash	57	stimuli_target_trianglecircles.svg	stimuli_distractor_trianglediamonds.svg	17	yes	53	1	318
6.6.1	win	2022-12-14	15:26:36	15:40:54	849706	5df2f36b617219204de98060	162173154	1	main_slash	11	advance_on_keypress_SLASH	58	stimuli_target_trianglecircles.svg	stimuli_distractor_trianglediamonds.svg	17	yes	57	0	427
6.6.1	win	2022-12-14	15:26:36	15:40:56	851310	5df2f36b617219204de98060	162173154	1	main_slash	11	main_slash	59	stimuli_distractor_trianglediamonds.svg	stimuli_target_circletriangles.svg	9	yes	53	1	421
6.6.1	win	2022-12-14	15:26:36	15:40:56	851310	5df2f36b617219204de98060	162173154	1	main_slash	11	advance_on_keypress_SLASH	60	stimuli_distractor_trianglediamonds.svg	stimuli_target_circletriangles.svg	9	yes	57	0	318
6.6.1	win	2022-12-14	15:26:36	15:40:57	852873	5df2f36b617219204de98060	162173154	1	main_slash	11	main_slash	61	stimuli_target_diamondsquares.svg	stimuli_distractor_diamondtriangles.svg	24	yes	53	1	517
6.6.1	win	2022-12-14	15:26:36	15:40:57	852873	5df2f36b617219204de98060	162173154	1	main_slash	11	advance_on_keypress_SLASH	62	stimuli_target_diamondsquares.svg	stimuli_distractor_diamondtriangles.svg	24	yes	57	0	274
6.6.1	win	2022-12-14	15:26:36	15:40:59	854214	5df2f36b617219204de98060	162173154	1	main_slash	11	main_slash	63	stimuli_distractor_diamondtriangles.svg	stimuli_target_circletriangles.svg	13	yes	53	1	364
6.6.1	win	2022-12-14	15:26:36	15:40:59	854214	5df2f36b617219204de98060	162173154	1	main_slash	11	advance_on_keypress_SLASH	64	stimuli_distractor_diamondtriangles.svg	stimuli_target_circletriangles.svg	13	yes	57	0	249
6.6.1	win	2022-12-14	15:26:36	15:41:00	855519	5df2f36b617219204de98060	162173154	1	main_slash	11	main_slash	65	stimuli_distractor_trianglediamonds.svg	stimuli_target_squaretriangles.svg	11	yes	53	1	397
6.6.1	win	2022-12-14	15:26:36	15:41:00	855519	5df2f36b617219204de98060	162173154	1	main_slash	11	advance_on_keypress_SLASH	66	stimuli_distractor_trianglediamonds.svg	stimuli_target_squaretriangles.svg	11	yes	57	0	361
6.6.1	win	2022-12-14	15:26:36	15:41:01	856939	5df2f36b617219204de98060	162173154	1	main_slash	11	main_slash	67	stimuli_distractor_diamondtriangles.svg	stimuli_distractor_trianglediamonds.svg	38	no	53	0	379
6.6.1	win	2022-12-14	15:26:36	15:41:01	856939	5df2f36b617219204de98060	162173154	1	main_slash	11	advance_on_keypress_SLASH	68	stimuli_distractor_diamondtriangles.svg	stimuli_distractor_trianglediamonds.svg	38	no	57	0	363
6.6.1	win	2022-12-14	15:26:36	15:41:03	858373	5df2f36b617219204de98060	162173154	1	main_slash	11	main_slash	69	stimuli_target_diamondcircles.svg	stimuli_distractor_diamondtriangles.svg	23	yes	53	1	410
6.6.1	win	2022-12-14	15:26:36	15:41:03	858373	5df2f36b617219204de98060	162173154	1	main_slash	11	advance_on_keypress_SLASH	70	stimuli_target_diamondcircles.svg	stimuli_distractor_diamondtriangles.svg	23	yes	57	0	269
6.6.1	win	2022-12-14	15:26:36	15:41:04	859717	5df2f36b617219204de98060	162173154	1	main_slash	11	main_slash	71	stimuli_target_trianglesquares.svg	stimuli_distractor_diamondtriangles.svg	22	yes	53	1	400
6.6.1	win	2022-12-14	15:26:36	15:41:04	859717	5df2f36b617219204de98060	162173154	1	main_slash	11	advance_on_keypress_SLASH	72	stimuli_target_trianglesquares.svg	stimuli_distractor_diamondtriangles.svg	22	yes	57	0	284
6.6.1	win	2022-12-14	15:26:36	15:41:06	861120	5df2f36b617219204de98060	162173154	1	main_slash	11	main_slash	73	stimuli_distractor_diamondtriangles.svg	stimuli_target_trianglesquares.svg	30	yes	53	1	463
6.6.1	win	2022-12-14	15:26:36	15:41:06	861120	5df2f36b617219204de98060	162173154	1	main_slash	11	advance_on_keypress_SLASH	74	stimuli_distractor_diamondtriangles.svg	stimuli_target_trianglesquares.svg	30	yes	57	0	244
6.6.1	win	2022-12-14	15:26:36	15:41:07	862517	5df2f36b617219204de98060	162173154	1	main_slash	11	main_slash	75	stimuli_distractor_trianglediamonds.svg	stimuli_target_trianglesquares.svg	26	yes	53	1	475
6.6.1	win	2022-12-14	15:26:36	15:41:07	862517	5df2f36b617219204de98060	162173154	1	main_slash	11	advance_on_keypress_SLASH	76	stimuli_distractor_trianglediamonds.svg	stimuli_target_trianglesquares.svg	26	yes	57	0	268
6.6.1	win	2022-12-14	15:26:36	15:41:08	863827	5df2f36b617219204de98060	162173154	1	main_slash	11	main_slash	77	stimuli_distractor_trianglediamonds.svg	stimuli_target_squarediamonds.svg	12	yes	53	1	375
6.6.1	win	2022-12-14	15:26:36	15:41:08	863827	5df2f36b617219204de98060	162173154	1	main_slash	11	advance_on_keypress_SLASH	78	stimuli_distractor_trianglediamonds.svg	stimuli_target_squarediamonds.svg	12	yes	57	0	203
6.6.1	win	2022-12-14	15:26:36	15:41:10	865081	5df2f36b617219204de98060	162173154	1	main_slash	11	main_slash	79	stimuli_distractor_trianglediamonds.svg	stimuli_distractor_diamondtriangles.svg	36	no	53	0	393
6.6.1	win	2022-12-14	15:26:36	15:41:10	865081	5df2f36b617219204de98060	162173154	1	main_slash	11	advance_on_keypress_SLASH	80	stimuli_distractor_trianglediamonds.svg	stimuli_distractor_diamondtriangles.svg	36	no	57	0	589
6.6.1	win	2022-12-14	15:26:36	15:41:11	866903	5df2f36b617219204de98060	162173154	1	main_slash	11	main_slash	81	stimuli_distractor_diamondtriangles.svg	stimuli_target_trianglesquares.svg	30	yes	53	1	467
6.6.1	win	2022-12-14	15:26:36	15:41:11	866903	5df2f36b617219204de98060	162173154	1	main_slash	11	advance_on_keypress_SLASH	82	stimuli_distractor_diamondtriangles.svg	stimuli_target_trianglesquares.svg	30	yes	57	0	199
6.6.1	win	2022-12-14	15:26:36	15:41:13	868375	5df2f36b617219204de98060	162173154	1	main_slash	11	main_slash	83	stimuli_target_diamondcircles.svg	stimuli_distractor_diamondtriangles.svg	23	yes	53	1	467
6.6.1	win	2022-12-14	15:26:36	15:41:13	868375	5df2f36b617219204de98060	162173154	1	main_slash	11	advance_on_keypress_SLASH	84	stimuli_target_diamondcircles.svg	stimuli_distractor_diamondtriangles.svg	23	yes	57	0	152
6.6.1	win	2022-12-14	15:26:36	15:41:14	869733	5df2f36b617219204de98060	162173154	1	main_slash	11	main_slash	85	stimuli_target_circlediamonds.svg	stimuli_distractor_diamondtriangles.svg	6	yes	53	1	469
6.6.1	win	2022-12-14	15:26:36	15:41:14	869733	5df2f36b617219204de98060	162173154	1	main_slash	11	advance_on_keypress_SLASH	86	stimuli_target_circlediamonds.svg	stimuli_distractor_diamondtriangles.svg	6	yes	57	0	291
6.6.1	win	2022-12-14	15:26:36	15:41:16	871422	5df2f36b617219204de98060	162173154	1	main_slash	11	main_slash	87	stimuli_distractor_trianglediamonds.svg	stimuli_target_circlediamonds.svg	10	yes	53	1	607
6.6.1	win	2022-12-14	15:26:36	15:41:16	871422	5df2f36b617219204de98060	162173154	1	main_slash	11	advance_on_keypress_SLASH	88	stimuli_distractor_trianglediamonds.svg	stimuli_target_circlediamonds.svg	10	yes	57	0	117
6.6.1	win	2022-12-14	15:26:36	15:41:17	872960	5df2f36b617219204de98060	162173154	1	main_slash	11	main_slash	89	stimuli_target_trianglesquares.svg	stimuli_distractor_diamondtriangles.svg	22	yes	53	1	560
6.6.1	win	2022-12-14	15:26:36	15:41:17	872960	5df2f36b617219204de98060	162173154	1	main_slash	11	advance_on_keypress_SLASH	90	stimuli_target_trianglesquares.svg	stimuli_distractor_diamondtriangles.svg	22	yes	57	0	186
6.6.1	win	2022-12-14	15:26:36	15:41:19	874425	5df2f36b617219204de98060	162173154	1	main_slash	11	main_slash	91	stimuli_distractor_trianglediamonds.svg	stimuli_target_trianglecircles.svg	25	yes	53	1	544
6.6.1	win	2022-12-14	15:26:36	15:41:19	874425	5df2f36b617219204de98060	162173154	1	main_slash	11	advance_on_keypress_SLASH	92	stimuli_distractor_trianglediamonds.svg	stimuli_target_trianglecircles.svg	25	yes	57	0	188
6.6.1	win	2022-12-14	15:26:36	15:41:22	877284	5df2f36b617219204de98060	162173154	1	main_slash	11	main_slash	93	stimuli_distractor_trianglediamonds.svg	stimuli_distractor_diamondtriangles.svg	36	no	0	1	2000
6.6.1	win	2022-12-14	15:26:36	15:41:22	877284	5df2f36b617219204de98060	162173154	1	main_slash	11	advance_on_keypress_SLASH	94	stimuli_distractor_trianglediamonds.svg	stimuli_distractor_diamondtriangles.svg	36	no	57	0	280
6.6.1	win	2022-12-14	15:26:36	15:41:23	878677	5df2f36b617219204de98060	162173154	1	main_slash	11	main_slash	95	stimuli_distractor_diamondtriangles.svg	stimuli_target_circlediamonds.svg	14	yes	53	1	442
6.6.1	win	2022-12-14	15:26:36	15:41:23	878677	5df2f36b617219204de98060	162173154	1	main_slash	11	advance_on_keypress_SLASH	96	stimuli_distractor_diamondtriangles.svg	stimuli_target_circlediamonds.svg	14	yes	57	0	292
6.6.1	win	2022-12-14	15:26:36	15:41:24	880028	5df2f36b617219204de98060	162173154	1	main_slash	11	main_slash	97	stimuli_distractor_diamondtriangles.svg	stimuli_target_circletriangles.svg	13	yes	53	1	382
6.6.1	win	2022-12-14	15:26:36	15:41:24	880028	5df2f36b617219204de98060	162173154	1	main_slash	11	advance_on_keypress_SLASH	98	stimuli_distractor_diamondtriangles.svg	stimuli_target_circletriangles.svg	13	yes	57	0	298
6.6.1	win	2022-12-14	15:26:36	15:41:26	881382	5df2f36b617219204de98060	162173154	1	main_slash	11	main_slash	99	stimuli_distractor_diamondtriangles.svg	stimuli_target_squarediamonds.svg	16	yes	53	1	388
6.6.1	win	2022-12-14	15:26:36	15:41:26	881382	5df2f36b617219204de98060	162173154	1	main_slash	11	advance_on_keypress_SLASH	100	stimuli_distractor_diamondtriangles.svg	stimuli_target_squarediamonds.svg	16	yes	57	0	223
6.6.1	win	2022-12-14	15:26:36	15:41:28	883301	5df2f36b617219204de98060	162173154	1	main_slash	11	main_slash	101	stimuli_target_trianglecircles.svg	stimuli_distractor_trianglediamonds.svg	17	yes	53	1	1028
6.6.1	win	2022-12-14	15:26:36	15:41:28	883301	5df2f36b617219204de98060	162173154	1	main_slash	11	advance_on_keypress_SLASH	102	stimuli_target_trianglecircles.svg	stimuli_distractor_trianglediamonds.svg	17	yes	57	0	228
6.6.1	win	2022-12-14	15:26:36	15:41:29	884741	5df2f36b617219204de98060	162173154	1	main_slash	11	main_slash	103	stimuli_target_trianglecircles.svg	stimuli_distractor_diamondtriangles.svg	21	yes	53	1	545
6.6.1	win	2022-12-14	15:26:36	15:41:29	884741	5df2f36b617219204de98060	162173154	1	main_slash	11	advance_on_keypress_SLASH	104	stimuli_target_trianglecircles.svg	stimuli_distractor_diamondtriangles.svg	21	yes	57	0	263
6.6.1	win	2022-12-14	15:26:36	15:41:31	886266	5df2f36b617219204de98060	162173154	1	main_slash	11	main_slash	105	stimuli_distractor_trianglediamonds.svg	stimuli_target_squarediamonds.svg	12	yes	53	1	594
6.6.1	win	2022-12-14	15:26:36	15:41:31	886266	5df2f36b617219204de98060	162173154	1	main_slash	11	advance_on_keypress_SLASH	106	stimuli_distractor_trianglediamonds.svg	stimuli_target_squarediamonds.svg	12	yes	57	0	230
6.6.1	win	2022-12-14	15:26:36	15:41:32	887911	5df2f36b617219204de98060	162173154	1	main_slash	11	main_slash	107	stimuli_distractor_diamondtriangles.svg	stimuli_target_diamondcircles.svg	31	yes	53	1	543
6.6.1	win	2022-12-14	15:26:36	15:41:32	887911	5df2f36b617219204de98060	162173154	1	main_slash	11	advance_on_keypress_SLASH	108	stimuli_distractor_diamondtriangles.svg	stimuli_target_diamondcircles.svg	31	yes	57	0	640
6.6.1	win	2022-12-14	15:26:36	15:41:35	890094	5df2f36b617219204de98060	162173154	1	main_slash	11	main_slash	109	stimuli_target_squarediamonds.svg	stimuli_distractor_diamondtriangles.svg	8	yes	53	1	658
6.6.1	win	2022-12-14	15:26:36	15:41:35	890094	5df2f36b617219204de98060	162173154	1	main_slash	11	advance_on_keypress_SLASH	110	stimuli_target_squarediamonds.svg	stimuli_distractor_diamondtriangles.svg	8	yes	57	0	59
6.6.1	win	2022-12-14	15:26:36	15:41:38	893097	5df2f36b617219204de98060	162173154	1	main_slash	11	main_slash	111	stimuli_distractor_diamondtriangles.svg	stimuli_distractor_trianglediamonds.svg	38	no	0	1	2000
6.6.1	win	2022-12-14	15:26:36	15:41:38	893097	5df2f36b617219204de98060	162173154	1	main_slash	11	advance_on_keypress_SLASH	112	stimuli_distractor_diamondtriangles.svg	stimuli_distractor_trianglediamonds.svg	38	no	57	0	453
6.6.1	win	2022-12-14	15:26:36	15:41:39	894733	5df2f36b617219204de98060	162173154	1	main_slash	11	main_slash	113	stimuli_target_diamondcircles.svg	stimuli_distractor_trianglediamonds.svg	19	yes	53	1	456
6.6.1	win	2022-12-14	15:26:36	15:41:39	894733	5df2f36b617219204de98060	162173154	1	main_slash	11	advance_on_keypress_SLASH	114	stimuli_target_diamondcircles.svg	stimuli_distractor_trianglediamonds.svg	19	yes	57	0	266
6.6.1	win	2022-12-14	15:26:36	15:41:40	896054	5df2f36b617219204de98060	162173154	1	main_slash	11	main_slash	115	stimuli_target_circletriangles.svg	stimuli_distractor_diamondtriangles.svg	5	yes	53	1	405
6.6.1	win	2022-12-14	15:26:36	15:41:40	896054	5df2f36b617219204de98060	162173154	1	main_slash	11	advance_on_keypress_SLASH	116	stimuli_target_circletriangles.svg	stimuli_distractor_diamondtriangles.svg	5	yes	57	0	297
6.6.1	win	2022-12-14	15:26:36	15:41:43	899002	5df2f36b617219204de98060	162173154	1	main_slash	11	main_slash	117	stimuli_distractor_trianglediamonds.svg	stimuli_distractor_trianglediamonds.svg	33	no	0	1	2000
6.6.1	win	2022-12-14	15:26:36	15:41:43	899002	5df2f36b617219204de98060	162173154	1	main_slash	11	advance_on_keypress_SLASH	118	stimuli_distractor_trianglediamonds.svg	stimuli_distractor_trianglediamonds.svg	33	no	57	0	266
6.6.1	win	2022-12-14	15:26:36	15:41:46	901160	5df2f36b617219204de98060	162173154	1	main_slash	11	main_slash	119	stimuli_distractor_trianglediamonds.svg	stimuli_target_trianglesquares.svg	26	yes	53	1	1189
6.6.1	win	2022-12-14	15:26:36	15:41:46	901160	5df2f36b617219204de98060	162173154	1	main_slash	11	advance_on_keypress_SLASH	120	stimuli_distractor_trianglediamonds.svg	stimuli_target_trianglesquares.svg	26	yes	57	0	245
6.6.1	win	2022-12-14	15:26:36	15:41:47	902771	5df2f36b617219204de98060	162173154	1	main_slash	11	main_slash	121	stimuli_target_circletriangles.svg	stimuli_distractor_trianglediamonds.svg	1	yes	53	1	476
6.6.1	win	2022-12-14	15:26:36	15:41:47	902771	5df2f36b617219204de98060	162173154	1	main_slash	11	advance_on_keypress_SLASH	122	stimuli_target_circletriangles.svg	stimuli_distractor_trianglediamonds.svg	1	yes	57	0	240
6.6.1	win	2022-12-14	15:26:36	15:41:49	904257	5df2f36b617219204de98060	162173154	1	main_slash	11	main_slash	123	stimuli_target_squarediamonds.svg	stimuli_distractor_trianglediamonds.svg	4	yes	53	1	531
6.6.1	win	2022-12-14	15:26:36	15:41:49	904257	5df2f36b617219204de98060	162173154	1	main_slash	11	advance_on_keypress_SLASH	124	stimuli_target_squarediamonds.svg	stimuli_distractor_trianglediamonds.svg	4	yes	57	0	200
6.6.1	win	2022-12-14	15:26:36	15:41:52	907345	5df2f36b617219204de98060	162173154	1	main_slash	11	main_slash	125	stimuli_distractor_diamondtriangles.svg	stimuli_distractor_trianglediamonds.svg	37	no	0	1	2000
6.6.1	win	2022-12-14	15:26:36	15:41:52	907345	5df2f36b617219204de98060	162173154	1	main_slash	11	advance_on_keypress_SLASH	126	stimuli_distractor_diamondtriangles.svg	stimuli_distractor_trianglediamonds.svg	37	no	57	0	341
6.6.1	win	2022-12-14	15:26:36	15:41:53	908902	5df2f36b617219204de98060	162173154	1	main_slash	11	main_slash	127	stimuli_distractor_trianglediamonds.svg	stimuli_target_circletriangles.svg	9	yes	53	1	496
6.6.1	win	2022-12-14	15:26:36	15:41:53	908902	5df2f36b617219204de98060	162173154	1	main_slash	11	advance_on_keypress_SLASH	128	stimuli_distractor_trianglediamonds.svg	stimuli_target_circletriangles.svg	9	yes	57	0	208
6.6.1	win	2022-12-14	15:26:36	15:41:56	911898	5df2f36b617219204de98060	162173154	1	main_slash	11	main_slash	129	stimuli_distractor_diamondtriangles.svg	stimuli_target_diamondsquares.svg	32	yes	0	0	2000
6.6.1	win	2022-12-14	15:26:36	15:41:56	911898	5df2f36b617219204de98060	162173154	1	main_slash	11	advance_on_keypress_SLASH	130	stimuli_distractor_diamondtriangles.svg	stimuli_target_diamondsquares.svg	32	yes	57	0	306
6.6.1	win	2022-12-14	15:26:36	15:41:58	913463	5df2f36b617219204de98060	162173154	1	main_slash	11	main_slash	131	stimuli_target_circlediamonds.svg	stimuli_distractor_trianglediamonds.svg	2	yes	53	1	471
6.6.1	win	2022-12-14	15:26:36	15:41:58	913463	5df2f36b617219204de98060	162173154	1	main_slash	11	advance_on_keypress_SLASH	132	stimuli_target_circlediamonds.svg	stimuli_distractor_trianglediamonds.svg	2	yes	57	0	252
6.6.1	win	2022-12-14	15:26:36	15:41:59	914926	5df2f36b617219204de98060	162173154	1	main_slash	11	main_slash	133	stimuli_target_squaretriangles.svg	stimuli_distractor_trianglediamonds.svg	3	yes	53	1	512
6.6.1	win	2022-12-14	15:26:36	15:41:59	914926	5df2f36b617219204de98060	162173154	1	main_slash	11	advance_on_keypress_SLASH	134	stimuli_target_squaretriangles.svg	stimuli_distractor_trianglediamonds.svg	3	yes	57	0	234
6.6.1	win	2022-12-14	15:26:36	15:42:01	916335	5df2f36b617219204de98060	162173154	1	main_slash	11	main_slash	135	stimuli_distractor_diamondtriangles.svg	stimuli_target_trianglecircles.svg	29	yes	53	1	400
6.6.1	win	2022-12-14	15:26:36	15:42:01	916335	5df2f36b617219204de98060	162173154	1	main_slash	11	advance_on_keypress_SLASH	136	stimuli_distractor_diamondtriangles.svg	stimuli_target_trianglecircles.svg	29	yes	57	0	273
6.6.1	win	2022-12-14	15:26:36	15:42:04	919378	5df2f36b617219204de98060	162173154	1	main_slash	11	main_slash	137	stimuli_target_diamondsquares.svg	stimuli_distractor_diamondtriangles.svg	24	yes	0	0	2000
6.6.1	win	2022-12-14	15:26:36	15:42:04	919378	5df2f36b617219204de98060	162173154	1	main_slash	11	advance_on_keypress_SLASH	138	stimuli_target_diamondsquares.svg	stimuli_distractor_diamondtriangles.svg	24	yes	57	0	278
6.6.1	win	2022-12-14	15:26:36	15:42:07	922309	5df2f36b617219204de98060	162173154	1	main_slash	11	main_slash	139	stimuli_distractor_diamondtriangles.svg	stimuli_distractor_diamondtriangles.svg	40	no	0	1	2000
6.6.1	win	2022-12-14	15:26:36	15:42:07	922309	5df2f36b617219204de98060	162173154	1	main_slash	11	advance_on_keypress_SLASH	140	stimuli_distractor_diamondtriangles.svg	stimuli_distractor_diamondtriangles.svg	40	no	57	0	312
6.6.1	win	2022-12-14	15:26:36	15:42:10	925284	5df2f36b617219204de98060	162173154	1	main_slash	11	main_slash	141	stimuli_distractor_trianglediamonds.svg	stimuli_distractor_diamondtriangles.svg	35	no	0	1	2000
6.6.1	win	2022-12-14	15:26:36	15:42:10	925284	5df2f36b617219204de98060	162173154	1	main_slash	11	advance_on_keypress_SLASH	142	stimuli_distractor_trianglediamonds.svg	stimuli_distractor_diamondtriangles.svg	35	no	57	0	264
6.6.1	win	2022-12-14	15:26:36	15:42:13	928219	5df2f36b617219204de98060	162173154	1	main_slash	11	main_slash	143	stimuli_distractor_diamondtriangles.svg	stimuli_distractor_diamondtriangles.svg	39	no	0	1	2000
6.6.1	win	2022-12-14	15:26:36	15:42:13	928219	5df2f36b617219204de98060	162173154	1	main_slash	11	advance_on_keypress_SLASH	144	stimuli_distractor_diamondtriangles.svg	stimuli_distractor_diamondtriangles.svg	39	no	57	0	298
6.6.1	win	2022-12-14	15:26:36	15:42:14	929716	5df2f36b617219204de98060	162173154	1	main_slash	11	main_slash	145	stimuli_target_squaretriangles.svg	stimuli_distractor_diamondtriangles.svg	7	yes	53	1	510
6.6.1	win	2022-12-14	15:26:36	15:42:14	929716	5df2f36b617219204de98060	162173154	1	main_slash	11	advance_on_keypress_SLASH	146	stimuli_target_squaretriangles.svg	stimuli_distractor_diamondtriangles.svg	7	yes	57	0	297
6.6.1	win	2022-12-14	15:26:36	15:42:17	932767	5df2f36b617219204de98060	162173154	1	main_slash	11	main_slash	147	stimuli_distractor_trianglediamonds.svg	stimuli_target_diamondsquares.svg	28	yes	0	0	2000
6.6.1	win	2022-12-14	15:26:36	15:42:17	932767	5df2f36b617219204de98060	162173154	1	main_slash	11	advance_on_keypress_SLASH	148	stimuli_distractor_trianglediamonds.svg	stimuli_target_diamondsquares.svg	28	yes	57	0	334
6.6.1	win	2022-12-14	15:26:36	15:42:19	934393	5df2f36b617219204de98060	162173154	1	main_slash	11	main_slash	149	stimuli_distractor_trianglediamonds.svg	stimuli_target_squaretriangles.svg	11	yes	53	1	553
6.6.1	win	2022-12-14	15:26:36	15:42:19	934393	5df2f36b617219204de98060	162173154	1	main_slash	11	advance_on_keypress_SLASH	150	stimuli_distractor_trianglediamonds.svg	stimuli_target_squaretriangles.svg	11	yes	57	0	208
6.6.1	win	2022-12-14	15:26:36	15:42:22	937346	5df2f36b617219204de98060	162173154	1	main_slash	11	main_slash	151	stimuli_distractor_trianglediamonds.svg	stimuli_target_diamondcircles.svg	27	yes	0	0	2000
6.6.1	win	2022-12-14	15:26:36	15:42:22	937346	5df2f36b617219204de98060	162173154	1	main_slash	11	advance_on_keypress_SLASH	152	stimuli_distractor_trianglediamonds.svg	stimuli_target_diamondcircles.svg	27	yes	57	0	361
6.6.1	win	2022-12-14	15:26:36	15:42:23	938860	5df2f36b617219204de98060	162173154	1	main_slash	11	main_slash	153	stimuli_distractor_diamondtriangles.svg	stimuli_target_squaretriangles.svg	15	yes	53	1	429
6.6.1	win	2022-12-14	15:26:36	15:42:23	938860	5df2f36b617219204de98060	162173154	1	main_slash	11	advance_on_keypress_SLASH	154	stimuli_distractor_diamondtriangles.svg	stimuli_target_squaretriangles.svg	15	yes	57	0	272
6.6.1	win	2022-12-14	15:26:36	15:42:26	941786	5df2f36b617219204de98060	162173154	1	main_slash	11	main_slash	155	stimuli_target_trianglesquares.svg	stimuli_distractor_trianglediamonds.svg	18	yes	0	0	2000
6.6.1	win	2022-12-14	15:26:36	15:42:26	941786	5df2f36b617219204de98060	162173154	1	main_slash	11	advance_on_keypress_SLASH	156	stimuli_target_trianglesquares.svg	stimuli_distractor_trianglediamonds.svg	18	yes	57	0	330
6.6.1	win	2022-12-14	15:26:36	15:42:28	943325	5df2f36b617219204de98060	162173154	1	main_slash	11	main_slash	157	stimuli_target_diamondsquares.svg	stimuli_distractor_trianglediamonds.svg	20	yes	53	1	515
6.6.1	win	2022-12-14	15:26:36	15:42:28	943325	5df2f36b617219204de98060	162173154	1	main_slash	11	advance_on_keypress_SLASH	158	stimuli_target_diamondsquares.svg	stimuli_distractor_trianglediamonds.svg	20	yes	57	0	752
6.6.1	win	2022-12-14	15:26:36	15:42:31	946741	5df2f36b617219204de98060	162173154	1	main_slash	11	main_slash	159	stimuli_distractor_trianglediamonds.svg	stimuli_distractor_trianglediamonds.svg	34	no	0	1	2000
6.6.1	win	2022-12-14	15:26:36	15:42:31	946741	5df2f36b617219204de98060	162173154	1	main_slash	11	advance_on_keypress_SLASH	160	stimuli_distractor_trianglediamonds.svg	stimuli_distractor_trianglediamonds.svg	34	no	57	0	453