build	computer.platform	date	time	timestamp	time_elapsed_ms	subject	group	session	blockcode	blocknum	trialcode	trialnum	stimulus_left	stimulus_right	stim_index	target_present	response	correct	latency
6.6.1	win	2022-12-14	14:01:22	14:04:36	192399	60fc2ec58ad0da367daee3c1	759141640	1	practice_z	5	practice_z	1	stimuli_distractor_trianglediamonds.svg	stimuli_target_diamondcircles.svg	12	yes	0	0	2000
6.6.1	win	2022-12-14	14:01:22	14:04:36	192399	60fc2ec58ad0da367daee3c1	759141640	1	practice_z	5	advance_on_keypress_ZEE	2	stimuli_distractor_trianglediamonds.svg	stimuli_target_diamondcircles.svg	12	yes	57	0	1046
6.6.1	win	2022-12-14	14:01:22	14:04:39	195635	60fc2ec58ad0da367daee3c1	759141640	1	practice_z	5	practice_z	3	stimuli_target_squarediamonds.svg	stimuli_distractor_diamondtriangles.svg	2	yes	44	1	520
6.6.1	win	2022-12-14	14:01:22	14:04:39	195635	60fc2ec58ad0da367daee3c1	759141640	1	practice_z	5	advance_on_keypress_ZEE	4	stimuli_target_squarediamonds.svg	stimuli_distractor_diamondtriangles.svg	2	yes	57	0	498
6.6.1	win	2022-12-14	14:01:22	14:04:43	199425	60fc2ec58ad0da367daee3c1	759141640	1	practice_z	5	practice_z	5	stimuli_distractor_diamondtriangles.svg	stimuli_target_trianglecircles.svg	9	yes	44	1	1643
6.6.1	win	2022-12-14	14:01:22	14:04:43	199425	60fc2ec58ad0da367daee3c1	759141640	1	practice_z	5	advance_on_keypress_ZEE	6	stimuli_distractor_diamondtriangles.svg	stimuli_target_trianglecircles.svg	9	yes	57	0	394
6.6.1	win	2022-12-14	14:01:22	14:04:46	202891	60fc2ec58ad0da367daee3c1	759141640	1	practice_z	5	practice_z	7	stimuli_distractor_trianglediamonds.svg	stimuli_target_squarediamonds.svg	11	yes	44	1	1409
6.6.1	win	2022-12-14	14:01:22	14:04:46	202891	60fc2ec58ad0da367daee3c1	759141640	1	practice_z	5	advance_on_keypress_ZEE	8	stimuli_distractor_trianglediamonds.svg	stimuli_target_squarediamonds.svg	11	yes	57	0	584
6.6.1	win	2022-12-14	14:01:22	14:04:51	207131	60fc2ec58ad0da367daee3c1	759141640	1	practice_z	5	practice_z	9	stimuli_distractor_trianglediamonds.svg	stimuli_distractor_diamondtriangles.svg	16	no	0	1	2000
6.6.1	win	2022-12-14	14:01:22	14:04:51	207131	60fc2ec58ad0da367daee3c1	759141640	1	practice_z	5	advance_on_keypress_ZEE	10	stimuli_distractor_trianglediamonds.svg	stimuli_distractor_diamondtriangles.svg	16	no	57	0	642
6.6.1	win	2022-12-14	14:01:22	14:04:55	211262	60fc2ec58ad0da367daee3c1	759141640	1	practice_z	5	practice_z	11	stimuli_distractor_diamondtriangles.svg	stimuli_target_diamondcircles.svg	8	yes	44	1	1848
6.6.1	win	2022-12-14	14:01:22	14:04:55	211262	60fc2ec58ad0da367daee3c1	759141640	1	practice_z	5	advance_on_keypress_ZEE	12	stimuli_distractor_diamondtriangles.svg	stimuli_target_diamondcircles.svg	8	yes	57	0	565
6.6.1	win	2022-12-14	14:01:22	14:04:59	215481	60fc2ec58ad0da367daee3c1	759141640	1	practice_z	5	practice_z	13	stimuli_distractor_diamondtriangles.svg	stimuli_distractor_diamondtriangles.svg	13	no	0	1	2000
6.6.1	win	2022-12-14	14:01:22	14:04:59	215481	60fc2ec58ad0da367daee3c1	759141640	1	practice_z	5	advance_on_keypress_ZEE	14	stimuli_distractor_diamondtriangles.svg	stimuli_distractor_diamondtriangles.svg	13	no	57	0	900
6.6.1	win	2022-12-14	14:01:22	14:05:03	219364	60fc2ec58ad0da367daee3c1	759141640	1	practice_z	5	practice_z	15	stimuli_target_circlediamonds.svg	stimuli_distractor_diamondtriangles.svg	1	yes	44	1	1334
6.6.1	win	2022-12-14	14:01:22	14:05:03	219364	60fc2ec58ad0da367daee3c1	759141640	1	practice_z	5	advance_on_keypress_ZEE	16	stimuli_target_circlediamonds.svg	stimuli_distractor_diamondtriangles.svg	1	yes	57	0	447
6.6.1	win	2022-12-14	14:01:22	14:05:06	222449	60fc2ec58ad0da367daee3c1	759141640	1	practice_z	5	practice_z	17	stimuli_target_squarediamonds.svg	stimuli_distractor_trianglediamonds.svg	5	yes	44	1	986
6.6.1	win	2022-12-14	14:01:22	14:05:06	222449	60fc2ec58ad0da367daee3c1	759141640	1	practice_z	5	advance_on_keypress_ZEE	18	stimuli_target_squarediamonds.svg	stimuli_distractor_trianglediamonds.svg	5	yes	57	0	525
6.6.1	win	2022-12-14	14:01:22	14:05:10	226630	60fc2ec58ad0da367daee3c1	759141640	1	practice_z	5	practice_z	19	stimuli_target_diamondsquares.svg	stimuli_distractor_diamondtriangles.svg	3	yes	0	0	2000
6.6.1	win	2022-12-14	14:01:22	14:05:10	226630	60fc2ec58ad0da367daee3c1	759141640	1	practice_z	5	advance_on_keypress_ZEE	20	stimuli_target_diamondsquares.svg	stimuli_distractor_diamondtriangles.svg	3	yes	57	0	532
6.6.1	win	2022-12-14	14:01:22	14:05:14	230811	60fc2ec58ad0da367daee3c1	759141640	1	practice_z	5	practice_z	21	stimuli_distractor_diamondtriangles.svg	stimuli_distractor_trianglediamonds.svg	14	no	0	1	2000
6.6.1	win	2022-12-14	14:01:22	14:05:14	230811	60fc2ec58ad0da367daee3c1	759141640	1	practice_z	5	advance_on_keypress_ZEE	22	stimuli_distractor_diamondtriangles.svg	stimuli_distractor_trianglediamonds.svg	14	no	57	0	1246
6.6.1	win	2022-12-14	14:01:22	14:05:18	234572	60fc2ec58ad0da367daee3c1	759141640	1	practice_z	5	practice_z	23	stimuli_distractor_diamondtriangles.svg	stimuli_target_circletriangles.svg	7	yes	44	1	860
6.6.1	win	2022-12-14	14:01:22	14:05:18	234572	60fc2ec58ad0da367daee3c1	759141640	1	practice_z	5	advance_on_keypress_ZEE	24	stimuli_distractor_diamondtriangles.svg	stimuli_target_circletriangles.svg	7	yes	57	0	464
6.6.1	win	2022-12-14	14:01:22	14:05:22	238695	60fc2ec58ad0da367daee3c1	759141640	1	practice_z	5	practice_z	25	stimuli_distractor_trianglediamonds.svg	stimuli_distractor_trianglediamonds.svg	15	no	0	1	2000
6.6.1	win	2022-12-14	14:01:22	14:05:22	238695	60fc2ec58ad0da367daee3c1	759141640	1	practice_z	5	advance_on_keypress_ZEE	26	stimuli_distractor_trianglediamonds.svg	stimuli_distractor_trianglediamonds.svg	15	no	57	0	613
6.6.1	win	2022-12-14	14:01:22	14:05:25	241892	60fc2ec58ad0da367daee3c1	759141640	1	practice_z	5	practice_z	27	stimuli_distractor_trianglediamonds.svg	stimuli_target_circlediamonds.svg	10	yes	44	1	931
6.6.1	win	2022-12-14	14:01:22	14:05:25	241892	60fc2ec58ad0da367daee3c1	759141640	1	practice_z	5	advance_on_keypress_ZEE	28	stimuli_distractor_trianglediamonds.svg	stimuli_target_circlediamonds.svg	10	yes	57	0	434
6.6.1	win	2022-12-14	14:01:22	14:05:29	244997	60fc2ec58ad0da367daee3c1	759141640	1	practice_z	5	practice_z	29	stimuli_target_circlediamonds.svg	stimuli_distractor_trianglediamonds.svg	4	yes	44	1	1020
6.6.1	win	2022-12-14	14:01:22	14:05:29	244997	60fc2ec58ad0da367daee3c1	759141640	1	practice_z	5	advance_on_keypress_ZEE	30	stimuli_target_circlediamonds.svg	stimuli_distractor_trianglediamonds.svg	4	yes	57	0	293
6.6.1	win	2022-12-14	14:01:22	14:05:32	248481	60fc2ec58ad0da367daee3c1	759141640	1	practice_z	5	practice_z	31	stimuli_target_diamondsquares.svg	stimuli_distractor_trianglediamonds.svg	6	yes	44	1	1554
6.6.1	win	2022-12-14	14:01:22	14:05:32	248481	60fc2ec58ad0da367daee3c1	759141640	1	practice_z	5	advance_on_keypress_ZEE	32	stimuli_target_diamondsquares.svg	stimuli_distractor_trianglediamonds.svg	6	yes	57	0	350
6.6.1	win	2022-12-14	14:01:22	14:05:41	257292	60fc2ec58ad0da367daee3c1	759141640	1	main_z	7	main_z	1	stimuli_distractor_trianglediamonds.svg	stimuli_target_trianglecircles.svg	25	yes	44	1	853
6.6.1	win	2022-12-14	14:01:22	14:05:41	257292	60fc2ec58ad0da367daee3c1	759141640	1	main_z	7	advance_on_keypress_ZEE	2	stimuli_distractor_trianglediamonds.svg	stimuli_target_trianglecircles.svg	25	yes	57	0	807
6.6.1	win	2022-12-14	14:01:22	14:05:43	259276	60fc2ec58ad0da367daee3c1	759141640	1	main_z	7	main_z	3	stimuli_distractor_diamondtriangles.svg	stimuli_target_diamondsquares.svg	32	yes	44	1	537
6.6.1	win	2022-12-14	14:01:22	14:05:43	259276	60fc2ec58ad0da367daee3c1	759141640	1	main_z	7	advance_on_keypress_ZEE	4	stimuli_distractor_diamondtriangles.svg	stimuli_target_diamondsquares.svg	32	yes	57	0	689
6.6.1	win	2022-12-14	14:01:22	14:05:45	261098	60fc2ec58ad0da367daee3c1	759141640	1	main_z	7	main_z	5	stimuli_distractor_trianglediamonds.svg	stimuli_target_trianglesquares.svg	26	yes	44	1	492
6.6.1	win	2022-12-14	14:01:22	14:05:45	261098	60fc2ec58ad0da367daee3c1	759141640	1	main_z	7	advance_on_keypress_ZEE	6	stimuli_distractor_trianglediamonds.svg	stimuli_target_trianglesquares.svg	26	yes	57	0	538
6.6.1	win	2022-12-14	14:01:22	14:05:48	264272	60fc2ec58ad0da367daee3c1	759141640	1	main_z	7	main_z	7	stimuli_distractor_trianglediamonds.svg	stimuli_distractor_diamondtriangles.svg	36	no	0	1	2000
6.6.1	win	2022-12-14	14:01:22	14:05:48	264272	60fc2ec58ad0da367daee3c1	759141640	1	main_z	7	advance_on_keypress_ZEE	8	stimuli_distractor_trianglediamonds.svg	stimuli_distractor_diamondtriangles.svg	36	no	57	0	414
6.6.1	win	2022-12-14	14:01:22	14:05:50	266066	60fc2ec58ad0da367daee3c1	759141640	1	main_z	7	main_z	9	stimuli_target_diamondsquares.svg	stimuli_distractor_trianglediamonds.svg	20	yes	44	1	727
6.6.1	win	2022-12-14	14:01:22	14:05:50	266066	60fc2ec58ad0da367daee3c1	759141640	1	main_z	7	advance_on_keypress_ZEE	10	stimuli_target_diamondsquares.svg	stimuli_distractor_trianglediamonds.svg	20	yes	57	0	565
6.6.1	win	2022-12-14	14:01:22	14:05:52	268293	60fc2ec58ad0da367daee3c1	759141640	1	main_z	7	main_z	11	stimuli_distractor_diamondtriangles.svg	stimuli_distractor_trianglediamonds.svg	37	no	44	0	1021
6.6.1	win	2022-12-14	14:01:22	14:05:52	268293	60fc2ec58ad0da367daee3c1	759141640	1	main_z	7	advance_on_keypress_ZEE	12	stimuli_distractor_diamondtriangles.svg	stimuli_distractor_trianglediamonds.svg	37	no	57	0	403
6.6.1	win	2022-12-14	14:01:22	14:05:55	271338	60fc2ec58ad0da367daee3c1	759141640	1	main_z	7	main_z	13	stimuli_target_squaretriangles.svg	stimuli_distractor_trianglediamonds.svg	3	yes	0	0	2000
6.6.1	win	2022-12-14	14:01:22	14:05:55	271338	60fc2ec58ad0da367daee3c1	759141640	1	main_z	7	advance_on_keypress_ZEE	14	stimuli_target_squaretriangles.svg	stimuli_distractor_trianglediamonds.svg	3	yes	57	0	529
6.6.1	win	2022-12-14	14:01:22	14:05:57	273686	60fc2ec58ad0da367daee3c1	759141640	1	main_z	7	main_z	15	stimuli_distractor_trianglediamonds.svg	stimuli_target_squarediamonds.svg	12	yes	44	1	1164
6.6.1	win	2022-12-14	14:01:22	14:05:57	273686	60fc2ec58ad0da367daee3c1	759141640	1	main_z	7	advance_on_keypress_ZEE	16	stimuli_distractor_trianglediamonds.svg	stimuli_target_squarediamonds.svg	12	yes	57	0	512
6.6.1	win	2022-12-14	14:01:22	14:06:00	276838	60fc2ec58ad0da367daee3c1	759141640	1	main_z	7	main_z	17	stimuli_distractor_trianglediamonds.svg	stimuli_target_circletriangles.svg	9	yes	0	0	2000
6.6.1	win	2022-12-14	14:01:22	14:06:00	276838	60fc2ec58ad0da367daee3c1	759141640	1	main_z	7	advance_on_keypress_ZEE	18	stimuli_distractor_trianglediamonds.svg	stimuli_target_circletriangles.svg	9	yes	57	0	306
6.6.1	win	2022-12-14	14:01:22	14:06:02	278793	60fc2ec58ad0da367daee3c1	759141640	1	main_z	7	main_z	19	stimuli_target_squarediamonds.svg	stimuli_distractor_diamondtriangles.svg	8	yes	44	1	1005
6.6.1	win	2022-12-14	14:01:22	14:06:02	278793	60fc2ec58ad0da367daee3c1	759141640	1	main_z	7	advance_on_keypress_ZEE	20	stimuli_target_squarediamonds.svg	stimuli_distractor_diamondtriangles.svg	8	yes	57	0	705
6.6.1	win	2022-12-14	14:01:22	14:06:05	281237	60fc2ec58ad0da367daee3c1	759141640	1	main_z	7	main_z	21	stimuli_target_squaretriangles.svg	stimuli_distractor_diamondtriangles.svg	7	yes	44	1	1099
6.6.1	win	2022-12-14	14:01:22	14:06:05	281237	60fc2ec58ad0da367daee3c1	759141640	1	main_z	7	advance_on_keypress_ZEE	22	stimuli_target_squaretriangles.svg	stimuli_distractor_diamondtriangles.svg	7	yes	57	0	619
6.6.1	win	2022-12-14	14:01:22	14:06:07	283304	60fc2ec58ad0da367daee3c1	759141640	1	main_z	7	main_z	23	stimuli_distractor_diamondtriangles.svg	stimuli_target_circlediamonds.svg	14	yes	44	1	801
6.6.1	win	2022-12-14	14:01:22	14:06:07	283304	60fc2ec58ad0da367daee3c1	759141640	1	main_z	7	advance_on_keypress_ZEE	24	stimuli_distractor_diamondtriangles.svg	stimuli_target_circlediamonds.svg	14	yes	57	0	575
6.6.1	win	2022-12-14	14:01:22	14:06:09	285562	60fc2ec58ad0da367daee3c1	759141640	1	main_z	7	main_z	25	stimuli_distractor_diamondtriangles.svg	stimuli_target_circletriangles.svg	13	yes	44	1	1043
6.6.1	win	2022-12-14	14:01:22	14:06:09	285562	60fc2ec58ad0da367daee3c1	759141640	1	main_z	7	advance_on_keypress_ZEE	26	stimuli_distractor_diamondtriangles.svg	stimuli_target_circletriangles.svg	13	yes	57	0	609
6.6.1	win	2022-12-14	14:01:22	14:06:12	288391	60fc2ec58ad0da367daee3c1	759141640	1	main_z	7	main_z	27	stimuli_target_diamondsquares.svg	stimuli_distractor_diamondtriangles.svg	24	yes	44	1	1588
6.6.1	win	2022-12-14	14:01:22	14:06:12	288391	60fc2ec58ad0da367daee3c1	759141640	1	main_z	7	advance_on_keypress_ZEE	28	stimuli_target_diamondsquares.svg	stimuli_distractor_diamondtriangles.svg	24	yes	57	0	460
6.6.1	win	2022-12-14	14:01:22	14:06:15	291486	60fc2ec58ad0da367daee3c1	759141640	1	main_z	7	main_z	29	stimuli_distractor_trianglediamonds.svg	stimuli_distractor_diamondtriangles.svg	35	no	0	1	2000
6.6.1	win	2022-12-14	14:01:22	14:06:15	291486	60fc2ec58ad0da367daee3c1	759141640	1	main_z	7	advance_on_keypress_ZEE	30	stimuli_distractor_trianglediamonds.svg	stimuli_distractor_diamondtriangles.svg	35	no	57	0	449
6.6.1	win	2022-12-14	14:01:22	14:06:17	293618	60fc2ec58ad0da367daee3c1	759141640	1	main_z	7	main_z	31	stimuli_target_trianglesquares.svg	stimuli_distractor_trianglediamonds.svg	18	yes	44	1	1033
6.6.1	win	2022-12-14	14:01:22	14:06:17	293618	60fc2ec58ad0da367daee3c1	759141640	1	main_z	7	advance_on_keypress_ZEE	32	stimuli_target_trianglesquares.svg	stimuli_distractor_trianglediamonds.svg	18	yes	57	0	815
6.6.1	win	2022-12-14	14:01:22	14:06:20	296562	60fc2ec58ad0da367daee3c1	759141640	1	main_z	7	main_z	33	stimuli_target_circletriangles.svg	stimuli_distractor_diamondtriangles.svg	5	yes	44	1	1477
6.6.1	win	2022-12-14	14:01:22	14:06:20	296562	60fc2ec58ad0da367daee3c1	759141640	1	main_z	7	advance_on_keypress_ZEE	34	stimuli_target_circletriangles.svg	stimuli_distractor_diamondtriangles.svg	5	yes	57	0	655
6.6.1	win	2022-12-14	14:01:22	14:06:23	299852	60fc2ec58ad0da367daee3c1	759141640	1	main_z	7	main_z	35	stimuli_distractor_diamondtriangles.svg	stimuli_distractor_diamondtriangles.svg	39	no	0	1	2000
6.6.1	win	2022-12-14	14:01:22	14:06:23	299852	60fc2ec58ad0da367daee3c1	759141640	1	main_z	7	advance_on_keypress_ZEE	36	stimuli_distractor_diamondtriangles.svg	stimuli_distractor_diamondtriangles.svg	39	no	57	0	443
6.6.1	win	2022-12-14	14:01:22	14:06:26	302935	60fc2ec58ad0da367daee3c1	759141640	1	main_z	7	main_z	37	stimuli_distractor_diamondtriangles.svg	stimuli_distractor_diamondtriangles.svg	40	no	0	1	2000
6.6.1	win	2022-12-14	14:01:22	14:06:26	302935	60fc2ec58ad0da367daee3c1	759141640	1	main_z	7	advance_on_keypress_ZEE	38	stimuli_distractor_diamondtriangles.svg	stimuli_distractor_diamondtriangles.svg	40	no	57	0	615
6.6.1	win	2022-12-14	14:01:22	14:06:28	304828	60fc2ec58ad0da367daee3c1	759141640	1	main_z	7	main_z	39	stimuli_distractor_diamondtriangles.svg	stimuli_target_trianglecircles.svg	29	yes	44	1	627
6.6.1	win	2022-12-14	14:01:22	14:06:28	304828	60fc2ec58ad0da367daee3c1	759141640	1	main_z	7	advance_on_keypress_ZEE	40	stimuli_distractor_diamondtriangles.svg	stimuli_target_trianglecircles.svg	29	yes	57	0	609
6.6.1	win	2022-12-14	14:01:22	14:06:30	306816	60fc2ec58ad0da367daee3c1	759141640	1	main_z	7	main_z	41	stimuli_target_diamondcircles.svg	stimuli_distractor_trianglediamonds.svg	19	yes	44	1	748
6.6.1	win	2022-12-14	14:01:22	14:06:30	306816	60fc2ec58ad0da367daee3c1	759141640	1	main_z	7	advance_on_keypress_ZEE	42	stimuli_target_diamondcircles.svg	stimuli_distractor_trianglediamonds.svg	19	yes	57	0	492
6.6.1	win	2022-12-14	14:01:22	14:06:33	309085	60fc2ec58ad0da367daee3c1	759141640	1	main_z	7	main_z	43	stimuli_distractor_trianglediamonds.svg	stimuli_target_squaretriangles.svg	11	yes	44	1	1131
6.6.1	win	2022-12-14	14:01:22	14:06:33	309085	60fc2ec58ad0da367daee3c1	759141640	1	main_z	7	advance_on_keypress_ZEE	44	stimuli_distractor_trianglediamonds.svg	stimuli_target_squaretriangles.svg	11	yes	57	0	323
6.6.1	win	2022-12-14	14:01:22	14:06:35	311098	60fc2ec58ad0da367daee3c1	759141640	1	main_z	7	main_z	45	stimuli_distractor_trianglediamonds.svg	stimuli_distractor_trianglediamonds.svg	34	no	44	0	1047
6.6.1	win	2022-12-14	14:01:22	14:06:35	311098	60fc2ec58ad0da367daee3c1	759141640	1	main_z	7	advance_on_keypress_ZEE	46	stimuli_distractor_trianglediamonds.svg	stimuli_distractor_trianglediamonds.svg	34	no	57	0	307
6.6.1	win	2022-12-14	14:01:22	14:06:36	312849	60fc2ec58ad0da367daee3c1	759141640	1	main_z	7	main_z	47	stimuli_distractor_diamondtriangles.svg	stimuli_target_squaretriangles.svg	15	yes	44	1	798
6.6.1	win	2022-12-14	14:01:22	14:06:36	312849	60fc2ec58ad0da367daee3c1	759141640	1	main_z	7	advance_on_keypress_ZEE	48	stimuli_distractor_diamondtriangles.svg	stimuli_target_squaretriangles.svg	15	yes	57	0	432
6.6.1	win	2022-12-14	14:01:22	14:06:38	314727	60fc2ec58ad0da367daee3c1	759141640	1	main_z	7	main_z	49	stimuli_target_trianglecircles.svg	stimuli_distractor_diamondtriangles.svg	21	yes	44	1	792
6.6.1	win	2022-12-14	14:01:22	14:06:38	314727	60fc2ec58ad0da367daee3c1	759141640	1	main_z	7	advance_on_keypress_ZEE	50	stimuli_target_trianglecircles.svg	stimuli_distractor_diamondtriangles.svg	21	yes	57	0	409
6.6.1	win	2022-12-14	14:01:22	14:06:40	316374	60fc2ec58ad0da367daee3c1	759141640	1	main_z	7	main_z	51	stimuli_target_diamondcircles.svg	stimuli_distractor_diamondtriangles.svg	23	yes	44	1	607
6.6.1	win	2022-12-14	14:01:22	14:06:40	316374	60fc2ec58ad0da367daee3c1	759141640	1	main_z	7	advance_on_keypress_ZEE	52	stimuli_target_diamondcircles.svg	stimuli_distractor_diamondtriangles.svg	23	yes	57	0	481
6.6.1	win	2022-12-14	14:01:22	14:06:43	319511	60fc2ec58ad0da367daee3c1	759141640	1	main_z	7	main_z	53	stimuli_distractor_diamondtriangles.svg	stimuli_distractor_trianglediamonds.svg	38	no	0	1	2000
6.6.1	win	2022-12-14	14:01:22	14:06:43	319511	60fc2ec58ad0da367daee3c1	759141640	1	main_z	7	advance_on_keypress_ZEE	54	stimuli_distractor_diamondtriangles.svg	stimuli_distractor_trianglediamonds.svg	38	no	57	0	597
6.6.1	win	2022-12-14	14:01:22	14:06:45	321640	60fc2ec58ad0da367daee3c1	759141640	1	main_z	7	main_z	55	stimuli_distractor_trianglediamonds.svg	stimuli_target_circlediamonds.svg	10	yes	44	1	874
6.6.1	win	2022-12-14	14:01:22	14:06:45	321640	60fc2ec58ad0da367daee3c1	759141640	1	main_z	7	advance_on_keypress_ZEE	56	stimuli_distractor_trianglediamonds.svg	stimuli_target_circlediamonds.svg	10	yes	57	0	497
6.6.1	win	2022-12-14	14:01:22	14:06:47	323674	60fc2ec58ad0da367daee3c1	759141640	1	main_z	7	main_z	57	stimuli_target_trianglecircles.svg	stimuli_distractor_trianglediamonds.svg	17	yes	44	1	891
6.6.1	win	2022-12-14	14:01:22	14:06:47	323674	60fc2ec58ad0da367daee3c1	759141640	1	main_z	7	advance_on_keypress_ZEE	58	stimuli_target_trianglecircles.svg	stimuli_distractor_trianglediamonds.svg	17	yes	57	0	432
6.6.1	win	2022-12-14	14:01:22	14:06:49	325546	60fc2ec58ad0da367daee3c1	759141640	1	main_z	7	main_z	59	stimuli_target_circletriangles.svg	stimuli_distractor_trianglediamonds.svg	1	yes	44	1	796
6.6.1	win	2022-12-14	14:01:22	14:06:49	325546	60fc2ec58ad0da367daee3c1	759141640	1	main_z	7	advance_on_keypress_ZEE	60	stimuli_target_circletriangles.svg	stimuli_distractor_trianglediamonds.svg	1	yes	57	0	431
6.6.1	win	2022-12-14	14:01:22	14:06:51	327459	60fc2ec58ad0da367daee3c1	759141640	1	main_z	7	main_z	61	stimuli_target_squarediamonds.svg	stimuli_distractor_trianglediamonds.svg	4	yes	44	1	826
6.6.1	win	2022-12-14	14:01:22	14:06:51	327459	60fc2ec58ad0da367daee3c1	759141640	1	main_z	7	advance_on_keypress_ZEE	62	stimuli_target_squarediamonds.svg	stimuli_distractor_trianglediamonds.svg	4	yes	57	0	393
6.6.1	win	2022-12-14	14:01:22	14:06:53	329211	60fc2ec58ad0da367daee3c1	759141640	1	main_z	7	main_z	63	stimuli_target_circlediamonds.svg	stimuli_distractor_trianglediamonds.svg	2	yes	44	1	728
6.6.1	win	2022-12-14	14:01:22	14:06:53	329211	60fc2ec58ad0da367daee3c1	759141640	1	main_z	7	advance_on_keypress_ZEE	64	stimuli_target_circlediamonds.svg	stimuli_distractor_trianglediamonds.svg	2	yes	57	0	400
6.6.1	win	2022-12-14	14:01:22	14:06:56	332240	60fc2ec58ad0da367daee3c1	759141640	1	main_z	7	main_z	65	stimuli_distractor_diamondtriangles.svg	stimuli_target_diamondcircles.svg	31	yes	44	1	1974
6.6.1	win	2022-12-14	14:01:22	14:06:56	332240	60fc2ec58ad0da367daee3c1	759141640	1	main_z	7	advance_on_keypress_ZEE	66	stimuli_distractor_diamondtriangles.svg	stimuli_target_diamondcircles.svg	31	yes	57	0	527
6.6.1	win	2022-12-14	14:01:22	14:06:58	334519	60fc2ec58ad0da367daee3c1	759141640	1	main_z	7	main_z	67	stimuli_target_trianglesquares.svg	stimuli_distractor_diamondtriangles.svg	22	yes	44	1	1120
6.6.1	win	2022-12-14	14:01:22	14:06:58	334519	60fc2ec58ad0da367daee3c1	759141640	1	main_z	7	advance_on_keypress_ZEE	68	stimuli_target_trianglesquares.svg	stimuli_distractor_diamondtriangles.svg	22	yes	57	0	287
6.6.1	win	2022-12-14	14:01:22	14:07:01	337448	60fc2ec58ad0da367daee3c1	759141640	1	main_z	7	main_z	69	stimuli_distractor_trianglediamonds.svg	stimuli_target_diamondcircles.svg	27	yes	0	0	2000
6.6.1	win	2022-12-14	14:01:22	14:07:01	337448	60fc2ec58ad0da367daee3c1	759141640	1	main_z	7	advance_on_keypress_ZEE	70	stimuli_distractor_trianglediamonds.svg	stimuli_target_diamondcircles.svg	27	yes	57	0	553
6.6.1	win	2022-12-14	14:01:22	14:07:03	339705	60fc2ec58ad0da367daee3c1	759141640	1	main_z	7	main_z	71	stimuli_distractor_trianglediamonds.svg	stimuli_target_diamondsquares.svg	28	yes	44	1	1058
6.6.1	win	2022-12-14	14:01:22	14:07:03	339705	60fc2ec58ad0da367daee3c1	759141640	1	main_z	7	advance_on_keypress_ZEE	72	stimuli_distractor_trianglediamonds.svg	stimuli_target_diamondsquares.svg	28	yes	57	0	341
6.6.1	win	2022-12-14	14:01:22	14:07:05	341347	60fc2ec58ad0da367daee3c1	759141640	1	main_z	7	main_z	73	stimuli_target_circlediamonds.svg	stimuli_distractor_diamondtriangles.svg	6	yes	44	1	666
6.6.1	win	2022-12-14	14:01:22	14:07:05	341347	60fc2ec58ad0da367daee3c1	759141640	1	main_z	7	advance_on_keypress_ZEE	74	stimuli_target_circlediamonds.svg	stimuli_distractor_diamondtriangles.svg	6	yes	57	0	414
6.6.1	win	2022-12-14	14:01:22	14:07:07	343125	60fc2ec58ad0da367daee3c1	759141640	1	main_z	7	main_z	75	stimuli_distractor_diamondtriangles.svg	stimuli_target_squarediamonds.svg	16	yes	44	1	712
6.6.1	win	2022-12-14	14:01:22	14:07:07	343125	60fc2ec58ad0da367daee3c1	759141640	1	main_z	7	advance_on_keypress_ZEE	76	stimuli_distractor_diamondtriangles.svg	stimuli_target_squarediamonds.svg	16	yes	57	0	374
6.6.1	win	2022-12-14	14:01:22	14:07:09	345168	60fc2ec58ad0da367daee3c1	759141640	1	main_z	7	main_z	77	stimuli_distractor_diamondtriangles.svg	stimuli_target_trianglesquares.svg	30	yes	44	1	1037
6.6.1	win	2022-12-14	14:01:22	14:07:09	345168	60fc2ec58ad0da367daee3c1	759141640	1	main_z	7	advance_on_keypress_ZEE	78	stimuli_distractor_diamondtriangles.svg	stimuli_target_trianglesquares.svg	30	yes	57	0	422
6.6.1	win	2022-12-14	14:01:22	14:07:12	348230	60fc2ec58ad0da367daee3c1	759141640	1	main_z	7	main_z	79	stimuli_distractor_trianglediamonds.svg	stimuli_distractor_trianglediamonds.svg	33	no	0	1	2000
6.6.1	win	2022-12-14	14:01:22	14:07:12	348230	60fc2ec58ad0da367daee3c1	759141640	1	main_z	7	advance_on_keypress_ZEE	80	stimuli_distractor_trianglediamonds.svg	stimuli_distractor_trianglediamonds.svg	33	no	57	0	540
6.6.1	win	2022-12-14	14:01:22	14:07:15	351413	60fc2ec58ad0da367daee3c1	759141640	1	main_z	7	main_z	81	stimuli_distractor_trianglediamonds.svg	stimuli_distractor_trianglediamonds.svg	33	no	0	1	2000
6.6.1	win	2022-12-14	14:01:22	14:07:15	351413	60fc2ec58ad0da367daee3c1	759141640	1	main_z	7	advance_on_keypress_ZEE	82	stimuli_distractor_trianglediamonds.svg	stimuli_distractor_trianglediamonds.svg	33	no	57	0	361
6.6.1	win	2022-12-14	14:01:22	14:07:17	353068	60fc2ec58ad0da367daee3c1	759141640	1	main_z	7	main_z	83	stimuli_distractor_trianglediamonds.svg	stimuli_target_trianglecircles.svg	25	yes	44	1	638
6.6.1	win	2022-12-14	14:01:22	14:07:17	353068	60fc2ec58ad0da367daee3c1	759141640	1	main_z	7	advance_on_keypress_ZEE	84	stimuli_distractor_trianglediamonds.svg	stimuli_target_trianglecircles.svg	25	yes	57	0	409
6.6.1	win	2022-12-14	14:01:22	14:07:18	354875	60fc2ec58ad0da367daee3c1	759141640	1	main_z	7	main_z	85	stimuli_target_squarediamonds.svg	stimuli_distractor_diamondtriangles.svg	8	yes	44	1	762
6.6.1	win	2022-12-14	14:01:22	14:07:18	354875	60fc2ec58ad0da367daee3c1	759141640	1	main_z	7	advance_on_keypress_ZEE	86	stimuli_target_squarediamonds.svg	stimuli_distractor_diamondtriangles.svg	8	yes	57	0	370
6.6.1	win	2022-12-14	14:01:22	14:07:20	356713	60fc2ec58ad0da367daee3c1	759141640	1	main_z	7	main_z	87	stimuli_distractor_diamondtriangles.svg	stimuli_target_diamondcircles.svg	31	yes	44	1	817
6.6.1	win	2022-12-14	14:01:22	14:07:20	356713	60fc2ec58ad0da367daee3c1	759141640	1	main_z	7	advance_on_keypress_ZEE	88	stimuli_distractor_diamondtriangles.svg	stimuli_target_diamondcircles.svg	31	yes	57	0	284
6.6.1	win	2022-12-14	14:01:22	14:07:22	358375	60fc2ec58ad0da367daee3c1	759141640	1	main_z	7	main_z	89	stimuli_distractor_diamondtriangles.svg	stimuli_target_circlediamonds.svg	14	yes	44	1	729
6.6.1	win	2022-12-14	14:01:22	14:07:22	358375	60fc2ec58ad0da367daee3c1	759141640	1	main_z	7	advance_on_keypress_ZEE	90	stimuli_distractor_diamondtriangles.svg	stimuli_target_circlediamonds.svg	14	yes	57	0	375
6.6.1	win	2022-12-14	14:01:22	14:07:24	360208	60fc2ec58ad0da367daee3c1	759141640	1	main_z	7	main_z	91	stimuli_distractor_diamondtriangles.svg	stimuli_target_circletriangles.svg	13	yes	44	1	812
6.6.1	win	2022-12-14	14:01:22	14:07:24	360208	60fc2ec58ad0da367daee3c1	759141640	1	main_z	7	advance_on_keypress_ZEE	92	stimuli_distractor_diamondtriangles.svg	stimuli_target_circletriangles.svg	13	yes	57	0	289
6.6.1	win	2022-12-14	14:01:22	14:07:27	363145	60fc2ec58ad0da367daee3c1	759141640	1	main_z	7	main_z	93	stimuli_distractor_diamondtriangles.svg	stimuli_distractor_trianglediamonds.svg	38	no	0	1	2000
6.6.1	win	2022-12-14	14:01:22	14:07:27	363145	60fc2ec58ad0da367daee3c1	759141640	1	main_z	7	advance_on_keypress_ZEE	94	stimuli_distractor_diamondtriangles.svg	stimuli_distractor_trianglediamonds.svg	38	no	57	0	385
6.6.1	win	2022-12-14	14:01:22	14:07:28	364874	60fc2ec58ad0da367daee3c1	759141640	1	main_z	7	main_z	95	stimuli_target_trianglecircles.svg	stimuli_distractor_trianglediamonds.svg	17	yes	44	1	695
6.6.1	win	2022-12-14	14:01:22	14:07:28	364874	60fc2ec58ad0da367daee3c1	759141640	1	main_z	7	advance_on_keypress_ZEE	96	stimuli_target_trianglecircles.svg	stimuli_distractor_trianglediamonds.svg	17	yes	57	0	315
6.6.1	win	2022-12-14	14:01:22	14:07:30	366491	60fc2ec58ad0da367daee3c1	759141640	1	main_z	7	main_z	97	stimuli_distractor_diamondtriangles.svg	stimuli_target_squarediamonds.svg	16	yes	44	1	646
6.6.1	win	2022-12-14	14:01:22	14:07:30	366491	60fc2ec58ad0da367daee3c1	759141640	1	main_z	7	advance_on_keypress_ZEE	98	stimuli_distractor_diamondtriangles.svg	stimuli_target_squarediamonds.svg	16	yes	57	0	350
6.6.1	win	2022-12-14	14:01:22	14:07:32	368358	60fc2ec58ad0da367daee3c1	759141640	1	main_z	7	main_z	99	stimuli_distractor_trianglediamonds.svg	stimuli_target_diamondsquares.svg	28	yes	44	1	863
6.6.1	win	2022-12-14	14:01:22	14:07:32	368358	60fc2ec58ad0da367daee3c1	759141640	1	main_z	7	advance_on_keypress_ZEE	100	stimuli_distractor_trianglediamonds.svg	stimuli_target_diamondsquares.svg	28	yes	57	0	251
6.6.1	win	2022-12-14	14:01:22	14:07:34	370152	60fc2ec58ad0da367daee3c1	759141640	1	main_z	7	main_z	101	stimuli_target_diamondsquares.svg	stimuli_distractor_diamondtriangles.svg	24	yes	44	1	890
6.6.1	win	2022-12-14	14:01:22	14:07:34	370152	60fc2ec58ad0da367daee3c1	759141640	1	main_z	7	advance_on_keypress_ZEE	102	stimuli_target_diamondsquares.svg	stimuli_distractor_diamondtriangles.svg	24	yes	57	0	370
6.6.1	win	2022-12-14	14:01:22	14:07:35	371873	60fc2ec58ad0da367daee3c1	759141640	1	main_z	7	main_z	103	stimuli_target_diamondsquares.svg	stimuli_distractor_trianglediamonds.svg	20	yes	44	1	712
6.6.1	win	2022-12-14	14:01:22	14:07:35	371873	60fc2ec58ad0da367daee3c1	759141640	1	main_z	7	advance_on_keypress_ZEE	104	stimuli_target_diamondsquares.svg	stimuli_distractor_trianglediamonds.svg	20	yes	57	0	329
6.6.1	win	2022-12-14	14:01:22	14:07:37	373475	60fc2ec58ad0da367daee3c1	759141640	1	main_z	7	main_z	105	stimuli_distractor_diamondtriangles.svg	stimuli_target_trianglecircles.svg	29	yes	44	1	614
6.6.1	win	2022-12-14	14:01:22	14:07:37	373475	60fc2ec58ad0da367daee3c1	759141640	1	main_z	7	advance_on_keypress_ZEE	106	stimuli_distractor_diamondtriangles.svg	stimuli_target_trianglecircles.svg	29	yes	57	0	317
6.6.1	win	2022-12-14	14:01:22	14:07:39	375158	60fc2ec58ad0da367daee3c1	759141640	1	main_z	7	main_z	107	stimuli_target_squaretriangles.svg	stimuli_distractor_trianglediamonds.svg	3	yes	44	1	714
6.6.1	win	2022-12-14	14:01:22	14:07:39	375158	60fc2ec58ad0da367daee3c1	759141640	1	main_z	7	advance_on_keypress_ZEE	108	stimuli_target_squaretriangles.svg	stimuli_distractor_trianglediamonds.svg	3	yes	57	0	350
6.6.1	win	2022-12-14	14:01:22	14:07:40	376924	60fc2ec58ad0da367daee3c1	759141640	1	main_z	7	main_z	109	stimuli_distractor_trianglediamonds.svg	stimuli_target_squarediamonds.svg	12	yes	44	1	764
6.6.1	win	2022-12-14	14:01:22	14:07:40	376924	60fc2ec58ad0da367daee3c1	759141640	1	main_z	7	advance_on_keypress_ZEE	110	stimuli_distractor_trianglediamonds.svg	stimuli_target_squarediamonds.svg	12	yes	57	0	307
6.6.1	win	2022-12-14	14:01:22	14:07:43	379877	60fc2ec58ad0da367daee3c1	759141640	1	main_z	7	main_z	111	stimuli_distractor_trianglediamonds.svg	stimuli_distractor_trianglediamonds.svg	34	no	0	1	2000
6.6.1	win	2022-12-14	14:01:22	14:07:43	379877	60fc2ec58ad0da367daee3c1	759141640	1	main_z	7	advance_on_keypress_ZEE	112	stimuli_distractor_trianglediamonds.svg	stimuli_distractor_trianglediamonds.svg	34	no	57	0	311
6.6.1	win	2022-12-14	14:01:22	14:07:45	381442	60fc2ec58ad0da367daee3c1	759141640	1	main_z	7	main_z	113	stimuli_distractor_trianglediamonds.svg	stimuli_target_circlediamonds.svg	10	yes	44	1	616
6.6.1	win	2022-12-14	14:01:22	14:07:45	381442	60fc2ec58ad0da367daee3c1	759141640	1	main_z	7	advance_on_keypress_ZEE	114	stimuli_distractor_trianglediamonds.svg	stimuli_target_circlediamonds.svg	10	yes	57	0	326
6.6.1	win	2022-12-14	14:01:22	14:07:46	382942	60fc2ec58ad0da367daee3c1	759141640	1	main_z	7	main_z	115	stimuli_target_circletriangles.svg	stimuli_distractor_trianglediamonds.svg	1	yes	44	1	533
6.6.1	win	2022-12-14	14:01:22	14:07:46	382942	60fc2ec58ad0da367daee3c1	759141640	1	main_z	7	advance_on_keypress_ZEE	116	stimuli_target_circletriangles.svg	stimuli_distractor_trianglediamonds.svg	1	yes	57	0	303
6.6.1	win	2022-12-14	14:01:22	14:07:49	385055	60fc2ec58ad0da367daee3c1	759141640	1	main_z	7	main_z	117	stimuli_distractor_trianglediamonds.svg	stimuli_target_trianglesquares.svg	26	yes	44	1	1162
6.6.1	win	2022-12-14	14:01:22	14:07:49	385055	60fc2ec58ad0da367daee3c1	759141640	1	main_z	7	advance_on_keypress_ZEE	118	stimuli_distractor_trianglediamonds.svg	stimuli_target_trianglesquares.svg	26	yes	57	0	189
6.6.1	win	2022-12-14	14:01:22	14:07:50	386657	60fc2ec58ad0da367daee3c1	759141640	1	main_z	7	main_z	119	stimuli_target_circletriangles.svg	stimuli_distractor_diamondtriangles.svg	5	yes	44	1	764
6.6.1	win	2022-12-14	14:01:22	14:07:50	386657	60fc2ec58ad0da367daee3c1	759141640	1	main_z	7	advance_on_keypress_ZEE	120	stimuli_target_circletriangles.svg	stimuli_distractor_diamondtriangles.svg	5	yes	57	0	287
6.6.1	win	2022-12-14	14:01:22	14:07:53	389592	60fc2ec58ad0da367daee3c1	759141640	1	main_z	7	main_z	121	stimuli_distractor_trianglediamonds.svg	stimuli_distractor_diamondtriangles.svg	35	no	0	1	2000
6.6.1	win	2022-12-14	14:01:22	14:07:53	389592	60fc2ec58ad0da367daee3c1	759141640	1	main_z	7	advance_on_keypress_ZEE	122	stimuli_distractor_trianglediamonds.svg	stimuli_distractor_diamondtriangles.svg	35	no	57	0	313
6.6.1	win	2022-12-14	14:01:22	14:07:56	392559	60fc2ec58ad0da367daee3c1	759141640	1	main_z	7	main_z	123	stimuli_distractor_diamondtriangles.svg	stimuli_distractor_trianglediamonds.svg	37	no	0	1	2000
6.6.1	win	2022-12-14	14:01:22	14:07:56	392559	60fc2ec58ad0da367daee3c1	759141640	1	main_z	7	advance_on_keypress_ZEE	124	stimuli_distractor_diamondtriangles.svg	stimuli_distractor_trianglediamonds.svg	37	no	57	0	360
6.6.1	win	2022-12-14	14:01:22	14:07:58	394147	60fc2ec58ad0da367daee3c1	759141640	1	main_z	7	main_z	125	stimuli_distractor_trianglediamonds.svg	stimuli_target_squaretriangles.svg	11	yes	44	1	589
6.6.1	win	2022-12-14	14:01:22	14:07:58	394147	60fc2ec58ad0da367daee3c1	759141640	1	main_z	7	advance_on_keypress_ZEE	126	stimuli_distractor_trianglediamonds.svg	stimuli_target_squaretriangles.svg	11	yes	57	0	434
6.6.1	win	2022-12-14	14:01:22	14:07:59	395909	60fc2ec58ad0da367daee3c1	759141640	1	main_z	7	main_z	127	stimuli_target_squaretriangles.svg	stimuli_distractor_diamondtriangles.svg	7	yes	44	1	685
6.6.1	win	2022-12-14	14:01:22	14:07:59	395909	60fc2ec58ad0da367daee3c1	759141640	1	main_z	7	advance_on_keypress_ZEE	128	stimuli_target_squaretriangles.svg	stimuli_distractor_diamondtriangles.svg	7	yes	57	0	291
6.6.1	win	2022-12-14	14:01:22	14:08:01	397472	60fc2ec58ad0da367daee3c1	759141640	1	main_z	7	main_z	129	stimuli_distractor_diamondtriangles.svg	stimuli_target_squaretriangles.svg	15	yes	44	1	630
6.6.1	win	2022-12-14	14:01:22	14:08:01	397472	60fc2ec58ad0da367daee3c1	759141640	1	main_z	7	advance_on_keypress_ZEE	130	stimuli_distractor_diamondtriangles.svg	stimuli_target_squaretriangles.svg	15	yes	57	0	305
6.6.1	win	2022-12-14	14:01:22	14:08:03	399064	60fc2ec58ad0da367daee3c1	759141640	1	main_z	7	main_z	131	stimuli_target_trianglecircles.svg	stimuli_distractor_diamondtriangles.svg	21	yes	44	1	639
6.6.1	win	2022-12-14	14:01:22	14:08:03	399064	60fc2ec58ad0da367daee3c1	759141640	1	main_z	7	advance_on_keypress_ZEE	132	stimuli_target_trianglecircles.svg	stimuli_distractor_diamondtriangles.svg	21	yes	57	0	335
6.6.1	win	2022-12-14	14:01:22	14:08:04	400741	60fc2ec58ad0da367daee3c1	759141640	1	main_z	7	main_z	133	stimuli_target_diamondcircles.svg	stimuli_distractor_trianglediamonds.svg	19	yes	44	1	699
6.6.1	win	2022-12-14	14:01:22	14:08:04	400741	60fc2ec58ad0da367daee3c1	759141640	1	main_z	7	advance_on_keypress_ZEE	134	stimuli_target_diamondcircles.svg	stimuli_distractor_trianglediamonds.svg	19	yes	57	0	314
6.6.1	win	2022-12-14	14:01:22	14:08:06	402388	60fc2ec58ad0da367daee3c1	759141640	1	main_z	7	main_z	135	stimuli_target_diamondcircles.svg	stimuli_distractor_diamondtriangles.svg	23	yes	44	1	680
6.6.1	win	2022-12-14	14:01:22	14:08:06	402388	60fc2ec58ad0da367daee3c1	759141640	1	main_z	7	advance_on_keypress_ZEE	136	stimuli_target_diamondcircles.svg	stimuli_distractor_diamondtriangles.svg	23	yes	57	0	311
6.6.1	win	2022-12-14	14:01:22	14:08:08	404350	60fc2ec58ad0da367daee3c1	759141640	1	main_z	7	main_z	137	stimuli_distractor_diamondtriangles.svg	stimuli_target_trianglesquares.svg	30	yes	44	1	1010
6.6.1	win	2022-12-14	14:01:22	14:08:08	404350	60fc2ec58ad0da367daee3c1	759141640	1	main_z	7	advance_on_keypress_ZEE	138	stimuli_distractor_diamondtriangles.svg	stimuli_target_trianglesquares.svg	30	yes	57	0	248
6.6.1	win	2022-12-14	14:01:22	14:08:10	406073	60fc2ec58ad0da367daee3c1	759141640	1	main_z	7	main_z	139	stimuli_target_trianglesquares.svg	stimuli_distractor_diamondtriangles.svg	22	yes	44	1	832
6.6.1	win	2022-12-14	14:01:22	14:08:10	406073	60fc2ec58ad0da367daee3c1	759141640	1	main_z	7	advance_on_keypress_ZEE	140	stimuli_target_trianglesquares.svg	stimuli_distractor_diamondtriangles.svg	22	yes	57	0	252
6.6.1	win	2022-12-14	14:01:22	14:08:11	407655	60fc2ec58ad0da367daee3c1	759141640	1	main_z	7	main_z	141	stimuli_distractor_trianglediamonds.svg	stimuli_target_circletriangles.svg	9	yes	44	1	681
6.6.1	win	2022-12-14	14:01:22	14:08:11	407655	60fc2ec58ad0da367daee3c1	759141640	1	main_z	7	advance_on_keypress_ZEE	142	stimuli_distractor_trianglediamonds.svg	stimuli_target_circletriangles.svg	9	yes	57	0	367
6.6.1	win	2022-12-14	14:01:22	14:08:13	409388	60fc2ec58ad0da367daee3c1	759141640	1	main_z	7	main_z	143	stimuli_target_trianglesquares.svg	stimuli_distractor_trianglediamonds.svg	18	yes	44	1	714
6.6.1	win	2022-12-14	14:01:22	14:08:13	409388	60fc2ec58ad0da367daee3c1	759141640	1	main_z	7	advance_on_keypress_ZEE	144	stimuli_target_trianglesquares.svg	stimuli_distractor_trianglediamonds.svg	18	yes	57	0	275
6.6.1	win	2022-12-14	14:01:22	14:08:16	412307	60fc2ec58ad0da367daee3c1	759141640	1	main_z	7	main_z	145	stimuli_distractor_diamondtriangles.svg	stimuli_distractor_diamondtriangles.svg	39	no	0	1	2000
6.6.1	win	2022-12-14	14:01:22	14:08:16	412307	60fc2ec58ad0da367daee3c1	759141640	1	main_z	7	advance_on_keypress_ZEE	146	stimuli_distractor_diamondtriangles.svg	stimuli_distractor_diamondtriangles.svg	39	no	57	0	338
6.6.1	win	2022-12-14	14:01:22	14:08:18	413998	60fc2ec58ad0da367daee3c1	759141640	1	main_z	7	main_z	147	stimuli_distractor_diamondtriangles.svg	stimuli_target_diamondsquares.svg	32	yes	44	1	708
6.6.1	win	2022-12-14	14:01:22	14:08:18	413998	60fc2ec58ad0da367daee3c1	759141640	1	main_z	7	advance_on_keypress_ZEE	148	stimuli_distractor_diamondtriangles.svg	stimuli_target_diamondsquares.svg	32	yes	57	0	332
6.6.1	win	2022-12-14	14:01:22	14:08:19	415645	60fc2ec58ad0da367daee3c1	759141640	1	main_z	7	main_z	149	stimuli_distractor_trianglediamonds.svg	stimuli_target_diamondcircles.svg	27	yes	44	1	673
6.6.1	win	2022-12-14	14:01:22	14:08:19	415645	60fc2ec58ad0da367daee3c1	759141640	1	main_z	7	advance_on_keypress_ZEE	150	stimuli_distractor_trianglediamonds.svg	stimuli_target_diamondcircles.svg	27	yes	57	0	330
6.6.1	win	2022-12-14	14:01:22	14:08:21	417318	60fc2ec58ad0da367daee3c1	759141640	1	main_z	7	main_z	151	stimuli_target_circlediamonds.svg	stimuli_distractor_diamondtriangles.svg	6	yes	44	1	695
6.6.1	win	2022-12-14	14:01:22	14:08:21	417318	60fc2ec58ad0da367daee3c1	759141640	1	main_z	7	advance_on_keypress_ZEE	152	stimuli_target_circlediamonds.svg	stimuli_distractor_diamondtriangles.svg	6	yes	57	0	308
6.6.1	win	2022-12-14	14:01:22	14:08:22	418800	60fc2ec58ad0da367daee3c1	759141640	1	main_z	7	main_z	153	stimuli_target_squarediamonds.svg	stimuli_distractor_trianglediamonds.svg	4	yes	44	1	527
6.6.1	win	2022-12-14	14:01:22	14:08:22	418800	60fc2ec58ad0da367daee3c1	759141640	1	main_z	7	advance_on_keypress_ZEE	154	stimuli_target_squarediamonds.svg	stimuli_distractor_trianglediamonds.svg	4	yes	57	0	274
6.6.1	win	2022-12-14	14:01:22	14:08:25	421706	60fc2ec58ad0da367daee3c1	759141640	1	main_z	7	main_z	155	stimuli_distractor_trianglediamonds.svg	stimuli_distractor_diamondtriangles.svg	36	no	0	1	2000
6.6.1	win	2022-12-14	14:01:22	14:08:25	421706	60fc2ec58ad0da367daee3c1	759141640	1	main_z	7	advance_on_keypress_ZEE	156	stimuli_distractor_trianglediamonds.svg	stimuli_distractor_diamondtriangles.svg	36	no	57	0	466
6.6.1	win	2022-12-14	14:01:22	14:08:28	424822	60fc2ec58ad0da367daee3c1	759141640	1	main_z	7	main_z	157	stimuli_distractor_diamondtriangles.svg	stimuli_distractor_diamondtriangles.svg	40	no	0	1	2000
6.6.1	win	2022-12-14	14:01:22	14:08:28	424822	60fc2ec58ad0da367daee3c1	759141640	1	main_z	7	advance_on_keypress_ZEE	158	stimuli_distractor_diamondtriangles.svg	stimuli_distractor_diamondtriangles.svg	40	no	57	0	390
6.6.1	win	2022-12-14	14:01:22	14:08:30	426529	60fc2ec58ad0da367daee3c1	759141640	1	main_z	7	main_z	159	stimuli_target_circlediamonds.svg	stimuli_distractor_trianglediamonds.svg	2	yes	44	1	674
6.6.1	win	2022-12-14	14:01:22	14:08:30	426529	60fc2ec58ad0da367daee3c1	759141640	1	main_z	7	advance_on_keypress_ZEE	160	stimuli_target_circlediamonds.svg	stimuli_distractor_trianglediamonds.svg	2	yes	57	0	311
6.6.1	win	2022-12-14	14:01:22	14:08:51	447487	60fc2ec58ad0da367daee3c1	759141640	1	practice_slash	9	practice_slash	1	stimuli_target_squarediamonds.svg	stimuli_distractor_trianglediamonds.svg	5	yes	53	1	498
6.6.1	win	2022-12-14	14:01:22	14:08:51	447487	60fc2ec58ad0da367daee3c1	759141640	1	practice_slash	9	advance_on_keypress_SLASH	2	stimuli_target_squarediamonds.svg	stimuli_distractor_trianglediamonds.svg	5	yes	57	0	1060
6.6.1	win	2022-12-14	14:01:22	14:08:54	450793	60fc2ec58ad0da367daee3c1	759141640	1	practice_slash	9	practice_slash	3	stimuli_target_squarediamonds.svg	stimuli_distractor_diamondtriangles.svg	2	yes	53	1	603
6.6.1	win	2022-12-14	14:01:22	14:08:54	450793	60fc2ec58ad0da367daee3c1	759141640	1	practice_slash	9	advance_on_keypress_SLASH	4	stimuli_target_squarediamonds.svg	stimuli_distractor_diamondtriangles.svg	2	yes	57	0	268
6.6.1	win	2022-12-14	14:01:22	14:08:57	453195	60fc2ec58ad0da367daee3c1	759141640	1	practice_slash	9	practice_slash	5	stimuli_target_circlediamonds.svg	stimuli_distractor_diamondtriangles.svg	1	yes	53	1	490
6.6.1	win	2022-12-14	14:01:22	14:08:57	453195	60fc2ec58ad0da367daee3c1	759141640	1	practice_slash	9	advance_on_keypress_SLASH	6	stimuli_target_circlediamonds.svg	stimuli_distractor_diamondtriangles.svg	1	yes	57	0	432
6.6.1	win	2022-12-14	14:01:22	14:09:00	456024	60fc2ec58ad0da367daee3c1	759141640	1	practice_slash	9	practice_slash	7	stimuli_target_circlediamonds.svg	stimuli_distractor_trianglediamonds.svg	4	yes	53	1	753
6.6.1	win	2022-12-14	14:01:22	14:09:00	456024	60fc2ec58ad0da367daee3c1	759141640	1	practice_slash	9	advance_on_keypress_SLASH	8	stimuli_target_circlediamonds.svg	stimuli_distractor_trianglediamonds.svg	4	yes	57	0	297
6.6.1	win	2022-12-14	14:01:22	14:09:04	459970	60fc2ec58ad0da367daee3c1	759141640	1	practice_slash	9	practice_slash	9	stimuli_distractor_trianglediamonds.svg	stimuli_distractor_diamondtriangles.svg	16	no	0	1	2000
6.6.1	win	2022-12-14	14:01:22	14:09:04	459970	60fc2ec58ad0da367daee3c1	759141640	1	practice_slash	9	advance_on_keypress_SLASH	10	stimuli_distractor_trianglediamonds.svg	stimuli_distractor_diamondtriangles.svg	16	no	57	0	704
6.6.1	win	2022-12-14	14:01:22	14:09:08	464320	60fc2ec58ad0da367daee3c1	759141640	1	practice_slash	9	practice_slash	11	stimuli_target_diamondsquares.svg	stimuli_distractor_diamondtriangles.svg	3	yes	0	0	2000
6.6.1	win	2022-12-14	14:01:22	14:09:08	464320	60fc2ec58ad0da367daee3c1	759141640	1	practice_slash	9	advance_on_keypress_SLASH	12	stimuli_target_diamondsquares.svg	stimuli_distractor_diamondtriangles.svg	3	yes	57	0	459
6.6.1	win	2022-12-14	14:01:22	14:09:10	466933	60fc2ec58ad0da367daee3c1	759141640	1	practice_slash	9	practice_slash	13	stimuli_distractor_trianglediamonds.svg	stimuli_target_squarediamonds.svg	11	yes	53	1	513
6.6.1	win	2022-12-14	14:01:22	14:09:10	466933	60fc2ec58ad0da367daee3c1	759141640	1	practice_slash	9	advance_on_keypress_SLASH	14	stimuli_distractor_trianglediamonds.svg	stimuli_target_squarediamonds.svg	11	yes	57	0	647
6.6.1	win	2022-12-14	14:01:22	14:09:13	469906	60fc2ec58ad0da367daee3c1	759141640	1	practice_slash	9	practice_slash	15	stimuli_distractor_diamondtriangles.svg	stimuli_target_circletriangles.svg	7	yes	53	1	670
6.6.1	win	2022-12-14	14:01:22	14:09:13	469906	60fc2ec58ad0da367daee3c1	759141640	1	practice_slash	9	advance_on_keypress_SLASH	16	stimuli_distractor_diamondtriangles.svg	stimuli_target_circletriangles.svg	7	yes	57	0	434
6.6.1	win	2022-12-14	14:01:22	14:09:18	473986	60fc2ec58ad0da367daee3c1	759141640	1	practice_slash	9	practice_slash	17	stimuli_distractor_trianglediamonds.svg	stimuli_distractor_trianglediamonds.svg	15	no	0	1	2000
6.6.1	win	2022-12-14	14:01:22	14:09:18	473986	60fc2ec58ad0da367daee3c1	759141640	1	practice_slash	9	advance_on_keypress_SLASH	18	stimuli_distractor_trianglediamonds.svg	stimuli_distractor_trianglediamonds.svg	15	no	57	0	586
6.6.1	win	2022-12-14	14:01:22	14:09:21	477065	60fc2ec58ad0da367daee3c1	759141640	1	practice_slash	9	practice_slash	19	stimuli_distractor_trianglediamonds.svg	stimuli_target_diamondcircles.svg	12	yes	53	1	846
6.6.1	win	2022-12-14	14:01:22	14:09:21	477065	60fc2ec58ad0da367daee3c1	759141640	1	practice_slash	9	advance_on_keypress_SLASH	20	stimuli_distractor_trianglediamonds.svg	stimuli_target_diamondcircles.svg	12	yes	57	0	436
6.6.1	win	2022-12-14	14:01:22	14:09:25	481151	60fc2ec58ad0da367daee3c1	759141640	1	practice_slash	9	practice_slash	21	stimuli_distractor_diamondtriangles.svg	stimuli_distractor_diamondtriangles.svg	13	no	0	1	2000
6.6.1	win	2022-12-14	14:01:22	14:09:25	481151	60fc2ec58ad0da367daee3c1	759141640	1	practice_slash	9	advance_on_keypress_SLASH	22	stimuli_distractor_diamondtriangles.svg	stimuli_distractor_diamondtriangles.svg	13	no	57	0	500
6.6.1	win	2022-12-14	14:01:22	14:09:27	483859	60fc2ec58ad0da367daee3c1	759141640	1	practice_slash	9	practice_slash	23	stimuli_distractor_trianglediamonds.svg	stimuli_target_circlediamonds.svg	10	yes	53	1	557
6.6.1	win	2022-12-14	14:01:22	14:09:27	483859	60fc2ec58ad0da367daee3c1	759141640	1	practice_slash	9	advance_on_keypress_SLASH	24	stimuli_distractor_trianglediamonds.svg	stimuli_target_circlediamonds.svg	10	yes	57	0	883
6.6.1	win	2022-12-14	14:01:22	14:09:31	487203	60fc2ec58ad0da367daee3c1	759141640	1	practice_slash	9	practice_slash	25	stimuli_distractor_diamondtriangles.svg	stimuli_target_diamondcircles.svg	8	yes	53	1	818
6.6.1	win	2022-12-14	14:01:22	14:09:31	487203	60fc2ec58ad0da367daee3c1	759141640	1	practice_slash	9	advance_on_keypress_SLASH	26	stimuli_distractor_diamondtriangles.svg	stimuli_target_diamondcircles.svg	8	yes	57	0	577
6.6.1	win	2022-12-14	14:01:22	14:09:34	490127	60fc2ec58ad0da367daee3c1	759141640	1	practice_slash	9	practice_slash	27	stimuli_target_diamondsquares.svg	stimuli_distractor_trianglediamonds.svg	6	yes	53	1	692
6.6.1	win	2022-12-14	14:01:22	14:09:34	490127	60fc2ec58ad0da367daee3c1	759141640	1	practice_slash	9	advance_on_keypress_SLASH	28	stimuli_target_diamondsquares.svg	stimuli_distractor_trianglediamonds.svg	6	yes	57	0	603
6.6.1	win	2022-12-14	14:01:22	14:09:36	492916	60fc2ec58ad0da367daee3c1	759141640	1	practice_slash	9	practice_slash	29	stimuli_distractor_diamondtriangles.svg	stimuli_target_trianglecircles.svg	9	yes	53	1	532
6.6.1	win	2022-12-14	14:01:22	14:09:36	492916	60fc2ec58ad0da367daee3c1	759141640	1	practice_slash	9	advance_on_keypress_SLASH	30	stimuli_distractor_diamondtriangles.svg	stimuli_target_trianglecircles.svg	9	yes	57	0	528
6.6.1	win	2022-12-14	14:01:22	14:09:41	497101	60fc2ec58ad0da367daee3c1	759141640	1	practice_slash	9	practice_slash	31	stimuli_distractor_diamondtriangles.svg	stimuli_distractor_trianglediamonds.svg	14	no	0	1	2000
6.6.1	win	2022-12-14	14:01:22	14:09:41	497101	60fc2ec58ad0da367daee3c1	759141640	1	practice_slash	9	advance_on_keypress_SLASH	32	stimuli_distractor_diamondtriangles.svg	stimuli_distractor_trianglediamonds.svg	14	no	57	0	656
6.6.1	win	2022-12-14	14:01:22	14:09:49	505260	60fc2ec58ad0da367daee3c1	759141640	1	main_slash	11	main_slash	1	stimuli_target_diamondsquares.svg	stimuli_distractor_trianglediamonds.svg	20	yes	53	1	612
6.6.1	win	2022-12-14	14:01:22	14:09:49	505260	60fc2ec58ad0da367daee3c1	759141640	1	main_slash	11	advance_on_keypress_SLASH	2	stimuli_target_diamondsquares.svg	stimuli_distractor_trianglediamonds.svg	20	yes	57	0	1121
6.6.1	win	2022-12-14	14:01:22	14:09:52	508073	60fc2ec58ad0da367daee3c1	759141640	1	main_slash	11	main_slash	3	stimuli_distractor_trianglediamonds.svg	stimuli_target_diamondcircles.svg	27	yes	53	1	1044
6.6.1	win	2022-12-14	14:01:22	14:09:52	508073	60fc2ec58ad0da367daee3c1	759141640	1	main_slash	11	advance_on_keypress_SLASH	4	stimuli_distractor_trianglediamonds.svg	stimuli_target_diamondcircles.svg	27	yes	57	0	674
6.6.1	win	2022-12-14	14:01:22	14:09:53	509971	60fc2ec58ad0da367daee3c1	759141640	1	main_slash	11	main_slash	5	stimuli_distractor_trianglediamonds.svg	stimuli_target_trianglecircles.svg	25	yes	53	1	591
6.6.1	win	2022-12-14	14:01:22	14:09:53	509971	60fc2ec58ad0da367daee3c1	759141640	1	main_slash	11	advance_on_keypress_SLASH	6	stimuli_distractor_trianglediamonds.svg	stimuli_target_trianglecircles.svg	25	yes	57	0	442
6.6.1	win	2022-12-14	14:01:22	14:09:55	511768	60fc2ec58ad0da367daee3c1	759141640	1	main_slash	11	main_slash	7	stimuli_target_squaretriangles.svg	stimuli_distractor_diamondtriangles.svg	7	yes	53	1	721
6.6.1	win	2022-12-14	14:01:22	14:09:55	511768	60fc2ec58ad0da367daee3c1	759141640	1	main_slash	11	advance_on_keypress_SLASH	8	stimuli_target_squaretriangles.svg	stimuli_distractor_diamondtriangles.svg	7	yes	57	0	674
6.6.1	win	2022-12-14	14:01:22	14:09:57	513765	60fc2ec58ad0da367daee3c1	759141640	1	main_slash	11	main_slash	9	stimuli_distractor_diamondtriangles.svg	stimuli_target_squarediamonds.svg	16	yes	53	1	686
6.6.1	win	2022-12-14	14:01:22	14:09:57	513765	60fc2ec58ad0da367daee3c1	759141640	1	main_slash	11	advance_on_keypress_SLASH	10	stimuli_distractor_diamondtriangles.svg	stimuli_target_squarediamonds.svg	16	yes	57	0	391
6.6.1	win	2022-12-14	14:01:22	14:10:00	516796	60fc2ec58ad0da367daee3c1	759141640	1	main_slash	11	main_slash	11	stimuli_distractor_diamondtriangles.svg	stimuli_distractor_trianglediamonds.svg	38	no	0	1	2000
6.6.1	win	2022-12-14	14:01:22	14:10:00	516796	60fc2ec58ad0da367daee3c1	759141640	1	main_slash	11	advance_on_keypress_SLASH	12	stimuli_distractor_diamondtriangles.svg	stimuli_distractor_trianglediamonds.svg	38	no	57	0	392
6.6.1	win	2022-12-14	14:01:22	14:10:02	518551	60fc2ec58ad0da367daee3c1	759141640	1	main_slash	11	main_slash	13	stimuli_target_circletriangles.svg	stimuli_distractor_diamondtriangles.svg	5	yes	53	1	723
6.6.1	win	2022-12-14	14:01:22	14:10:02	518551	60fc2ec58ad0da367daee3c1	759141640	1	main_slash	11	advance_on_keypress_SLASH	14	stimuli_target_circletriangles.svg	stimuli_distractor_diamondtriangles.svg	5	yes	57	0	526
6.6.1	win	2022-12-14	14:01:22	14:10:05	521040	60fc2ec58ad0da367daee3c1	759141640	1	main_slash	11	main_slash	15	stimuli_target_trianglecircles.svg	stimuli_distractor_diamondtriangles.svg	21	yes	53	1	1328
6.6.1	win	2022-12-14	14:01:22	14:10:05	521040	60fc2ec58ad0da367daee3c1	759141640	1	main_slash	11	advance_on_keypress_SLASH	16	stimuli_target_trianglecircles.svg	stimuli_distractor_diamondtriangles.svg	21	yes	57	0	289
6.6.1	win	2022-12-14	14:01:22	14:10:06	522872	60fc2ec58ad0da367daee3c1	759141640	1	main_slash	11	main_slash	17	stimuli_distractor_diamondtriangles.svg	stimuli_target_diamondcircles.svg	31	yes	53	1	893
6.6.1	win	2022-12-14	14:01:22	14:10:06	522872	60fc2ec58ad0da367daee3c1	759141640	1	main_slash	11	advance_on_keypress_SLASH	18	stimuli_distractor_diamondtriangles.svg	stimuli_target_diamondcircles.svg	31	yes	57	0	455
6.6.1	win	2022-12-14	14:01:22	14:10:09	525961	60fc2ec58ad0da367daee3c1	759141640	1	main_slash	11	main_slash	19	stimuli_distractor_diamondtriangles.svg	stimuli_distractor_trianglediamonds.svg	37	no	0	1	2000
6.6.1	win	2022-12-14	14:01:22	14:10:09	525961	60fc2ec58ad0da367daee3c1	759141640	1	main_slash	11	advance_on_keypress_SLASH	20	stimuli_distractor_diamondtriangles.svg	stimuli_distractor_trianglediamonds.svg	37	no	57	0	435
6.6.1	win	2022-12-14	14:01:22	14:10:12	528033	60fc2ec58ad0da367daee3c1	759141640	1	main_slash	11	main_slash	21	stimuli_target_trianglesquares.svg	stimuli_distractor_trianglediamonds.svg	18	yes	53	1	989
6.6.1	win	2022-12-14	14:01:22	14:10:12	528033	60fc2ec58ad0da367daee3c1	759141640	1	main_slash	11	advance_on_keypress_SLASH	22	stimuli_target_trianglesquares.svg	stimuli_distractor_trianglediamonds.svg	18	yes	57	0	609
6.6.1	win	2022-12-14	14:01:22	14:10:14	530071	60fc2ec58ad0da367daee3c1	759141640	1	main_slash	11	main_slash	23	stimuli_distractor_trianglediamonds.svg	stimuli_target_circlediamonds.svg	10	yes	53	1	793
6.6.1	win	2022-12-14	14:01:22	14:10:14	530071	60fc2ec58ad0da367daee3c1	759141640	1	main_slash	11	advance_on_keypress_SLASH	24	stimuli_distractor_trianglediamonds.svg	stimuli_target_circlediamonds.svg	10	yes	57	0	524
6.6.1	win	2022-12-14	14:01:22	14:10:15	531843	60fc2ec58ad0da367daee3c1	759141640	1	main_slash	11	main_slash	25	stimuli_distractor_trianglediamonds.svg	stimuli_target_squaretriangles.svg	11	yes	53	1	616
6.6.1	win	2022-12-14	14:01:22	14:10:15	531843	60fc2ec58ad0da367daee3c1	759141640	1	main_slash	11	advance_on_keypress_SLASH	26	stimuli_distractor_trianglediamonds.svg	stimuli_target_squaretriangles.svg	11	yes	57	0	438
6.6.1	win	2022-12-14	14:01:22	14:10:18	534927	60fc2ec58ad0da367daee3c1	759141640	1	main_slash	11	main_slash	27	stimuli_distractor_trianglediamonds.svg	stimuli_distractor_trianglediamonds.svg	34	no	0	1	2000
6.6.1	win	2022-12-14	14:01:22	14:10:18	534927	60fc2ec58ad0da367daee3c1	759141640	1	main_slash	11	advance_on_keypress_SLASH	28	stimuli_distractor_trianglediamonds.svg	stimuli_distractor_trianglediamonds.svg	34	no	57	0	304
6.6.1	win	2022-12-14	14:01:22	14:10:20	536629	60fc2ec58ad0da367daee3c1	759141640	1	main_slash	11	main_slash	29	stimuli_distractor_trianglediamonds.svg	stimuli_target_squarediamonds.svg	12	yes	53	1	753
6.6.1	win	2022-12-14	14:01:22	14:10:20	536629	60fc2ec58ad0da367daee3c1	759141640	1	main_slash	11	advance_on_keypress_SLASH	30	stimuli_distractor_trianglediamonds.svg	stimuli_target_squarediamonds.svg	12	yes	57	0	346
6.6.1	win	2022-12-14	14:01:22	14:10:22	538373	60fc2ec58ad0da367daee3c1	759141640	1	main_slash	11	main_slash	31	stimuli_target_diamondcircles.svg	stimuli_distractor_diamondtriangles.svg	23	yes	53	1	746
6.6.1	win	2022-12-14	14:01:22	14:10:22	538373	60fc2ec58ad0da367daee3c1	759141640	1	main_slash	11	advance_on_keypress_SLASH	32	stimuli_target_diamondcircles.svg	stimuli_distractor_diamondtriangles.svg	23	yes	57	0	333
6.6.1	win	2022-12-14	14:01:22	14:10:24	539994	60fc2ec58ad0da367daee3c1	759141640	1	main_slash	11	main_slash	33	stimuli_target_circlediamonds.svg	stimuli_distractor_trianglediamonds.svg	2	yes	53	1	633
6.6.1	win	2022-12-14	14:01:22	14:10:24	539994	60fc2ec58ad0da367daee3c1	759141640	1	main_slash	11	advance_on_keypress_SLASH	34	stimuli_target_circlediamonds.svg	stimuli_distractor_trianglediamonds.svg	2	yes	57	0	284
6.6.1	win	2022-12-14	14:01:22	14:10:25	541660	60fc2ec58ad0da367daee3c1	759141640	1	main_slash	11	main_slash	35	stimuli_target_trianglecircles.svg	stimuli_distractor_trianglediamonds.svg	17	yes	53	1	734
6.6.1	win	2022-12-14	14:01:22	14:10:25	541660	60fc2ec58ad0da367daee3c1	759141640	1	main_slash	11	advance_on_keypress_SLASH	36	stimuli_target_trianglecircles.svg	stimuli_distractor_trianglediamonds.svg	17	yes	57	0	314
6.6.1	win	2022-12-14	14:01:22	14:10:27	543373	60fc2ec58ad0da367daee3c1	759141640	1	main_slash	11	main_slash	37	stimuli_target_trianglesquares.svg	stimuli_distractor_diamondtriangles.svg	22	yes	53	1	746
6.6.1	win	2022-12-14	14:01:22	14:10:27	543373	60fc2ec58ad0da367daee3c1	759141640	1	main_slash	11	advance_on_keypress_SLASH	38	stimuli_target_trianglesquares.svg	stimuli_distractor_diamondtriangles.svg	22	yes	57	0	225
6.6.1	win	2022-12-14	14:01:22	14:10:28	544888	60fc2ec58ad0da367daee3c1	759141640	1	main_slash	11	main_slash	39	stimuli_distractor_diamondtriangles.svg	stimuli_target_trianglecircles.svg	29	yes	53	1	646
6.6.1	win	2022-12-14	14:01:22	14:10:28	544888	60fc2ec58ad0da367daee3c1	759141640	1	main_slash	11	advance_on_keypress_SLASH	40	stimuli_distractor_diamondtriangles.svg	stimuli_target_trianglecircles.svg	29	yes	57	0	229
6.6.1	win	2022-12-14	14:01:22	14:10:30	546491	60fc2ec58ad0da367daee3c1	759141640	1	main_slash	11	main_slash	41	stimuli_target_diamondcircles.svg	stimuli_distractor_trianglediamonds.svg	19	yes	53	1	714
6.6.1	win	2022-12-14	14:01:22	14:10:30	546491	60fc2ec58ad0da367daee3c1	759141640	1	main_slash	11	advance_on_keypress_SLASH	42	stimuli_target_diamondcircles.svg	stimuli_distractor_trianglediamonds.svg	19	yes	57	0	291
6.6.1	win	2022-12-14	14:01:22	14:10:33	549426	60fc2ec58ad0da367daee3c1	759141640	1	main_slash	11	main_slash	43	stimuli_distractor_trianglediamonds.svg	stimuli_distractor_diamondtriangles.svg	35	no	0	1	2000
6.6.1	win	2022-12-14	14:01:22	14:10:33	549426	60fc2ec58ad0da367daee3c1	759141640	1	main_slash	11	advance_on_keypress_SLASH	44	stimuli_distractor_trianglediamonds.svg	stimuli_distractor_diamondtriangles.svg	35	no	57	0	278
6.6.1	win	2022-12-14	14:01:22	14:10:34	550901	60fc2ec58ad0da367daee3c1	759141640	1	main_slash	11	main_slash	45	stimuli_target_circlediamonds.svg	stimuli_distractor_diamondtriangles.svg	6	yes	53	1	560
6.6.1	win	2022-12-14	14:01:22	14:10:34	550901	60fc2ec58ad0da367daee3c1	759141640	1	main_slash	11	advance_on_keypress_SLASH	46	stimuli_target_circlediamonds.svg	stimuli_distractor_diamondtriangles.svg	6	yes	57	0	423
6.6.1	win	2022-12-14	14:01:22	14:10:36	552653	60fc2ec58ad0da367daee3c1	759141640	1	main_slash	11	main_slash	47	stimuli_distractor_trianglediamonds.svg	stimuli_target_diamondsquares.svg	28	yes	53	1	694
6.6.1	win	2022-12-14	14:01:22	14:10:36	552653	60fc2ec58ad0da367daee3c1	759141640	1	main_slash	11	advance_on_keypress_SLASH	48	stimuli_distractor_trianglediamonds.svg	stimuli_target_diamondsquares.svg	28	yes	57	0	320
6.6.1	win	2022-12-14	14:01:22	14:10:38	554260	60fc2ec58ad0da367daee3c1	759141640	1	main_slash	11	main_slash	49	stimuli_distractor_diamondtriangles.svg	stimuli_target_trianglesquares.svg	30	yes	53	1	651
6.6.1	win	2022-12-14	14:01:22	14:10:38	554260	60fc2ec58ad0da367daee3c1	759141640	1	main_slash	11	advance_on_keypress_SLASH	50	stimuli_distractor_diamondtriangles.svg	stimuli_target_trianglesquares.svg	30	yes	57	0	286
6.6.1	win	2022-12-14	14:01:22	14:10:40	556528	60fc2ec58ad0da367daee3c1	759141640	1	main_slash	11	main_slash	51	stimuli_distractor_diamondtriangles.svg	stimuli_target_squaretriangles.svg	15	yes	53	1	1336
6.6.1	win	2022-12-14	14:01:22	14:10:40	556528	60fc2ec58ad0da367daee3c1	759141640	1	main_slash	11	advance_on_keypress_SLASH	52	stimuli_distractor_diamondtriangles.svg	stimuli_target_squaretriangles.svg	15	yes	57	0	236
6.6.1	win	2022-12-14	14:01:22	14:10:43	559408	60fc2ec58ad0da367daee3c1	759141640	1	main_slash	11	main_slash	53	stimuli_distractor_diamondtriangles.svg	stimuli_distractor_diamondtriangles.svg	40	no	0	1	2000
6.6.1	win	2022-12-14	14:01:22	14:10:43	559408	60fc2ec58ad0da367daee3c1	759141640	1	main_slash	11	advance_on_keypress_SLASH	54	stimuli_distractor_diamondtriangles.svg	stimuli_distractor_diamondtriangles.svg	40	no	57	0	402
6.6.1	win	2022-12-14	14:01:22	14:10:45	561103	60fc2ec58ad0da367daee3c1	759141640	1	main_slash	11	main_slash	55	stimuli_target_squaretriangles.svg	stimuli_distractor_trianglediamonds.svg	3	yes	53	1	645
6.6.1	win	2022-12-14	14:01:22	14:10:45	561103	60fc2ec58ad0da367daee3c1	759141640	1	main_slash	11	advance_on_keypress_SLASH	56	stimuli_target_squaretriangles.svg	stimuli_distractor_trianglediamonds.svg	3	yes	57	0	345
6.6.1	win	2022-12-14	14:01:22	14:10:46	562795	60fc2ec58ad0da367daee3c1	759141640	1	main_slash	11	main_slash	57	stimuli_distractor_trianglediamonds.svg	stimuli_target_circletriangles.svg	9	yes	53	1	687
6.6.1	win	2022-12-14	14:01:22	14:10:46	562795	60fc2ec58ad0da367daee3c1	759141640	1	main_slash	11	advance_on_keypress_SLASH	58	stimuli_distractor_trianglediamonds.svg	stimuli_target_circletriangles.svg	9	yes	57	0	308
6.6.1	win	2022-12-14	14:01:22	14:10:48	564687	60fc2ec58ad0da367daee3c1	759141640	1	main_slash	11	main_slash	59	stimuli_target_diamondsquares.svg	stimuli_distractor_diamondtriangles.svg	24	yes	53	1	946
6.6.1	win	2022-12-14	14:01:22	14:10:48	564687	60fc2ec58ad0da367daee3c1	759141640	1	main_slash	11	advance_on_keypress_SLASH	60	stimuli_target_diamondsquares.svg	stimuli_distractor_diamondtriangles.svg	24	yes	57	0	185
6.6.1	win	2022-12-14	14:01:22	14:10:50	566244	60fc2ec58ad0da367daee3c1	759141640	1	main_slash	11	main_slash	61	stimuli_distractor_diamondtriangles.svg	stimuli_target_circlediamonds.svg	14	yes	53	1	720
6.6.1	win	2022-12-14	14:01:22	14:10:50	566244	60fc2ec58ad0da367daee3c1	759141640	1	main_slash	11	advance_on_keypress_SLASH	62	stimuli_distractor_diamondtriangles.svg	stimuli_target_circlediamonds.svg	14	yes	57	0	232
6.6.1	win	2022-12-14	14:01:22	14:10:53	569123	60fc2ec58ad0da367daee3c1	759141640	1	main_slash	11	main_slash	63	stimuli_distractor_trianglediamonds.svg	stimuli_distractor_trianglediamonds.svg	33	no	0	1	2000
6.6.1	win	2022-12-14	14:01:22	14:10:53	569123	60fc2ec58ad0da367daee3c1	759141640	1	main_slash	11	advance_on_keypress_SLASH	64	stimuli_distractor_trianglediamonds.svg	stimuli_distractor_trianglediamonds.svg	33	no	57	0	314
6.6.1	win	2022-12-14	14:01:22	14:10:54	570779	60fc2ec58ad0da367daee3c1	759141640	1	main_slash	11	main_slash	65	stimuli_target_circletriangles.svg	stimuli_distractor_trianglediamonds.svg	1	yes	53	1	690
6.6.1	win	2022-12-14	14:01:22	14:10:54	570779	60fc2ec58ad0da367daee3c1	759141640	1	main_slash	11	advance_on_keypress_SLASH	66	stimuli_target_circletriangles.svg	stimuli_distractor_trianglediamonds.svg	1	yes	57	0	175
6.6.1	win	2022-12-14	14:01:22	14:10:57	573590	60fc2ec58ad0da367daee3c1	759141640	1	main_slash	11	main_slash	67	stimuli_distractor_trianglediamonds.svg	stimuli_distractor_diamondtriangles.svg	36	no	0	1	2000
6.6.1	win	2022-12-14	14:01:22	14:10:57	573590	60fc2ec58ad0da367daee3c1	759141640	1	main_slash	11	advance_on_keypress_SLASH	68	stimuli_distractor_trianglediamonds.svg	stimuli_distractor_diamondtriangles.svg	36	no	57	0	677
6.6.1	win	2022-12-14	14:01:22	14:11:00	576906	60fc2ec58ad0da367daee3c1	759141640	1	main_slash	11	main_slash	69	stimuli_distractor_diamondtriangles.svg	stimuli_distractor_diamondtriangles.svg	39	no	0	1	2000
6.6.1	win	2022-12-14	14:01:22	14:11:00	576906	60fc2ec58ad0da367daee3c1	759141640	1	main_slash	11	advance_on_keypress_SLASH	70	stimuli_distractor_diamondtriangles.svg	stimuli_distractor_diamondtriangles.svg	39	no	57	0	319
6.6.1	win	2022-12-14	14:01:22	14:11:02	578348	60fc2ec58ad0da367daee3c1	759141640	1	main_slash	11	main_slash	71	stimuli_target_squarediamonds.svg	stimuli_distractor_trianglediamonds.svg	4	yes	53	1	475
6.6.1	win	2022-12-14	14:01:22	14:11:02	578348	60fc2ec58ad0da367daee3c1	759141640	1	main_slash	11	advance_on_keypress_SLASH	72	stimuli_target_squarediamonds.svg	stimuli_distractor_trianglediamonds.svg	4	yes	57	0	342
6.6.1	win	2022-12-14	14:01:22	14:11:04	580160	60fc2ec58ad0da367daee3c1	759141640	1	main_slash	11	main_slash	73	stimuli_distractor_diamondtriangles.svg	stimuli_target_diamondsquares.svg	32	yes	53	1	837
6.6.1	win	2022-12-14	14:01:22	14:11:04	580160	60fc2ec58ad0da367daee3c1	759141640	1	main_slash	11	advance_on_keypress_SLASH	74	stimuli_distractor_diamondtriangles.svg	stimuli_target_diamondsquares.svg	32	yes	57	0	234
6.6.1	win	2022-12-14	14:01:22	14:11:06	582157	60fc2ec58ad0da367daee3c1	759141640	1	main_slash	11	main_slash	75	stimuli_target_squarediamonds.svg	stimuli_distractor_diamondtriangles.svg	8	yes	53	1	1118
6.6.1	win	2022-12-14	14:01:22	14:11:06	582157	60fc2ec58ad0da367daee3c1	759141640	1	main_slash	11	advance_on_keypress_SLASH	76	stimuli_target_squarediamonds.svg	stimuli_distractor_diamondtriangles.svg	8	yes	57	0	576
6.6.1	win	2022-12-14	14:01:22	14:11:07	583924	60fc2ec58ad0da367daee3c1	759141640	1	main_slash	11	main_slash	77	stimuli_distractor_diamondtriangles.svg	stimuli_target_circletriangles.svg	13	yes	53	1	553
6.6.1	win	2022-12-14	14:01:22	14:11:07	583924	60fc2ec58ad0da367daee3c1	759141640	1	main_slash	11	advance_on_keypress_SLASH	78	stimuli_distractor_diamondtriangles.svg	stimuli_target_circletriangles.svg	13	yes	57	0	261
6.6.1	win	2022-12-14	14:01:22	14:11:09	585501	60fc2ec58ad0da367daee3c1	759141640	1	main_slash	11	main_slash	79	stimuli_distractor_trianglediamonds.svg	stimuli_target_trianglesquares.svg	26	yes	53	1	680
6.6.1	win	2022-12-14	14:01:22	14:11:09	585501	60fc2ec58ad0da367daee3c1	759141640	1	main_slash	11	advance_on_keypress_SLASH	80	stimuli_distractor_trianglediamonds.svg	stimuli_target_trianglesquares.svg	26	yes	57	0	215
6.6.1	win	2022-12-14	14:01:22	14:11:11	587034	60fc2ec58ad0da367daee3c1	759141640	1	main_slash	11	main_slash	81	stimuli_distractor_diamondtriangles.svg	stimuli_target_trianglesquares.svg	30	yes	53	1	662
6.6.1	win	2022-12-14	14:01:22	14:11:11	587034	60fc2ec58ad0da367daee3c1	759141640	1	main_slash	11	advance_on_keypress_SLASH	82	stimuli_distractor_diamondtriangles.svg	stimuli_target_trianglesquares.svg	30	yes	57	0	133
6.6.1	win	2022-12-14	14:01:22	14:11:12	588675	60fc2ec58ad0da367daee3c1	759141640	1	main_slash	11	main_slash	83	stimuli_distractor_diamondtriangles.svg	stimuli_target_diamondcircles.svg	31	yes	53	1	853
6.6.1	win	2022-12-14	14:01:22	14:11:12	588675	60fc2ec58ad0da367daee3c1	759141640	1	main_slash	11	advance_on_keypress_SLASH	84	stimuli_distractor_diamondtriangles.svg	stimuli_target_diamondcircles.svg	31	yes	57	0	258
6.6.1	win	2022-12-14	14:01:22	14:11:15	591571	60fc2ec58ad0da367daee3c1	759141640	1	main_slash	11	main_slash	85	stimuli_distractor_trianglediamonds.svg	stimuli_distractor_trianglediamonds.svg	33	no	0	1	2000
6.6.1	win	2022-12-14	14:01:22	14:11:15	591571	60fc2ec58ad0da367daee3c1	759141640	1	main_slash	11	advance_on_keypress_SLASH	86	stimuli_distractor_trianglediamonds.svg	stimuli_distractor_trianglediamonds.svg	33	no	57	0	811
6.6.1	win	2022-12-14	14:01:22	14:11:17	593620	60fc2ec58ad0da367daee3c1	759141640	1	main_slash	11	main_slash	87	stimuli_target_circletriangles.svg	stimuli_distractor_trianglediamonds.svg	1	yes	53	1	600
6.6.1	win	2022-12-14	14:01:22	14:11:17	593620	60fc2ec58ad0da367daee3c1	759141640	1	main_slash	11	advance_on_keypress_SLASH	88	stimuli_target_circletriangles.svg	stimuli_distractor_trianglediamonds.svg	1	yes	57	0	203
6.6.1	win	2022-12-14	14:01:22	14:11:19	595097	60fc2ec58ad0da367daee3c1	759141640	1	main_slash	11	main_slash	89	stimuli_target_circletriangles.svg	stimuli_distractor_diamondtriangles.svg	5	yes	53	1	626
6.6.1	win	2022-12-14	14:01:22	14:11:19	595097	60fc2ec58ad0da367daee3c1	759141640	1	main_slash	11	advance_on_keypress_SLASH	90	stimuli_target_circletriangles.svg	stimuli_distractor_diamondtriangles.svg	5	yes	57	0	249
6.6.1	win	2022-12-14	14:01:22	14:11:20	596500	60fc2ec58ad0da367daee3c1	759141640	1	main_slash	11	main_slash	91	stimuli_distractor_trianglediamonds.svg	stimuli_target_trianglecircles.svg	25	yes	53	1	512
6.6.1	win	2022-12-14	14:01:22	14:11:20	596500	60fc2ec58ad0da367daee3c1	759141640	1	main_slash	11	advance_on_keypress_SLASH	92	stimuli_distractor_trianglediamonds.svg	stimuli_target_trianglecircles.svg	25	yes	57	0	138
6.6.1	win	2022-12-14	14:01:22	14:11:21	597800	60fc2ec58ad0da367daee3c1	759141640	1	main_slash	11	main_slash	93	stimuli_distractor_trianglediamonds.svg	stimuli_target_circletriangles.svg	9	yes	53	1	512
6.6.1	win	2022-12-14	14:01:22	14:11:21	597800	60fc2ec58ad0da367daee3c1	759141640	1	main_slash	11	advance_on_keypress_SLASH	94	stimuli_distractor_trianglediamonds.svg	stimuli_target_circletriangles.svg	9	yes	57	0	315
6.6.1	win	2022-12-14	14:01:22	14:11:24	600770	60fc2ec58ad0da367daee3c1	759141640	1	main_slash	11	main_slash	95	stimuli_distractor_trianglediamonds.svg	stimuli_distractor_trianglediamonds.svg	34	no	0	1	2000
6.6.1	win	2022-12-14	14:01:22	14:11:24	600770	60fc2ec58ad0da367daee3c1	759141640	1	main_slash	11	advance_on_keypress_SLASH	96	stimuli_distractor_trianglediamonds.svg	stimuli_distractor_trianglediamonds.svg	34	no	57	0	829
6.6.1	win	2022-12-14	14:01:22	14:11:27	602981	60fc2ec58ad0da367daee3c1	759141640	1	main_slash	11	main_slash	97	stimuli_distractor_trianglediamonds.svg	stimuli_target_diamondcircles.svg	27	yes	53	1	744
6.6.1	win	2022-12-14	14:01:22	14:11:27	602981	60fc2ec58ad0da367daee3c1	759141640	1	main_slash	11	advance_on_keypress_SLASH	98	stimuli_distractor_trianglediamonds.svg	stimuli_target_diamondcircles.svg	27	yes	57	0	585
6.6.1	win	2022-12-14	14:01:22	14:11:30	606203	60fc2ec58ad0da367daee3c1	759141640	1	main_slash	11	main_slash	99	stimuli_distractor_trianglediamonds.svg	stimuli_distractor_diamondtriangles.svg	35	no	0	1	2000
6.6.1	win	2022-12-14	14:01:22	14:11:30	606203	60fc2ec58ad0da367daee3c1	759141640	1	main_slash	11	advance_on_keypress_SLASH	100	stimuli_distractor_trianglediamonds.svg	stimuli_distractor_diamondtriangles.svg	35	no	57	0	641
6.6.1	win	2022-12-14	14:01:22	14:11:32	608177	60fc2ec58ad0da367daee3c1	759141640	1	main_slash	11	main_slash	101	stimuli_target_squaretriangles.svg	stimuli_distractor_trianglediamonds.svg	3	yes	53	1	691
6.6.1	win	2022-12-14	14:01:22	14:11:32	608177	60fc2ec58ad0da367daee3c1	759141640	1	main_slash	11	advance_on_keypress_SLASH	102	stimuli_target_squaretriangles.svg	stimuli_distractor_trianglediamonds.svg	3	yes	57	0	167
6.6.1	win	2022-12-14	14:01:22	14:11:33	609643	60fc2ec58ad0da367daee3c1	759141640	1	main_slash	11	main_slash	103	stimuli_distractor_trianglediamonds.svg	stimuli_target_squarediamonds.svg	12	yes	53	1	658
6.6.1	win	2022-12-14	14:01:22	14:11:33	609643	60fc2ec58ad0da367daee3c1	759141640	1	main_slash	11	advance_on_keypress_SLASH	104	stimuli_distractor_trianglediamonds.svg	stimuli_target_squarediamonds.svg	12	yes	57	0	131
6.6.1	win	2022-12-14	14:01:22	14:11:35	611101	60fc2ec58ad0da367daee3c1	759141640	1	main_slash	11	main_slash	105	stimuli_distractor_diamondtriangles.svg	stimuli_target_diamondsquares.svg	32	yes	53	1	681
6.6.1	win	2022-12-14	14:01:22	14:11:35	611101	60fc2ec58ad0da367daee3c1	759141640	1	main_slash	11	advance_on_keypress_SLASH	106	stimuli_distractor_diamondtriangles.svg	stimuli_target_diamondsquares.svg	32	yes	57	0	107
6.6.1	win	2022-12-14	14:01:22	14:11:36	612433	60fc2ec58ad0da367daee3c1	759141640	1	main_slash	11	main_slash	107	stimuli_target_squarediamonds.svg	stimuli_distractor_diamondtriangles.svg	8	yes	53	1	580
6.6.1	win	2022-12-14	14:01:22	14:11:36	612433	60fc2ec58ad0da367daee3c1	759141640	1	main_slash	11	advance_on_keypress_SLASH	108	stimuli_target_squarediamonds.svg	stimuli_distractor_diamondtriangles.svg	8	yes	57	0	119
6.6.1	win	2022-12-14	14:01:22	14:11:37	613783	60fc2ec58ad0da367daee3c1	759141640	1	main_slash	11	main_slash	109	stimuli_distractor_diamondtriangles.svg	stimuli_target_trianglecircles.svg	29	yes	53	1	581
6.6.1	win	2022-12-14	14:01:22	14:11:37	613783	60fc2ec58ad0da367daee3c1	759141640	1	main_slash	11	advance_on_keypress_SLASH	110	stimuli_distractor_diamondtriangles.svg	stimuli_target_trianglecircles.svg	29	yes	57	0	122
6.6.1	win	2022-12-14	14:01:22	14:11:39	615535	60fc2ec58ad0da367daee3c1	759141640	1	main_slash	11	main_slash	111	stimuli_target_diamondsquares.svg	stimuli_distractor_trianglediamonds.svg	20	yes	53	1	983
6.6.1	win	2022-12-14	14:01:22	14:11:39	615535	60fc2ec58ad0da367daee3c1	759141640	1	main_slash	11	advance_on_keypress_SLASH	112	stimuli_target_diamondsquares.svg	stimuli_distractor_trianglediamonds.svg	20	yes	57	0	4
6.6.1	win	2022-12-14	14:01:22	14:11:40	616906	60fc2ec58ad0da367daee3c1	759141640	1	main_slash	11	main_slash	113	stimuli_distractor_trianglediamonds.svg	stimuli_target_diamondsquares.svg	28	yes	53	1	721
6.6.1	win	2022-12-14	14:01:22	14:11:40	616906	60fc2ec58ad0da367daee3c1	759141640	1	main_slash	11	advance_on_keypress_SLASH	114	stimuli_distractor_trianglediamonds.svg	stimuli_target_diamondsquares.svg	28	yes	57	0	724
6.6.1	win	2022-12-14	14:01:22	14:11:44	620268	60fc2ec58ad0da367daee3c1	759141640	1	main_slash	11	main_slash	115	stimuli_distractor_diamondtriangles.svg	stimuli_distractor_trianglediamonds.svg	38	no	0	1	2000
6.6.1	win	2022-12-14	14:01:22	14:11:44	620268	60fc2ec58ad0da367daee3c1	759141640	1	main_slash	11	advance_on_keypress_SLASH	116	stimuli_distractor_diamondtriangles.svg	stimuli_distractor_trianglediamonds.svg	38	no	57	0	1042
6.6.1	win	2022-12-14	14:01:22	14:11:47	623951	60fc2ec58ad0da367daee3c1	759141640	1	main_slash	11	main_slash	117	stimuli_target_diamondsquares.svg	stimuli_distractor_diamondtriangles.svg	24	yes	0	0	2000
6.6.1	win	2022-12-14	14:01:22	14:11:47	623951	60fc2ec58ad0da367daee3c1	759141640	1	main_slash	11	advance_on_keypress_SLASH	118	stimuli_target_diamondsquares.svg	stimuli_distractor_diamondtriangles.svg	24	yes	57	0	478
6.6.1	win	2022-12-14	14:01:22	14:11:51	627067	60fc2ec58ad0da367daee3c1	759141640	1	main_slash	11	main_slash	119	stimuli_distractor_diamondtriangles.svg	stimuli_distractor_diamondtriangles.svg	40	no	0	1	2000
6.6.1	win	2022-12-14	14:01:22	14:11:51	627067	60fc2ec58ad0da367daee3c1	759141640	1	main_slash	11	advance_on_keypress_SLASH	120	stimuli_distractor_diamondtriangles.svg	stimuli_distractor_diamondtriangles.svg	40	no	57	0	311
6.6.1	win	2022-12-14	14:01:22	14:11:54	630017	60fc2ec58ad0da367daee3c1	759141640	1	main_slash	11	main_slash	121	stimuli_distractor_diamondtriangles.svg	stimuli_distractor_trianglediamonds.svg	37	no	0	1	2000
6.6.1	win	2022-12-14	14:01:22	14:11:54	630017	60fc2ec58ad0da367daee3c1	759141640	1	main_slash	11	advance_on_keypress_SLASH	122	stimuli_distractor_diamondtriangles.svg	stimuli_distractor_trianglediamonds.svg	37	no	57	0	338
6.6.1	win	2022-12-14	14:01:22	14:11:55	631693	60fc2ec58ad0da367daee3c1	759141640	1	main_slash	11	main_slash	123	stimuli_target_squarediamonds.svg	stimuli_distractor_trianglediamonds.svg	4	yes	53	1	693
6.6.1	win	2022-12-14	14:01:22	14:11:55	631693	60fc2ec58ad0da367daee3c1	759141640	1	main_slash	11	advance_on_keypress_SLASH	124	stimuli_target_squarediamonds.svg	stimuli_distractor_trianglediamonds.svg	4	yes	57	0	294
6.6.1	win	2022-12-14	14:01:22	14:11:57	633095	60fc2ec58ad0da367daee3c1	759141640	1	main_slash	11	main_slash	125	stimuli_distractor_trianglediamonds.svg	stimuli_target_squaretriangles.svg	11	yes	53	1	479
6.6.1	win	2022-12-14	14:01:22	14:11:57	633095	60fc2ec58ad0da367daee3c1	759141640	1	main_slash	11	advance_on_keypress_SLASH	126	stimuli_distractor_trianglediamonds.svg	stimuli_target_squaretriangles.svg	11	yes	57	0	174
6.6.1	win	2022-12-14	14:01:22	14:11:58	634513	60fc2ec58ad0da367daee3c1	759141640	1	main_slash	11	main_slash	127	stimuli_distractor_diamondtriangles.svg	stimuli_target_circletriangles.svg	13	yes	53	1	597
6.6.1	win	2022-12-14	14:01:22	14:11:58	634513	60fc2ec58ad0da367daee3c1	759141640	1	main_slash	11	advance_on_keypress_SLASH	128	stimuli_distractor_diamondtriangles.svg	stimuli_target_circletriangles.svg	13	yes	57	0	173
6.6.1	win	2022-12-14	14:01:22	14:12:01	637333	60fc2ec58ad0da367daee3c1	759141640	1	main_slash	11	main_slash	129	stimuli_distractor_trianglediamonds.svg	stimuli_distractor_diamondtriangles.svg	36	no	0	1	2000
6.6.1	win	2022-12-14	14:01:22	14:12:01	637333	60fc2ec58ad0da367daee3c1	759141640	1	main_slash	11	advance_on_keypress_SLASH	130	stimuli_distractor_trianglediamonds.svg	stimuli_distractor_diamondtriangles.svg	36	no	57	0	326
6.6.1	win	2022-12-14	14:01:22	14:12:04	640299	60fc2ec58ad0da367daee3c1	759141640	1	main_slash	11	main_slash	131	stimuli_distractor_diamondtriangles.svg	stimuli_distractor_diamondtriangles.svg	39	no	0	1	2000
6.6.1	win	2022-12-14	14:01:22	14:12:04	640299	60fc2ec58ad0da367daee3c1	759141640	1	main_slash	11	advance_on_keypress_SLASH	132	stimuli_distractor_diamondtriangles.svg	stimuli_distractor_diamondtriangles.svg	39	no	57	0	356
6.6.1	win	2022-12-14	14:01:22	14:12:05	641881	60fc2ec58ad0da367daee3c1	759141640	1	main_slash	11	main_slash	133	stimuli_target_diamondcircles.svg	stimuli_distractor_trianglediamonds.svg	19	yes	53	1	581
6.6.1	win	2022-12-14	14:01:22	14:12:05	641881	60fc2ec58ad0da367daee3c1	759141640	1	main_slash	11	advance_on_keypress_SLASH	134	stimuli_target_diamondcircles.svg	stimuli_distractor_trianglediamonds.svg	19	yes	57	0	187
6.6.1	win	2022-12-14	14:01:22	14:12:07	643397	60fc2ec58ad0da367daee3c1	759141640	1	main_slash	11	main_slash	135	stimuli_distractor_trianglediamonds.svg	stimuli_target_circlediamonds.svg	10	yes	53	1	681
6.6.1	win	2022-12-14	14:01:22	14:12:07	643397	60fc2ec58ad0da367daee3c1	759141640	1	main_slash	11	advance_on_keypress_SLASH	136	stimuli_distractor_trianglediamonds.svg	stimuli_target_circlediamonds.svg	10	yes	57	0	497
6.6.1	win	2022-12-14	14:01:22	14:12:09	645634	60fc2ec58ad0da367daee3c1	759141640	1	main_slash	11	main_slash	137	stimuli_target_trianglesquares.svg	stimuli_distractor_diamondtriangles.svg	22	yes	53	1	1086
6.6.1	win	2022-12-14	14:01:22	14:12:09	645634	60fc2ec58ad0da367daee3c1	759141640	1	main_slash	11	advance_on_keypress_SLASH	138	stimuli_target_trianglesquares.svg	stimuli_distractor_diamondtriangles.svg	22	yes	57	0	481
6.6.1	win	2022-12-14	14:01:22	14:12:11	647311	60fc2ec58ad0da367daee3c1	759141640	1	main_slash	11	main_slash	139	stimuli_target_circlediamonds.svg	stimuli_distractor_diamondtriangles.svg	6	yes	53	1	546
6.6.1	win	2022-12-14	14:01:22	14:12:11	647311	60fc2ec58ad0da367daee3c1	759141640	1	main_slash	11	advance_on_keypress_SLASH	140	stimuli_target_circlediamonds.svg	stimuli_distractor_diamondtriangles.svg	6	yes	57	0	816
6.6.1	win	2022-12-14	14:01:22	14:12:13	649204	60fc2ec58ad0da367daee3c1	759141640	1	main_slash	11	main_slash	141	stimuli_target_circlediamonds.svg	stimuli_distractor_trianglediamonds.svg	2	yes	53	1	422
6.6.1	win	2022-12-14	14:01:22	14:12:13	649204	60fc2ec58ad0da367daee3c1	759141640	1	main_slash	11	advance_on_keypress_SLASH	142	stimuli_target_circlediamonds.svg	stimuli_distractor_trianglediamonds.svg	2	yes	57	0	228
6.6.1	win	2022-12-14	14:01:22	14:12:14	650795	60fc2ec58ad0da367daee3c1	759141640	1	main_slash	11	main_slash	143	stimuli_target_trianglesquares.svg	stimuli_distractor_trianglediamonds.svg	18	yes	53	1	714
6.6.1	win	2022-12-14	14:01:22	14:12:14	650795	60fc2ec58ad0da367daee3c1	759141640	1	main_slash	11	advance_on_keypress_SLASH	144	stimuli_target_trianglesquares.svg	stimuli_distractor_trianglediamonds.svg	18	yes	57	0	221
6.6.1	win	2022-12-14	14:01:22	14:12:16	652227	60fc2ec58ad0da367daee3c1	759141640	1	main_slash	11	main_slash	145	stimuli_distractor_diamondtriangles.svg	stimuli_target_circlediamonds.svg	14	yes	53	1	562
6.6.1	win	2022-12-14	14:01:22	14:12:16	652227	60fc2ec58ad0da367daee3c1	759141640	1	main_slash	11	advance_on_keypress_SLASH	146	stimuli_distractor_diamondtriangles.svg	stimuli_target_circlediamonds.svg	14	yes	57	0	80
6.6.1	win	2022-12-14	14:01:22	14:12:17	653474	60fc2ec58ad0da367daee3c1	759141640	1	main_slash	11	main_slash	147	stimuli_target_squaretriangles.svg	stimuli_distractor_diamondtriangles.svg	7	yes	53	1	504
6.6.1	win	2022-12-14	14:01:22	14:12:17	653474	60fc2ec58ad0da367daee3c1	759141640	1	main_slash	11	advance_on_keypress_SLASH	148	stimuli_target_squaretriangles.svg	stimuli_distractor_diamondtriangles.svg	7	yes	57	0	132
6.6.1	win	2022-12-14	14:01:22	14:12:18	654855	60fc2ec58ad0da367daee3c1	759141640	1	main_slash	11	main_slash	149	stimuli_target_trianglecircles.svg	stimuli_distractor_trianglediamonds.svg	17	yes	53	1	607
6.6.1	win	2022-12-14	14:01:22	14:12:18	654855	60fc2ec58ad0da367daee3c1	759141640	1	main_slash	11	advance_on_keypress_SLASH	150	stimuli_target_trianglecircles.svg	stimuli_distractor_trianglediamonds.svg	17	yes	57	0	146
6.6.1	win	2022-12-14	14:01:22	14:12:20	656122	60fc2ec58ad0da367daee3c1	759141640	1	main_slash	11	main_slash	151	stimuli_target_trianglecircles.svg	stimuli_distractor_diamondtriangles.svg	21	yes	53	1	474
6.6.1	win	2022-12-14	14:01:22	14:12:20	656122	60fc2ec58ad0da367daee3c1	759141640	1	main_slash	11	advance_on_keypress_SLASH	152	stimuli_target_trianglecircles.svg	stimuli_distractor_diamondtriangles.svg	21	yes	57	0	135
6.6.1	win	2022-12-14	14:01:22	14:12:21	657539	60fc2ec58ad0da367daee3c1	759141640	1	main_slash	11	main_slash	153	stimuli_distractor_diamondtriangles.svg	stimuli_target_squarediamonds.svg	16	yes	53	1	642
6.6.1	win	2022-12-14	14:01:22	14:12:21	657539	60fc2ec58ad0da367daee3c1	759141640	1	main_slash	11	advance_on_keypress_SLASH	154	stimuli_distractor_diamondtriangles.svg	stimuli_target_squarediamonds.svg	16	yes	57	0	101
6.6.1	win	2022-12-14	14:01:22	14:12:23	659000	60fc2ec58ad0da367daee3c1	759141640	1	main_slash	11	main_slash	155	stimuli_distractor_trianglediamonds.svg	stimuli_target_trianglesquares.svg	26	yes	53	1	719
6.6.1	win	2022-12-14	14:01:22	14:12:23	659000	60fc2ec58ad0da367daee3c1	759141640	1	main_slash	11	advance_on_keypress_SLASH	156	stimuli_distractor_trianglediamonds.svg	stimuli_target_trianglesquares.svg	26	yes	57	0	577
6.6.1	win	2022-12-14	14:01:22	14:12:25	661112	60fc2ec58ad0da367daee3c1	759141640	1	main_slash	11	main_slash	157	stimuli_target_diamondcircles.svg	stimuli_distractor_diamondtriangles.svg	23	yes	53	1	899
6.6.1	win	2022-12-14	14:01:22	14:12:25	661112	60fc2ec58ad0da367daee3c1	759141640	1	main_slash	11	advance_on_keypress_SLASH	158	stimuli_target_diamondcircles.svg	stimuli_distractor_diamondtriangles.svg	23	yes	57	0	117
6.6.1	win	2022-12-14	14:01:22	14:12:27	663881	60fc2ec58ad0da367daee3c1	759141640	1	main_slash	11	main_slash	159	stimuli_distractor_diamondtriangles.svg	stimuli_target_squaretriangles.svg	15	yes	0	0	2000
6.6.1	win	2022-12-14	14:01:22	14:12:27	663881	60fc2ec58ad0da367daee3c1	759141640	1	main_slash	11	advance_on_keypress_SLASH	160	stimuli_distractor_diamondtriangles.svg	stimuli_target_squaretriangles.svg	15	yes	57	0	320