build	computer.platform	date	time	timestamp	time_elapsed_ms	subject	group	session	blockcode	blocknum	trialcode	trialnum	stimulus_left	stimulus_right	stim_index	target_present	response	correct	latency
6.6.1	win	2022-12-16	12:01:56	12:05:57	238955	62f7899403f442ec3cbb6bae	932068043	1	practice_slash	5	practice_slash	1	stimuli_target_circlediamonds.svg	stimuli_distractor_trianglediamonds.svg	4	yes	53	1	659
6.6.1	win	2022-12-16	12:01:56	12:05:57	238955	62f7899403f442ec3cbb6bae	932068043	1	practice_slash	5	advance_on_keypress_SLASH	2	stimuli_target_circlediamonds.svg	stimuli_distractor_trianglediamonds.svg	4	yes	57	0	3694
6.6.1	win	2022-12-16	12:01:56	12:06:04	246286	62f7899403f442ec3cbb6bae	932068043	1	practice_slash	5	practice_slash	3	stimuli_target_diamondsquares.svg	stimuli_distractor_diamondtriangles.svg	3	yes	0	0	2000
6.6.1	win	2022-12-16	12:01:56	12:06:04	246286	62f7899403f442ec3cbb6bae	932068043	1	practice_slash	5	advance_on_keypress_SLASH	4	stimuli_target_diamondsquares.svg	stimuli_distractor_diamondtriangles.svg	3	yes	57	0	1210
6.6.1	win	2022-12-16	12:01:56	12:06:08	250196	62f7899403f442ec3cbb6bae	932068043	1	practice_slash	5	practice_slash	5	stimuli_distractor_trianglediamonds.svg	stimuli_target_diamondcircles.svg	12	yes	53	1	1071
6.6.1	win	2022-12-16	12:01:56	12:06:08	250196	62f7899403f442ec3cbb6bae	932068043	1	practice_slash	5	advance_on_keypress_SLASH	6	stimuli_distractor_trianglediamonds.svg	stimuli_target_diamondcircles.svg	12	yes	57	0	2761
6.6.1	win	2022-12-16	12:01:56	12:06:13	255755	62f7899403f442ec3cbb6bae	932068043	1	practice_slash	5	practice_slash	7	stimuli_target_circlediamonds.svg	stimuli_distractor_diamondtriangles.svg	1	yes	53	1	1159
6.6.1	win	2022-12-16	12:01:56	12:06:13	255755	62f7899403f442ec3cbb6bae	932068043	1	practice_slash	5	advance_on_keypress_SLASH	8	stimuli_target_circlediamonds.svg	stimuli_distractor_diamondtriangles.svg	1	yes	57	0	990
6.6.1	win	2022-12-16	12:01:56	12:06:17	259499	62f7899403f442ec3cbb6bae	932068043	1	practice_slash	5	practice_slash	9	stimuli_target_squarediamonds.svg	stimuli_distractor_trianglediamonds.svg	5	yes	53	1	1116
6.6.1	win	2022-12-16	12:01:56	12:06:17	259499	62f7899403f442ec3cbb6bae	932068043	1	practice_slash	5	advance_on_keypress_SLASH	10	stimuli_target_squarediamonds.svg	stimuli_distractor_trianglediamonds.svg	5	yes	57	0	861
6.6.1	win	2022-12-16	12:01:56	12:06:21	262995	62f7899403f442ec3cbb6bae	932068043	1	practice_slash	5	practice_slash	11	stimuli_distractor_diamondtriangles.svg	stimuli_target_trianglecircles.svg	9	yes	53	1	1009
6.6.1	win	2022-12-16	12:01:56	12:06:21	262995	62f7899403f442ec3cbb6bae	932068043	1	practice_slash	5	advance_on_keypress_SLASH	12	stimuli_distractor_diamondtriangles.svg	stimuli_target_trianglecircles.svg	9	yes	57	0	1086
6.6.1	win	2022-12-16	12:01:56	12:06:24	266667	62f7899403f442ec3cbb6bae	932068043	1	practice_slash	5	practice_slash	13	stimuli_target_squarediamonds.svg	stimuli_distractor_diamondtriangles.svg	2	yes	53	1	944
6.6.1	win	2022-12-16	12:01:56	12:06:24	266667	62f7899403f442ec3cbb6bae	932068043	1	practice_slash	5	advance_on_keypress_SLASH	14	stimuli_target_squarediamonds.svg	stimuli_distractor_diamondtriangles.svg	2	yes	57	0	719
6.6.1	win	2022-12-16	12:01:56	12:06:29	271027	62f7899403f442ec3cbb6bae	932068043	1	practice_slash	5	practice_slash	15	stimuli_distractor_diamondtriangles.svg	stimuli_distractor_trianglediamonds.svg	14	no	0	1	2000
6.6.1	win	2022-12-16	12:01:56	12:06:29	271027	62f7899403f442ec3cbb6bae	932068043	1	practice_slash	5	advance_on_keypress_SLASH	16	stimuli_distractor_diamondtriangles.svg	stimuli_distractor_trianglediamonds.svg	14	no	57	0	701
6.6.1	win	2022-12-16	12:01:56	12:06:32	274435	62f7899403f442ec3cbb6bae	932068043	1	practice_slash	5	practice_slash	17	stimuli_distractor_trianglediamonds.svg	stimuli_target_squarediamonds.svg	11	yes	53	1	1071
6.6.1	win	2022-12-16	12:01:56	12:06:32	274435	62f7899403f442ec3cbb6bae	932068043	1	practice_slash	5	advance_on_keypress_SLASH	18	stimuli_distractor_trianglediamonds.svg	stimuli_target_squarediamonds.svg	11	yes	57	0	1129
6.6.1	win	2022-12-16	12:01:56	12:06:36	278147	62f7899403f442ec3cbb6bae	932068043	1	practice_slash	5	practice_slash	19	stimuli_distractor_diamondtriangles.svg	stimuli_target_circletriangles.svg	7	yes	53	1	946
6.6.1	win	2022-12-16	12:01:56	12:06:36	278147	62f7899403f442ec3cbb6bae	932068043	1	practice_slash	5	advance_on_keypress_SLASH	20	stimuli_distractor_diamondtriangles.svg	stimuli_target_circletriangles.svg	7	yes	57	0	825
6.6.1	win	2022-12-16	12:01:56	12:06:40	282605	62f7899403f442ec3cbb6bae	932068043	1	practice_slash	5	practice_slash	21	stimuli_distractor_diamondtriangles.svg	stimuli_distractor_diamondtriangles.svg	13	no	0	1	2000
6.6.1	win	2022-12-16	12:01:56	12:06:40	282605	62f7899403f442ec3cbb6bae	932068043	1	practice_slash	5	advance_on_keypress_SLASH	22	stimuli_distractor_diamondtriangles.svg	stimuli_distractor_diamondtriangles.svg	13	no	57	0	627
6.6.1	win	2022-12-16	12:01:56	12:06:43	285787	62f7899403f442ec3cbb6bae	932068043	1	practice_slash	5	practice_slash	23	stimuli_distractor_trianglediamonds.svg	stimuli_target_circlediamonds.svg	10	yes	53	1	928
6.6.1	win	2022-12-16	12:01:56	12:06:43	285787	62f7899403f442ec3cbb6bae	932068043	1	practice_slash	5	advance_on_keypress_SLASH	24	stimuli_distractor_trianglediamonds.svg	stimuli_target_circlediamonds.svg	10	yes	57	0	1321
6.6.1	win	2022-12-16	12:01:56	12:06:48	290746	62f7899403f442ec3cbb6bae	932068043	1	practice_slash	5	practice_slash	25	stimuli_distractor_trianglediamonds.svg	stimuli_distractor_trianglediamonds.svg	15	no	0	1	2000
6.6.1	win	2022-12-16	12:01:56	12:06:48	290746	62f7899403f442ec3cbb6bae	932068043	1	practice_slash	5	advance_on_keypress_SLASH	26	stimuli_distractor_trianglediamonds.svg	stimuli_distractor_trianglediamonds.svg	15	no	57	0	622
6.6.1	win	2022-12-16	12:01:56	12:06:52	293971	62f7899403f442ec3cbb6bae	932068043	1	practice_slash	5	practice_slash	27	stimuli_distractor_diamondtriangles.svg	stimuli_target_diamondcircles.svg	8	yes	53	1	971
6.6.1	win	2022-12-16	12:01:56	12:06:52	293971	62f7899403f442ec3cbb6bae	932068043	1	practice_slash	5	advance_on_keypress_SLASH	28	stimuli_distractor_diamondtriangles.svg	stimuli_target_diamondcircles.svg	8	yes	57	0	1313
6.6.1	win	2022-12-16	12:01:56	12:06:57	298921	62f7899403f442ec3cbb6bae	932068043	1	practice_slash	5	practice_slash	29	stimuli_target_diamondsquares.svg	stimuli_distractor_trianglediamonds.svg	6	yes	0	0	2000
6.6.1	win	2022-12-16	12:01:56	12:06:57	298921	62f7899403f442ec3cbb6bae	932068043	1	practice_slash	5	advance_on_keypress_SLASH	30	stimuli_target_diamondsquares.svg	stimuli_distractor_trianglediamonds.svg	6	yes	57	0	839
6.6.1	win	2022-12-16	12:01:56	12:07:01	302955	62f7899403f442ec3cbb6bae	932068043	1	practice_slash	5	practice_slash	31	stimuli_distractor_trianglediamonds.svg	stimuli_distractor_diamondtriangles.svg	16	no	53	0	1563
6.6.1	win	2022-12-16	12:01:56	12:07:01	302955	62f7899403f442ec3cbb6bae	932068043	1	practice_slash	5	advance_on_keypress_SLASH	32	stimuli_distractor_trianglediamonds.svg	stimuli_distractor_diamondtriangles.svg	16	no	57	0	1194
6.6.1	win	2022-12-16	12:01:56	12:07:16	318658	62f7899403f442ec3cbb6bae	932068043	1	main_slash	7	main_slash	1	stimuli_distractor_diamondtriangles.svg	stimuli_target_trianglesquares.svg	30	yes	0	0	2000
6.6.1	win	2022-12-16	12:01:56	12:07:16	318658	62f7899403f442ec3cbb6bae	932068043	1	main_slash	7	advance_on_keypress_SLASH	2	stimuli_distractor_diamondtriangles.svg	stimuli_target_trianglesquares.svg	30	yes	57	0	942
6.6.1	win	2022-12-16	12:01:56	12:07:19	321259	62f7899403f442ec3cbb6bae	932068043	1	main_slash	7	main_slash	3	stimuli_distractor_trianglediamonds.svg	stimuli_target_circletriangles.svg	9	yes	53	1	1015
6.6.1	win	2022-12-16	12:01:56	12:07:19	321259	62f7899403f442ec3cbb6bae	932068043	1	main_slash	7	advance_on_keypress_SLASH	4	stimuli_distractor_trianglediamonds.svg	stimuli_target_circletriangles.svg	9	yes	57	0	2860
6.6.1	win	2022-12-16	12:01:56	12:07:24	326749	62f7899403f442ec3cbb6bae	932068043	1	main_slash	7	main_slash	5	stimuli_distractor_diamondtriangles.svg	stimuli_distractor_diamondtriangles.svg	39	no	0	1	2000
6.6.1	win	2022-12-16	12:01:56	12:07:24	326749	62f7899403f442ec3cbb6bae	932068043	1	main_slash	7	advance_on_keypress_SLASH	6	stimuli_distractor_diamondtriangles.svg	stimuli_distractor_diamondtriangles.svg	39	no	57	0	1892
6.6.1	win	2022-12-16	12:01:56	12:07:29	331270	62f7899403f442ec3cbb6bae	932068043	1	main_slash	7	main_slash	7	stimuli_target_diamondsquares.svg	stimuli_distractor_diamondtriangles.svg	24	yes	0	0	2000
6.6.1	win	2022-12-16	12:01:56	12:07:29	331270	62f7899403f442ec3cbb6bae	932068043	1	main_slash	7	advance_on_keypress_SLASH	8	stimuli_target_diamondsquares.svg	stimuli_distractor_diamondtriangles.svg	24	yes	57	0	587
6.6.1	win	2022-12-16	12:01:56	12:07:32	334147	62f7899403f442ec3cbb6bae	932068043	1	main_slash	7	main_slash	9	stimuli_distractor_diamondtriangles.svg	stimuli_target_diamondsquares.svg	32	yes	53	1	1657
6.6.1	win	2022-12-16	12:01:56	12:07:32	334147	62f7899403f442ec3cbb6bae	932068043	1	main_slash	7	advance_on_keypress_SLASH	10	stimuli_distractor_diamondtriangles.svg	stimuli_target_diamondsquares.svg	32	yes	57	0	1611
6.6.1	win	2022-12-16	12:01:56	12:07:36	338394	62f7899403f442ec3cbb6bae	932068043	1	main_slash	7	main_slash	11	stimuli_distractor_trianglediamonds.svg	stimuli_target_circlediamonds.svg	10	yes	0	0	2000
6.6.1	win	2022-12-16	12:01:56	12:07:36	338394	62f7899403f442ec3cbb6bae	932068043	1	main_slash	7	advance_on_keypress_SLASH	12	stimuli_distractor_trianglediamonds.svg	stimuli_target_circlediamonds.svg	10	yes	57	0	1247
6.6.1	win	2022-12-16	12:01:56	12:07:39	341075	62f7899403f442ec3cbb6bae	932068043	1	main_slash	7	main_slash	13	stimuli_distractor_diamondtriangles.svg	stimuli_target_circlediamonds.svg	14	yes	53	1	811
6.6.1	win	2022-12-16	12:01:56	12:07:39	341075	62f7899403f442ec3cbb6bae	932068043	1	main_slash	7	advance_on_keypress_SLASH	14	stimuli_distractor_diamondtriangles.svg	stimuli_target_circlediamonds.svg	14	yes	57	0	1481
6.6.1	win	2022-12-16	12:01:56	12:07:42	344154	62f7899403f442ec3cbb6bae	932068043	1	main_slash	7	main_slash	15	stimuli_distractor_trianglediamonds.svg	stimuli_target_squarediamonds.svg	12	yes	53	1	971
6.6.1	win	2022-12-16	12:01:56	12:07:42	344154	62f7899403f442ec3cbb6bae	932068043	1	main_slash	7	advance_on_keypress_SLASH	16	stimuli_distractor_trianglediamonds.svg	stimuli_target_squarediamonds.svg	12	yes	57	0	1931
6.6.1	win	2022-12-16	12:01:56	12:07:46	348003	62f7899403f442ec3cbb6bae	932068043	1	main_slash	7	main_slash	17	stimuli_distractor_trianglediamonds.svg	stimuli_target_diamondsquares.svg	28	yes	53	1	1282
6.6.1	win	2022-12-16	12:01:56	12:07:46	348003	62f7899403f442ec3cbb6bae	932068043	1	main_slash	7	advance_on_keypress_SLASH	18	stimuli_distractor_trianglediamonds.svg	stimuli_target_diamondsquares.svg	28	yes	57	0	1917
6.6.1	win	2022-12-16	12:01:56	12:07:50	352558	62f7899403f442ec3cbb6bae	932068043	1	main_slash	7	main_slash	19	stimuli_distractor_trianglediamonds.svg	stimuli_distractor_diamondtriangles.svg	36	no	0	1	2000
6.6.1	win	2022-12-16	12:01:56	12:07:50	352558	62f7899403f442ec3cbb6bae	932068043	1	main_slash	7	advance_on_keypress_SLASH	20	stimuli_distractor_trianglediamonds.svg	stimuli_distractor_diamondtriangles.svg	36	no	57	0	699
6.6.1	win	2022-12-16	12:01:56	12:07:54	355878	62f7899403f442ec3cbb6bae	932068043	1	main_slash	7	main_slash	21	stimuli_distractor_diamondtriangles.svg	stimuli_distractor_trianglediamonds.svg	38	no	0	1	2000
6.6.1	win	2022-12-16	12:01:56	12:07:54	355878	62f7899403f442ec3cbb6bae	932068043	1	main_slash	7	advance_on_keypress_SLASH	22	stimuli_distractor_diamondtriangles.svg	stimuli_distractor_trianglediamonds.svg	38	no	57	0	683
6.6.1	win	2022-12-16	12:01:56	12:07:56	358595	62f7899403f442ec3cbb6bae	932068043	1	main_slash	7	main_slash	23	stimuli_distractor_trianglediamonds.svg	stimuli_target_diamondcircles.svg	27	yes	53	1	1398
6.6.1	win	2022-12-16	12:01:56	12:07:56	358595	62f7899403f442ec3cbb6bae	932068043	1	main_slash	7	advance_on_keypress_SLASH	24	stimuli_distractor_trianglediamonds.svg	stimuli_target_diamondcircles.svg	27	yes	57	0	1644
6.6.1	win	2022-12-16	12:01:56	12:07:59	361682	62f7899403f442ec3cbb6bae	932068043	1	main_slash	7	main_slash	25	stimuli_target_trianglecircles.svg	stimuli_distractor_diamondtriangles.svg	21	yes	53	1	814
6.6.1	win	2022-12-16	12:01:56	12:07:59	361682	62f7899403f442ec3cbb6bae	932068043	1	main_slash	7	advance_on_keypress_SLASH	26	stimuli_target_trianglecircles.svg	stimuli_distractor_diamondtriangles.svg	21	yes	57	0	2164
6.6.1	win	2022-12-16	12:01:56	12:08:03	365579	62f7899403f442ec3cbb6bae	932068043	1	main_slash	7	main_slash	27	stimuli_distractor_diamondtriangles.svg	stimuli_target_trianglecircles.svg	29	yes	53	1	1107
6.6.1	win	2022-12-16	12:01:56	12:08:03	365579	62f7899403f442ec3cbb6bae	932068043	1	main_slash	7	advance_on_keypress_SLASH	28	stimuli_distractor_diamondtriangles.svg	stimuli_target_trianglecircles.svg	29	yes	57	0	1734
6.6.1	win	2022-12-16	12:01:56	12:08:08	369958	62f7899403f442ec3cbb6bae	932068043	1	main_slash	7	main_slash	29	stimuli_distractor_trianglediamonds.svg	stimuli_distractor_trianglediamonds.svg	34	no	0	1	2000
6.6.1	win	2022-12-16	12:01:56	12:08:08	369958	62f7899403f442ec3cbb6bae	932068043	1	main_slash	7	advance_on_keypress_SLASH	30	stimuli_distractor_trianglediamonds.svg	stimuli_distractor_trianglediamonds.svg	34	no	57	0	522
6.6.1	win	2022-12-16	12:01:56	12:08:10	372795	62f7899403f442ec3cbb6bae	932068043	1	main_slash	7	main_slash	31	stimuli_distractor_diamondtriangles.svg	stimuli_target_circletriangles.svg	13	yes	53	1	1683
6.6.1	win	2022-12-16	12:01:56	12:08:10	372795	62f7899403f442ec3cbb6bae	932068043	1	main_slash	7	advance_on_keypress_SLASH	32	stimuli_distractor_diamondtriangles.svg	stimuli_target_circletriangles.svg	13	yes	57	0	1373
6.6.1	win	2022-12-16	12:01:56	12:08:14	376139	62f7899403f442ec3cbb6bae	932068043	1	main_slash	7	main_slash	33	stimuli_distractor_trianglediamonds.svg	stimuli_distractor_diamondtriangles.svg	35	no	53	0	1340
6.6.1	win	2022-12-16	12:01:56	12:08:14	376139	62f7899403f442ec3cbb6bae	932068043	1	main_slash	7	advance_on_keypress_SLASH	34	stimuli_distractor_trianglediamonds.svg	stimuli_distractor_diamondtriangles.svg	35	no	57	0	1060
6.6.1	win	2022-12-16	12:01:56	12:08:16	378731	62f7899403f442ec3cbb6bae	932068043	1	main_slash	7	main_slash	35	stimuli_target_squaretriangles.svg	stimuli_distractor_trianglediamonds.svg	3	yes	53	1	897
6.6.1	win	2022-12-16	12:01:56	12:08:16	378731	62f7899403f442ec3cbb6bae	932068043	1	main_slash	7	advance_on_keypress_SLASH	36	stimuli_target_squaretriangles.svg	stimuli_distractor_trianglediamonds.svg	3	yes	57	0	1322
6.6.1	win	2022-12-16	12:01:56	12:08:20	382219	62f7899403f442ec3cbb6bae	932068043	1	main_slash	7	main_slash	37	stimuli_distractor_trianglediamonds.svg	stimuli_distractor_trianglediamonds.svg	33	no	53	0	1531
6.6.1	win	2022-12-16	12:01:56	12:08:20	382219	62f7899403f442ec3cbb6bae	932068043	1	main_slash	7	advance_on_keypress_SLASH	38	stimuli_distractor_trianglediamonds.svg	stimuli_distractor_trianglediamonds.svg	33	no	57	0	1028
6.6.1	win	2022-12-16	12:01:56	12:08:22	384699	62f7899403f442ec3cbb6bae	932068043	1	main_slash	7	main_slash	39	stimuli_target_circletriangles.svg	stimuli_distractor_diamondtriangles.svg	5	yes	53	1	824
6.6.1	win	2022-12-16	12:01:56	12:08:22	384699	62f7899403f442ec3cbb6bae	932068043	1	main_slash	7	advance_on_keypress_SLASH	40	stimuli_target_circletriangles.svg	stimuli_distractor_diamondtriangles.svg	5	yes	57	0	854
6.6.1	win	2022-12-16	12:01:56	12:08:26	388193	62f7899403f442ec3cbb6bae	932068043	1	main_slash	7	main_slash	41	stimuli_distractor_diamondtriangles.svg	stimuli_distractor_diamondtriangles.svg	40	no	0	1	2000
6.6.1	win	2022-12-16	12:01:56	12:08:26	388193	62f7899403f442ec3cbb6bae	932068043	1	main_slash	7	advance_on_keypress_SLASH	42	stimuli_distractor_diamondtriangles.svg	stimuli_distractor_diamondtriangles.svg	40	no	57	0	607
6.6.1	win	2022-12-16	12:01:56	12:08:28	390259	62f7899403f442ec3cbb6bae	932068043	1	main_slash	7	main_slash	43	stimuli_distractor_diamondtriangles.svg	stimuli_target_squarediamonds.svg	16	yes	53	1	830
6.6.1	win	2022-12-16	12:01:56	12:08:28	390259	62f7899403f442ec3cbb6bae	932068043	1	main_slash	7	advance_on_keypress_SLASH	44	stimuli_distractor_diamondtriangles.svg	stimuli_target_squarediamonds.svg	16	yes	57	0	826
6.6.1	win	2022-12-16	12:01:56	12:08:30	392523	62f7899403f442ec3cbb6bae	932068043	1	main_slash	7	main_slash	45	stimuli_distractor_diamondtriangles.svg	stimuli_target_diamondcircles.svg	31	yes	53	1	807
6.6.1	win	2022-12-16	12:01:56	12:08:30	392523	62f7899403f442ec3cbb6bae	932068043	1	main_slash	7	advance_on_keypress_SLASH	46	stimuli_distractor_diamondtriangles.svg	stimuli_target_diamondcircles.svg	31	yes	57	0	925
6.6.1	win	2022-12-16	12:01:56	12:08:33	395067	62f7899403f442ec3cbb6bae	932068043	1	main_slash	7	main_slash	47	stimuli_target_circlediamonds.svg	stimuli_distractor_diamondtriangles.svg	6	yes	53	1	983
6.6.1	win	2022-12-16	12:01:56	12:08:33	395067	62f7899403f442ec3cbb6bae	932068043	1	main_slash	7	advance_on_keypress_SLASH	48	stimuli_target_circlediamonds.svg	stimuli_distractor_diamondtriangles.svg	6	yes	57	0	678
6.6.1	win	2022-12-16	12:01:56	12:08:35	397363	62f7899403f442ec3cbb6bae	932068043	1	main_slash	7	main_slash	49	stimuli_target_diamondcircles.svg	stimuli_distractor_diamondtriangles.svg	23	yes	53	1	994
6.6.1	win	2022-12-16	12:01:56	12:08:35	397363	62f7899403f442ec3cbb6bae	932068043	1	main_slash	7	advance_on_keypress_SLASH	50	stimuli_target_diamondcircles.svg	stimuli_distractor_diamondtriangles.svg	23	yes	57	0	831
6.6.1	win	2022-12-16	12:01:56	12:08:37	399810	62f7899403f442ec3cbb6bae	932068043	1	main_slash	7	main_slash	51	stimuli_distractor_trianglediamonds.svg	stimuli_target_trianglesquares.svg	26	yes	53	1	990
6.6.1	win	2022-12-16	12:01:56	12:08:37	399810	62f7899403f442ec3cbb6bae	932068043	1	main_slash	7	advance_on_keypress_SLASH	52	stimuli_distractor_trianglediamonds.svg	stimuli_target_trianglesquares.svg	26	yes	57	0	1452
6.6.1	win	2022-12-16	12:01:56	12:08:40	402579	62f7899403f442ec3cbb6bae	932068043	1	main_slash	7	main_slash	53	stimuli_distractor_trianglediamonds.svg	stimuli_target_trianglecircles.svg	25	yes	53	1	671
6.6.1	win	2022-12-16	12:01:56	12:08:40	402579	62f7899403f442ec3cbb6bae	932068043	1	main_slash	7	advance_on_keypress_SLASH	54	stimuli_distractor_trianglediamonds.svg	stimuli_target_trianglecircles.svg	25	yes	57	0	786
6.6.1	win	2022-12-16	12:01:56	12:08:42	404762	62f7899403f442ec3cbb6bae	932068043	1	main_slash	7	main_slash	55	stimuli_target_circletriangles.svg	stimuli_distractor_trianglediamonds.svg	1	yes	53	1	752
6.6.1	win	2022-12-16	12:01:56	12:08:42	404762	62f7899403f442ec3cbb6bae	932068043	1	main_slash	7	advance_on_keypress_SLASH	56	stimuli_target_circletriangles.svg	stimuli_distractor_trianglediamonds.svg	1	yes	57	0	576
6.6.1	win	2022-12-16	12:01:56	12:08:46	407979	62f7899403f442ec3cbb6bae	932068043	1	main_slash	7	main_slash	57	stimuli_distractor_trianglediamonds.svg	stimuli_target_squaretriangles.svg	11	yes	0	0	2000
6.6.1	win	2022-12-16	12:01:56	12:08:46	407979	62f7899403f442ec3cbb6bae	932068043	1	main_slash	7	advance_on_keypress_SLASH	58	stimuli_distractor_trianglediamonds.svg	stimuli_target_squaretriangles.svg	11	yes	57	0	541
6.6.1	win	2022-12-16	12:01:56	12:08:48	410010	62f7899403f442ec3cbb6bae	932068043	1	main_slash	7	main_slash	59	stimuli_target_trianglecircles.svg	stimuli_distractor_trianglediamonds.svg	17	yes	53	1	862
6.6.1	win	2022-12-16	12:01:56	12:08:48	410010	62f7899403f442ec3cbb6bae	932068043	1	main_slash	7	advance_on_keypress_SLASH	60	stimuli_target_trianglecircles.svg	stimuli_distractor_trianglediamonds.svg	17	yes	57	0	882
6.6.1	win	2022-12-16	12:01:56	12:08:50	412371	62f7899403f442ec3cbb6bae	932068043	1	main_slash	7	main_slash	61	stimuli_target_trianglesquares.svg	stimuli_distractor_diamondtriangles.svg	22	yes	53	1	853
6.6.1	win	2022-12-16	12:01:56	12:08:50	412371	62f7899403f442ec3cbb6bae	932068043	1	main_slash	7	advance_on_keypress_SLASH	62	stimuli_target_trianglesquares.svg	stimuli_distractor_diamondtriangles.svg	22	yes	57	0	818
6.6.1	win	2022-12-16	12:01:56	12:08:53	415130	62f7899403f442ec3cbb6bae	932068043	1	main_slash	7	main_slash	63	stimuli_target_circlediamonds.svg	stimuli_distractor_trianglediamonds.svg	2	yes	53	1	1294
6.6.1	win	2022-12-16	12:01:56	12:08:53	415130	62f7899403f442ec3cbb6bae	932068043	1	main_slash	7	advance_on_keypress_SLASH	64	stimuli_target_circlediamonds.svg	stimuli_distractor_trianglediamonds.svg	2	yes	57	0	840
6.6.1	win	2022-12-16	12:01:56	12:08:55	417810	62f7899403f442ec3cbb6bae	932068043	1	main_slash	7	main_slash	65	stimuli_target_diamondcircles.svg	stimuli_distractor_trianglediamonds.svg	19	yes	53	1	1204
6.6.1	win	2022-12-16	12:01:56	12:08:55	417810	62f7899403f442ec3cbb6bae	932068043	1	main_slash	7	advance_on_keypress_SLASH	66	stimuli_target_diamondcircles.svg	stimuli_distractor_trianglediamonds.svg	19	yes	57	0	690
6.6.1	win	2022-12-16	12:01:56	12:08:58	420442	62f7899403f442ec3cbb6bae	932068043	1	main_slash	7	main_slash	67	stimuli_target_squaretriangles.svg	stimuli_distractor_diamondtriangles.svg	7	yes	53	1	1301
6.6.1	win	2022-12-16	12:01:56	12:08:58	420442	62f7899403f442ec3cbb6bae	932068043	1	main_slash	7	advance_on_keypress_SLASH	68	stimuli_target_squaretriangles.svg	stimuli_distractor_diamondtriangles.svg	7	yes	57	0	614
6.6.1	win	2022-12-16	12:01:56	12:09:01	423694	62f7899403f442ec3cbb6bae	932068043	1	main_slash	7	main_slash	69	stimuli_distractor_diamondtriangles.svg	stimuli_target_squaretriangles.svg	15	yes	0	0	2000
6.6.1	win	2022-12-16	12:01:56	12:09:01	423694	62f7899403f442ec3cbb6bae	932068043	1	main_slash	7	advance_on_keypress_SLASH	70	stimuli_distractor_diamondtriangles.svg	stimuli_target_squaretriangles.svg	15	yes	57	0	1473
6.6.1	win	2022-12-16	12:01:56	12:09:04	426458	62f7899403f442ec3cbb6bae	932068043	1	main_slash	7	main_slash	71	stimuli_target_squarediamonds.svg	stimuli_distractor_diamondtriangles.svg	8	yes	53	1	660
6.6.1	win	2022-12-16	12:01:56	12:09:04	426458	62f7899403f442ec3cbb6bae	932068043	1	main_slash	7	advance_on_keypress_SLASH	72	stimuli_target_squarediamonds.svg	stimuli_distractor_diamondtriangles.svg	8	yes	57	0	736
6.6.1	win	2022-12-16	12:01:56	12:09:06	428802	62f7899403f442ec3cbb6bae	932068043	1	main_slash	7	main_slash	73	stimuli_target_diamondsquares.svg	stimuli_distractor_trianglediamonds.svg	20	yes	53	1	969
6.6.1	win	2022-12-16	12:01:56	12:09:06	428802	62f7899403f442ec3cbb6bae	932068043	1	main_slash	7	advance_on_keypress_SLASH	74	stimuli_target_diamondsquares.svg	stimuli_distractor_trianglediamonds.svg	20	yes	57	0	1177
6.6.1	win	2022-12-16	12:01:56	12:09:09	431371	62f7899403f442ec3cbb6bae	932068043	1	main_slash	7	main_slash	75	stimuli_target_trianglesquares.svg	stimuli_distractor_trianglediamonds.svg	18	yes	53	1	752
6.6.1	win	2022-12-16	12:01:56	12:09:09	431371	62f7899403f442ec3cbb6bae	932068043	1	main_slash	7	advance_on_keypress_SLASH	76	stimuli_target_trianglesquares.svg	stimuli_distractor_trianglediamonds.svg	18	yes	57	0	1023
6.6.1	win	2022-12-16	12:01:56	12:09:12	433891	62f7899403f442ec3cbb6bae	932068043	1	main_slash	7	main_slash	77	stimuli_target_squarediamonds.svg	stimuli_distractor_trianglediamonds.svg	4	yes	53	1	852
6.6.1	win	2022-12-16	12:01:56	12:09:12	433891	62f7899403f442ec3cbb6bae	932068043	1	main_slash	7	advance_on_keypress_SLASH	78	stimuli_target_squarediamonds.svg	stimuli_distractor_trianglediamonds.svg	4	yes	57	0	687
6.6.1	win	2022-12-16	12:01:56	12:09:15	437224	62f7899403f442ec3cbb6bae	932068043	1	main_slash	7	main_slash	79	stimuli_distractor_diamondtriangles.svg	stimuli_distractor_trianglediamonds.svg	37	no	0	1	2000
6.6.1	win	2022-12-16	12:01:56	12:09:15	437224	62f7899403f442ec3cbb6bae	932068043	1	main_slash	7	advance_on_keypress_SLASH	80	stimuli_distractor_diamondtriangles.svg	stimuli_distractor_trianglediamonds.svg	37	no	57	0	1232
6.6.1	win	2022-12-16	12:01:56	12:09:19	441078	62f7899403f442ec3cbb6bae	932068043	1	main_slash	7	main_slash	81	stimuli_distractor_diamondtriangles.svg	stimuli_distractor_trianglediamonds.svg	38	no	0	1	2000
6.6.1	win	2022-12-16	12:01:56	12:09:19	441078	62f7899403f442ec3cbb6bae	932068043	1	main_slash	7	advance_on_keypress_SLASH	82	stimuli_distractor_diamondtriangles.svg	stimuli_distractor_trianglediamonds.svg	38	no	57	0	618
6.6.1	win	2022-12-16	12:01:56	12:09:22	444331	62f7899403f442ec3cbb6bae	932068043	1	main_slash	7	main_slash	83	stimuli_distractor_diamondtriangles.svg	stimuli_distractor_diamondtriangles.svg	40	no	0	1	2000
6.6.1	win	2022-12-16	12:01:56	12:09:22	444331	62f7899403f442ec3cbb6bae	932068043	1	main_slash	7	advance_on_keypress_SLASH	84	stimuli_distractor_diamondtriangles.svg	stimuli_distractor_diamondtriangles.svg	40	no	57	0	1549
6.6.1	win	2022-12-16	12:01:56	12:09:26	448502	62f7899403f442ec3cbb6bae	932068043	1	main_slash	7	main_slash	85	stimuli_distractor_trianglediamonds.svg	stimuli_distractor_trianglediamonds.svg	33	no	0	1	2000
6.6.1	win	2022-12-16	12:01:56	12:09:26	448502	62f7899403f442ec3cbb6bae	932068043	1	main_slash	7	advance_on_keypress_SLASH	86	stimuli_distractor_trianglediamonds.svg	stimuli_distractor_trianglediamonds.svg	33	no	57	0	1434
6.6.1	win	2022-12-16	12:01:56	12:09:29	451282	62f7899403f442ec3cbb6bae	932068043	1	main_slash	7	main_slash	87	stimuli_target_trianglesquares.svg	stimuli_distractor_diamondtriangles.svg	22	yes	53	1	710
6.6.1	win	2022-12-16	12:01:56	12:09:29	451282	62f7899403f442ec3cbb6bae	932068043	1	main_slash	7	advance_on_keypress_SLASH	88	stimuli_target_trianglesquares.svg	stimuli_distractor_diamondtriangles.svg	22	yes	57	0	2064
6.6.1	win	2022-12-16	12:01:56	12:09:33	454970	62f7899403f442ec3cbb6bae	932068043	1	main_slash	7	main_slash	89	stimuli_distractor_diamondtriangles.svg	stimuli_target_circlediamonds.svg	14	yes	53	1	994
6.6.1	win	2022-12-16	12:01:56	12:09:33	454970	62f7899403f442ec3cbb6bae	932068043	1	main_slash	7	advance_on_keypress_SLASH	90	stimuli_distractor_diamondtriangles.svg	stimuli_target_circlediamonds.svg	14	yes	57	0	1345
6.6.1	win	2022-12-16	12:01:56	12:09:36	457923	62f7899403f442ec3cbb6bae	932068043	1	main_slash	7	main_slash	91	stimuli_distractor_diamondtriangles.svg	stimuli_target_squaretriangles.svg	15	yes	53	1	977
6.6.1	win	2022-12-16	12:01:56	12:09:36	457923	62f7899403f442ec3cbb6bae	932068043	1	main_slash	7	advance_on_keypress_SLASH	92	stimuli_distractor_diamondtriangles.svg	stimuli_target_squaretriangles.svg	15	yes	57	0	1904
6.6.1	win	2022-12-16	12:01:56	12:09:39	461298	62f7899403f442ec3cbb6bae	932068043	1	main_slash	7	main_slash	93	stimuli_target_circlediamonds.svg	stimuli_distractor_trianglediamonds.svg	2	yes	53	1	833
6.6.1	win	2022-12-16	12:01:56	12:09:39	461298	62f7899403f442ec3cbb6bae	932068043	1	main_slash	7	advance_on_keypress_SLASH	94	stimuli_target_circlediamonds.svg	stimuli_distractor_trianglediamonds.svg	2	yes	57	0	1317
6.6.1	win	2022-12-16	12:01:56	12:09:42	464106	62f7899403f442ec3cbb6bae	932068043	1	main_slash	7	main_slash	95	stimuli_distractor_trianglediamonds.svg	stimuli_target_diamondcircles.svg	27	yes	53	1	838
6.6.1	win	2022-12-16	12:01:56	12:09:42	464106	62f7899403f442ec3cbb6bae	932068043	1	main_slash	7	advance_on_keypress_SLASH	96	stimuli_distractor_trianglediamonds.svg	stimuli_target_diamondcircles.svg	27	yes	57	0	2130
6.6.1	win	2022-12-16	12:01:56	12:09:45	467389	62f7899403f442ec3cbb6bae	932068043	1	main_slash	7	main_slash	97	stimuli_distractor_diamondtriangles.svg	stimuli_target_diamondsquares.svg	32	yes	53	1	506
6.6.1	win	2022-12-16	12:01:56	12:09:45	467389	62f7899403f442ec3cbb6bae	932068043	1	main_slash	7	advance_on_keypress_SLASH	98	stimuli_distractor_diamondtriangles.svg	stimuli_target_diamondsquares.svg	32	yes	57	0	1700
6.6.1	win	2022-12-16	12:01:56	12:09:48	470386	62f7899403f442ec3cbb6bae	932068043	1	main_slash	7	main_slash	99	stimuli_distractor_trianglediamonds.svg	stimuli_target_trianglecircles.svg	25	yes	53	1	645
6.6.1	win	2022-12-16	12:01:56	12:09:48	470386	62f7899403f442ec3cbb6bae	932068043	1	main_slash	7	advance_on_keypress_SLASH	100	stimuli_distractor_trianglediamonds.svg	stimuli_target_trianglecircles.svg	25	yes	57	0	1826
6.6.1	win	2022-12-16	12:01:56	12:09:51	473530	62f7899403f442ec3cbb6bae	932068043	1	main_slash	7	main_slash	101	stimuli_distractor_diamondtriangles.svg	stimuli_target_squarediamonds.svg	16	yes	53	1	686
6.6.1	win	2022-12-16	12:01:56	12:09:51	473530	62f7899403f442ec3cbb6bae	932068043	1	main_slash	7	advance_on_keypress_SLASH	102	stimuli_distractor_diamondtriangles.svg	stimuli_target_squarediamonds.svg	16	yes	57	0	993
6.6.1	win	2022-12-16	12:01:56	12:09:53	475778	62f7899403f442ec3cbb6bae	932068043	1	main_slash	7	main_slash	103	stimuli_target_squarediamonds.svg	stimuli_distractor_diamondtriangles.svg	8	yes	53	1	615
6.6.1	win	2022-12-16	12:01:56	12:09:53	475778	62f7899403f442ec3cbb6bae	932068043	1	main_slash	7	advance_on_keypress_SLASH	104	stimuli_target_squarediamonds.svg	stimuli_distractor_diamondtriangles.svg	8	yes	57	0	669
6.6.1	win	2022-12-16	12:01:56	12:09:55	477634	62f7899403f442ec3cbb6bae	932068043	1	main_slash	7	main_slash	105	stimuli_distractor_diamondtriangles.svg	stimuli_target_circletriangles.svg	13	yes	53	1	552
6.6.1	win	2022-12-16	12:01:56	12:09:55	477634	62f7899403f442ec3cbb6bae	932068043	1	main_slash	7	advance_on_keypress_SLASH	106	stimuli_distractor_diamondtriangles.svg	stimuli_target_circletriangles.svg	13	yes	57	0	1161
6.6.1	win	2022-12-16	12:01:56	12:09:58	480026	62f7899403f442ec3cbb6bae	932068043	1	main_slash	7	main_slash	107	stimuli_target_circletriangles.svg	stimuli_distractor_diamondtriangles.svg	5	yes	53	1	592
6.6.1	win	2022-12-16	12:01:56	12:09:58	480026	62f7899403f442ec3cbb6bae	932068043	1	main_slash	7	advance_on_keypress_SLASH	108	stimuli_target_circletriangles.svg	stimuli_distractor_diamondtriangles.svg	5	yes	57	0	1255
6.6.1	win	2022-12-16	12:01:56	12:10:00	482683	62f7899403f442ec3cbb6bae	932068043	1	main_slash	7	main_slash	109	stimuli_distractor_trianglediamonds.svg	stimuli_target_circletriangles.svg	9	yes	53	1	763
6.6.1	win	2022-12-16	12:01:56	12:10:00	482683	62f7899403f442ec3cbb6bae	932068043	1	main_slash	7	advance_on_keypress_SLASH	110	stimuli_distractor_trianglediamonds.svg	stimuli_target_circletriangles.svg	9	yes	57	0	1082
6.6.1	win	2022-12-16	12:01:56	12:10:04	486406	62f7899403f442ec3cbb6bae	932068043	1	main_slash	7	main_slash	111	stimuli_distractor_trianglediamonds.svg	stimuli_distractor_diamondtriangles.svg	36	no	0	1	2000
6.6.1	win	2022-12-16	12:01:56	12:10:04	486406	62f7899403f442ec3cbb6bae	932068043	1	main_slash	7	advance_on_keypress_SLASH	112	stimuli_distractor_trianglediamonds.svg	stimuli_distractor_diamondtriangles.svg	36	no	57	0	739
6.6.1	win	2022-12-16	12:01:56	12:10:06	488474	62f7899403f442ec3cbb6bae	932068043	1	main_slash	7	main_slash	113	stimuli_distractor_diamondtriangles.svg	stimuli_target_trianglesquares.svg	30	yes	53	1	698
6.6.1	win	2022-12-16	12:01:56	12:10:06	488474	62f7899403f442ec3cbb6bae	932068043	1	main_slash	7	advance_on_keypress_SLASH	114	stimuli_distractor_diamondtriangles.svg	stimuli_target_trianglesquares.svg	30	yes	57	0	1021
6.6.1	win	2022-12-16	12:01:56	12:10:09	490866	62f7899403f442ec3cbb6bae	932068043	1	main_slash	7	main_slash	115	stimuli_target_circletriangles.svg	stimuli_distractor_trianglediamonds.svg	1	yes	53	1	738
6.6.1	win	2022-12-16	12:01:56	12:10:09	490866	62f7899403f442ec3cbb6bae	932068043	1	main_slash	7	advance_on_keypress_SLASH	116	stimuli_target_circletriangles.svg	stimuli_distractor_trianglediamonds.svg	1	yes	57	0	547
6.6.1	win	2022-12-16	12:01:56	12:10:10	492762	62f7899403f442ec3cbb6bae	932068043	1	main_slash	7	main_slash	117	stimuli_target_trianglecircles.svg	stimuli_distractor_trianglediamonds.svg	17	yes	53	1	716
6.6.1	win	2022-12-16	12:01:56	12:10:10	492762	62f7899403f442ec3cbb6bae	932068043	1	main_slash	7	advance_on_keypress_SLASH	118	stimuli_target_trianglecircles.svg	stimuli_distractor_trianglediamonds.svg	17	yes	57	0	1054
6.6.1	win	2022-12-16	12:01:56	12:10:13	495242	62f7899403f442ec3cbb6bae	932068043	1	main_slash	7	main_slash	119	stimuli_target_diamondsquares.svg	stimuli_distractor_trianglediamonds.svg	20	yes	53	1	793
6.6.1	win	2022-12-16	12:01:56	12:10:13	495242	62f7899403f442ec3cbb6bae	932068043	1	main_slash	7	advance_on_keypress_SLASH	120	stimuli_target_diamondsquares.svg	stimuli_distractor_trianglediamonds.svg	20	yes	57	0	656
6.6.1	win	2022-12-16	12:01:56	12:10:15	497314	62f7899403f442ec3cbb6bae	932068043	1	main_slash	7	main_slash	121	stimuli_target_trianglesquares.svg	stimuli_distractor_trianglediamonds.svg	18	yes	53	1	780
6.6.1	win	2022-12-16	12:01:56	12:10:15	497314	62f7899403f442ec3cbb6bae	932068043	1	main_slash	7	advance_on_keypress_SLASH	122	stimuli_target_trianglesquares.svg	stimuli_distractor_trianglediamonds.svg	18	yes	57	0	507
6.6.1	win	2022-12-16	12:01:56	12:10:18	500453	62f7899403f442ec3cbb6bae	932068043	1	main_slash	7	main_slash	123	stimuli_distractor_trianglediamonds.svg	stimuli_distractor_trianglediamonds.svg	34	no	0	1	2000
6.6.1	win	2022-12-16	12:01:56	12:10:18	500453	62f7899403f442ec3cbb6bae	932068043	1	main_slash	7	advance_on_keypress_SLASH	124	stimuli_distractor_trianglediamonds.svg	stimuli_distractor_trianglediamonds.svg	34	no	57	0	795
6.6.1	win	2022-12-16	12:01:56	12:10:20	502690	62f7899403f442ec3cbb6bae	932068043	1	main_slash	7	main_slash	125	stimuli_distractor_trianglediamonds.svg	stimuli_target_circlediamonds.svg	10	yes	53	1	817
6.6.1	win	2022-12-16	12:01:56	12:10:20	502690	62f7899403f442ec3cbb6bae	932068043	1	main_slash	7	advance_on_keypress_SLASH	126	stimuli_distractor_trianglediamonds.svg	stimuli_target_circlediamonds.svg	10	yes	57	0	887
6.6.1	win	2022-12-16	12:01:56	12:10:23	505090	62f7899403f442ec3cbb6bae	932068043	1	main_slash	7	main_slash	127	stimuli_target_squarediamonds.svg	stimuli_distractor_trianglediamonds.svg	4	yes	53	1	865
6.6.1	win	2022-12-16	12:01:56	12:10:23	505090	62f7899403f442ec3cbb6bae	932068043	1	main_slash	7	advance_on_keypress_SLASH	128	stimuli_target_squarediamonds.svg	stimuli_distractor_trianglediamonds.svg	4	yes	57	0	445
6.6.1	win	2022-12-16	12:01:56	12:10:26	508160	62f7899403f442ec3cbb6bae	932068043	1	main_slash	7	main_slash	129	stimuli_distractor_diamondtriangles.svg	stimuli_distractor_trianglediamonds.svg	37	no	0	1	2000
6.6.1	win	2022-12-16	12:01:56	12:10:26	508160	62f7899403f442ec3cbb6bae	932068043	1	main_slash	7	advance_on_keypress_SLASH	130	stimuli_distractor_diamondtriangles.svg	stimuli_distractor_trianglediamonds.svg	37	no	57	0	599
6.6.1	win	2022-12-16	12:01:56	12:10:28	510106	62f7899403f442ec3cbb6bae	932068043	1	main_slash	7	main_slash	131	stimuli_distractor_diamondtriangles.svg	stimuli_target_trianglecircles.svg	29	yes	53	1	709
6.6.1	win	2022-12-16	12:01:56	12:10:28	510106	62f7899403f442ec3cbb6bae	932068043	1	main_slash	7	advance_on_keypress_SLASH	132	stimuli_distractor_diamondtriangles.svg	stimuli_target_trianglecircles.svg	29	yes	57	0	527
6.6.1	win	2022-12-16	12:01:56	12:10:30	512042	62f7899403f442ec3cbb6bae	932068043	1	main_slash	7	main_slash	133	stimuli_target_trianglecircles.svg	stimuli_distractor_diamondtriangles.svg	21	yes	53	1	777
6.6.1	win	2022-12-16	12:01:56	12:10:30	512042	62f7899403f442ec3cbb6bae	932068043	1	main_slash	7	advance_on_keypress_SLASH	134	stimuli_target_trianglecircles.svg	stimuli_distractor_diamondtriangles.svg	21	yes	57	0	504
6.6.1	win	2022-12-16	12:01:56	12:10:32	514715	62f7899403f442ec3cbb6bae	932068043	1	main_slash	7	main_slash	135	stimuli_distractor_trianglediamonds.svg	stimuli_target_diamondsquares.svg	28	yes	53	1	1530
6.6.1	win	2022-12-16	12:01:56	12:10:32	514715	62f7899403f442ec3cbb6bae	932068043	1	main_slash	7	advance_on_keypress_SLASH	136	stimuli_distractor_trianglediamonds.svg	stimuli_target_diamondsquares.svg	28	yes	57	0	644
6.6.1	win	2022-12-16	12:01:56	12:10:34	516747	62f7899403f442ec3cbb6bae	932068043	1	main_slash	7	main_slash	137	stimuli_target_circlediamonds.svg	stimuli_distractor_diamondtriangles.svg	6	yes	53	1	760
6.6.1	win	2022-12-16	12:01:56	12:10:34	516747	62f7899403f442ec3cbb6bae	932068043	1	main_slash	7	advance_on_keypress_SLASH	138	stimuli_target_circlediamonds.svg	stimuli_distractor_diamondtriangles.svg	6	yes	57	0	471
6.6.1	win	2022-12-16	12:01:56	12:10:37	518970	62f7899403f442ec3cbb6bae	932068043	1	main_slash	7	main_slash	139	stimuli_target_diamondsquares.svg	stimuli_distractor_diamondtriangles.svg	24	yes	53	1	1115
6.6.1	win	2022-12-16	12:01:56	12:10:37	518970	62f7899403f442ec3cbb6bae	932068043	1	main_slash	7	advance_on_keypress_SLASH	140	stimuli_target_diamondsquares.svg	stimuli_distractor_diamondtriangles.svg	24	yes	57	0	533
6.6.1	win	2022-12-16	12:01:56	12:10:39	520954	62f7899403f442ec3cbb6bae	932068043	1	main_slash	7	main_slash	141	stimuli_distractor_trianglediamonds.svg	stimuli_target_trianglesquares.svg	26	yes	53	1	813
6.6.1	win	2022-12-16	12:01:56	12:10:39	520954	62f7899403f442ec3cbb6bae	932068043	1	main_slash	7	advance_on_keypress_SLASH	142	stimuli_distractor_trianglediamonds.svg	stimuli_target_trianglesquares.svg	26	yes	57	0	411
6.6.1	win	2022-12-16	12:01:56	12:10:40	522674	62f7899403f442ec3cbb6bae	932068043	1	main_slash	7	main_slash	143	stimuli_target_squaretriangles.svg	stimuli_distractor_diamondtriangles.svg	7	yes	53	1	682
6.6.1	win	2022-12-16	12:01:56	12:10:40	522674	62f7899403f442ec3cbb6bae	932068043	1	main_slash	7	advance_on_keypress_SLASH	144	stimuli_target_squaretriangles.svg	stimuli_distractor_diamondtriangles.svg	7	yes	57	0	397
6.6.1	win	2022-12-16	12:01:56	12:10:42	524258	62f7899403f442ec3cbb6bae	932068043	1	main_slash	7	main_slash	145	stimuli_target_diamondcircles.svg	stimuli_distractor_diamondtriangles.svg	23	yes	53	1	564
6.6.1	win	2022-12-16	12:01:56	12:10:42	524258	62f7899403f442ec3cbb6bae	932068043	1	main_slash	7	advance_on_keypress_SLASH	146	stimuli_target_diamondcircles.svg	stimuli_distractor_diamondtriangles.svg	23	yes	57	0	412
6.6.1	win	2022-12-16	12:01:56	12:10:45	527296	62f7899403f442ec3cbb6bae	932068043	1	main_slash	7	main_slash	147	stimuli_distractor_trianglediamonds.svg	stimuli_distractor_diamondtriangles.svg	35	no	0	1	2000
6.6.1	win	2022-12-16	12:01:56	12:10:45	527296	62f7899403f442ec3cbb6bae	932068043	1	main_slash	7	advance_on_keypress_SLASH	148	stimuli_distractor_trianglediamonds.svg	stimuli_distractor_diamondtriangles.svg	35	no	57	0	632
6.6.1	win	2022-12-16	12:01:56	12:10:47	529058	62f7899403f442ec3cbb6bae	932068043	1	main_slash	7	main_slash	149	stimuli_distractor_diamondtriangles.svg	stimuli_target_diamondcircles.svg	31	yes	53	1	492
6.6.1	win	2022-12-16	12:01:56	12:10:47	529058	62f7899403f442ec3cbb6bae	932068043	1	main_slash	7	advance_on_keypress_SLASH	150	stimuli_distractor_diamondtriangles.svg	stimuli_target_diamondcircles.svg	31	yes	57	0	751
6.6.1	win	2022-12-16	12:01:56	12:10:49	531098	62f7899403f442ec3cbb6bae	932068043	1	main_slash	7	main_slash	151	stimuli_distractor_trianglediamonds.svg	stimuli_target_squarediamonds.svg	12	yes	53	1	647
6.6.1	win	2022-12-16	12:01:56	12:10:49	531098	62f7899403f442ec3cbb6bae	932068043	1	main_slash	7	advance_on_keypress_SLASH	152	stimuli_distractor_trianglediamonds.svg	stimuli_target_squarediamonds.svg	12	yes	57	0	628
6.6.1	win	2022-12-16	12:01:56	12:10:52	534353	62f7899403f442ec3cbb6bae	932068043	1	main_slash	7	main_slash	153	stimuli_distractor_diamondtriangles.svg	stimuli_distractor_diamondtriangles.svg	39	no	0	1	2000
6.6.1	win	2022-12-16	12:01:56	12:10:52	534353	62f7899403f442ec3cbb6bae	932068043	1	main_slash	7	advance_on_keypress_SLASH	154	stimuli_distractor_diamondtriangles.svg	stimuli_distractor_diamondtriangles.svg	39	no	57	0	487
6.6.1	win	2022-12-16	12:01:56	12:10:54	536178	62f7899403f442ec3cbb6bae	932068043	1	main_slash	7	main_slash	155	stimuli_target_diamondcircles.svg	stimuli_distractor_trianglediamonds.svg	19	yes	53	1	706
6.6.1	win	2022-12-16	12:01:56	12:10:54	536178	62f7899403f442ec3cbb6bae	932068043	1	main_slash	7	advance_on_keypress_SLASH	156	stimuli_target_diamondcircles.svg	stimuli_distractor_trianglediamonds.svg	19	yes	57	0	948
6.6.1	win	2022-12-16	12:01:56	12:10:56	538362	62f7899403f442ec3cbb6bae	932068043	1	main_slash	7	main_slash	157	stimuli_target_squaretriangles.svg	stimuli_distractor_trianglediamonds.svg	3	yes	53	1	604
6.6.1	win	2022-12-16	12:01:56	12:10:56	538362	62f7899403f442ec3cbb6bae	932068043	1	main_slash	7	advance_on_keypress_SLASH	158	stimuli_target_squaretriangles.svg	stimuli_distractor_trianglediamonds.svg	3	yes	57	0	377
6.6.1	win	2022-12-16	12:01:56	12:10:59	541410	62f7899403f442ec3cbb6bae	932068043	1	main_slash	7	main_slash	159	stimuli_distractor_trianglediamonds.svg	stimuli_target_squaretriangles.svg	11	yes	0	0	2000
6.6.1	win	2022-12-16	12:01:56	12:10:59	541410	62f7899403f442ec3cbb6bae	932068043	1	main_slash	7	advance_on_keypress_SLASH	160	stimuli_distractor_trianglediamonds.svg	stimuli_target_squaretriangles.svg	11	yes	57	0	559
6.6.1	win	2022-12-16	12:01:56	12:11:41	583364	62f7899403f442ec3cbb6bae	932068043	1	practice_z	9	practice_z	1	stimuli_distractor_diamondtriangles.svg	stimuli_target_circletriangles.svg	7	yes	44	1	828
6.6.1	win	2022-12-16	12:01:56	12:11:41	583364	62f7899403f442ec3cbb6bae	932068043	1	practice_z	9	advance_on_keypress_ZEE	2	stimuli_distractor_diamondtriangles.svg	stimuli_target_circletriangles.svg	7	yes	57	0	824
6.6.1	win	2022-12-16	12:01:56	12:11:44	586691	62f7899403f442ec3cbb6bae	932068043	1	practice_z	9	practice_z	3	stimuli_target_squarediamonds.svg	stimuli_distractor_diamondtriangles.svg	2	yes	44	1	869
6.6.1	win	2022-12-16	12:01:56	12:11:44	586691	62f7899403f442ec3cbb6bae	932068043	1	practice_z	9	advance_on_keypress_ZEE	4	stimuli_target_squarediamonds.svg	stimuli_distractor_diamondtriangles.svg	2	yes	57	0	655
6.6.1	win	2022-12-16	12:01:56	12:11:49	590991	62f7899403f442ec3cbb6bae	932068043	1	practice_z	9	practice_z	5	stimuli_distractor_trianglediamonds.svg	stimuli_distractor_diamondtriangles.svg	16	no	0	1	2000
6.6.1	win	2022-12-16	12:01:56	12:11:49	590991	62f7899403f442ec3cbb6bae	932068043	1	practice_z	9	advance_on_keypress_ZEE	6	stimuli_distractor_trianglediamonds.svg	stimuli_distractor_diamondtriangles.svg	16	no	57	0	584
6.6.1	win	2022-12-16	12:01:56	12:11:52	594011	62f7899403f442ec3cbb6bae	932068043	1	practice_z	9	practice_z	7	stimuli_target_circlediamonds.svg	stimuli_distractor_diamondtriangles.svg	1	yes	44	1	799
6.6.1	win	2022-12-16	12:01:56	12:11:52	594011	62f7899403f442ec3cbb6bae	932068043	1	practice_z	9	advance_on_keypress_ZEE	8	stimuli_target_circlediamonds.svg	stimuli_distractor_diamondtriangles.svg	1	yes	57	0	468
6.6.1	win	2022-12-16	12:01:56	12:11:55	597051	62f7899403f442ec3cbb6bae	932068043	1	practice_z	9	practice_z	9	stimuli_distractor_trianglediamonds.svg	stimuli_target_diamondcircles.svg	12	yes	44	1	936
6.6.1	win	2022-12-16	12:01:56	12:11:55	597051	62f7899403f442ec3cbb6bae	932068043	1	practice_z	9	advance_on_keypress_ZEE	10	stimuli_distractor_trianglediamonds.svg	stimuli_target_diamondcircles.svg	12	yes	57	0	535
6.6.1	win	2022-12-16	12:01:56	12:11:58	600003	62f7899403f442ec3cbb6bae	932068043	1	practice_z	9	practice_z	11	stimuli_distractor_trianglediamonds.svg	stimuli_target_circlediamonds.svg	10	yes	44	1	769
6.6.1	win	2022-12-16	12:01:56	12:11:58	600003	62f7899403f442ec3cbb6bae	932068043	1	practice_z	9	advance_on_keypress_ZEE	12	stimuli_distractor_trianglediamonds.svg	stimuli_target_circlediamonds.svg	10	yes	57	0	446
6.6.1	win	2022-12-16	12:01:56	12:12:02	604087	62f7899403f442ec3cbb6bae	932068043	1	practice_z	9	practice_z	13	stimuli_distractor_diamondtriangles.svg	stimuli_distractor_diamondtriangles.svg	13	no	0	1	2000
6.6.1	win	2022-12-16	12:01:56	12:12:02	604087	62f7899403f442ec3cbb6bae	932068043	1	practice_z	9	advance_on_keypress_ZEE	14	stimuli_distractor_diamondtriangles.svg	stimuli_distractor_diamondtriangles.svg	13	no	57	0	432
6.6.1	win	2022-12-16	12:01:56	12:12:05	606939	62f7899403f442ec3cbb6bae	932068043	1	practice_z	9	practice_z	15	stimuli_distractor_diamondtriangles.svg	stimuli_target_trianglecircles.svg	9	yes	44	1	781
6.6.1	win	2022-12-16	12:01:56	12:12:05	606939	62f7899403f442ec3cbb6bae	932068043	1	practice_z	9	advance_on_keypress_ZEE	16	stimuli_distractor_diamondtriangles.svg	stimuli_target_trianglecircles.svg	9	yes	57	0	579
6.6.1	win	2022-12-16	12:01:56	12:12:08	610235	62f7899403f442ec3cbb6bae	932068043	1	practice_z	9	practice_z	17	stimuli_target_diamondsquares.svg	stimuli_distractor_trianglediamonds.svg	6	yes	44	1	1090
6.6.1	win	2022-12-16	12:01:56	12:12:08	610235	62f7899403f442ec3cbb6bae	932068043	1	practice_z	9	advance_on_keypress_ZEE	18	stimuli_target_diamondsquares.svg	stimuli_distractor_trianglediamonds.svg	6	yes	57	0	548
6.6.1	win	2022-12-16	12:01:56	12:12:11	613115	62f7899403f442ec3cbb6bae	932068043	1	practice_z	9	practice_z	19	stimuli_distractor_trianglediamonds.svg	stimuli_target_squarediamonds.svg	11	yes	44	1	700
6.6.1	win	2022-12-16	12:01:56	12:12:11	613115	62f7899403f442ec3cbb6bae	932068043	1	practice_z	9	advance_on_keypress_ZEE	20	stimuli_distractor_trianglediamonds.svg	stimuli_target_squarediamonds.svg	11	yes	57	0	669
6.6.1	win	2022-12-16	12:01:56	12:12:14	616523	62f7899403f442ec3cbb6bae	932068043	1	practice_z	9	practice_z	21	stimuli_distractor_diamondtriangles.svg	stimuli_distractor_trianglediamonds.svg	14	no	44	0	1089
6.6.1	win	2022-12-16	12:01:56	12:12:14	616523	62f7899403f442ec3cbb6bae	932068043	1	practice_z	9	advance_on_keypress_ZEE	22	stimuli_distractor_diamondtriangles.svg	stimuli_distractor_trianglediamonds.svg	14	no	57	0	554
6.6.1	win	2022-12-16	12:01:56	12:12:17	619411	62f7899403f442ec3cbb6bae	932068043	1	practice_z	9	practice_z	23	stimuli_target_squarediamonds.svg	stimuli_distractor_trianglediamonds.svg	5	yes	44	1	690
6.6.1	win	2022-12-16	12:01:56	12:12:17	619411	62f7899403f442ec3cbb6bae	932068043	1	practice_z	9	advance_on_keypress_ZEE	24	stimuli_target_squarediamonds.svg	stimuli_distractor_trianglediamonds.svg	5	yes	57	0	636
6.6.1	win	2022-12-16	12:01:56	12:12:20	622251	62f7899403f442ec3cbb6bae	932068043	1	practice_z	9	practice_z	25	stimuli_target_circlediamonds.svg	stimuli_distractor_trianglediamonds.svg	4	yes	44	1	561
6.6.1	win	2022-12-16	12:01:56	12:12:20	622251	62f7899403f442ec3cbb6bae	932068043	1	practice_z	9	advance_on_keypress_ZEE	26	stimuli_target_circlediamonds.svg	stimuli_distractor_trianglediamonds.svg	4	yes	57	0	448
6.6.1	win	2022-12-16	12:01:56	12:12:24	626342	62f7899403f442ec3cbb6bae	932068043	1	practice_z	9	practice_z	27	stimuli_distractor_trianglediamonds.svg	stimuli_distractor_trianglediamonds.svg	15	no	0	1	2000
6.6.1	win	2022-12-16	12:01:56	12:12:24	626342	62f7899403f442ec3cbb6bae	932068043	1	practice_z	9	advance_on_keypress_ZEE	28	stimuli_distractor_trianglediamonds.svg	stimuli_distractor_trianglediamonds.svg	15	no	57	0	504
6.6.1	win	2022-12-16	12:01:56	12:12:27	629083	62f7899403f442ec3cbb6bae	932068043	1	practice_z	9	practice_z	29	stimuli_distractor_diamondtriangles.svg	stimuli_target_diamondcircles.svg	8	yes	44	1	603
6.6.1	win	2022-12-16	12:01:56	12:12:27	629083	62f7899403f442ec3cbb6bae	932068043	1	practice_z	9	advance_on_keypress_ZEE	30	stimuli_distractor_diamondtriangles.svg	stimuli_target_diamondcircles.svg	8	yes	57	0	520
6.6.1	win	2022-12-16	12:01:56	12:12:30	631995	62f7899403f442ec3cbb6bae	932068043	1	practice_z	9	practice_z	31	stimuli_target_diamondsquares.svg	stimuli_distractor_diamondtriangles.svg	3	yes	44	1	745
6.6.1	win	2022-12-16	12:01:56	12:12:30	631995	62f7899403f442ec3cbb6bae	932068043	1	practice_z	9	advance_on_keypress_ZEE	32	stimuli_target_diamondsquares.svg	stimuli_distractor_diamondtriangles.svg	3	yes	57	0	513
6.6.1	win	2022-12-16	12:01:56	12:12:34	636818	62f7899403f442ec3cbb6bae	932068043	1	main_z	11	main_z	1	stimuli_target_trianglecircles.svg	stimuli_distractor_trianglediamonds.svg	17	yes	44	1	547
6.6.1	win	2022-12-16	12:01:56	12:12:34	636818	62f7899403f442ec3cbb6bae	932068043	1	main_z	11	advance_on_keypress_ZEE	2	stimuli_target_trianglecircles.svg	stimuli_distractor_trianglediamonds.svg	17	yes	57	0	908
6.6.1	win	2022-12-16	12:01:56	12:12:38	640357	62f7899403f442ec3cbb6bae	932068043	1	main_z	11	main_z	3	stimuli_distractor_diamondtriangles.svg	stimuli_target_squaretriangles.svg	15	yes	0	0	2000
6.6.1	win	2022-12-16	12:01:56	12:12:38	640357	62f7899403f442ec3cbb6bae	932068043	1	main_z	11	advance_on_keypress_ZEE	4	stimuli_distractor_diamondtriangles.svg	stimuli_target_squaretriangles.svg	15	yes	57	0	571
6.6.1	win	2022-12-16	12:01:56	12:12:41	643560	62f7899403f442ec3cbb6bae	932068043	1	main_z	11	main_z	5	stimuli_distractor_diamondtriangles.svg	stimuli_distractor_trianglediamonds.svg	37	no	0	1	2000
6.6.1	win	2022-12-16	12:01:56	12:12:41	643560	62f7899403f442ec3cbb6bae	932068043	1	main_z	11	advance_on_keypress_ZEE	6	stimuli_distractor_diamondtriangles.svg	stimuli_distractor_trianglediamonds.svg	37	no	57	0	1224
6.6.1	win	2022-12-16	12:01:56	12:12:44	646050	62f7899403f442ec3cbb6bae	932068043	1	main_z	11	main_z	7	stimuli_target_squarediamonds.svg	stimuli_distractor_diamondtriangles.svg	8	yes	44	1	636
6.6.1	win	2022-12-16	12:01:56	12:12:44	646050	62f7899403f442ec3cbb6bae	932068043	1	main_z	11	advance_on_keypress_ZEE	8	stimuli_target_squarediamonds.svg	stimuli_distractor_diamondtriangles.svg	8	yes	57	0	809
6.6.1	win	2022-12-16	12:01:56	12:12:46	648234	62f7899403f442ec3cbb6bae	932068043	1	main_z	11	main_z	9	stimuli_distractor_diamondtriangles.svg	stimuli_target_diamondcircles.svg	31	yes	44	1	735
6.6.1	win	2022-12-16	12:01:56	12:12:46	648234	62f7899403f442ec3cbb6bae	932068043	1	main_z	11	advance_on_keypress_ZEE	10	stimuli_distractor_diamondtriangles.svg	stimuli_target_diamondcircles.svg	31	yes	57	0	712
6.6.1	win	2022-12-16	12:01:56	12:12:48	650178	62f7899403f442ec3cbb6bae	932068043	1	main_z	11	main_z	11	stimuli_target_diamondsquares.svg	stimuli_distractor_diamondtriangles.svg	24	yes	44	1	594
6.6.1	win	2022-12-16	12:01:56	12:12:48	650178	62f7899403f442ec3cbb6bae	932068043	1	main_z	11	advance_on_keypress_ZEE	12	stimuli_target_diamondsquares.svg	stimuli_distractor_diamondtriangles.svg	24	yes	57	0	584
6.6.1	win	2022-12-16	12:01:56	12:12:50	652114	62f7899403f442ec3cbb6bae	932068043	1	main_z	11	main_z	13	stimuli_distractor_diamondtriangles.svg	stimuli_target_circlediamonds.svg	14	yes	44	1	711
6.6.1	win	2022-12-16	12:01:56	12:12:50	652114	62f7899403f442ec3cbb6bae	932068043	1	main_z	11	advance_on_keypress_ZEE	14	stimuli_distractor_diamondtriangles.svg	stimuli_target_circlediamonds.svg	14	yes	57	0	409
6.6.1	win	2022-12-16	12:01:56	12:12:51	653738	62f7899403f442ec3cbb6bae	932068043	1	main_z	11	main_z	15	stimuli_distractor_trianglediamonds.svg	stimuli_target_squaretriangles.svg	11	yes	44	1	583
6.6.1	win	2022-12-16	12:01:56	12:12:51	653738	62f7899403f442ec3cbb6bae	932068043	1	main_z	11	advance_on_keypress_ZEE	16	stimuli_distractor_trianglediamonds.svg	stimuli_target_squaretriangles.svg	11	yes	57	0	582
6.6.1	win	2022-12-16	12:01:56	12:12:55	656973	62f7899403f442ec3cbb6bae	932068043	1	main_z	11	main_z	17	stimuli_distractor_diamondtriangles.svg	stimuli_distractor_diamondtriangles.svg	39	no	0	1	2000
6.6.1	win	2022-12-16	12:01:56	12:12:55	656973	62f7899403f442ec3cbb6bae	932068043	1	main_z	11	advance_on_keypress_ZEE	18	stimuli_distractor_diamondtriangles.svg	stimuli_distractor_diamondtriangles.svg	39	no	57	0	402
6.6.1	win	2022-12-16	12:01:56	12:12:56	658610	62f7899403f442ec3cbb6bae	932068043	1	main_z	11	main_z	19	stimuli_distractor_trianglediamonds.svg	stimuli_target_trianglecircles.svg	25	yes	44	1	601
6.6.1	win	2022-12-16	12:01:56	12:12:56	658610	62f7899403f442ec3cbb6bae	932068043	1	main_z	11	advance_on_keypress_ZEE	20	stimuli_distractor_trianglediamonds.svg	stimuli_target_trianglecircles.svg	25	yes	57	0	543
6.6.1	win	2022-12-16	12:01:56	12:12:58	660258	62f7899403f442ec3cbb6bae	932068043	1	main_z	11	main_z	21	stimuli_target_trianglecircles.svg	stimuli_distractor_diamondtriangles.svg	21	yes	44	1	464
6.6.1	win	2022-12-16	12:01:56	12:12:58	660258	62f7899403f442ec3cbb6bae	932068043	1	main_z	11	advance_on_keypress_ZEE	22	stimuli_target_trianglecircles.svg	stimuli_distractor_diamondtriangles.svg	21	yes	57	0	372
6.6.1	win	2022-12-16	12:01:56	12:13:00	661835	62f7899403f442ec3cbb6bae	932068043	1	main_z	11	main_z	23	stimuli_distractor_trianglediamonds.svg	stimuli_target_circlediamonds.svg	10	yes	44	1	572
6.6.1	win	2022-12-16	12:01:56	12:13:00	661835	62f7899403f442ec3cbb6bae	932068043	1	main_z	11	advance_on_keypress_ZEE	24	stimuli_distractor_trianglediamonds.svg	stimuli_target_circlediamonds.svg	10	yes	57	0	563
6.6.1	win	2022-12-16	12:01:56	12:13:01	663666	62f7899403f442ec3cbb6bae	932068043	1	main_z	11	main_z	25	stimuli_target_diamondsquares.svg	stimuli_distractor_trianglediamonds.svg	20	yes	44	1	635
6.6.1	win	2022-12-16	12:01:56	12:13:01	663666	62f7899403f442ec3cbb6bae	932068043	1	main_z	11	advance_on_keypress_ZEE	26	stimuli_target_diamondsquares.svg	stimuli_distractor_trianglediamonds.svg	20	yes	57	0	448
6.6.1	win	2022-12-16	12:01:56	12:13:03	665202	62f7899403f442ec3cbb6bae	932068043	1	main_z	11	main_z	27	stimuli_target_circlediamonds.svg	stimuli_distractor_diamondtriangles.svg	6	yes	44	1	453
6.6.1	win	2022-12-16	12:01:56	12:13:03	665202	62f7899403f442ec3cbb6bae	932068043	1	main_z	11	advance_on_keypress_ZEE	28	stimuli_target_circlediamonds.svg	stimuli_distractor_diamondtriangles.svg	6	yes	57	0	441
6.6.1	win	2022-12-16	12:01:56	12:13:06	668284	62f7899403f442ec3cbb6bae	932068043	1	main_z	11	main_z	29	stimuli_distractor_trianglediamonds.svg	stimuli_distractor_diamondtriangles.svg	35	no	0	1	2000
6.6.1	win	2022-12-16	12:01:56	12:13:06	668284	62f7899403f442ec3cbb6bae	932068043	1	main_z	11	advance_on_keypress_ZEE	30	stimuli_distractor_trianglediamonds.svg	stimuli_distractor_diamondtriangles.svg	35	no	57	0	435
6.6.1	win	2022-12-16	12:01:56	12:13:08	669898	62f7899403f442ec3cbb6bae	932068043	1	main_z	11	main_z	31	stimuli_target_trianglesquares.svg	stimuli_distractor_diamondtriangles.svg	22	yes	44	1	544
6.6.1	win	2022-12-16	12:01:56	12:13:08	669898	62f7899403f442ec3cbb6bae	932068043	1	main_z	11	advance_on_keypress_ZEE	32	stimuli_target_trianglesquares.svg	stimuli_distractor_diamondtriangles.svg	22	yes	57	0	577
6.6.1	win	2022-12-16	12:01:56	12:13:09	671690	62f7899403f442ec3cbb6bae	932068043	1	main_z	11	main_z	33	stimuli_distractor_trianglediamonds.svg	stimuli_target_diamondcircles.svg	27	yes	44	1	584
6.6.1	win	2022-12-16	12:01:56	12:13:09	671690	62f7899403f442ec3cbb6bae	932068043	1	main_z	11	advance_on_keypress_ZEE	34	stimuli_distractor_trianglediamonds.svg	stimuli_target_diamondcircles.svg	27	yes	57	0	415
6.6.1	win	2022-12-16	12:01:56	12:13:11	673362	62f7899403f442ec3cbb6bae	932068043	1	main_z	11	main_z	35	stimuli_target_trianglesquares.svg	stimuli_distractor_trianglediamonds.svg	18	yes	44	1	605
6.6.1	win	2022-12-16	12:01:56	12:13:11	673362	62f7899403f442ec3cbb6bae	932068043	1	main_z	11	advance_on_keypress_ZEE	36	stimuli_target_trianglesquares.svg	stimuli_distractor_trianglediamonds.svg	18	yes	57	0	427
6.6.1	win	2022-12-16	12:01:56	12:13:13	674898	62f7899403f442ec3cbb6bae	932068043	1	main_z	11	main_z	37	stimuli_distractor_trianglediamonds.svg	stimuli_target_squarediamonds.svg	12	yes	44	1	473
6.6.1	win	2022-12-16	12:01:56	12:13:13	674898	62f7899403f442ec3cbb6bae	932068043	1	main_z	11	advance_on_keypress_ZEE	38	stimuli_distractor_trianglediamonds.svg	stimuli_target_squarediamonds.svg	12	yes	57	0	516
6.6.1	win	2022-12-16	12:01:56	12:13:14	676602	62f7899403f442ec3cbb6bae	932068043	1	main_z	11	main_z	39	stimuli_distractor_diamondtriangles.svg	stimuli_target_squarediamonds.svg	16	yes	44	1	542
6.6.1	win	2022-12-16	12:01:56	12:13:14	676602	62f7899403f442ec3cbb6bae	932068043	1	main_z	11	advance_on_keypress_ZEE	40	stimuli_distractor_diamondtriangles.svg	stimuli_target_squarediamonds.svg	16	yes	57	0	470
6.6.1	win	2022-12-16	12:01:56	12:13:17	679712	62f7899403f442ec3cbb6bae	932068043	1	main_z	11	main_z	41	stimuli_distractor_diamondtriangles.svg	stimuli_distractor_trianglediamonds.svg	38	no	0	1	2000
6.6.1	win	2022-12-16	12:01:56	12:13:17	679712	62f7899403f442ec3cbb6bae	932068043	1	main_z	11	advance_on_keypress_ZEE	42	stimuli_distractor_diamondtriangles.svg	stimuli_distractor_trianglediamonds.svg	38	no	57	0	535
6.6.1	win	2022-12-16	12:01:56	12:13:19	681490	62f7899403f442ec3cbb6bae	932068043	1	main_z	11	main_z	43	stimuli_target_circletriangles.svg	stimuli_distractor_trianglediamonds.svg	1	yes	44	1	608
6.6.1	win	2022-12-16	12:01:56	12:13:19	681490	62f7899403f442ec3cbb6bae	932068043	1	main_z	11	advance_on_keypress_ZEE	44	stimuli_target_circletriangles.svg	stimuli_distractor_trianglediamonds.svg	1	yes	57	0	462
6.6.1	win	2022-12-16	12:01:56	12:13:21	683266	62f7899403f442ec3cbb6bae	932068043	1	main_z	11	main_z	45	stimuli_target_squarediamonds.svg	stimuli_distractor_trianglediamonds.svg	4	yes	44	1	683
6.6.1	win	2022-12-16	12:01:56	12:13:21	683266	62f7899403f442ec3cbb6bae	932068043	1	main_z	11	advance_on_keypress_ZEE	46	stimuli_target_squarediamonds.svg	stimuli_distractor_trianglediamonds.svg	4	yes	57	0	485
6.6.1	win	2022-12-16	12:01:56	12:13:23	684898	62f7899403f442ec3cbb6bae	932068043	1	main_z	11	main_z	47	stimuli_target_circletriangles.svg	stimuli_distractor_diamondtriangles.svg	5	yes	44	1	496
6.6.1	win	2022-12-16	12:01:56	12:13:23	684898	62f7899403f442ec3cbb6bae	932068043	1	main_z	11	advance_on_keypress_ZEE	48	stimuli_target_circletriangles.svg	stimuli_distractor_diamondtriangles.svg	5	yes	57	0	395
6.6.1	win	2022-12-16	12:01:56	12:13:26	687920	62f7899403f442ec3cbb6bae	932068043	1	main_z	11	main_z	49	stimuli_distractor_trianglediamonds.svg	stimuli_distractor_diamondtriangles.svg	36	no	0	1	2000
6.6.1	win	2022-12-16	12:01:56	12:13:26	687920	62f7899403f442ec3cbb6bae	932068043	1	main_z	11	advance_on_keypress_ZEE	50	stimuli_distractor_trianglediamonds.svg	stimuli_distractor_diamondtriangles.svg	36	no	57	0	423
6.6.1	win	2022-12-16	12:01:56	12:13:27	689570	62f7899403f442ec3cbb6bae	932068043	1	main_z	11	main_z	51	stimuli_distractor_diamondtriangles.svg	stimuli_target_trianglesquares.svg	30	yes	44	1	597
6.6.1	win	2022-12-16	12:01:56	12:13:27	689570	62f7899403f442ec3cbb6bae	932068043	1	main_z	11	advance_on_keypress_ZEE	52	stimuli_distractor_diamondtriangles.svg	stimuli_target_trianglesquares.svg	30	yes	57	0	548
6.6.1	win	2022-12-16	12:01:56	12:13:29	691210	62f7899403f442ec3cbb6bae	932068043	1	main_z	11	main_z	53	stimuli_distractor_trianglediamonds.svg	stimuli_target_diamondsquares.svg	28	yes	44	1	469
6.6.1	win	2022-12-16	12:01:56	12:13:29	691210	62f7899403f442ec3cbb6bae	932068043	1	main_z	11	advance_on_keypress_ZEE	54	stimuli_distractor_trianglediamonds.svg	stimuli_target_diamondsquares.svg	28	yes	57	0	528
6.6.1	win	2022-12-16	12:01:56	12:13:32	694377	62f7899403f442ec3cbb6bae	932068043	1	main_z	11	main_z	55	stimuli_distractor_trianglediamonds.svg	stimuli_distractor_trianglediamonds.svg	33	no	0	1	2000
6.6.1	win	2022-12-16	12:01:56	12:13:32	694377	62f7899403f442ec3cbb6bae	932068043	1	main_z	11	advance_on_keypress_ZEE	56	stimuli_distractor_trianglediamonds.svg	stimuli_distractor_trianglediamonds.svg	33	no	57	0	495
6.6.1	win	2022-12-16	12:01:56	12:13:34	696082	62f7899403f442ec3cbb6bae	932068043	1	main_z	11	main_z	57	stimuli_target_circlediamonds.svg	stimuli_distractor_trianglediamonds.svg	2	yes	44	1	586
6.6.1	win	2022-12-16	12:01:56	12:13:34	696082	62f7899403f442ec3cbb6bae	932068043	1	main_z	11	advance_on_keypress_ZEE	58	stimuli_target_circlediamonds.svg	stimuli_distractor_trianglediamonds.svg	2	yes	57	0	497
6.6.1	win	2022-12-16	12:01:56	12:13:36	697842	62f7899403f442ec3cbb6bae	932068043	1	main_z	11	main_z	59	stimuli_distractor_diamondtriangles.svg	stimuli_target_diamondsquares.svg	32	yes	44	1	627
6.6.1	win	2022-12-16	12:01:56	12:13:36	697842	62f7899403f442ec3cbb6bae	932068043	1	main_z	11	advance_on_keypress_ZEE	60	stimuli_distractor_diamondtriangles.svg	stimuli_target_diamondsquares.svg	32	yes	57	0	633
6.6.1	win	2022-12-16	12:01:56	12:13:39	701116	62f7899403f442ec3cbb6bae	932068043	1	main_z	11	main_z	61	stimuli_distractor_trianglediamonds.svg	stimuli_distractor_trianglediamonds.svg	34	no	0	1	2000
6.6.1	win	2022-12-16	12:01:56	12:13:39	701116	62f7899403f442ec3cbb6bae	932068043	1	main_z	11	advance_on_keypress_ZEE	62	stimuli_distractor_trianglediamonds.svg	stimuli_distractor_trianglediamonds.svg	34	no	57	0	371
6.6.1	win	2022-12-16	12:01:56	12:13:40	702802	62f7899403f442ec3cbb6bae	932068043	1	main_z	11	main_z	63	stimuli_distractor_diamondtriangles.svg	stimuli_target_circletriangles.svg	13	yes	44	1	683
6.6.1	win	2022-12-16	12:01:56	12:13:40	702802	62f7899403f442ec3cbb6bae	932068043	1	main_z	11	advance_on_keypress_ZEE	64	stimuli_distractor_diamondtriangles.svg	stimuli_target_circletriangles.svg	13	yes	57	0	565
6.6.1	win	2022-12-16	12:01:56	12:13:42	704634	62f7899403f442ec3cbb6bae	932068043	1	main_z	11	main_z	65	stimuli_target_squaretriangles.svg	stimuli_distractor_diamondtriangles.svg	7	yes	44	1	613
6.6.1	win	2022-12-16	12:01:56	12:13:42	704634	62f7899403f442ec3cbb6bae	932068043	1	main_z	11	advance_on_keypress_ZEE	66	stimuli_target_squaretriangles.svg	stimuli_distractor_diamondtriangles.svg	7	yes	57	0	435
6.6.1	win	2022-12-16	12:01:56	12:13:44	706450	62f7899403f442ec3cbb6bae	932068043	1	main_z	11	main_z	67	stimuli_distractor_trianglediamonds.svg	stimuli_target_trianglesquares.svg	26	yes	44	1	744
6.6.1	win	2022-12-16	12:01:56	12:13:44	706450	62f7899403f442ec3cbb6bae	932068043	1	main_z	11	advance_on_keypress_ZEE	68	stimuli_distractor_trianglediamonds.svg	stimuli_target_trianglesquares.svg	26	yes	57	0	769
6.6.1	win	2022-12-16	12:01:56	12:13:46	708746	62f7899403f442ec3cbb6bae	932068043	1	main_z	11	main_z	69	stimuli_target_squaretriangles.svg	stimuli_distractor_trianglediamonds.svg	3	yes	44	1	888
6.6.1	win	2022-12-16	12:01:56	12:13:46	708746	62f7899403f442ec3cbb6bae	932068043	1	main_z	11	advance_on_keypress_ZEE	70	stimuli_target_squaretriangles.svg	stimuli_distractor_trianglediamonds.svg	3	yes	57	0	522
6.6.1	win	2022-12-16	12:01:56	12:13:48	710602	62f7899403f442ec3cbb6bae	932068043	1	main_z	11	main_z	71	stimuli_target_diamondcircles.svg	stimuli_distractor_trianglediamonds.svg	19	yes	44	1	692
6.6.1	win	2022-12-16	12:01:56	12:13:48	710602	62f7899403f442ec3cbb6bae	932068043	1	main_z	11	advance_on_keypress_ZEE	72	stimuli_target_diamondcircles.svg	stimuli_distractor_trianglediamonds.svg	19	yes	57	0	662
6.6.1	win	2022-12-16	12:01:56	12:13:52	713896	62f7899403f442ec3cbb6bae	932068043	1	main_z	11	main_z	73	stimuli_distractor_diamondtriangles.svg	stimuli_distractor_diamondtriangles.svg	40	no	0	1	2000
6.6.1	win	2022-12-16	12:01:56	12:13:52	713896	62f7899403f442ec3cbb6bae	932068043	1	main_z	11	advance_on_keypress_ZEE	74	stimuli_distractor_diamondtriangles.svg	stimuli_distractor_diamondtriangles.svg	40	no	57	0	504
6.6.1	win	2022-12-16	12:01:56	12:13:53	715522	62f7899403f442ec3cbb6bae	932068043	1	main_z	11	main_z	75	stimuli_target_diamondcircles.svg	stimuli_distractor_diamondtriangles.svg	23	yes	44	1	490
6.6.1	win	2022-12-16	12:01:56	12:13:53	715522	62f7899403f442ec3cbb6bae	932068043	1	main_z	11	advance_on_keypress_ZEE	76	stimuli_target_diamondcircles.svg	stimuli_distractor_diamondtriangles.svg	23	yes	57	0	397
6.6.1	win	2022-12-16	12:01:56	12:13:55	717090	62f7899403f442ec3cbb6bae	932068043	1	main_z	11	main_z	77	stimuli_distractor_diamondtriangles.svg	stimuli_target_trianglecircles.svg	29	yes	44	1	540
6.6.1	win	2022-12-16	12:01:56	12:13:55	717090	62f7899403f442ec3cbb6bae	932068043	1	main_z	11	advance_on_keypress_ZEE	78	stimuli_distractor_diamondtriangles.svg	stimuli_target_trianglecircles.svg	29	yes	57	0	717
6.6.1	win	2022-12-16	12:01:56	12:13:57	719210	62f7899403f442ec3cbb6bae	932068043	1	main_z	11	main_z	79	stimuli_distractor_trianglediamonds.svg	stimuli_target_circletriangles.svg	9	yes	44	1	758
6.6.1	win	2022-12-16	12:01:56	12:13:57	719210	62f7899403f442ec3cbb6bae	932068043	1	main_z	11	advance_on_keypress_ZEE	80	stimuli_distractor_trianglediamonds.svg	stimuli_target_circletriangles.svg	9	yes	57	0	574
6.6.1	win	2022-12-16	12:01:56	12:14:00	722421	62f7899403f442ec3cbb6bae	932068043	1	main_z	11	main_z	81	stimuli_distractor_trianglediamonds.svg	stimuli_distractor_trianglediamonds.svg	34	no	0	1	2000
6.6.1	win	2022-12-16	12:01:56	12:14:00	722421	62f7899403f442ec3cbb6bae	932068043	1	main_z	11	advance_on_keypress_ZEE	82	stimuli_distractor_trianglediamonds.svg	stimuli_distractor_trianglediamonds.svg	34	no	57	0	835
6.6.1	win	2022-12-16	12:01:56	12:14:04	725891	62f7899403f442ec3cbb6bae	932068043	1	main_z	11	main_z	83	stimuli_distractor_trianglediamonds.svg	stimuli_distractor_trianglediamonds.svg	33	no	0	1	2000
6.6.1	win	2022-12-16	12:01:56	12:14:04	725891	62f7899403f442ec3cbb6bae	932068043	1	main_z	11	advance_on_keypress_ZEE	84	stimuli_distractor_trianglediamonds.svg	stimuli_distractor_trianglediamonds.svg	33	no	57	0	445
6.6.1	win	2022-12-16	12:01:56	12:14:05	727674	62f7899403f442ec3cbb6bae	932068043	1	main_z	11	main_z	85	stimuli_distractor_diamondtriangles.svg	stimuli_target_squarediamonds.svg	16	yes	44	1	714
6.6.1	win	2022-12-16	12:01:56	12:14:05	727674	62f7899403f442ec3cbb6bae	932068043	1	main_z	11	advance_on_keypress_ZEE	86	stimuli_distractor_diamondtriangles.svg	stimuli_target_squarediamonds.svg	16	yes	57	0	1412
6.6.1	win	2022-12-16	12:01:56	12:14:08	730418	62f7899403f442ec3cbb6bae	932068043	1	main_z	11	main_z	87	stimuli_target_squaretriangles.svg	stimuli_distractor_diamondtriangles.svg	7	yes	44	1	705
6.6.1	win	2022-12-16	12:01:56	12:14:08	730418	62f7899403f442ec3cbb6bae	932068043	1	main_z	11	advance_on_keypress_ZEE	88	stimuli_target_squaretriangles.svg	stimuli_distractor_diamondtriangles.svg	7	yes	57	0	403
6.6.1	win	2022-12-16	12:01:56	12:14:10	732002	62f7899403f442ec3cbb6bae	932068043	1	main_z	11	main_z	89	stimuli_target_squarediamonds.svg	stimuli_distractor_diamondtriangles.svg	8	yes	44	1	537
6.6.1	win	2022-12-16	12:01:56	12:14:10	732002	62f7899403f442ec3cbb6bae	932068043	1	main_z	11	advance_on_keypress_ZEE	90	stimuli_target_squarediamonds.svg	stimuli_distractor_diamondtriangles.svg	8	yes	57	0	522
6.6.1	win	2022-12-16	12:01:56	12:14:12	733858	62f7899403f442ec3cbb6bae	932068043	1	main_z	11	main_z	91	stimuli_target_diamondsquares.svg	stimuli_distractor_trianglediamonds.svg	20	yes	44	1	692
6.6.1	win	2022-12-16	12:01:56	12:14:12	733858	62f7899403f442ec3cbb6bae	932068043	1	main_z	11	advance_on_keypress_ZEE	92	stimuli_target_diamondsquares.svg	stimuli_distractor_trianglediamonds.svg	20	yes	57	0	454
6.6.1	win	2022-12-16	12:01:56	12:14:13	735538	62f7899403f442ec3cbb6bae	932068043	1	main_z	11	main_z	93	stimuli_target_circletriangles.svg	stimuli_distractor_trianglediamonds.svg	1	yes	44	1	586
6.6.1	win	2022-12-16	12:01:56	12:14:13	735538	62f7899403f442ec3cbb6bae	932068043	1	main_z	11	advance_on_keypress_ZEE	94	stimuli_target_circletriangles.svg	stimuli_distractor_trianglediamonds.svg	1	yes	57	0	369
6.6.1	win	2022-12-16	12:01:56	12:14:15	737186	62f7899403f442ec3cbb6bae	932068043	1	main_z	11	main_z	95	stimuli_distractor_trianglediamonds.svg	stimuli_target_trianglesquares.svg	26	yes	44	1	633
6.6.1	win	2022-12-16	12:01:56	12:14:15	737186	62f7899403f442ec3cbb6bae	932068043	1	main_z	11	advance_on_keypress_ZEE	96	stimuli_distractor_trianglediamonds.svg	stimuli_target_trianglesquares.svg	26	yes	57	0	478
6.6.1	win	2022-12-16	12:01:56	12:14:18	740305	62f7899403f442ec3cbb6bae	932068043	1	main_z	11	main_z	97	stimuli_distractor_diamondtriangles.svg	stimuli_distractor_trianglediamonds.svg	38	no	0	1	2000
6.6.1	win	2022-12-16	12:01:56	12:14:18	740305	62f7899403f442ec3cbb6bae	932068043	1	main_z	11	advance_on_keypress_ZEE	98	stimuli_distractor_diamondtriangles.svg	stimuli_distractor_trianglediamonds.svg	38	no	57	0	519
6.6.1	win	2022-12-16	12:01:56	12:14:20	742026	62f7899403f442ec3cbb6bae	932068043	1	main_z	11	main_z	99	stimuli_distractor_diamondtriangles.svg	stimuli_target_circlediamonds.svg	14	yes	44	1	568
6.6.1	win	2022-12-16	12:01:56	12:14:20	742026	62f7899403f442ec3cbb6bae	932068043	1	main_z	11	advance_on_keypress_ZEE	100	stimuli_distractor_diamondtriangles.svg	stimuli_target_circlediamonds.svg	14	yes	57	0	488
6.6.1	win	2022-12-16	12:01:56	12:14:23	745160	62f7899403f442ec3cbb6bae	932068043	1	main_z	11	main_z	101	stimuli_distractor_diamondtriangles.svg	stimuli_distractor_trianglediamonds.svg	37	no	0	1	2000
6.6.1	win	2022-12-16	12:01:56	12:14:23	745160	62f7899403f442ec3cbb6bae	932068043	1	main_z	11	advance_on_keypress_ZEE	102	stimuli_distractor_diamondtriangles.svg	stimuli_distractor_trianglediamonds.svg	37	no	57	0	408
6.6.1	win	2022-12-16	12:01:56	12:14:24	746802	62f7899403f442ec3cbb6bae	932068043	1	main_z	11	main_z	103	stimuli_distractor_trianglediamonds.svg	stimuli_target_squarediamonds.svg	12	yes	44	1	606
6.6.1	win	2022-12-16	12:01:56	12:14:24	746802	62f7899403f442ec3cbb6bae	932068043	1	main_z	11	advance_on_keypress_ZEE	104	stimuli_distractor_trianglediamonds.svg	stimuli_target_squarediamonds.svg	12	yes	57	0	532
6.6.1	win	2022-12-16	12:01:56	12:14:26	748586	62f7899403f442ec3cbb6bae	932068043	1	main_z	11	main_z	105	stimuli_distractor_trianglediamonds.svg	stimuli_target_trianglecircles.svg	25	yes	44	1	606
6.6.1	win	2022-12-16	12:01:56	12:14:26	748586	62f7899403f442ec3cbb6bae	932068043	1	main_z	11	advance_on_keypress_ZEE	106	stimuli_distractor_trianglediamonds.svg	stimuli_target_trianglecircles.svg	25	yes	57	0	587
6.6.1	win	2022-12-16	12:01:56	12:14:28	750706	62f7899403f442ec3cbb6bae	932068043	1	main_z	11	main_z	107	stimuli_distractor_trianglediamonds.svg	stimuli_target_diamondsquares.svg	28	yes	44	1	890
6.6.1	win	2022-12-16	12:01:56	12:14:28	750706	62f7899403f442ec3cbb6bae	932068043	1	main_z	11	advance_on_keypress_ZEE	108	stimuli_distractor_trianglediamonds.svg	stimuli_target_diamondsquares.svg	28	yes	57	0	540
6.6.1	win	2022-12-16	12:01:56	12:14:32	753885	62f7899403f442ec3cbb6bae	932068043	1	main_z	11	main_z	109	stimuli_distractor_trianglediamonds.svg	stimuli_distractor_diamondtriangles.svg	36	no	0	1	2000
6.6.1	win	2022-12-16	12:01:56	12:14:32	753885	62f7899403f442ec3cbb6bae	932068043	1	main_z	11	advance_on_keypress_ZEE	110	stimuli_distractor_trianglediamonds.svg	stimuli_distractor_diamondtriangles.svg	36	no	57	0	523
6.6.1	win	2022-12-16	12:01:56	12:14:33	755658	62f7899403f442ec3cbb6bae	932068043	1	main_z	11	main_z	111	stimuli_target_trianglesquares.svg	stimuli_distractor_trianglediamonds.svg	18	yes	44	1	620
6.6.1	win	2022-12-16	12:01:56	12:14:33	755658	62f7899403f442ec3cbb6bae	932068043	1	main_z	11	advance_on_keypress_ZEE	112	stimuli_target_trianglesquares.svg	stimuli_distractor_trianglediamonds.svg	18	yes	57	0	618
6.6.1	win	2022-12-16	12:01:56	12:14:35	757522	62f7899403f442ec3cbb6bae	932068043	1	main_z	11	main_z	113	stimuli_target_diamondcircles.svg	stimuli_distractor_trianglediamonds.svg	19	yes	44	1	599
6.6.1	win	2022-12-16	12:01:56	12:14:35	757522	62f7899403f442ec3cbb6bae	932068043	1	main_z	11	advance_on_keypress_ZEE	114	stimuli_target_diamondcircles.svg	stimuli_distractor_trianglediamonds.svg	19	yes	57	0	646
6.6.1	win	2022-12-16	12:01:56	12:14:37	759506	62f7899403f442ec3cbb6bae	932068043	1	main_z	11	main_z	115	stimuli_distractor_trianglediamonds.svg	stimuli_target_diamondcircles.svg	27	yes	44	1	714
6.6.1	win	2022-12-16	12:01:56	12:14:37	759506	62f7899403f442ec3cbb6bae	932068043	1	main_z	11	advance_on_keypress_ZEE	116	stimuli_distractor_trianglediamonds.svg	stimuli_target_diamondcircles.svg	27	yes	57	0	660
6.6.1	win	2022-12-16	12:01:56	12:14:39	761378	62f7899403f442ec3cbb6bae	932068043	1	main_z	11	main_z	117	stimuli_distractor_trianglediamonds.svg	stimuli_target_circlediamonds.svg	10	yes	44	1	584
6.6.1	win	2022-12-16	12:01:56	12:14:39	761378	62f7899403f442ec3cbb6bae	932068043	1	main_z	11	advance_on_keypress_ZEE	118	stimuli_distractor_trianglediamonds.svg	stimuli_target_circlediamonds.svg	10	yes	57	0	495
6.6.1	win	2022-12-16	12:01:56	12:14:41	763082	62f7899403f442ec3cbb6bae	932068043	1	main_z	11	main_z	119	stimuli_distractor_diamondtriangles.svg	stimuli_target_diamondsquares.svg	32	yes	44	1	570
6.6.1	win	2022-12-16	12:01:56	12:14:41	763082	62f7899403f442ec3cbb6bae	932068043	1	main_z	11	advance_on_keypress_ZEE	120	stimuli_distractor_diamondtriangles.svg	stimuli_target_diamondsquares.svg	32	yes	57	0	458
6.6.1	win	2022-12-16	12:01:56	12:14:42	764666	62f7899403f442ec3cbb6bae	932068043	1	main_z	11	main_z	121	stimuli_distractor_diamondtriangles.svg	stimuli_target_trianglecircles.svg	29	yes	44	1	486
6.6.1	win	2022-12-16	12:01:56	12:14:42	764666	62f7899403f442ec3cbb6bae	932068043	1	main_z	11	advance_on_keypress_ZEE	122	stimuli_distractor_diamondtriangles.svg	stimuli_target_trianglecircles.svg	29	yes	57	0	489
6.6.1	win	2022-12-16	12:01:56	12:14:44	766466	62f7899403f442ec3cbb6bae	932068043	1	main_z	11	main_z	123	stimuli_distractor_trianglediamonds.svg	stimuli_target_circletriangles.svg	9	yes	44	1	667
6.6.1	win	2022-12-16	12:01:56	12:14:44	766466	62f7899403f442ec3cbb6bae	932068043	1	main_z	11	advance_on_keypress_ZEE	124	stimuli_distractor_trianglediamonds.svg	stimuli_target_circletriangles.svg	9	yes	57	0	463
6.6.1	win	2022-12-16	12:01:56	12:14:47	769567	62f7899403f442ec3cbb6bae	932068043	1	main_z	11	main_z	125	stimuli_distractor_diamondtriangles.svg	stimuli_distractor_diamondtriangles.svg	39	no	0	1	2000
6.6.1	win	2022-12-16	12:01:56	12:14:47	769567	62f7899403f442ec3cbb6bae	932068043	1	main_z	11	advance_on_keypress_ZEE	126	stimuli_distractor_diamondtriangles.svg	stimuli_distractor_diamondtriangles.svg	39	no	57	0	577
6.6.1	win	2022-12-16	12:01:56	12:14:49	771474	62f7899403f442ec3cbb6bae	932068043	1	main_z	11	main_z	127	stimuli_distractor_diamondtriangles.svg	stimuli_target_diamondcircles.svg	31	yes	44	1	704
6.6.1	win	2022-12-16	12:01:56	12:14:49	771474	62f7899403f442ec3cbb6bae	932068043	1	main_z	11	advance_on_keypress_ZEE	128	stimuli_distractor_diamondtriangles.svg	stimuli_target_diamondcircles.svg	31	yes	57	0	618
6.6.1	win	2022-12-16	12:01:56	12:14:51	773330	62f7899403f442ec3cbb6bae	932068043	1	main_z	11	main_z	129	stimuli_target_trianglesquares.svg	stimuli_distractor_diamondtriangles.svg	22	yes	44	1	591
6.6.1	win	2022-12-16	12:01:56	12:14:51	773330	62f7899403f442ec3cbb6bae	932068043	1	main_z	11	advance_on_keypress_ZEE	130	stimuli_target_trianglesquares.svg	stimuli_distractor_diamondtriangles.svg	22	yes	57	0	566
6.6.1	win	2022-12-16	12:01:56	12:14:53	775074	62f7899403f442ec3cbb6bae	932068043	1	main_z	11	main_z	131	stimuli_distractor_diamondtriangles.svg	stimuli_target_trianglesquares.svg	30	yes	44	1	534
6.6.1	win	2022-12-16	12:01:56	12:14:53	775074	62f7899403f442ec3cbb6bae	932068043	1	main_z	11	advance_on_keypress_ZEE	132	stimuli_distractor_diamondtriangles.svg	stimuli_target_trianglesquares.svg	30	yes	57	0	366
6.6.1	win	2022-12-16	12:01:56	12:14:55	776858	62f7899403f442ec3cbb6bae	932068043	1	main_z	11	main_z	133	stimuli_distractor_diamondtriangles.svg	stimuli_target_squaretriangles.svg	15	yes	44	1	766
6.6.1	win	2022-12-16	12:01:56	12:14:55	776858	62f7899403f442ec3cbb6bae	932068043	1	main_z	11	advance_on_keypress_ZEE	134	stimuli_distractor_diamondtriangles.svg	stimuli_target_squaretriangles.svg	15	yes	57	0	437
6.6.1	win	2022-12-16	12:01:56	12:14:58	779944	62f7899403f442ec3cbb6bae	932068043	1	main_z	11	main_z	135	stimuli_distractor_trianglediamonds.svg	stimuli_target_squaretriangles.svg	11	yes	0	0	2000
6.6.1	win	2022-12-16	12:01:56	12:14:58	779944	62f7899403f442ec3cbb6bae	932068043	1	main_z	11	advance_on_keypress_ZEE	136	stimuli_distractor_trianglediamonds.svg	stimuli_target_squaretriangles.svg	11	yes	57	0	528
6.6.1	win	2022-12-16	12:01:56	12:14:59	781650	62f7899403f442ec3cbb6bae	932068043	1	main_z	11	main_z	137	stimuli_target_trianglecircles.svg	stimuli_distractor_trianglediamonds.svg	17	yes	44	1	553
6.6.1	win	2022-12-16	12:01:56	12:14:59	781650	62f7899403f442ec3cbb6bae	932068043	1	main_z	11	advance_on_keypress_ZEE	138	stimuli_target_trianglecircles.svg	stimuli_distractor_trianglediamonds.svg	17	yes	57	0	457
6.6.1	win	2022-12-16	12:01:56	12:15:01	783266	62f7899403f442ec3cbb6bae	932068043	1	main_z	11	main_z	139	stimuli_target_diamondcircles.svg	stimuli_distractor_diamondtriangles.svg	23	yes	44	1	510
6.6.1	win	2022-12-16	12:01:56	12:15:01	783266	62f7899403f442ec3cbb6bae	932068043	1	main_z	11	advance_on_keypress_ZEE	140	stimuli_target_diamondcircles.svg	stimuli_distractor_diamondtriangles.svg	23	yes	57	0	399
6.6.1	win	2022-12-16	12:01:56	12:15:03	784898	62f7899403f442ec3cbb6bae	932068043	1	main_z	11	main_z	141	stimuli_target_trianglecircles.svg	stimuli_distractor_diamondtriangles.svg	21	yes	44	1	581
6.6.1	win	2022-12-16	12:01:56	12:15:03	784898	62f7899403f442ec3cbb6bae	932068043	1	main_z	11	advance_on_keypress_ZEE	142	stimuli_target_trianglecircles.svg	stimuli_distractor_diamondtriangles.svg	21	yes	57	0	277
6.6.1	win	2022-12-16	12:01:56	12:15:05	787802	62f7899403f442ec3cbb6bae	932068043	1	main_z	11	main_z	143	stimuli_distractor_diamondtriangles.svg	stimuli_target_circletriangles.svg	13	yes	0	0	2000
6.6.1	win	2022-12-16	12:01:56	12:15:05	787802	62f7899403f442ec3cbb6bae	932068043	1	main_z	11	advance_on_keypress_ZEE	144	stimuli_distractor_diamondtriangles.svg	stimuli_target_circletriangles.svg	13	yes	57	0	574
6.6.1	win	2022-12-16	12:01:56	12:15:07	789570	62f7899403f442ec3cbb6bae	932068043	1	main_z	11	main_z	145	stimuli_target_squarediamonds.svg	stimuli_distractor_trianglediamonds.svg	4	yes	44	1	565
6.6.1	win	2022-12-16	12:01:56	12:15:07	789570	62f7899403f442ec3cbb6bae	932068043	1	main_z	11	advance_on_keypress_ZEE	146	stimuli_target_squarediamonds.svg	stimuli_distractor_trianglediamonds.svg	4	yes	57	0	422
6.6.1	win	2022-12-16	12:01:56	12:15:09	791218	62f7899403f442ec3cbb6bae	932068043	1	main_z	11	main_z	147	stimuli_target_diamondsquares.svg	stimuli_distractor_diamondtriangles.svg	24	yes	44	1	595
6.6.1	win	2022-12-16	12:01:56	12:15:09	791218	62f7899403f442ec3cbb6bae	932068043	1	main_z	11	advance_on_keypress_ZEE	148	stimuli_target_diamondsquares.svg	stimuli_distractor_diamondtriangles.svg	24	yes	57	0	370
6.6.1	win	2022-12-16	12:01:56	12:15:10	792714	62f7899403f442ec3cbb6bae	932068043	1	main_z	11	main_z	149	stimuli_target_circlediamonds.svg	stimuli_distractor_trianglediamonds.svg	2	yes	44	1	490
6.6.1	win	2022-12-16	12:01:56	12:15:10	792714	62f7899403f442ec3cbb6bae	932068043	1	main_z	11	advance_on_keypress_ZEE	150	stimuli_target_circlediamonds.svg	stimuli_distractor_trianglediamonds.svg	2	yes	57	0	308
6.6.1	win	2022-12-16	12:01:56	12:15:12	794066	62f7899403f442ec3cbb6bae	932068043	1	main_z	11	main_z	151	stimuli_distractor_trianglediamonds.svg	stimuli_distractor_diamondtriangles.svg	35	no	44	0	407
6.6.1	win	2022-12-16	12:01:56	12:15:12	794066	62f7899403f442ec3cbb6bae	932068043	1	main_z	11	advance_on_keypress_ZEE	152	stimuli_distractor_trianglediamonds.svg	stimuli_distractor_diamondtriangles.svg	35	no	57	0	853
6.6.1	win	2022-12-16	12:01:56	12:15:15	797561	62f7899403f442ec3cbb6bae	932068043	1	main_z	11	main_z	153	stimuli_distractor_diamondtriangles.svg	stimuli_distractor_diamondtriangles.svg	40	no	0	1	2000
6.6.1	win	2022-12-16	12:01:56	12:15:15	797561	62f7899403f442ec3cbb6bae	932068043	1	main_z	11	advance_on_keypress_ZEE	154	stimuli_distractor_diamondtriangles.svg	stimuli_distractor_diamondtriangles.svg	40	no	57	0	486
6.6.1	win	2022-12-16	12:01:56	12:15:17	799330	62f7899403f442ec3cbb6bae	932068043	1	main_z	11	main_z	155	stimuli_target_circletriangles.svg	stimuli_distractor_diamondtriangles.svg	5	yes	44	1	649
6.6.1	win	2022-12-16	12:01:56	12:15:17	799330	62f7899403f442ec3cbb6bae	932068043	1	main_z	11	advance_on_keypress_ZEE	156	stimuli_target_circletriangles.svg	stimuli_distractor_diamondtriangles.svg	5	yes	57	0	509
6.6.1	win	2022-12-16	12:01:56	12:15:19	801138	62f7899403f442ec3cbb6bae	932068043	1	main_z	11	main_z	157	stimuli_target_squaretriangles.svg	stimuli_distractor_trianglediamonds.svg	3	yes	44	1	655
6.6.1	win	2022-12-16	12:01:56	12:15:19	801138	62f7899403f442ec3cbb6bae	932068043	1	main_z	11	advance_on_keypress_ZEE	158	stimuli_target_squaretriangles.svg	stimuli_distractor_trianglediamonds.svg	3	yes	57	0	508
6.6.1	win	2022-12-16	12:01:56	12:15:20	802802	62f7899403f442ec3cbb6bae	932068043	1	main_z	11	main_z	159	stimuli_target_circlediamonds.svg	stimuli_distractor_diamondtriangles.svg	6	yes	44	1	518
6.6.1	win	2022-12-16	12:01:56	12:15:20	802802	62f7899403f442ec3cbb6bae	932068043	1	main_z	11	advance_on_keypress_ZEE	160	stimuli_target_circlediamonds.svg	stimuli_distractor_diamondtriangles.svg	6	yes	57	0	423