build	computer.platform	date	time	timestamp	time_elapsed_ms	subject	group	session	blockcode	blocknum	trialcode	trialnum	stimulus_left	stimulus_right	stim_index	target_present	response	correct	latency
6.6.1	win	2022-12-14	13:46:58	13:49:44	164305	5d8a29c082fec30001d9c24a	624325669	1	practice_slash	5	practice_slash	1	stimuli_distractor_trianglediamonds.svg	stimuli_target_circlediamonds.svg	10	yes	53	1	620
6.6.1	win	2022-12-14	13:46:58	13:49:44	164305	5d8a29c082fec30001d9c24a	624325669	1	practice_slash	5	advance_on_keypress_SLASH	2	stimuli_distractor_trianglediamonds.svg	stimuli_target_circlediamonds.svg	10	yes	57	0	8395
6.6.1	win	2022-12-14	13:46:58	13:49:54	174898	5d8a29c082fec30001d9c24a	624325669	1	practice_slash	5	practice_slash	3	stimuli_distractor_diamondtriangles.svg	stimuli_distractor_trianglediamonds.svg	14	no	53	0	552
6.6.1	win	2022-12-14	13:46:58	13:49:54	174898	5d8a29c082fec30001d9c24a	624325669	1	practice_slash	5	advance_on_keypress_SLASH	4	stimuli_distractor_diamondtriangles.svg	stimuli_distractor_trianglediamonds.svg	14	no	57	0	610
6.6.1	win	2022-12-14	13:46:58	13:49:57	177561	5d8a29c082fec30001d9c24a	624325669	1	practice_slash	5	practice_slash	5	stimuli_distractor_trianglediamonds.svg	stimuli_target_squarediamonds.svg	11	yes	53	1	413
6.6.1	win	2022-12-14	13:46:58	13:49:57	177561	5d8a29c082fec30001d9c24a	624325669	1	practice_slash	5	advance_on_keypress_SLASH	6	stimuli_distractor_trianglediamonds.svg	stimuli_target_squarediamonds.svg	11	yes	57	0	539
6.6.1	win	2022-12-14	13:46:58	13:50:00	180303	5d8a29c082fec30001d9c24a	624325669	1	practice_slash	5	practice_slash	7	stimuli_distractor_diamondtriangles.svg	stimuli_target_diamondcircles.svg	8	yes	53	1	530
6.6.1	win	2022-12-14	13:46:58	13:50:00	180303	5d8a29c082fec30001d9c24a	624325669	1	practice_slash	5	advance_on_keypress_SLASH	8	stimuli_distractor_diamondtriangles.svg	stimuli_target_diamondcircles.svg	8	yes	57	0	490
6.6.1	win	2022-12-14	13:46:58	13:50:03	183092	5d8a29c082fec30001d9c24a	624325669	1	practice_slash	5	practice_slash	9	stimuli_target_squarediamonds.svg	stimuli_distractor_trianglediamonds.svg	5	yes	53	1	616
6.6.1	win	2022-12-14	13:46:58	13:50:03	183092	5d8a29c082fec30001d9c24a	624325669	1	practice_slash	5	advance_on_keypress_SLASH	10	stimuli_target_squarediamonds.svg	stimuli_distractor_trianglediamonds.svg	5	yes	57	0	970
6.6.1	win	2022-12-14	13:46:58	13:50:07	187721	5d8a29c082fec30001d9c24a	624325669	1	practice_slash	5	practice_slash	11	stimuli_distractor_trianglediamonds.svg	stimuli_distractor_diamondtriangles.svg	16	no	0	1	2000
6.6.1	win	2022-12-14	13:46:58	13:50:07	187721	5d8a29c082fec30001d9c24a	624325669	1	practice_slash	5	advance_on_keypress_SLASH	12	stimuli_distractor_trianglediamonds.svg	stimuli_distractor_diamondtriangles.svg	16	no	57	0	705
6.6.1	win	2022-12-14	13:46:58	13:50:10	190857	5d8a29c082fec30001d9c24a	624325669	1	practice_slash	5	practice_slash	13	stimuli_target_squarediamonds.svg	stimuli_distractor_diamondtriangles.svg	2	yes	53	1	791
6.6.1	win	2022-12-14	13:46:58	13:50:10	190857	5d8a29c082fec30001d9c24a	624325669	1	practice_slash	5	advance_on_keypress_SLASH	14	stimuli_target_squarediamonds.svg	stimuli_distractor_diamondtriangles.svg	2	yes	57	0	508
6.6.1	win	2022-12-14	13:46:58	13:50:14	194063	5d8a29c082fec30001d9c24a	624325669	1	practice_slash	5	practice_slash	15	stimuli_distractor_trianglediamonds.svg	stimuli_target_diamondcircles.svg	12	yes	53	1	1066
6.6.1	win	2022-12-14	13:46:58	13:50:14	194063	5d8a29c082fec30001d9c24a	624325669	1	practice_slash	5	advance_on_keypress_SLASH	16	stimuli_distractor_trianglediamonds.svg	stimuli_target_diamondcircles.svg	12	yes	57	0	429
6.6.1	win	2022-12-14	13:46:58	13:50:18	198139	5d8a29c082fec30001d9c24a	624325669	1	practice_slash	5	practice_slash	17	stimuli_distractor_trianglediamonds.svg	stimuli_distractor_trianglediamonds.svg	15	no	0	1	2000
6.6.1	win	2022-12-14	13:46:58	13:50:18	198139	5d8a29c082fec30001d9c24a	624325669	1	practice_slash	5	advance_on_keypress_SLASH	18	stimuli_distractor_trianglediamonds.svg	stimuli_distractor_trianglediamonds.svg	15	no	57	0	462
6.6.1	win	2022-12-14	13:46:58	13:50:20	200747	5d8a29c082fec30001d9c24a	624325669	1	practice_slash	5	practice_slash	19	stimuli_target_circlediamonds.svg	stimuli_distractor_trianglediamonds.svg	4	yes	53	1	501
6.6.1	win	2022-12-14	13:46:58	13:50:20	200747	5d8a29c082fec30001d9c24a	624325669	1	practice_slash	5	advance_on_keypress_SLASH	20	stimuli_target_circlediamonds.svg	stimuli_distractor_trianglediamonds.svg	4	yes	57	0	392
6.6.1	win	2022-12-14	13:46:58	13:50:24	204805	5d8a29c082fec30001d9c24a	624325669	1	practice_slash	5	practice_slash	21	stimuli_target_diamondsquares.svg	stimuli_distractor_diamondtriangles.svg	3	yes	0	0	2000
6.6.1	win	2022-12-14	13:46:58	13:50:24	204805	5d8a29c082fec30001d9c24a	624325669	1	practice_slash	5	advance_on_keypress_SLASH	22	stimuli_target_diamondsquares.svg	stimuli_distractor_diamondtriangles.svg	3	yes	57	0	496
6.6.1	win	2022-12-14	13:46:58	13:50:27	207675	5d8a29c082fec30001d9c24a	624325669	1	practice_slash	5	practice_slash	23	stimuli_target_diamondsquares.svg	stimuli_distractor_trianglediamonds.svg	6	yes	53	1	688
6.6.1	win	2022-12-14	13:46:58	13:50:27	207675	5d8a29c082fec30001d9c24a	624325669	1	practice_slash	5	advance_on_keypress_SLASH	24	stimuli_target_diamondsquares.svg	stimuli_distractor_trianglediamonds.svg	6	yes	57	0	404
6.6.1	win	2022-12-14	13:46:58	13:50:30	210243	5d8a29c082fec30001d9c24a	624325669	1	practice_slash	5	practice_slash	25	stimuli_target_circlediamonds.svg	stimuli_distractor_diamondtriangles.svg	1	yes	53	1	529
6.6.1	win	2022-12-14	13:46:58	13:50:30	210243	5d8a29c082fec30001d9c24a	624325669	1	practice_slash	5	advance_on_keypress_SLASH	26	stimuli_target_circlediamonds.svg	stimuli_distractor_diamondtriangles.svg	1	yes	57	0	724
6.6.1	win	2022-12-14	13:46:58	13:50:33	213277	5d8a29c082fec30001d9c24a	624325669	1	practice_slash	5	practice_slash	27	stimuli_distractor_diamondtriangles.svg	stimuli_target_trianglecircles.svg	9	yes	53	1	680
6.6.1	win	2022-12-14	13:46:58	13:50:33	213277	5d8a29c082fec30001d9c24a	624325669	1	practice_slash	5	advance_on_keypress_SLASH	28	stimuli_distractor_diamondtriangles.svg	stimuli_target_trianglecircles.svg	9	yes	57	0	655
6.6.1	win	2022-12-14	13:46:58	13:50:36	215991	5d8a29c082fec30001d9c24a	624325669	1	practice_slash	5	practice_slash	29	stimuli_distractor_diamondtriangles.svg	stimuli_target_circletriangles.svg	7	yes	53	1	399
6.6.1	win	2022-12-14	13:46:58	13:50:36	215991	5d8a29c082fec30001d9c24a	624325669	1	practice_slash	5	advance_on_keypress_SLASH	30	stimuli_distractor_diamondtriangles.svg	stimuli_target_circletriangles.svg	7	yes	57	0	376
6.6.1	win	2022-12-14	13:46:58	13:50:40	219999	5d8a29c082fec30001d9c24a	624325669	1	practice_slash	5	practice_slash	31	stimuli_distractor_diamondtriangles.svg	stimuli_distractor_diamondtriangles.svg	13	no	0	1	2000
6.6.1	win	2022-12-14	13:46:58	13:50:40	219999	5d8a29c082fec30001d9c24a	624325669	1	practice_slash	5	advance_on_keypress_SLASH	32	stimuli_distractor_diamondtriangles.svg	stimuli_distractor_diamondtriangles.svg	13	no	57	0	276
6.6.1	win	2022-12-14	13:46:58	13:50:47	227257	5d8a29c082fec30001d9c24a	624325669	1	main_slash	7	main_slash	1	stimuli_distractor_trianglediamonds.svg	stimuli_target_squarediamonds.svg	12	yes	53	1	380
6.6.1	win	2022-12-14	13:46:58	13:50:47	227257	5d8a29c082fec30001d9c24a	624325669	1	main_slash	7	advance_on_keypress_SLASH	2	stimuli_distractor_trianglediamonds.svg	stimuli_target_squarediamonds.svg	12	yes	57	0	786
6.6.1	win	2022-12-14	13:46:58	13:50:49	229221	5d8a29c082fec30001d9c24a	624325669	1	main_slash	7	main_slash	3	stimuli_distractor_diamondtriangles.svg	stimuli_target_diamondcircles.svg	31	yes	53	1	500
6.6.1	win	2022-12-14	13:46:58	13:50:49	229221	5d8a29c082fec30001d9c24a	624325669	1	main_slash	7	advance_on_keypress_SLASH	4	stimuli_distractor_diamondtriangles.svg	stimuli_target_diamondcircles.svg	31	yes	57	0	613
6.6.1	win	2022-12-14	13:46:58	13:50:52	232483	5d8a29c082fec30001d9c24a	624325669	1	main_slash	7	main_slash	5	stimuli_distractor_diamondtriangles.svg	stimuli_distractor_trianglediamonds.svg	37	no	0	1	2000
6.6.1	win	2022-12-14	13:46:58	13:50:52	232483	5d8a29c082fec30001d9c24a	624325669	1	main_slash	7	advance_on_keypress_SLASH	6	stimuli_distractor_diamondtriangles.svg	stimuli_distractor_trianglediamonds.svg	37	no	57	0	324
6.6.1	win	2022-12-14	13:46:58	13:50:54	234241	5d8a29c082fec30001d9c24a	624325669	1	main_slash	7	main_slash	7	stimuli_distractor_trianglediamonds.svg	stimuli_target_diamondsquares.svg	28	yes	53	1	790
6.6.1	win	2022-12-14	13:46:58	13:50:54	234241	5d8a29c082fec30001d9c24a	624325669	1	main_slash	7	advance_on_keypress_SLASH	8	stimuli_distractor_trianglediamonds.svg	stimuli_target_diamondsquares.svg	28	yes	57	0	602
6.6.1	win	2022-12-14	13:46:58	13:50:55	235936	5d8a29c082fec30001d9c24a	624325669	1	main_slash	7	main_slash	9	stimuli_distractor_trianglediamonds.svg	stimuli_target_diamondcircles.svg	27	yes	53	1	432
6.6.1	win	2022-12-14	13:46:58	13:50:55	235936	5d8a29c082fec30001d9c24a	624325669	1	main_slash	7	advance_on_keypress_SLASH	10	stimuli_distractor_trianglediamonds.svg	stimuli_target_diamondcircles.svg	27	yes	57	0	623
6.6.1	win	2022-12-14	13:46:58	13:50:57	237693	5d8a29c082fec30001d9c24a	624325669	1	main_slash	7	main_slash	11	stimuli_target_diamondcircles.svg	stimuli_distractor_trianglediamonds.svg	19	yes	53	1	495
6.6.1	win	2022-12-14	13:46:58	13:50:57	237693	5d8a29c082fec30001d9c24a	624325669	1	main_slash	7	advance_on_keypress_SLASH	12	stimuli_target_diamondcircles.svg	stimuli_distractor_trianglediamonds.svg	19	yes	57	0	652
6.6.1	win	2022-12-14	13:46:58	13:50:59	239419	5d8a29c082fec30001d9c24a	624325669	1	main_slash	7	main_slash	13	stimuli_distractor_diamondtriangles.svg	stimuli_target_circletriangles.svg	13	yes	53	1	438
6.6.1	win	2022-12-14	13:46:58	13:50:59	239419	5d8a29c082fec30001d9c24a	624325669	1	main_slash	7	advance_on_keypress_SLASH	14	stimuli_distractor_diamondtriangles.svg	stimuli_target_circletriangles.svg	13	yes	57	0	460
6.6.1	win	2022-12-14	13:46:58	13:51:02	242515	5d8a29c082fec30001d9c24a	624325669	1	main_slash	7	main_slash	15	stimuli_distractor_diamondtriangles.svg	stimuli_distractor_diamondtriangles.svg	39	no	0	1	2000
6.6.1	win	2022-12-14	13:46:58	13:51:02	242515	5d8a29c082fec30001d9c24a	624325669	1	main_slash	7	advance_on_keypress_SLASH	16	stimuli_distractor_diamondtriangles.svg	stimuli_distractor_diamondtriangles.svg	39	no	57	0	342
6.6.1	win	2022-12-14	13:46:58	13:51:03	243861	5d8a29c082fec30001d9c24a	624325669	1	main_slash	7	main_slash	17	stimuli_target_squarediamonds.svg	stimuli_distractor_diamondtriangles.svg	8	yes	53	1	364
6.6.1	win	2022-12-14	13:46:58	13:51:03	243861	5d8a29c082fec30001d9c24a	624325669	1	main_slash	7	advance_on_keypress_SLASH	18	stimuli_target_squarediamonds.svg	stimuli_distractor_diamondtriangles.svg	8	yes	57	0	797
6.6.1	win	2022-12-14	13:46:58	13:51:05	245713	5d8a29c082fec30001d9c24a	624325669	1	main_slash	7	main_slash	19	stimuli_distractor_diamondtriangles.svg	stimuli_target_trianglecircles.svg	29	yes	53	1	416
6.6.1	win	2022-12-14	13:46:58	13:51:05	245713	5d8a29c082fec30001d9c24a	624325669	1	main_slash	7	advance_on_keypress_SLASH	20	stimuli_distractor_diamondtriangles.svg	stimuli_target_trianglecircles.svg	29	yes	57	0	572
6.6.1	win	2022-12-14	13:46:58	13:51:08	248932	5d8a29c082fec30001d9c24a	624325669	1	main_slash	7	main_slash	21	stimuli_target_diamondsquares.svg	stimuli_distractor_trianglediamonds.svg	20	yes	0	0	2000
6.6.1	win	2022-12-14	13:46:58	13:51:08	248932	5d8a29c082fec30001d9c24a	624325669	1	main_slash	7	advance_on_keypress_SLASH	22	stimuli_target_diamondsquares.svg	stimuli_distractor_trianglediamonds.svg	20	yes	57	0	665
6.6.1	win	2022-12-14	13:46:58	13:51:10	250747	5d8a29c082fec30001d9c24a	624325669	1	main_slash	7	main_slash	23	stimuli_distractor_trianglediamonds.svg	stimuli_target_trianglesquares.svg	26	yes	53	1	496
6.6.1	win	2022-12-14	13:46:58	13:51:10	250747	5d8a29c082fec30001d9c24a	624325669	1	main_slash	7	advance_on_keypress_SLASH	24	stimuli_distractor_trianglediamonds.svg	stimuli_target_trianglesquares.svg	26	yes	57	0	734
6.6.1	win	2022-12-14	13:46:58	13:51:12	252772	5d8a29c082fec30001d9c24a	624325669	1	main_slash	7	main_slash	25	stimuli_target_diamondsquares.svg	stimuli_distractor_diamondtriangles.svg	24	yes	53	1	624
6.6.1	win	2022-12-14	13:46:58	13:51:12	252772	5d8a29c082fec30001d9c24a	624325669	1	main_slash	7	advance_on_keypress_SLASH	26	stimuli_target_diamondsquares.svg	stimuli_distractor_diamondtriangles.svg	24	yes	57	0	480
6.6.1	win	2022-12-14	13:46:58	13:51:14	254501	5d8a29c082fec30001d9c24a	624325669	1	main_slash	7	main_slash	27	stimuli_distractor_trianglediamonds.svg	stimuli_target_squaretriangles.svg	11	yes	53	1	598
6.6.1	win	2022-12-14	13:46:58	13:51:14	254501	5d8a29c082fec30001d9c24a	624325669	1	main_slash	7	advance_on_keypress_SLASH	28	stimuli_distractor_trianglediamonds.svg	stimuli_target_squaretriangles.svg	11	yes	57	0	473
6.6.1	win	2022-12-14	13:46:58	13:51:16	256311	5d8a29c082fec30001d9c24a	624325669	1	main_slash	7	main_slash	29	stimuli_distractor_trianglediamonds.svg	stimuli_target_trianglecircles.svg	25	yes	53	1	672
6.6.1	win	2022-12-14	13:46:58	13:51:16	256311	5d8a29c082fec30001d9c24a	624325669	1	main_slash	7	advance_on_keypress_SLASH	30	stimuli_distractor_trianglediamonds.svg	stimuli_target_trianglecircles.svg	25	yes	57	0	481
6.6.1	win	2022-12-14	13:46:58	13:51:18	258267	5d8a29c082fec30001d9c24a	624325669	1	main_slash	7	main_slash	31	stimuli_target_circletriangles.svg	stimuli_distractor_diamondtriangles.svg	5	yes	53	1	834
6.6.1	win	2022-12-14	13:46:58	13:51:18	258267	5d8a29c082fec30001d9c24a	624325669	1	main_slash	7	advance_on_keypress_SLASH	32	stimuli_target_circletriangles.svg	stimuli_distractor_diamondtriangles.svg	5	yes	57	0	488
6.6.1	win	2022-12-14	13:46:58	13:51:20	260415	5d8a29c082fec30001d9c24a	624325669	1	main_slash	7	main_slash	33	stimuli_target_trianglecircles.svg	stimuli_distractor_trianglediamonds.svg	17	yes	53	1	1003
6.6.1	win	2022-12-14	13:46:58	13:51:20	260415	5d8a29c082fec30001d9c24a	624325669	1	main_slash	7	advance_on_keypress_SLASH	34	stimuli_target_trianglecircles.svg	stimuli_distractor_trianglediamonds.svg	17	yes	57	0	500
6.6.1	win	2022-12-14	13:46:58	13:51:22	262445	5d8a29c082fec30001d9c24a	624325669	1	main_slash	7	main_slash	35	stimuli_distractor_trianglediamonds.svg	stimuli_distractor_diamondtriangles.svg	36	no	53	0	881
6.6.1	win	2022-12-14	13:46:58	13:51:22	262445	5d8a29c082fec30001d9c24a	624325669	1	main_slash	7	advance_on_keypress_SLASH	36	stimuli_distractor_trianglediamonds.svg	stimuli_distractor_diamondtriangles.svg	36	no	57	0	933
6.6.1	win	2022-12-14	13:46:58	13:51:25	265012	5d8a29c082fec30001d9c24a	624325669	1	main_slash	7	main_slash	37	stimuli_target_squarediamonds.svg	stimuli_distractor_trianglediamonds.svg	4	yes	53	1	986
6.6.1	win	2022-12-14	13:46:58	13:51:25	265012	5d8a29c082fec30001d9c24a	624325669	1	main_slash	7	advance_on_keypress_SLASH	38	stimuli_target_squarediamonds.svg	stimuli_distractor_trianglediamonds.svg	4	yes	57	0	521
6.6.1	win	2022-12-14	13:46:58	13:51:27	267209	5d8a29c082fec30001d9c24a	624325669	1	main_slash	7	main_slash	39	stimuli_distractor_trianglediamonds.svg	stimuli_distractor_trianglediamonds.svg	33	no	53	0	1029
6.6.1	win	2022-12-14	13:46:58	13:51:27	267209	5d8a29c082fec30001d9c24a	624325669	1	main_slash	7	advance_on_keypress_SLASH	40	stimuli_distractor_trianglediamonds.svg	stimuli_distractor_trianglediamonds.svg	33	no	57	0	561
6.6.1	win	2022-12-14	13:46:58	13:51:29	269433	5d8a29c082fec30001d9c24a	624325669	1	main_slash	7	main_slash	41	stimuli_distractor_diamondtriangles.svg	stimuli_target_trianglesquares.svg	30	yes	53	1	1019
6.6.1	win	2022-12-14	13:46:58	13:51:29	269433	5d8a29c082fec30001d9c24a	624325669	1	main_slash	7	advance_on_keypress_SLASH	42	stimuli_distractor_diamondtriangles.svg	stimuli_target_trianglesquares.svg	30	yes	57	0	451
6.6.1	win	2022-12-14	13:46:58	13:51:31	271551	5d8a29c082fec30001d9c24a	624325669	1	main_slash	7	main_slash	43	stimuli_distractor_diamondtriangles.svg	stimuli_target_squaretriangles.svg	15	yes	53	1	1020
6.6.1	win	2022-12-14	13:46:58	13:51:31	271551	5d8a29c082fec30001d9c24a	624325669	1	main_slash	7	advance_on_keypress_SLASH	44	stimuli_distractor_diamondtriangles.svg	stimuli_target_squaretriangles.svg	15	yes	57	0	445
6.6.1	win	2022-12-14	13:46:58	13:51:34	274638	5d8a29c082fec30001d9c24a	624325669	1	main_slash	7	main_slash	45	stimuli_target_trianglesquares.svg	stimuli_distractor_trianglediamonds.svg	18	yes	0	0	2000
6.6.1	win	2022-12-14	13:46:58	13:51:34	274638	5d8a29c082fec30001d9c24a	624325669	1	main_slash	7	advance_on_keypress_SLASH	46	stimuli_target_trianglesquares.svg	stimuli_distractor_trianglediamonds.svg	18	yes	57	0	448
6.6.1	win	2022-12-14	13:46:58	13:51:36	276381	5d8a29c082fec30001d9c24a	624325669	1	main_slash	7	main_slash	47	stimuli_target_circletriangles.svg	stimuli_distractor_trianglediamonds.svg	1	yes	53	1	638
6.6.1	win	2022-12-14	13:46:58	13:51:36	276381	5d8a29c082fec30001d9c24a	624325669	1	main_slash	7	advance_on_keypress_SLASH	48	stimuli_target_circletriangles.svg	stimuli_distractor_trianglediamonds.svg	1	yes	57	0	451
6.6.1	win	2022-12-14	13:46:58	13:51:38	278471	5d8a29c082fec30001d9c24a	624325669	1	main_slash	7	main_slash	49	stimuli_distractor_diamondtriangles.svg	stimuli_distractor_trianglediamonds.svg	38	no	53	0	990
6.6.1	win	2022-12-14	13:46:58	13:51:38	278471	5d8a29c082fec30001d9c24a	624325669	1	main_slash	7	advance_on_keypress_SLASH	50	stimuli_distractor_diamondtriangles.svg	stimuli_distractor_trianglediamonds.svg	38	no	57	0	491
6.6.1	win	2022-12-14	13:46:58	13:51:41	281600	5d8a29c082fec30001d9c24a	624325669	1	main_slash	7	main_slash	51	stimuli_distractor_diamondtriangles.svg	stimuli_distractor_diamondtriangles.svg	40	no	0	1	2000
6.6.1	win	2022-12-14	13:46:58	13:51:41	281600	5d8a29c082fec30001d9c24a	624325669	1	main_slash	7	advance_on_keypress_SLASH	52	stimuli_distractor_diamondtriangles.svg	stimuli_distractor_diamondtriangles.svg	40	no	57	0	312
6.6.1	win	2022-12-14	13:46:58	13:51:43	283366	5d8a29c082fec30001d9c24a	624325669	1	main_slash	7	main_slash	53	stimuli_target_trianglesquares.svg	stimuli_distractor_diamondtriangles.svg	22	yes	53	1	786
6.6.1	win	2022-12-14	13:46:58	13:51:43	283366	5d8a29c082fec30001d9c24a	624325669	1	main_slash	7	advance_on_keypress_SLASH	54	stimuli_target_trianglesquares.svg	stimuli_distractor_diamondtriangles.svg	22	yes	57	0	456
6.6.1	win	2022-12-14	13:46:58	13:51:45	285026	5d8a29c082fec30001d9c24a	624325669	1	main_slash	7	main_slash	55	stimuli_distractor_trianglediamonds.svg	stimuli_target_circletriangles.svg	9	yes	53	1	544
6.6.1	win	2022-12-14	13:46:58	13:51:45	285026	5d8a29c082fec30001d9c24a	624325669	1	main_slash	7	advance_on_keypress_SLASH	56	stimuli_distractor_trianglediamonds.svg	stimuli_target_circletriangles.svg	9	yes	57	0	498
6.6.1	win	2022-12-14	13:46:58	13:51:46	286785	5d8a29c082fec30001d9c24a	624325669	1	main_slash	7	main_slash	57	stimuli_target_circlediamonds.svg	stimuli_distractor_trianglediamonds.svg	2	yes	53	1	608
6.6.1	win	2022-12-14	13:46:58	13:51:46	286785	5d8a29c082fec30001d9c24a	624325669	1	main_slash	7	advance_on_keypress_SLASH	58	stimuli_target_circlediamonds.svg	stimuli_distractor_trianglediamonds.svg	2	yes	57	0	437
6.6.1	win	2022-12-14	13:46:58	13:51:48	288405	5d8a29c082fec30001d9c24a	624325669	1	main_slash	7	main_slash	59	stimuli_distractor_trianglediamonds.svg	stimuli_target_circlediamonds.svg	10	yes	53	1	540
6.6.1	win	2022-12-14	13:46:58	13:51:48	288405	5d8a29c082fec30001d9c24a	624325669	1	main_slash	7	advance_on_keypress_SLASH	60	stimuli_distractor_trianglediamonds.svg	stimuli_target_circlediamonds.svg	10	yes	57	0	383
6.6.1	win	2022-12-14	13:46:58	13:51:50	290815	5d8a29c082fec30001d9c24a	624325669	1	main_slash	7	main_slash	61	stimuli_target_circlediamonds.svg	stimuli_distractor_diamondtriangles.svg	6	yes	53	1	1368
6.6.1	win	2022-12-14	13:46:58	13:51:50	290815	5d8a29c082fec30001d9c24a	624325669	1	main_slash	7	advance_on_keypress_SLASH	62	stimuli_target_circlediamonds.svg	stimuli_distractor_diamondtriangles.svg	6	yes	57	0	600
6.6.1	win	2022-12-14	13:46:58	13:51:53	292963	5d8a29c082fec30001d9c24a	624325669	1	main_slash	7	main_slash	63	stimuli_distractor_diamondtriangles.svg	stimuli_target_diamondsquares.svg	32	yes	53	1	898
6.6.1	win	2022-12-14	13:46:58	13:51:53	292963	5d8a29c082fec30001d9c24a	624325669	1	main_slash	7	advance_on_keypress_SLASH	64	stimuli_distractor_diamondtriangles.svg	stimuli_target_diamondsquares.svg	32	yes	57	0	446
6.6.1	win	2022-12-14	13:46:58	13:51:54	294900	5d8a29c082fec30001d9c24a	624325669	1	main_slash	7	main_slash	65	stimuli_target_squaretriangles.svg	stimuli_distractor_diamondtriangles.svg	7	yes	53	1	851
6.6.1	win	2022-12-14	13:46:58	13:51:54	294900	5d8a29c082fec30001d9c24a	624325669	1	main_slash	7	advance_on_keypress_SLASH	66	stimuli_target_squaretriangles.svg	stimuli_distractor_diamondtriangles.svg	7	yes	57	0	484
6.6.1	win	2022-12-14	13:46:58	13:51:58	298031	5d8a29c082fec30001d9c24a	624325669	1	main_slash	7	main_slash	67	stimuli_distractor_trianglediamonds.svg	stimuli_distractor_diamondtriangles.svg	35	no	0	1	2000
6.6.1	win	2022-12-14	13:46:58	13:51:58	298031	5d8a29c082fec30001d9c24a	624325669	1	main_slash	7	advance_on_keypress_SLASH	68	stimuli_distractor_trianglediamonds.svg	stimuli_distractor_diamondtriangles.svg	35	no	57	0	323
6.6.1	win	2022-12-14	13:46:58	13:51:59	299457	5d8a29c082fec30001d9c24a	624325669	1	main_slash	7	main_slash	69	stimuli_distractor_diamondtriangles.svg	stimuli_target_squarediamonds.svg	16	yes	53	1	459
6.6.1	win	2022-12-14	13:46:58	13:51:59	299457	5d8a29c082fec30001d9c24a	624325669	1	main_slash	7	advance_on_keypress_SLASH	70	stimuli_distractor_diamondtriangles.svg	stimuli_target_squarediamonds.svg	16	yes	57	0	480
6.6.1	win	2022-12-14	13:46:58	13:52:01	301308	5d8a29c082fec30001d9c24a	624325669	1	main_slash	7	main_slash	71	stimuli_target_diamondcircles.svg	stimuli_distractor_diamondtriangles.svg	23	yes	53	1	736
6.6.1	win	2022-12-14	13:46:58	13:52:01	301308	5d8a29c082fec30001d9c24a	624325669	1	main_slash	7	advance_on_keypress_SLASH	72	stimuli_target_diamondcircles.svg	stimuli_distractor_diamondtriangles.svg	23	yes	57	0	442
6.6.1	win	2022-12-14	13:46:58	13:52:04	304397	5d8a29c082fec30001d9c24a	624325669	1	main_slash	7	main_slash	73	stimuli_distractor_trianglediamonds.svg	stimuli_distractor_trianglediamonds.svg	34	no	0	1	2000
6.6.1	win	2022-12-14	13:46:58	13:52:04	304397	5d8a29c082fec30001d9c24a	624325669	1	main_slash	7	advance_on_keypress_SLASH	74	stimuli_distractor_trianglediamonds.svg	stimuli_distractor_trianglediamonds.svg	34	no	57	0	344
6.6.1	win	2022-12-14	13:46:58	13:52:05	305953	5d8a29c082fec30001d9c24a	624325669	1	main_slash	7	main_slash	75	stimuli_distractor_diamondtriangles.svg	stimuli_target_circlediamonds.svg	14	yes	53	1	555
6.6.1	win	2022-12-14	13:46:58	13:52:05	305953	5d8a29c082fec30001d9c24a	624325669	1	main_slash	7	advance_on_keypress_SLASH	76	stimuli_distractor_diamondtriangles.svg	stimuli_target_circlediamonds.svg	14	yes	57	0	392
6.6.1	win	2022-12-14	13:46:58	13:52:07	307590	5d8a29c082fec30001d9c24a	624325669	1	main_slash	7	main_slash	77	stimuli_target_trianglecircles.svg	stimuli_distractor_diamondtriangles.svg	21	yes	53	1	610
6.6.1	win	2022-12-14	13:46:58	13:52:07	307590	5d8a29c082fec30001d9c24a	624325669	1	main_slash	7	advance_on_keypress_SLASH	78	stimuli_target_trianglecircles.svg	stimuli_distractor_diamondtriangles.svg	21	yes	57	0	527
6.6.1	win	2022-12-14	13:46:58	13:52:09	309584	5d8a29c082fec30001d9c24a	624325669	1	main_slash	7	main_slash	79	stimuli_target_squaretriangles.svg	stimuli_distractor_trianglediamonds.svg	3	yes	53	1	821
6.6.1	win	2022-12-14	13:46:58	13:52:09	309584	5d8a29c082fec30001d9c24a	624325669	1	main_slash	7	advance_on_keypress_SLASH	80	stimuli_target_squaretriangles.svg	stimuli_distractor_trianglediamonds.svg	3	yes	57	0	439
6.6.1	win	2022-12-14	13:46:58	13:52:11	311326	5d8a29c082fec30001d9c24a	624325669	1	main_slash	7	main_slash	81	stimuli_distractor_diamondtriangles.svg	stimuli_target_squaretriangles.svg	15	yes	53	1	643
6.6.1	win	2022-12-14	13:46:58	13:52:11	311326	5d8a29c082fec30001d9c24a	624325669	1	main_slash	7	advance_on_keypress_SLASH	82	stimuli_distractor_diamondtriangles.svg	stimuli_target_squaretriangles.svg	15	yes	57	0	340
6.6.1	win	2022-12-14	13:46:58	13:52:13	313251	5d8a29c082fec30001d9c24a	624325669	1	main_slash	7	main_slash	83	stimuli_target_diamondsquares.svg	stimuli_distractor_trianglediamonds.svg	20	yes	53	1	953
6.6.1	win	2022-12-14	13:46:58	13:52:13	313251	5d8a29c082fec30001d9c24a	624325669	1	main_slash	7	advance_on_keypress_SLASH	84	stimuli_target_diamondsquares.svg	stimuli_distractor_trianglediamonds.svg	20	yes	57	0	456
6.6.1	win	2022-12-14	13:46:58	13:52:15	315383	5d8a29c082fec30001d9c24a	624325669	1	main_slash	7	main_slash	85	stimuli_target_squaretriangles.svg	stimuli_distractor_trianglediamonds.svg	3	yes	53	1	1035
6.6.1	win	2022-12-14	13:46:58	13:52:15	315383	5d8a29c082fec30001d9c24a	624325669	1	main_slash	7	advance_on_keypress_SLASH	86	stimuli_target_squaretriangles.svg	stimuli_distractor_trianglediamonds.svg	3	yes	57	0	493
6.6.1	win	2022-12-14	13:46:58	13:52:17	317146	5d8a29c082fec30001d9c24a	624325669	1	main_slash	7	main_slash	87	stimuli_distractor_diamondtriangles.svg	stimuli_target_squarediamonds.svg	16	yes	53	1	613
6.6.1	win	2022-12-14	13:46:58	13:52:17	317146	5d8a29c082fec30001d9c24a	624325669	1	main_slash	7	advance_on_keypress_SLASH	88	stimuli_distractor_diamondtriangles.svg	stimuli_target_squarediamonds.svg	16	yes	57	0	313
6.6.1	win	2022-12-14	13:46:58	13:52:20	320081	5d8a29c082fec30001d9c24a	624325669	1	main_slash	7	main_slash	89	stimuli_distractor_diamondtriangles.svg	stimuli_target_trianglesquares.svg	30	yes	0	0	2000
6.6.1	win	2022-12-14	13:46:58	13:52:20	320081	5d8a29c082fec30001d9c24a	624325669	1	main_slash	7	advance_on_keypress_SLASH	90	stimuli_distractor_diamondtriangles.svg	stimuli_target_trianglesquares.svg	30	yes	57	0	319
6.6.1	win	2022-12-14	13:46:58	13:52:21	321701	5d8a29c082fec30001d9c24a	624325669	1	main_slash	7	main_slash	91	stimuli_target_circlediamonds.svg	stimuli_distractor_trianglediamonds.svg	2	yes	53	1	653
6.6.1	win	2022-12-14	13:46:58	13:52:21	321701	5d8a29c082fec30001d9c24a	624325669	1	main_slash	7	advance_on_keypress_SLASH	92	stimuli_target_circlediamonds.svg	stimuli_distractor_trianglediamonds.svg	2	yes	57	0	368
6.6.1	win	2022-12-14	13:46:58	13:52:23	323276	5d8a29c082fec30001d9c24a	624325669	1	main_slash	7	main_slash	93	stimuli_distractor_diamondtriangles.svg	stimuli_target_circletriangles.svg	13	yes	53	1	553
6.6.1	win	2022-12-14	13:46:58	13:52:23	323276	5d8a29c082fec30001d9c24a	624325669	1	main_slash	7	advance_on_keypress_SLASH	94	stimuli_distractor_diamondtriangles.svg	stimuli_target_circletriangles.svg	13	yes	57	0	323
6.6.1	win	2022-12-14	13:46:58	13:52:24	324779	5d8a29c082fec30001d9c24a	624325669	1	main_slash	7	main_slash	95	stimuli_target_trianglecircles.svg	stimuli_distractor_diamondtriangles.svg	21	yes	53	1	531
6.6.1	win	2022-12-14	13:46:58	13:52:24	324779	5d8a29c082fec30001d9c24a	624325669	1	main_slash	7	advance_on_keypress_SLASH	96	stimuli_target_trianglecircles.svg	stimuli_distractor_diamondtriangles.svg	21	yes	57	0	311
6.6.1	win	2022-12-14	13:46:58	13:52:27	327737	5d8a29c082fec30001d9c24a	624325669	1	main_slash	7	main_slash	97	stimuli_target_trianglesquares.svg	stimuli_distractor_diamondtriangles.svg	22	yes	0	0	2000
6.6.1	win	2022-12-14	13:46:58	13:52:27	327737	5d8a29c082fec30001d9c24a	624325669	1	main_slash	7	advance_on_keypress_SLASH	98	stimuli_target_trianglesquares.svg	stimuli_distractor_diamondtriangles.svg	22	yes	57	0	489
6.6.1	win	2022-12-14	13:46:58	13:52:29	329593	5d8a29c082fec30001d9c24a	624325669	1	main_slash	7	main_slash	99	stimuli_distractor_trianglediamonds.svg	stimuli_distractor_trianglediamonds.svg	33	no	53	0	711
6.6.1	win	2022-12-14	13:46:58	13:52:29	329593	5d8a29c082fec30001d9c24a	624325669	1	main_slash	7	advance_on_keypress_SLASH	100	stimuli_distractor_trianglediamonds.svg	stimuli_distractor_trianglediamonds.svg	33	no	57	0	864
6.6.1	win	2022-12-14	13:46:58	13:52:31	331775	5d8a29c082fec30001d9c24a	624325669	1	main_slash	7	main_slash	101	stimuli_distractor_trianglediamonds.svg	stimuli_target_trianglecircles.svg	25	yes	53	1	693
6.6.1	win	2022-12-14	13:46:58	13:52:31	331775	5d8a29c082fec30001d9c24a	624325669	1	main_slash	7	advance_on_keypress_SLASH	102	stimuli_distractor_trianglediamonds.svg	stimuli_target_trianglecircles.svg	25	yes	57	0	481
6.6.1	win	2022-12-14	13:46:58	13:52:33	333564	5d8a29c082fec30001d9c24a	624325669	1	main_slash	7	main_slash	103	stimuli_target_circletriangles.svg	stimuli_distractor_diamondtriangles.svg	5	yes	53	1	681
6.6.1	win	2022-12-14	13:46:58	13:52:33	333564	5d8a29c082fec30001d9c24a	624325669	1	main_slash	7	advance_on_keypress_SLASH	104	stimuli_target_circletriangles.svg	stimuli_distractor_diamondtriangles.svg	5	yes	57	0	313
6.6.1	win	2022-12-14	13:46:58	13:52:35	335162	5d8a29c082fec30001d9c24a	624325669	1	main_slash	7	main_slash	105	stimuli_target_circlediamonds.svg	stimuli_distractor_diamondtriangles.svg	6	yes	53	1	646
6.6.1	win	2022-12-14	13:46:58	13:52:35	335162	5d8a29c082fec30001d9c24a	624325669	1	main_slash	7	advance_on_keypress_SLASH	106	stimuli_target_circlediamonds.svg	stimuli_distractor_diamondtriangles.svg	6	yes	57	0	391
6.6.1	win	2022-12-14	13:46:58	13:52:38	338181	5d8a29c082fec30001d9c24a	624325669	1	main_slash	7	main_slash	107	stimuli_distractor_diamondtriangles.svg	stimuli_distractor_trianglediamonds.svg	38	no	0	1	2000
6.6.1	win	2022-12-14	13:46:58	13:52:38	338181	5d8a29c082fec30001d9c24a	624325669	1	main_slash	7	advance_on_keypress_SLASH	108	stimuli_distractor_diamondtriangles.svg	stimuli_distractor_trianglediamonds.svg	38	no	57	0	308
6.6.1	win	2022-12-14	13:46:58	13:52:39	339843	5d8a29c082fec30001d9c24a	624325669	1	main_slash	7	main_slash	109	stimuli_target_diamondsquares.svg	stimuli_distractor_diamondtriangles.svg	24	yes	53	1	711
6.6.1	win	2022-12-14	13:46:58	13:52:39	339843	5d8a29c082fec30001d9c24a	624325669	1	main_slash	7	advance_on_keypress_SLASH	110	stimuli_target_diamondsquares.svg	stimuli_distractor_diamondtriangles.svg	24	yes	57	0	358
6.6.1	win	2022-12-14	13:46:58	13:52:41	341469	5d8a29c082fec30001d9c24a	624325669	1	main_slash	7	main_slash	111	stimuli_distractor_trianglediamonds.svg	stimuli_target_circletriangles.svg	9	yes	53	1	625
6.6.1	win	2022-12-14	13:46:58	13:52:41	341469	5d8a29c082fec30001d9c24a	624325669	1	main_slash	7	advance_on_keypress_SLASH	112	stimuli_distractor_trianglediamonds.svg	stimuli_target_circletriangles.svg	9	yes	57	0	346
6.6.1	win	2022-12-14	13:46:58	13:52:43	343089	5d8a29c082fec30001d9c24a	624325669	1	main_slash	7	main_slash	113	stimuli_distractor_trianglediamonds.svg	stimuli_target_squaretriangles.svg	11	yes	53	1	608
6.6.1	win	2022-12-14	13:46:58	13:52:43	343089	5d8a29c082fec30001d9c24a	624325669	1	main_slash	7	advance_on_keypress_SLASH	114	stimuli_distractor_trianglediamonds.svg	stimuli_target_squaretriangles.svg	11	yes	57	0	258
6.6.1	win	2022-12-14	13:46:58	13:52:45	345067	5d8a29c082fec30001d9c24a	624325669	1	main_slash	7	main_slash	115	stimuli_target_trianglesquares.svg	stimuli_distractor_trianglediamonds.svg	18	yes	53	1	1069
6.6.1	win	2022-12-14	13:46:58	13:52:45	345067	5d8a29c082fec30001d9c24a	624325669	1	main_slash	7	advance_on_keypress_SLASH	116	stimuli_target_trianglesquares.svg	stimuli_distractor_trianglediamonds.svg	18	yes	57	0	454
6.6.1	win	2022-12-14	13:46:58	13:52:48	348166	5d8a29c082fec30001d9c24a	624325669	1	main_slash	7	main_slash	117	stimuli_distractor_diamondtriangles.svg	stimuli_distractor_diamondtriangles.svg	39	no	0	1	2000
6.6.1	win	2022-12-14	13:46:58	13:52:48	348166	5d8a29c082fec30001d9c24a	624325669	1	main_slash	7	advance_on_keypress_SLASH	118	stimuli_distractor_diamondtriangles.svg	stimuli_distractor_diamondtriangles.svg	39	no	57	0	325
6.6.1	win	2022-12-14	13:46:58	13:52:49	349751	5d8a29c082fec30001d9c24a	624325669	1	main_slash	7	main_slash	119	stimuli_distractor_diamondtriangles.svg	stimuli_target_diamondcircles.svg	31	yes	53	1	586
6.6.1	win	2022-12-14	13:46:58	13:52:49	349751	5d8a29c082fec30001d9c24a	624325669	1	main_slash	7	advance_on_keypress_SLASH	120	stimuli_distractor_diamondtriangles.svg	stimuli_target_diamondcircles.svg	31	yes	57	0	326
6.6.1	win	2022-12-14	13:46:58	13:52:52	352052	5d8a29c082fec30001d9c24a	624325669	1	main_slash	7	main_slash	121	stimuli_distractor_diamondtriangles.svg	stimuli_target_diamondsquares.svg	32	yes	53	1	1328
6.6.1	win	2022-12-14	13:46:58	13:52:52	352052	5d8a29c082fec30001d9c24a	624325669	1	main_slash	7	advance_on_keypress_SLASH	122	stimuli_distractor_diamondtriangles.svg	stimuli_target_diamondsquares.svg	32	yes	57	0	512
6.6.1	win	2022-12-14	13:46:58	13:52:53	353755	5d8a29c082fec30001d9c24a	624325669	1	main_slash	7	main_slash	123	stimuli_distractor_trianglediamonds.svg	stimuli_target_circlediamonds.svg	10	yes	53	1	540
6.6.1	win	2022-12-14	13:46:58	13:52:53	353755	5d8a29c082fec30001d9c24a	624325669	1	main_slash	7	advance_on_keypress_SLASH	124	stimuli_distractor_trianglediamonds.svg	stimuli_target_circlediamonds.svg	10	yes	57	0	358
6.6.1	win	2022-12-14	13:46:58	13:52:55	355465	5d8a29c082fec30001d9c24a	624325669	1	main_slash	7	main_slash	125	stimuli_target_squaretriangles.svg	stimuli_distractor_diamondtriangles.svg	7	yes	53	1	688
6.6.1	win	2022-12-14	13:46:58	13:52:55	355465	5d8a29c082fec30001d9c24a	624325669	1	main_slash	7	advance_on_keypress_SLASH	126	stimuli_target_squaretriangles.svg	stimuli_distractor_diamondtriangles.svg	7	yes	57	0	275
6.6.1	win	2022-12-14	13:46:58	13:52:57	357033	5d8a29c082fec30001d9c24a	624325669	1	main_slash	7	main_slash	127	stimuli_target_trianglecircles.svg	stimuli_distractor_trianglediamonds.svg	17	yes	53	1	651
6.6.1	win	2022-12-14	13:46:58	13:52:57	357033	5d8a29c082fec30001d9c24a	624325669	1	main_slash	7	advance_on_keypress_SLASH	128	stimuli_target_trianglecircles.svg	stimuli_distractor_trianglediamonds.svg	17	yes	57	0	396
6.6.1	win	2022-12-14	13:46:58	13:52:58	358904	5d8a29c082fec30001d9c24a	624325669	1	main_slash	7	main_slash	129	stimuli_distractor_trianglediamonds.svg	stimuli_target_diamondsquares.svg	28	yes	53	1	840
6.6.1	win	2022-12-14	13:46:58	13:52:58	358904	5d8a29c082fec30001d9c24a	624325669	1	main_slash	7	advance_on_keypress_SLASH	130	stimuli_distractor_trianglediamonds.svg	stimuli_target_diamondsquares.svg	28	yes	57	0	413
6.6.1	win	2022-12-14	13:46:58	13:53:00	360567	5d8a29c082fec30001d9c24a	624325669	1	main_slash	7	main_slash	131	stimuli_distractor_trianglediamonds.svg	stimuli_target_trianglesquares.svg	26	yes	53	1	618
6.6.1	win	2022-12-14	13:46:58	13:53:00	360567	5d8a29c082fec30001d9c24a	624325669	1	main_slash	7	advance_on_keypress_SLASH	132	stimuli_distractor_trianglediamonds.svg	stimuli_target_trianglesquares.svg	26	yes	57	0	219
6.6.1	win	2022-12-14	13:46:58	13:53:02	362106	5d8a29c082fec30001d9c24a	624325669	1	main_slash	7	main_slash	133	stimuli_target_diamondcircles.svg	stimuli_distractor_diamondtriangles.svg	23	yes	53	1	673
6.6.1	win	2022-12-14	13:46:58	13:53:02	362106	5d8a29c082fec30001d9c24a	624325669	1	main_slash	7	advance_on_keypress_SLASH	134	stimuli_target_diamondcircles.svg	stimuli_distractor_diamondtriangles.svg	23	yes	57	0	301
6.6.1	win	2022-12-14	13:46:58	13:53:03	363647	5d8a29c082fec30001d9c24a	624325669	1	main_slash	7	main_slash	135	stimuli_target_diamondcircles.svg	stimuli_distractor_trianglediamonds.svg	19	yes	53	1	573
6.6.1	win	2022-12-14	13:46:58	13:53:03	363647	5d8a29c082fec30001d9c24a	624325669	1	main_slash	7	advance_on_keypress_SLASH	136	stimuli_target_diamondcircles.svg	stimuli_distractor_trianglediamonds.svg	19	yes	57	0	299
6.6.1	win	2022-12-14	13:46:58	13:53:06	366598	5d8a29c082fec30001d9c24a	624325669	1	main_slash	7	main_slash	137	stimuli_distractor_diamondtriangles.svg	stimuli_distractor_diamondtriangles.svg	40	no	0	1	2000
6.6.1	win	2022-12-14	13:46:58	13:53:06	366598	5d8a29c082fec30001d9c24a	624325669	1	main_slash	7	advance_on_keypress_SLASH	138	stimuli_distractor_diamondtriangles.svg	stimuli_distractor_diamondtriangles.svg	40	no	57	0	397
6.6.1	win	2022-12-14	13:46:58	13:53:08	368016	5d8a29c082fec30001d9c24a	624325669	1	main_slash	7	main_slash	139	stimuli_distractor_trianglediamonds.svg	stimuli_target_squarediamonds.svg	12	yes	53	1	385
6.6.1	win	2022-12-14	13:46:58	13:53:08	368016	5d8a29c082fec30001d9c24a	624325669	1	main_slash	7	advance_on_keypress_SLASH	140	stimuli_distractor_trianglediamonds.svg	stimuli_target_squarediamonds.svg	12	yes	57	0	453
6.6.1	win	2022-12-14	13:46:58	13:53:09	369789	5d8a29c082fec30001d9c24a	624325669	1	main_slash	7	main_slash	141	stimuli_target_circletriangles.svg	stimuli_distractor_trianglediamonds.svg	1	yes	53	1	673
6.6.1	win	2022-12-14	13:46:58	13:53:09	369789	5d8a29c082fec30001d9c24a	624325669	1	main_slash	7	advance_on_keypress_SLASH	142	stimuli_target_circletriangles.svg	stimuli_distractor_trianglediamonds.svg	1	yes	57	0	630
6.6.1	win	2022-12-14	13:46:58	13:53:11	371625	5d8a29c082fec30001d9c24a	624325669	1	main_slash	7	main_slash	143	stimuli_distractor_diamondtriangles.svg	stimuli_target_trianglecircles.svg	29	yes	53	1	549
6.6.1	win	2022-12-14	13:46:58	13:53:11	371625	5d8a29c082fec30001d9c24a	624325669	1	main_slash	7	advance_on_keypress_SLASH	144	stimuli_distractor_diamondtriangles.svg	stimuli_target_trianglecircles.svg	29	yes	57	0	331
6.6.1	win	2022-12-14	13:46:58	13:53:14	374615	5d8a29c082fec30001d9c24a	624325669	1	main_slash	7	main_slash	145	stimuli_distractor_trianglediamonds.svg	stimuli_distractor_diamondtriangles.svg	35	no	0	1	2000
6.6.1	win	2022-12-14	13:46:58	13:53:14	374615	5d8a29c082fec30001d9c24a	624325669	1	main_slash	7	advance_on_keypress_SLASH	146	stimuli_distractor_trianglediamonds.svg	stimuli_distractor_diamondtriangles.svg	35	no	57	0	453
6.6.1	win	2022-12-14	13:46:58	13:53:16	376089	5d8a29c082fec30001d9c24a	624325669	1	main_slash	7	main_slash	147	stimuli_distractor_diamondtriangles.svg	stimuli_target_circlediamonds.svg	14	yes	53	1	365
6.6.1	win	2022-12-14	13:46:58	13:53:16	376089	5d8a29c082fec30001d9c24a	624325669	1	main_slash	7	advance_on_keypress_SLASH	148	stimuli_distractor_diamondtriangles.svg	stimuli_target_circlediamonds.svg	14	yes	57	0	354
6.6.1	win	2022-12-14	13:46:58	13:53:19	379112	5d8a29c082fec30001d9c24a	624325669	1	main_slash	7	main_slash	149	stimuli_distractor_trianglediamonds.svg	stimuli_distractor_trianglediamonds.svg	34	no	0	1	2000
6.6.1	win	2022-12-14	13:46:58	13:53:19	379112	5d8a29c082fec30001d9c24a	624325669	1	main_slash	7	advance_on_keypress_SLASH	150	stimuli_distractor_trianglediamonds.svg	stimuli_distractor_trianglediamonds.svg	34	no	57	0	349
6.6.1	win	2022-12-14	13:46:58	13:53:22	382108	5d8a29c082fec30001d9c24a	624325669	1	main_slash	7	main_slash	151	stimuli_distractor_trianglediamonds.svg	stimuli_distractor_diamondtriangles.svg	36	no	0	1	2000
6.6.1	win	2022-12-14	13:46:58	13:53:22	382108	5d8a29c082fec30001d9c24a	624325669	1	main_slash	7	advance_on_keypress_SLASH	152	stimuli_distractor_trianglediamonds.svg	stimuli_distractor_diamondtriangles.svg	36	no	57	0	295
6.6.1	win	2022-12-14	13:46:58	13:53:23	383636	5d8a29c082fec30001d9c24a	624325669	1	main_slash	7	main_slash	153	stimuli_target_squarediamonds.svg	stimuli_distractor_diamondtriangles.svg	8	yes	53	1	588
6.6.1	win	2022-12-14	13:46:58	13:53:23	383636	5d8a29c082fec30001d9c24a	624325669	1	main_slash	7	advance_on_keypress_SLASH	154	stimuli_target_squarediamonds.svg	stimuli_distractor_diamondtriangles.svg	8	yes	57	0	326
6.6.1	win	2022-12-14	13:46:58	13:53:25	385115	5d8a29c082fec30001d9c24a	624325669	1	main_slash	7	main_slash	155	stimuli_distractor_trianglediamonds.svg	stimuli_target_diamondcircles.svg	27	yes	53	1	504
6.6.1	win	2022-12-14	13:46:58	13:53:25	385115	5d8a29c082fec30001d9c24a	624325669	1	main_slash	7	advance_on_keypress_SLASH	156	stimuli_distractor_trianglediamonds.svg	stimuli_target_diamondcircles.svg	27	yes	57	0	262
6.6.1	win	2022-12-14	13:46:58	13:53:26	386500	5d8a29c082fec30001d9c24a	624325669	1	main_slash	7	main_slash	157	stimuli_target_squarediamonds.svg	stimuli_distractor_trianglediamonds.svg	4	yes	53	1	483
6.6.1	win	2022-12-14	13:46:58	13:53:26	386500	5d8a29c082fec30001d9c24a	624325669	1	main_slash	7	advance_on_keypress_SLASH	158	stimuli_target_squarediamonds.svg	stimuli_distractor_trianglediamonds.svg	4	yes	57	0	241
6.6.1	win	2022-12-14	13:46:58	13:53:29	389392	5d8a29c082fec30001d9c24a	624325669	1	main_slash	7	main_slash	159	stimuli_distractor_diamondtriangles.svg	stimuli_distractor_trianglediamonds.svg	37	no	0	1	2000
6.6.1	win	2022-12-14	13:46:58	13:53:29	389392	5d8a29c082fec30001d9c24a	624325669	1	main_slash	7	advance_on_keypress_SLASH	160	stimuli_distractor_diamondtriangles.svg	stimuli_distractor_trianglediamonds.svg	37	no	57	0	324
6.6.1	win	2022-12-14	13:46:58	13:53:51	411024	5d8a29c082fec30001d9c24a	624325669	1	practice_z	9	practice_z	1	stimuli_distractor_diamondtriangles.svg	stimuli_target_trianglecircles.svg	9	yes	44	1	432
6.6.1	win	2022-12-14	13:46:58	13:53:51	411024	5d8a29c082fec30001d9c24a	624325669	1	practice_z	9	advance_on_keypress_ZEE	2	stimuli_distractor_diamondtriangles.svg	stimuli_target_trianglecircles.svg	9	yes	57	0	2972
6.6.1	win	2022-12-14	13:46:58	13:53:56	416199	5d8a29c082fec30001d9c24a	624325669	1	practice_z	9	practice_z	3	stimuli_distractor_diamondtriangles.svg	stimuli_target_circletriangles.svg	7	yes	44	1	536
6.6.1	win	2022-12-14	13:46:58	13:53:56	416199	5d8a29c082fec30001d9c24a	624325669	1	practice_z	9	advance_on_keypress_ZEE	4	stimuli_distractor_diamondtriangles.svg	stimuli_target_circletriangles.svg	7	yes	57	0	465
6.6.1	win	2022-12-14	13:46:58	13:53:58	418717	5d8a29c082fec30001d9c24a	624325669	1	practice_z	9	practice_z	5	stimuli_distractor_trianglediamonds.svg	stimuli_target_circlediamonds.svg	10	yes	44	1	401
6.6.1	win	2022-12-14	13:46:58	13:53:58	418717	5d8a29c082fec30001d9c24a	624325669	1	practice_z	9	advance_on_keypress_ZEE	6	stimuli_distractor_trianglediamonds.svg	stimuli_target_circlediamonds.svg	10	yes	57	0	266
6.6.1	win	2022-12-14	13:46:58	13:54:02	422636	5d8a29c082fec30001d9c24a	624325669	1	practice_z	9	practice_z	7	stimuli_distractor_trianglediamonds.svg	stimuli_distractor_diamondtriangles.svg	16	no	0	1	2000
6.6.1	win	2022-12-14	13:46:58	13:54:02	422636	5d8a29c082fec30001d9c24a	624325669	1	practice_z	9	advance_on_keypress_ZEE	8	stimuli_distractor_trianglediamonds.svg	stimuli_distractor_diamondtriangles.svg	16	no	57	0	333
6.6.1	win	2022-12-14	13:46:58	13:54:06	426620	5d8a29c082fec30001d9c24a	624325669	1	practice_z	9	practice_z	9	stimuli_distractor_diamondtriangles.svg	stimuli_distractor_diamondtriangles.svg	13	no	0	1	2000
6.6.1	win	2022-12-14	13:46:58	13:54:06	426620	5d8a29c082fec30001d9c24a	624325669	1	practice_z	9	advance_on_keypress_ZEE	10	stimuli_distractor_diamondtriangles.svg	stimuli_distractor_diamondtriangles.svg	13	no	57	0	274
6.6.1	win	2022-12-14	13:46:58	13:54:09	429172	5d8a29c082fec30001d9c24a	624325669	1	practice_z	9	practice_z	11	stimuli_target_circlediamonds.svg	stimuli_distractor_trianglediamonds.svg	4	yes	44	1	603
6.6.1	win	2022-12-14	13:46:58	13:54:09	429172	5d8a29c082fec30001d9c24a	624325669	1	practice_z	9	advance_on_keypress_ZEE	12	stimuli_target_circlediamonds.svg	stimuli_distractor_trianglediamonds.svg	4	yes	57	0	336
6.6.1	win	2022-12-14	13:46:58	13:54:11	431756	5d8a29c082fec30001d9c24a	624325669	1	practice_z	9	practice_z	13	stimuli_distractor_trianglediamonds.svg	stimuli_target_diamondcircles.svg	12	yes	44	1	592
6.6.1	win	2022-12-14	13:46:58	13:54:11	431756	5d8a29c082fec30001d9c24a	624325669	1	practice_z	9	advance_on_keypress_ZEE	14	stimuli_distractor_trianglediamonds.svg	stimuli_target_diamondcircles.svg	12	yes	57	0	362
6.6.1	win	2022-12-14	13:46:58	13:54:14	434246	5d8a29c082fec30001d9c24a	624325669	1	practice_z	9	practice_z	15	stimuli_distractor_diamondtriangles.svg	stimuli_target_diamondcircles.svg	8	yes	44	1	497
6.6.1	win	2022-12-14	13:46:58	13:54:14	434246	5d8a29c082fec30001d9c24a	624325669	1	practice_z	9	advance_on_keypress_ZEE	16	stimuli_distractor_diamondtriangles.svg	stimuli_target_diamondcircles.svg	8	yes	57	0	283
6.6.1	win	2022-12-14	13:46:58	13:54:16	436855	5d8a29c082fec30001d9c24a	624325669	1	practice_z	9	practice_z	17	stimuli_target_diamondsquares.svg	stimuli_distractor_trianglediamonds.svg	6	yes	44	1	687
6.6.1	win	2022-12-14	13:46:58	13:54:16	436855	5d8a29c082fec30001d9c24a	624325669	1	practice_z	9	advance_on_keypress_ZEE	18	stimuli_target_diamondsquares.svg	stimuli_distractor_trianglediamonds.svg	6	yes	57	0	81
6.6.1	win	2022-12-14	13:46:58	13:54:20	440586	5d8a29c082fec30001d9c24a	624325669	1	practice_z	9	practice_z	19	stimuli_distractor_trianglediamonds.svg	stimuli_distractor_trianglediamonds.svg	15	no	0	1	2000
6.6.1	win	2022-12-14	13:46:58	13:54:20	440586	5d8a29c082fec30001d9c24a	624325669	1	practice_z	9	advance_on_keypress_ZEE	20	stimuli_distractor_trianglediamonds.svg	stimuli_distractor_trianglediamonds.svg	15	no	57	0	313
6.6.1	win	2022-12-14	13:46:58	13:54:22	442953	5d8a29c082fec30001d9c24a	624325669	1	practice_z	9	practice_z	21	stimuli_target_squarediamonds.svg	stimuli_distractor_diamondtriangles.svg	2	yes	44	1	420
6.6.1	win	2022-12-14	13:46:58	13:54:22	442953	5d8a29c082fec30001d9c24a	624325669	1	practice_z	9	advance_on_keypress_ZEE	22	stimuli_target_squarediamonds.svg	stimuli_distractor_diamondtriangles.svg	2	yes	57	0	316
6.6.1	win	2022-12-14	13:46:58	13:54:25	445435	5d8a29c082fec30001d9c24a	624325669	1	practice_z	9	practice_z	23	stimuli_target_circlediamonds.svg	stimuli_distractor_diamondtriangles.svg	1	yes	44	1	508
6.6.1	win	2022-12-14	13:46:58	13:54:25	445435	5d8a29c082fec30001d9c24a	624325669	1	practice_z	9	advance_on_keypress_ZEE	24	stimuli_target_circlediamonds.svg	stimuli_distractor_diamondtriangles.svg	1	yes	57	0	307
6.6.1	win	2022-12-14	13:46:58	13:54:28	448233	5d8a29c082fec30001d9c24a	624325669	1	practice_z	9	practice_z	25	stimuli_distractor_diamondtriangles.svg	stimuli_distractor_trianglediamonds.svg	14	no	44	0	832
6.6.1	win	2022-12-14	13:46:58	13:54:28	448233	5d8a29c082fec30001d9c24a	624325669	1	practice_z	9	advance_on_keypress_ZEE	26	stimuli_distractor_diamondtriangles.svg	stimuli_distractor_trianglediamonds.svg	14	no	57	0	477
6.6.1	win	2022-12-14	13:46:58	13:54:31	451085	5d8a29c082fec30001d9c24a	624325669	1	practice_z	9	practice_z	27	stimuli_target_diamondsquares.svg	stimuli_distractor_diamondtriangles.svg	3	yes	44	1	735
6.6.1	win	2022-12-14	13:46:58	13:54:31	451085	5d8a29c082fec30001d9c24a	624325669	1	practice_z	9	advance_on_keypress_ZEE	28	stimuli_target_diamondsquares.svg	stimuli_distractor_diamondtriangles.svg	3	yes	57	0	289
6.6.1	win	2022-12-14	13:46:58	13:54:33	453574	5d8a29c082fec30001d9c24a	624325669	1	practice_z	9	practice_z	29	stimuli_target_squarediamonds.svg	stimuli_distractor_trianglediamonds.svg	5	yes	44	1	556
6.6.1	win	2022-12-14	13:46:58	13:54:33	453574	5d8a29c082fec30001d9c24a	624325669	1	practice_z	9	advance_on_keypress_ZEE	30	stimuli_target_squarediamonds.svg	stimuli_distractor_trianglediamonds.svg	5	yes	57	0	156
6.6.1	win	2022-12-14	13:46:58	13:54:35	455878	5d8a29c082fec30001d9c24a	624325669	1	practice_z	9	practice_z	31	stimuli_distractor_trianglediamonds.svg	stimuli_target_squarediamonds.svg	11	yes	44	1	493
6.6.1	win	2022-12-14	13:46:58	13:54:35	455878	5d8a29c082fec30001d9c24a	624325669	1	practice_z	9	advance_on_keypress_ZEE	32	stimuli_distractor_trianglediamonds.svg	stimuli_target_squarediamonds.svg	11	yes	57	0	282
6.6.1	win	2022-12-14	13:46:58	13:54:39	459157	5d8a29c082fec30001d9c24a	624325669	1	main_z	11	main_z	1	stimuli_target_circlediamonds.svg	stimuli_distractor_trianglediamonds.svg	2	yes	44	1	390
6.6.1	win	2022-12-14	13:46:58	13:54:39	459157	5d8a29c082fec30001d9c24a	624325669	1	main_z	11	advance_on_keypress_ZEE	2	stimuli_target_circlediamonds.svg	stimuli_distractor_trianglediamonds.svg	2	yes	57	0	630
6.6.1	win	2022-12-14	13:46:58	13:54:42	462433	5d8a29c082fec30001d9c24a	624325669	1	main_z	11	main_z	3	stimuli_distractor_diamondtriangles.svg	stimuli_distractor_trianglediamonds.svg	37	no	0	1	2000
6.6.1	win	2022-12-14	13:46:58	13:54:42	462433	5d8a29c082fec30001d9c24a	624325669	1	main_z	11	advance_on_keypress_ZEE	4	stimuli_distractor_diamondtriangles.svg	stimuli_distractor_trianglediamonds.svg	37	no	57	0	315
6.6.1	win	2022-12-14	13:46:58	13:54:44	463997	5d8a29c082fec30001d9c24a	624325669	1	main_z	11	main_z	5	stimuli_distractor_trianglediamonds.svg	stimuli_target_trianglecircles.svg	25	yes	44	1	597
6.6.1	win	2022-12-14	13:46:58	13:54:44	463997	5d8a29c082fec30001d9c24a	624325669	1	main_z	11	advance_on_keypress_ZEE	6	stimuli_distractor_trianglediamonds.svg	stimuli_target_trianglecircles.svg	25	yes	57	0	525
6.6.1	win	2022-12-14	13:46:58	13:54:45	465666	5d8a29c082fec30001d9c24a	624325669	1	main_z	11	main_z	7	stimuli_target_squarediamonds.svg	stimuli_distractor_trianglediamonds.svg	4	yes	44	1	505
6.6.1	win	2022-12-14	13:46:58	13:54:45	465666	5d8a29c082fec30001d9c24a	624325669	1	main_z	11	advance_on_keypress_ZEE	8	stimuli_target_squarediamonds.svg	stimuli_distractor_trianglediamonds.svg	4	yes	57	0	469
6.6.1	win	2022-12-14	13:46:58	13:54:47	467402	5d8a29c082fec30001d9c24a	624325669	1	main_z	11	main_z	9	stimuli_target_diamondcircles.svg	stimuli_distractor_trianglediamonds.svg	19	yes	44	1	619
6.6.1	win	2022-12-14	13:46:58	13:54:47	467402	5d8a29c082fec30001d9c24a	624325669	1	main_z	11	advance_on_keypress_ZEE	10	stimuli_target_diamondcircles.svg	stimuli_distractor_trianglediamonds.svg	19	yes	57	0	474
6.6.1	win	2022-12-14	13:46:58	13:54:50	470517	5d8a29c082fec30001d9c24a	624325669	1	main_z	11	main_z	11	stimuli_distractor_trianglediamonds.svg	stimuli_distractor_trianglediamonds.svg	34	no	0	1	2000
6.6.1	win	2022-12-14	13:46:58	13:54:50	470517	5d8a29c082fec30001d9c24a	624325669	1	main_z	11	advance_on_keypress_ZEE	12	stimuli_distractor_trianglediamonds.svg	stimuli_distractor_trianglediamonds.svg	34	no	57	0	363
6.6.1	win	2022-12-14	13:46:58	13:54:52	472205	5d8a29c082fec30001d9c24a	624325669	1	main_z	11	main_z	13	stimuli_distractor_diamondtriangles.svg	stimuli_target_diamondsquares.svg	32	yes	44	1	688
6.6.1	win	2022-12-14	13:46:58	13:54:52	472205	5d8a29c082fec30001d9c24a	624325669	1	main_z	11	advance_on_keypress_ZEE	14	stimuli_distractor_diamondtriangles.svg	stimuli_target_diamondsquares.svg	32	yes	57	0	496
6.6.1	win	2022-12-14	13:46:58	13:54:54	474012	5d8a29c082fec30001d9c24a	624325669	1	main_z	11	main_z	15	stimuli_target_diamondsquares.svg	stimuli_distractor_trianglediamonds.svg	20	yes	44	1	663
6.6.1	win	2022-12-14	13:46:58	13:54:54	474012	5d8a29c082fec30001d9c24a	624325669	1	main_z	11	advance_on_keypress_ZEE	16	stimuli_target_diamondsquares.svg	stimuli_distractor_trianglediamonds.svg	20	yes	57	0	470
6.6.1	win	2022-12-14	13:46:58	13:54:55	475922	5d8a29c082fec30001d9c24a	624325669	1	main_z	11	main_z	17	stimuli_target_squaretriangles.svg	stimuli_distractor_trianglediamonds.svg	3	yes	44	1	806
6.6.1	win	2022-12-14	13:46:58	13:54:55	475922	5d8a29c082fec30001d9c24a	624325669	1	main_z	11	advance_on_keypress_ZEE	18	stimuli_target_squaretriangles.svg	stimuli_distractor_trianglediamonds.svg	3	yes	57	0	897
6.6.1	win	2022-12-14	13:46:58	13:54:58	478553	5d8a29c082fec30001d9c24a	624325669	1	main_z	11	main_z	19	stimuli_target_trianglecircles.svg	stimuli_distractor_trianglediamonds.svg	17	yes	44	1	1103
6.6.1	win	2022-12-14	13:46:58	13:54:58	478553	5d8a29c082fec30001d9c24a	624325669	1	main_z	11	advance_on_keypress_ZEE	20	stimuli_target_trianglecircles.svg	stimuli_distractor_trianglediamonds.svg	17	yes	57	0	530
6.6.1	win	2022-12-14	13:46:58	13:55:00	480334	5d8a29c082fec30001d9c24a	624325669	1	main_z	11	main_z	21	stimuli_distractor_diamondtriangles.svg	stimuli_target_squaretriangles.svg	15	yes	44	1	599
6.6.1	win	2022-12-14	13:46:58	13:55:00	480334	5d8a29c082fec30001d9c24a	624325669	1	main_z	11	advance_on_keypress_ZEE	22	stimuli_distractor_diamondtriangles.svg	stimuli_target_squaretriangles.svg	15	yes	57	0	515
6.6.1	win	2022-12-14	13:46:58	13:55:02	482100	5d8a29c082fec30001d9c24a	624325669	1	main_z	11	main_z	23	stimuli_distractor_diamondtriangles.svg	stimuli_target_circlediamonds.svg	14	yes	44	1	595
6.6.1	win	2022-12-14	13:46:58	13:55:02	482100	5d8a29c082fec30001d9c24a	624325669	1	main_z	11	advance_on_keypress_ZEE	24	stimuli_distractor_diamondtriangles.svg	stimuli_target_circlediamonds.svg	14	yes	57	0	788
6.6.1	win	2022-12-14	13:46:58	13:55:04	484230	5d8a29c082fec30001d9c24a	624325669	1	main_z	11	main_z	25	stimuli_target_trianglesquares.svg	stimuli_distractor_diamondtriangles.svg	22	yes	44	1	697
6.6.1	win	2022-12-14	13:46:58	13:55:04	484230	5d8a29c082fec30001d9c24a	624325669	1	main_z	11	advance_on_keypress_ZEE	26	stimuli_target_trianglesquares.svg	stimuli_distractor_diamondtriangles.svg	22	yes	57	0	685
6.6.1	win	2022-12-14	13:46:58	13:55:07	487552	5d8a29c082fec30001d9c24a	624325669	1	main_z	11	main_z	27	stimuli_distractor_diamondtriangles.svg	stimuli_distractor_diamondtriangles.svg	39	no	0	1	2000
6.6.1	win	2022-12-14	13:46:58	13:55:07	487552	5d8a29c082fec30001d9c24a	624325669	1	main_z	11	advance_on_keypress_ZEE	28	stimuli_distractor_diamondtriangles.svg	stimuli_distractor_diamondtriangles.svg	39	no	57	0	280
6.6.1	win	2022-12-14	13:46:58	13:55:09	488962	5d8a29c082fec30001d9c24a	624325669	1	main_z	11	main_z	29	stimuli_target_trianglesquares.svg	stimuli_distractor_trianglediamonds.svg	18	yes	44	1	496
6.6.1	win	2022-12-14	13:46:58	13:55:09	488962	5d8a29c082fec30001d9c24a	624325669	1	main_z	11	advance_on_keypress_ZEE	30	stimuli_target_trianglesquares.svg	stimuli_distractor_trianglediamonds.svg	18	yes	57	0	502
6.6.1	win	2022-12-14	13:46:58	13:55:10	490943	5d8a29c082fec30001d9c24a	624325669	1	main_z	11	main_z	31	stimuli_distractor_trianglediamonds.svg	stimuli_target_diamondsquares.svg	28	yes	44	1	842
6.6.1	win	2022-12-14	13:46:58	13:55:10	490943	5d8a29c082fec30001d9c24a	624325669	1	main_z	11	advance_on_keypress_ZEE	32	stimuli_distractor_trianglediamonds.svg	stimuli_target_diamondsquares.svg	28	yes	57	0	559
6.6.1	win	2022-12-14	13:46:58	13:55:12	492802	5d8a29c082fec30001d9c24a	624325669	1	main_z	11	main_z	33	stimuli_distractor_trianglediamonds.svg	stimuli_distractor_diamondtriangles.svg	35	no	44	0	667
6.6.1	win	2022-12-14	13:46:58	13:55:12	492802	5d8a29c082fec30001d9c24a	624325669	1	main_z	11	advance_on_keypress_ZEE	34	stimuli_distractor_trianglediamonds.svg	stimuli_distractor_diamondtriangles.svg	35	no	57	0	1118
6.6.1	win	2022-12-14	13:46:58	13:55:15	495222	5d8a29c082fec30001d9c24a	624325669	1	main_z	11	main_z	35	stimuli_distractor_trianglediamonds.svg	stimuli_target_circlediamonds.svg	10	yes	44	1	622
6.6.1	win	2022-12-14	13:46:58	13:55:15	495222	5d8a29c082fec30001d9c24a	624325669	1	main_z	11	advance_on_keypress_ZEE	36	stimuli_distractor_trianglediamonds.svg	stimuli_target_circlediamonds.svg	10	yes	57	0	513
6.6.1	win	2022-12-14	13:46:58	13:55:16	496954	5d8a29c082fec30001d9c24a	624325669	1	main_z	11	main_z	37	stimuli_distractor_trianglediamonds.svg	stimuli_target_squarediamonds.svg	12	yes	44	1	561
6.6.1	win	2022-12-14	13:46:58	13:55:16	496954	5d8a29c082fec30001d9c24a	624325669	1	main_z	11	advance_on_keypress_ZEE	38	stimuli_distractor_trianglediamonds.svg	stimuli_target_squarediamonds.svg	12	yes	57	0	560
6.6.1	win	2022-12-14	13:46:58	13:55:18	498932	5d8a29c082fec30001d9c24a	624325669	1	main_z	11	main_z	39	stimuli_distractor_trianglediamonds.svg	stimuli_target_trianglesquares.svg	26	yes	44	1	782
6.6.1	win	2022-12-14	13:46:58	13:55:18	498932	5d8a29c082fec30001d9c24a	624325669	1	main_z	11	advance_on_keypress_ZEE	40	stimuli_distractor_trianglediamonds.svg	stimuli_target_trianglesquares.svg	26	yes	57	0	424
6.6.1	win	2022-12-14	13:46:58	13:55:20	500657	5d8a29c082fec30001d9c24a	624325669	1	main_z	11	main_z	41	stimuli_target_diamondsquares.svg	stimuli_distractor_diamondtriangles.svg	24	yes	44	1	656
6.6.1	win	2022-12-14	13:46:58	13:55:20	500657	5d8a29c082fec30001d9c24a	624325669	1	main_z	11	advance_on_keypress_ZEE	42	stimuli_target_diamondsquares.svg	stimuli_distractor_diamondtriangles.svg	24	yes	57	0	600
6.6.1	win	2022-12-14	13:46:58	13:55:22	502735	5d8a29c082fec30001d9c24a	624325669	1	main_z	11	main_z	43	stimuli_target_squarediamonds.svg	stimuli_distractor_diamondtriangles.svg	8	yes	44	1	822
6.6.1	win	2022-12-14	13:46:58	13:55:22	502735	5d8a29c082fec30001d9c24a	624325669	1	main_z	11	advance_on_keypress_ZEE	44	stimuli_target_squarediamonds.svg	stimuli_distractor_diamondtriangles.svg	8	yes	57	0	460
6.6.1	win	2022-12-14	13:46:58	13:55:24	504570	5d8a29c082fec30001d9c24a	624325669	1	main_z	11	main_z	45	stimuli_target_trianglecircles.svg	stimuli_distractor_diamondtriangles.svg	21	yes	44	1	718
6.6.1	win	2022-12-14	13:46:58	13:55:24	504570	5d8a29c082fec30001d9c24a	624325669	1	main_z	11	advance_on_keypress_ZEE	46	stimuli_target_trianglecircles.svg	stimuli_distractor_diamondtriangles.svg	21	yes	57	0	439
6.6.1	win	2022-12-14	13:46:58	13:55:27	507667	5d8a29c082fec30001d9c24a	624325669	1	main_z	11	main_z	47	stimuli_distractor_diamondtriangles.svg	stimuli_distractor_diamondtriangles.svg	40	no	0	1	2000
6.6.1	win	2022-12-14	13:46:58	13:55:27	507667	5d8a29c082fec30001d9c24a	624325669	1	main_z	11	advance_on_keypress_ZEE	48	stimuli_distractor_diamondtriangles.svg	stimuli_distractor_diamondtriangles.svg	40	no	57	0	293
6.6.1	win	2022-12-14	13:46:58	13:55:30	510602	5d8a29c082fec30001d9c24a	624325669	1	main_z	11	main_z	49	stimuli_distractor_trianglediamonds.svg	stimuli_distractor_trianglediamonds.svg	33	no	0	1	2000
6.6.1	win	2022-12-14	13:46:58	13:55:30	510602	5d8a29c082fec30001d9c24a	624325669	1	main_z	11	advance_on_keypress_ZEE	50	stimuli_distractor_trianglediamonds.svg	stimuli_distractor_trianglediamonds.svg	33	no	57	0	304
6.6.1	win	2022-12-14	13:46:58	13:55:32	511991	5d8a29c082fec30001d9c24a	624325669	1	main_z	11	main_z	51	stimuli_distractor_diamondtriangles.svg	stimuli_target_trianglecircles.svg	29	yes	44	1	432
6.6.1	win	2022-12-14	13:46:58	13:55:32	511991	5d8a29c082fec30001d9c24a	624325669	1	main_z	11	advance_on_keypress_ZEE	52	stimuli_distractor_diamondtriangles.svg	stimuli_target_trianglecircles.svg	29	yes	57	0	450
6.6.1	win	2022-12-14	13:46:58	13:55:35	515099	5d8a29c082fec30001d9c24a	624325669	1	main_z	11	main_z	53	stimuli_distractor_trianglediamonds.svg	stimuli_distractor_diamondtriangles.svg	36	no	0	1	2000
6.6.1	win	2022-12-14	13:46:58	13:55:35	515099	5d8a29c082fec30001d9c24a	624325669	1	main_z	11	advance_on_keypress_ZEE	54	stimuli_distractor_trianglediamonds.svg	stimuli_distractor_diamondtriangles.svg	36	no	57	0	437
6.6.1	win	2022-12-14	13:46:58	13:55:38	518198	5d8a29c082fec30001d9c24a	624325669	1	main_z	11	main_z	55	stimuli_distractor_diamondtriangles.svg	stimuli_distractor_trianglediamonds.svg	38	no	0	1	2000
6.6.1	win	2022-12-14	13:46:58	13:55:38	518198	5d8a29c082fec30001d9c24a	624325669	1	main_z	11	advance_on_keypress_ZEE	56	stimuli_distractor_diamondtriangles.svg	stimuli_distractor_trianglediamonds.svg	38	no	57	0	294
6.6.1	win	2022-12-14	13:46:58	13:55:39	519596	5d8a29c082fec30001d9c24a	624325669	1	main_z	11	main_z	57	stimuli_distractor_diamondtriangles.svg	stimuli_target_squarediamonds.svg	16	yes	44	1	479
6.6.1	win	2022-12-14	13:46:58	13:55:39	519596	5d8a29c082fec30001d9c24a	624325669	1	main_z	11	advance_on_keypress_ZEE	58	stimuli_distractor_diamondtriangles.svg	stimuli_target_squarediamonds.svg	16	yes	57	0	430
6.6.1	win	2022-12-14	13:46:58	13:55:41	521268	5d8a29c082fec30001d9c24a	624325669	1	main_z	11	main_z	59	stimuli_target_diamondcircles.svg	stimuli_distractor_diamondtriangles.svg	23	yes	44	1	618
6.6.1	win	2022-12-14	13:46:58	13:55:41	521268	5d8a29c082fec30001d9c24a	624325669	1	main_z	11	advance_on_keypress_ZEE	60	stimuli_target_diamondcircles.svg	stimuli_distractor_diamondtriangles.svg	23	yes	57	0	393
6.6.1	win	2022-12-14	13:46:58	13:55:42	522883	5d8a29c082fec30001d9c24a	624325669	1	main_z	11	main_z	61	stimuli_distractor_trianglediamonds.svg	stimuli_target_squaretriangles.svg	11	yes	44	1	582
6.6.1	win	2022-12-14	13:46:58	13:55:42	522883	5d8a29c082fec30001d9c24a	624325669	1	main_z	11	advance_on_keypress_ZEE	62	stimuli_distractor_trianglediamonds.svg	stimuli_target_squaretriangles.svg	11	yes	57	0	430
6.6.1	win	2022-12-14	13:46:58	13:55:44	524554	5d8a29c082fec30001d9c24a	624325669	1	main_z	11	main_z	63	stimuli_target_circletriangles.svg	stimuli_distractor_trianglediamonds.svg	1	yes	44	1	587
6.6.1	win	2022-12-14	13:46:58	13:55:44	524554	5d8a29c082fec30001d9c24a	624325669	1	main_z	11	advance_on_keypress_ZEE	64	stimuli_target_circletriangles.svg	stimuli_distractor_trianglediamonds.svg	1	yes	57	0	437
6.6.1	win	2022-12-14	13:46:58	13:55:46	526250	5d8a29c082fec30001d9c24a	624325669	1	main_z	11	main_z	65	stimuli_target_circlediamonds.svg	stimuli_distractor_diamondtriangles.svg	6	yes	44	1	617
6.6.1	win	2022-12-14	13:46:58	13:55:46	526250	5d8a29c082fec30001d9c24a	624325669	1	main_z	11	advance_on_keypress_ZEE	66	stimuli_target_circlediamonds.svg	stimuli_distractor_diamondtriangles.svg	6	yes	57	0	393
6.6.1	win	2022-12-14	13:46:58	13:55:48	528143	5d8a29c082fec30001d9c24a	624325669	1	main_z	11	main_z	67	stimuli_distractor_diamondtriangles.svg	stimuli_target_trianglesquares.svg	30	yes	44	1	859
6.6.1	win	2022-12-14	13:46:58	13:55:48	528143	5d8a29c082fec30001d9c24a	624325669	1	main_z	11	advance_on_keypress_ZEE	68	stimuli_distractor_diamondtriangles.svg	stimuli_target_trianglesquares.svg	30	yes	57	0	392
6.6.1	win	2022-12-14	13:46:58	13:55:49	529643	5d8a29c082fec30001d9c24a	624325669	1	main_z	11	main_z	69	stimuli_distractor_trianglediamonds.svg	stimuli_target_circletriangles.svg	9	yes	44	1	475
6.6.1	win	2022-12-14	13:46:58	13:55:49	529643	5d8a29c082fec30001d9c24a	624325669	1	main_z	11	advance_on_keypress_ZEE	70	stimuli_distractor_trianglediamonds.svg	stimuli_target_circletriangles.svg	9	yes	57	0	398
6.6.1	win	2022-12-14	13:46:58	13:55:51	531156	5d8a29c082fec30001d9c24a	624325669	1	main_z	11	main_z	71	stimuli_distractor_diamondtriangles.svg	stimuli_target_circletriangles.svg	13	yes	44	1	473
6.6.1	win	2022-12-14	13:46:58	13:55:51	531156	5d8a29c082fec30001d9c24a	624325669	1	main_z	11	advance_on_keypress_ZEE	72	stimuli_distractor_diamondtriangles.svg	stimuli_target_circletriangles.svg	13	yes	57	0	393
6.6.1	win	2022-12-14	13:46:58	13:55:52	532656	5d8a29c082fec30001d9c24a	624325669	1	main_z	11	main_z	73	stimuli_target_circletriangles.svg	stimuli_distractor_diamondtriangles.svg	5	yes	44	1	473
6.6.1	win	2022-12-14	13:46:58	13:55:52	532656	5d8a29c082fec30001d9c24a	624325669	1	main_z	11	advance_on_keypress_ZEE	74	stimuli_target_circletriangles.svg	stimuli_distractor_diamondtriangles.svg	5	yes	57	0	361
6.6.1	win	2022-12-14	13:46:58	13:55:54	534113	5d8a29c082fec30001d9c24a	624325669	1	main_z	11	main_z	75	stimuli_distractor_diamondtriangles.svg	stimuli_target_diamondcircles.svg	31	yes	44	1	462
6.6.1	win	2022-12-14	13:46:58	13:55:54	534113	5d8a29c082fec30001d9c24a	624325669	1	main_z	11	advance_on_keypress_ZEE	76	stimuli_distractor_diamondtriangles.svg	stimuli_target_diamondcircles.svg	31	yes	57	0	471
6.6.1	win	2022-12-14	13:46:58	13:55:55	535681	5d8a29c082fec30001d9c24a	624325669	1	main_z	11	main_z	77	stimuli_distractor_trianglediamonds.svg	stimuli_target_diamondcircles.svg	27	yes	44	1	459
6.6.1	win	2022-12-14	13:46:58	13:55:55	535681	5d8a29c082fec30001d9c24a	624325669	1	main_z	11	advance_on_keypress_ZEE	78	stimuli_distractor_trianglediamonds.svg	stimuli_target_diamondcircles.svg	27	yes	57	0	361
6.6.1	win	2022-12-14	13:46:58	13:55:57	537201	5d8a29c082fec30001d9c24a	624325669	1	main_z	11	main_z	79	stimuli_target_squaretriangles.svg	stimuli_distractor_diamondtriangles.svg	7	yes	44	1	511
6.6.1	win	2022-12-14	13:46:58	13:55:57	537201	5d8a29c082fec30001d9c24a	624325669	1	main_z	11	advance_on_keypress_ZEE	80	stimuli_target_squaretriangles.svg	stimuli_distractor_diamondtriangles.svg	7	yes	57	0	323
6.6.1	win	2022-12-14	13:46:58	13:55:58	538741	5d8a29c082fec30001d9c24a	624325669	1	main_z	11	main_z	81	stimuli_distractor_diamondtriangles.svg	stimuli_target_trianglecircles.svg	29	yes	44	1	573
6.6.1	win	2022-12-14	13:46:58	13:55:58	538741	5d8a29c082fec30001d9c24a	624325669	1	main_z	11	advance_on_keypress_ZEE	82	stimuli_distractor_diamondtriangles.svg	stimuli_target_trianglecircles.svg	29	yes	57	0	334
6.6.1	win	2022-12-14	13:46:58	13:56:00	540234	5d8a29c082fec30001d9c24a	624325669	1	main_z	11	main_z	83	stimuli_target_circletriangles.svg	stimuli_distractor_diamondtriangles.svg	5	yes	44	1	507
6.6.1	win	2022-12-14	13:46:58	13:56:00	540234	5d8a29c082fec30001d9c24a	624325669	1	main_z	11	advance_on_keypress_ZEE	84	stimuli_target_circletriangles.svg	stimuli_distractor_diamondtriangles.svg	5	yes	57	0	294
6.6.1	win	2022-12-14	13:46:58	13:56:01	541717	5d8a29c082fec30001d9c24a	624325669	1	main_z	11	main_z	85	stimuli_distractor_diamondtriangles.svg	stimuli_target_squaretriangles.svg	15	yes	44	1	516
6.6.1	win	2022-12-14	13:46:58	13:56:01	541717	5d8a29c082fec30001d9c24a	624325669	1	main_z	11	advance_on_keypress_ZEE	86	stimuli_distractor_diamondtriangles.svg	stimuli_target_squaretriangles.svg	15	yes	57	0	258
6.6.1	win	2022-12-14	13:46:58	13:56:04	544617	5d8a29c082fec30001d9c24a	624325669	1	main_z	11	main_z	87	stimuli_distractor_diamondtriangles.svg	stimuli_distractor_diamondtriangles.svg	40	no	0	1	2000
6.6.1	win	2022-12-14	13:46:58	13:56:04	544617	5d8a29c082fec30001d9c24a	624325669	1	main_z	11	advance_on_keypress_ZEE	88	stimuli_distractor_diamondtriangles.svg	stimuli_distractor_diamondtriangles.svg	40	no	57	0	308
6.6.1	win	2022-12-14	13:46:58	13:56:06	546084	5d8a29c082fec30001d9c24a	624325669	1	main_z	11	main_z	89	stimuli_target_circletriangles.svg	stimuli_distractor_trianglediamonds.svg	1	yes	44	1	503
6.6.1	win	2022-12-14	13:46:58	13:56:06	546084	5d8a29c082fec30001d9c24a	624325669	1	main_z	11	advance_on_keypress_ZEE	90	stimuli_target_circletriangles.svg	stimuli_distractor_trianglediamonds.svg	1	yes	57	0	282
6.6.1	win	2022-12-14	13:46:58	13:56:07	547473	5d8a29c082fec30001d9c24a	624325669	1	main_z	11	main_z	91	stimuli_distractor_trianglediamonds.svg	stimuli_target_trianglecircles.svg	25	yes	44	1	455
6.6.1	win	2022-12-14	13:46:58	13:56:07	547473	5d8a29c082fec30001d9c24a	624325669	1	main_z	11	advance_on_keypress_ZEE	92	stimuli_distractor_trianglediamonds.svg	stimuli_target_trianglecircles.svg	25	yes	57	0	318
6.6.1	win	2022-12-14	13:46:58	13:56:09	549116	5d8a29c082fec30001d9c24a	624325669	1	main_z	11	main_z	93	stimuli_distractor_trianglediamonds.svg	stimuli_target_diamondsquares.svg	28	yes	44	1	674
6.6.1	win	2022-12-14	13:46:58	13:56:09	549116	5d8a29c082fec30001d9c24a	624325669	1	main_z	11	advance_on_keypress_ZEE	94	stimuli_distractor_trianglediamonds.svg	stimuli_target_diamondsquares.svg	28	yes	57	0	316
6.6.1	win	2022-12-14	13:46:58	13:56:10	550603	5d8a29c082fec30001d9c24a	624325669	1	main_z	11	main_z	95	stimuli_target_diamondsquares.svg	stimuli_distractor_trianglediamonds.svg	20	yes	44	1	506
6.6.1	win	2022-12-14	13:46:58	13:56:10	550603	5d8a29c082fec30001d9c24a	624325669	1	main_z	11	advance_on_keypress_ZEE	96	stimuli_target_diamondsquares.svg	stimuli_distractor_trianglediamonds.svg	20	yes	57	0	291
6.6.1	win	2022-12-14	13:46:58	13:56:12	552078	5d8a29c082fec30001d9c24a	624325669	1	main_z	11	main_z	97	stimuli_distractor_trianglediamonds.svg	stimuli_target_squaretriangles.svg	11	yes	44	1	544
6.6.1	win	2022-12-14	13:46:58	13:56:12	552078	5d8a29c082fec30001d9c24a	624325669	1	main_z	11	advance_on_keypress_ZEE	98	stimuli_distractor_trianglediamonds.svg	stimuli_target_squaretriangles.svg	11	yes	57	0	292
6.6.1	win	2022-12-14	13:46:58	13:56:13	553482	5d8a29c082fec30001d9c24a	624325669	1	main_z	11	main_z	99	stimuli_target_trianglecircles.svg	stimuli_distractor_diamondtriangles.svg	21	yes	44	1	482
6.6.1	win	2022-12-14	13:46:58	13:56:13	553482	5d8a29c082fec30001d9c24a	624325669	1	main_z	11	advance_on_keypress_ZEE	100	stimuli_target_trianglecircles.svg	stimuli_distractor_diamondtriangles.svg	21	yes	57	0	302
6.6.1	win	2022-12-14	13:46:58	13:56:15	554963	5d8a29c082fec30001d9c24a	624325669	1	main_z	11	main_z	101	stimuli_target_trianglesquares.svg	stimuli_distractor_diamondtriangles.svg	22	yes	44	1	528
6.6.1	win	2022-12-14	13:46:58	13:56:15	554963	5d8a29c082fec30001d9c24a	624325669	1	main_z	11	advance_on_keypress_ZEE	102	stimuli_target_trianglesquares.svg	stimuli_distractor_diamondtriangles.svg	22	yes	57	0	283
6.6.1	win	2022-12-14	13:46:58	13:56:16	556436	5d8a29c082fec30001d9c24a	624325669	1	main_z	11	main_z	103	stimuli_target_squarediamonds.svg	stimuli_distractor_diamondtriangles.svg	8	yes	44	1	542
6.6.1	win	2022-12-14	13:46:58	13:56:16	556436	5d8a29c082fec30001d9c24a	624325669	1	main_z	11	advance_on_keypress_ZEE	104	stimuli_target_squarediamonds.svg	stimuli_distractor_diamondtriangles.svg	8	yes	57	0	270
6.6.1	win	2022-12-14	13:46:58	13:56:17	557834	5d8a29c082fec30001d9c24a	624325669	1	main_z	11	main_z	105	stimuli_target_diamondcircles.svg	stimuli_distractor_diamondtriangles.svg	23	yes	44	1	467
6.6.1	win	2022-12-14	13:46:58	13:56:17	557834	5d8a29c082fec30001d9c24a	624325669	1	main_z	11	advance_on_keypress_ZEE	106	stimuli_target_diamondcircles.svg	stimuli_distractor_diamondtriangles.svg	23	yes	57	0	314
6.6.1	win	2022-12-14	13:46:58	13:56:19	559301	5d8a29c082fec30001d9c24a	624325669	1	main_z	11	main_z	107	stimuli_distractor_trianglediamonds.svg	stimuli_target_squarediamonds.svg	12	yes	44	1	502
6.6.1	win	2022-12-14	13:46:58	13:56:19	559301	5d8a29c082fec30001d9c24a	624325669	1	main_z	11	advance_on_keypress_ZEE	108	stimuli_distractor_trianglediamonds.svg	stimuli_target_squarediamonds.svg	12	yes	57	0	255
6.6.1	win	2022-12-14	13:46:58	13:56:22	562203	5d8a29c082fec30001d9c24a	624325669	1	main_z	11	main_z	109	stimuli_distractor_trianglediamonds.svg	stimuli_distractor_diamondtriangles.svg	35	no	0	1	2000
6.6.1	win	2022-12-14	13:46:58	13:56:22	562203	5d8a29c082fec30001d9c24a	624325669	1	main_z	11	advance_on_keypress_ZEE	110	stimuli_distractor_trianglediamonds.svg	stimuli_distractor_diamondtriangles.svg	35	no	57	0	345
6.6.1	win	2022-12-14	13:46:58	13:56:24	564267	5d8a29c082fec30001d9c24a	624325669	1	main_z	11	main_z	111	stimuli_distractor_diamondtriangles.svg	stimuli_distractor_trianglediamonds.svg	38	no	44	0	1082
6.6.1	win	2022-12-14	13:46:58	13:56:24	564267	5d8a29c082fec30001d9c24a	624325669	1	main_z	11	advance_on_keypress_ZEE	112	stimuli_distractor_diamondtriangles.svg	stimuli_distractor_trianglediamonds.svg	38	no	57	0	388
6.6.1	win	2022-12-14	13:46:58	13:56:26	566028	5d8a29c082fec30001d9c24a	624325669	1	main_z	11	main_z	113	stimuli_distractor_trianglediamonds.svg	stimuli_target_trianglesquares.svg	26	yes	44	1	709
6.6.1	win	2022-12-14	13:46:58	13:56:26	566028	5d8a29c082fec30001d9c24a	624325669	1	main_z	11	advance_on_keypress_ZEE	114	stimuli_distractor_trianglediamonds.svg	stimuli_target_trianglesquares.svg	26	yes	57	0	284
6.6.1	win	2022-12-14	13:46:58	13:56:27	567464	5d8a29c082fec30001d9c24a	624325669	1	main_z	11	main_z	115	stimuli_distractor_trianglediamonds.svg	stimuli_target_circletriangles.svg	9	yes	44	1	497
6.6.1	win	2022-12-14	13:46:58	13:56:27	567464	5d8a29c082fec30001d9c24a	624325669	1	main_z	11	advance_on_keypress_ZEE	116	stimuli_distractor_trianglediamonds.svg	stimuli_target_circletriangles.svg	9	yes	57	0	209
6.6.1	win	2022-12-14	13:46:58	13:56:30	570318	5d8a29c082fec30001d9c24a	624325669	1	main_z	11	main_z	117	stimuli_distractor_trianglediamonds.svg	stimuli_distractor_trianglediamonds.svg	34	no	0	1	2000
6.6.1	win	2022-12-14	13:46:58	13:56:30	570318	5d8a29c082fec30001d9c24a	624325669	1	main_z	11	advance_on_keypress_ZEE	118	stimuli_distractor_trianglediamonds.svg	stimuli_distractor_trianglediamonds.svg	34	no	57	0	308
6.6.1	win	2022-12-14	13:46:58	13:56:33	573271	5d8a29c082fec30001d9c24a	624325669	1	main_z	11	main_z	119	stimuli_distractor_trianglediamonds.svg	stimuli_distractor_trianglediamonds.svg	33	no	0	1	2000
6.6.1	win	2022-12-14	13:46:58	13:56:33	573271	5d8a29c082fec30001d9c24a	624325669	1	main_z	11	advance_on_keypress_ZEE	120	stimuli_distractor_trianglediamonds.svg	stimuli_distractor_trianglediamonds.svg	33	no	57	0	376
6.6.1	win	2022-12-14	13:46:58	13:56:34	574727	5d8a29c082fec30001d9c24a	624325669	1	main_z	11	main_z	121	stimuli_target_trianglesquares.svg	stimuli_distractor_trianglediamonds.svg	18	yes	44	1	411
6.6.1	win	2022-12-14	13:46:58	13:56:34	574727	5d8a29c082fec30001d9c24a	624325669	1	main_z	11	advance_on_keypress_ZEE	122	stimuli_target_trianglesquares.svg	stimuli_distractor_trianglediamonds.svg	18	yes	57	0	418
6.6.1	win	2022-12-14	13:46:58	13:56:36	576351	5d8a29c082fec30001d9c24a	624325669	1	main_z	11	main_z	123	stimuli_target_circlediamonds.svg	stimuli_distractor_trianglediamonds.svg	2	yes	44	1	566
6.6.1	win	2022-12-14	13:46:58	13:56:36	576351	5d8a29c082fec30001d9c24a	624325669	1	main_z	11	advance_on_keypress_ZEE	124	stimuli_target_circlediamonds.svg	stimuli_distractor_trianglediamonds.svg	2	yes	57	0	263
6.6.1	win	2022-12-14	13:46:58	13:56:37	577740	5d8a29c082fec30001d9c24a	624325669	1	main_z	11	main_z	125	stimuli_distractor_diamondtriangles.svg	stimuli_target_circlediamonds.svg	14	yes	44	1	489
6.6.1	win	2022-12-14	13:46:58	13:56:37	577740	5d8a29c082fec30001d9c24a	624325669	1	main_z	11	advance_on_keypress_ZEE	126	stimuli_distractor_diamondtriangles.svg	stimuli_target_circlediamonds.svg	14	yes	57	0	287
6.6.1	win	2022-12-14	13:46:58	13:56:39	579081	5d8a29c082fec30001d9c24a	624325669	1	main_z	11	main_z	127	stimuli_distractor_trianglediamonds.svg	stimuli_target_circlediamonds.svg	10	yes	44	1	413
6.6.1	win	2022-12-14	13:46:58	13:56:39	579081	5d8a29c082fec30001d9c24a	624325669	1	main_z	11	advance_on_keypress_ZEE	128	stimuli_distractor_trianglediamonds.svg	stimuli_target_circlediamonds.svg	10	yes	57	0	292
6.6.1	win	2022-12-14	13:46:58	13:56:40	580438	5d8a29c082fec30001d9c24a	624325669	1	main_z	11	main_z	129	stimuli_target_diamondsquares.svg	stimuli_distractor_diamondtriangles.svg	24	yes	44	1	429
6.6.1	win	2022-12-14	13:46:58	13:56:40	580438	5d8a29c082fec30001d9c24a	624325669	1	main_z	11	advance_on_keypress_ZEE	130	stimuli_target_diamondsquares.svg	stimuli_distractor_diamondtriangles.svg	24	yes	57	0	233
6.6.1	win	2022-12-14	13:46:58	13:56:41	581735	5d8a29c082fec30001d9c24a	624325669	1	main_z	11	main_z	131	stimuli_distractor_trianglediamonds.svg	stimuli_target_diamondcircles.svg	27	yes	44	1	400
6.6.1	win	2022-12-14	13:46:58	13:56:41	581735	5d8a29c082fec30001d9c24a	624325669	1	main_z	11	advance_on_keypress_ZEE	132	stimuli_distractor_trianglediamonds.svg	stimuli_target_diamondcircles.svg	27	yes	57	0	219
6.6.1	win	2022-12-14	13:46:58	13:56:43	583260	5d8a29c082fec30001d9c24a	624325669	1	main_z	11	main_z	133	stimuli_target_squarediamonds.svg	stimuli_distractor_trianglediamonds.svg	4	yes	44	1	659
6.6.1	win	2022-12-14	13:46:58	13:56:43	583260	5d8a29c082fec30001d9c24a	624325669	1	main_z	11	advance_on_keypress_ZEE	134	stimuli_target_squarediamonds.svg	stimuli_distractor_trianglediamonds.svg	4	yes	57	0	297
6.6.1	win	2022-12-14	13:46:58	13:56:44	584668	5d8a29c082fec30001d9c24a	624325669	1	main_z	11	main_z	135	stimuli_distractor_trianglediamonds.svg	stimuli_distractor_diamondtriangles.svg	36	no	44	0	484
6.6.1	win	2022-12-14	13:46:58	13:56:44	584668	5d8a29c082fec30001d9c24a	624325669	1	main_z	11	advance_on_keypress_ZEE	136	stimuli_distractor_trianglediamonds.svg	stimuli_distractor_diamondtriangles.svg	36	no	57	0	446
6.6.1	win	2022-12-14	13:46:58	13:56:46	586349	5d8a29c082fec30001d9c24a	624325669	1	main_z	11	main_z	137	stimuli_distractor_diamondtriangles.svg	stimuli_target_squarediamonds.svg	16	yes	44	1	597
6.6.1	win	2022-12-14	13:46:58	13:56:46	586349	5d8a29c082fec30001d9c24a	624325669	1	main_z	11	advance_on_keypress_ZEE	138	stimuli_distractor_diamondtriangles.svg	stimuli_target_squarediamonds.svg	16	yes	57	0	253
6.6.1	win	2022-12-14	13:46:58	13:56:47	587918	5d8a29c082fec30001d9c24a	624325669	1	main_z	11	main_z	139	stimuli_target_trianglecircles.svg	stimuli_distractor_trianglediamonds.svg	17	yes	44	1	670
6.6.1	win	2022-12-14	13:46:58	13:56:47	587918	5d8a29c082fec30001d9c24a	624325669	1	main_z	11	advance_on_keypress_ZEE	140	stimuli_target_trianglecircles.svg	stimuli_distractor_trianglediamonds.svg	17	yes	57	0	200
6.6.1	win	2022-12-14	13:46:58	13:56:49	589385	5d8a29c082fec30001d9c24a	624325669	1	main_z	11	main_z	141	stimuli_target_squaretriangles.svg	stimuli_distractor_diamondtriangles.svg	7	yes	44	1	596
6.6.1	win	2022-12-14	13:46:58	13:56:49	589385	5d8a29c082fec30001d9c24a	624325669	1	main_z	11	advance_on_keypress_ZEE	142	stimuli_target_squaretriangles.svg	stimuli_distractor_diamondtriangles.svg	7	yes	57	0	199
6.6.1	win	2022-12-14	13:46:58	13:56:52	592235	5d8a29c082fec30001d9c24a	624325669	1	main_z	11	main_z	143	stimuli_distractor_diamondtriangles.svg	stimuli_distractor_diamondtriangles.svg	39	no	0	1	2000
6.6.1	win	2022-12-14	13:46:58	13:56:52	592235	5d8a29c082fec30001d9c24a	624325669	1	main_z	11	advance_on_keypress_ZEE	144	stimuli_distractor_diamondtriangles.svg	stimuli_distractor_diamondtriangles.svg	39	no	57	0	291
6.6.1	win	2022-12-14	13:46:58	13:56:53	593617	5d8a29c082fec30001d9c24a	624325669	1	main_z	11	main_z	145	stimuli_target_circlediamonds.svg	stimuli_distractor_diamondtriangles.svg	6	yes	44	1	449
6.6.1	win	2022-12-14	13:46:58	13:56:53	593617	5d8a29c082fec30001d9c24a	624325669	1	main_z	11	advance_on_keypress_ZEE	146	stimuli_target_circlediamonds.svg	stimuli_distractor_diamondtriangles.svg	6	yes	57	0	184
6.6.1	win	2022-12-14	13:46:58	13:56:54	594930	5d8a29c082fec30001d9c24a	624325669	1	main_z	11	main_z	147	stimuli_target_diamondcircles.svg	stimuli_distractor_trianglediamonds.svg	19	yes	44	1	465
6.6.1	win	2022-12-14	13:46:58	13:56:54	594930	5d8a29c082fec30001d9c24a	624325669	1	main_z	11	advance_on_keypress_ZEE	148	stimuli_target_diamondcircles.svg	stimuli_distractor_trianglediamonds.svg	19	yes	57	0	386
6.6.1	win	2022-12-14	13:46:58	13:56:58	597968	5d8a29c082fec30001d9c24a	624325669	1	main_z	11	main_z	149	stimuli_distractor_diamondtriangles.svg	stimuli_distractor_trianglediamonds.svg	37	no	0	1	2000
6.6.1	win	2022-12-14	13:46:58	13:56:58	597968	5d8a29c082fec30001d9c24a	624325669	1	main_z	11	advance_on_keypress_ZEE	150	stimuli_distractor_diamondtriangles.svg	stimuli_distractor_trianglediamonds.svg	37	no	57	0	426
6.6.1	win	2022-12-14	13:46:58	13:56:59	599419	5d8a29c082fec30001d9c24a	624325669	1	main_z	11	main_z	151	stimuli_target_squaretriangles.svg	stimuli_distractor_trianglediamonds.svg	3	yes	44	1	384
6.6.1	win	2022-12-14	13:46:58	13:56:59	599419	5d8a29c082fec30001d9c24a	624325669	1	main_z	11	advance_on_keypress_ZEE	152	stimuli_target_squaretriangles.svg	stimuli_distractor_trianglediamonds.svg	3	yes	57	0	218
6.6.1	win	2022-12-14	13:46:58	13:57:00	600781	5d8a29c082fec30001d9c24a	624325669	1	main_z	11	main_z	153	stimuli_distractor_diamondtriangles.svg	stimuli_target_diamondsquares.svg	32	yes	44	1	496
6.6.1	win	2022-12-14	13:46:58	13:57:00	600781	5d8a29c082fec30001d9c24a	624325669	1	main_z	11	advance_on_keypress_ZEE	154	stimuli_distractor_diamondtriangles.svg	stimuli_target_diamondsquares.svg	32	yes	57	0	218
6.6.1	win	2022-12-14	13:46:58	13:57:02	602149	5d8a29c082fec30001d9c24a	624325669	1	main_z	11	main_z	155	stimuli_distractor_diamondtriangles.svg	stimuli_target_circletriangles.svg	13	yes	44	1	498
6.6.1	win	2022-12-14	13:46:58	13:57:02	602149	5d8a29c082fec30001d9c24a	624325669	1	main_z	11	advance_on_keypress_ZEE	156	stimuli_distractor_diamondtriangles.svg	stimuli_target_circletriangles.svg	13	yes	57	0	171
6.6.1	win	2022-12-14	13:46:58	13:57:05	604968	5d8a29c082fec30001d9c24a	624325669	1	main_z	11	main_z	157	stimuli_distractor_diamondtriangles.svg	stimuli_target_trianglesquares.svg	30	yes	0	0	2000
6.6.1	win	2022-12-14	13:46:58	13:57:05	604968	5d8a29c082fec30001d9c24a	624325669	1	main_z	11	advance_on_keypress_ZEE	158	stimuli_distractor_diamondtriangles.svg	stimuli_target_trianglesquares.svg	30	yes	57	0	1544
6.6.1	win	2022-12-14	13:46:58	13:57:07	607745	5d8a29c082fec30001d9c24a	624325669	1	main_z	11	main_z	159	stimuli_distractor_diamondtriangles.svg	stimuli_target_diamondcircles.svg	31	yes	44	1	577
6.6.1	win	2022-12-14	13:46:58	13:57:07	607745	5d8a29c082fec30001d9c24a	624325669	1	main_z	11	advance_on_keypress_ZEE	160	stimuli_distractor_diamondtriangles.svg	stimuli_target_diamondcircles.svg	31	yes	57	0	235