build	computer.platform	date	time	timestamp	time_elapsed_ms	subject	group	session	blockcode	blocknum	trialcode	trialnum	stimulus_left	stimulus_right	stim_index	target_present	response	correct	latency
6.6.1	win	2022-12-21	16:34:15	16:37:19	182565	5d54beb0c15b0700018d0211	195239898	1	practice_z	5	practice_z	1	stimuli_target_circlediamonds.svg	stimuli_distractor_diamondtriangles.svg	1	yes	44	1	503
6.6.1	win	2022-12-21	16:34:15	16:37:19	182565	5d54beb0c15b0700018d0211	195239898	1	practice_z	5	advance_on_keypress_ZEE	2	stimuli_target_circlediamonds.svg	stimuli_distractor_diamondtriangles.svg	1	yes	57	0	1682
6.6.1	win	2022-12-21	16:34:15	16:37:23	186505	5d54beb0c15b0700018d0211	195239898	1	practice_z	5	practice_z	3	stimuli_target_circlediamonds.svg	stimuli_distractor_trianglediamonds.svg	4	yes	44	1	606
6.6.1	win	2022-12-21	16:34:15	16:37:23	186505	5d54beb0c15b0700018d0211	195239898	1	practice_z	5	advance_on_keypress_ZEE	4	stimuli_target_circlediamonds.svg	stimuli_distractor_trianglediamonds.svg	4	yes	57	0	340
6.6.1	win	2022-12-21	16:34:15	16:37:27	190483	5d54beb0c15b0700018d0211	195239898	1	practice_z	5	practice_z	5	stimuli_target_diamondsquares.svg	stimuli_distractor_trianglediamonds.svg	6	yes	0	0	2000
6.6.1	win	2022-12-21	16:34:15	16:37:27	190483	5d54beb0c15b0700018d0211	195239898	1	practice_z	5	advance_on_keypress_ZEE	6	stimuli_target_diamondsquares.svg	stimuli_distractor_trianglediamonds.svg	6	yes	57	0	736
6.6.1	win	2022-12-21	16:34:15	16:37:31	194866	5d54beb0c15b0700018d0211	195239898	1	practice_z	5	practice_z	7	stimuli_distractor_trianglediamonds.svg	stimuli_distractor_diamondtriangles.svg	16	no	0	1	2000
6.6.1	win	2022-12-21	16:34:15	16:37:31	194866	5d54beb0c15b0700018d0211	195239898	1	practice_z	5	advance_on_keypress_ZEE	8	stimuli_distractor_trianglediamonds.svg	stimuli_distractor_diamondtriangles.svg	16	no	57	0	575
6.6.1	win	2022-12-21	16:34:15	16:37:34	198273	5d54beb0c15b0700018d0211	195239898	1	practice_z	5	practice_z	9	stimuli_distractor_trianglediamonds.svg	stimuli_target_squarediamonds.svg	11	yes	44	1	1189
6.6.1	win	2022-12-21	16:34:15	16:37:34	198273	5d54beb0c15b0700018d0211	195239898	1	practice_z	5	advance_on_keypress_ZEE	10	stimuli_distractor_trianglediamonds.svg	stimuli_target_squarediamonds.svg	11	yes	57	0	361
6.6.1	win	2022-12-21	16:34:15	16:37:37	201039	5d54beb0c15b0700018d0211	195239898	1	practice_z	5	practice_z	11	stimuli_distractor_diamondtriangles.svg	stimuli_target_diamondcircles.svg	8	yes	44	1	773
6.6.1	win	2022-12-21	16:34:15	16:37:37	201039	5d54beb0c15b0700018d0211	195239898	1	practice_z	5	advance_on_keypress_ZEE	12	stimuli_distractor_diamondtriangles.svg	stimuli_target_diamondcircles.svg	8	yes	57	0	331
6.6.1	win	2022-12-21	16:34:15	16:37:41	205016	5d54beb0c15b0700018d0211	195239898	1	practice_z	5	practice_z	13	stimuli_distractor_trianglediamonds.svg	stimuli_distractor_trianglediamonds.svg	15	no	0	1	2000
6.6.1	win	2022-12-21	16:34:15	16:37:41	205016	5d54beb0c15b0700018d0211	195239898	1	practice_z	5	advance_on_keypress_ZEE	14	stimuli_distractor_trianglediamonds.svg	stimuli_distractor_trianglediamonds.svg	15	no	57	0	2592
6.6.1	win	2022-12-21	16:34:15	16:37:46	209864	5d54beb0c15b0700018d0211	195239898	1	practice_z	5	practice_z	15	stimuli_distractor_diamondtriangles.svg	stimuli_target_trianglecircles.svg	9	yes	44	1	614
6.6.1	win	2022-12-21	16:34:15	16:37:46	209864	5d54beb0c15b0700018d0211	195239898	1	practice_z	5	advance_on_keypress_ZEE	16	stimuli_distractor_diamondtriangles.svg	stimuli_target_trianglecircles.svg	9	yes	57	0	230
6.6.1	win	2022-12-21	16:34:15	16:37:50	213736	5d54beb0c15b0700018d0211	195239898	1	practice_z	5	practice_z	17	stimuli_distractor_diamondtriangles.svg	stimuli_distractor_trianglediamonds.svg	14	no	0	1	2000
6.6.1	win	2022-12-21	16:34:15	16:37:50	213736	5d54beb0c15b0700018d0211	195239898	1	practice_z	5	advance_on_keypress_ZEE	18	stimuli_distractor_diamondtriangles.svg	stimuli_distractor_trianglediamonds.svg	14	no	57	0	240
6.6.1	win	2022-12-21	16:34:15	16:37:53	216504	5d54beb0c15b0700018d0211	195239898	1	practice_z	5	practice_z	19	stimuli_target_diamondsquares.svg	stimuli_distractor_diamondtriangles.svg	3	yes	44	1	888
6.6.1	win	2022-12-21	16:34:15	16:37:53	216504	5d54beb0c15b0700018d0211	195239898	1	practice_z	5	advance_on_keypress_ZEE	20	stimuli_target_diamondsquares.svg	stimuli_distractor_diamondtriangles.svg	3	yes	57	0	249
6.6.1	win	2022-12-21	16:34:15	16:37:55	219113	5d54beb0c15b0700018d0211	195239898	1	practice_z	5	practice_z	21	stimuli_target_squarediamonds.svg	stimuli_distractor_diamondtriangles.svg	2	yes	44	1	712
6.6.1	win	2022-12-21	16:34:15	16:37:55	219113	5d54beb0c15b0700018d0211	195239898	1	practice_z	5	advance_on_keypress_ZEE	22	stimuli_target_squarediamonds.svg	stimuli_distractor_diamondtriangles.svg	2	yes	57	0	165
6.6.1	win	2022-12-21	16:34:15	16:37:58	221621	5d54beb0c15b0700018d0211	195239898	1	practice_z	5	practice_z	23	stimuli_distractor_diamondtriangles.svg	stimuli_target_circletriangles.svg	7	yes	44	1	705
6.6.1	win	2022-12-21	16:34:15	16:37:58	221621	5d54beb0c15b0700018d0211	195239898	1	practice_z	5	advance_on_keypress_ZEE	24	stimuli_distractor_diamondtriangles.svg	stimuli_target_circletriangles.svg	7	yes	57	0	244
6.6.1	win	2022-12-21	16:34:15	16:38:00	224105	5d54beb0c15b0700018d0211	195239898	1	practice_z	5	practice_z	25	stimuli_distractor_trianglediamonds.svg	stimuli_target_diamondcircles.svg	12	yes	44	1	605
6.6.1	win	2022-12-21	16:34:15	16:38:00	224105	5d54beb0c15b0700018d0211	195239898	1	practice_z	5	advance_on_keypress_ZEE	26	stimuli_distractor_trianglediamonds.svg	stimuli_target_diamondcircles.svg	12	yes	57	0	242
6.6.1	win	2022-12-21	16:34:15	16:38:04	227790	5d54beb0c15b0700018d0211	195239898	1	practice_z	5	practice_z	27	stimuli_distractor_trianglediamonds.svg	stimuli_target_circlediamonds.svg	10	yes	44	1	1807
6.6.1	win	2022-12-21	16:34:15	16:38:04	227790	5d54beb0c15b0700018d0211	195239898	1	practice_z	5	advance_on_keypress_ZEE	28	stimuli_distractor_trianglediamonds.svg	stimuli_target_circlediamonds.svg	10	yes	57	0	291
6.6.1	win	2022-12-21	16:34:15	16:38:07	230414	5d54beb0c15b0700018d0211	195239898	1	practice_z	5	practice_z	29	stimuli_target_squarediamonds.svg	stimuli_distractor_trianglediamonds.svg	5	yes	44	1	698
6.6.1	win	2022-12-21	16:34:15	16:38:07	230414	5d54beb0c15b0700018d0211	195239898	1	practice_z	5	advance_on_keypress_ZEE	30	stimuli_target_squarediamonds.svg	stimuli_distractor_trianglediamonds.svg	5	yes	57	0	206
6.6.1	win	2022-12-21	16:34:15	16:38:10	234267	5d54beb0c15b0700018d0211	195239898	1	practice_z	5	practice_z	31	stimuli_distractor_diamondtriangles.svg	stimuli_distractor_diamondtriangles.svg	13	no	0	1	2000
6.6.1	win	2022-12-21	16:34:15	16:38:10	234267	5d54beb0c15b0700018d0211	195239898	1	practice_z	5	advance_on_keypress_ZEE	32	stimuli_distractor_diamondtriangles.svg	stimuli_distractor_diamondtriangles.svg	13	no	57	0	328
6.6.1	win	2022-12-21	16:34:15	16:39:09	292884	5d54beb0c15b0700018d0211	195239898	1	main_z	7	main_z	1	stimuli_distractor_diamondtriangles.svg	stimuli_target_squaretriangles.svg	15	yes	44	1	667
6.6.1	win	2022-12-21	16:34:15	16:39:09	292884	5d54beb0c15b0700018d0211	195239898	1	main_z	7	advance_on_keypress_ZEE	2	stimuli_distractor_diamondtriangles.svg	stimuli_target_squaretriangles.svg	15	yes	57	0	1288
6.6.1	win	2022-12-21	16:34:15	16:39:12	295396	5d54beb0c15b0700018d0211	195239898	1	main_z	7	main_z	3	stimuli_target_circletriangles.svg	stimuli_distractor_trianglediamonds.svg	1	yes	44	1	579
6.6.1	win	2022-12-21	16:34:15	16:39:12	295396	5d54beb0c15b0700018d0211	195239898	1	main_z	7	advance_on_keypress_ZEE	4	stimuli_target_circletriangles.svg	stimuli_distractor_trianglediamonds.svg	1	yes	57	0	622
6.6.1	win	2022-12-21	16:34:15	16:39:13	297231	5d54beb0c15b0700018d0211	195239898	1	main_z	7	main_z	5	stimuli_distractor_diamondtriangles.svg	stimuli_target_diamondcircles.svg	31	yes	44	1	580
6.6.1	win	2022-12-21	16:34:15	16:39:13	297231	5d54beb0c15b0700018d0211	195239898	1	main_z	7	advance_on_keypress_ZEE	6	stimuli_distractor_diamondtriangles.svg	stimuli_target_diamondcircles.svg	31	yes	57	0	484
6.6.1	win	2022-12-21	16:34:15	16:39:16	299492	5d54beb0c15b0700018d0211	195239898	1	main_z	7	main_z	7	stimuli_target_diamondsquares.svg	stimuli_distractor_diamondtriangles.svg	24	yes	44	1	1141
6.6.1	win	2022-12-21	16:34:15	16:39:16	299492	5d54beb0c15b0700018d0211	195239898	1	main_z	7	advance_on_keypress_ZEE	8	stimuli_target_diamondsquares.svg	stimuli_distractor_diamondtriangles.svg	24	yes	57	0	378
6.6.1	win	2022-12-21	16:34:15	16:39:17	301059	5d54beb0c15b0700018d0211	195239898	1	main_z	7	main_z	9	stimuli_distractor_diamondtriangles.svg	stimuli_target_trianglecircles.svg	29	yes	44	1	558
6.6.1	win	2022-12-21	16:34:15	16:39:17	301059	5d54beb0c15b0700018d0211	195239898	1	main_z	7	advance_on_keypress_ZEE	10	stimuli_distractor_diamondtriangles.svg	stimuli_target_trianglecircles.svg	29	yes	57	0	319
6.6.1	win	2022-12-21	16:34:15	16:39:20	304017	5d54beb0c15b0700018d0211	195239898	1	main_z	7	main_z	11	stimuli_distractor_diamondtriangles.svg	stimuli_distractor_diamondtriangles.svg	40	no	0	1	2000
6.6.1	win	2022-12-21	16:34:15	16:39:20	304017	5d54beb0c15b0700018d0211	195239898	1	main_z	7	advance_on_keypress_ZEE	12	stimuli_distractor_diamondtriangles.svg	stimuli_distractor_diamondtriangles.svg	40	no	57	0	324
6.6.1	win	2022-12-21	16:34:15	16:39:23	306984	5d54beb0c15b0700018d0211	195239898	1	main_z	7	main_z	13	stimuli_distractor_trianglediamonds.svg	stimuli_distractor_diamondtriangles.svg	35	no	0	1	2000
6.6.1	win	2022-12-21	16:34:15	16:39:23	306984	5d54beb0c15b0700018d0211	195239898	1	main_z	7	advance_on_keypress_ZEE	14	stimuli_distractor_trianglediamonds.svg	stimuli_distractor_diamondtriangles.svg	35	no	57	0	260
6.6.1	win	2022-12-21	16:34:15	16:39:25	308692	5d54beb0c15b0700018d0211	195239898	1	main_z	7	main_z	15	stimuli_distractor_trianglediamonds.svg	stimuli_target_trianglesquares.svg	26	yes	44	1	808
6.6.1	win	2022-12-21	16:34:15	16:39:25	308692	5d54beb0c15b0700018d0211	195239898	1	main_z	7	advance_on_keypress_ZEE	16	stimuli_distractor_trianglediamonds.svg	stimuli_target_trianglesquares.svg	26	yes	57	0	406
6.6.1	win	2022-12-21	16:34:15	16:39:27	310339	5d54beb0c15b0700018d0211	195239898	1	main_z	7	main_z	17	stimuli_target_squarediamonds.svg	stimuli_distractor_diamondtriangles.svg	8	yes	44	1	605
6.6.1	win	2022-12-21	16:34:15	16:39:27	310339	5d54beb0c15b0700018d0211	195239898	1	main_z	7	advance_on_keypress_ZEE	18	stimuli_target_squarediamonds.svg	stimuli_distractor_diamondtriangles.svg	8	yes	57	0	555
6.6.1	win	2022-12-21	16:34:15	16:39:28	312199	5d54beb0c15b0700018d0211	195239898	1	main_z	7	main_z	19	stimuli_distractor_trianglediamonds.svg	stimuli_target_circletriangles.svg	9	yes	44	1	665
6.6.1	win	2022-12-21	16:34:15	16:39:28	312199	5d54beb0c15b0700018d0211	195239898	1	main_z	7	advance_on_keypress_ZEE	20	stimuli_distractor_trianglediamonds.svg	stimuli_target_circletriangles.svg	9	yes	57	0	280
6.6.1	win	2022-12-21	16:34:15	16:39:30	313694	5d54beb0c15b0700018d0211	195239898	1	main_z	7	main_z	21	stimuli_target_circletriangles.svg	stimuli_distractor_diamondtriangles.svg	5	yes	44	1	593
6.6.1	win	2022-12-21	16:34:15	16:39:30	313694	5d54beb0c15b0700018d0211	195239898	1	main_z	7	advance_on_keypress_ZEE	22	stimuli_target_circletriangles.svg	stimuli_distractor_diamondtriangles.svg	5	yes	57	0	276
6.6.1	win	2022-12-21	16:34:15	16:39:32	315407	5d54beb0c15b0700018d0211	195239898	1	main_z	7	main_z	23	stimuli_distractor_trianglediamonds.svg	stimuli_target_squaretriangles.svg	11	yes	44	1	806
6.6.1	win	2022-12-21	16:34:15	16:39:32	315407	5d54beb0c15b0700018d0211	195239898	1	main_z	7	advance_on_keypress_ZEE	24	stimuli_distractor_trianglediamonds.svg	stimuli_target_squaretriangles.svg	11	yes	57	0	273
6.6.1	win	2022-12-21	16:34:15	16:39:35	318318	5d54beb0c15b0700018d0211	195239898	1	main_z	7	main_z	25	stimuli_distractor_diamondtriangles.svg	stimuli_distractor_trianglediamonds.svg	38	no	0	1	2000
6.6.1	win	2022-12-21	16:34:15	16:39:35	318318	5d54beb0c15b0700018d0211	195239898	1	main_z	7	advance_on_keypress_ZEE	26	stimuli_distractor_diamondtriangles.svg	stimuli_distractor_trianglediamonds.svg	38	no	57	0	260
6.6.1	win	2022-12-21	16:34:15	16:39:36	320017	5d54beb0c15b0700018d0211	195239898	1	main_z	7	main_z	27	stimuli_distractor_trianglediamonds.svg	stimuli_target_trianglecircles.svg	25	yes	44	1	799
6.6.1	win	2022-12-21	16:34:15	16:39:36	320017	5d54beb0c15b0700018d0211	195239898	1	main_z	7	advance_on_keypress_ZEE	28	stimuli_distractor_trianglediamonds.svg	stimuli_target_trianglecircles.svg	25	yes	57	0	327
6.6.1	win	2022-12-21	16:34:15	16:39:38	321920	5d54beb0c15b0700018d0211	195239898	1	main_z	7	main_z	29	stimuli_target_circlediamonds.svg	stimuli_distractor_diamondtriangles.svg	6	yes	44	1	936
6.6.1	win	2022-12-21	16:34:15	16:39:38	321920	5d54beb0c15b0700018d0211	195239898	1	main_z	7	advance_on_keypress_ZEE	30	stimuli_target_circlediamonds.svg	stimuli_distractor_diamondtriangles.svg	6	yes	57	0	305
6.6.1	win	2022-12-21	16:34:15	16:39:40	323957	5d54beb0c15b0700018d0211	195239898	1	main_z	7	main_z	31	stimuli_distractor_trianglediamonds.svg	stimuli_target_circlediamonds.svg	10	yes	44	1	1089
6.6.1	win	2022-12-21	16:34:15	16:39:40	323957	5d54beb0c15b0700018d0211	195239898	1	main_z	7	advance_on_keypress_ZEE	32	stimuli_distractor_trianglediamonds.svg	stimuli_target_circlediamonds.svg	10	yes	57	0	389
6.6.1	win	2022-12-21	16:34:15	16:39:43	326438	5d54beb0c15b0700018d0211	195239898	1	main_z	7	main_z	33	stimuli_distractor_trianglediamonds.svg	stimuli_target_diamondsquares.svg	28	yes	44	1	1453
6.6.1	win	2022-12-21	16:34:15	16:39:43	326438	5d54beb0c15b0700018d0211	195239898	1	main_z	7	advance_on_keypress_ZEE	34	stimuli_distractor_trianglediamonds.svg	stimuli_target_diamondsquares.svg	28	yes	57	0	342
6.6.1	win	2022-12-21	16:34:15	16:39:46	329418	5d54beb0c15b0700018d0211	195239898	1	main_z	7	main_z	35	stimuli_distractor_diamondtriangles.svg	stimuli_distractor_trianglediamonds.svg	37	no	0	1	2000
6.6.1	win	2022-12-21	16:34:15	16:39:46	329418	5d54beb0c15b0700018d0211	195239898	1	main_z	7	advance_on_keypress_ZEE	36	stimuli_distractor_diamondtriangles.svg	stimuli_distractor_trianglediamonds.svg	37	no	57	0	265
6.6.1	win	2022-12-21	16:34:15	16:39:47	331195	5d54beb0c15b0700018d0211	195239898	1	main_z	7	main_z	37	stimuli_distractor_diamondtriangles.svg	stimuli_target_circletriangles.svg	13	yes	44	1	860
6.6.1	win	2022-12-21	16:34:15	16:39:47	331195	5d54beb0c15b0700018d0211	195239898	1	main_z	7	advance_on_keypress_ZEE	38	stimuli_distractor_diamondtriangles.svg	stimuli_target_circletriangles.svg	13	yes	57	0	270
6.6.1	win	2022-12-21	16:34:15	16:39:49	333046	5d54beb0c15b0700018d0211	195239898	1	main_z	7	main_z	39	stimuli_distractor_diamondtriangles.svg	stimuli_target_diamondsquares.svg	32	yes	44	1	945
6.6.1	win	2022-12-21	16:34:15	16:39:49	333046	5d54beb0c15b0700018d0211	195239898	1	main_z	7	advance_on_keypress_ZEE	40	stimuli_distractor_diamondtriangles.svg	stimuli_target_diamondsquares.svg	32	yes	57	0	266
6.6.1	win	2022-12-21	16:34:15	16:39:51	334935	5d54beb0c15b0700018d0211	195239898	1	main_z	7	main_z	41	stimuli_target_diamondsquares.svg	stimuli_distractor_trianglediamonds.svg	20	yes	44	1	985
6.6.1	win	2022-12-21	16:34:15	16:39:51	334935	5d54beb0c15b0700018d0211	195239898	1	main_z	7	advance_on_keypress_ZEE	42	stimuli_target_diamondsquares.svg	stimuli_distractor_trianglediamonds.svg	20	yes	57	0	225
6.6.1	win	2022-12-21	16:34:15	16:39:53	336694	5d54beb0c15b0700018d0211	195239898	1	main_z	7	main_z	43	stimuli_target_trianglecircles.svg	stimuli_distractor_diamondtriangles.svg	21	yes	44	1	893
6.6.1	win	2022-12-21	16:34:15	16:39:53	336694	5d54beb0c15b0700018d0211	195239898	1	main_z	7	advance_on_keypress_ZEE	44	stimuli_target_trianglecircles.svg	stimuli_distractor_diamondtriangles.svg	21	yes	57	0	261
6.6.1	win	2022-12-21	16:34:15	16:39:55	338465	5d54beb0c15b0700018d0211	195239898	1	main_z	7	main_z	45	stimuli_target_circlediamonds.svg	stimuli_distractor_trianglediamonds.svg	2	yes	44	1	880
6.6.1	win	2022-12-21	16:34:15	16:39:55	338465	5d54beb0c15b0700018d0211	195239898	1	main_z	7	advance_on_keypress_ZEE	46	stimuli_target_circlediamonds.svg	stimuli_distractor_trianglediamonds.svg	2	yes	57	0	233
6.6.1	win	2022-12-21	16:34:15	16:39:58	341335	5d54beb0c15b0700018d0211	195239898	1	main_z	7	main_z	47	stimuli_distractor_trianglediamonds.svg	stimuli_distractor_trianglediamonds.svg	33	no	0	1	2000
6.6.1	win	2022-12-21	16:34:15	16:39:58	341335	5d54beb0c15b0700018d0211	195239898	1	main_z	7	advance_on_keypress_ZEE	48	stimuli_distractor_trianglediamonds.svg	stimuli_distractor_trianglediamonds.svg	33	no	57	0	744
6.6.1	win	2022-12-21	16:34:15	16:40:01	344718	5d54beb0c15b0700018d0211	195239898	1	main_z	7	main_z	49	stimuli_distractor_diamondtriangles.svg	stimuli_target_circlediamonds.svg	14	yes	0	0	2000
6.6.1	win	2022-12-21	16:34:15	16:40:01	344718	5d54beb0c15b0700018d0211	195239898	1	main_z	7	advance_on_keypress_ZEE	50	stimuli_distractor_diamondtriangles.svg	stimuli_target_circlediamonds.svg	14	yes	57	0	271
6.6.1	win	2022-12-21	16:34:15	16:40:03	346476	5d54beb0c15b0700018d0211	195239898	1	main_z	7	main_z	51	stimuli_target_trianglecircles.svg	stimuli_distractor_trianglediamonds.svg	17	yes	44	1	842
6.6.1	win	2022-12-21	16:34:15	16:40:03	346476	5d54beb0c15b0700018d0211	195239898	1	main_z	7	advance_on_keypress_ZEE	52	stimuli_target_trianglecircles.svg	stimuli_distractor_trianglediamonds.svg	17	yes	57	0	264
6.6.1	win	2022-12-21	16:34:15	16:40:06	349368	5d54beb0c15b0700018d0211	195239898	1	main_z	7	main_z	53	stimuli_distractor_diamondtriangles.svg	stimuli_distractor_diamondtriangles.svg	39	no	0	1	2000
6.6.1	win	2022-12-21	16:34:15	16:40:06	349368	5d54beb0c15b0700018d0211	195239898	1	main_z	7	advance_on_keypress_ZEE	54	stimuli_distractor_diamondtriangles.svg	stimuli_distractor_diamondtriangles.svg	39	no	57	0	247
6.6.1	win	2022-12-21	16:34:15	16:40:08	351492	5d54beb0c15b0700018d0211	195239898	1	main_z	7	main_z	55	stimuli_distractor_trianglediamonds.svg	stimuli_distractor_diamondtriangles.svg	36	no	44	0	1241
6.6.1	win	2022-12-21	16:34:15	16:40:08	351492	5d54beb0c15b0700018d0211	195239898	1	main_z	7	advance_on_keypress_ZEE	56	stimuli_distractor_trianglediamonds.svg	stimuli_distractor_diamondtriangles.svg	36	no	57	0	275
6.6.1	win	2022-12-21	16:34:15	16:40:09	353259	5d54beb0c15b0700018d0211	195239898	1	main_z	7	main_z	57	stimuli_target_trianglesquares.svg	stimuli_distractor_trianglediamonds.svg	18	yes	44	1	858
6.6.1	win	2022-12-21	16:34:15	16:40:09	353259	5d54beb0c15b0700018d0211	195239898	1	main_z	7	advance_on_keypress_ZEE	58	stimuli_target_trianglesquares.svg	stimuli_distractor_trianglediamonds.svg	18	yes	57	0	311
6.6.1	win	2022-12-21	16:34:15	16:40:11	355230	5d54beb0c15b0700018d0211	195239898	1	main_z	7	main_z	59	stimuli_distractor_trianglediamonds.svg	stimuli_target_squarediamonds.svg	12	yes	44	1	1028
6.6.1	win	2022-12-21	16:34:15	16:40:11	355230	5d54beb0c15b0700018d0211	195239898	1	main_z	7	advance_on_keypress_ZEE	60	stimuli_distractor_trianglediamonds.svg	stimuli_target_squarediamonds.svg	12	yes	57	0	251
6.6.1	win	2022-12-21	16:34:15	16:40:14	358118	5d54beb0c15b0700018d0211	195239898	1	main_z	7	main_z	61	stimuli_distractor_trianglediamonds.svg	stimuli_distractor_trianglediamonds.svg	34	no	0	1	2000
6.6.1	win	2022-12-21	16:34:15	16:40:14	358118	5d54beb0c15b0700018d0211	195239898	1	main_z	7	advance_on_keypress_ZEE	62	stimuli_distractor_trianglediamonds.svg	stimuli_distractor_trianglediamonds.svg	34	no	57	0	354
6.6.1	win	2022-12-21	16:34:15	16:40:16	359895	5d54beb0c15b0700018d0211	195239898	1	main_z	7	main_z	63	stimuli_target_squaretriangles.svg	stimuli_distractor_trianglediamonds.svg	3	yes	44	1	778
6.6.1	win	2022-12-21	16:34:15	16:40:16	359895	5d54beb0c15b0700018d0211	195239898	1	main_z	7	advance_on_keypress_ZEE	64	stimuli_target_squaretriangles.svg	stimuli_distractor_trianglediamonds.svg	3	yes	57	0	210
6.6.1	win	2022-12-21	16:34:15	16:40:18	361499	5d54beb0c15b0700018d0211	195239898	1	main_z	7	main_z	65	stimuli_target_trianglesquares.svg	stimuli_distractor_diamondtriangles.svg	22	yes	44	1	764
6.6.1	win	2022-12-21	16:34:15	16:40:18	361499	5d54beb0c15b0700018d0211	195239898	1	main_z	7	advance_on_keypress_ZEE	66	stimuli_target_trianglesquares.svg	stimuli_distractor_diamondtriangles.svg	22	yes	57	0	261
6.6.1	win	2022-12-21	16:34:15	16:40:19	363198	5d54beb0c15b0700018d0211	195239898	1	main_z	7	main_z	67	stimuli_target_diamondcircles.svg	stimuli_distractor_diamondtriangles.svg	23	yes	44	1	813
6.6.1	win	2022-12-21	16:34:15	16:40:19	363198	5d54beb0c15b0700018d0211	195239898	1	main_z	7	advance_on_keypress_ZEE	68	stimuli_target_diamondcircles.svg	stimuli_distractor_diamondtriangles.svg	23	yes	57	0	263
6.6.1	win	2022-12-21	16:34:15	16:40:21	364869	5d54beb0c15b0700018d0211	195239898	1	main_z	7	main_z	69	stimuli_distractor_diamondtriangles.svg	stimuli_target_squarediamonds.svg	16	yes	44	1	784
6.6.1	win	2022-12-21	16:34:15	16:40:21	364869	5d54beb0c15b0700018d0211	195239898	1	main_z	7	advance_on_keypress_ZEE	70	stimuli_distractor_diamondtriangles.svg	stimuli_target_squarediamonds.svg	16	yes	57	0	212
6.6.1	win	2022-12-21	16:34:15	16:40:23	366554	5d54beb0c15b0700018d0211	195239898	1	main_z	7	main_z	71	stimuli_distractor_trianglediamonds.svg	stimuli_target_diamondcircles.svg	27	yes	44	1	836
6.6.1	win	2022-12-21	16:34:15	16:40:23	366554	5d54beb0c15b0700018d0211	195239898	1	main_z	7	advance_on_keypress_ZEE	72	stimuli_distractor_trianglediamonds.svg	stimuli_target_diamondcircles.svg	27	yes	57	0	307
6.6.1	win	2022-12-21	16:34:15	16:40:25	368313	5d54beb0c15b0700018d0211	195239898	1	main_z	7	main_z	73	stimuli_target_squaretriangles.svg	stimuli_distractor_diamondtriangles.svg	7	yes	44	1	812
6.6.1	win	2022-12-21	16:34:15	16:40:25	368313	5d54beb0c15b0700018d0211	195239898	1	main_z	7	advance_on_keypress_ZEE	74	stimuli_target_squaretriangles.svg	stimuli_distractor_diamondtriangles.svg	7	yes	57	0	220
6.6.1	win	2022-12-21	16:34:15	16:40:26	370004	5d54beb0c15b0700018d0211	195239898	1	main_z	7	main_z	75	stimuli_target_squarediamonds.svg	stimuli_distractor_trianglediamonds.svg	4	yes	44	1	836
6.6.1	win	2022-12-21	16:34:15	16:40:26	370004	5d54beb0c15b0700018d0211	195239898	1	main_z	7	advance_on_keypress_ZEE	76	stimuli_target_squarediamonds.svg	stimuli_distractor_trianglediamonds.svg	4	yes	57	0	262
6.6.1	win	2022-12-21	16:34:15	16:40:28	371736	5d54beb0c15b0700018d0211	195239898	1	main_z	7	main_z	77	stimuli_distractor_diamondtriangles.svg	stimuli_target_trianglesquares.svg	30	yes	44	1	834
6.6.1	win	2022-12-21	16:34:15	16:40:28	371736	5d54beb0c15b0700018d0211	195239898	1	main_z	7	advance_on_keypress_ZEE	78	stimuli_distractor_diamondtriangles.svg	stimuli_target_trianglesquares.svg	30	yes	57	0	255
6.6.1	win	2022-12-21	16:34:15	16:40:30	373497	5d54beb0c15b0700018d0211	195239898	1	main_z	7	main_z	79	stimuli_target_diamondcircles.svg	stimuli_distractor_trianglediamonds.svg	19	yes	44	1	863
6.6.1	win	2022-12-21	16:34:15	16:40:30	373497	5d54beb0c15b0700018d0211	195239898	1	main_z	7	advance_on_keypress_ZEE	80	stimuli_target_diamondcircles.svg	stimuli_distractor_trianglediamonds.svg	19	yes	57	0	224
6.6.1	win	2022-12-21	16:34:15	16:40:31	375272	5d54beb0c15b0700018d0211	195239898	1	main_z	7	main_z	81	stimuli_target_circletriangles.svg	stimuli_distractor_diamondtriangles.svg	5	yes	44	1	921
6.6.1	win	2022-12-21	16:34:15	16:40:31	375272	5d54beb0c15b0700018d0211	195239898	1	main_z	7	advance_on_keypress_ZEE	82	stimuli_target_circletriangles.svg	stimuli_distractor_diamondtriangles.svg	5	yes	57	0	243
6.6.1	win	2022-12-21	16:34:15	16:40:33	377154	5d54beb0c15b0700018d0211	195239898	1	main_z	7	main_z	83	stimuli_target_trianglecircles.svg	stimuli_distractor_diamondtriangles.svg	21	yes	44	1	1003
6.6.1	win	2022-12-21	16:34:15	16:40:33	377154	5d54beb0c15b0700018d0211	195239898	1	main_z	7	advance_on_keypress_ZEE	84	stimuli_target_trianglecircles.svg	stimuli_distractor_diamondtriangles.svg	21	yes	57	0	238
6.6.1	win	2022-12-21	16:34:15	16:40:35	378964	5d54beb0c15b0700018d0211	195239898	1	main_z	7	main_z	85	stimuli_target_circletriangles.svg	stimuli_distractor_trianglediamonds.svg	1	yes	44	1	930
6.6.1	win	2022-12-21	16:34:15	16:40:35	378964	5d54beb0c15b0700018d0211	195239898	1	main_z	7	advance_on_keypress_ZEE	86	stimuli_target_circletriangles.svg	stimuli_distractor_trianglediamonds.svg	1	yes	57	0	232
6.6.1	win	2022-12-21	16:34:15	16:40:37	380783	5d54beb0c15b0700018d0211	195239898	1	main_z	7	main_z	87	stimuli_target_circlediamonds.svg	stimuli_distractor_diamondtriangles.svg	6	yes	44	1	949
6.6.1	win	2022-12-21	16:34:15	16:40:37	380783	5d54beb0c15b0700018d0211	195239898	1	main_z	7	advance_on_keypress_ZEE	88	stimuli_target_circlediamonds.svg	stimuli_distractor_diamondtriangles.svg	6	yes	57	0	289
6.6.1	win	2022-12-21	16:34:15	16:40:40	383718	5d54beb0c15b0700018d0211	195239898	1	main_z	7	main_z	89	stimuli_distractor_diamondtriangles.svg	stimuli_distractor_trianglediamonds.svg	38	no	0	1	2000
6.6.1	win	2022-12-21	16:34:15	16:40:40	383718	5d54beb0c15b0700018d0211	195239898	1	main_z	7	advance_on_keypress_ZEE	90	stimuli_distractor_diamondtriangles.svg	stimuli_distractor_trianglediamonds.svg	38	no	57	0	459
6.6.1	win	2022-12-21	16:34:15	16:40:43	386334	5d54beb0c15b0700018d0211	195239898	1	main_z	7	main_z	91	stimuli_target_trianglesquares.svg	stimuli_distractor_diamondtriangles.svg	22	yes	44	1	1516
6.6.1	win	2022-12-21	16:34:15	16:40:43	386334	5d54beb0c15b0700018d0211	195239898	1	main_z	7	advance_on_keypress_ZEE	92	stimuli_target_trianglesquares.svg	stimuli_distractor_diamondtriangles.svg	22	yes	57	0	550
6.6.1	win	2022-12-21	16:34:15	16:40:45	388483	5d54beb0c15b0700018d0211	195239898	1	main_z	7	main_z	93	stimuli_target_trianglecircles.svg	stimuli_distractor_trianglediamonds.svg	17	yes	44	1	949
6.6.1	win	2022-12-21	16:34:15	16:40:45	388483	5d54beb0c15b0700018d0211	195239898	1	main_z	7	advance_on_keypress_ZEE	94	stimuli_target_trianglecircles.svg	stimuli_distractor_trianglediamonds.svg	17	yes	57	0	1710
6.6.1	win	2022-12-21	16:34:15	16:40:49	392835	5d54beb0c15b0700018d0211	195239898	1	main_z	7	main_z	95	stimuli_distractor_diamondtriangles.svg	stimuli_target_diamondsquares.svg	32	yes	0	0	2000
6.6.1	win	2022-12-21	16:34:15	16:40:49	392835	5d54beb0c15b0700018d0211	195239898	1	main_z	7	advance_on_keypress_ZEE	96	stimuli_distractor_diamondtriangles.svg	stimuli_target_diamondsquares.svg	32	yes	57	0	406
6.6.1	win	2022-12-21	16:34:15	16:40:51	394816	5d54beb0c15b0700018d0211	195239898	1	main_z	7	main_z	97	stimuli_target_trianglesquares.svg	stimuli_distractor_trianglediamonds.svg	18	yes	44	1	931
6.6.1	win	2022-12-21	16:34:15	16:40:51	394816	5d54beb0c15b0700018d0211	195239898	1	main_z	7	advance_on_keypress_ZEE	98	stimuli_target_trianglesquares.svg	stimuli_distractor_trianglediamonds.svg	18	yes	57	0	234
6.6.1	win	2022-12-21	16:34:15	16:40:54	397381	5d54beb0c15b0700018d0211	195239898	1	main_z	7	main_z	99	stimuli_distractor_trianglediamonds.svg	stimuli_target_circlediamonds.svg	10	yes	44	1	1695
6.6.1	win	2022-12-21	16:34:15	16:40:54	397381	5d54beb0c15b0700018d0211	195239898	1	main_z	7	advance_on_keypress_ZEE	100	stimuli_distractor_trianglediamonds.svg	stimuli_target_circlediamonds.svg	10	yes	57	0	271
6.6.1	win	2022-12-21	16:34:15	16:40:57	400285	5d54beb0c15b0700018d0211	195239898	1	main_z	7	main_z	101	stimuli_distractor_trianglediamonds.svg	stimuli_distractor_diamondtriangles.svg	35	no	0	1	2000
6.6.1	win	2022-12-21	16:34:15	16:40:57	400285	5d54beb0c15b0700018d0211	195239898	1	main_z	7	advance_on_keypress_ZEE	102	stimuli_distractor_trianglediamonds.svg	stimuli_distractor_diamondtriangles.svg	35	no	57	0	430
6.6.1	win	2022-12-21	16:34:15	16:40:59	402724	5d54beb0c15b0700018d0211	195239898	1	main_z	7	main_z	103	stimuli_distractor_trianglediamonds.svg	stimuli_target_squaretriangles.svg	11	yes	44	1	1373
6.6.1	win	2022-12-21	16:34:15	16:40:59	402724	5d54beb0c15b0700018d0211	195239898	1	main_z	7	advance_on_keypress_ZEE	104	stimuli_distractor_trianglediamonds.svg	stimuli_target_squaretriangles.svg	11	yes	57	0	249
6.6.1	win	2022-12-21	16:34:15	16:41:01	404586	5d54beb0c15b0700018d0211	195239898	1	main_z	7	main_z	105	stimuli_distractor_diamondtriangles.svg	stimuli_target_trianglecircles.svg	29	yes	44	1	968
6.6.1	win	2022-12-21	16:34:15	16:41:01	404586	5d54beb0c15b0700018d0211	195239898	1	main_z	7	advance_on_keypress_ZEE	106	stimuli_distractor_diamondtriangles.svg	stimuli_target_trianglecircles.svg	29	yes	57	0	225
6.6.1	win	2022-12-21	16:34:15	16:41:03	406496	5d54beb0c15b0700018d0211	195239898	1	main_z	7	main_z	107	stimuli_distractor_trianglediamonds.svg	stimuli_target_diamondsquares.svg	28	yes	44	1	1045
6.6.1	win	2022-12-21	16:34:15	16:41:03	406496	5d54beb0c15b0700018d0211	195239898	1	main_z	7	advance_on_keypress_ZEE	108	stimuli_distractor_trianglediamonds.svg	stimuli_target_diamondsquares.svg	28	yes	57	0	351
6.6.1	win	2022-12-21	16:34:15	16:41:05	408371	5d54beb0c15b0700018d0211	195239898	1	main_z	7	main_z	109	stimuli_target_diamondsquares.svg	stimuli_distractor_diamondtriangles.svg	24	yes	44	1	886
6.6.1	win	2022-12-21	16:34:15	16:41:05	408371	5d54beb0c15b0700018d0211	195239898	1	main_z	7	advance_on_keypress_ZEE	110	stimuli_target_diamondsquares.svg	stimuli_distractor_diamondtriangles.svg	24	yes	57	0	238
6.6.1	win	2022-12-21	16:34:15	16:41:07	410298	5d54beb0c15b0700018d0211	195239898	1	main_z	7	main_z	111	stimuli_target_diamondcircles.svg	stimuli_distractor_trianglediamonds.svg	19	yes	44	1	1046
6.6.1	win	2022-12-21	16:34:15	16:41:07	410298	5d54beb0c15b0700018d0211	195239898	1	main_z	7	advance_on_keypress_ZEE	112	stimuli_target_diamondcircles.svg	stimuli_distractor_trianglediamonds.svg	19	yes	57	0	196
6.6.1	win	2022-12-21	16:34:15	16:41:09	413119	5d54beb0c15b0700018d0211	195239898	1	main_z	7	main_z	113	stimuli_distractor_diamondtriangles.svg	stimuli_distractor_trianglediamonds.svg	37	no	0	1	2000
6.6.1	win	2022-12-21	16:34:15	16:41:09	413119	5d54beb0c15b0700018d0211	195239898	1	main_z	7	advance_on_keypress_ZEE	114	stimuli_distractor_diamondtriangles.svg	stimuli_distractor_trianglediamonds.svg	37	no	57	0	616
6.6.1	win	2022-12-21	16:34:15	16:41:12	415704	5d54beb0c15b0700018d0211	195239898	1	main_z	7	main_z	115	stimuli_distractor_diamondtriangles.svg	stimuli_target_trianglesquares.svg	30	yes	44	1	1319
6.6.1	win	2022-12-21	16:34:15	16:41:12	415704	5d54beb0c15b0700018d0211	195239898	1	main_z	7	advance_on_keypress_ZEE	116	stimuli_distractor_diamondtriangles.svg	stimuli_target_trianglesquares.svg	30	yes	57	0	226
6.6.1	win	2022-12-21	16:34:15	16:41:14	417662	5d54beb0c15b0700018d0211	195239898	1	main_z	7	main_z	117	stimuli_target_squaretriangles.svg	stimuli_distractor_diamondtriangles.svg	7	yes	44	1	1094
6.6.1	win	2022-12-21	16:34:15	16:41:14	417662	5d54beb0c15b0700018d0211	195239898	1	main_z	7	advance_on_keypress_ZEE	118	stimuli_target_squaretriangles.svg	stimuli_distractor_diamondtriangles.svg	7	yes	57	0	310
6.6.1	win	2022-12-21	16:34:15	16:41:16	419808	5d54beb0c15b0700018d0211	195239898	1	main_z	7	main_z	119	stimuli_distractor_diamondtriangles.svg	stimuli_target_diamondcircles.svg	31	yes	44	1	1206
6.6.1	win	2022-12-21	16:34:15	16:41:16	419808	5d54beb0c15b0700018d0211	195239898	1	main_z	7	advance_on_keypress_ZEE	120	stimuli_distractor_diamondtriangles.svg	stimuli_target_diamondcircles.svg	31	yes	57	0	301
6.6.1	win	2022-12-21	16:34:15	16:41:19	422753	5d54beb0c15b0700018d0211	195239898	1	main_z	7	main_z	121	stimuli_distractor_trianglediamonds.svg	stimuli_distractor_diamondtriangles.svg	36	no	0	1	2000
6.6.1	win	2022-12-21	16:34:15	16:41:19	422753	5d54beb0c15b0700018d0211	195239898	1	main_z	7	advance_on_keypress_ZEE	122	stimuli_distractor_trianglediamonds.svg	stimuli_distractor_diamondtriangles.svg	36	no	57	0	274
6.6.1	win	2022-12-21	16:34:15	16:41:21	424609	5d54beb0c15b0700018d0211	195239898	1	main_z	7	main_z	123	stimuli_distractor_trianglediamonds.svg	stimuli_target_diamondcircles.svg	27	yes	44	1	941
6.6.1	win	2022-12-21	16:34:15	16:41:21	424609	5d54beb0c15b0700018d0211	195239898	1	main_z	7	advance_on_keypress_ZEE	124	stimuli_distractor_trianglediamonds.svg	stimuli_target_diamondcircles.svg	27	yes	57	0	295
6.6.1	win	2022-12-21	16:34:15	16:41:23	426727	5d54beb0c15b0700018d0211	195239898	1	main_z	7	main_z	125	stimuli_target_squarediamonds.svg	stimuli_distractor_trianglediamonds.svg	4	yes	44	1	1192
6.6.1	win	2022-12-21	16:34:15	16:41:23	426727	5d54beb0c15b0700018d0211	195239898	1	main_z	7	advance_on_keypress_ZEE	126	stimuli_target_squarediamonds.svg	stimuli_distractor_trianglediamonds.svg	4	yes	57	0	280
6.6.1	win	2022-12-21	16:34:15	16:41:26	429636	5d54beb0c15b0700018d0211	195239898	1	main_z	7	main_z	127	stimuli_distractor_trianglediamonds.svg	stimuli_distractor_trianglediamonds.svg	34	no	0	1	2000
6.6.1	win	2022-12-21	16:34:15	16:41:26	429636	5d54beb0c15b0700018d0211	195239898	1	main_z	7	advance_on_keypress_ZEE	128	stimuli_distractor_trianglediamonds.svg	stimuli_distractor_trianglediamonds.svg	34	no	57	0	274
6.6.1	win	2022-12-21	16:34:15	16:41:28	432114	5d54beb0c15b0700018d0211	195239898	1	main_z	7	main_z	129	stimuli_target_squaretriangles.svg	stimuli_distractor_trianglediamonds.svg	3	yes	44	1	1562
6.6.1	win	2022-12-21	16:34:15	16:41:28	432114	5d54beb0c15b0700018d0211	195239898	1	main_z	7	advance_on_keypress_ZEE	130	stimuli_target_squaretriangles.svg	stimuli_distractor_trianglediamonds.svg	3	yes	57	0	352
6.6.1	win	2022-12-21	16:34:15	16:41:30	434240	5d54beb0c15b0700018d0211	195239898	1	main_z	7	main_z	131	stimuli_distractor_diamondtriangles.svg	stimuli_target_circlediamonds.svg	14	yes	44	1	1138
6.6.1	win	2022-12-21	16:34:15	16:41:30	434240	5d54beb0c15b0700018d0211	195239898	1	main_z	7	advance_on_keypress_ZEE	132	stimuli_distractor_diamondtriangles.svg	stimuli_target_circlediamonds.svg	14	yes	57	0	291
6.6.1	win	2022-12-21	16:34:15	16:41:32	435974	5d54beb0c15b0700018d0211	195239898	1	main_z	7	main_z	133	stimuli_distractor_trianglediamonds.svg	stimuli_target_circletriangles.svg	9	yes	44	1	806
6.6.1	win	2022-12-21	16:34:15	16:41:32	435974	5d54beb0c15b0700018d0211	195239898	1	main_z	7	advance_on_keypress_ZEE	134	stimuli_distractor_trianglediamonds.svg	stimuli_target_circletriangles.svg	9	yes	57	0	225
6.6.1	win	2022-12-21	16:34:15	16:41:35	438836	5d54beb0c15b0700018d0211	195239898	1	main_z	7	main_z	135	stimuli_distractor_diamondtriangles.svg	stimuli_distractor_diamondtriangles.svg	40	no	0	1	2000
6.6.1	win	2022-12-21	16:34:15	16:41:35	438836	5d54beb0c15b0700018d0211	195239898	1	main_z	7	advance_on_keypress_ZEE	136	stimuli_distractor_diamondtriangles.svg	stimuli_distractor_diamondtriangles.svg	40	no	57	0	397
6.6.1	win	2022-12-21	16:34:15	16:41:37	440386	5d54beb0c15b0700018d0211	195239898	1	main_z	7	main_z	137	stimuli_distractor_diamondtriangles.svg	stimuli_target_circletriangles.svg	13	yes	44	1	512
6.6.1	win	2022-12-21	16:34:15	16:41:37	440386	5d54beb0c15b0700018d0211	195239898	1	main_z	7	advance_on_keypress_ZEE	138	stimuli_distractor_diamondtriangles.svg	stimuli_target_circletriangles.svg	13	yes	57	0	307
6.6.1	win	2022-12-21	16:34:15	16:41:38	441805	5d54beb0c15b0700018d0211	195239898	1	main_z	7	main_z	139	stimuli_distractor_diamondtriangles.svg	stimuli_target_squaretriangles.svg	15	yes	44	1	470
6.6.1	win	2022-12-21	16:34:15	16:41:38	441805	5d54beb0c15b0700018d0211	195239898	1	main_z	7	advance_on_keypress_ZEE	140	stimuli_distractor_diamondtriangles.svg	stimuli_target_squaretriangles.svg	15	yes	57	0	333
6.6.1	win	2022-12-21	16:34:15	16:41:39	443089	5d54beb0c15b0700018d0211	195239898	1	main_z	7	main_z	141	stimuli_distractor_trianglediamonds.svg	stimuli_target_squarediamonds.svg	12	yes	44	1	304
6.6.1	win	2022-12-21	16:34:15	16:41:39	443089	5d54beb0c15b0700018d0211	195239898	1	main_z	7	advance_on_keypress_ZEE	142	stimuli_distractor_trianglediamonds.svg	stimuli_target_squarediamonds.svg	12	yes	57	0	255
6.6.1	win	2022-12-21	16:34:15	16:41:41	445023	5d54beb0c15b0700018d0211	195239898	1	main_z	7	main_z	143	stimuli_distractor_trianglediamonds.svg	stimuli_target_trianglesquares.svg	26	yes	44	1	1038
6.6.1	win	2022-12-21	16:34:15	16:41:41	445023	5d54beb0c15b0700018d0211	195239898	1	main_z	7	advance_on_keypress_ZEE	144	stimuli_distractor_trianglediamonds.svg	stimuli_target_trianglesquares.svg	26	yes	57	0	208
6.6.1	win	2022-12-21	16:34:15	16:41:43	446363	5d54beb0c15b0700018d0211	195239898	1	main_z	7	main_z	145	stimuli_target_diamondcircles.svg	stimuli_distractor_diamondtriangles.svg	23	yes	44	1	494
6.6.1	win	2022-12-21	16:34:15	16:41:43	446363	5d54beb0c15b0700018d0211	195239898	1	main_z	7	advance_on_keypress_ZEE	146	stimuli_target_diamondcircles.svg	stimuli_distractor_diamondtriangles.svg	23	yes	57	0	373
6.6.1	win	2022-12-21	16:34:15	16:41:46	449369	5d54beb0c15b0700018d0211	195239898	1	main_z	7	main_z	147	stimuli_distractor_diamondtriangles.svg	stimuli_distractor_diamondtriangles.svg	39	no	0	1	2000
6.6.1	win	2022-12-21	16:34:15	16:41:46	449369	5d54beb0c15b0700018d0211	195239898	1	main_z	7	advance_on_keypress_ZEE	148	stimuli_distractor_diamondtriangles.svg	stimuli_distractor_diamondtriangles.svg	39	no	57	0	448
6.6.1	win	2022-12-21	16:34:15	16:41:47	451048	5d54beb0c15b0700018d0211	195239898	1	main_z	7	main_z	149	stimuli_distractor_diamondtriangles.svg	stimuli_target_squarediamonds.svg	16	yes	44	1	596
6.6.1	win	2022-12-21	16:34:15	16:41:47	451048	5d54beb0c15b0700018d0211	195239898	1	main_z	7	advance_on_keypress_ZEE	150	stimuli_distractor_diamondtriangles.svg	stimuli_target_squarediamonds.svg	16	yes	57	0	232
6.6.1	win	2022-12-21	16:34:15	16:41:50	453920	5d54beb0c15b0700018d0211	195239898	1	main_z	7	main_z	151	stimuli_distractor_trianglediamonds.svg	stimuli_distractor_trianglediamonds.svg	33	no	0	1	2000
6.6.1	win	2022-12-21	16:34:15	16:41:50	453920	5d54beb0c15b0700018d0211	195239898	1	main_z	7	advance_on_keypress_ZEE	152	stimuli_distractor_trianglediamonds.svg	stimuli_distractor_trianglediamonds.svg	33	no	57	0	8623
6.6.1	win	2022-12-21	16:34:15	16:42:00	463638	5d54beb0c15b0700018d0211	195239898	1	main_z	7	main_z	153	stimuli_target_squarediamonds.svg	stimuli_distractor_diamondtriangles.svg	8	yes	44	1	452
6.6.1	win	2022-12-21	16:34:15	16:42:00	463638	5d54beb0c15b0700018d0211	195239898	1	main_z	7	advance_on_keypress_ZEE	154	stimuli_target_squarediamonds.svg	stimuli_distractor_diamondtriangles.svg	8	yes	57	0	505
6.6.1	win	2022-12-21	16:34:15	16:42:01	465241	5d54beb0c15b0700018d0211	195239898	1	main_z	7	main_z	155	stimuli_distractor_trianglediamonds.svg	stimuli_target_trianglecircles.svg	25	yes	44	1	455
6.6.1	win	2022-12-21	16:34:15	16:42:01	465241	5d54beb0c15b0700018d0211	195239898	1	main_z	7	advance_on_keypress_ZEE	156	stimuli_distractor_trianglediamonds.svg	stimuli_target_trianglecircles.svg	25	yes	57	0	209
6.6.1	win	2022-12-21	16:34:15	16:42:03	466549	5d54beb0c15b0700018d0211	195239898	1	main_z	7	main_z	157	stimuli_target_circlediamonds.svg	stimuli_distractor_trianglediamonds.svg	2	yes	44	1	463
6.6.1	win	2022-12-21	16:34:15	16:42:03	466549	5d54beb0c15b0700018d0211	195239898	1	main_z	7	advance_on_keypress_ZEE	158	stimuli_target_circlediamonds.svg	stimuli_distractor_trianglediamonds.svg	2	yes	57	0	174
6.6.1	win	2022-12-21	16:34:15	16:42:04	467834	5d54beb0c15b0700018d0211	195239898	1	main_z	7	main_z	159	stimuli_target_diamondsquares.svg	stimuli_distractor_trianglediamonds.svg	20	yes	44	1	482
6.6.1	win	2022-12-21	16:34:15	16:42:04	467834	5d54beb0c15b0700018d0211	195239898	1	main_z	7	advance_on_keypress_ZEE	160	stimuli_target_diamondsquares.svg	stimuli_distractor_trianglediamonds.svg	20	yes	57	0	126
6.6.1	win	2022-12-21	16:34:15	16:42:25	488685	5d54beb0c15b0700018d0211	195239898	1	practice_slash	9	practice_slash	1	stimuli_distractor_diamondtriangles.svg	stimuli_target_trianglecircles.svg	9	yes	53	1	448
6.6.1	win	2022-12-21	16:34:15	16:42:25	488685	5d54beb0c15b0700018d0211	195239898	1	practice_slash	9	advance_on_keypress_SLASH	2	stimuli_distractor_diamondtriangles.svg	stimuli_target_trianglecircles.svg	9	yes	57	0	382
6.6.1	win	2022-12-21	16:34:15	16:42:27	491257	5d54beb0c15b0700018d0211	195239898	1	practice_slash	9	practice_slash	3	stimuli_distractor_trianglediamonds.svg	stimuli_target_circlediamonds.svg	10	yes	53	1	537
6.6.1	win	2022-12-21	16:34:15	16:42:27	491257	5d54beb0c15b0700018d0211	195239898	1	practice_slash	9	advance_on_keypress_SLASH	4	stimuli_distractor_trianglediamonds.svg	stimuli_target_circlediamonds.svg	10	yes	57	0	189
6.6.1	win	2022-12-21	16:34:15	16:42:30	493419	5d54beb0c15b0700018d0211	195239898	1	practice_slash	9	practice_slash	5	stimuli_target_circlediamonds.svg	stimuli_distractor_trianglediamonds.svg	4	yes	53	1	332
6.6.1	win	2022-12-21	16:34:15	16:42:30	493419	5d54beb0c15b0700018d0211	195239898	1	practice_slash	9	advance_on_keypress_SLASH	6	stimuli_target_circlediamonds.svg	stimuli_distractor_trianglediamonds.svg	4	yes	57	0	107
6.6.1	win	2022-12-21	16:34:15	16:42:32	495606	5d54beb0c15b0700018d0211	195239898	1	practice_slash	9	practice_slash	7	stimuli_target_squarediamonds.svg	stimuli_distractor_diamondtriangles.svg	2	yes	53	1	436
6.6.1	win	2022-12-21	16:34:15	16:42:32	495606	5d54beb0c15b0700018d0211	195239898	1	practice_slash	9	advance_on_keypress_SLASH	8	stimuli_target_squarediamonds.svg	stimuli_distractor_diamondtriangles.svg	2	yes	57	0	225
6.6.1	win	2022-12-21	16:34:15	16:42:34	497929	5d54beb0c15b0700018d0211	195239898	1	practice_slash	9	practice_slash	9	stimuli_target_squarediamonds.svg	stimuli_distractor_trianglediamonds.svg	5	yes	53	1	459
6.6.1	win	2022-12-21	16:34:15	16:42:34	497929	5d54beb0c15b0700018d0211	195239898	1	practice_slash	9	advance_on_keypress_SLASH	10	stimuli_target_squarediamonds.svg	stimuli_distractor_trianglediamonds.svg	5	yes	57	0	253
6.6.1	win	2022-12-21	16:34:15	16:42:37	500544	5d54beb0c15b0700018d0211	195239898	1	practice_slash	9	practice_slash	11	stimuli_target_diamondsquares.svg	stimuli_distractor_diamondtriangles.svg	3	yes	53	1	725
6.6.1	win	2022-12-21	16:34:15	16:42:37	500544	5d54beb0c15b0700018d0211	195239898	1	practice_slash	9	advance_on_keypress_SLASH	12	stimuli_target_diamondsquares.svg	stimuli_distractor_diamondtriangles.svg	3	yes	57	0	268
6.6.1	win	2022-12-21	16:34:15	16:42:41	504454	5d54beb0c15b0700018d0211	195239898	1	practice_slash	9	practice_slash	13	stimuli_distractor_trianglediamonds.svg	stimuli_distractor_diamondtriangles.svg	16	no	0	1	2000
6.6.1	win	2022-12-21	16:34:15	16:42:41	504454	5d54beb0c15b0700018d0211	195239898	1	practice_slash	9	advance_on_keypress_SLASH	14	stimuli_distractor_trianglediamonds.svg	stimuli_distractor_diamondtriangles.svg	16	no	57	0	284
6.6.1	win	2022-12-21	16:34:15	16:42:43	506881	5d54beb0c15b0700018d0211	195239898	1	practice_slash	9	practice_slash	15	stimuli_distractor_diamondtriangles.svg	stimuli_target_diamondcircles.svg	8	yes	53	1	494
6.6.1	win	2022-12-21	16:34:15	16:42:43	506881	5d54beb0c15b0700018d0211	195239898	1	practice_slash	9	advance_on_keypress_SLASH	16	stimuli_distractor_diamondtriangles.svg	stimuli_target_diamondcircles.svg	8	yes	57	0	359
6.6.1	win	2022-12-21	16:34:15	16:42:45	509226	5d54beb0c15b0700018d0211	195239898	1	practice_slash	9	practice_slash	17	stimuli_distractor_diamondtriangles.svg	stimuli_target_circletriangles.svg	7	yes	53	1	355
6.6.1	win	2022-12-21	16:34:15	16:42:45	509226	5d54beb0c15b0700018d0211	195239898	1	practice_slash	9	advance_on_keypress_SLASH	18	stimuli_distractor_diamondtriangles.svg	stimuli_target_circletriangles.svg	7	yes	57	0	266
6.6.1	win	2022-12-21	16:34:15	16:42:49	513138	5d54beb0c15b0700018d0211	195239898	1	practice_slash	9	practice_slash	19	stimuli_distractor_trianglediamonds.svg	stimuli_distractor_trianglediamonds.svg	15	no	0	1	2000
6.6.1	win	2022-12-21	16:34:15	16:42:49	513138	5d54beb0c15b0700018d0211	195239898	1	practice_slash	9	advance_on_keypress_SLASH	20	stimuli_distractor_trianglediamonds.svg	stimuli_distractor_trianglediamonds.svg	15	no	57	0	209
6.6.1	win	2022-12-21	16:34:15	16:42:52	515427	5d54beb0c15b0700018d0211	195239898	1	practice_slash	9	practice_slash	21	stimuli_target_diamondsquares.svg	stimuli_distractor_trianglediamonds.svg	6	yes	53	1	439
6.6.1	win	2022-12-21	16:34:15	16:42:52	515427	5d54beb0c15b0700018d0211	195239898	1	practice_slash	9	advance_on_keypress_SLASH	22	stimuli_target_diamondsquares.svg	stimuli_distractor_trianglediamonds.svg	6	yes	57	0	351
6.6.1	win	2022-12-21	16:34:15	16:42:54	517744	5d54beb0c15b0700018d0211	195239898	1	practice_slash	9	practice_slash	23	stimuli_distractor_trianglediamonds.svg	stimuli_target_diamondcircles.svg	12	yes	53	1	322
6.6.1	win	2022-12-21	16:34:15	16:42:54	517744	5d54beb0c15b0700018d0211	195239898	1	practice_slash	9	advance_on_keypress_SLASH	24	stimuli_distractor_trianglediamonds.svg	stimuli_target_diamondcircles.svg	12	yes	57	0	267
6.6.1	win	2022-12-21	16:34:15	16:42:56	520155	5d54beb0c15b0700018d0211	195239898	1	practice_slash	9	practice_slash	25	stimuli_distractor_trianglediamonds.svg	stimuli_target_squarediamonds.svg	11	yes	53	1	499
6.6.1	win	2022-12-21	16:34:15	16:42:56	520155	5d54beb0c15b0700018d0211	195239898	1	practice_slash	9	advance_on_keypress_SLASH	26	stimuli_distractor_trianglediamonds.svg	stimuli_target_squarediamonds.svg	11	yes	57	0	355
6.6.1	win	2022-12-21	16:34:15	16:42:59	522590	5d54beb0c15b0700018d0211	195239898	1	practice_slash	9	practice_slash	27	stimuli_target_circlediamonds.svg	stimuli_distractor_diamondtriangles.svg	1	yes	53	1	435
6.6.1	win	2022-12-21	16:34:15	16:42:59	522590	5d54beb0c15b0700018d0211	195239898	1	practice_slash	9	advance_on_keypress_SLASH	28	stimuli_target_circlediamonds.svg	stimuli_distractor_diamondtriangles.svg	1	yes	57	0	286
6.6.1	win	2022-12-21	16:34:15	16:43:02	525787	5d54beb0c15b0700018d0211	195239898	1	practice_slash	9	practice_slash	29	stimuli_distractor_diamondtriangles.svg	stimuli_distractor_trianglediamonds.svg	14	no	53	0	1265
6.6.1	win	2022-12-21	16:34:15	16:43:02	525787	5d54beb0c15b0700018d0211	195239898	1	practice_slash	9	advance_on_keypress_SLASH	30	stimuli_distractor_diamondtriangles.svg	stimuli_distractor_trianglediamonds.svg	14	no	57	0	336
6.6.1	win	2022-12-21	16:34:15	16:43:06	529771	5d54beb0c15b0700018d0211	195239898	1	practice_slash	9	practice_slash	31	stimuli_distractor_diamondtriangles.svg	stimuli_distractor_diamondtriangles.svg	13	no	0	1	2000
6.6.1	win	2022-12-21	16:34:15	16:43:06	529771	5d54beb0c15b0700018d0211	195239898	1	practice_slash	9	advance_on_keypress_SLASH	32	stimuli_distractor_diamondtriangles.svg	stimuli_distractor_diamondtriangles.svg	13	no	57	0	373
6.6.1	win	2022-12-21	16:34:15	16:43:11	534286	5d54beb0c15b0700018d0211	195239898	1	main_slash	11	main_slash	1	stimuli_target_circlediamonds.svg	stimuli_distractor_diamondtriangles.svg	6	yes	53	1	498
6.6.1	win	2022-12-21	16:34:15	16:43:11	534286	5d54beb0c15b0700018d0211	195239898	1	main_slash	11	advance_on_keypress_SLASH	2	stimuli_target_circlediamonds.svg	stimuli_distractor_diamondtriangles.svg	6	yes	57	0	645
6.6.1	win	2022-12-21	16:34:15	16:43:13	536300	5d54beb0c15b0700018d0211	195239898	1	main_slash	11	main_slash	3	stimuli_distractor_trianglediamonds.svg	stimuli_distractor_diamondtriangles.svg	35	no	53	0	729
6.6.1	win	2022-12-21	16:34:15	16:43:13	536300	5d54beb0c15b0700018d0211	195239898	1	main_slash	11	advance_on_keypress_SLASH	4	stimuli_distractor_trianglediamonds.svg	stimuli_distractor_diamondtriangles.svg	35	no	57	0	264
6.6.1	win	2022-12-21	16:34:15	16:43:15	539188	5d54beb0c15b0700018d0211	195239898	1	main_slash	11	main_slash	5	stimuli_distractor_diamondtriangles.svg	stimuli_distractor_trianglediamonds.svg	38	no	0	1	2000
6.6.1	win	2022-12-21	16:34:15	16:43:15	539188	5d54beb0c15b0700018d0211	195239898	1	main_slash	11	advance_on_keypress_SLASH	6	stimuli_distractor_diamondtriangles.svg	stimuli_distractor_trianglediamonds.svg	38	no	57	0	239
6.6.1	win	2022-12-21	16:34:15	16:43:18	542071	5d54beb0c15b0700018d0211	195239898	1	main_slash	11	main_slash	7	stimuli_distractor_diamondtriangles.svg	stimuli_distractor_diamondtriangles.svg	40	no	0	1	2000
6.6.1	win	2022-12-21	16:34:15	16:43:18	542071	5d54beb0c15b0700018d0211	195239898	1	main_slash	11	advance_on_keypress_SLASH	8	stimuli_distractor_diamondtriangles.svg	stimuli_distractor_diamondtriangles.svg	40	no	57	0	434
6.6.1	win	2022-12-21	16:34:15	16:43:20	543804	5d54beb0c15b0700018d0211	195239898	1	main_slash	11	main_slash	9	stimuli_distractor_trianglediamonds.svg	stimuli_target_squarediamonds.svg	12	yes	53	1	650
6.6.1	win	2022-12-21	16:34:15	16:43:20	543804	5d54beb0c15b0700018d0211	195239898	1	main_slash	11	advance_on_keypress_SLASH	10	stimuli_distractor_trianglediamonds.svg	stimuli_target_squarediamonds.svg	12	yes	57	0	376
6.6.1	win	2022-12-21	16:34:15	16:43:23	546821	5d54beb0c15b0700018d0211	195239898	1	main_slash	11	main_slash	11	stimuli_distractor_diamondtriangles.svg	stimuli_distractor_diamondtriangles.svg	39	no	0	1	2000
6.6.1	win	2022-12-21	16:34:15	16:43:23	546821	5d54beb0c15b0700018d0211	195239898	1	main_slash	11	advance_on_keypress_SLASH	12	stimuli_distractor_diamondtriangles.svg	stimuli_distractor_diamondtriangles.svg	39	no	57	0	255
6.6.1	win	2022-12-21	16:34:15	16:43:25	548459	5d54beb0c15b0700018d0211	195239898	1	main_slash	11	main_slash	13	stimuli_distractor_trianglediamonds.svg	stimuli_target_diamondsquares.svg	28	yes	53	1	738
6.6.1	win	2022-12-21	16:34:15	16:43:25	548459	5d54beb0c15b0700018d0211	195239898	1	main_slash	11	advance_on_keypress_SLASH	14	stimuli_distractor_trianglediamonds.svg	stimuli_target_diamondsquares.svg	28	yes	57	0	316
6.6.1	win	2022-12-21	16:34:15	16:43:26	549770	5d54beb0c15b0700018d0211	195239898	1	main_slash	11	main_slash	15	stimuli_target_circletriangles.svg	stimuli_distractor_trianglediamonds.svg	1	yes	53	1	349
6.6.1	win	2022-12-21	16:34:15	16:43:26	549770	5d54beb0c15b0700018d0211	195239898	1	main_slash	11	advance_on_keypress_SLASH	16	stimuli_target_circletriangles.svg	stimuli_distractor_trianglediamonds.svg	1	yes	57	0	279
6.6.1	win	2022-12-21	16:34:15	16:43:27	550997	5d54beb0c15b0700018d0211	195239898	1	main_slash	11	main_slash	17	stimuli_distractor_trianglediamonds.svg	stimuli_distractor_trianglediamonds.svg	33	no	53	0	308
6.6.1	win	2022-12-21	16:34:15	16:43:27	550997	5d54beb0c15b0700018d0211	195239898	1	main_slash	11	advance_on_keypress_SLASH	18	stimuli_distractor_trianglediamonds.svg	stimuli_distractor_trianglediamonds.svg	33	no	57	0	276
6.6.1	win	2022-12-21	16:34:15	16:43:29	552362	5d54beb0c15b0700018d0211	195239898	1	main_slash	11	main_slash	19	stimuli_distractor_trianglediamonds.svg	stimuli_target_squaretriangles.svg	11	yes	53	1	458
6.6.1	win	2022-12-21	16:34:15	16:43:29	552362	5d54beb0c15b0700018d0211	195239898	1	main_slash	11	advance_on_keypress_SLASH	20	stimuli_distractor_trianglediamonds.svg	stimuli_target_squaretriangles.svg	11	yes	57	0	140
6.6.1	win	2022-12-21	16:34:15	16:43:30	553527	5d54beb0c15b0700018d0211	195239898	1	main_slash	11	main_slash	21	stimuli_target_circlediamonds.svg	stimuli_distractor_trianglediamonds.svg	2	yes	53	1	389
6.6.1	win	2022-12-21	16:34:15	16:43:30	553527	5d54beb0c15b0700018d0211	195239898	1	main_slash	11	advance_on_keypress_SLASH	22	stimuli_target_circlediamonds.svg	stimuli_distractor_trianglediamonds.svg	2	yes	57	0	110
6.6.1	win	2022-12-21	16:34:15	16:43:31	555035	5d54beb0c15b0700018d0211	195239898	1	main_slash	11	main_slash	23	stimuli_target_diamondsquares.svg	stimuli_distractor_trianglediamonds.svg	20	yes	53	1	764
6.6.1	win	2022-12-21	16:34:15	16:43:31	555035	5d54beb0c15b0700018d0211	195239898	1	main_slash	11	advance_on_keypress_SLASH	24	stimuli_target_diamondsquares.svg	stimuli_distractor_trianglediamonds.svg	20	yes	57	0	137
6.6.1	win	2022-12-21	16:34:15	16:43:33	556519	5d54beb0c15b0700018d0211	195239898	1	main_slash	11	main_slash	25	stimuli_target_trianglesquares.svg	stimuli_distractor_trianglediamonds.svg	18	yes	53	1	714
6.6.1	win	2022-12-21	16:34:15	16:43:33	556519	5d54beb0c15b0700018d0211	195239898	1	main_slash	11	advance_on_keypress_SLASH	26	stimuli_target_trianglesquares.svg	stimuli_distractor_trianglediamonds.svg	18	yes	57	0	69
6.6.1	win	2022-12-21	16:34:15	16:43:34	557857	5d54beb0c15b0700018d0211	195239898	1	main_slash	11	main_slash	27	stimuli_target_circletriangles.svg	stimuli_distractor_diamondtriangles.svg	5	yes	53	1	619
6.6.1	win	2022-12-21	16:34:15	16:43:34	557857	5d54beb0c15b0700018d0211	195239898	1	main_slash	11	advance_on_keypress_SLASH	28	stimuli_target_circletriangles.svg	stimuli_distractor_diamondtriangles.svg	5	yes	57	0	101
6.6.1	win	2022-12-21	16:34:15	16:43:35	559185	5d54beb0c15b0700018d0211	195239898	1	main_slash	11	main_slash	29	stimuli_distractor_diamondtriangles.svg	stimuli_target_trianglecircles.svg	29	yes	53	1	580
6.6.1	win	2022-12-21	16:34:15	16:43:35	559185	5d54beb0c15b0700018d0211	195239898	1	main_slash	11	advance_on_keypress_SLASH	30	stimuli_distractor_diamondtriangles.svg	stimuli_target_trianglecircles.svg	29	yes	57	0	127
6.6.1	win	2022-12-21	16:34:15	16:43:37	560434	5d54beb0c15b0700018d0211	195239898	1	main_slash	11	main_slash	31	stimuli_distractor_diamondtriangles.svg	stimuli_target_circletriangles.svg	13	yes	53	1	496
6.6.1	win	2022-12-21	16:34:15	16:43:37	560434	5d54beb0c15b0700018d0211	195239898	1	main_slash	11	advance_on_keypress_SLASH	32	stimuli_distractor_diamondtriangles.svg	stimuli_target_circletriangles.svg	13	yes	57	0	97
6.6.1	win	2022-12-21	16:34:15	16:43:38	561610	5d54beb0c15b0700018d0211	195239898	1	main_slash	11	main_slash	33	stimuli_distractor_trianglediamonds.svg	stimuli_target_circlediamonds.svg	10	yes	53	1	455
6.6.1	win	2022-12-21	16:34:15	16:43:38	561610	5d54beb0c15b0700018d0211	195239898	1	main_slash	11	advance_on_keypress_SLASH	34	stimuli_distractor_trianglediamonds.svg	stimuli_target_circlediamonds.svg	10	yes	57	0	90
6.6.1	win	2022-12-21	16:34:15	16:43:39	562738	5d54beb0c15b0700018d0211	195239898	1	main_slash	11	main_slash	35	stimuli_target_squaretriangles.svg	stimuli_distractor_diamondtriangles.svg	7	yes	53	1	400
6.6.1	win	2022-12-21	16:34:15	16:43:39	562738	5d54beb0c15b0700018d0211	195239898	1	main_slash	11	advance_on_keypress_SLASH	36	stimuli_target_squaretriangles.svg	stimuli_distractor_diamondtriangles.svg	7	yes	57	0	73
6.6.1	win	2022-12-21	16:34:15	16:43:40	563875	5d54beb0c15b0700018d0211	195239898	1	main_slash	11	main_slash	37	stimuli_target_trianglecircles.svg	stimuli_distractor_trianglediamonds.svg	17	yes	53	1	420
6.6.1	win	2022-12-21	16:34:15	16:43:40	563875	5d54beb0c15b0700018d0211	195239898	1	main_slash	11	advance_on_keypress_SLASH	38	stimuli_target_trianglecircles.svg	stimuli_distractor_trianglediamonds.svg	17	yes	57	0	94
6.6.1	win	2022-12-21	16:34:15	16:43:41	564988	5d54beb0c15b0700018d0211	195239898	1	main_slash	11	main_slash	39	stimuli_target_diamondcircles.svg	stimuli_distractor_diamondtriangles.svg	23	yes	53	1	371
6.6.1	win	2022-12-21	16:34:15	16:43:41	564988	5d54beb0c15b0700018d0211	195239898	1	main_slash	11	advance_on_keypress_SLASH	40	stimuli_target_diamondcircles.svg	stimuli_distractor_diamondtriangles.svg	23	yes	57	0	88
6.6.1	win	2022-12-21	16:34:15	16:43:42	566136	5d54beb0c15b0700018d0211	195239898	1	main_slash	11	main_slash	41	stimuli_distractor_trianglediamonds.svg	stimuli_target_trianglecircles.svg	25	yes	53	1	415
6.6.1	win	2022-12-21	16:34:15	16:43:42	566136	5d54beb0c15b0700018d0211	195239898	1	main_slash	11	advance_on_keypress_SLASH	42	stimuli_distractor_trianglediamonds.svg	stimuli_target_trianglecircles.svg	25	yes	57	0	130
6.6.1	win	2022-12-21	16:34:15	16:43:44	567437	5d54beb0c15b0700018d0211	195239898	1	main_slash	11	main_slash	43	stimuli_target_squarediamonds.svg	stimuli_distractor_trianglediamonds.svg	4	yes	53	1	532
6.6.1	win	2022-12-21	16:34:15	16:43:44	567437	5d54beb0c15b0700018d0211	195239898	1	main_slash	11	advance_on_keypress_SLASH	44	stimuli_target_squarediamonds.svg	stimuli_distractor_trianglediamonds.svg	4	yes	57	0	115
6.6.1	win	2022-12-21	16:34:15	16:43:45	568704	5d54beb0c15b0700018d0211	195239898	1	main_slash	11	main_slash	45	stimuli_distractor_diamondtriangles.svg	stimuli_target_squarediamonds.svg	16	yes	53	1	499
6.6.1	win	2022-12-21	16:34:15	16:43:45	568704	5d54beb0c15b0700018d0211	195239898	1	main_slash	11	advance_on_keypress_SLASH	46	stimuli_distractor_diamondtriangles.svg	stimuli_target_squarediamonds.svg	16	yes	57	0	137
6.6.1	win	2022-12-21	16:34:15	16:43:48	571488	5d54beb0c15b0700018d0211	195239898	1	main_slash	11	main_slash	47	stimuli_distractor_trianglediamonds.svg	stimuli_distractor_diamondtriangles.svg	36	no	0	1	2000
6.6.1	win	2022-12-21	16:34:15	16:43:48	571488	5d54beb0c15b0700018d0211	195239898	1	main_slash	11	advance_on_keypress_SLASH	48	stimuli_distractor_trianglediamonds.svg	stimuli_distractor_diamondtriangles.svg	36	no	57	0	299
6.6.1	win	2022-12-21	16:34:15	16:43:49	572904	5d54beb0c15b0700018d0211	195239898	1	main_slash	11	main_slash	49	stimuli_distractor_trianglediamonds.svg	stimuli_target_circletriangles.svg	9	yes	53	1	466
6.6.1	win	2022-12-21	16:34:15	16:43:49	572904	5d54beb0c15b0700018d0211	195239898	1	main_slash	11	advance_on_keypress_SLASH	50	stimuli_distractor_trianglediamonds.svg	stimuli_target_circletriangles.svg	9	yes	57	0	85
6.6.1	win	2022-12-21	16:34:15	16:43:50	574154	5d54beb0c15b0700018d0211	195239898	1	main_slash	11	main_slash	51	stimuli_distractor_diamondtriangles.svg	stimuli_target_diamondsquares.svg	32	yes	53	1	502
6.6.1	win	2022-12-21	16:34:15	16:43:50	574154	5d54beb0c15b0700018d0211	195239898	1	main_slash	11	advance_on_keypress_SLASH	52	stimuli_distractor_diamondtriangles.svg	stimuli_target_diamondsquares.svg	32	yes	57	0	141
6.6.1	win	2022-12-21	16:34:15	16:43:52	575548	5d54beb0c15b0700018d0211	195239898	1	main_slash	11	main_slash	53	stimuli_distractor_trianglediamonds.svg	stimuli_target_trianglesquares.svg	26	yes	53	1	610
6.6.1	win	2022-12-21	16:34:15	16:43:52	575548	5d54beb0c15b0700018d0211	195239898	1	main_slash	11	advance_on_keypress_SLASH	54	stimuli_distractor_trianglediamonds.svg	stimuli_target_trianglesquares.svg	26	yes	57	0	82
6.6.1	win	2022-12-21	16:34:15	16:43:53	576697	5d54beb0c15b0700018d0211	195239898	1	main_slash	11	main_slash	55	stimuli_distractor_trianglediamonds.svg	stimuli_target_diamondcircles.svg	27	yes	53	1	425
6.6.1	win	2022-12-21	16:34:15	16:43:53	576697	5d54beb0c15b0700018d0211	195239898	1	main_slash	11	advance_on_keypress_SLASH	56	stimuli_distractor_trianglediamonds.svg	stimuli_target_diamondcircles.svg	27	yes	57	0	68
6.6.1	win	2022-12-21	16:34:15	16:43:54	577762	5d54beb0c15b0700018d0211	195239898	1	main_slash	11	main_slash	57	stimuli_target_diamondcircles.svg	stimuli_distractor_trianglediamonds.svg	19	yes	53	1	357
6.6.1	win	2022-12-21	16:34:15	16:43:54	577762	5d54beb0c15b0700018d0211	195239898	1	main_slash	11	advance_on_keypress_SLASH	58	stimuli_target_diamondcircles.svg	stimuli_distractor_trianglediamonds.svg	19	yes	57	0	87
6.6.1	win	2022-12-21	16:34:15	16:43:55	578834	5d54beb0c15b0700018d0211	195239898	1	main_slash	11	main_slash	59	stimuli_target_trianglecircles.svg	stimuli_distractor_diamondtriangles.svg	21	yes	53	1	346
6.6.1	win	2022-12-21	16:34:15	16:43:55	578834	5d54beb0c15b0700018d0211	195239898	1	main_slash	11	advance_on_keypress_SLASH	60	stimuli_target_trianglecircles.svg	stimuli_distractor_diamondtriangles.svg	21	yes	57	0	73
6.6.1	win	2022-12-21	16:34:15	16:43:56	579937	5d54beb0c15b0700018d0211	195239898	1	main_slash	11	main_slash	61	stimuli_target_diamondsquares.svg	stimuli_distractor_diamondtriangles.svg	24	yes	53	1	399
6.6.1	win	2022-12-21	16:34:15	16:43:56	579937	5d54beb0c15b0700018d0211	195239898	1	main_slash	11	advance_on_keypress_SLASH	62	stimuli_target_diamondsquares.svg	stimuli_distractor_diamondtriangles.svg	24	yes	57	0	61
6.6.1	win	2022-12-21	16:34:15	16:43:57	581051	5d54beb0c15b0700018d0211	195239898	1	main_slash	11	main_slash	63	stimuli_target_squaretriangles.svg	stimuli_distractor_trianglediamonds.svg	3	yes	53	1	413
6.6.1	win	2022-12-21	16:34:15	16:43:57	581051	5d54beb0c15b0700018d0211	195239898	1	main_slash	11	advance_on_keypress_SLASH	64	stimuli_target_squaretriangles.svg	stimuli_distractor_trianglediamonds.svg	3	yes	57	0	94
6.6.1	win	2022-12-21	16:34:15	16:43:58	582117	5d54beb0c15b0700018d0211	195239898	1	main_slash	11	main_slash	65	stimuli_distractor_diamondtriangles.svg	stimuli_distractor_trianglediamonds.svg	37	no	53	0	345
6.6.1	win	2022-12-21	16:34:15	16:43:58	582117	5d54beb0c15b0700018d0211	195239898	1	main_slash	11	advance_on_keypress_SLASH	66	stimuli_distractor_diamondtriangles.svg	stimuli_distractor_trianglediamonds.svg	37	no	57	0	131
6.6.1	win	2022-12-21	16:34:15	16:44:00	583436	5d54beb0c15b0700018d0211	195239898	1	main_slash	11	main_slash	67	stimuli_target_trianglesquares.svg	stimuli_distractor_diamondtriangles.svg	22	yes	53	1	548
6.6.1	win	2022-12-21	16:34:15	16:44:00	583436	5d54beb0c15b0700018d0211	195239898	1	main_slash	11	advance_on_keypress_SLASH	68	stimuli_target_trianglesquares.svg	stimuli_distractor_diamondtriangles.svg	22	yes	57	0	66
6.6.1	win	2022-12-21	16:34:15	16:44:01	584604	5d54beb0c15b0700018d0211	195239898	1	main_slash	11	main_slash	69	stimuli_distractor_diamondtriangles.svg	stimuli_target_diamondcircles.svg	31	yes	53	1	449
6.6.1	win	2022-12-21	16:34:15	16:44:01	584604	5d54beb0c15b0700018d0211	195239898	1	main_slash	11	advance_on_keypress_SLASH	70	stimuli_distractor_diamondtriangles.svg	stimuli_target_diamondcircles.svg	31	yes	57	0	73
6.6.1	win	2022-12-21	16:34:15	16:44:02	585812	5d54beb0c15b0700018d0211	195239898	1	main_slash	11	main_slash	71	stimuli_distractor_diamondtriangles.svg	stimuli_target_circlediamonds.svg	14	yes	53	1	490
6.6.1	win	2022-12-21	16:34:15	16:44:02	585812	5d54beb0c15b0700018d0211	195239898	1	main_slash	11	advance_on_keypress_SLASH	72	stimuli_distractor_diamondtriangles.svg	stimuli_target_circlediamonds.svg	14	yes	57	0	81
6.6.1	win	2022-12-21	16:34:15	16:44:04	587343	5d54beb0c15b0700018d0211	195239898	1	main_slash	11	main_slash	73	stimuli_distractor_diamondtriangles.svg	stimuli_target_trianglesquares.svg	30	yes	53	1	805
6.6.1	win	2022-12-21	16:34:15	16:44:04	587343	5d54beb0c15b0700018d0211	195239898	1	main_slash	11	advance_on_keypress_SLASH	74	stimuli_distractor_diamondtriangles.svg	stimuli_target_trianglesquares.svg	30	yes	57	0	90
6.6.1	win	2022-12-21	16:34:15	16:44:05	588485	5d54beb0c15b0700018d0211	195239898	1	main_slash	11	main_slash	75	stimuli_target_squarediamonds.svg	stimuli_distractor_diamondtriangles.svg	8	yes	53	1	413
6.6.1	win	2022-12-21	16:34:15	16:44:05	588485	5d54beb0c15b0700018d0211	195239898	1	main_slash	11	advance_on_keypress_SLASH	76	stimuli_target_squarediamonds.svg	stimuli_distractor_diamondtriangles.svg	8	yes	57	0	118
6.6.1	win	2022-12-21	16:34:15	16:44:06	589664	5d54beb0c15b0700018d0211	195239898	1	main_slash	11	main_slash	77	stimuli_distractor_diamondtriangles.svg	stimuli_target_squaretriangles.svg	15	yes	53	1	426
6.6.1	win	2022-12-21	16:34:15	16:44:06	589664	5d54beb0c15b0700018d0211	195239898	1	main_slash	11	advance_on_keypress_SLASH	78	stimuli_distractor_diamondtriangles.svg	stimuli_target_squaretriangles.svg	15	yes	57	0	64
6.6.1	win	2022-12-21	16:34:15	16:44:09	592355	5d54beb0c15b0700018d0211	195239898	1	main_slash	11	main_slash	79	stimuli_distractor_trianglediamonds.svg	stimuli_distractor_trianglediamonds.svg	34	no	0	1	2000
6.6.1	win	2022-12-21	16:34:15	16:44:09	592355	5d54beb0c15b0700018d0211	195239898	1	main_slash	11	advance_on_keypress_SLASH	80	stimuli_distractor_trianglediamonds.svg	stimuli_distractor_trianglediamonds.svg	34	no	57	0	277
6.6.1	win	2022-12-21	16:34:15	16:44:10	593788	5d54beb0c15b0700018d0211	195239898	1	main_slash	11	main_slash	81	stimuli_distractor_diamondtriangles.svg	stimuli_target_squaretriangles.svg	15	yes	53	1	504
6.6.1	win	2022-12-21	16:34:15	16:44:10	593788	5d54beb0c15b0700018d0211	195239898	1	main_slash	11	advance_on_keypress_SLASH	82	stimuli_distractor_diamondtriangles.svg	stimuli_target_squaretriangles.svg	15	yes	57	0	77
6.6.1	win	2022-12-21	16:34:15	16:44:12	595578	5d54beb0c15b0700018d0211	195239898	1	main_slash	11	main_slash	83	stimuli_distractor_trianglediamonds.svg	stimuli_target_diamondsquares.svg	28	yes	53	1	1073
6.6.1	win	2022-12-21	16:34:15	16:44:12	595578	5d54beb0c15b0700018d0211	195239898	1	main_slash	11	advance_on_keypress_SLASH	84	stimuli_distractor_trianglediamonds.svg	stimuli_target_diamondsquares.svg	28	yes	57	0	80
6.6.1	win	2022-12-21	16:34:15	16:44:13	596855	5d54beb0c15b0700018d0211	195239898	1	main_slash	11	main_slash	85	stimuli_distractor_trianglediamonds.svg	stimuli_target_squaretriangles.svg	11	yes	53	1	567
6.6.1	win	2022-12-21	16:34:15	16:44:13	596855	5d54beb0c15b0700018d0211	195239898	1	main_slash	11	advance_on_keypress_SLASH	86	stimuli_distractor_trianglediamonds.svg	stimuli_target_squaretriangles.svg	11	yes	57	0	73
6.6.1	win	2022-12-21	16:34:15	16:44:16	599572	5d54beb0c15b0700018d0211	195239898	1	main_slash	11	main_slash	87	stimuli_distractor_trianglediamonds.svg	stimuli_distractor_trianglediamonds.svg	33	no	0	1	2000
6.6.1	win	2022-12-21	16:34:15	16:44:16	599572	5d54beb0c15b0700018d0211	195239898	1	main_slash	11	advance_on_keypress_SLASH	88	stimuli_distractor_trianglediamonds.svg	stimuli_distractor_trianglediamonds.svg	33	no	57	0	219
6.6.1	win	2022-12-21	16:34:15	16:44:17	600886	5d54beb0c15b0700018d0211	195239898	1	main_slash	11	main_slash	89	stimuli_target_trianglecircles.svg	stimuli_distractor_diamondtriangles.svg	21	yes	53	1	447
6.6.1	win	2022-12-21	16:34:15	16:44:17	600886	5d54beb0c15b0700018d0211	195239898	1	main_slash	11	advance_on_keypress_SLASH	90	stimuli_target_trianglecircles.svg	stimuli_distractor_diamondtriangles.svg	21	yes	57	0	89
6.6.1	win	2022-12-21	16:34:15	16:44:20	603605	5d54beb0c15b0700018d0211	195239898	1	main_slash	11	main_slash	91	stimuli_distractor_trianglediamonds.svg	stimuli_distractor_trianglediamonds.svg	34	no	0	1	2000
6.6.1	win	2022-12-21	16:34:15	16:44:20	603605	5d54beb0c15b0700018d0211	195239898	1	main_slash	11	advance_on_keypress_SLASH	92	stimuli_distractor_trianglediamonds.svg	stimuli_distractor_trianglediamonds.svg	34	no	57	0	344
6.6.1	win	2022-12-21	16:34:15	16:44:21	605122	5d54beb0c15b0700018d0211	195239898	1	main_slash	11	main_slash	93	stimuli_target_trianglecircles.svg	stimuli_distractor_trianglediamonds.svg	17	yes	53	1	533
6.6.1	win	2022-12-21	16:34:15	16:44:21	605122	5d54beb0c15b0700018d0211	195239898	1	main_slash	11	advance_on_keypress_SLASH	94	stimuli_target_trianglecircles.svg	stimuli_distractor_trianglediamonds.svg	17	yes	57	0	95
6.6.1	win	2022-12-21	16:34:15	16:44:23	606345	5d54beb0c15b0700018d0211	195239898	1	main_slash	11	main_slash	95	stimuli_target_diamondsquares.svg	stimuli_distractor_diamondtriangles.svg	24	yes	53	1	490
6.6.1	win	2022-12-21	16:34:15	16:44:23	606345	5d54beb0c15b0700018d0211	195239898	1	main_slash	11	advance_on_keypress_SLASH	96	stimuli_target_diamondsquares.svg	stimuli_distractor_diamondtriangles.svg	24	yes	57	0	88
6.6.1	win	2022-12-21	16:34:15	16:44:25	609072	5d54beb0c15b0700018d0211	195239898	1	main_slash	11	main_slash	97	stimuli_distractor_diamondtriangles.svg	stimuli_distractor_diamondtriangles.svg	40	no	0	1	2000
6.6.1	win	2022-12-21	16:34:15	16:44:25	609072	5d54beb0c15b0700018d0211	195239898	1	main_slash	11	advance_on_keypress_SLASH	98	stimuli_distractor_diamondtriangles.svg	stimuli_distractor_diamondtriangles.svg	40	no	57	0	273
6.6.1	win	2022-12-21	16:34:15	16:44:27	611187	5d54beb0c15b0700018d0211	195239898	1	main_slash	11	main_slash	99	stimuli_distractor_trianglediamonds.svg	stimuli_distractor_diamondtriangles.svg	36	no	53	0	1198
6.6.1	win	2022-12-21	16:34:15	16:44:27	611187	5d54beb0c15b0700018d0211	195239898	1	main_slash	11	advance_on_keypress_SLASH	100	stimuli_distractor_trianglediamonds.svg	stimuli_distractor_diamondtriangles.svg	36	no	57	0	55
6.6.1	win	2022-12-21	16:34:15	16:44:28	612253	5d54beb0c15b0700018d0211	195239898	1	main_slash	11	main_slash	101	stimuli_distractor_trianglediamonds.svg	stimuli_target_squarediamonds.svg	12	yes	53	1	364
6.6.1	win	2022-12-21	16:34:15	16:44:28	612253	5d54beb0c15b0700018d0211	195239898	1	main_slash	11	advance_on_keypress_SLASH	102	stimuli_distractor_trianglediamonds.svg	stimuli_target_squarediamonds.svg	12	yes	57	0	70
6.6.1	win	2022-12-21	16:34:15	16:44:30	613428	5d54beb0c15b0700018d0211	195239898	1	main_slash	11	main_slash	103	stimuli_distractor_diamondtriangles.svg	stimuli_target_trianglesquares.svg	30	yes	53	1	473
6.6.1	win	2022-12-21	16:34:15	16:44:30	613428	5d54beb0c15b0700018d0211	195239898	1	main_slash	11	advance_on_keypress_SLASH	104	stimuli_distractor_diamondtriangles.svg	stimuli_target_trianglesquares.svg	30	yes	57	0	56
6.6.1	win	2022-12-21	16:34:15	16:44:31	614510	5d54beb0c15b0700018d0211	195239898	1	main_slash	11	main_slash	105	stimuli_target_squarediamonds.svg	stimuli_distractor_diamondtriangles.svg	8	yes	53	1	388
6.6.1	win	2022-12-21	16:34:15	16:44:31	614510	5d54beb0c15b0700018d0211	195239898	1	main_slash	11	advance_on_keypress_SLASH	106	stimuli_target_squarediamonds.svg	stimuli_distractor_diamondtriangles.svg	8	yes	57	0	56
6.6.1	win	2022-12-21	16:34:15	16:44:32	615525	5d54beb0c15b0700018d0211	195239898	1	main_slash	11	main_slash	107	stimuli_distractor_diamondtriangles.svg	stimuli_target_circlediamonds.svg	14	yes	53	1	320
6.6.1	win	2022-12-21	16:34:15	16:44:32	615525	5d54beb0c15b0700018d0211	195239898	1	main_slash	11	advance_on_keypress_SLASH	108	stimuli_distractor_diamondtriangles.svg	stimuli_target_circlediamonds.svg	14	yes	57	0	32
6.6.1	win	2022-12-21	16:34:15	16:44:33	616563	5d54beb0c15b0700018d0211	195239898	1	main_slash	11	main_slash	109	stimuli_distractor_trianglediamonds.svg	stimuli_target_trianglecircles.svg	25	yes	53	1	358
6.6.1	win	2022-12-21	16:34:15	16:44:33	616563	5d54beb0c15b0700018d0211	195239898	1	main_slash	11	advance_on_keypress_SLASH	110	stimuli_distractor_trianglediamonds.svg	stimuli_target_trianglecircles.svg	25	yes	57	0	12
6.6.1	win	2022-12-21	16:34:15	16:44:34	617583	5d54beb0c15b0700018d0211	195239898	1	main_slash	11	main_slash	111	stimuli_target_squaretriangles.svg	stimuli_distractor_diamondtriangles.svg	7	yes	53	1	361
6.6.1	win	2022-12-21	16:34:15	16:44:34	617583	5d54beb0c15b0700018d0211	195239898	1	main_slash	11	advance_on_keypress_SLASH	112	stimuli_target_squaretriangles.svg	stimuli_distractor_diamondtriangles.svg	7	yes	57	0	52
6.6.1	win	2022-12-21	16:34:15	16:44:35	618596	5d54beb0c15b0700018d0211	195239898	1	main_slash	11	main_slash	113	stimuli_distractor_trianglediamonds.svg	stimuli_target_trianglesquares.svg	26	yes	53	1	324
6.6.1	win	2022-12-21	16:34:15	16:44:35	618596	5d54beb0c15b0700018d0211	195239898	1	main_slash	11	advance_on_keypress_SLASH	114	stimuli_distractor_trianglediamonds.svg	stimuli_target_trianglesquares.svg	26	yes	57	0	81
6.6.1	win	2022-12-21	16:34:15	16:44:36	619780	5d54beb0c15b0700018d0211	195239898	1	main_slash	11	main_slash	115	stimuli_target_squaretriangles.svg	stimuli_distractor_trianglediamonds.svg	3	yes	53	1	475
6.6.1	win	2022-12-21	16:34:15	16:44:36	619780	5d54beb0c15b0700018d0211	195239898	1	main_slash	11	advance_on_keypress_SLASH	116	stimuli_target_squaretriangles.svg	stimuli_distractor_trianglediamonds.svg	3	yes	57	0	81
6.6.1	win	2022-12-21	16:34:15	16:44:37	620888	5d54beb0c15b0700018d0211	195239898	1	main_slash	11	main_slash	117	stimuli_target_squarediamonds.svg	stimuli_distractor_trianglediamonds.svg	4	yes	53	1	374
6.6.1	win	2022-12-21	16:34:15	16:44:37	620888	5d54beb0c15b0700018d0211	195239898	1	main_slash	11	advance_on_keypress_SLASH	118	stimuli_target_squarediamonds.svg	stimuli_distractor_trianglediamonds.svg	4	yes	57	0	64
6.6.1	win	2022-12-21	16:34:15	16:44:40	623605	5d54beb0c15b0700018d0211	195239898	1	main_slash	11	main_slash	119	stimuli_distractor_trianglediamonds.svg	stimuli_distractor_diamondtriangles.svg	35	no	0	1	2000
6.6.1	win	2022-12-21	16:34:15	16:44:40	623605	5d54beb0c15b0700018d0211	195239898	1	main_slash	11	advance_on_keypress_SLASH	120	stimuli_distractor_trianglediamonds.svg	stimuli_distractor_diamondtriangles.svg	35	no	57	0	307
6.6.1	win	2022-12-21	16:34:15	16:44:41	625145	5d54beb0c15b0700018d0211	195239898	1	main_slash	11	main_slash	121	stimuli_distractor_diamondtriangles.svg	stimuli_target_circletriangles.svg	13	yes	53	1	589
6.6.1	win	2022-12-21	16:34:15	16:44:41	625145	5d54beb0c15b0700018d0211	195239898	1	main_slash	11	advance_on_keypress_SLASH	122	stimuli_distractor_diamondtriangles.svg	stimuli_target_circletriangles.svg	13	yes	57	0	70
6.6.1	win	2022-12-21	16:34:15	16:44:44	627855	5d54beb0c15b0700018d0211	195239898	1	main_slash	11	main_slash	123	stimuli_distractor_diamondtriangles.svg	stimuli_distractor_trianglediamonds.svg	37	no	0	1	2000
6.6.1	win	2022-12-21	16:34:15	16:44:44	627855	5d54beb0c15b0700018d0211	195239898	1	main_slash	11	advance_on_keypress_SLASH	124	stimuli_distractor_diamondtriangles.svg	stimuli_distractor_trianglediamonds.svg	37	no	57	0	285
6.6.1	win	2022-12-21	16:34:15	16:44:46	629371	5d54beb0c15b0700018d0211	195239898	1	main_slash	11	main_slash	125	stimuli_distractor_diamondtriangles.svg	stimuli_target_trianglecircles.svg	29	yes	53	1	582
6.6.1	win	2022-12-21	16:34:15	16:44:46	629371	5d54beb0c15b0700018d0211	195239898	1	main_slash	11	advance_on_keypress_SLASH	126	stimuli_distractor_diamondtriangles.svg	stimuli_target_trianglecircles.svg	29	yes	57	0	79
6.6.1	win	2022-12-21	16:34:15	16:44:48	632089	5d54beb0c15b0700018d0211	195239898	1	main_slash	11	main_slash	127	stimuli_distractor_diamondtriangles.svg	stimuli_distractor_diamondtriangles.svg	39	no	0	1	2000
6.6.1	win	2022-12-21	16:34:15	16:44:48	632089	5d54beb0c15b0700018d0211	195239898	1	main_slash	11	advance_on_keypress_SLASH	128	stimuli_distractor_diamondtriangles.svg	stimuli_distractor_diamondtriangles.svg	39	no	57	0	226
6.6.1	win	2022-12-21	16:34:15	16:44:50	633440	5d54beb0c15b0700018d0211	195239898	1	main_slash	11	main_slash	129	stimuli_target_trianglesquares.svg	stimuli_distractor_trianglediamonds.svg	18	yes	53	1	485
6.6.1	win	2022-12-21	16:34:15	16:44:50	633440	5d54beb0c15b0700018d0211	195239898	1	main_slash	11	advance_on_keypress_SLASH	130	stimuli_target_trianglesquares.svg	stimuli_distractor_trianglediamonds.svg	18	yes	57	0	80
6.6.1	win	2022-12-21	16:34:15	16:44:51	634567	5d54beb0c15b0700018d0211	195239898	1	main_slash	11	main_slash	131	stimuli_target_diamondcircles.svg	stimuli_distractor_trianglediamonds.svg	19	yes	53	1	411
6.6.1	win	2022-12-21	16:34:15	16:44:51	634567	5d54beb0c15b0700018d0211	195239898	1	main_slash	11	advance_on_keypress_SLASH	132	stimuli_target_diamondcircles.svg	stimuli_distractor_trianglediamonds.svg	19	yes	57	0	97
6.6.1	win	2022-12-21	16:34:15	16:44:52	635891	5d54beb0c15b0700018d0211	195239898	1	main_slash	11	main_slash	133	stimuli_distractor_diamondtriangles.svg	stimuli_target_diamondcircles.svg	31	yes	53	1	602
6.6.1	win	2022-12-21	16:34:15	16:44:52	635891	5d54beb0c15b0700018d0211	195239898	1	main_slash	11	advance_on_keypress_SLASH	134	stimuli_distractor_diamondtriangles.svg	stimuli_target_diamondcircles.svg	31	yes	57	0	55
6.6.1	win	2022-12-21	16:34:15	16:44:54	637845	5d54beb0c15b0700018d0211	195239898	1	main_slash	11	main_slash	135	stimuli_target_circletriangles.svg	stimuli_distractor_diamondtriangles.svg	5	yes	53	1	1256
6.6.1	win	2022-12-21	16:34:15	16:44:54	637845	5d54beb0c15b0700018d0211	195239898	1	main_slash	11	advance_on_keypress_SLASH	136	stimuli_target_circletriangles.svg	stimuli_distractor_diamondtriangles.svg	5	yes	57	0	71
6.6.1	win	2022-12-21	16:34:15	16:44:55	638914	5d54beb0c15b0700018d0211	195239898	1	main_slash	11	main_slash	137	stimuli_distractor_trianglediamonds.svg	stimuli_target_diamondcircles.svg	27	yes	53	1	358
6.6.1	win	2022-12-21	16:34:15	16:44:55	638914	5d54beb0c15b0700018d0211	195239898	1	main_slash	11	advance_on_keypress_SLASH	138	stimuli_distractor_trianglediamonds.svg	stimuli_target_diamondcircles.svg	27	yes	57	0	73
6.6.1	win	2022-12-21	16:34:15	16:44:56	640092	5d54beb0c15b0700018d0211	195239898	1	main_slash	11	main_slash	139	stimuli_target_trianglesquares.svg	stimuli_distractor_diamondtriangles.svg	22	yes	53	1	470
6.6.1	win	2022-12-21	16:34:15	16:44:56	640092	5d54beb0c15b0700018d0211	195239898	1	main_slash	11	advance_on_keypress_SLASH	140	stimuli_target_trianglesquares.svg	stimuli_distractor_diamondtriangles.svg	22	yes	57	0	58
6.6.1	win	2022-12-21	16:34:15	16:44:57	641172	5d54beb0c15b0700018d0211	195239898	1	main_slash	11	main_slash	141	stimuli_target_circlediamonds.svg	stimuli_distractor_diamondtriangles.svg	6	yes	53	1	382
6.6.1	win	2022-12-21	16:34:15	16:44:57	641172	5d54beb0c15b0700018d0211	195239898	1	main_slash	11	advance_on_keypress_SLASH	142	stimuli_target_circlediamonds.svg	stimuli_distractor_diamondtriangles.svg	6	yes	57	0	69
6.6.1	win	2022-12-21	16:34:15	16:44:59	642300	5d54beb0c15b0700018d0211	195239898	1	main_slash	11	main_slash	143	stimuli_target_diamondcircles.svg	stimuli_distractor_diamondtriangles.svg	23	yes	53	1	411
6.6.1	win	2022-12-21	16:34:15	16:44:59	642300	5d54beb0c15b0700018d0211	195239898	1	main_slash	11	advance_on_keypress_SLASH	144	stimuli_target_diamondcircles.svg	stimuli_distractor_diamondtriangles.svg	23	yes	57	0	95
6.6.1	win	2022-12-21	16:34:15	16:45:00	643485	5d54beb0c15b0700018d0211	195239898	1	main_slash	11	main_slash	145	stimuli_distractor_trianglediamonds.svg	stimuli_target_circletriangles.svg	9	yes	53	1	462
6.6.1	win	2022-12-21	16:34:15	16:45:00	643485	5d54beb0c15b0700018d0211	195239898	1	main_slash	11	advance_on_keypress_SLASH	146	stimuli_distractor_trianglediamonds.svg	stimuli_target_circletriangles.svg	9	yes	57	0	56
6.6.1	win	2022-12-21	16:34:15	16:45:01	644517	5d54beb0c15b0700018d0211	195239898	1	main_slash	11	main_slash	147	stimuli_target_circlediamonds.svg	stimuli_distractor_trianglediamonds.svg	2	yes	53	1	345
6.6.1	win	2022-12-21	16:34:15	16:45:01	644517	5d54beb0c15b0700018d0211	195239898	1	main_slash	11	advance_on_keypress_SLASH	148	stimuli_target_circlediamonds.svg	stimuli_distractor_trianglediamonds.svg	2	yes	57	0	52
6.6.1	win	2022-12-21	16:34:15	16:45:03	647206	5d54beb0c15b0700018d0211	195239898	1	main_slash	11	main_slash	149	stimuli_distractor_diamondtriangles.svg	stimuli_distractor_trianglediamonds.svg	38	no	0	1	2000
6.6.1	win	2022-12-21	16:34:15	16:45:03	647206	5d54beb0c15b0700018d0211	195239898	1	main_slash	11	advance_on_keypress_SLASH	150	stimuli_distractor_diamondtriangles.svg	stimuli_distractor_trianglediamonds.svg	38	no	57	0	311
6.6.1	win	2022-12-21	16:34:15	16:45:05	648616	5d54beb0c15b0700018d0211	195239898	1	main_slash	11	main_slash	151	stimuli_target_circletriangles.svg	stimuli_distractor_trianglediamonds.svg	1	yes	53	1	460
6.6.1	win	2022-12-21	16:34:15	16:45:05	648616	5d54beb0c15b0700018d0211	195239898	1	main_slash	11	advance_on_keypress_SLASH	152	stimuli_target_circletriangles.svg	stimuli_distractor_trianglediamonds.svg	1	yes	57	0	40
6.6.1	win	2022-12-21	16:34:15	16:45:06	649674	5d54beb0c15b0700018d0211	195239898	1	main_slash	11	main_slash	153	stimuli_distractor_trianglediamonds.svg	stimuli_target_circlediamonds.svg	10	yes	53	1	385
6.6.1	win	2022-12-21	16:34:15	16:45:06	649674	5d54beb0c15b0700018d0211	195239898	1	main_slash	11	advance_on_keypress_SLASH	154	stimuli_distractor_trianglediamonds.svg	stimuli_target_circlediamonds.svg	10	yes	57	0	66
6.6.1	win	2022-12-21	16:34:15	16:45:07	650798	5d54beb0c15b0700018d0211	195239898	1	main_slash	11	main_slash	155	stimuli_distractor_diamondtriangles.svg	stimuli_target_squarediamonds.svg	16	yes	53	1	409
6.6.1	win	2022-12-21	16:34:15	16:45:07	650798	5d54beb0c15b0700018d0211	195239898	1	main_slash	11	advance_on_keypress_SLASH	156	stimuli_distractor_diamondtriangles.svg	stimuli_target_squarediamonds.svg	16	yes	57	0	47
6.6.1	win	2022-12-21	16:34:15	16:45:08	651989	5d54beb0c15b0700018d0211	195239898	1	main_slash	11	main_slash	157	stimuli_target_diamondsquares.svg	stimuli_distractor_trianglediamonds.svg	20	yes	53	1	506
6.6.1	win	2022-12-21	16:34:15	16:45:08	651989	5d54beb0c15b0700018d0211	195239898	1	main_slash	11	advance_on_keypress_SLASH	158	stimuli_target_diamondsquares.svg	stimuli_distractor_trianglediamonds.svg	20	yes	57	0	65
6.6.1	win	2022-12-21	16:34:15	16:45:09	653135	5d54beb0c15b0700018d0211	195239898	1	main_slash	11	main_slash	159	stimuli_distractor_diamondtriangles.svg	stimuli_target_diamondsquares.svg	32	yes	53	1	429
6.6.1	win	2022-12-21	16:34:15	16:45:09	653135	5d54beb0c15b0700018d0211	195239898	1	main_slash	11	advance_on_keypress_SLASH	160	stimuli_distractor_diamondtriangles.svg	stimuli_target_diamondsquares.svg	32	yes	57	0	69