build	computer.platform	date	time	timestamp	time_elapsed_ms	subject	group	session	blockcode	blocknum	trialcode	trialnum	stimulus_left	stimulus_right	stim_index	target_present	response	correct	latency
6.6.1	win	2022-12-20	01:14:08	01:18:12	243130	5c70ec7954de160001af45d8	962871913	1	practice_slash	5	practice_slash	1	stimuli_target_diamondsquares.svg	stimuli_distractor_diamondtriangles.svg	3	yes	0	0	2000
6.6.1	win	2022-12-20	01:14:08	01:18:12	243130	5c70ec7954de160001af45d8	962871913	1	practice_slash	5	advance_on_keypress_SLASH	2	stimuli_target_diamondsquares.svg	stimuli_distractor_diamondtriangles.svg	3	yes	57	0	1025
6.6.1	win	2022-12-20	01:14:08	01:18:15	246090	5c70ec7954de160001af45d8	962871913	1	practice_slash	5	practice_slash	3	stimuli_distractor_trianglediamonds.svg	stimuli_target_squarediamonds.svg	11	yes	53	1	317
6.6.1	win	2022-12-20	01:14:08	01:18:15	246090	5c70ec7954de160001af45d8	962871913	1	practice_slash	5	advance_on_keypress_SLASH	4	stimuli_distractor_trianglediamonds.svg	stimuli_target_squarediamonds.svg	11	yes	57	0	631
6.6.1	win	2022-12-20	01:14:08	01:18:18	248747	5c70ec7954de160001af45d8	962871913	1	practice_slash	5	practice_slash	5	stimuli_target_squarediamonds.svg	stimuli_distractor_trianglediamonds.svg	5	yes	53	1	407
6.6.1	win	2022-12-20	01:14:08	01:18:18	248747	5c70ec7954de160001af45d8	962871913	1	practice_slash	5	advance_on_keypress_SLASH	6	stimuli_target_squarediamonds.svg	stimuli_distractor_trianglediamonds.svg	5	yes	57	0	935
6.6.1	win	2022-12-20	01:14:08	01:18:22	253300	5c70ec7954de160001af45d8	962871913	1	practice_slash	5	practice_slash	7	stimuli_target_circlediamonds.svg	stimuli_distractor_diamondtriangles.svg	1	yes	0	0	2000
6.6.1	win	2022-12-20	01:14:08	01:18:22	253300	5c70ec7954de160001af45d8	962871913	1	practice_slash	5	advance_on_keypress_SLASH	8	stimuli_target_circlediamonds.svg	stimuli_distractor_diamondtriangles.svg	1	yes	57	0	564
6.6.1	win	2022-12-20	01:14:08	01:18:26	257480	5c70ec7954de160001af45d8	962871913	1	practice_slash	5	practice_slash	9	stimuli_distractor_trianglediamonds.svg	stimuli_target_circlediamonds.svg	10	yes	0	0	2000
6.6.1	win	2022-12-20	01:14:08	01:18:26	257480	5c70ec7954de160001af45d8	962871913	1	practice_slash	5	advance_on_keypress_SLASH	10	stimuli_distractor_trianglediamonds.svg	stimuli_target_circlediamonds.svg	10	yes	57	0	367
6.6.1	win	2022-12-20	01:14:08	01:18:29	259945	5c70ec7954de160001af45d8	962871913	1	practice_slash	5	practice_slash	11	stimuli_target_circlediamonds.svg	stimuli_distractor_trianglediamonds.svg	4	yes	53	1	484
6.6.1	win	2022-12-20	01:14:08	01:18:29	259945	5c70ec7954de160001af45d8	962871913	1	practice_slash	5	advance_on_keypress_SLASH	12	stimuli_target_circlediamonds.svg	stimuli_distractor_trianglediamonds.svg	4	yes	57	0	662
6.6.1	win	2022-12-20	01:14:08	01:18:32	262740	5c70ec7954de160001af45d8	962871913	1	practice_slash	5	practice_slash	13	stimuli_distractor_trianglediamonds.svg	stimuli_distractor_diamondtriangles.svg	16	no	53	0	518
6.6.1	win	2022-12-20	01:14:08	01:18:32	262740	5c70ec7954de160001af45d8	962871913	1	practice_slash	5	advance_on_keypress_SLASH	14	stimuli_distractor_trianglediamonds.svg	stimuli_distractor_diamondtriangles.svg	16	no	57	0	562
6.6.1	win	2022-12-20	01:14:08	01:18:34	265246	5c70ec7954de160001af45d8	962871913	1	practice_slash	5	practice_slash	15	stimuli_distractor_trianglediamonds.svg	stimuli_target_diamondcircles.svg	12	yes	53	1	324
6.6.1	win	2022-12-20	01:14:08	01:18:34	265246	5c70ec7954de160001af45d8	962871913	1	practice_slash	5	advance_on_keypress_SLASH	16	stimuli_distractor_trianglediamonds.svg	stimuli_target_diamondcircles.svg	12	yes	57	0	1084
6.6.1	win	2022-12-20	01:14:08	01:18:39	269950	5c70ec7954de160001af45d8	962871913	1	practice_slash	5	practice_slash	17	stimuli_distractor_trianglediamonds.svg	stimuli_distractor_trianglediamonds.svg	15	no	0	1	2000
6.6.1	win	2022-12-20	01:14:08	01:18:39	269950	5c70ec7954de160001af45d8	962871913	1	practice_slash	5	advance_on_keypress_SLASH	18	stimuli_distractor_trianglediamonds.svg	stimuli_distractor_trianglediamonds.svg	15	no	57	0	55016
6.6.1	win	2022-12-20	01:14:08	01:19:36	326972	5c70ec7954de160001af45d8	962871913	1	practice_slash	5	practice_slash	19	stimuli_distractor_diamondtriangles.svg	stimuli_target_trianglecircles.svg	9	yes	53	1	383
6.6.1	win	2022-12-20	01:14:08	01:19:36	326972	5c70ec7954de160001af45d8	962871913	1	practice_slash	5	advance_on_keypress_SLASH	20	stimuli_distractor_diamondtriangles.svg	stimuli_target_trianglecircles.svg	9	yes	57	0	423
6.6.1	win	2022-12-20	01:14:08	01:19:38	329482	5c70ec7954de160001af45d8	962871913	1	practice_slash	5	practice_slash	21	stimuli_target_squarediamonds.svg	stimuli_distractor_diamondtriangles.svg	2	yes	53	1	465
6.6.1	win	2022-12-20	01:14:08	01:19:38	329482	5c70ec7954de160001af45d8	962871913	1	practice_slash	5	advance_on_keypress_SLASH	22	stimuli_target_squarediamonds.svg	stimuli_distractor_diamondtriangles.svg	2	yes	57	0	242
6.6.1	win	2022-12-20	01:14:08	01:19:42	333341	5c70ec7954de160001af45d8	962871913	1	practice_slash	5	practice_slash	23	stimuli_distractor_diamondtriangles.svg	stimuli_target_diamondcircles.svg	8	yes	0	0	2000
6.6.1	win	2022-12-20	01:14:08	01:19:42	333341	5c70ec7954de160001af45d8	962871913	1	practice_slash	5	advance_on_keypress_SLASH	24	stimuli_distractor_diamondtriangles.svg	stimuli_target_diamondcircles.svg	8	yes	57	0	101076
6.6.1	win	2022-12-20	01:14:08	01:21:25	436336	5c70ec7954de160001af45d8	962871913	1	practice_slash	5	practice_slash	25	stimuli_distractor_diamondtriangles.svg	stimuli_distractor_diamondtriangles.svg	13	no	53	0	300
6.6.1	win	2022-12-20	01:14:08	01:21:25	436336	5c70ec7954de160001af45d8	962871913	1	practice_slash	5	advance_on_keypress_SLASH	26	stimuli_distractor_diamondtriangles.svg	stimuli_distractor_diamondtriangles.svg	13	no	57	0	305
6.6.1	win	2022-12-20	01:14:08	01:21:28	438800	5c70ec7954de160001af45d8	962871913	1	practice_slash	5	practice_slash	27	stimuli_distractor_diamondtriangles.svg	stimuli_distractor_trianglediamonds.svg	14	no	53	0	544
6.6.1	win	2022-12-20	01:14:08	01:21:28	438800	5c70ec7954de160001af45d8	962871913	1	practice_slash	5	advance_on_keypress_SLASH	28	stimuli_distractor_diamondtriangles.svg	stimuli_distractor_trianglediamonds.svg	14	no	57	0	228
6.6.1	win	2022-12-20	01:14:08	01:21:30	440913	5c70ec7954de160001af45d8	962871913	1	practice_slash	5	practice_slash	29	stimuli_target_diamondsquares.svg	stimuli_distractor_trianglediamonds.svg	6	yes	53	1	267
6.6.1	win	2022-12-20	01:14:08	01:21:30	440913	5c70ec7954de160001af45d8	962871913	1	practice_slash	5	advance_on_keypress_SLASH	30	stimuli_target_diamondsquares.svg	stimuli_distractor_trianglediamonds.svg	6	yes	57	0	390
6.6.1	win	2022-12-20	01:14:08	01:21:34	444915	5c70ec7954de160001af45d8	962871913	1	practice_slash	5	practice_slash	31	stimuli_distractor_diamondtriangles.svg	stimuli_target_circletriangles.svg	7	yes	0	0	2000
6.6.1	win	2022-12-20	01:14:08	01:21:34	444915	5c70ec7954de160001af45d8	962871913	1	practice_slash	5	advance_on_keypress_SLASH	32	stimuli_distractor_diamondtriangles.svg	stimuli_target_circletriangles.svg	7	yes	57	0	186
6.6.1	win	2022-12-20	01:14:08	01:21:40	450905	5c70ec7954de160001af45d8	962871913	1	main_slash	7	main_slash	1	stimuli_distractor_trianglediamonds.svg	stimuli_target_squaretriangles.svg	11	yes	0	0	2000
6.6.1	win	2022-12-20	01:14:08	01:21:40	450905	5c70ec7954de160001af45d8	962871913	1	main_slash	7	advance_on_keypress_SLASH	2	stimuli_distractor_trianglediamonds.svg	stimuli_target_squaretriangles.svg	11	yes	57	0	537
6.6.1	win	2022-12-20	01:14:08	01:21:41	452393	5c70ec7954de160001af45d8	962871913	1	main_slash	7	main_slash	3	stimuli_target_diamondsquares.svg	stimuli_distractor_diamondtriangles.svg	24	yes	53	1	338
6.6.1	win	2022-12-20	01:14:08	01:21:41	452393	5c70ec7954de160001af45d8	962871913	1	main_slash	7	advance_on_keypress_SLASH	4	stimuli_target_diamondsquares.svg	stimuli_distractor_diamondtriangles.svg	24	yes	57	0	1502
6.6.1	win	2022-12-20	01:14:08	01:21:43	454510	5c70ec7954de160001af45d8	962871913	1	main_slash	7	main_slash	5	stimuli_target_trianglesquares.svg	stimuli_distractor_diamondtriangles.svg	22	yes	53	1	5
6.6.1	win	2022-12-20	01:14:08	01:21:43	454510	5c70ec7954de160001af45d8	962871913	1	main_slash	7	advance_on_keypress_SLASH	6	stimuli_target_trianglesquares.svg	stimuli_distractor_diamondtriangles.svg	22	yes	57	0	703
6.6.1	win	2022-12-20	01:14:08	01:21:46	457192	5c70ec7954de160001af45d8	962871913	1	main_slash	7	main_slash	7	stimuli_distractor_diamondtriangles.svg	stimuli_target_squaretriangles.svg	15	yes	53	1	1364
6.6.1	win	2022-12-20	01:14:08	01:21:46	457192	5c70ec7954de160001af45d8	962871913	1	main_slash	7	advance_on_keypress_SLASH	8	stimuli_distractor_diamondtriangles.svg	stimuli_target_squaretriangles.svg	15	yes	57	0	690
6.6.1	win	2022-12-20	01:14:08	01:21:49	460287	5c70ec7954de160001af45d8	962871913	1	main_slash	7	main_slash	9	stimuli_target_diamondcircles.svg	stimuli_distractor_trianglediamonds.svg	19	yes	53	1	1794
6.6.1	win	2022-12-20	01:14:08	01:21:49	460287	5c70ec7954de160001af45d8	962871913	1	main_slash	7	advance_on_keypress_SLASH	10	stimuli_target_diamondcircles.svg	stimuli_distractor_trianglediamonds.svg	19	yes	57	0	522
6.6.1	win	2022-12-20	01:14:08	01:21:52	463424	5c70ec7954de160001af45d8	962871913	1	main_slash	7	main_slash	11	stimuli_target_trianglecircles.svg	stimuli_distractor_trianglediamonds.svg	17	yes	0	0	2000
6.6.1	win	2022-12-20	01:14:08	01:21:52	463424	5c70ec7954de160001af45d8	962871913	1	main_slash	7	advance_on_keypress_SLASH	12	stimuli_target_trianglecircles.svg	stimuli_distractor_trianglediamonds.svg	17	yes	57	0	137475
6.6.1	win	2022-12-20	01:14:08	01:24:11	601800	5c70ec7954de160001af45d8	962871913	1	main_slash	7	main_slash	13	stimuli_target_squaretriangles.svg	stimuli_distractor_diamondtriangles.svg	7	yes	53	1	289
6.6.1	win	2022-12-20	01:14:08	01:24:11	601800	5c70ec7954de160001af45d8	962871913	1	main_slash	7	advance_on_keypress_SLASH	14	stimuli_target_squaretriangles.svg	stimuli_distractor_diamondtriangles.svg	7	yes	57	0	894
6.6.1	win	2022-12-20	01:14:08	01:24:13	603660	5c70ec7954de160001af45d8	962871913	1	main_slash	7	main_slash	15	stimuli_target_circletriangles.svg	stimuli_distractor_trianglediamonds.svg	1	yes	53	1	353
6.6.1	win	2022-12-20	01:14:08	01:24:13	603660	5c70ec7954de160001af45d8	962871913	1	main_slash	7	advance_on_keypress_SLASH	16	stimuli_target_circletriangles.svg	stimuli_distractor_trianglediamonds.svg	1	yes	57	0	435
6.6.1	win	2022-12-20	01:14:08	01:24:14	605340	5c70ec7954de160001af45d8	962871913	1	main_slash	7	main_slash	17	stimuli_distractor_trianglediamonds.svg	stimuli_distractor_diamondtriangles.svg	36	no	53	0	631
6.6.1	win	2022-12-20	01:14:08	01:24:14	605340	5c70ec7954de160001af45d8	962871913	1	main_slash	7	advance_on_keypress_SLASH	18	stimuli_distractor_trianglediamonds.svg	stimuli_distractor_diamondtriangles.svg	36	no	57	0	445
6.6.1	win	2022-12-20	01:14:08	01:24:16	606704	5c70ec7954de160001af45d8	962871913	1	main_slash	7	main_slash	19	stimuli_target_squarediamonds.svg	stimuli_distractor_diamondtriangles.svg	8	yes	53	1	302
6.6.1	win	2022-12-20	01:14:08	01:24:16	606704	5c70ec7954de160001af45d8	962871913	1	main_slash	7	advance_on_keypress_SLASH	20	stimuli_target_squarediamonds.svg	stimuli_distractor_diamondtriangles.svg	8	yes	57	0	413
6.6.1	win	2022-12-20	01:14:08	01:24:19	609731	5c70ec7954de160001af45d8	962871913	1	main_slash	7	main_slash	21	stimuli_distractor_trianglediamonds.svg	stimuli_distractor_diamondtriangles.svg	35	no	0	1	2000
6.6.1	win	2022-12-20	01:14:08	01:24:19	609731	5c70ec7954de160001af45d8	962871913	1	main_slash	7	advance_on_keypress_SLASH	22	stimuli_distractor_trianglediamonds.svg	stimuli_distractor_diamondtriangles.svg	35	no	57	0	227
6.6.1	win	2022-12-20	01:14:08	01:24:20	611114	5c70ec7954de160001af45d8	962871913	1	main_slash	7	main_slash	23	stimuli_distractor_diamondtriangles.svg	stimuli_target_diamondcircles.svg	31	yes	53	1	545
6.6.1	win	2022-12-20	01:14:08	01:24:20	611114	5c70ec7954de160001af45d8	962871913	1	main_slash	7	advance_on_keypress_SLASH	24	stimuli_distractor_diamondtriangles.svg	stimuli_target_diamondcircles.svg	31	yes	57	0	471
6.6.1	win	2022-12-20	01:14:08	01:24:21	612462	5c70ec7954de160001af45d8	962871913	1	main_slash	7	main_slash	25	stimuli_target_circlediamonds.svg	stimuli_distractor_trianglediamonds.svg	2	yes	53	1	266
6.6.1	win	2022-12-20	01:14:08	01:24:21	612462	5c70ec7954de160001af45d8	962871913	1	main_slash	7	advance_on_keypress_SLASH	26	stimuli_target_circlediamonds.svg	stimuli_distractor_trianglediamonds.svg	2	yes	57	0	398
6.6.1	win	2022-12-20	01:14:08	01:24:23	614121	5c70ec7954de160001af45d8	962871913	1	main_slash	7	main_slash	27	stimuli_target_squaretriangles.svg	stimuli_distractor_trianglediamonds.svg	3	yes	53	1	650
6.6.1	win	2022-12-20	01:14:08	01:24:23	614121	5c70ec7954de160001af45d8	962871913	1	main_slash	7	advance_on_keypress_SLASH	28	stimuli_target_squaretriangles.svg	stimuli_distractor_trianglediamonds.svg	3	yes	57	0	384
6.6.1	win	2022-12-20	01:14:08	01:24:24	615417	5c70ec7954de160001af45d8	962871913	1	main_slash	7	main_slash	29	stimuli_target_circlediamonds.svg	stimuli_distractor_diamondtriangles.svg	6	yes	53	1	297
6.6.1	win	2022-12-20	01:14:08	01:24:24	615417	5c70ec7954de160001af45d8	962871913	1	main_slash	7	advance_on_keypress_SLASH	30	stimuli_target_circlediamonds.svg	stimuli_distractor_diamondtriangles.svg	6	yes	57	0	303
6.6.1	win	2022-12-20	01:14:08	01:24:27	618334	5c70ec7954de160001af45d8	962871913	1	main_slash	7	main_slash	31	stimuli_distractor_diamondtriangles.svg	stimuli_distractor_trianglediamonds.svg	37	no	0	1	2000
6.6.1	win	2022-12-20	01:14:08	01:24:27	618334	5c70ec7954de160001af45d8	962871913	1	main_slash	7	advance_on_keypress_SLASH	32	stimuli_distractor_diamondtriangles.svg	stimuli_distractor_trianglediamonds.svg	37	no	57	0	44713
6.6.1	win	2022-12-20	01:14:08	01:25:13	663977	5c70ec7954de160001af45d8	962871913	1	main_slash	7	main_slash	33	stimuli_distractor_diamondtriangles.svg	stimuli_distractor_trianglediamonds.svg	38	no	53	0	297
6.6.1	win	2022-12-20	01:14:08	01:25:13	663977	5c70ec7954de160001af45d8	962871913	1	main_slash	7	advance_on_keypress_SLASH	34	stimuli_distractor_diamondtriangles.svg	stimuli_distractor_trianglediamonds.svg	38	no	57	0	397
6.6.1	win	2022-12-20	01:14:08	01:25:14	665362	5c70ec7954de160001af45d8	962871913	1	main_slash	7	main_slash	35	stimuli_distractor_trianglediamonds.svg	stimuli_target_diamondsquares.svg	28	yes	53	1	369
6.6.1	win	2022-12-20	01:14:08	01:25:14	665362	5c70ec7954de160001af45d8	962871913	1	main_slash	7	advance_on_keypress_SLASH	36	stimuli_distractor_trianglediamonds.svg	stimuli_target_diamondsquares.svg	28	yes	57	0	300
6.6.1	win	2022-12-20	01:14:08	01:25:16	666683	5c70ec7954de160001af45d8	962871913	1	main_slash	7	main_slash	37	stimuli_distractor_diamondtriangles.svg	stimuli_target_trianglecircles.svg	29	yes	53	1	385
6.6.1	win	2022-12-20	01:14:08	01:25:16	666683	5c70ec7954de160001af45d8	962871913	1	main_slash	7	advance_on_keypress_SLASH	38	stimuli_distractor_diamondtriangles.svg	stimuli_target_trianglecircles.svg	29	yes	57	0	264
6.6.1	win	2022-12-20	01:14:08	01:25:17	667852	5c70ec7954de160001af45d8	962871913	1	main_slash	7	main_slash	39	stimuli_distractor_diamondtriangles.svg	stimuli_target_circlediamonds.svg	14	yes	53	1	274
6.6.1	win	2022-12-20	01:14:08	01:25:17	667852	5c70ec7954de160001af45d8	962871913	1	main_slash	7	advance_on_keypress_SLASH	40	stimuli_distractor_diamondtriangles.svg	stimuli_target_circlediamonds.svg	14	yes	57	0	261
6.6.1	win	2022-12-20	01:14:08	01:25:20	670731	5c70ec7954de160001af45d8	962871913	1	main_slash	7	main_slash	41	stimuli_distractor_trianglediamonds.svg	stimuli_target_squarediamonds.svg	12	yes	0	0	2000
6.6.1	win	2022-12-20	01:14:08	01:25:20	670731	5c70ec7954de160001af45d8	962871913	1	main_slash	7	advance_on_keypress_SLASH	42	stimuli_distractor_trianglediamonds.svg	stimuli_target_squarediamonds.svg	12	yes	57	0	280
6.6.1	win	2022-12-20	01:14:08	01:25:21	672171	5c70ec7954de160001af45d8	962871913	1	main_slash	7	main_slash	43	stimuli_distractor_diamondtriangles.svg	stimuli_target_squarediamonds.svg	16	yes	53	1	545
6.6.1	win	2022-12-20	01:14:08	01:25:21	672171	5c70ec7954de160001af45d8	962871913	1	main_slash	7	advance_on_keypress_SLASH	44	stimuli_distractor_diamondtriangles.svg	stimuli_target_squarediamonds.svg	16	yes	57	0	305
6.6.1	win	2022-12-20	01:14:08	01:25:24	675118	5c70ec7954de160001af45d8	962871913	1	main_slash	7	main_slash	45	stimuli_distractor_trianglediamonds.svg	stimuli_distractor_trianglediamonds.svg	33	no	0	1	2000
6.6.1	win	2022-12-20	01:14:08	01:25:24	675118	5c70ec7954de160001af45d8	962871913	1	main_slash	7	advance_on_keypress_SLASH	46	stimuli_distractor_trianglediamonds.svg	stimuli_distractor_trianglediamonds.svg	33	no	57	0	243
6.6.1	win	2022-12-20	01:14:08	01:25:27	677982	5c70ec7954de160001af45d8	962871913	1	main_slash	7	main_slash	47	stimuli_target_diamondcircles.svg	stimuli_distractor_diamondtriangles.svg	23	yes	0	0	2000
6.6.1	win	2022-12-20	01:14:08	01:25:27	677982	5c70ec7954de160001af45d8	962871913	1	main_slash	7	advance_on_keypress_SLASH	48	stimuli_target_diamondcircles.svg	stimuli_distractor_diamondtriangles.svg	23	yes	57	0	269
6.6.1	win	2022-12-20	01:14:08	01:25:30	680885	5c70ec7954de160001af45d8	962871913	1	main_slash	7	main_slash	49	stimuli_target_trianglecircles.svg	stimuli_distractor_diamondtriangles.svg	21	yes	0	0	2000
6.6.1	win	2022-12-20	01:14:08	01:25:30	680885	5c70ec7954de160001af45d8	962871913	1	main_slash	7	advance_on_keypress_SLASH	50	stimuli_target_trianglecircles.svg	stimuli_distractor_diamondtriangles.svg	21	yes	57	0	235
6.6.1	win	2022-12-20	01:14:08	01:25:31	681973	5c70ec7954de160001af45d8	962871913	1	main_slash	7	main_slash	51	stimuli_distractor_trianglediamonds.svg	stimuli_target_circlediamonds.svg	10	yes	53	1	221
6.6.1	win	2022-12-20	01:14:08	01:25:31	681973	5c70ec7954de160001af45d8	962871913	1	main_slash	7	advance_on_keypress_SLASH	52	stimuli_distractor_trianglediamonds.svg	stimuli_target_circlediamonds.svg	10	yes	57	0	394
6.6.1	win	2022-12-20	01:14:08	01:25:34	685000	5c70ec7954de160001af45d8	962871913	1	main_slash	7	main_slash	53	stimuli_distractor_trianglediamonds.svg	stimuli_target_trianglecircles.svg	25	yes	0	0	2000
6.6.1	win	2022-12-20	01:14:08	01:25:34	685000	5c70ec7954de160001af45d8	962871913	1	main_slash	7	advance_on_keypress_SLASH	54	stimuli_distractor_trianglediamonds.svg	stimuli_target_trianglecircles.svg	25	yes	57	0	252
6.6.1	win	2022-12-20	01:14:08	01:25:35	686144	5c70ec7954de160001af45d8	962871913	1	main_slash	7	main_slash	55	stimuli_distractor_diamondtriangles.svg	stimuli_target_circletriangles.svg	13	yes	53	1	261
6.6.1	win	2022-12-20	01:14:08	01:25:35	686144	5c70ec7954de160001af45d8	962871913	1	main_slash	7	advance_on_keypress_SLASH	56	stimuli_distractor_diamondtriangles.svg	stimuli_target_circletriangles.svg	13	yes	57	0	283
6.6.1	win	2022-12-20	01:14:08	01:25:36	687501	5c70ec7954de160001af45d8	962871913	1	main_slash	7	main_slash	57	stimuli_target_circletriangles.svg	stimuli_distractor_diamondtriangles.svg	5	yes	53	1	433
6.6.1	win	2022-12-20	01:14:08	01:25:36	687501	5c70ec7954de160001af45d8	962871913	1	main_slash	7	advance_on_keypress_SLASH	58	stimuli_target_circletriangles.svg	stimuli_distractor_diamondtriangles.svg	5	yes	57	0	241
6.6.1	win	2022-12-20	01:14:08	01:25:39	690375	5c70ec7954de160001af45d8	962871913	1	main_slash	7	main_slash	59	stimuli_target_squarediamonds.svg	stimuli_distractor_trianglediamonds.svg	4	yes	0	0	2000
6.6.1	win	2022-12-20	01:14:08	01:25:39	690375	5c70ec7954de160001af45d8	962871913	1	main_slash	7	advance_on_keypress_SLASH	60	stimuli_target_squarediamonds.svg	stimuli_distractor_trianglediamonds.svg	4	yes	57	0	234
6.6.1	win	2022-12-20	01:14:08	01:25:42	693248	5c70ec7954de160001af45d8	962871913	1	main_slash	7	main_slash	61	stimuli_distractor_diamondtriangles.svg	stimuli_distractor_diamondtriangles.svg	40	no	0	1	2000
6.6.1	win	2022-12-20	01:14:08	01:25:42	693248	5c70ec7954de160001af45d8	962871913	1	main_slash	7	advance_on_keypress_SLASH	62	stimuli_distractor_diamondtriangles.svg	stimuli_distractor_diamondtriangles.svg	40	no	57	0	243
6.6.1	win	2022-12-20	01:14:08	01:25:45	696118	5c70ec7954de160001af45d8	962871913	1	main_slash	7	main_slash	63	stimuli_distractor_trianglediamonds.svg	stimuli_target_diamondcircles.svg	27	yes	0	0	2000
6.6.1	win	2022-12-20	01:14:08	01:25:45	696118	5c70ec7954de160001af45d8	962871913	1	main_slash	7	advance_on_keypress_SLASH	64	stimuli_distractor_trianglediamonds.svg	stimuli_target_diamondcircles.svg	27	yes	57	0	289
6.6.1	win	2022-12-20	01:14:08	01:25:48	699034	5c70ec7954de160001af45d8	962871913	1	main_slash	7	main_slash	65	stimuli_distractor_diamondtriangles.svg	stimuli_target_trianglesquares.svg	30	yes	0	0	2000
6.6.1	win	2022-12-20	01:14:08	01:25:48	699034	5c70ec7954de160001af45d8	962871913	1	main_slash	7	advance_on_keypress_SLASH	66	stimuli_distractor_diamondtriangles.svg	stimuli_target_trianglesquares.svg	30	yes	57	0	241
6.6.1	win	2022-12-20	01:14:08	01:25:51	701916	5c70ec7954de160001af45d8	962871913	1	main_slash	7	main_slash	67	stimuli_target_diamondsquares.svg	stimuli_distractor_trianglediamonds.svg	20	yes	0	0	2000
6.6.1	win	2022-12-20	01:14:08	01:25:51	701916	5c70ec7954de160001af45d8	962871913	1	main_slash	7	advance_on_keypress_SLASH	68	stimuli_target_diamondsquares.svg	stimuli_distractor_trianglediamonds.svg	20	yes	57	0	328
6.6.1	win	2022-12-20	01:14:08	01:25:54	704887	5c70ec7954de160001af45d8	962871913	1	main_slash	7	main_slash	69	stimuli_target_trianglesquares.svg	stimuli_distractor_trianglediamonds.svg	18	yes	0	0	2000
6.6.1	win	2022-12-20	01:14:08	01:25:54	704887	5c70ec7954de160001af45d8	962871913	1	main_slash	7	advance_on_keypress_SLASH	70	stimuli_target_trianglesquares.svg	stimuli_distractor_trianglediamonds.svg	18	yes	57	0	219
6.6.1	win	2022-12-20	01:14:08	01:25:57	707742	5c70ec7954de160001af45d8	962871913	1	main_slash	7	main_slash	71	stimuli_distractor_trianglediamonds.svg	stimuli_distractor_trianglediamonds.svg	34	no	0	1	2000
6.6.1	win	2022-12-20	01:14:08	01:25:57	707742	5c70ec7954de160001af45d8	962871913	1	main_slash	7	advance_on_keypress_SLASH	72	stimuli_distractor_trianglediamonds.svg	stimuli_distractor_trianglediamonds.svg	34	no	57	0	234
6.6.1	win	2022-12-20	01:14:08	01:25:58	709084	5c70ec7954de160001af45d8	962871913	1	main_slash	7	main_slash	73	stimuli_distractor_diamondtriangles.svg	stimuli_target_diamondsquares.svg	32	yes	53	1	467
6.6.1	win	2022-12-20	01:14:08	01:25:58	709084	5c70ec7954de160001af45d8	962871913	1	main_slash	7	advance_on_keypress_SLASH	74	stimuli_distractor_diamondtriangles.svg	stimuli_target_diamondsquares.svg	32	yes	57	0	328
6.6.1	win	2022-12-20	01:14:08	01:26:01	712046	5c70ec7954de160001af45d8	962871913	1	main_slash	7	main_slash	75	stimuli_distractor_trianglediamonds.svg	stimuli_target_trianglesquares.svg	26	yes	0	0	2000
6.6.1	win	2022-12-20	01:14:08	01:26:01	712046	5c70ec7954de160001af45d8	962871913	1	main_slash	7	advance_on_keypress_SLASH	76	stimuli_distractor_trianglediamonds.svg	stimuli_target_trianglesquares.svg	26	yes	57	0	311
6.6.1	win	2022-12-20	01:14:08	01:26:04	714994	5c70ec7954de160001af45d8	962871913	1	main_slash	7	main_slash	77	stimuli_distractor_diamondtriangles.svg	stimuli_distractor_diamondtriangles.svg	39	no	0	1	2000
6.6.1	win	2022-12-20	01:14:08	01:26:04	714994	5c70ec7954de160001af45d8	962871913	1	main_slash	7	advance_on_keypress_SLASH	78	stimuli_distractor_diamondtriangles.svg	stimuli_distractor_diamondtriangles.svg	39	no	57	0	329
6.6.1	win	2022-12-20	01:14:08	01:26:05	716232	5c70ec7954de160001af45d8	962871913	1	main_slash	7	main_slash	79	stimuli_distractor_trianglediamonds.svg	stimuli_target_circletriangles.svg	9	yes	53	1	270
6.6.1	win	2022-12-20	01:14:08	01:26:05	716232	5c70ec7954de160001af45d8	962871913	1	main_slash	7	advance_on_keypress_SLASH	80	stimuli_distractor_trianglediamonds.svg	stimuli_target_circletriangles.svg	9	yes	57	0	506
6.6.1	win	2022-12-20	01:14:08	01:26:08	719358	5c70ec7954de160001af45d8	962871913	1	main_slash	7	main_slash	81	stimuli_distractor_diamondtriangles.svg	stimuli_distractor_diamondtriangles.svg	39	no	0	1	2000
6.6.1	win	2022-12-20	01:14:08	01:26:08	719358	5c70ec7954de160001af45d8	962871913	1	main_slash	7	advance_on_keypress_SLASH	82	stimuli_distractor_diamondtriangles.svg	stimuli_distractor_diamondtriangles.svg	39	no	57	0	397
6.6.1	win	2022-12-20	01:14:08	01:26:11	722368	5c70ec7954de160001af45d8	962871913	1	main_slash	7	main_slash	83	stimuli_distractor_trianglediamonds.svg	stimuli_distractor_trianglediamonds.svg	34	no	0	1	2000
6.6.1	win	2022-12-20	01:14:08	01:26:11	722368	5c70ec7954de160001af45d8	962871913	1	main_slash	7	advance_on_keypress_SLASH	84	stimuli_distractor_trianglediamonds.svg	stimuli_distractor_trianglediamonds.svg	34	no	57	0	223
6.6.1	win	2022-12-20	01:14:08	01:26:14	725219	5c70ec7954de160001af45d8	962871913	1	main_slash	7	main_slash	85	stimuli_target_squaretriangles.svg	stimuli_distractor_trianglediamonds.svg	3	yes	0	0	2000
6.6.1	win	2022-12-20	01:14:08	01:26:14	725219	5c70ec7954de160001af45d8	962871913	1	main_slash	7	advance_on_keypress_SLASH	86	stimuli_target_squaretriangles.svg	stimuli_distractor_trianglediamonds.svg	3	yes	57	0	308
6.6.1	win	2022-12-20	01:14:08	01:26:17	728168	5c70ec7954de160001af45d8	962871913	1	main_slash	7	main_slash	87	stimuli_target_trianglesquares.svg	stimuli_distractor_trianglediamonds.svg	18	yes	0	0	2000
6.6.1	win	2022-12-20	01:14:08	01:26:17	728168	5c70ec7954de160001af45d8	962871913	1	main_slash	7	advance_on_keypress_SLASH	88	stimuli_target_trianglesquares.svg	stimuli_distractor_trianglediamonds.svg	18	yes	57	0	255
6.6.1	win	2022-12-20	01:14:08	01:26:20	731070	5c70ec7954de160001af45d8	962871913	1	main_slash	7	main_slash	89	stimuli_distractor_diamondtriangles.svg	stimuli_distractor_diamondtriangles.svg	40	no	0	1	2000
6.6.1	win	2022-12-20	01:14:08	01:26:20	731070	5c70ec7954de160001af45d8	962871913	1	main_slash	7	advance_on_keypress_SLASH	90	stimuli_distractor_diamondtriangles.svg	stimuli_distractor_diamondtriangles.svg	40	no	57	0	315
6.6.1	win	2022-12-20	01:14:08	01:26:23	734016	5c70ec7954de160001af45d8	962871913	1	main_slash	7	main_slash	91	stimuli_distractor_trianglediamonds.svg	stimuli_target_squaretriangles.svg	11	yes	0	0	2000
6.6.1	win	2022-12-20	01:14:08	01:26:23	734016	5c70ec7954de160001af45d8	962871913	1	main_slash	7	advance_on_keypress_SLASH	92	stimuli_distractor_trianglediamonds.svg	stimuli_target_squaretriangles.svg	11	yes	57	0	251
6.6.1	win	2022-12-20	01:14:08	01:26:24	735181	5c70ec7954de160001af45d8	962871913	1	main_slash	7	main_slash	93	stimuli_distractor_trianglediamonds.svg	stimuli_target_circlediamonds.svg	10	yes	53	1	299
6.6.1	win	2022-12-20	01:14:08	01:26:24	735181	5c70ec7954de160001af45d8	962871913	1	main_slash	7	advance_on_keypress_SLASH	94	stimuli_distractor_trianglediamonds.svg	stimuli_target_circlediamonds.svg	10	yes	57	0	329
6.6.1	win	2022-12-20	01:14:08	01:26:27	738162	5c70ec7954de160001af45d8	962871913	1	main_slash	7	main_slash	95	stimuli_distractor_diamondtriangles.svg	stimuli_distractor_trianglediamonds.svg	37	no	0	1	2000
6.6.1	win	2022-12-20	01:14:08	01:26:27	738162	5c70ec7954de160001af45d8	962871913	1	main_slash	7	advance_on_keypress_SLASH	96	stimuli_distractor_diamondtriangles.svg	stimuli_distractor_trianglediamonds.svg	37	no	57	0	234
6.6.1	win	2022-12-20	01:14:08	01:26:28	739525	5c70ec7954de160001af45d8	962871913	1	main_slash	7	main_slash	97	stimuli_distractor_diamondtriangles.svg	stimuli_target_diamondcircles.svg	31	yes	53	1	505
6.6.1	win	2022-12-20	01:14:08	01:26:28	739525	5c70ec7954de160001af45d8	962871913	1	main_slash	7	advance_on_keypress_SLASH	98	stimuli_distractor_diamondtriangles.svg	stimuli_target_diamondcircles.svg	31	yes	57	0	397
6.6.1	win	2022-12-20	01:14:08	01:26:30	741000	5c70ec7954de160001af45d8	962871913	1	main_slash	7	main_slash	99	stimuli_distractor_diamondtriangles.svg	stimuli_target_diamondsquares.svg	32	yes	53	1	441
6.6.1	win	2022-12-20	01:14:08	01:26:30	741000	5c70ec7954de160001af45d8	962871913	1	main_slash	7	advance_on_keypress_SLASH	100	stimuli_distractor_diamondtriangles.svg	stimuli_target_diamondsquares.svg	32	yes	57	0	292
6.6.1	win	2022-12-20	01:14:08	01:26:31	742374	5c70ec7954de160001af45d8	962871913	1	main_slash	7	main_slash	101	stimuli_distractor_trianglediamonds.svg	stimuli_target_trianglecircles.svg	25	yes	53	1	451
6.6.1	win	2022-12-20	01:14:08	01:26:31	742374	5c70ec7954de160001af45d8	962871913	1	main_slash	7	advance_on_keypress_SLASH	102	stimuli_distractor_trianglediamonds.svg	stimuli_target_trianglecircles.svg	25	yes	57	0	282
6.6.1	win	2022-12-20	01:14:08	01:26:33	743683	5c70ec7954de160001af45d8	962871913	1	main_slash	7	main_slash	103	stimuli_distractor_diamondtriangles.svg	stimuli_target_circlediamonds.svg	14	yes	53	1	390
6.6.1	win	2022-12-20	01:14:08	01:26:33	743683	5c70ec7954de160001af45d8	962871913	1	main_slash	7	advance_on_keypress_SLASH	104	stimuli_distractor_diamondtriangles.svg	stimuli_target_circlediamonds.svg	14	yes	57	0	298
6.6.1	win	2022-12-20	01:14:08	01:26:34	745115	5c70ec7954de160001af45d8	962871913	1	main_slash	7	main_slash	105	stimuli_distractor_trianglediamonds.svg	stimuli_target_trianglesquares.svg	26	yes	53	1	485
6.6.1	win	2022-12-20	01:14:08	01:26:34	745115	5c70ec7954de160001af45d8	962871913	1	main_slash	7	advance_on_keypress_SLASH	106	stimuli_distractor_trianglediamonds.svg	stimuli_target_trianglesquares.svg	26	yes	57	0	309
6.6.1	win	2022-12-20	01:14:08	01:26:35	746530	5c70ec7954de160001af45d8	962871913	1	main_slash	7	main_slash	107	stimuli_distractor_diamondtriangles.svg	stimuli_target_trianglesquares.svg	30	yes	53	1	456
6.6.1	win	2022-12-20	01:14:08	01:26:35	746530	5c70ec7954de160001af45d8	962871913	1	main_slash	7	advance_on_keypress_SLASH	108	stimuli_distractor_diamondtriangles.svg	stimuli_target_trianglesquares.svg	30	yes	57	0	334
6.6.1	win	2022-12-20	01:14:08	01:26:38	749485	5c70ec7954de160001af45d8	962871913	1	main_slash	7	main_slash	109	stimuli_distractor_diamondtriangles.svg	stimuli_distractor_trianglediamonds.svg	38	no	0	1	2000
6.6.1	win	2022-12-20	01:14:08	01:26:38	749485	5c70ec7954de160001af45d8	962871913	1	main_slash	7	advance_on_keypress_SLASH	110	stimuli_distractor_diamondtriangles.svg	stimuli_distractor_trianglediamonds.svg	38	no	57	0	278
6.6.1	win	2022-12-20	01:14:08	01:26:40	751086	5c70ec7954de160001af45d8	962871913	1	main_slash	7	main_slash	111	stimuli_target_diamondsquares.svg	stimuli_distractor_diamondtriangles.svg	24	yes	53	1	689
6.6.1	win	2022-12-20	01:14:08	01:26:40	751086	5c70ec7954de160001af45d8	962871913	1	main_slash	7	advance_on_keypress_SLASH	112	stimuli_target_diamondsquares.svg	stimuli_distractor_diamondtriangles.svg	24	yes	57	0	269
6.6.1	win	2022-12-20	01:14:08	01:26:41	752367	5c70ec7954de160001af45d8	962871913	1	main_slash	7	main_slash	113	stimuli_target_diamondcircles.svg	stimuli_distractor_trianglediamonds.svg	19	yes	53	1	387
6.6.1	win	2022-12-20	01:14:08	01:26:41	752367	5c70ec7954de160001af45d8	962871913	1	main_slash	7	advance_on_keypress_SLASH	114	stimuli_target_diamondcircles.svg	stimuli_distractor_trianglediamonds.svg	19	yes	57	0	300
6.6.1	win	2022-12-20	01:14:08	01:26:44	755280	5c70ec7954de160001af45d8	962871913	1	main_slash	7	main_slash	115	stimuli_distractor_diamondtriangles.svg	stimuli_target_squaretriangles.svg	15	yes	0	0	2000
6.6.1	win	2022-12-20	01:14:08	01:26:44	755280	5c70ec7954de160001af45d8	962871913	1	main_slash	7	advance_on_keypress_SLASH	116	stimuli_distractor_diamondtriangles.svg	stimuli_target_squaretriangles.svg	15	yes	57	0	383
6.6.1	win	2022-12-20	01:14:08	01:26:46	756772	5c70ec7954de160001af45d8	962871913	1	main_slash	7	main_slash	117	stimuli_target_diamondcircles.svg	stimuli_distractor_diamondtriangles.svg	23	yes	53	1	479
6.6.1	win	2022-12-20	01:14:08	01:26:46	756772	5c70ec7954de160001af45d8	962871913	1	main_slash	7	advance_on_keypress_SLASH	118	stimuli_target_diamondcircles.svg	stimuli_distractor_diamondtriangles.svg	23	yes	57	0	229
6.6.1	win	2022-12-20	01:14:08	01:26:49	759631	5c70ec7954de160001af45d8	962871913	1	main_slash	7	main_slash	119	stimuli_target_squaretriangles.svg	stimuli_distractor_diamondtriangles.svg	7	yes	0	0	2000
6.6.1	win	2022-12-20	01:14:08	01:26:49	759631	5c70ec7954de160001af45d8	962871913	1	main_slash	7	advance_on_keypress_SLASH	120	stimuli_target_squaretriangles.svg	stimuli_distractor_diamondtriangles.svg	7	yes	57	0	22
6.6.1	win	2022-12-20	01:14:08	01:26:50	760824	5c70ec7954de160001af45d8	962871913	1	main_slash	7	main_slash	121	stimuli_target_trianglecircles.svg	stimuli_distractor_trianglediamonds.svg	17	yes	53	1	535
6.6.1	win	2022-12-20	01:14:08	01:26:50	760824	5c70ec7954de160001af45d8	962871913	1	main_slash	7	advance_on_keypress_SLASH	122	stimuli_target_trianglecircles.svg	stimuli_distractor_trianglediamonds.svg	17	yes	57	0	307
6.6.1	win	2022-12-20	01:14:08	01:26:53	763765	5c70ec7954de160001af45d8	962871913	1	main_slash	7	main_slash	123	stimuli_target_squarediamonds.svg	stimuli_distractor_trianglediamonds.svg	4	yes	0	0	2000
6.6.1	win	2022-12-20	01:14:08	01:26:53	763765	5c70ec7954de160001af45d8	962871913	1	main_slash	7	advance_on_keypress_SLASH	124	stimuli_target_squarediamonds.svg	stimuli_distractor_trianglediamonds.svg	4	yes	57	0	236
6.6.1	win	2022-12-20	01:14:08	01:26:56	766647	5c70ec7954de160001af45d8	962871913	1	main_slash	7	main_slash	125	stimuli_distractor_trianglediamonds.svg	stimuli_distractor_diamondtriangles.svg	36	no	0	1	2000
6.6.1	win	2022-12-20	01:14:08	01:26:56	766647	5c70ec7954de160001af45d8	962871913	1	main_slash	7	advance_on_keypress_SLASH	126	stimuli_distractor_trianglediamonds.svg	stimuli_distractor_diamondtriangles.svg	36	no	57	0	222
6.6.1	win	2022-12-20	01:14:08	01:26:57	767882	5c70ec7954de160001af45d8	962871913	1	main_slash	7	main_slash	127	stimuli_distractor_trianglediamonds.svg	stimuli_target_diamondcircles.svg	27	yes	53	1	368
6.6.1	win	2022-12-20	01:14:08	01:26:57	767882	5c70ec7954de160001af45d8	962871913	1	main_slash	7	advance_on_keypress_SLASH	128	stimuli_distractor_trianglediamonds.svg	stimuli_target_diamondcircles.svg	27	yes	57	0	315
6.6.1	win	2022-12-20	01:14:08	01:27:00	770819	5c70ec7954de160001af45d8	962871913	1	main_slash	7	main_slash	129	stimuli_distractor_trianglediamonds.svg	stimuli_distractor_diamondtriangles.svg	35	no	0	1	2000
6.6.1	win	2022-12-20	01:14:08	01:27:00	770819	5c70ec7954de160001af45d8	962871913	1	main_slash	7	advance_on_keypress_SLASH	130	stimuli_distractor_trianglediamonds.svg	stimuli_distractor_diamondtriangles.svg	35	no	57	0	71
6.6.1	win	2022-12-20	01:14:08	01:27:01	771934	5c70ec7954de160001af45d8	962871913	1	main_slash	7	main_slash	131	stimuli_target_diamondsquares.svg	stimuli_distractor_trianglediamonds.svg	20	yes	53	1	406
6.6.1	win	2022-12-20	01:14:08	01:27:01	771934	5c70ec7954de160001af45d8	962871913	1	main_slash	7	advance_on_keypress_SLASH	132	stimuli_target_diamondsquares.svg	stimuli_distractor_trianglediamonds.svg	20	yes	57	0	312
6.6.1	win	2022-12-20	01:14:08	01:27:02	773319	5c70ec7954de160001af45d8	962871913	1	main_slash	7	main_slash	133	stimuli_distractor_diamondtriangles.svg	stimuli_target_trianglecircles.svg	29	yes	53	1	440
6.6.1	win	2022-12-20	01:14:08	01:27:02	773319	5c70ec7954de160001af45d8	962871913	1	main_slash	7	advance_on_keypress_SLASH	134	stimuli_distractor_diamondtriangles.svg	stimuli_target_trianglecircles.svg	29	yes	57	0	346
6.6.1	win	2022-12-20	01:14:08	01:27:05	776286	5c70ec7954de160001af45d8	962871913	1	main_slash	7	main_slash	135	stimuli_target_circletriangles.svg	stimuli_distractor_trianglediamonds.svg	1	yes	0	0	2000
6.6.1	win	2022-12-20	01:14:08	01:27:05	776286	5c70ec7954de160001af45d8	962871913	1	main_slash	7	advance_on_keypress_SLASH	136	stimuli_target_circletriangles.svg	stimuli_distractor_trianglediamonds.svg	1	yes	57	0	706
6.6.1	win	2022-12-20	01:14:08	01:27:09	779610	5c70ec7954de160001af45d8	962871913	1	main_slash	7	main_slash	137	stimuli_distractor_diamondtriangles.svg	stimuli_target_squarediamonds.svg	16	yes	0	0	2000
6.6.1	win	2022-12-20	01:14:08	01:27:09	779610	5c70ec7954de160001af45d8	962871913	1	main_slash	7	advance_on_keypress_SLASH	138	stimuli_distractor_diamondtriangles.svg	stimuli_target_squarediamonds.svg	16	yes	57	0	359
6.6.1	win	2022-12-20	01:14:08	01:27:10	781274	5c70ec7954de160001af45d8	962871913	1	main_slash	7	main_slash	139	stimuli_distractor_trianglediamonds.svg	stimuli_target_diamondsquares.svg	28	yes	53	1	663
6.6.1	win	2022-12-20	01:14:08	01:27:10	781274	5c70ec7954de160001af45d8	962871913	1	main_slash	7	advance_on_keypress_SLASH	140	stimuli_distractor_trianglediamonds.svg	stimuli_target_diamondsquares.svg	28	yes	57	0	184
6.6.1	win	2022-12-20	01:14:08	01:27:13	784105	5c70ec7954de160001af45d8	962871913	1	main_slash	7	main_slash	141	stimuli_distractor_diamondtriangles.svg	stimuli_target_circletriangles.svg	13	yes	0	0	2000
6.6.1	win	2022-12-20	01:14:08	01:27:13	784105	5c70ec7954de160001af45d8	962871913	1	main_slash	7	advance_on_keypress_SLASH	142	stimuli_distractor_diamondtriangles.svg	stimuli_target_circletriangles.svg	13	yes	57	0	238
6.6.1	win	2022-12-20	01:14:08	01:27:16	786975	5c70ec7954de160001af45d8	962871913	1	main_slash	7	main_slash	143	stimuli_target_circletriangles.svg	stimuli_distractor_diamondtriangles.svg	5	yes	0	0	2000
6.6.1	win	2022-12-20	01:14:08	01:27:16	786975	5c70ec7954de160001af45d8	962871913	1	main_slash	7	advance_on_keypress_SLASH	144	stimuli_target_circletriangles.svg	stimuli_distractor_diamondtriangles.svg	5	yes	57	0	296
6.6.1	win	2022-12-20	01:14:08	01:27:19	789904	5c70ec7954de160001af45d8	962871913	1	main_slash	7	main_slash	145	stimuli_distractor_trianglediamonds.svg	stimuli_target_squarediamonds.svg	12	yes	0	0	2000
6.6.1	win	2022-12-20	01:14:08	01:27:19	789904	5c70ec7954de160001af45d8	962871913	1	main_slash	7	advance_on_keypress_SLASH	146	stimuli_distractor_trianglediamonds.svg	stimuli_target_squarediamonds.svg	12	yes	57	0	480
6.6.1	win	2022-12-20	01:14:08	01:27:22	793013	5c70ec7954de160001af45d8	962871913	1	main_slash	7	main_slash	147	stimuli_target_squarediamonds.svg	stimuli_distractor_diamondtriangles.svg	8	yes	0	0	2000
6.6.1	win	2022-12-20	01:14:08	01:27:22	793013	5c70ec7954de160001af45d8	962871913	1	main_slash	7	advance_on_keypress_SLASH	148	stimuli_target_squarediamonds.svg	stimuli_distractor_diamondtriangles.svg	8	yes	57	0	407
6.6.1	win	2022-12-20	01:14:08	01:27:25	796043	5c70ec7954de160001af45d8	962871913	1	main_slash	7	main_slash	149	stimuli_target_circlediamonds.svg	stimuli_distractor_diamondtriangles.svg	6	yes	0	0	2000
6.6.1	win	2022-12-20	01:14:08	01:27:25	796043	5c70ec7954de160001af45d8	962871913	1	main_slash	7	advance_on_keypress_SLASH	150	stimuli_target_circlediamonds.svg	stimuli_distractor_diamondtriangles.svg	6	yes	57	0	379
6.6.1	win	2022-12-20	01:14:08	01:27:28	799052	5c70ec7954de160001af45d8	962871913	1	main_slash	7	main_slash	151	stimuli_target_circlediamonds.svg	stimuli_distractor_trianglediamonds.svg	2	yes	0	0	2000
6.6.1	win	2022-12-20	01:14:08	01:27:28	799052	5c70ec7954de160001af45d8	962871913	1	main_slash	7	advance_on_keypress_SLASH	152	stimuli_target_circlediamonds.svg	stimuli_distractor_trianglediamonds.svg	2	yes	57	0	293
6.6.1	win	2022-12-20	01:14:08	01:27:29	800458	5c70ec7954de160001af45d8	962871913	1	main_slash	7	main_slash	153	stimuli_target_trianglecircles.svg	stimuli_distractor_diamondtriangles.svg	21	yes	53	1	493
6.6.1	win	2022-12-20	01:14:08	01:27:29	800458	5c70ec7954de160001af45d8	962871913	1	main_slash	7	advance_on_keypress_SLASH	154	stimuli_target_trianglecircles.svg	stimuli_distractor_diamondtriangles.svg	21	yes	57	0	320
6.6.1	win	2022-12-20	01:14:08	01:27:32	803409	5c70ec7954de160001af45d8	962871913	1	main_slash	7	main_slash	155	stimuli_distractor_trianglediamonds.svg	stimuli_target_circletriangles.svg	9	yes	0	0	2000
6.6.1	win	2022-12-20	01:14:08	01:27:32	803409	5c70ec7954de160001af45d8	962871913	1	main_slash	7	advance_on_keypress_SLASH	156	stimuli_distractor_trianglediamonds.svg	stimuli_target_circletriangles.svg	9	yes	57	0	264
6.6.1	win	2022-12-20	01:14:08	01:27:34	805102	5c70ec7954de160001af45d8	962871913	1	main_slash	7	main_slash	157	stimuli_target_trianglesquares.svg	stimuli_distractor_diamondtriangles.svg	22	yes	53	1	817
6.6.1	win	2022-12-20	01:14:08	01:27:34	805102	5c70ec7954de160001af45d8	962871913	1	main_slash	7	advance_on_keypress_SLASH	158	stimuli_target_trianglesquares.svg	stimuli_distractor_diamondtriangles.svg	22	yes	57	0	256
6.6.1	win	2022-12-20	01:14:08	01:27:37	807978	5c70ec7954de160001af45d8	962871913	1	main_slash	7	main_slash	159	stimuli_distractor_trianglediamonds.svg	stimuli_distractor_trianglediamonds.svg	33	no	0	1	2000
6.6.1	win	2022-12-20	01:14:08	01:27:37	807978	5c70ec7954de160001af45d8	962871913	1	main_slash	7	advance_on_keypress_SLASH	160	stimuli_distractor_trianglediamonds.svg	stimuli_distractor_trianglediamonds.svg	33	no	57	0	279
6.6.1	win	2022-12-20	01:14:08	01:27:59	829926	5c70ec7954de160001af45d8	962871913	1	practice_z	9	practice_z	1	stimuli_distractor_trianglediamonds.svg	stimuli_target_circlediamonds.svg	10	yes	44	1	457
6.6.1	win	2022-12-20	01:14:08	01:27:59	829926	5c70ec7954de160001af45d8	962871913	1	practice_z	9	advance_on_keypress_ZEE	2	stimuli_distractor_trianglediamonds.svg	stimuli_target_circlediamonds.svg	10	yes	57	0	455
6.6.1	win	2022-12-20	01:14:08	01:28:01	832412	5c70ec7954de160001af45d8	962871913	1	practice_z	9	practice_z	3	stimuli_distractor_diamondtriangles.svg	stimuli_target_trianglecircles.svg	9	yes	44	1	397
6.6.1	win	2022-12-20	01:14:08	01:28:01	832412	5c70ec7954de160001af45d8	962871913	1	practice_z	9	advance_on_keypress_ZEE	4	stimuli_distractor_diamondtriangles.svg	stimuli_target_trianglecircles.svg	9	yes	57	0	380
6.6.1	win	2022-12-20	01:14:08	01:28:05	836439	5c70ec7954de160001af45d8	962871913	1	practice_z	9	practice_z	5	stimuli_target_circlediamonds.svg	stimuli_distractor_diamondtriangles.svg	1	yes	0	0	2000
6.6.1	win	2022-12-20	01:14:08	01:28:05	836439	5c70ec7954de160001af45d8	962871913	1	practice_z	9	advance_on_keypress_ZEE	6	stimuli_target_circlediamonds.svg	stimuli_distractor_diamondtriangles.svg	1	yes	57	0	272
6.6.1	win	2022-12-20	01:14:08	01:28:08	838751	5c70ec7954de160001af45d8	962871913	1	practice_z	9	practice_z	7	stimuli_target_diamondsquares.svg	stimuli_distractor_diamondtriangles.svg	3	yes	44	1	392
6.6.1	win	2022-12-20	01:14:08	01:28:08	838751	5c70ec7954de160001af45d8	962871913	1	practice_z	9	advance_on_keypress_ZEE	8	stimuli_target_diamondsquares.svg	stimuli_distractor_diamondtriangles.svg	3	yes	57	0	394
6.6.1	win	2022-12-20	01:14:08	01:28:12	842771	5c70ec7954de160001af45d8	962871913	1	practice_z	9	practice_z	9	stimuli_distractor_diamondtriangles.svg	stimuli_target_circletriangles.svg	7	yes	0	0	2000
6.6.1	win	2022-12-20	01:14:08	01:28:12	842771	5c70ec7954de160001af45d8	962871913	1	practice_z	9	advance_on_keypress_ZEE	10	stimuli_distractor_diamondtriangles.svg	stimuli_target_circletriangles.svg	7	yes	57	0	259
6.6.1	win	2022-12-20	01:14:08	01:28:16	846658	5c70ec7954de160001af45d8	962871913	1	practice_z	9	practice_z	11	stimuli_target_circlediamonds.svg	stimuli_distractor_trianglediamonds.svg	4	yes	0	0	2000
6.6.1	win	2022-12-20	01:14:08	01:28:16	846658	5c70ec7954de160001af45d8	962871913	1	practice_z	9	advance_on_keypress_ZEE	12	stimuli_target_circlediamonds.svg	stimuli_distractor_trianglediamonds.svg	4	yes	57	0	280
6.6.1	win	2022-12-20	01:14:08	01:28:19	850556	5c70ec7954de160001af45d8	962871913	1	practice_z	9	practice_z	13	stimuli_distractor_diamondtriangles.svg	stimuli_distractor_diamondtriangles.svg	13	no	0	1	2000
6.6.1	win	2022-12-20	01:14:08	01:28:19	850556	5c70ec7954de160001af45d8	962871913	1	practice_z	9	advance_on_keypress_ZEE	14	stimuli_distractor_diamondtriangles.svg	stimuli_distractor_diamondtriangles.svg	13	no	57	0	379
6.6.1	win	2022-12-20	01:14:08	01:28:23	854558	5c70ec7954de160001af45d8	962871913	1	practice_z	9	practice_z	15	stimuli_distractor_trianglediamonds.svg	stimuli_distractor_trianglediamonds.svg	15	no	0	1	2000
6.6.1	win	2022-12-20	01:14:08	01:28:23	854558	5c70ec7954de160001af45d8	962871913	1	practice_z	9	advance_on_keypress_ZEE	16	stimuli_distractor_trianglediamonds.svg	stimuli_distractor_trianglediamonds.svg	15	no	57	0	243
6.6.1	win	2022-12-20	01:14:08	01:28:27	858432	5c70ec7954de160001af45d8	962871913	1	practice_z	9	practice_z	17	stimuli_distractor_trianglediamonds.svg	stimuli_distractor_diamondtriangles.svg	16	no	0	1	2000
6.6.1	win	2022-12-20	01:14:08	01:28:27	858432	5c70ec7954de160001af45d8	962871913	1	practice_z	9	advance_on_keypress_ZEE	18	stimuli_distractor_trianglediamonds.svg	stimuli_distractor_diamondtriangles.svg	16	no	57	0	228
6.6.1	win	2022-12-20	01:14:08	01:28:30	860750	5c70ec7954de160001af45d8	962871913	1	practice_z	9	practice_z	19	stimuli_distractor_trianglediamonds.svg	stimuli_target_diamondcircles.svg	12	yes	44	1	455
6.6.1	win	2022-12-20	01:14:08	01:28:30	860750	5c70ec7954de160001af45d8	962871913	1	practice_z	9	advance_on_keypress_ZEE	20	stimuli_distractor_trianglediamonds.svg	stimuli_target_diamondcircles.svg	12	yes	57	0	365
6.6.1	win	2022-12-20	01:14:08	01:28:34	864758	5c70ec7954de160001af45d8	962871913	1	practice_z	9	practice_z	21	stimuli_distractor_diamondtriangles.svg	stimuli_distractor_trianglediamonds.svg	14	no	0	1	2000
6.6.1	win	2022-12-20	01:14:08	01:28:34	864758	5c70ec7954de160001af45d8	962871913	1	practice_z	9	advance_on_keypress_ZEE	22	stimuli_distractor_diamondtriangles.svg	stimuli_distractor_trianglediamonds.svg	14	no	57	0	242
6.6.1	win	2022-12-20	01:14:08	01:28:36	867011	5c70ec7954de160001af45d8	962871913	1	practice_z	9	practice_z	23	stimuli_distractor_trianglediamonds.svg	stimuli_target_squarediamonds.svg	11	yes	44	1	371
6.6.1	win	2022-12-20	01:14:08	01:28:36	867011	5c70ec7954de160001af45d8	962871913	1	practice_z	9	advance_on_keypress_ZEE	24	stimuli_distractor_trianglediamonds.svg	stimuli_target_squarediamonds.svg	11	yes	57	0	262
6.6.1	win	2022-12-20	01:14:08	01:28:38	869375	5c70ec7954de160001af45d8	962871913	1	practice_z	9	practice_z	25	stimuli_target_diamondsquares.svg	stimuli_distractor_trianglediamonds.svg	6	yes	44	1	485
6.6.1	win	2022-12-20	01:14:08	01:28:38	869375	5c70ec7954de160001af45d8	962871913	1	practice_z	9	advance_on_keypress_ZEE	26	stimuli_target_diamondsquares.svg	stimuli_distractor_trianglediamonds.svg	6	yes	57	0	38
6.6.1	win	2022-12-20	01:14:08	01:28:40	871518	5c70ec7954de160001af45d8	962871913	1	practice_z	9	practice_z	27	stimuli_target_squarediamonds.svg	stimuli_distractor_diamondtriangles.svg	2	yes	44	1	459
6.6.1	win	2022-12-20	01:14:08	01:28:40	871518	5c70ec7954de160001af45d8	962871913	1	practice_z	9	advance_on_keypress_ZEE	28	stimuli_target_squarediamonds.svg	stimuli_distractor_diamondtriangles.svg	2	yes	57	0	281
6.6.1	win	2022-12-20	01:14:08	01:28:43	873775	5c70ec7954de160001af45d8	962871913	1	practice_z	9	practice_z	29	stimuli_target_squarediamonds.svg	stimuli_distractor_trianglediamonds.svg	5	yes	44	1	312
6.6.1	win	2022-12-20	01:14:08	01:28:43	873775	5c70ec7954de160001af45d8	962871913	1	practice_z	9	advance_on_keypress_ZEE	30	stimuli_target_squarediamonds.svg	stimuli_distractor_trianglediamonds.svg	5	yes	57	0	94
6.6.1	win	2022-12-20	01:14:08	01:28:45	876071	5c70ec7954de160001af45d8	962871913	1	practice_z	9	practice_z	31	stimuli_distractor_diamondtriangles.svg	stimuli_target_diamondcircles.svg	8	yes	44	1	572
6.6.1	win	2022-12-20	01:14:08	01:28:45	876071	5c70ec7954de160001af45d8	962871913	1	practice_z	9	advance_on_keypress_ZEE	32	stimuli_distractor_diamondtriangles.svg	stimuli_target_diamondcircles.svg	8	yes	57	0	192
6.6.1	win	2022-12-20	01:14:08	01:28:48	879502	5c70ec7954de160001af45d8	962871913	1	main_z	11	main_z	1	stimuli_distractor_trianglediamonds.svg	stimuli_target_trianglesquares.svg	26	yes	44	1	388
6.6.1	win	2022-12-20	01:14:08	01:28:48	879502	5c70ec7954de160001af45d8	962871913	1	main_z	11	advance_on_keypress_ZEE	2	stimuli_distractor_trianglediamonds.svg	stimuli_target_trianglesquares.svg	26	yes	57	0	826
6.6.1	win	2022-12-20	01:14:08	01:28:52	882952	5c70ec7954de160001af45d8	962871913	1	main_z	11	main_z	3	stimuli_distractor_trianglediamonds.svg	stimuli_distractor_diamondtriangles.svg	35	no	0	1	2000
6.6.1	win	2022-12-20	01:14:08	01:28:52	882952	5c70ec7954de160001af45d8	962871913	1	main_z	11	advance_on_keypress_ZEE	4	stimuli_distractor_trianglediamonds.svg	stimuli_distractor_diamondtriangles.svg	35	no	57	0	359
6.6.1	win	2022-12-20	01:14:08	01:28:53	884369	5c70ec7954de160001af45d8	962871913	1	main_z	11	main_z	5	stimuli_target_circlediamonds.svg	stimuli_distractor_diamondtriangles.svg	6	yes	44	1	440
6.6.1	win	2022-12-20	01:14:08	01:28:53	884369	5c70ec7954de160001af45d8	962871913	1	main_z	11	advance_on_keypress_ZEE	6	stimuli_target_circlediamonds.svg	stimuli_distractor_diamondtriangles.svg	6	yes	57	0	397
6.6.1	win	2022-12-20	01:14:08	01:28:56	887400	5c70ec7954de160001af45d8	962871913	1	main_z	11	main_z	7	stimuli_distractor_trianglediamonds.svg	stimuli_distractor_trianglediamonds.svg	34	no	0	1	2000
6.6.1	win	2022-12-20	01:14:08	01:28:56	887400	5c70ec7954de160001af45d8	962871913	1	main_z	11	advance_on_keypress_ZEE	8	stimuli_distractor_trianglediamonds.svg	stimuli_distractor_trianglediamonds.svg	34	no	57	0	228
6.6.1	win	2022-12-20	01:14:08	01:28:58	888580	5c70ec7954de160001af45d8	962871913	1	main_z	11	main_z	9	stimuli_distractor_trianglediamonds.svg	stimuli_target_circlediamonds.svg	10	yes	44	1	331
6.6.1	win	2022-12-20	01:14:08	01:28:58	888580	5c70ec7954de160001af45d8	962871913	1	main_z	11	advance_on_keypress_ZEE	10	stimuli_distractor_trianglediamonds.svg	stimuli_target_circlediamonds.svg	10	yes	57	0	341
6.6.1	win	2022-12-20	01:14:08	01:28:59	889897	5c70ec7954de160001af45d8	962871913	1	main_z	11	main_z	11	stimuli_target_circlediamonds.svg	stimuli_distractor_trianglediamonds.svg	2	yes	44	1	358
6.6.1	win	2022-12-20	01:14:08	01:28:59	889897	5c70ec7954de160001af45d8	962871913	1	main_z	11	advance_on_keypress_ZEE	12	stimuli_target_circlediamonds.svg	stimuli_distractor_trianglediamonds.svg	2	yes	57	0	341
6.6.1	win	2022-12-20	01:14:08	01:29:02	892861	5c70ec7954de160001af45d8	962871913	1	main_z	11	main_z	13	stimuli_target_diamondcircles.svg	stimuli_distractor_trianglediamonds.svg	19	yes	0	0	2000
6.6.1	win	2022-12-20	01:14:08	01:29:02	892861	5c70ec7954de160001af45d8	962871913	1	main_z	11	advance_on_keypress_ZEE	14	stimuli_target_diamondcircles.svg	stimuli_distractor_trianglediamonds.svg	19	yes	57	0	220
6.6.1	win	2022-12-20	01:14:08	01:29:03	894053	5c70ec7954de160001af45d8	962871913	1	main_z	11	main_z	15	stimuli_distractor_diamondtriangles.svg	stimuli_target_diamondcircles.svg	31	yes	44	1	340
6.6.1	win	2022-12-20	01:14:08	01:29:03	894053	5c70ec7954de160001af45d8	962871913	1	main_z	11	advance_on_keypress_ZEE	16	stimuli_distractor_diamondtriangles.svg	stimuli_target_diamondcircles.svg	31	yes	57	0	297
6.6.1	win	2022-12-20	01:14:08	01:29:04	895375	5c70ec7954de160001af45d8	962871913	1	main_z	11	main_z	17	stimuli_target_diamondsquares.svg	stimuli_distractor_diamondtriangles.svg	24	yes	44	1	394
6.6.1	win	2022-12-20	01:14:08	01:29:04	895375	5c70ec7954de160001af45d8	962871913	1	main_z	11	advance_on_keypress_ZEE	18	stimuli_target_diamondsquares.svg	stimuli_distractor_diamondtriangles.svg	24	yes	57	0	348
6.6.1	win	2022-12-20	01:14:08	01:29:05	896524	5c70ec7954de160001af45d8	962871913	1	main_z	11	main_z	19	stimuli_target_squaretriangles.svg	stimuli_distractor_trianglediamonds.svg	3	yes	44	1	158
6.6.1	win	2022-12-20	01:14:08	01:29:05	896524	5c70ec7954de160001af45d8	962871913	1	main_z	11	advance_on_keypress_ZEE	20	stimuli_target_squaretriangles.svg	stimuli_distractor_trianglediamonds.svg	3	yes	57	0	318
6.6.1	win	2022-12-20	01:14:08	01:29:07	898229	5c70ec7954de160001af45d8	962871913	1	main_z	11	main_z	21	stimuli_target_diamondsquares.svg	stimuli_distractor_trianglediamonds.svg	20	yes	44	1	763
6.6.1	win	2022-12-20	01:14:08	01:29:07	898229	5c70ec7954de160001af45d8	962871913	1	main_z	11	advance_on_keypress_ZEE	22	stimuli_target_diamondsquares.svg	stimuli_distractor_trianglediamonds.svg	20	yes	57	0	371
6.6.1	win	2022-12-20	01:14:08	01:29:08	899538	5c70ec7954de160001af45d8	962871913	1	main_z	11	main_z	23	stimuli_distractor_trianglediamonds.svg	stimuli_distractor_trianglediamonds.svg	33	no	44	0	308
6.6.1	win	2022-12-20	01:14:08	01:29:08	899538	5c70ec7954de160001af45d8	962871913	1	main_z	11	advance_on_keypress_ZEE	24	stimuli_distractor_trianglediamonds.svg	stimuli_distractor_trianglediamonds.svg	33	no	57	0	379
6.6.1	win	2022-12-20	01:14:08	01:29:11	902560	5c70ec7954de160001af45d8	962871913	1	main_z	11	main_z	25	stimuli_distractor_diamondtriangles.svg	stimuli_distractor_trianglediamonds.svg	38	no	0	1	2000
6.6.1	win	2022-12-20	01:14:08	01:29:11	902560	5c70ec7954de160001af45d8	962871913	1	main_z	11	advance_on_keypress_ZEE	26	stimuli_distractor_diamondtriangles.svg	stimuli_distractor_trianglediamonds.svg	38	no	57	0	256
6.6.1	win	2022-12-20	01:14:08	01:29:13	903792	5c70ec7954de160001af45d8	962871913	1	main_z	11	main_z	27	stimuli_target_circletriangles.svg	stimuli_distractor_diamondtriangles.svg	5	yes	44	1	358
6.6.1	win	2022-12-20	01:14:08	01:29:13	903792	5c70ec7954de160001af45d8	962871913	1	main_z	11	advance_on_keypress_ZEE	28	stimuli_target_circletriangles.svg	stimuli_distractor_diamondtriangles.svg	5	yes	57	0	367
6.6.1	win	2022-12-20	01:14:08	01:29:14	905109	5c70ec7954de160001af45d8	962871913	1	main_z	11	main_z	29	stimuli_distractor_diamondtriangles.svg	stimuli_target_trianglecircles.svg	29	yes	44	1	299
6.6.1	win	2022-12-20	01:14:08	01:29:14	905109	5c70ec7954de160001af45d8	962871913	1	main_z	11	advance_on_keypress_ZEE	30	stimuli_distractor_diamondtriangles.svg	stimuli_target_trianglecircles.svg	29	yes	57	0	333
6.6.1	win	2022-12-20	01:14:08	01:29:15	906376	5c70ec7954de160001af45d8	962871913	1	main_z	11	main_z	31	stimuli_target_trianglecircles.svg	stimuli_distractor_trianglediamonds.svg	17	yes	44	1	301
6.6.1	win	2022-12-20	01:14:08	01:29:15	906376	5c70ec7954de160001af45d8	962871913	1	main_z	11	advance_on_keypress_ZEE	32	stimuli_target_trianglecircles.svg	stimuli_distractor_trianglediamonds.svg	17	yes	57	0	296
6.6.1	win	2022-12-20	01:14:08	01:29:17	907669	5c70ec7954de160001af45d8	962871913	1	main_z	11	main_z	33	stimuli_distractor_trianglediamonds.svg	stimuli_target_trianglecircles.svg	25	yes	44	1	356
6.6.1	win	2022-12-20	01:14:08	01:29:17	907669	5c70ec7954de160001af45d8	962871913	1	main_z	11	advance_on_keypress_ZEE	34	stimuli_distractor_trianglediamonds.svg	stimuli_target_trianglecircles.svg	25	yes	57	0	223
6.6.1	win	2022-12-20	01:14:08	01:29:19	910532	5c70ec7954de160001af45d8	962871913	1	main_z	11	main_z	35	stimuli_distractor_trianglediamonds.svg	stimuli_target_diamondsquares.svg	28	yes	0	0	2000
6.6.1	win	2022-12-20	01:14:08	01:29:19	910532	5c70ec7954de160001af45d8	962871913	1	main_z	11	advance_on_keypress_ZEE	36	stimuli_distractor_trianglediamonds.svg	stimuli_target_diamondsquares.svg	28	yes	57	0	236
6.6.1	win	2022-12-20	01:14:08	01:29:21	911683	5c70ec7954de160001af45d8	962871913	1	main_z	11	main_z	37	stimuli_distractor_trianglediamonds.svg	stimuli_target_squaretriangles.svg	11	yes	44	1	278
6.6.1	win	2022-12-20	01:14:08	01:29:21	911683	5c70ec7954de160001af45d8	962871913	1	main_z	11	advance_on_keypress_ZEE	38	stimuli_distractor_trianglediamonds.svg	stimuli_target_squaretriangles.svg	11	yes	57	0	291
6.6.1	win	2022-12-20	01:14:08	01:29:22	912900	5c70ec7954de160001af45d8	962871913	1	main_z	11	main_z	39	stimuli_target_squaretriangles.svg	stimuli_distractor_diamondtriangles.svg	7	yes	44	1	311
6.6.1	win	2022-12-20	01:14:08	01:29:22	912900	5c70ec7954de160001af45d8	962871913	1	main_z	11	advance_on_keypress_ZEE	40	stimuli_target_squaretriangles.svg	stimuli_distractor_diamondtriangles.svg	7	yes	57	0	270
6.6.1	win	2022-12-20	01:14:08	01:29:25	915798	5c70ec7954de160001af45d8	962871913	1	main_z	11	main_z	41	stimuli_distractor_diamondtriangles.svg	stimuli_distractor_diamondtriangles.svg	40	no	0	1	2000
6.6.1	win	2022-12-20	01:14:08	01:29:25	915798	5c70ec7954de160001af45d8	962871913	1	main_z	11	advance_on_keypress_ZEE	42	stimuli_distractor_diamondtriangles.svg	stimuli_distractor_diamondtriangles.svg	40	no	57	0	244
6.6.1	win	2022-12-20	01:14:08	01:29:26	917020	5c70ec7954de160001af45d8	962871913	1	main_z	11	main_z	43	stimuli_distractor_diamondtriangles.svg	stimuli_target_circlediamonds.svg	14	yes	44	1	346
6.6.1	win	2022-12-20	01:14:08	01:29:26	917020	5c70ec7954de160001af45d8	962871913	1	main_z	11	advance_on_keypress_ZEE	44	stimuli_distractor_diamondtriangles.svg	stimuli_target_circlediamonds.svg	14	yes	57	0	275
6.6.1	win	2022-12-20	01:14:08	01:29:27	918327	5c70ec7954de160001af45d8	962871913	1	main_z	11	main_z	45	stimuli_distractor_trianglediamonds.svg	stimuli_target_diamondcircles.svg	27	yes	44	1	390
6.6.1	win	2022-12-20	01:14:08	01:29:27	918327	5c70ec7954de160001af45d8	962871913	1	main_z	11	advance_on_keypress_ZEE	46	stimuli_distractor_trianglediamonds.svg	stimuli_target_diamondcircles.svg	27	yes	57	0	284
6.6.1	win	2022-12-20	01:14:08	01:29:28	919556	5c70ec7954de160001af45d8	962871913	1	main_z	11	main_z	47	stimuli_target_trianglesquares.svg	stimuli_distractor_diamondtriangles.svg	22	yes	44	1	296
6.6.1	win	2022-12-20	01:14:08	01:29:28	919556	5c70ec7954de160001af45d8	962871913	1	main_z	11	advance_on_keypress_ZEE	48	stimuli_target_trianglesquares.svg	stimuli_distractor_diamondtriangles.svg	22	yes	57	0	276
6.6.1	win	2022-12-20	01:14:08	01:29:31	922476	5c70ec7954de160001af45d8	962871913	1	main_z	11	main_z	49	stimuli_distractor_diamondtriangles.svg	stimuli_target_diamondsquares.svg	32	yes	0	0	2000
6.6.1	win	2022-12-20	01:14:08	01:29:31	922476	5c70ec7954de160001af45d8	962871913	1	main_z	11	advance_on_keypress_ZEE	50	stimuli_distractor_diamondtriangles.svg	stimuli_target_diamondsquares.svg	32	yes	57	0	404
6.6.1	win	2022-12-20	01:14:08	01:29:33	924008	5c70ec7954de160001af45d8	962871913	1	main_z	11	main_z	51	stimuli_distractor_diamondtriangles.svg	stimuli_target_squaretriangles.svg	15	yes	44	1	482
6.6.1	win	2022-12-20	01:14:08	01:29:33	924008	5c70ec7954de160001af45d8	962871913	1	main_z	11	advance_on_keypress_ZEE	52	stimuli_distractor_diamondtriangles.svg	stimuli_target_squaretriangles.svg	15	yes	57	0	269
6.6.1	win	2022-12-20	01:14:08	01:29:34	925228	5c70ec7954de160001af45d8	962871913	1	main_z	11	main_z	53	stimuli_distractor_trianglediamonds.svg	stimuli_target_squarediamonds.svg	12	yes	44	1	297
6.6.1	win	2022-12-20	01:14:08	01:29:34	925228	5c70ec7954de160001af45d8	962871913	1	main_z	11	advance_on_keypress_ZEE	54	stimuli_distractor_trianglediamonds.svg	stimuli_target_squarediamonds.svg	12	yes	57	0	277
6.6.1	win	2022-12-20	01:14:08	01:29:35	926525	5c70ec7954de160001af45d8	962871913	1	main_z	11	main_z	55	stimuli_distractor_diamondtriangles.svg	stimuli_target_trianglesquares.svg	30	yes	44	1	392
6.6.1	win	2022-12-20	01:14:08	01:29:35	926525	5c70ec7954de160001af45d8	962871913	1	main_z	11	advance_on_keypress_ZEE	56	stimuli_distractor_diamondtriangles.svg	stimuli_target_trianglesquares.svg	30	yes	57	0	254
6.6.1	win	2022-12-20	01:14:08	01:29:37	927716	5c70ec7954de160001af45d8	962871913	1	main_z	11	main_z	57	stimuli_target_squarediamonds.svg	stimuli_distractor_diamondtriangles.svg	8	yes	44	1	308
6.6.1	win	2022-12-20	01:14:08	01:29:37	927716	5c70ec7954de160001af45d8	962871913	1	main_z	11	advance_on_keypress_ZEE	58	stimuli_target_squarediamonds.svg	stimuli_distractor_diamondtriangles.svg	8	yes	57	0	282
6.6.1	win	2022-12-20	01:14:08	01:29:38	929205	5c70ec7954de160001af45d8	962871913	1	main_z	11	main_z	59	stimuli_target_trianglecircles.svg	stimuli_distractor_diamondtriangles.svg	21	yes	44	1	585
6.6.1	win	2022-12-20	01:14:08	01:29:38	929205	5c70ec7954de160001af45d8	962871913	1	main_z	11	advance_on_keypress_ZEE	60	stimuli_target_trianglecircles.svg	stimuli_distractor_diamondtriangles.svg	21	yes	57	0	302
6.6.1	win	2022-12-20	01:14:08	01:29:39	930404	5c70ec7954de160001af45d8	962871913	1	main_z	11	main_z	61	stimuli_target_squarediamonds.svg	stimuli_distractor_trianglediamonds.svg	4	yes	44	1	277
6.6.1	win	2022-12-20	01:14:08	01:29:39	930404	5c70ec7954de160001af45d8	962871913	1	main_z	11	advance_on_keypress_ZEE	62	stimuli_target_squarediamonds.svg	stimuli_distractor_trianglediamonds.svg	4	yes	57	0	263
6.6.1	win	2022-12-20	01:14:08	01:29:42	933297	5c70ec7954de160001af45d8	962871913	1	main_z	11	main_z	63	stimuli_distractor_diamondtriangles.svg	stimuli_distractor_diamondtriangles.svg	39	no	0	1	2000
6.6.1	win	2022-12-20	01:14:08	01:29:42	933297	5c70ec7954de160001af45d8	962871913	1	main_z	11	advance_on_keypress_ZEE	64	stimuli_distractor_diamondtriangles.svg	stimuli_distractor_diamondtriangles.svg	39	no	57	0	241
6.6.1	win	2022-12-20	01:14:08	01:29:45	936171	5c70ec7954de160001af45d8	962871913	1	main_z	11	main_z	65	stimuli_distractor_diamondtriangles.svg	stimuli_distractor_trianglediamonds.svg	37	no	0	1	2000
6.6.1	win	2022-12-20	01:14:08	01:29:45	936171	5c70ec7954de160001af45d8	962871913	1	main_z	11	advance_on_keypress_ZEE	66	stimuli_distractor_diamondtriangles.svg	stimuli_distractor_trianglediamonds.svg	37	no	57	0	166
6.6.1	win	2022-12-20	01:14:08	01:29:46	937346	5c70ec7954de160001af45d8	962871913	1	main_z	11	main_z	67	stimuli_distractor_diamondtriangles.svg	stimuli_target_squarediamonds.svg	16	yes	44	1	376
6.6.1	win	2022-12-20	01:14:08	01:29:46	937346	5c70ec7954de160001af45d8	962871913	1	main_z	11	advance_on_keypress_ZEE	68	stimuli_distractor_diamondtriangles.svg	stimuli_target_squarediamonds.svg	16	yes	57	0	259
6.6.1	win	2022-12-20	01:14:08	01:29:49	940245	5c70ec7954de160001af45d8	962871913	1	main_z	11	main_z	69	stimuli_distractor_trianglediamonds.svg	stimuli_distractor_diamondtriangles.svg	36	no	0	1	2000
6.6.1	win	2022-12-20	01:14:08	01:29:49	940245	5c70ec7954de160001af45d8	962871913	1	main_z	11	advance_on_keypress_ZEE	70	stimuli_distractor_trianglediamonds.svg	stimuli_distractor_diamondtriangles.svg	36	no	57	0	30
6.6.1	win	2022-12-20	01:14:08	01:29:50	941241	5c70ec7954de160001af45d8	962871913	1	main_z	11	main_z	71	stimuli_distractor_diamondtriangles.svg	stimuli_target_circletriangles.svg	13	yes	44	1	325
6.6.1	win	2022-12-20	01:14:08	01:29:50	941241	5c70ec7954de160001af45d8	962871913	1	main_z	11	advance_on_keypress_ZEE	72	stimuli_distractor_diamondtriangles.svg	stimuli_target_circletriangles.svg	13	yes	57	0	293
6.6.1	win	2022-12-20	01:14:08	01:29:52	942605	5c70ec7954de160001af45d8	962871913	1	main_z	11	main_z	73	stimuli_target_trianglesquares.svg	stimuli_distractor_trianglediamonds.svg	18	yes	44	1	447
6.6.1	win	2022-12-20	01:14:08	01:29:52	942605	5c70ec7954de160001af45d8	962871913	1	main_z	11	advance_on_keypress_ZEE	74	stimuli_target_trianglesquares.svg	stimuli_distractor_trianglediamonds.svg	18	yes	57	0	292
6.6.1	win	2022-12-20	01:14:08	01:29:53	943957	5c70ec7954de160001af45d8	962871913	1	main_z	11	main_z	75	stimuli_target_diamondcircles.svg	stimuli_distractor_diamondtriangles.svg	23	yes	44	1	446
6.6.1	win	2022-12-20	01:14:08	01:29:53	943957	5c70ec7954de160001af45d8	962871913	1	main_z	11	advance_on_keypress_ZEE	76	stimuli_target_diamondcircles.svg	stimuli_distractor_diamondtriangles.svg	23	yes	57	0	268
6.6.1	win	2022-12-20	01:14:08	01:29:54	945205	5c70ec7954de160001af45d8	962871913	1	main_z	11	main_z	77	stimuli_target_circletriangles.svg	stimuli_distractor_trianglediamonds.svg	1	yes	44	1	349
6.6.1	win	2022-12-20	01:14:08	01:29:54	945205	5c70ec7954de160001af45d8	962871913	1	main_z	11	advance_on_keypress_ZEE	78	stimuli_target_circletriangles.svg	stimuli_distractor_trianglediamonds.svg	1	yes	57	0	322
6.6.1	win	2022-12-20	01:14:08	01:29:55	946525	5c70ec7954de160001af45d8	962871913	1	main_z	11	main_z	79	stimuli_distractor_trianglediamonds.svg	stimuli_target_circletriangles.svg	9	yes	44	1	353
6.6.1	win	2022-12-20	01:14:08	01:29:55	946525	5c70ec7954de160001af45d8	962871913	1	main_z	11	advance_on_keypress_ZEE	80	stimuli_distractor_trianglediamonds.svg	stimuli_target_circletriangles.svg	9	yes	57	0	283
6.6.1	win	2022-12-20	01:14:08	01:29:57	947703	5c70ec7954de160001af45d8	962871913	1	main_z	11	main_z	81	stimuli_target_squaretriangles.svg	stimuli_distractor_trianglediamonds.svg	3	yes	44	1	256
6.6.1	win	2022-12-20	01:14:08	01:29:57	947703	5c70ec7954de160001af45d8	962871913	1	main_z	11	advance_on_keypress_ZEE	82	stimuli_target_squaretriangles.svg	stimuli_distractor_trianglediamonds.svg	3	yes	57	0	234
6.6.1	win	2022-12-20	01:14:08	01:29:58	948829	5c70ec7954de160001af45d8	962871913	1	main_z	11	main_z	83	stimuli_distractor_trianglediamonds.svg	stimuli_target_diamondcircles.svg	27	yes	44	1	250
6.6.1	win	2022-12-20	01:14:08	01:29:58	948829	5c70ec7954de160001af45d8	962871913	1	main_z	11	advance_on_keypress_ZEE	84	stimuli_distractor_trianglediamonds.svg	stimuli_target_diamondcircles.svg	27	yes	57	0	246
6.6.1	win	2022-12-20	01:14:08	01:29:59	949956	5c70ec7954de160001af45d8	962871913	1	main_z	11	main_z	85	stimuli_distractor_trianglediamonds.svg	stimuli_distractor_diamondtriangles.svg	35	no	44	0	237
6.6.1	win	2022-12-20	01:14:08	01:29:59	949956	5c70ec7954de160001af45d8	962871913	1	main_z	11	advance_on_keypress_ZEE	86	stimuli_distractor_trianglediamonds.svg	stimuli_distractor_diamondtriangles.svg	35	no	57	0	320
6.6.1	win	2022-12-20	01:14:08	01:30:02	952906	5c70ec7954de160001af45d8	962871913	1	main_z	11	main_z	87	stimuli_distractor_trianglediamonds.svg	stimuli_distractor_diamondtriangles.svg	36	no	0	1	2000
6.6.1	win	2022-12-20	01:14:08	01:30:02	952906	5c70ec7954de160001af45d8	962871913	1	main_z	11	advance_on_keypress_ZEE	88	stimuli_distractor_trianglediamonds.svg	stimuli_distractor_diamondtriangles.svg	36	no	57	0	217
6.6.1	win	2022-12-20	01:14:08	01:30:03	954174	5c70ec7954de160001af45d8	962871913	1	main_z	11	main_z	89	stimuli_target_diamondsquares.svg	stimuli_distractor_diamondtriangles.svg	24	yes	44	1	421
6.6.1	win	2022-12-20	01:14:08	01:30:03	954174	5c70ec7954de160001af45d8	962871913	1	main_z	11	advance_on_keypress_ZEE	90	stimuli_target_diamondsquares.svg	stimuli_distractor_diamondtriangles.svg	24	yes	57	0	301
6.6.1	win	2022-12-20	01:14:08	01:30:05	955633	5c70ec7954de160001af45d8	962871913	1	main_z	11	main_z	91	stimuli_target_trianglecircles.svg	stimuli_distractor_diamondtriangles.svg	21	yes	44	1	520
6.6.1	win	2022-12-20	01:14:08	01:30:05	955633	5c70ec7954de160001af45d8	962871913	1	main_z	11	advance_on_keypress_ZEE	92	stimuli_target_trianglecircles.svg	stimuli_distractor_diamondtriangles.svg	21	yes	57	0	436
6.6.1	win	2022-12-20	01:14:08	01:30:06	957100	5c70ec7954de160001af45d8	962871913	1	main_z	11	main_z	93	stimuli_target_circletriangles.svg	stimuli_distractor_trianglediamonds.svg	1	yes	44	1	390
6.6.1	win	2022-12-20	01:14:08	01:30:06	957100	5c70ec7954de160001af45d8	962871913	1	main_z	11	advance_on_keypress_ZEE	94	stimuli_target_circletriangles.svg	stimuli_distractor_trianglediamonds.svg	1	yes	57	0	321
6.6.1	win	2022-12-20	01:14:08	01:30:09	960067	5c70ec7954de160001af45d8	962871913	1	main_z	11	main_z	95	stimuli_distractor_trianglediamonds.svg	stimuli_distractor_trianglediamonds.svg	34	no	0	1	2000
6.6.1	win	2022-12-20	01:14:08	01:30:09	960067	5c70ec7954de160001af45d8	962871913	1	main_z	11	advance_on_keypress_ZEE	96	stimuli_distractor_trianglediamonds.svg	stimuli_distractor_trianglediamonds.svg	34	no	57	0	70
6.6.1	win	2022-12-20	01:14:08	01:30:10	960975	5c70ec7954de160001af45d8	962871913	1	main_z	11	main_z	97	stimuli_distractor_trianglediamonds.svg	stimuli_distractor_trianglediamonds.svg	33	no	44	0	216
6.6.1	win	2022-12-20	01:14:08	01:30:10	960975	5c70ec7954de160001af45d8	962871913	1	main_z	11	advance_on_keypress_ZEE	98	stimuli_distractor_trianglediamonds.svg	stimuli_distractor_trianglediamonds.svg	33	no	57	0	360
6.6.1	win	2022-12-20	01:14:08	01:30:11	962381	5c70ec7954de160001af45d8	962871913	1	main_z	11	main_z	99	stimuli_distractor_trianglediamonds.svg	stimuli_target_circletriangles.svg	9	yes	44	1	412
6.6.1	win	2022-12-20	01:14:08	01:30:11	962381	5c70ec7954de160001af45d8	962871913	1	main_z	11	advance_on_keypress_ZEE	100	stimuli_distractor_trianglediamonds.svg	stimuli_target_circletriangles.svg	9	yes	57	0	250
6.6.1	win	2022-12-20	01:14:08	01:30:13	963591	5c70ec7954de160001af45d8	962871913	1	main_z	11	main_z	101	stimuli_target_circletriangles.svg	stimuli_distractor_diamondtriangles.svg	5	yes	44	1	319
6.6.1	win	2022-12-20	01:14:08	01:30:13	963591	5c70ec7954de160001af45d8	962871913	1	main_z	11	advance_on_keypress_ZEE	102	stimuli_target_circletriangles.svg	stimuli_distractor_diamondtriangles.svg	5	yes	57	0	255
6.6.1	win	2022-12-20	01:14:08	01:30:14	964790	5c70ec7954de160001af45d8	962871913	1	main_z	11	main_z	103	stimuli_distractor_diamondtriangles.svg	stimuli_target_circletriangles.svg	13	yes	44	1	302
6.6.1	win	2022-12-20	01:14:08	01:30:14	964790	5c70ec7954de160001af45d8	962871913	1	main_z	11	advance_on_keypress_ZEE	104	stimuli_distractor_diamondtriangles.svg	stimuli_target_circletriangles.svg	13	yes	57	0	251
6.6.1	win	2022-12-20	01:14:08	01:30:15	966103	5c70ec7954de160001af45d8	962871913	1	main_z	11	main_z	105	stimuli_target_trianglecircles.svg	stimuli_distractor_trianglediamonds.svg	17	yes	44	1	425
6.6.1	win	2022-12-20	01:14:08	01:30:15	966103	5c70ec7954de160001af45d8	962871913	1	main_z	11	advance_on_keypress_ZEE	106	stimuli_target_trianglecircles.svg	stimuli_distractor_trianglediamonds.svg	17	yes	57	0	255
6.6.1	win	2022-12-20	01:14:08	01:30:16	967391	5c70ec7954de160001af45d8	962871913	1	main_z	11	main_z	107	stimuli_distractor_trianglediamonds.svg	stimuli_target_squarediamonds.svg	12	yes	44	1	398
6.6.1	win	2022-12-20	01:14:08	01:30:16	967391	5c70ec7954de160001af45d8	962871913	1	main_z	11	advance_on_keypress_ZEE	108	stimuli_distractor_trianglediamonds.svg	stimuli_target_squarediamonds.svg	12	yes	57	0	247
6.6.1	win	2022-12-20	01:14:08	01:30:18	968606	5c70ec7954de160001af45d8	962871913	1	main_z	11	main_z	109	stimuli_distractor_diamondtriangles.svg	stimuli_target_trianglesquares.svg	30	yes	44	1	331
6.6.1	win	2022-12-20	01:14:08	01:30:18	968606	5c70ec7954de160001af45d8	962871913	1	main_z	11	advance_on_keypress_ZEE	110	stimuli_distractor_diamondtriangles.svg	stimuli_target_trianglesquares.svg	30	yes	57	0	228
6.6.1	win	2022-12-20	01:14:08	01:30:19	969904	5c70ec7954de160001af45d8	962871913	1	main_z	11	main_z	111	stimuli_distractor_diamondtriangles.svg	stimuli_target_diamondsquares.svg	32	yes	44	1	436
6.6.1	win	2022-12-20	01:14:08	01:30:19	969904	5c70ec7954de160001af45d8	962871913	1	main_z	11	advance_on_keypress_ZEE	112	stimuli_distractor_diamondtriangles.svg	stimuli_target_diamondsquares.svg	32	yes	57	0	224
6.6.1	win	2022-12-20	01:14:08	01:30:20	971071	5c70ec7954de160001af45d8	962871913	1	main_z	11	main_z	113	stimuli_distractor_diamondtriangles.svg	stimuli_target_squarediamonds.svg	16	yes	44	1	323
6.6.1	win	2022-12-20	01:14:08	01:30:20	971071	5c70ec7954de160001af45d8	962871913	1	main_z	11	advance_on_keypress_ZEE	114	stimuli_distractor_diamondtriangles.svg	stimuli_target_squarediamonds.svg	16	yes	57	0	236
6.6.1	win	2022-12-20	01:14:08	01:30:21	972344	5c70ec7954de160001af45d8	962871913	1	main_z	11	main_z	115	stimuli_distractor_diamondtriangles.svg	stimuli_target_diamondcircles.svg	31	yes	44	1	396
6.6.1	win	2022-12-20	01:14:08	01:30:21	972344	5c70ec7954de160001af45d8	962871913	1	main_z	11	advance_on_keypress_ZEE	116	stimuli_distractor_diamondtriangles.svg	stimuli_target_diamondcircles.svg	31	yes	57	0	227
6.6.1	win	2022-12-20	01:14:08	01:30:22	973527	5c70ec7954de160001af45d8	962871913	1	main_z	11	main_z	117	stimuli_target_circlediamonds.svg	stimuli_distractor_diamondtriangles.svg	6	yes	44	1	334
6.6.1	win	2022-12-20	01:14:08	01:30:22	973527	5c70ec7954de160001af45d8	962871913	1	main_z	11	advance_on_keypress_ZEE	118	stimuli_target_circlediamonds.svg	stimuli_distractor_diamondtriangles.svg	6	yes	57	0	211
6.6.1	win	2022-12-20	01:14:08	01:30:24	974679	5c70ec7954de160001af45d8	962871913	1	main_z	11	main_z	119	stimuli_target_circlediamonds.svg	stimuli_distractor_trianglediamonds.svg	2	yes	44	1	296
6.6.1	win	2022-12-20	01:14:08	01:30:24	974679	5c70ec7954de160001af45d8	962871913	1	main_z	11	advance_on_keypress_ZEE	120	stimuli_target_circlediamonds.svg	stimuli_distractor_trianglediamonds.svg	2	yes	57	0	246
6.6.1	win	2022-12-20	01:14:08	01:30:25	975826	5c70ec7954de160001af45d8	962871913	1	main_z	11	main_z	121	stimuli_target_trianglesquares.svg	stimuli_distractor_trianglediamonds.svg	18	yes	44	1	259
6.6.1	win	2022-12-20	01:14:08	01:30:25	975826	5c70ec7954de160001af45d8	962871913	1	main_z	11	advance_on_keypress_ZEE	122	stimuli_target_trianglesquares.svg	stimuli_distractor_trianglediamonds.svg	18	yes	57	0	272
6.6.1	win	2022-12-20	01:14:08	01:30:26	976947	5c70ec7954de160001af45d8	962871913	1	main_z	11	main_z	123	stimuli_distractor_trianglediamonds.svg	stimuli_target_trianglesquares.svg	26	yes	44	1	226
6.6.1	win	2022-12-20	01:14:08	01:30:26	976947	5c70ec7954de160001af45d8	962871913	1	main_z	11	advance_on_keypress_ZEE	124	stimuli_distractor_trianglediamonds.svg	stimuli_target_trianglesquares.svg	26	yes	57	0	262
6.6.1	win	2022-12-20	01:14:08	01:30:27	978068	5c70ec7954de160001af45d8	962871913	1	main_z	11	main_z	125	stimuli_target_squarediamonds.svg	stimuli_distractor_diamondtriangles.svg	8	yes	44	1	221
6.6.1	win	2022-12-20	01:14:08	01:30:27	978068	5c70ec7954de160001af45d8	962871913	1	main_z	11	advance_on_keypress_ZEE	126	stimuli_target_squarediamonds.svg	stimuli_distractor_diamondtriangles.svg	8	yes	57	0	222
6.6.1	win	2022-12-20	01:14:08	01:30:30	980926	5c70ec7954de160001af45d8	962871913	1	main_z	11	main_z	127	stimuli_distractor_diamondtriangles.svg	stimuli_distractor_diamondtriangles.svg	40	no	0	1	2000
6.6.1	win	2022-12-20	01:14:08	01:30:30	980926	5c70ec7954de160001af45d8	962871913	1	main_z	11	advance_on_keypress_ZEE	128	stimuli_distractor_diamondtriangles.svg	stimuli_distractor_diamondtriangles.svg	40	no	57	0	6614
6.6.1	win	2022-12-20	01:14:08	01:30:39	990169	5c70ec7954de160001af45d8	962871913	1	main_z	11	main_z	129	stimuli_distractor_diamondtriangles.svg	stimuli_distractor_trianglediamonds.svg	37	no	0	1	2000
6.6.1	win	2022-12-20	01:14:08	01:30:39	990169	5c70ec7954de160001af45d8	962871913	1	main_z	11	advance_on_keypress_ZEE	130	stimuli_distractor_diamondtriangles.svg	stimuli_distractor_trianglediamonds.svg	37	no	57	0	218
6.6.1	win	2022-12-20	01:14:08	01:30:40	991370	5c70ec7954de160001af45d8	962871913	1	main_z	11	main_z	131	stimuli_distractor_diamondtriangles.svg	stimuli_target_circlediamonds.svg	14	yes	44	1	345
6.6.1	win	2022-12-20	01:14:08	01:30:40	991370	5c70ec7954de160001af45d8	962871913	1	main_z	11	advance_on_keypress_ZEE	132	stimuli_distractor_diamondtriangles.svg	stimuli_target_circlediamonds.svg	14	yes	57	0	240
6.6.1	win	2022-12-20	01:14:08	01:30:42	992600	5c70ec7954de160001af45d8	962871913	1	main_z	11	main_z	133	stimuli_distractor_trianglediamonds.svg	stimuli_target_circlediamonds.svg	10	yes	44	1	371
6.6.1	win	2022-12-20	01:14:08	01:30:42	992600	5c70ec7954de160001af45d8	962871913	1	main_z	11	advance_on_keypress_ZEE	134	stimuli_distractor_trianglediamonds.svg	stimuli_target_circlediamonds.svg	10	yes	57	0	248
6.6.1	win	2022-12-20	01:14:08	01:30:43	993890	5c70ec7954de160001af45d8	962871913	1	main_z	11	main_z	135	stimuli_distractor_diamondtriangles.svg	stimuli_target_squaretriangles.svg	15	yes	44	1	391
6.6.1	win	2022-12-20	01:14:08	01:30:43	993890	5c70ec7954de160001af45d8	962871913	1	main_z	11	advance_on_keypress_ZEE	136	stimuli_distractor_diamondtriangles.svg	stimuli_target_squaretriangles.svg	15	yes	57	0	812
6.6.1	win	2022-12-20	01:14:08	01:30:45	995786	5c70ec7954de160001af45d8	962871913	1	main_z	11	main_z	137	stimuli_target_diamondsquares.svg	stimuli_distractor_trianglediamonds.svg	20	yes	44	1	461
6.6.1	win	2022-12-20	01:14:08	01:30:45	995786	5c70ec7954de160001af45d8	962871913	1	main_z	11	advance_on_keypress_ZEE	138	stimuli_target_diamondsquares.svg	stimuli_distractor_trianglediamonds.svg	20	yes	57	0	1220
6.6.1	win	2022-12-20	01:14:08	01:30:47	997935	5c70ec7954de160001af45d8	962871913	1	main_z	11	main_z	139	stimuli_target_squarediamonds.svg	stimuli_distractor_trianglediamonds.svg	4	yes	44	1	288
6.6.1	win	2022-12-20	01:14:08	01:30:47	997935	5c70ec7954de160001af45d8	962871913	1	main_z	11	advance_on_keypress_ZEE	140	stimuli_target_squarediamonds.svg	stimuli_distractor_trianglediamonds.svg	4	yes	57	0	912
6.6.1	win	2022-12-20	01:14:08	01:30:49	1000044	5c70ec7954de160001af45d8	962871913	1	main_z	11	main_z	141	stimuli_distractor_trianglediamonds.svg	stimuli_target_trianglecircles.svg	25	yes	44	1	554
6.6.1	win	2022-12-20	01:14:08	01:30:49	1000044	5c70ec7954de160001af45d8	962871913	1	main_z	11	advance_on_keypress_ZEE	142	stimuli_distractor_trianglediamonds.svg	stimuli_target_trianglecircles.svg	25	yes	57	0	1448
6.6.1	win	2022-12-20	01:14:08	01:30:52	1002634	5c70ec7954de160001af45d8	962871913	1	main_z	11	main_z	143	stimuli_target_diamondcircles.svg	stimuli_distractor_trianglediamonds.svg	19	yes	44	1	514
6.6.1	win	2022-12-20	01:14:08	01:30:52	1002634	5c70ec7954de160001af45d8	962871913	1	main_z	11	advance_on_keypress_ZEE	144	stimuli_target_diamondcircles.svg	stimuli_distractor_trianglediamonds.svg	19	yes	57	0	286
6.6.1	win	2022-12-20	01:14:08	01:30:53	1003949	5c70ec7954de160001af45d8	962871913	1	main_z	11	main_z	145	stimuli_distractor_trianglediamonds.svg	stimuli_target_diamondsquares.svg	28	yes	44	1	397
6.6.1	win	2022-12-20	01:14:08	01:30:53	1003949	5c70ec7954de160001af45d8	962871913	1	main_z	11	advance_on_keypress_ZEE	146	stimuli_distractor_trianglediamonds.svg	stimuli_target_diamondsquares.svg	28	yes	57	0	278
6.6.1	win	2022-12-20	01:14:08	01:30:54	1005177	5c70ec7954de160001af45d8	962871913	1	main_z	11	main_z	147	stimuli_distractor_trianglediamonds.svg	stimuli_target_squaretriangles.svg	11	yes	44	1	321
6.6.1	win	2022-12-20	01:14:08	01:30:54	1005177	5c70ec7954de160001af45d8	962871913	1	main_z	11	advance_on_keypress_ZEE	148	stimuli_distractor_trianglediamonds.svg	stimuli_target_squaretriangles.svg	11	yes	57	0	1771
6.6.1	win	2022-12-20	01:14:08	01:30:57	1007936	5c70ec7954de160001af45d8	962871913	1	main_z	11	main_z	149	stimuli_target_trianglesquares.svg	stimuli_distractor_diamondtriangles.svg	22	yes	44	1	360
6.6.1	win	2022-12-20	01:14:08	01:30:57	1007936	5c70ec7954de160001af45d8	962871913	1	main_z	11	advance_on_keypress_ZEE	150	stimuli_target_trianglesquares.svg	stimuli_distractor_diamondtriangles.svg	22	yes	57	0	2282
6.6.1	win	2022-12-20	01:14:08	01:31:00	1011100	5c70ec7954de160001af45d8	962871913	1	main_z	11	main_z	151	stimuli_target_squaretriangles.svg	stimuli_distractor_diamondtriangles.svg	7	yes	44	1	261
6.6.1	win	2022-12-20	01:14:08	01:31:00	1011100	5c70ec7954de160001af45d8	962871913	1	main_z	11	advance_on_keypress_ZEE	152	stimuli_target_squaretriangles.svg	stimuli_distractor_diamondtriangles.svg	7	yes	57	0	1353
6.6.1	win	2022-12-20	01:14:08	01:31:02	1013269	5c70ec7954de160001af45d8	962871913	1	main_z	11	main_z	153	stimuli_distractor_diamondtriangles.svg	stimuli_target_trianglecircles.svg	29	yes	44	1	197
6.6.1	win	2022-12-20	01:14:08	01:31:02	1013269	5c70ec7954de160001af45d8	962871913	1	main_z	11	advance_on_keypress_ZEE	154	stimuli_distractor_diamondtriangles.svg	stimuli_target_trianglecircles.svg	29	yes	57	0	240
6.6.1	win	2022-12-20	01:14:08	01:31:05	1016149	5c70ec7954de160001af45d8	962871913	1	main_z	11	main_z	155	stimuli_distractor_diamondtriangles.svg	stimuli_distractor_diamondtriangles.svg	39	no	0	1	2000
6.6.1	win	2022-12-20	01:14:08	01:31:05	1016149	5c70ec7954de160001af45d8	962871913	1	main_z	11	advance_on_keypress_ZEE	156	stimuli_distractor_diamondtriangles.svg	stimuli_distractor_diamondtriangles.svg	39	no	57	0	10418
6.6.1	win	2022-12-20	01:14:08	01:31:16	1027511	5c70ec7954de160001af45d8	962871913	1	main_z	11	main_z	157	stimuli_distractor_diamondtriangles.svg	stimuli_distractor_trianglediamonds.svg	38	no	44	0	298
6.6.1	win	2022-12-20	01:14:08	01:31:16	1027511	5c70ec7954de160001af45d8	962871913	1	main_z	11	advance_on_keypress_ZEE	158	stimuli_distractor_diamondtriangles.svg	stimuli_distractor_trianglediamonds.svg	38	no	57	0	359
6.6.1	win	2022-12-20	01:14:08	01:31:18	1028999	5c70ec7954de160001af45d8	962871913	1	main_z	11	main_z	159	stimuli_target_diamondcircles.svg	stimuli_distractor_diamondtriangles.svg	23	yes	44	1	491
6.6.1	win	2022-12-20	01:14:08	01:31:18	1028999	5c70ec7954de160001af45d8	962871913	1	main_z	11	advance_on_keypress_ZEE	160	stimuli_target_diamondcircles.svg	stimuli_distractor_diamondtriangles.svg	23	yes	57	0	533