build	computer.platform	date	time	timestamp	time_elapsed_ms	subject	group	session	blockcode	blocknum	trialcode	trialnum	stimulus_left	stimulus_right	stim_index	target_present	response	correct	latency
6.6.1	mac	2022-12-14	13:34:30	13:41:10	398970	5c573f18d3cc6b0001d9dbc3	878859854	1	practice_z	5	practice_z	1	stimuli_target_circlediamonds.svg	stimuli_distractor_trianglediamonds.svg	4	yes	44	1	453
6.6.1	mac	2022-12-14	13:34:30	13:41:10	398970	5c573f18d3cc6b0001d9dbc3	878859854	1	practice_z	5	advance_on_keypress_ZEE	2	stimuli_target_circlediamonds.svg	stimuli_distractor_trianglediamonds.svg	4	yes	57	0	856
6.6.1	mac	2022-12-14	13:34:30	13:41:14	402426	5c573f18d3cc6b0001d9dbc3	878859854	1	practice_z	5	practice_z	3	stimuli_distractor_trianglediamonds.svg	stimuli_target_diamondcircles.svg	12	yes	44	1	945
6.6.1	mac	2022-12-14	13:34:30	13:41:14	402426	5c573f18d3cc6b0001d9dbc3	878859854	1	practice_z	5	advance_on_keypress_ZEE	4	stimuli_distractor_trianglediamonds.svg	stimuli_target_diamondcircles.svg	12	yes	57	0	564
6.6.1	mac	2022-12-14	13:34:30	13:41:17	405724	5c573f18d3cc6b0001d9dbc3	878859854	1	practice_z	5	practice_z	5	stimuli_target_squarediamonds.svg	stimuli_distractor_trianglediamonds.svg	5	yes	44	1	1081
6.6.1	mac	2022-12-14	13:34:30	13:41:17	405724	5c573f18d3cc6b0001d9dbc3	878859854	1	practice_z	5	advance_on_keypress_ZEE	6	stimuli_target_squarediamonds.svg	stimuli_distractor_trianglediamonds.svg	5	yes	57	0	442
6.6.1	mac	2022-12-14	13:34:30	13:41:21	409816	5c573f18d3cc6b0001d9dbc3	878859854	1	practice_z	5	practice_z	7	stimuli_distractor_diamondtriangles.svg	stimuli_distractor_diamondtriangles.svg	13	no	0	1	2000
6.6.1	mac	2022-12-14	13:34:30	13:41:21	409816	5c573f18d3cc6b0001d9dbc3	878859854	1	practice_z	5	advance_on_keypress_ZEE	8	stimuli_distractor_diamondtriangles.svg	stimuli_distractor_diamondtriangles.svg	13	no	57	0	506
6.6.1	mac	2022-12-14	13:34:30	13:41:25	413959	5c573f18d3cc6b0001d9dbc3	878859854	1	practice_z	5	practice_z	9	stimuli_distractor_trianglediamonds.svg	stimuli_distractor_trianglediamonds.svg	15	no	0	1	2000
6.6.1	mac	2022-12-14	13:34:30	13:41:25	413959	5c573f18d3cc6b0001d9dbc3	878859854	1	practice_z	5	advance_on_keypress_ZEE	10	stimuli_distractor_trianglediamonds.svg	stimuli_distractor_trianglediamonds.svg	15	no	57	0	377
6.6.1	mac	2022-12-14	13:34:30	13:41:29	417999	5c573f18d3cc6b0001d9dbc3	878859854	1	practice_z	5	practice_z	11	stimuli_target_diamondsquares.svg	stimuli_distractor_trianglediamonds.svg	6	yes	0	0	2000
6.6.1	mac	2022-12-14	13:34:30	13:41:29	417999	5c573f18d3cc6b0001d9dbc3	878859854	1	practice_z	5	advance_on_keypress_ZEE	12	stimuli_target_diamondsquares.svg	stimuli_distractor_trianglediamonds.svg	6	yes	57	0	539
6.6.1	mac	2022-12-14	13:34:30	13:41:32	420714	5c573f18d3cc6b0001d9dbc3	878859854	1	practice_z	5	practice_z	13	stimuli_target_circlediamonds.svg	stimuli_distractor_diamondtriangles.svg	1	yes	44	1	514
6.6.1	mac	2022-12-14	13:34:30	13:41:32	420714	5c573f18d3cc6b0001d9dbc3	878859854	1	practice_z	5	advance_on_keypress_ZEE	14	stimuli_target_circlediamonds.svg	stimuli_distractor_diamondtriangles.svg	1	yes	57	0	441
6.6.1	mac	2022-12-14	13:34:30	13:41:36	424780	5c573f18d3cc6b0001d9dbc3	878859854	1	practice_z	5	practice_z	15	stimuli_distractor_diamondtriangles.svg	stimuli_distractor_trianglediamonds.svg	14	no	0	1	2000
6.6.1	mac	2022-12-14	13:34:30	13:41:36	424780	5c573f18d3cc6b0001d9dbc3	878859854	1	practice_z	5	advance_on_keypress_ZEE	16	stimuli_distractor_diamondtriangles.svg	stimuli_distractor_trianglediamonds.svg	14	no	57	0	480
6.6.1	mac	2022-12-14	13:34:30	13:41:39	427868	5c573f18d3cc6b0001d9dbc3	878859854	1	practice_z	5	practice_z	17	stimuli_target_diamondsquares.svg	stimuli_distractor_diamondtriangles.svg	3	yes	44	1	966
6.6.1	mac	2022-12-14	13:34:30	13:41:39	427868	5c573f18d3cc6b0001d9dbc3	878859854	1	practice_z	5	advance_on_keypress_ZEE	18	stimuli_target_diamondsquares.svg	stimuli_distractor_diamondtriangles.svg	3	yes	57	0	820
6.6.1	mac	2022-12-14	13:34:30	13:41:42	431259	5c573f18d3cc6b0001d9dbc3	878859854	1	practice_z	5	practice_z	19	stimuli_target_squarediamonds.svg	stimuli_distractor_diamondtriangles.svg	2	yes	44	1	933
6.6.1	mac	2022-12-14	13:34:30	13:41:42	431259	5c573f18d3cc6b0001d9dbc3	878859854	1	practice_z	5	advance_on_keypress_ZEE	20	stimuli_target_squarediamonds.svg	stimuli_distractor_diamondtriangles.svg	2	yes	57	0	611
6.6.1	mac	2022-12-14	13:34:30	13:41:45	434344	5c573f18d3cc6b0001d9dbc3	878859854	1	practice_z	5	practice_z	21	stimuli_distractor_diamondtriangles.svg	stimuli_target_diamondcircles.svg	8	yes	44	1	844
6.6.1	mac	2022-12-14	13:34:30	13:41:45	434344	5c573f18d3cc6b0001d9dbc3	878859854	1	practice_z	5	advance_on_keypress_ZEE	22	stimuli_distractor_diamondtriangles.svg	stimuli_target_diamondcircles.svg	8	yes	57	0	598
6.6.1	mac	2022-12-14	13:34:30	13:41:49	437540	5c573f18d3cc6b0001d9dbc3	878859854	1	practice_z	5	practice_z	23	stimuli_distractor_diamondtriangles.svg	stimuli_target_circletriangles.svg	7	yes	44	1	944
6.6.1	mac	2022-12-14	13:34:30	13:41:49	437540	5c573f18d3cc6b0001d9dbc3	878859854	1	practice_z	5	advance_on_keypress_ZEE	24	stimuli_distractor_diamondtriangles.svg	stimuli_target_circletriangles.svg	7	yes	57	0	415
6.6.1	mac	2022-12-14	13:34:30	13:41:53	441602	5c573f18d3cc6b0001d9dbc3	878859854	1	practice_z	5	practice_z	25	stimuli_distractor_trianglediamonds.svg	stimuli_distractor_diamondtriangles.svg	16	no	0	1	2000
6.6.1	mac	2022-12-14	13:34:30	13:41:53	441602	5c573f18d3cc6b0001d9dbc3	878859854	1	practice_z	5	advance_on_keypress_ZEE	26	stimuli_distractor_trianglediamonds.svg	stimuli_distractor_diamondtriangles.svg	16	no	57	0	304
6.6.1	mac	2022-12-14	13:34:30	13:41:55	444201	5c573f18d3cc6b0001d9dbc3	878859854	1	practice_z	5	practice_z	27	stimuli_distractor_trianglediamonds.svg	stimuli_target_circlediamonds.svg	10	yes	44	1	658
6.6.1	mac	2022-12-14	13:34:30	13:41:55	444201	5c573f18d3cc6b0001d9dbc3	878859854	1	practice_z	5	advance_on_keypress_ZEE	28	stimuli_distractor_trianglediamonds.svg	stimuli_target_circlediamonds.svg	10	yes	57	0	507
6.6.1	mac	2022-12-14	13:34:30	13:41:59	447944	5c573f18d3cc6b0001d9dbc3	878859854	1	practice_z	5	practice_z	29	stimuli_distractor_trianglediamonds.svg	stimuli_target_squarediamonds.svg	11	yes	44	1	1601
6.6.1	mac	2022-12-14	13:34:30	13:41:59	447944	5c573f18d3cc6b0001d9dbc3	878859854	1	practice_z	5	advance_on_keypress_ZEE	30	stimuli_distractor_trianglediamonds.svg	stimuli_target_squarediamonds.svg	11	yes	57	0	61
6.6.1	mac	2022-12-14	13:34:30	13:42:02	450694	5c573f18d3cc6b0001d9dbc3	878859854	1	practice_z	5	practice_z	31	stimuli_distractor_diamondtriangles.svg	stimuli_target_trianglecircles.svg	9	yes	44	1	1050
6.6.1	mac	2022-12-14	13:34:30	13:42:02	450694	5c573f18d3cc6b0001d9dbc3	878859854	1	practice_z	5	advance_on_keypress_ZEE	32	stimuli_distractor_diamondtriangles.svg	stimuli_target_trianglecircles.svg	9	yes	57	0	373
6.6.1	mac	2022-12-14	13:34:30	13:42:11	459451	5c573f18d3cc6b0001d9dbc3	878859854	1	main_z	7	main_z	1	stimuli_target_trianglesquares.svg	stimuli_distractor_diamondtriangles.svg	22	yes	44	1	867
6.6.1	mac	2022-12-14	13:34:30	13:42:11	459451	5c573f18d3cc6b0001d9dbc3	878859854	1	main_z	7	advance_on_keypress_ZEE	2	stimuli_target_trianglesquares.svg	stimuli_distractor_diamondtriangles.svg	22	yes	57	0	814
6.6.1	mac	2022-12-14	13:34:30	13:42:13	461758	5c573f18d3cc6b0001d9dbc3	878859854	1	main_z	7	main_z	3	stimuli_distractor_diamondtriangles.svg	stimuli_target_squaretriangles.svg	15	yes	44	1	841
6.6.1	mac	2022-12-14	13:34:30	13:42:13	461758	5c573f18d3cc6b0001d9dbc3	878859854	1	main_z	7	advance_on_keypress_ZEE	4	stimuli_distractor_diamondtriangles.svg	stimuli_target_squaretriangles.svg	15	yes	57	0	661
6.6.1	mac	2022-12-14	13:34:30	13:42:16	465048	5c573f18d3cc6b0001d9dbc3	878859854	1	main_z	7	main_z	5	stimuli_distractor_diamondtriangles.svg	stimuli_distractor_diamondtriangles.svg	40	no	0	1	2000
6.6.1	mac	2022-12-14	13:34:30	13:42:16	465048	5c573f18d3cc6b0001d9dbc3	878859854	1	main_z	7	advance_on_keypress_ZEE	6	stimuli_distractor_diamondtriangles.svg	stimuli_distractor_diamondtriangles.svg	40	no	57	0	481
6.6.1	mac	2022-12-14	13:34:30	13:42:18	466868	5c573f18d3cc6b0001d9dbc3	878859854	1	main_z	7	main_z	7	stimuli_distractor_trianglediamonds.svg	stimuli_target_trianglecircles.svg	25	yes	44	1	689
6.6.1	mac	2022-12-14	13:34:30	13:42:18	466868	5c573f18d3cc6b0001d9dbc3	878859854	1	main_z	7	advance_on_keypress_ZEE	8	stimuli_distractor_trianglediamonds.svg	stimuli_target_trianglecircles.svg	25	yes	57	0	777
6.6.1	mac	2022-12-14	13:34:30	13:42:20	468984	5c573f18d3cc6b0001d9dbc3	878859854	1	main_z	7	main_z	9	stimuli_target_squaretriangles.svg	stimuli_distractor_diamondtriangles.svg	7	yes	44	1	709
6.6.1	mac	2022-12-14	13:34:30	13:42:20	468984	5c573f18d3cc6b0001d9dbc3	878859854	1	main_z	7	advance_on_keypress_ZEE	10	stimuli_target_squaretriangles.svg	stimuli_distractor_diamondtriangles.svg	7	yes	57	0	512
6.6.1	mac	2022-12-14	13:34:30	13:42:22	470723	5c573f18d3cc6b0001d9dbc3	878859854	1	main_z	7	main_z	11	stimuli_target_circlediamonds.svg	stimuli_distractor_diamondtriangles.svg	6	yes	44	1	578
6.6.1	mac	2022-12-14	13:34:30	13:42:22	470723	5c573f18d3cc6b0001d9dbc3	878859854	1	main_z	7	advance_on_keypress_ZEE	12	stimuli_target_circlediamonds.svg	stimuli_distractor_diamondtriangles.svg	6	yes	57	0	343
6.6.1	mac	2022-12-14	13:34:30	13:42:25	473692	5c573f18d3cc6b0001d9dbc3	878859854	1	main_z	7	main_z	13	stimuli_distractor_trianglediamonds.svg	stimuli_distractor_trianglediamonds.svg	33	no	0	1	2000
6.6.1	mac	2022-12-14	13:34:30	13:42:25	473692	5c573f18d3cc6b0001d9dbc3	878859854	1	main_z	7	advance_on_keypress_ZEE	14	stimuli_distractor_trianglediamonds.svg	stimuli_distractor_trianglediamonds.svg	33	no	57	0	270
6.6.1	mac	2022-12-14	13:34:30	13:42:26	475097	5c573f18d3cc6b0001d9dbc3	878859854	1	main_z	7	main_z	15	stimuli_target_squarediamonds.svg	stimuli_distractor_diamondtriangles.svg	8	yes	44	1	507
6.6.1	mac	2022-12-14	13:34:30	13:42:26	475097	5c573f18d3cc6b0001d9dbc3	878859854	1	main_z	7	advance_on_keypress_ZEE	16	stimuli_target_squarediamonds.svg	stimuli_distractor_diamondtriangles.svg	8	yes	57	0	461
6.6.1	mac	2022-12-14	13:34:30	13:42:29	478186	5c573f18d3cc6b0001d9dbc3	878859854	1	main_z	7	main_z	17	stimuli_distractor_trianglediamonds.svg	stimuli_distractor_trianglediamonds.svg	34	no	0	1	2000
6.6.1	mac	2022-12-14	13:34:30	13:42:29	478186	5c573f18d3cc6b0001d9dbc3	878859854	1	main_z	7	advance_on_keypress_ZEE	18	stimuli_distractor_trianglediamonds.svg	stimuli_distractor_trianglediamonds.svg	34	no	57	0	125
6.6.1	mac	2022-12-14	13:34:30	13:42:31	480055	5c573f18d3cc6b0001d9dbc3	878859854	1	main_z	7	main_z	19	stimuli_distractor_trianglediamonds.svg	stimuli_target_diamondsquares.svg	28	yes	44	1	1090
6.6.1	mac	2022-12-14	13:34:30	13:42:31	480055	5c573f18d3cc6b0001d9dbc3	878859854	1	main_z	7	advance_on_keypress_ZEE	20	stimuli_distractor_trianglediamonds.svg	stimuli_target_diamondsquares.svg	28	yes	57	0	948
6.6.1	mac	2022-12-14	13:34:30	13:42:33	482299	5c573f18d3cc6b0001d9dbc3	878859854	1	main_z	7	main_z	21	stimuli_target_circletriangles.svg	stimuli_distractor_diamondtriangles.svg	5	yes	44	1	661
6.6.1	mac	2022-12-14	13:34:30	13:42:33	482299	5c573f18d3cc6b0001d9dbc3	878859854	1	main_z	7	advance_on_keypress_ZEE	22	stimuli_target_circletriangles.svg	stimuli_distractor_diamondtriangles.svg	5	yes	57	0	694
6.6.1	mac	2022-12-14	13:34:30	13:42:36	484514	5c573f18d3cc6b0001d9dbc3	878859854	1	main_z	7	main_z	23	stimuli_target_diamondcircles.svg	stimuli_distractor_trianglediamonds.svg	19	yes	44	1	892
6.6.1	mac	2022-12-14	13:34:30	13:42:36	484514	5c573f18d3cc6b0001d9dbc3	878859854	1	main_z	7	advance_on_keypress_ZEE	24	stimuli_target_diamondcircles.svg	stimuli_distractor_trianglediamonds.svg	19	yes	57	0	515
6.6.1	mac	2022-12-14	13:34:30	13:42:37	486401	5c573f18d3cc6b0001d9dbc3	878859854	1	main_z	7	main_z	25	stimuli_target_circlediamonds.svg	stimuli_distractor_trianglediamonds.svg	2	yes	44	1	726
6.6.1	mac	2022-12-14	13:34:30	13:42:37	486401	5c573f18d3cc6b0001d9dbc3	878859854	1	main_z	7	advance_on_keypress_ZEE	26	stimuli_target_circlediamonds.svg	stimuli_distractor_trianglediamonds.svg	2	yes	57	0	397
6.6.1	mac	2022-12-14	13:34:30	13:42:41	489441	5c573f18d3cc6b0001d9dbc3	878859854	1	main_z	7	main_z	27	stimuli_distractor_trianglediamonds.svg	stimuli_distractor_diamondtriangles.svg	35	no	0	1	2000
6.6.1	mac	2022-12-14	13:34:30	13:42:41	489441	5c573f18d3cc6b0001d9dbc3	878859854	1	main_z	7	advance_on_keypress_ZEE	28	stimuli_distractor_trianglediamonds.svg	stimuli_distractor_diamondtriangles.svg	35	no	57	0	230
6.6.1	mac	2022-12-14	13:34:30	13:42:42	491065	5c573f18d3cc6b0001d9dbc3	878859854	1	main_z	7	main_z	29	stimuli_target_squarediamonds.svg	stimuli_distractor_trianglediamonds.svg	4	yes	44	1	758
6.6.1	mac	2022-12-14	13:34:30	13:42:42	491065	5c573f18d3cc6b0001d9dbc3	878859854	1	main_z	7	advance_on_keypress_ZEE	30	stimuli_target_squarediamonds.svg	stimuli_distractor_trianglediamonds.svg	4	yes	57	0	544
6.6.1	mac	2022-12-14	13:34:30	13:42:44	493095	5c573f18d3cc6b0001d9dbc3	878859854	1	main_z	7	main_z	31	stimuli_distractor_diamondtriangles.svg	stimuli_target_trianglesquares.svg	30	yes	44	1	860
6.6.1	mac	2022-12-14	13:34:30	13:42:44	493095	5c573f18d3cc6b0001d9dbc3	878859854	1	main_z	7	advance_on_keypress_ZEE	32	stimuli_distractor_diamondtriangles.svg	stimuli_target_trianglesquares.svg	30	yes	57	0	269
6.6.1	mac	2022-12-14	13:34:30	13:42:46	494889	5c573f18d3cc6b0001d9dbc3	878859854	1	main_z	7	main_z	33	stimuli_target_trianglesquares.svg	stimuli_distractor_trianglediamonds.svg	18	yes	44	1	885
6.6.1	mac	2022-12-14	13:34:30	13:42:46	494889	5c573f18d3cc6b0001d9dbc3	878859854	1	main_z	7	advance_on_keypress_ZEE	34	stimuli_target_trianglesquares.svg	stimuli_distractor_trianglediamonds.svg	18	yes	57	0	305
6.6.1	mac	2022-12-14	13:34:30	13:42:48	496659	5c573f18d3cc6b0001d9dbc3	878859854	1	main_z	7	main_z	35	stimuli_target_trianglecircles.svg	stimuli_distractor_diamondtriangles.svg	21	yes	44	1	818
6.6.1	mac	2022-12-14	13:34:30	13:42:48	496659	5c573f18d3cc6b0001d9dbc3	878859854	1	main_z	7	advance_on_keypress_ZEE	36	stimuli_target_trianglecircles.svg	stimuli_distractor_diamondtriangles.svg	21	yes	57	0	331
6.6.1	mac	2022-12-14	13:34:30	13:42:49	498230	5c573f18d3cc6b0001d9dbc3	878859854	1	main_z	7	main_z	37	stimuli_distractor_diamondtriangles.svg	stimuli_target_circlediamonds.svg	14	yes	44	1	603
6.6.1	mac	2022-12-14	13:34:30	13:42:49	498230	5c573f18d3cc6b0001d9dbc3	878859854	1	main_z	7	advance_on_keypress_ZEE	38	stimuli_distractor_diamondtriangles.svg	stimuli_target_circlediamonds.svg	14	yes	57	0	353
6.6.1	mac	2022-12-14	13:34:30	13:42:51	499942	5c573f18d3cc6b0001d9dbc3	878859854	1	main_z	7	main_z	39	stimuli_target_squaretriangles.svg	stimuli_distractor_trianglediamonds.svg	3	yes	44	1	729
6.6.1	mac	2022-12-14	13:34:30	13:42:51	499942	5c573f18d3cc6b0001d9dbc3	878859854	1	main_z	7	advance_on_keypress_ZEE	40	stimuli_target_squaretriangles.svg	stimuli_distractor_trianglediamonds.svg	3	yes	57	0	295
6.6.1	mac	2022-12-14	13:34:30	13:42:53	501453	5c573f18d3cc6b0001d9dbc3	878859854	1	main_z	7	main_z	41	stimuli_distractor_diamondtriangles.svg	stimuli_target_diamondcircles.svg	31	yes	44	1	592
6.6.1	mac	2022-12-14	13:34:30	13:42:53	501453	5c573f18d3cc6b0001d9dbc3	878859854	1	main_z	7	advance_on_keypress_ZEE	42	stimuli_distractor_diamondtriangles.svg	stimuli_target_diamondcircles.svg	31	yes	57	0	273
6.6.1	mac	2022-12-14	13:34:30	13:42:55	504362	5c573f18d3cc6b0001d9dbc3	878859854	1	main_z	7	main_z	43	stimuli_distractor_trianglediamonds.svg	stimuli_distractor_diamondtriangles.svg	36	no	0	1	2000
6.6.1	mac	2022-12-14	13:34:30	13:42:55	504362	5c573f18d3cc6b0001d9dbc3	878859854	1	main_z	7	advance_on_keypress_ZEE	44	stimuli_distractor_trianglediamonds.svg	stimuli_distractor_diamondtriangles.svg	36	no	57	0	365
6.6.1	mac	2022-12-14	13:34:30	13:42:57	505928	5c573f18d3cc6b0001d9dbc3	878859854	1	main_z	7	main_z	45	stimuli_distractor_diamondtriangles.svg	stimuli_target_trianglecircles.svg	29	yes	44	1	561
6.6.1	mac	2022-12-14	13:34:30	13:42:57	505928	5c573f18d3cc6b0001d9dbc3	878859854	1	main_z	7	advance_on_keypress_ZEE	46	stimuli_distractor_diamondtriangles.svg	stimuli_target_trianglecircles.svg	29	yes	57	0	465
6.6.1	mac	2022-12-14	13:34:30	13:42:59	507998	5c573f18d3cc6b0001d9dbc3	878859854	1	main_z	7	main_z	47	stimuli_target_diamondsquares.svg	stimuli_distractor_diamondtriangles.svg	24	yes	44	1	954
6.6.1	mac	2022-12-14	13:34:30	13:42:59	507998	5c573f18d3cc6b0001d9dbc3	878859854	1	main_z	7	advance_on_keypress_ZEE	48	stimuli_target_diamondsquares.svg	stimuli_distractor_diamondtriangles.svg	24	yes	57	0	266
6.6.1	mac	2022-12-14	13:34:30	13:43:01	509600	5c573f18d3cc6b0001d9dbc3	878859854	1	main_z	7	main_z	49	stimuli_distractor_trianglediamonds.svg	stimuli_target_circletriangles.svg	9	yes	44	1	687
6.6.1	mac	2022-12-14	13:34:30	13:43:01	509600	5c573f18d3cc6b0001d9dbc3	878859854	1	main_z	7	advance_on_keypress_ZEE	50	stimuli_distractor_trianglediamonds.svg	stimuli_target_circletriangles.svg	9	yes	57	0	320
6.6.1	mac	2022-12-14	13:34:30	13:43:04	512561	5c573f18d3cc6b0001d9dbc3	878859854	1	main_z	7	main_z	51	stimuli_distractor_diamondtriangles.svg	stimuli_distractor_trianglediamonds.svg	37	no	0	1	2000
6.6.1	mac	2022-12-14	13:34:30	13:43:04	512561	5c573f18d3cc6b0001d9dbc3	878859854	1	main_z	7	advance_on_keypress_ZEE	52	stimuli_distractor_diamondtriangles.svg	stimuli_distractor_trianglediamonds.svg	37	no	57	0	230
6.6.1	mac	2022-12-14	13:34:30	13:43:05	514063	5c573f18d3cc6b0001d9dbc3	878859854	1	main_z	7	main_z	53	stimuli_distractor_trianglediamonds.svg	stimuli_target_diamondcircles.svg	27	yes	44	1	632
6.6.1	mac	2022-12-14	13:34:30	13:43:05	514063	5c573f18d3cc6b0001d9dbc3	878859854	1	main_z	7	advance_on_keypress_ZEE	54	stimuli_distractor_trianglediamonds.svg	stimuli_target_diamondcircles.svg	27	yes	57	0	14358
6.6.1	mac	2022-12-14	13:34:30	13:43:21	530215	5c573f18d3cc6b0001d9dbc3	878859854	1	main_z	7	main_z	55	stimuli_distractor_trianglediamonds.svg	stimuli_target_squaretriangles.svg	11	yes	44	1	1145
6.6.1	mac	2022-12-14	13:34:30	13:43:21	530215	5c573f18d3cc6b0001d9dbc3	878859854	1	main_z	7	advance_on_keypress_ZEE	56	stimuli_distractor_trianglediamonds.svg	stimuli_target_squaretriangles.svg	11	yes	57	0	555
6.6.1	mac	2022-12-14	13:34:30	13:43:24	533400	5c573f18d3cc6b0001d9dbc3	878859854	1	main_z	7	main_z	57	stimuli_distractor_diamondtriangles.svg	stimuli_distractor_trianglediamonds.svg	38	no	0	1	2000
6.6.1	mac	2022-12-14	13:34:30	13:43:24	533400	5c573f18d3cc6b0001d9dbc3	878859854	1	main_z	7	advance_on_keypress_ZEE	58	stimuli_distractor_diamondtriangles.svg	stimuli_distractor_trianglediamonds.svg	38	no	57	0	485
6.6.1	mac	2022-12-14	13:34:30	13:43:28	536526	5c573f18d3cc6b0001d9dbc3	878859854	1	main_z	7	main_z	59	stimuli_distractor_diamondtriangles.svg	stimuli_distractor_diamondtriangles.svg	39	no	0	1	2000
6.6.1	mac	2022-12-14	13:34:30	13:43:28	536526	5c573f18d3cc6b0001d9dbc3	878859854	1	main_z	7	advance_on_keypress_ZEE	60	stimuli_distractor_diamondtriangles.svg	stimuli_distractor_diamondtriangles.svg	39	no	57	0	254
6.6.1	mac	2022-12-14	13:34:30	13:43:29	538066	5c573f18d3cc6b0001d9dbc3	878859854	1	main_z	7	main_z	61	stimuli_distractor_trianglediamonds.svg	stimuli_target_circlediamonds.svg	10	yes	44	1	648
6.6.1	mac	2022-12-14	13:34:30	13:43:29	538066	5c573f18d3cc6b0001d9dbc3	878859854	1	main_z	7	advance_on_keypress_ZEE	62	stimuli_distractor_trianglediamonds.svg	stimuli_target_circlediamonds.svg	10	yes	57	0	410
6.6.1	mac	2022-12-14	13:34:30	13:43:31	540002	5c573f18d3cc6b0001d9dbc3	878859854	1	main_z	7	main_z	63	stimuli_target_trianglecircles.svg	stimuli_distractor_trianglediamonds.svg	17	yes	44	1	894
6.6.1	mac	2022-12-14	13:34:30	13:43:31	540002	5c573f18d3cc6b0001d9dbc3	878859854	1	main_z	7	advance_on_keypress_ZEE	64	stimuli_target_trianglecircles.svg	stimuli_distractor_trianglediamonds.svg	17	yes	57	0	351
6.6.1	mac	2022-12-14	13:34:30	13:43:33	541955	5c573f18d3cc6b0001d9dbc3	878859854	1	main_z	7	main_z	65	stimuli_distractor_diamondtriangles.svg	stimuli_target_diamondsquares.svg	32	yes	44	1	958
6.6.1	mac	2022-12-14	13:34:30	13:43:33	541955	5c573f18d3cc6b0001d9dbc3	878859854	1	main_z	7	advance_on_keypress_ZEE	66	stimuli_distractor_diamondtriangles.svg	stimuli_target_diamondsquares.svg	32	yes	57	0	461
6.6.1	mac	2022-12-14	13:34:30	13:43:35	543656	5c573f18d3cc6b0001d9dbc3	878859854	1	main_z	7	main_z	67	stimuli_target_diamondcircles.svg	stimuli_distractor_diamondtriangles.svg	23	yes	44	1	601
6.6.1	mac	2022-12-14	13:34:30	13:43:35	543656	5c573f18d3cc6b0001d9dbc3	878859854	1	main_z	7	advance_on_keypress_ZEE	68	stimuli_target_diamondcircles.svg	stimuli_distractor_diamondtriangles.svg	23	yes	57	0	373
6.6.1	mac	2022-12-14	13:34:30	13:43:36	545232	5c573f18d3cc6b0001d9dbc3	878859854	1	main_z	7	main_z	69	stimuli_distractor_diamondtriangles.svg	stimuli_target_circletriangles.svg	13	yes	44	1	560
6.6.1	mac	2022-12-14	13:34:30	13:43:36	545232	5c573f18d3cc6b0001d9dbc3	878859854	1	main_z	7	advance_on_keypress_ZEE	70	stimuli_distractor_diamondtriangles.svg	stimuli_target_circletriangles.svg	13	yes	57	0	362
6.6.1	mac	2022-12-14	13:34:30	13:43:38	547259	5c573f18d3cc6b0001d9dbc3	878859854	1	main_z	7	main_z	71	stimuli_target_diamondsquares.svg	stimuli_distractor_trianglediamonds.svg	20	yes	44	1	1036
6.6.1	mac	2022-12-14	13:34:30	13:43:38	547259	5c573f18d3cc6b0001d9dbc3	878859854	1	main_z	7	advance_on_keypress_ZEE	72	stimuli_target_diamondsquares.svg	stimuli_distractor_trianglediamonds.svg	20	yes	57	0	240
6.6.1	mac	2022-12-14	13:34:30	13:43:40	548782	5c573f18d3cc6b0001d9dbc3	878859854	1	main_z	7	main_z	73	stimuli_distractor_trianglediamonds.svg	stimuli_target_trianglesquares.svg	26	yes	44	1	652
6.6.1	mac	2022-12-14	13:34:30	13:43:40	548782	5c573f18d3cc6b0001d9dbc3	878859854	1	main_z	7	advance_on_keypress_ZEE	74	stimuli_distractor_trianglediamonds.svg	stimuli_target_trianglesquares.svg	26	yes	57	0	329
6.6.1	mac	2022-12-14	13:34:30	13:43:42	550721	5c573f18d3cc6b0001d9dbc3	878859854	1	main_z	7	main_z	75	stimuli_distractor_diamondtriangles.svg	stimuli_target_squarediamonds.svg	16	yes	44	1	972
6.6.1	mac	2022-12-14	13:34:30	13:43:42	550721	5c573f18d3cc6b0001d9dbc3	878859854	1	main_z	7	advance_on_keypress_ZEE	76	stimuli_distractor_diamondtriangles.svg	stimuli_target_squarediamonds.svg	16	yes	57	0	224
6.6.1	mac	2022-12-14	13:34:30	13:43:43	552158	5c573f18d3cc6b0001d9dbc3	878859854	1	main_z	7	main_z	77	stimuli_distractor_trianglediamonds.svg	stimuli_target_squarediamonds.svg	12	yes	44	1	589
6.6.1	mac	2022-12-14	13:34:30	13:43:43	552158	5c573f18d3cc6b0001d9dbc3	878859854	1	main_z	7	advance_on_keypress_ZEE	78	stimuli_distractor_trianglediamonds.svg	stimuli_target_squarediamonds.svg	12	yes	57	0	216
6.6.1	mac	2022-12-14	13:34:30	13:43:45	553901	5c573f18d3cc6b0001d9dbc3	878859854	1	main_z	7	main_z	79	stimuli_target_circletriangles.svg	stimuli_distractor_trianglediamonds.svg	1	yes	44	1	883
6.6.1	mac	2022-12-14	13:34:30	13:43:45	553901	5c573f18d3cc6b0001d9dbc3	878859854	1	main_z	7	advance_on_keypress_ZEE	80	stimuli_target_circletriangles.svg	stimuli_distractor_trianglediamonds.svg	1	yes	57	0	206
6.6.1	mac	2022-12-14	13:34:30	13:43:47	555504	5c573f18d3cc6b0001d9dbc3	878859854	1	main_z	7	main_z	81	stimuli_target_circlediamonds.svg	stimuli_distractor_diamondtriangles.svg	6	yes	44	1	757
6.6.1	mac	2022-12-14	13:34:30	13:43:47	555504	5c573f18d3cc6b0001d9dbc3	878859854	1	main_z	7	advance_on_keypress_ZEE	82	stimuli_target_circlediamonds.svg	stimuli_distractor_diamondtriangles.svg	6	yes	57	0	235
6.6.1	mac	2022-12-14	13:34:30	13:43:48	557155	5c573f18d3cc6b0001d9dbc3	878859854	1	main_z	7	main_z	83	stimuli_distractor_trianglediamonds.svg	stimuli_target_diamondcircles.svg	27	yes	44	1	774
6.6.1	mac	2022-12-14	13:34:30	13:43:48	557155	5c573f18d3cc6b0001d9dbc3	878859854	1	main_z	7	advance_on_keypress_ZEE	84	stimuli_distractor_trianglediamonds.svg	stimuli_target_diamondcircles.svg	27	yes	57	0	198
6.6.1	mac	2022-12-14	13:34:30	13:43:50	558624	5c573f18d3cc6b0001d9dbc3	878859854	1	main_z	7	main_z	85	stimuli_distractor_trianglediamonds.svg	stimuli_target_circlediamonds.svg	10	yes	44	1	625
6.6.1	mac	2022-12-14	13:34:30	13:43:50	558624	5c573f18d3cc6b0001d9dbc3	878859854	1	main_z	7	advance_on_keypress_ZEE	86	stimuli_distractor_trianglediamonds.svg	stimuli_target_circlediamonds.svg	10	yes	57	0	249
6.6.1	mac	2022-12-14	13:34:30	13:43:53	561513	5c573f18d3cc6b0001d9dbc3	878859854	1	main_z	7	main_z	87	stimuli_distractor_trianglediamonds.svg	stimuli_distractor_diamondtriangles.svg	35	no	0	1	2000
6.6.1	mac	2022-12-14	13:34:30	13:43:53	561513	5c573f18d3cc6b0001d9dbc3	878859854	1	main_z	7	advance_on_keypress_ZEE	88	stimuli_distractor_trianglediamonds.svg	stimuli_distractor_diamondtriangles.svg	35	no	57	0	96
6.6.1	mac	2022-12-14	13:34:30	13:43:54	562823	5c573f18d3cc6b0001d9dbc3	878859854	1	main_z	7	main_z	89	stimuli_target_circletriangles.svg	stimuli_distractor_trianglediamonds.svg	1	yes	44	1	579
6.6.1	mac	2022-12-14	13:34:30	13:43:54	562823	5c573f18d3cc6b0001d9dbc3	878859854	1	main_z	7	advance_on_keypress_ZEE	90	stimuli_target_circletriangles.svg	stimuli_distractor_trianglediamonds.svg	1	yes	57	0	305
6.6.1	mac	2022-12-14	13:34:30	13:43:57	565762	5c573f18d3cc6b0001d9dbc3	878859854	1	main_z	7	main_z	91	stimuli_distractor_diamondtriangles.svg	stimuli_distractor_diamondtriangles.svg	39	no	0	1	2000
6.6.1	mac	2022-12-14	13:34:30	13:43:57	565762	5c573f18d3cc6b0001d9dbc3	878859854	1	main_z	7	advance_on_keypress_ZEE	92	stimuli_distractor_diamondtriangles.svg	stimuli_distractor_diamondtriangles.svg	39	no	57	0	240
6.6.1	mac	2022-12-14	13:34:30	13:43:59	568217	5c573f18d3cc6b0001d9dbc3	878859854	1	main_z	7	main_z	93	stimuli_target_diamondsquares.svg	stimuli_distractor_trianglediamonds.svg	20	yes	44	1	1576
6.6.1	mac	2022-12-14	13:34:30	13:43:59	568217	5c573f18d3cc6b0001d9dbc3	878859854	1	main_z	7	advance_on_keypress_ZEE	94	stimuli_target_diamondsquares.svg	stimuli_distractor_trianglediamonds.svg	20	yes	57	0	382
6.6.1	mac	2022-12-14	13:34:30	13:44:01	569887	5c573f18d3cc6b0001d9dbc3	878859854	1	main_z	7	main_z	95	stimuli_distractor_trianglediamonds.svg	stimuli_target_diamondsquares.svg	28	yes	44	1	647
6.6.1	mac	2022-12-14	13:34:30	13:44:01	569887	5c573f18d3cc6b0001d9dbc3	878859854	1	main_z	7	advance_on_keypress_ZEE	96	stimuli_distractor_trianglediamonds.svg	stimuli_target_diamondsquares.svg	28	yes	57	0	307
6.6.1	mac	2022-12-14	13:34:30	13:44:02	571395	5c573f18d3cc6b0001d9dbc3	878859854	1	main_z	7	main_z	97	stimuli_distractor_trianglediamonds.svg	stimuli_target_trianglesquares.svg	26	yes	44	1	568
6.6.1	mac	2022-12-14	13:34:30	13:44:02	571395	5c573f18d3cc6b0001d9dbc3	878859854	1	main_z	7	advance_on_keypress_ZEE	98	stimuli_distractor_trianglediamonds.svg	stimuli_target_trianglesquares.svg	26	yes	57	0	230
6.6.1	mac	2022-12-14	13:34:30	13:44:04	572895	5c573f18d3cc6b0001d9dbc3	878859854	1	main_z	7	main_z	99	stimuli_distractor_diamondtriangles.svg	stimuli_target_trianglesquares.svg	30	yes	44	1	619
6.6.1	mac	2022-12-14	13:34:30	13:44:04	572895	5c573f18d3cc6b0001d9dbc3	878859854	1	main_z	7	advance_on_keypress_ZEE	100	stimuli_distractor_diamondtriangles.svg	stimuli_target_trianglesquares.svg	30	yes	57	0	255
6.6.1	mac	2022-12-14	13:34:30	13:44:05	574344	5c573f18d3cc6b0001d9dbc3	878859854	1	main_z	7	main_z	101	stimuli_distractor_diamondtriangles.svg	stimuli_target_diamondcircles.svg	31	yes	44	1	566
6.6.1	mac	2022-12-14	13:34:30	13:44:05	574344	5c573f18d3cc6b0001d9dbc3	878859854	1	main_z	7	advance_on_keypress_ZEE	102	stimuli_distractor_diamondtriangles.svg	stimuli_target_diamondcircles.svg	31	yes	57	0	246
6.6.1	mac	2022-12-14	13:34:30	13:44:07	575818	5c573f18d3cc6b0001d9dbc3	878859854	1	main_z	7	main_z	103	stimuli_distractor_diamondtriangles.svg	stimuli_target_circlediamonds.svg	14	yes	44	1	589
6.6.1	mac	2022-12-14	13:34:30	13:44:07	575818	5c573f18d3cc6b0001d9dbc3	878859854	1	main_z	7	advance_on_keypress_ZEE	104	stimuli_distractor_diamondtriangles.svg	stimuli_target_circlediamonds.svg	14	yes	57	0	197
6.6.1	mac	2022-12-14	13:34:30	13:44:08	577186	5c573f18d3cc6b0001d9dbc3	878859854	1	main_z	7	main_z	105	stimuli_target_squarediamonds.svg	stimuli_distractor_trianglediamonds.svg	4	yes	44	1	525
6.6.1	mac	2022-12-14	13:34:30	13:44:08	577186	5c573f18d3cc6b0001d9dbc3	878859854	1	main_z	7	advance_on_keypress_ZEE	106	stimuli_target_squarediamonds.svg	stimuli_distractor_trianglediamonds.svg	4	yes	57	0	199
6.6.1	mac	2022-12-14	13:34:30	13:44:10	578797	5c573f18d3cc6b0001d9dbc3	878859854	1	main_z	7	main_z	107	stimuli_target_trianglesquares.svg	stimuli_distractor_diamondtriangles.svg	22	yes	44	1	766
6.6.1	mac	2022-12-14	13:34:30	13:44:10	578797	5c573f18d3cc6b0001d9dbc3	878859854	1	main_z	7	advance_on_keypress_ZEE	108	stimuli_target_trianglesquares.svg	stimuli_distractor_diamondtriangles.svg	22	yes	57	0	221
6.6.1	mac	2022-12-14	13:34:30	13:44:12	580819	5c573f18d3cc6b0001d9dbc3	878859854	1	main_z	7	main_z	109	stimuli_distractor_diamondtriangles.svg	stimuli_target_trianglecircles.svg	29	yes	44	1	1170
6.6.1	mac	2022-12-14	13:34:30	13:44:12	580819	5c573f18d3cc6b0001d9dbc3	878859854	1	main_z	7	advance_on_keypress_ZEE	110	stimuli_distractor_diamondtriangles.svg	stimuli_target_trianglecircles.svg	29	yes	57	0	189
6.6.1	mac	2022-12-14	13:34:30	13:44:13	582148	5c573f18d3cc6b0001d9dbc3	878859854	1	main_z	7	main_z	111	stimuli_target_squaretriangles.svg	stimuli_distractor_trianglediamonds.svg	3	yes	44	1	508
6.6.1	mac	2022-12-14	13:34:30	13:44:13	582148	5c573f18d3cc6b0001d9dbc3	878859854	1	main_z	7	advance_on_keypress_ZEE	112	stimuli_target_squaretriangles.svg	stimuli_distractor_trianglediamonds.svg	3	yes	57	0	261
6.6.1	mac	2022-12-14	13:34:30	13:44:16	585050	5c573f18d3cc6b0001d9dbc3	878859854	1	main_z	7	main_z	113	stimuli_distractor_trianglediamonds.svg	stimuli_distractor_trianglediamonds.svg	34	no	0	1	2000
6.6.1	mac	2022-12-14	13:34:30	13:44:16	585050	5c573f18d3cc6b0001d9dbc3	878859854	1	main_z	7	advance_on_keypress_ZEE	114	stimuli_distractor_trianglediamonds.svg	stimuli_distractor_trianglediamonds.svg	34	no	57	0	37
6.6.1	mac	2022-12-14	13:34:30	13:44:17	586322	5c573f18d3cc6b0001d9dbc3	878859854	1	main_z	7	main_z	115	stimuli_target_diamondcircles.svg	stimuli_distractor_trianglediamonds.svg	19	yes	44	1	603
6.6.1	mac	2022-12-14	13:34:30	13:44:17	586322	5c573f18d3cc6b0001d9dbc3	878859854	1	main_z	7	advance_on_keypress_ZEE	116	stimuli_target_diamondcircles.svg	stimuli_distractor_trianglediamonds.svg	19	yes	57	0	260
6.6.1	mac	2022-12-14	13:34:30	13:44:19	587809	5c573f18d3cc6b0001d9dbc3	878859854	1	main_z	7	main_z	117	stimuli_target_circletriangles.svg	stimuli_distractor_diamondtriangles.svg	5	yes	44	1	604
6.6.1	mac	2022-12-14	13:34:30	13:44:19	587809	5c573f18d3cc6b0001d9dbc3	878859854	1	main_z	7	advance_on_keypress_ZEE	118	stimuli_target_circletriangles.svg	stimuli_distractor_diamondtriangles.svg	5	yes	57	0	274
6.6.1	mac	2022-12-14	13:34:30	13:44:20	589388	5c573f18d3cc6b0001d9dbc3	878859854	1	main_z	7	main_z	119	stimuli_target_diamondsquares.svg	stimuli_distractor_diamondtriangles.svg	24	yes	44	1	682
6.6.1	mac	2022-12-14	13:34:30	13:44:20	589388	5c573f18d3cc6b0001d9dbc3	878859854	1	main_z	7	advance_on_keypress_ZEE	120	stimuli_target_diamondsquares.svg	stimuli_distractor_diamondtriangles.svg	24	yes	57	0	227
6.6.1	mac	2022-12-14	13:34:30	13:44:22	590850	5c573f18d3cc6b0001d9dbc3	878859854	1	main_z	7	main_z	121	stimuli_target_squaretriangles.svg	stimuli_distractor_diamondtriangles.svg	7	yes	44	1	593
6.6.1	mac	2022-12-14	13:34:30	13:44:22	590850	5c573f18d3cc6b0001d9dbc3	878859854	1	main_z	7	advance_on_keypress_ZEE	122	stimuli_target_squaretriangles.svg	stimuli_distractor_diamondtriangles.svg	7	yes	57	0	165
6.6.1	mac	2022-12-14	13:34:30	13:44:25	593657	5c573f18d3cc6b0001d9dbc3	878859854	1	main_z	7	main_z	123	stimuli_distractor_trianglediamonds.svg	stimuli_distractor_diamondtriangles.svg	36	no	0	1	2000
6.6.1	mac	2022-12-14	13:34:30	13:44:25	593657	5c573f18d3cc6b0001d9dbc3	878859854	1	main_z	7	advance_on_keypress_ZEE	124	stimuli_distractor_trianglediamonds.svg	stimuli_distractor_diamondtriangles.svg	36	no	57	0	258
6.6.1	mac	2022-12-14	13:34:30	13:44:28	596547	5c573f18d3cc6b0001d9dbc3	878859854	1	main_z	7	main_z	125	stimuli_distractor_diamondtriangles.svg	stimuli_distractor_trianglediamonds.svg	37	no	0	1	2000
6.6.1	mac	2022-12-14	13:34:30	13:44:28	596547	5c573f18d3cc6b0001d9dbc3	878859854	1	main_z	7	advance_on_keypress_ZEE	126	stimuli_distractor_diamondtriangles.svg	stimuli_distractor_trianglediamonds.svg	37	no	57	0	192
6.6.1	mac	2022-12-14	13:34:30	13:44:29	597923	5c573f18d3cc6b0001d9dbc3	878859854	1	main_z	7	main_z	127	stimuli_distractor_trianglediamonds.svg	stimuli_target_squarediamonds.svg	12	yes	44	1	557
6.6.1	mac	2022-12-14	13:34:30	13:44:29	597923	5c573f18d3cc6b0001d9dbc3	878859854	1	main_z	7	advance_on_keypress_ZEE	128	stimuli_distractor_trianglediamonds.svg	stimuli_target_squarediamonds.svg	12	yes	57	0	273
6.6.1	mac	2022-12-14	13:34:30	13:44:31	599425	5c573f18d3cc6b0001d9dbc3	878859854	1	main_z	7	main_z	129	stimuli_distractor_trianglediamonds.svg	stimuli_target_circletriangles.svg	9	yes	44	1	602
6.6.1	mac	2022-12-14	13:34:30	13:44:31	599425	5c573f18d3cc6b0001d9dbc3	878859854	1	main_z	7	advance_on_keypress_ZEE	130	stimuli_distractor_trianglediamonds.svg	stimuli_target_circletriangles.svg	9	yes	57	0	171
6.6.1	mac	2022-12-14	13:34:30	13:44:32	600859	5c573f18d3cc6b0001d9dbc3	878859854	1	main_z	7	main_z	131	stimuli_target_trianglecircles.svg	stimuli_distractor_diamondtriangles.svg	21	yes	44	1	638
6.6.1	mac	2022-12-14	13:34:30	13:44:32	600859	5c573f18d3cc6b0001d9dbc3	878859854	1	main_z	7	advance_on_keypress_ZEE	132	stimuli_target_trianglecircles.svg	stimuli_distractor_diamondtriangles.svg	21	yes	57	0	171
6.6.1	mac	2022-12-14	13:34:30	13:44:33	602251	5c573f18d3cc6b0001d9dbc3	878859854	1	main_z	7	main_z	133	stimuli_target_diamondcircles.svg	stimuli_distractor_diamondtriangles.svg	23	yes	44	1	589
6.6.1	mac	2022-12-14	13:34:30	13:44:33	602251	5c573f18d3cc6b0001d9dbc3	878859854	1	main_z	7	advance_on_keypress_ZEE	134	stimuli_target_diamondcircles.svg	stimuli_distractor_diamondtriangles.svg	23	yes	57	0	139
6.6.1	mac	2022-12-14	13:34:30	13:44:35	603621	5c573f18d3cc6b0001d9dbc3	878859854	1	main_z	7	main_z	135	stimuli_target_trianglecircles.svg	stimuli_distractor_trianglediamonds.svg	17	yes	44	1	589
6.6.1	mac	2022-12-14	13:34:30	13:44:35	603621	5c573f18d3cc6b0001d9dbc3	878859854	1	main_z	7	advance_on_keypress_ZEE	136	stimuli_target_trianglecircles.svg	stimuli_distractor_trianglediamonds.svg	17	yes	57	0	143
6.6.1	mac	2022-12-14	13:34:30	13:44:36	605039	5c573f18d3cc6b0001d9dbc3	878859854	1	main_z	7	main_z	137	stimuli_distractor_diamondtriangles.svg	stimuli_target_squaretriangles.svg	15	yes	44	1	639
6.6.1	mac	2022-12-14	13:34:30	13:44:36	605039	5c573f18d3cc6b0001d9dbc3	878859854	1	main_z	7	advance_on_keypress_ZEE	138	stimuli_distractor_diamondtriangles.svg	stimuli_target_squaretriangles.svg	15	yes	57	0	111
6.6.1	mac	2022-12-14	13:34:30	13:44:37	606386	5c573f18d3cc6b0001d9dbc3	878859854	1	main_z	7	main_z	139	stimuli_target_squarediamonds.svg	stimuli_distractor_diamondtriangles.svg	8	yes	44	1	601
6.6.1	mac	2022-12-14	13:34:30	13:44:37	606386	5c573f18d3cc6b0001d9dbc3	878859854	1	main_z	7	advance_on_keypress_ZEE	140	stimuli_target_squarediamonds.svg	stimuli_distractor_diamondtriangles.svg	8	yes	57	0	131
6.6.1	mac	2022-12-14	13:34:30	13:44:40	609154	5c573f18d3cc6b0001d9dbc3	878859854	1	main_z	7	main_z	141	stimuli_distractor_diamondtriangles.svg	stimuli_distractor_trianglediamonds.svg	38	no	0	1	2000
6.6.1	mac	2022-12-14	13:34:30	13:44:40	609154	5c573f18d3cc6b0001d9dbc3	878859854	1	main_z	7	advance_on_keypress_ZEE	142	stimuli_distractor_diamondtriangles.svg	stimuli_distractor_trianglediamonds.svg	38	no	57	0	316
6.6.1	mac	2022-12-14	13:34:30	13:44:42	610750	5c573f18d3cc6b0001d9dbc3	878859854	1	main_z	7	main_z	143	stimuli_distractor_diamondtriangles.svg	stimuli_target_diamondsquares.svg	32	yes	44	1	647
6.6.1	mac	2022-12-14	13:34:30	13:44:42	610750	5c573f18d3cc6b0001d9dbc3	878859854	1	main_z	7	advance_on_keypress_ZEE	144	stimuli_distractor_diamondtriangles.svg	stimuli_target_diamondsquares.svg	32	yes	57	0	142
6.6.1	mac	2022-12-14	13:34:30	13:44:43	612181	5c573f18d3cc6b0001d9dbc3	878859854	1	main_z	7	main_z	145	stimuli_distractor_trianglediamonds.svg	stimuli_target_trianglecircles.svg	25	yes	44	1	648
6.6.1	mac	2022-12-14	13:34:30	13:44:43	612181	5c573f18d3cc6b0001d9dbc3	878859854	1	main_z	7	advance_on_keypress_ZEE	146	stimuli_distractor_trianglediamonds.svg	stimuli_target_trianglecircles.svg	25	yes	57	0	220
6.6.1	mac	2022-12-14	13:34:30	13:44:45	613558	5c573f18d3cc6b0001d9dbc3	878859854	1	main_z	7	main_z	147	stimuli_distractor_diamondtriangles.svg	stimuli_target_circletriangles.svg	13	yes	44	1	518
6.6.1	mac	2022-12-14	13:34:30	13:44:45	613558	5c573f18d3cc6b0001d9dbc3	878859854	1	main_z	7	advance_on_keypress_ZEE	148	stimuli_distractor_diamondtriangles.svg	stimuli_target_circletriangles.svg	13	yes	57	0	121
6.6.1	mac	2022-12-14	13:34:30	13:44:46	614814	5c573f18d3cc6b0001d9dbc3	878859854	1	main_z	7	main_z	149	stimuli_target_circlediamonds.svg	stimuli_distractor_trianglediamonds.svg	2	yes	44	1	508
6.6.1	mac	2022-12-14	13:34:30	13:44:46	614814	5c573f18d3cc6b0001d9dbc3	878859854	1	main_z	7	advance_on_keypress_ZEE	150	stimuli_target_circlediamonds.svg	stimuli_distractor_trianglediamonds.svg	2	yes	57	0	141
6.6.1	mac	2022-12-14	13:34:30	13:44:49	617590	5c573f18d3cc6b0001d9dbc3	878859854	1	main_z	7	main_z	151	stimuli_distractor_trianglediamonds.svg	stimuli_distractor_trianglediamonds.svg	33	no	0	1	2000
6.6.1	mac	2022-12-14	13:34:30	13:44:49	617590	5c573f18d3cc6b0001d9dbc3	878859854	1	main_z	7	advance_on_keypress_ZEE	152	stimuli_distractor_trianglediamonds.svg	stimuli_distractor_trianglediamonds.svg	33	no	57	0	84
6.6.1	mac	2022-12-14	13:34:30	13:44:50	618841	5c573f18d3cc6b0001d9dbc3	878859854	1	main_z	7	main_z	153	stimuli_distractor_trianglediamonds.svg	stimuli_target_squaretriangles.svg	11	yes	44	1	529
6.6.1	mac	2022-12-14	13:34:30	13:44:50	618841	5c573f18d3cc6b0001d9dbc3	878859854	1	main_z	7	advance_on_keypress_ZEE	154	stimuli_distractor_trianglediamonds.svg	stimuli_target_squaretriangles.svg	11	yes	57	0	210
6.6.1	mac	2022-12-14	13:34:30	13:44:53	621685	5c573f18d3cc6b0001d9dbc3	878859854	1	main_z	7	main_z	155	stimuli_distractor_diamondtriangles.svg	stimuli_distractor_diamondtriangles.svg	40	no	0	1	2000
6.6.1	mac	2022-12-14	13:34:30	13:44:53	621685	5c573f18d3cc6b0001d9dbc3	878859854	1	main_z	7	advance_on_keypress_ZEE	156	stimuli_distractor_diamondtriangles.svg	stimuli_distractor_diamondtriangles.svg	40	no	57	0	78
6.6.1	mac	2022-12-14	13:34:30	13:44:54	623058	5c573f18d3cc6b0001d9dbc3	878859854	1	main_z	7	main_z	157	stimuli_distractor_diamondtriangles.svg	stimuli_target_squarediamonds.svg	16	yes	44	1	653
6.6.1	mac	2022-12-14	13:34:30	13:44:54	623058	5c573f18d3cc6b0001d9dbc3	878859854	1	main_z	7	advance_on_keypress_ZEE	158	stimuli_distractor_diamondtriangles.svg	stimuli_target_squarediamonds.svg	16	yes	57	0	148
6.6.1	mac	2022-12-14	13:34:30	13:44:56	624528	5c573f18d3cc6b0001d9dbc3	878859854	1	main_z	7	main_z	159	stimuli_target_trianglesquares.svg	stimuli_distractor_trianglediamonds.svg	18	yes	44	1	682
6.6.1	mac	2022-12-14	13:34:30	13:44:56	624528	5c573f18d3cc6b0001d9dbc3	878859854	1	main_z	7	advance_on_keypress_ZEE	160	stimuli_target_trianglesquares.svg	stimuli_distractor_trianglediamonds.svg	18	yes	57	0	163
6.6.1	mac	2022-12-14	13:34:30	13:46:03	692418	5c573f18d3cc6b0001d9dbc3	878859854	1	practice_slash	9	practice_slash	1	stimuli_distractor_trianglediamonds.svg	stimuli_target_circlediamonds.svg	10	yes	53	1	502
6.6.1	mac	2022-12-14	13:34:30	13:46:03	692418	5c573f18d3cc6b0001d9dbc3	878859854	1	practice_slash	9	advance_on_keypress_SLASH	2	stimuli_distractor_trianglediamonds.svg	stimuli_target_circlediamonds.svg	10	yes	57	0	465
6.6.1	mac	2022-12-14	13:34:30	13:46:06	695105	5c573f18d3cc6b0001d9dbc3	878859854	1	practice_slash	9	practice_slash	3	stimuli_distractor_diamondtriangles.svg	stimuli_target_trianglecircles.svg	9	yes	53	1	574
6.6.1	mac	2022-12-14	13:34:30	13:46:06	695105	5c573f18d3cc6b0001d9dbc3	878859854	1	practice_slash	9	advance_on_keypress_SLASH	4	stimuli_distractor_diamondtriangles.svg	stimuli_target_trianglecircles.svg	9	yes	57	0	638
6.6.1	mac	2022-12-14	13:34:30	13:46:09	697937	5c573f18d3cc6b0001d9dbc3	878859854	1	practice_slash	9	practice_slash	5	stimuli_distractor_trianglediamonds.svg	stimuli_target_squarediamonds.svg	11	yes	53	1	550
6.6.1	mac	2022-12-14	13:34:30	13:46:09	697937	5c573f18d3cc6b0001d9dbc3	878859854	1	practice_slash	9	advance_on_keypress_SLASH	6	stimuli_distractor_trianglediamonds.svg	stimuli_target_squarediamonds.svg	11	yes	57	0	266
6.6.1	mac	2022-12-14	13:34:30	13:46:13	701844	5c573f18d3cc6b0001d9dbc3	878859854	1	practice_slash	9	practice_slash	7	stimuli_distractor_trianglediamonds.svg	stimuli_distractor_trianglediamonds.svg	15	no	0	1	2000
6.6.1	mac	2022-12-14	13:34:30	13:46:13	701844	5c573f18d3cc6b0001d9dbc3	878859854	1	practice_slash	9	advance_on_keypress_SLASH	8	stimuli_distractor_trianglediamonds.svg	stimuli_distractor_trianglediamonds.svg	15	no	57	0	239
6.6.1	mac	2022-12-14	13:34:30	13:46:16	704534	5c573f18d3cc6b0001d9dbc3	878859854	1	practice_slash	9	practice_slash	9	stimuli_distractor_trianglediamonds.svg	stimuli_target_diamondcircles.svg	12	yes	53	1	796
6.6.1	mac	2022-12-14	13:34:30	13:46:16	704534	5c573f18d3cc6b0001d9dbc3	878859854	1	practice_slash	9	advance_on_keypress_SLASH	10	stimuli_distractor_trianglediamonds.svg	stimuli_target_diamondcircles.svg	12	yes	57	0	659
6.6.1	mac	2022-12-14	13:34:30	13:46:20	708835	5c573f18d3cc6b0001d9dbc3	878859854	1	practice_slash	9	practice_slash	11	stimuli_distractor_diamondtriangles.svg	stimuli_distractor_trianglediamonds.svg	14	no	0	1	2000
6.6.1	mac	2022-12-14	13:34:30	13:46:20	708835	5c573f18d3cc6b0001d9dbc3	878859854	1	practice_slash	9	advance_on_keypress_SLASH	12	stimuli_distractor_diamondtriangles.svg	stimuli_distractor_trianglediamonds.svg	14	no	57	0	350
6.6.1	mac	2022-12-14	13:34:30	13:46:22	711405	5c573f18d3cc6b0001d9dbc3	878859854	1	practice_slash	9	practice_slash	13	stimuli_target_circlediamonds.svg	stimuli_distractor_trianglediamonds.svg	4	yes	53	1	571
6.6.1	mac	2022-12-14	13:34:30	13:46:22	711405	5c573f18d3cc6b0001d9dbc3	878859854	1	practice_slash	9	advance_on_keypress_SLASH	14	stimuli_target_circlediamonds.svg	stimuli_distractor_trianglediamonds.svg	4	yes	57	0	725
6.6.1	mac	2022-12-14	13:34:30	13:46:25	714286	5c573f18d3cc6b0001d9dbc3	878859854	1	practice_slash	9	practice_slash	15	stimuli_target_squarediamonds.svg	stimuli_distractor_diamondtriangles.svg	2	yes	53	1	522
6.6.1	mac	2022-12-14	13:34:30	13:46:25	714286	5c573f18d3cc6b0001d9dbc3	878859854	1	practice_slash	9	advance_on_keypress_SLASH	16	stimuli_target_squarediamonds.svg	stimuli_distractor_diamondtriangles.svg	2	yes	57	0	163
6.6.1	mac	2022-12-14	13:34:30	13:46:29	718150	5c573f18d3cc6b0001d9dbc3	878859854	1	practice_slash	9	practice_slash	17	stimuli_distractor_trianglediamonds.svg	stimuli_distractor_diamondtriangles.svg	16	no	0	1	2000
6.6.1	mac	2022-12-14	13:34:30	13:46:29	718150	5c573f18d3cc6b0001d9dbc3	878859854	1	practice_slash	9	advance_on_keypress_SLASH	18	stimuli_distractor_trianglediamonds.svg	stimuli_distractor_diamondtriangles.svg	16	no	57	0	384
6.6.1	mac	2022-12-14	13:34:30	13:46:32	720695	5c573f18d3cc6b0001d9dbc3	878859854	1	practice_slash	9	practice_slash	19	stimuli_target_circlediamonds.svg	stimuli_distractor_diamondtriangles.svg	1	yes	53	1	528
6.6.1	mac	2022-12-14	13:34:30	13:46:32	720695	5c573f18d3cc6b0001d9dbc3	878859854	1	practice_slash	9	advance_on_keypress_SLASH	20	stimuli_target_circlediamonds.svg	stimuli_distractor_diamondtriangles.svg	1	yes	57	0	336
6.6.1	mac	2022-12-14	13:34:30	13:46:34	723340	5c573f18d3cc6b0001d9dbc3	878859854	1	practice_slash	9	practice_slash	21	stimuli_target_diamondsquares.svg	stimuli_distractor_diamondtriangles.svg	3	yes	53	1	670
6.6.1	mac	2022-12-14	13:34:30	13:46:34	723340	5c573f18d3cc6b0001d9dbc3	878859854	1	practice_slash	9	advance_on_keypress_SLASH	22	stimuli_target_diamondsquares.svg	stimuli_distractor_diamondtriangles.svg	3	yes	57	0	295
6.6.1	mac	2022-12-14	13:34:30	13:46:37	725867	5c573f18d3cc6b0001d9dbc3	878859854	1	practice_slash	9	practice_slash	23	stimuli_target_squarediamonds.svg	stimuli_distractor_trianglediamonds.svg	5	yes	53	1	588
6.6.1	mac	2022-12-14	13:34:30	13:46:37	725867	5c573f18d3cc6b0001d9dbc3	878859854	1	practice_slash	9	advance_on_keypress_SLASH	24	stimuli_target_squarediamonds.svg	stimuli_distractor_trianglediamonds.svg	5	yes	57	0	399
6.6.1	mac	2022-12-14	13:34:30	13:46:40	728607	5c573f18d3cc6b0001d9dbc3	878859854	1	practice_slash	9	practice_slash	25	stimuli_target_diamondsquares.svg	stimuli_distractor_trianglediamonds.svg	6	yes	53	1	701
6.6.1	mac	2022-12-14	13:34:30	13:46:40	728607	5c573f18d3cc6b0001d9dbc3	878859854	1	practice_slash	9	advance_on_keypress_SLASH	26	stimuli_target_diamondsquares.svg	stimuli_distractor_trianglediamonds.svg	6	yes	57	0	205
6.6.1	mac	2022-12-14	13:34:30	13:46:42	731168	5c573f18d3cc6b0001d9dbc3	878859854	1	practice_slash	9	practice_slash	27	stimuli_distractor_diamondtriangles.svg	stimuli_target_circletriangles.svg	7	yes	53	1	707
6.6.1	mac	2022-12-14	13:34:30	13:46:42	731168	5c573f18d3cc6b0001d9dbc3	878859854	1	practice_slash	9	advance_on_keypress_SLASH	28	stimuli_distractor_diamondtriangles.svg	stimuli_target_circletriangles.svg	7	yes	57	0	452
6.6.1	mac	2022-12-14	13:34:30	13:46:46	735260	5c573f18d3cc6b0001d9dbc3	878859854	1	practice_slash	9	practice_slash	29	stimuli_distractor_diamondtriangles.svg	stimuli_distractor_diamondtriangles.svg	13	no	0	1	2000
6.6.1	mac	2022-12-14	13:34:30	13:46:46	735260	5c573f18d3cc6b0001d9dbc3	878859854	1	practice_slash	9	advance_on_keypress_SLASH	30	stimuli_distractor_diamondtriangles.svg	stimuli_distractor_diamondtriangles.svg	13	no	57	0	630
6.6.1	mac	2022-12-14	13:34:30	13:46:49	738090	5c573f18d3cc6b0001d9dbc3	878859854	1	practice_slash	9	practice_slash	31	stimuli_distractor_diamondtriangles.svg	stimuli_target_diamondcircles.svg	8	yes	53	1	551
6.6.1	mac	2022-12-14	13:34:30	13:46:49	738090	5c573f18d3cc6b0001d9dbc3	878859854	1	practice_slash	9	advance_on_keypress_SLASH	32	stimuli_distractor_diamondtriangles.svg	stimuli_target_diamondcircles.svg	8	yes	57	0	323
6.6.1	mac	2022-12-14	13:34:30	13:47:12	761139	5c573f18d3cc6b0001d9dbc3	878859854	1	main_slash	11	main_slash	1	stimuli_distractor_trianglediamonds.svg	stimuli_target_squaretriangles.svg	11	yes	53	1	601
6.6.1	mac	2022-12-14	13:34:30	13:47:12	761139	5c573f18d3cc6b0001d9dbc3	878859854	1	main_slash	11	advance_on_keypress_SLASH	2	stimuli_distractor_trianglediamonds.svg	stimuli_target_squaretriangles.svg	11	yes	57	0	704
6.6.1	mac	2022-12-14	13:34:30	13:47:14	763282	5c573f18d3cc6b0001d9dbc3	878859854	1	main_slash	11	main_slash	3	stimuli_distractor_diamondtriangles.svg	stimuli_target_circletriangles.svg	13	yes	53	1	806
6.6.1	mac	2022-12-14	13:34:30	13:47:14	763282	5c573f18d3cc6b0001d9dbc3	878859854	1	main_slash	11	advance_on_keypress_SLASH	4	stimuli_distractor_diamondtriangles.svg	stimuli_target_circletriangles.svg	13	yes	57	0	552
6.6.1	mac	2022-12-14	13:34:30	13:47:16	765345	5c573f18d3cc6b0001d9dbc3	878859854	1	main_slash	11	main_slash	5	stimuli_target_squaretriangles.svg	stimuli_distractor_diamondtriangles.svg	7	yes	53	1	875
6.6.1	mac	2022-12-14	13:34:30	13:47:16	765345	5c573f18d3cc6b0001d9dbc3	878859854	1	main_slash	11	advance_on_keypress_SLASH	6	stimuli_target_squaretriangles.svg	stimuli_distractor_diamondtriangles.svg	7	yes	57	0	356
6.6.1	mac	2022-12-14	13:34:30	13:47:19	768338	5c573f18d3cc6b0001d9dbc3	878859854	1	main_slash	11	main_slash	7	stimuli_distractor_diamondtriangles.svg	stimuli_distractor_diamondtriangles.svg	40	no	0	1	2000
6.6.1	mac	2022-12-14	13:34:30	13:47:19	768338	5c573f18d3cc6b0001d9dbc3	878859854	1	main_slash	11	advance_on_keypress_SLASH	8	stimuli_distractor_diamondtriangles.svg	stimuli_distractor_diamondtriangles.svg	40	no	57	0	213
6.6.1	mac	2022-12-14	13:34:30	13:47:21	769744	5c573f18d3cc6b0001d9dbc3	878859854	1	main_slash	11	main_slash	9	stimuli_target_squarediamonds.svg	stimuli_distractor_diamondtriangles.svg	8	yes	53	1	559
6.6.1	mac	2022-12-14	13:34:30	13:47:21	769744	5c573f18d3cc6b0001d9dbc3	878859854	1	main_slash	11	advance_on_keypress_SLASH	10	stimuli_target_squarediamonds.svg	stimuli_distractor_diamondtriangles.svg	8	yes	57	0	259
6.6.1	mac	2022-12-14	13:34:30	13:47:22	771346	5c573f18d3cc6b0001d9dbc3	878859854	1	main_slash	11	main_slash	11	stimuli_target_trianglecircles.svg	stimuli_distractor_trianglediamonds.svg	17	yes	53	1	712
6.6.1	mac	2022-12-14	13:34:30	13:47:22	771346	5c573f18d3cc6b0001d9dbc3	878859854	1	main_slash	11	advance_on_keypress_SLASH	12	stimuli_target_trianglecircles.svg	stimuli_distractor_trianglediamonds.svg	17	yes	57	0	291
6.6.1	mac	2022-12-14	13:34:30	13:47:25	774273	5c573f18d3cc6b0001d9dbc3	878859854	1	main_slash	11	main_slash	13	stimuli_target_diamondsquares.svg	stimuli_distractor_trianglediamonds.svg	20	yes	0	0	2000
6.6.1	mac	2022-12-14	13:34:30	13:47:25	774273	5c573f18d3cc6b0001d9dbc3	878859854	1	main_slash	11	advance_on_keypress_SLASH	14	stimuli_target_diamondsquares.svg	stimuli_distractor_trianglediamonds.svg	20	yes	57	0	250
6.6.1	mac	2022-12-14	13:34:30	13:47:27	775736	5c573f18d3cc6b0001d9dbc3	878859854	1	main_slash	11	main_slash	15	stimuli_distractor_diamondtriangles.svg	stimuli_target_trianglecircles.svg	29	yes	53	1	576
6.6.1	mac	2022-12-14	13:34:30	13:47:27	775736	5c573f18d3cc6b0001d9dbc3	878859854	1	main_slash	11	advance_on_keypress_SLASH	16	stimuli_distractor_diamondtriangles.svg	stimuli_target_trianglecircles.svg	29	yes	57	0	266
6.6.1	mac	2022-12-14	13:34:30	13:47:28	777324	5c573f18d3cc6b0001d9dbc3	878859854	1	main_slash	11	main_slash	17	stimuli_target_diamondcircles.svg	stimuli_distractor_diamondtriangles.svg	23	yes	53	1	680
6.6.1	mac	2022-12-14	13:34:30	13:47:28	777324	5c573f18d3cc6b0001d9dbc3	878859854	1	main_slash	11	advance_on_keypress_SLASH	18	stimuli_target_diamondcircles.svg	stimuli_distractor_diamondtriangles.svg	23	yes	57	0	324
6.6.1	mac	2022-12-14	13:34:30	13:47:30	778848	5c573f18d3cc6b0001d9dbc3	878859854	1	main_slash	11	main_slash	19	stimuli_distractor_trianglediamonds.svg	stimuli_target_diamondcircles.svg	27	yes	53	1	566
6.6.1	mac	2022-12-14	13:34:30	13:47:30	778848	5c573f18d3cc6b0001d9dbc3	878859854	1	main_slash	11	advance_on_keypress_SLASH	20	stimuli_distractor_trianglediamonds.svg	stimuli_target_diamondcircles.svg	27	yes	57	0	336
6.6.1	mac	2022-12-14	13:34:30	13:47:33	781817	5c573f18d3cc6b0001d9dbc3	878859854	1	main_slash	11	main_slash	21	stimuli_distractor_trianglediamonds.svg	stimuli_distractor_trianglediamonds.svg	34	no	0	1	2000
6.6.1	mac	2022-12-14	13:34:30	13:47:33	781817	5c573f18d3cc6b0001d9dbc3	878859854	1	main_slash	11	advance_on_keypress_SLASH	22	stimuli_distractor_trianglediamonds.svg	stimuli_distractor_trianglediamonds.svg	34	no	57	0	359
6.6.1	mac	2022-12-14	13:34:30	13:47:34	783314	5c573f18d3cc6b0001d9dbc3	878859854	1	main_slash	11	main_slash	23	stimuli_distractor_trianglediamonds.svg	stimuli_target_squarediamonds.svg	12	yes	53	1	508
6.6.1	mac	2022-12-14	13:34:30	13:47:34	783314	5c573f18d3cc6b0001d9dbc3	878859854	1	main_slash	11	advance_on_keypress_SLASH	24	stimuli_distractor_trianglediamonds.svg	stimuli_target_squarediamonds.svg	12	yes	57	0	407
6.6.1	mac	2022-12-14	13:34:30	13:47:36	784885	5c573f18d3cc6b0001d9dbc3	878859854	1	main_slash	11	main_slash	25	stimuli_distractor_diamondtriangles.svg	stimuli_target_squarediamonds.svg	16	yes	53	1	529
6.6.1	mac	2022-12-14	13:34:30	13:47:36	784885	5c573f18d3cc6b0001d9dbc3	878859854	1	main_slash	11	advance_on_keypress_SLASH	26	stimuli_distractor_diamondtriangles.svg	stimuli_target_squarediamonds.svg	16	yes	57	0	278
6.6.1	mac	2022-12-14	13:34:30	13:47:38	786500	5c573f18d3cc6b0001d9dbc3	878859854	1	main_slash	11	main_slash	27	stimuli_target_trianglecircles.svg	stimuli_distractor_diamondtriangles.svg	21	yes	53	1	692
6.6.1	mac	2022-12-14	13:34:30	13:47:38	786500	5c573f18d3cc6b0001d9dbc3	878859854	1	main_slash	11	advance_on_keypress_SLASH	28	stimuli_target_trianglecircles.svg	stimuli_distractor_diamondtriangles.svg	21	yes	57	0	161
6.6.1	mac	2022-12-14	13:34:30	13:47:39	788018	5c573f18d3cc6b0001d9dbc3	878859854	1	main_slash	11	main_slash	29	stimuli_target_trianglesquares.svg	stimuli_distractor_diamondtriangles.svg	22	yes	53	1	709
6.6.1	mac	2022-12-14	13:34:30	13:47:39	788018	5c573f18d3cc6b0001d9dbc3	878859854	1	main_slash	11	advance_on_keypress_SLASH	30	stimuli_target_trianglesquares.svg	stimuli_distractor_diamondtriangles.svg	22	yes	57	0	197
6.6.1	mac	2022-12-14	13:34:30	13:47:42	790859	5c573f18d3cc6b0001d9dbc3	878859854	1	main_slash	11	main_slash	31	stimuli_distractor_trianglediamonds.svg	stimuli_distractor_diamondtriangles.svg	36	no	0	1	2000
6.6.1	mac	2022-12-14	13:34:30	13:47:42	790859	5c573f18d3cc6b0001d9dbc3	878859854	1	main_slash	11	advance_on_keypress_SLASH	32	stimuli_distractor_trianglediamonds.svg	stimuli_distractor_diamondtriangles.svg	36	no	57	0	183
6.6.1	mac	2022-12-14	13:34:30	13:47:43	792129	5c573f18d3cc6b0001d9dbc3	878859854	1	main_slash	11	main_slash	33	stimuli_distractor_diamondtriangles.svg	stimuli_target_circlediamonds.svg	14	yes	53	1	449
6.6.1	mac	2022-12-14	13:34:30	13:47:43	792129	5c573f18d3cc6b0001d9dbc3	878859854	1	main_slash	11	advance_on_keypress_SLASH	34	stimuli_distractor_diamondtriangles.svg	stimuli_target_circlediamonds.svg	14	yes	57	0	300
6.6.1	mac	2022-12-14	13:34:30	13:47:45	793689	5c573f18d3cc6b0001d9dbc3	878859854	1	main_slash	11	main_slash	35	stimuli_distractor_diamondtriangles.svg	stimuli_target_squaretriangles.svg	15	yes	53	1	619
6.6.1	mac	2022-12-14	13:34:30	13:47:45	793689	5c573f18d3cc6b0001d9dbc3	878859854	1	main_slash	11	advance_on_keypress_SLASH	36	stimuli_distractor_diamondtriangles.svg	stimuli_target_squaretriangles.svg	15	yes	57	0	317
6.6.1	mac	2022-12-14	13:34:30	13:47:46	795220	5c573f18d3cc6b0001d9dbc3	878859854	1	main_slash	11	main_slash	37	stimuli_target_squaretriangles.svg	stimuli_distractor_trianglediamonds.svg	3	yes	53	1	582
6.6.1	mac	2022-12-14	13:34:30	13:47:46	795220	5c573f18d3cc6b0001d9dbc3	878859854	1	main_slash	11	advance_on_keypress_SLASH	38	stimuli_target_squaretriangles.svg	stimuli_distractor_trianglediamonds.svg	3	yes	57	0	285
6.6.1	mac	2022-12-14	13:34:30	13:47:48	796729	5c573f18d3cc6b0001d9dbc3	878859854	1	main_slash	11	main_slash	39	stimuli_target_circlediamonds.svg	stimuli_distractor_diamondtriangles.svg	6	yes	53	1	590
6.6.1	mac	2022-12-14	13:34:30	13:47:48	796729	5c573f18d3cc6b0001d9dbc3	878859854	1	main_slash	11	advance_on_keypress_SLASH	40	stimuli_target_circlediamonds.svg	stimuli_distractor_diamondtriangles.svg	6	yes	57	0	328
6.6.1	mac	2022-12-14	13:34:30	13:47:49	798309	5c573f18d3cc6b0001d9dbc3	878859854	1	main_slash	11	main_slash	41	stimuli_target_circletriangles.svg	stimuli_distractor_trianglediamonds.svg	1	yes	53	1	597
6.6.1	mac	2022-12-14	13:34:30	13:47:49	798309	5c573f18d3cc6b0001d9dbc3	878859854	1	main_slash	11	advance_on_keypress_SLASH	42	stimuli_target_circletriangles.svg	stimuli_distractor_trianglediamonds.svg	1	yes	57	0	302
6.6.1	mac	2022-12-14	13:34:30	13:47:51	800133	5c573f18d3cc6b0001d9dbc3	878859854	1	main_slash	11	main_slash	43	stimuli_distractor_trianglediamonds.svg	stimuli_target_diamondsquares.svg	28	yes	53	1	885
6.6.1	mac	2022-12-14	13:34:30	13:47:51	800133	5c573f18d3cc6b0001d9dbc3	878859854	1	main_slash	11	advance_on_keypress_SLASH	44	stimuli_distractor_trianglediamonds.svg	stimuli_target_diamondsquares.svg	28	yes	57	0	331
6.6.1	mac	2022-12-14	13:34:30	13:47:54	803099	5c573f18d3cc6b0001d9dbc3	878859854	1	main_slash	11	main_slash	45	stimuli_distractor_trianglediamonds.svg	stimuli_distractor_diamondtriangles.svg	35	no	0	1	2000
6.6.1	mac	2022-12-14	13:34:30	13:47:54	803099	5c573f18d3cc6b0001d9dbc3	878859854	1	main_slash	11	advance_on_keypress_SLASH	46	stimuli_distractor_trianglediamonds.svg	stimuli_distractor_diamondtriangles.svg	35	no	57	0	769
6.6.1	mac	2022-12-14	13:34:30	13:47:56	804996	5c573f18d3cc6b0001d9dbc3	878859854	1	main_slash	11	main_slash	47	stimuli_target_circletriangles.svg	stimuli_distractor_diamondtriangles.svg	5	yes	53	1	462
6.6.1	mac	2022-12-14	13:34:30	13:47:56	804996	5c573f18d3cc6b0001d9dbc3	878859854	1	main_slash	11	advance_on_keypress_SLASH	48	stimuli_target_circletriangles.svg	stimuli_distractor_diamondtriangles.svg	5	yes	57	0	303
6.6.1	mac	2022-12-14	13:34:30	13:47:58	806912	5c573f18d3cc6b0001d9dbc3	878859854	1	main_slash	11	main_slash	49	stimuli_distractor_diamondtriangles.svg	stimuli_target_trianglesquares.svg	30	yes	53	1	973
6.6.1	mac	2022-12-14	13:34:30	13:47:58	806912	5c573f18d3cc6b0001d9dbc3	878859854	1	main_slash	11	advance_on_keypress_SLASH	50	stimuli_distractor_diamondtriangles.svg	stimuli_target_trianglesquares.svg	30	yes	57	0	268
6.6.1	mac	2022-12-14	13:34:30	13:47:59	808416	5c573f18d3cc6b0001d9dbc3	878859854	1	main_slash	11	main_slash	51	stimuli_distractor_trianglediamonds.svg	stimuli_target_trianglesquares.svg	26	yes	53	1	602
6.6.1	mac	2022-12-14	13:34:30	13:47:59	808416	5c573f18d3cc6b0001d9dbc3	878859854	1	main_slash	11	advance_on_keypress_SLASH	52	stimuli_distractor_trianglediamonds.svg	stimuli_target_trianglesquares.svg	26	yes	57	0	227
6.6.1	mac	2022-12-14	13:34:30	13:48:02	810812	5c573f18d3cc6b0001d9dbc3	878859854	1	main_slash	11	main_slash	53	stimuli_distractor_diamondtriangles.svg	stimuli_distractor_trianglediamonds.svg	38	no	53	0	1534
6.6.1	mac	2022-12-14	13:34:30	13:48:02	810812	5c573f18d3cc6b0001d9dbc3	878859854	1	main_slash	11	advance_on_keypress_SLASH	54	stimuli_distractor_diamondtriangles.svg	stimuli_distractor_trianglediamonds.svg	38	no	57	0	173
6.6.1	mac	2022-12-14	13:34:30	13:48:05	813607	5c573f18d3cc6b0001d9dbc3	878859854	1	main_slash	11	main_slash	55	stimuli_distractor_diamondtriangles.svg	stimuli_distractor_diamondtriangles.svg	39	no	0	1	2000
6.6.1	mac	2022-12-14	13:34:30	13:48:05	813607	5c573f18d3cc6b0001d9dbc3	878859854	1	main_slash	11	advance_on_keypress_SLASH	56	stimuli_distractor_diamondtriangles.svg	stimuli_distractor_diamondtriangles.svg	39	no	57	0	267
6.6.1	mac	2022-12-14	13:34:30	13:48:06	815160	5c573f18d3cc6b0001d9dbc3	878859854	1	main_slash	11	main_slash	57	stimuli_target_squarediamonds.svg	stimuli_distractor_trianglediamonds.svg	4	yes	53	1	653
6.6.1	mac	2022-12-14	13:34:30	13:48:06	815160	5c573f18d3cc6b0001d9dbc3	878859854	1	main_slash	11	advance_on_keypress_SLASH	58	stimuli_target_squarediamonds.svg	stimuli_distractor_trianglediamonds.svg	4	yes	57	0	275
6.6.1	mac	2022-12-14	13:34:30	13:48:08	816695	5c573f18d3cc6b0001d9dbc3	878859854	1	main_slash	11	main_slash	59	stimuli_target_trianglesquares.svg	stimuli_distractor_trianglediamonds.svg	18	yes	53	1	634
6.6.1	mac	2022-12-14	13:34:30	13:48:08	816695	5c573f18d3cc6b0001d9dbc3	878859854	1	main_slash	11	advance_on_keypress_SLASH	60	stimuli_target_trianglesquares.svg	stimuli_distractor_trianglediamonds.svg	18	yes	57	0	244
6.6.1	mac	2022-12-14	13:34:30	13:48:09	818228	5c573f18d3cc6b0001d9dbc3	878859854	1	main_slash	11	main_slash	61	stimuli_target_diamondcircles.svg	stimuli_distractor_trianglediamonds.svg	19	yes	53	1	646
6.6.1	mac	2022-12-14	13:34:30	13:48:09	818228	5c573f18d3cc6b0001d9dbc3	878859854	1	main_slash	11	advance_on_keypress_SLASH	62	stimuli_target_diamondcircles.svg	stimuli_distractor_trianglediamonds.svg	19	yes	57	0	182
6.6.1	mac	2022-12-14	13:34:30	13:48:11	819636	5c573f18d3cc6b0001d9dbc3	878859854	1	main_slash	11	main_slash	63	stimuli_distractor_trianglediamonds.svg	stimuli_target_trianglecircles.svg	25	yes	53	1	585
6.6.1	mac	2022-12-14	13:34:30	13:48:11	819636	5c573f18d3cc6b0001d9dbc3	878859854	1	main_slash	11	advance_on_keypress_SLASH	64	stimuli_distractor_trianglediamonds.svg	stimuli_target_trianglecircles.svg	25	yes	57	0	268
6.6.1	mac	2022-12-14	13:34:30	13:48:14	822551	5c573f18d3cc6b0001d9dbc3	878859854	1	main_slash	11	main_slash	65	stimuli_distractor_trianglediamonds.svg	stimuli_distractor_trianglediamonds.svg	33	no	0	1	2000
6.6.1	mac	2022-12-14	13:34:30	13:48:14	822551	5c573f18d3cc6b0001d9dbc3	878859854	1	main_slash	11	advance_on_keypress_SLASH	66	stimuli_distractor_trianglediamonds.svg	stimuli_distractor_trianglediamonds.svg	33	no	57	0	47
6.6.1	mac	2022-12-14	13:34:30	13:48:15	824240	5c573f18d3cc6b0001d9dbc3	878859854	1	main_slash	11	main_slash	67	stimuli_distractor_diamondtriangles.svg	stimuli_target_diamondcircles.svg	31	yes	53	1	994
6.6.1	mac	2022-12-14	13:34:30	13:48:15	824240	5c573f18d3cc6b0001d9dbc3	878859854	1	main_slash	11	advance_on_keypress_SLASH	68	stimuli_distractor_diamondtriangles.svg	stimuli_target_diamondcircles.svg	31	yes	57	0	230
6.6.1	mac	2022-12-14	13:34:30	13:48:18	826660	5c573f18d3cc6b0001d9dbc3	878859854	1	main_slash	11	main_slash	69	stimuli_target_diamondsquares.svg	stimuli_distractor_diamondtriangles.svg	24	yes	53	1	1543
6.6.1	mac	2022-12-14	13:34:30	13:48:18	826660	5c573f18d3cc6b0001d9dbc3	878859854	1	main_slash	11	advance_on_keypress_SLASH	70	stimuli_target_diamondsquares.svg	stimuli_distractor_diamondtriangles.svg	24	yes	57	0	190
6.6.1	mac	2022-12-14	13:34:30	13:48:19	828164	5c573f18d3cc6b0001d9dbc3	878859854	1	main_slash	11	main_slash	71	stimuli_distractor_trianglediamonds.svg	stimuli_target_circletriangles.svg	9	yes	53	1	671
6.6.1	mac	2022-12-14	13:34:30	13:48:19	828164	5c573f18d3cc6b0001d9dbc3	878859854	1	main_slash	11	advance_on_keypress_SLASH	72	stimuli_distractor_trianglediamonds.svg	stimuli_target_circletriangles.svg	9	yes	57	0	213
6.6.1	mac	2022-12-14	13:34:30	13:48:21	829659	5c573f18d3cc6b0001d9dbc3	878859854	1	main_slash	11	main_slash	73	stimuli_distractor_trianglediamonds.svg	stimuli_target_circlediamonds.svg	10	yes	53	1	641
6.6.1	mac	2022-12-14	13:34:30	13:48:21	829659	5c573f18d3cc6b0001d9dbc3	878859854	1	main_slash	11	advance_on_keypress_SLASH	74	stimuli_distractor_trianglediamonds.svg	stimuli_target_circlediamonds.svg	10	yes	57	0	227
6.6.1	mac	2022-12-14	13:34:30	13:48:22	831227	5c573f18d3cc6b0001d9dbc3	878859854	1	main_slash	11	main_slash	75	stimuli_target_circlediamonds.svg	stimuli_distractor_trianglediamonds.svg	2	yes	53	1	702
6.6.1	mac	2022-12-14	13:34:30	13:48:22	831227	5c573f18d3cc6b0001d9dbc3	878859854	1	main_slash	11	advance_on_keypress_SLASH	76	stimuli_target_circlediamonds.svg	stimuli_distractor_trianglediamonds.svg	2	yes	57	0	196
6.6.1	mac	2022-12-14	13:34:30	13:48:24	832674	5c573f18d3cc6b0001d9dbc3	878859854	1	main_slash	11	main_slash	77	stimuli_distractor_diamondtriangles.svg	stimuli_target_diamondsquares.svg	32	yes	53	1	601
6.6.1	mac	2022-12-14	13:34:30	13:48:24	832674	5c573f18d3cc6b0001d9dbc3	878859854	1	main_slash	11	advance_on_keypress_SLASH	78	stimuli_distractor_diamondtriangles.svg	stimuli_target_diamondsquares.svg	32	yes	57	0	206
6.6.1	mac	2022-12-14	13:34:30	13:48:27	835503	5c573f18d3cc6b0001d9dbc3	878859854	1	main_slash	11	main_slash	79	stimuli_distractor_diamondtriangles.svg	stimuli_distractor_trianglediamonds.svg	37	no	0	1	2000
6.6.1	mac	2022-12-14	13:34:30	13:48:27	835503	5c573f18d3cc6b0001d9dbc3	878859854	1	main_slash	11	advance_on_keypress_SLASH	80	stimuli_distractor_diamondtriangles.svg	stimuli_distractor_trianglediamonds.svg	37	no	57	0	468
6.6.1	mac	2022-12-14	13:34:30	13:48:28	837208	5c573f18d3cc6b0001d9dbc3	878859854	1	main_slash	11	main_slash	81	stimuli_distractor_trianglediamonds.svg	stimuli_target_squaretriangles.svg	11	yes	53	1	592
6.6.1	mac	2022-12-14	13:34:30	13:48:28	837208	5c573f18d3cc6b0001d9dbc3	878859854	1	main_slash	11	advance_on_keypress_SLASH	82	stimuli_distractor_trianglediamonds.svg	stimuli_target_squaretriangles.svg	11	yes	57	0	151
6.6.1	mac	2022-12-14	13:34:30	13:48:30	838698	5c573f18d3cc6b0001d9dbc3	878859854	1	main_slash	11	main_slash	83	stimuli_target_trianglesquares.svg	stimuli_distractor_diamondtriangles.svg	22	yes	53	1	702
6.6.1	mac	2022-12-14	13:34:30	13:48:30	838698	5c573f18d3cc6b0001d9dbc3	878859854	1	main_slash	11	advance_on_keypress_SLASH	84	stimuli_target_trianglesquares.svg	stimuli_distractor_diamondtriangles.svg	22	yes	57	0	150
6.6.1	mac	2022-12-14	13:34:30	13:48:31	840059	5c573f18d3cc6b0001d9dbc3	878859854	1	main_slash	11	main_slash	85	stimuli_distractor_trianglediamonds.svg	stimuli_target_trianglecircles.svg	25	yes	53	1	575
6.6.1	mac	2022-12-14	13:34:30	13:48:31	840059	5c573f18d3cc6b0001d9dbc3	878859854	1	main_slash	11	advance_on_keypress_SLASH	86	stimuli_distractor_trianglediamonds.svg	stimuli_target_trianglecircles.svg	25	yes	57	0	155
6.6.1	mac	2022-12-14	13:34:30	13:48:33	841521	5c573f18d3cc6b0001d9dbc3	878859854	1	main_slash	11	main_slash	87	stimuli_target_diamondsquares.svg	stimuli_distractor_diamondtriangles.svg	24	yes	53	1	668
6.6.1	mac	2022-12-14	13:34:30	13:48:33	841521	5c573f18d3cc6b0001d9dbc3	878859854	1	main_slash	11	advance_on_keypress_SLASH	88	stimuli_target_diamondsquares.svg	stimuli_distractor_diamondtriangles.svg	24	yes	57	0	182
6.6.1	mac	2022-12-14	13:34:30	13:48:34	842926	5c573f18d3cc6b0001d9dbc3	878859854	1	main_slash	11	main_slash	89	stimuli_distractor_diamondtriangles.svg	stimuli_target_squaretriangles.svg	15	yes	53	1	581
6.6.1	mac	2022-12-14	13:34:30	13:48:34	842926	5c573f18d3cc6b0001d9dbc3	878859854	1	main_slash	11	advance_on_keypress_SLASH	90	stimuli_distractor_diamondtriangles.svg	stimuli_target_squaretriangles.svg	15	yes	57	0	140
6.6.1	mac	2022-12-14	13:34:30	13:48:35	844362	5c573f18d3cc6b0001d9dbc3	878859854	1	main_slash	11	main_slash	91	stimuli_target_trianglecircles.svg	stimuli_distractor_diamondtriangles.svg	21	yes	53	1	666
6.6.1	mac	2022-12-14	13:34:30	13:48:35	844362	5c573f18d3cc6b0001d9dbc3	878859854	1	main_slash	11	advance_on_keypress_SLASH	92	stimuli_target_trianglecircles.svg	stimuli_distractor_diamondtriangles.svg	21	yes	57	0	160
6.6.1	mac	2022-12-14	13:34:30	13:48:37	845870	5c573f18d3cc6b0001d9dbc3	878859854	1	main_slash	11	main_slash	93	stimuli_distractor_diamondtriangles.svg	stimuli_target_squarediamonds.svg	16	yes	53	1	717
6.6.1	mac	2022-12-14	13:34:30	13:48:37	845870	5c573f18d3cc6b0001d9dbc3	878859854	1	main_slash	11	advance_on_keypress_SLASH	94	stimuli_distractor_diamondtriangles.svg	stimuli_target_squarediamonds.svg	16	yes	57	0	171
6.6.1	mac	2022-12-14	13:34:30	13:48:39	847469	5c573f18d3cc6b0001d9dbc3	878859854	1	main_slash	11	main_slash	95	stimuli_distractor_diamondtriangles.svg	stimuli_target_circlediamonds.svg	14	yes	53	1	795
6.6.1	mac	2022-12-14	13:34:30	13:48:39	847469	5c573f18d3cc6b0001d9dbc3	878859854	1	main_slash	11	advance_on_keypress_SLASH	96	stimuli_distractor_diamondtriangles.svg	stimuli_target_circlediamonds.svg	14	yes	57	0	151
6.6.1	mac	2022-12-14	13:34:30	13:48:40	848870	5c573f18d3cc6b0001d9dbc3	878859854	1	main_slash	11	main_slash	97	stimuli_target_diamondcircles.svg	stimuli_distractor_trianglediamonds.svg	19	yes	53	1	606
6.6.1	mac	2022-12-14	13:34:30	13:48:40	848870	5c573f18d3cc6b0001d9dbc3	878859854	1	main_slash	11	advance_on_keypress_SLASH	98	stimuli_target_diamondcircles.svg	stimuli_distractor_trianglediamonds.svg	19	yes	57	0	136
6.6.1	mac	2022-12-14	13:34:30	13:48:42	850464	5c573f18d3cc6b0001d9dbc3	878859854	1	main_slash	11	main_slash	99	stimuli_distractor_trianglediamonds.svg	stimuli_target_diamondsquares.svg	28	yes	53	1	802
6.6.1	mac	2022-12-14	13:34:30	13:48:42	850464	5c573f18d3cc6b0001d9dbc3	878859854	1	main_slash	11	advance_on_keypress_SLASH	100	stimuli_distractor_trianglediamonds.svg	stimuli_target_diamondsquares.svg	28	yes	57	0	157
6.6.1	mac	2022-12-14	13:34:30	13:48:44	853249	5c573f18d3cc6b0001d9dbc3	878859854	1	main_slash	11	main_slash	101	stimuli_distractor_trianglediamonds.svg	stimuli_distractor_trianglediamonds.svg	33	no	0	1	2000
6.6.1	mac	2022-12-14	13:34:30	13:48:44	853249	5c573f18d3cc6b0001d9dbc3	878859854	1	main_slash	11	advance_on_keypress_SLASH	102	stimuli_distractor_trianglediamonds.svg	stimuli_distractor_trianglediamonds.svg	33	no	57	0	531
6.6.1	mac	2022-12-14	13:34:30	13:48:46	854872	5c573f18d3cc6b0001d9dbc3	878859854	1	main_slash	11	main_slash	103	stimuli_distractor_diamondtriangles.svg	stimuli_target_trianglecircles.svg	29	yes	53	1	442
6.6.1	mac	2022-12-14	13:34:30	13:48:46	854872	5c573f18d3cc6b0001d9dbc3	878859854	1	main_slash	11	advance_on_keypress_SLASH	104	stimuli_distractor_diamondtriangles.svg	stimuli_target_trianglecircles.svg	29	yes	57	0	182
6.6.1	mac	2022-12-14	13:34:30	13:48:47	856236	5c573f18d3cc6b0001d9dbc3	878859854	1	main_slash	11	main_slash	105	stimuli_target_squarediamonds.svg	stimuli_distractor_trianglediamonds.svg	4	yes	53	1	544
6.6.1	mac	2022-12-14	13:34:30	13:48:47	856236	5c573f18d3cc6b0001d9dbc3	878859854	1	main_slash	11	advance_on_keypress_SLASH	106	stimuli_target_squarediamonds.svg	stimuli_distractor_trianglediamonds.svg	4	yes	57	0	168
6.6.1	mac	2022-12-14	13:34:30	13:48:49	857475	5c573f18d3cc6b0001d9dbc3	878859854	1	main_slash	11	main_slash	107	stimuli_target_squaretriangles.svg	stimuli_distractor_trianglediamonds.svg	3	yes	53	1	430
6.6.1	mac	2022-12-14	13:34:30	13:48:49	857475	5c573f18d3cc6b0001d9dbc3	878859854	1	main_slash	11	advance_on_keypress_SLASH	108	stimuli_target_squaretriangles.svg	stimuli_distractor_trianglediamonds.svg	3	yes	57	0	157
6.6.1	mac	2022-12-14	13:34:30	13:48:50	858864	5c573f18d3cc6b0001d9dbc3	878859854	1	main_slash	11	main_slash	109	stimuli_target_trianglecircles.svg	stimuli_distractor_trianglediamonds.svg	17	yes	53	1	590
6.6.1	mac	2022-12-14	13:34:30	13:48:50	858864	5c573f18d3cc6b0001d9dbc3	878859854	1	main_slash	11	advance_on_keypress_SLASH	110	stimuli_target_trianglecircles.svg	stimuli_distractor_trianglediamonds.svg	17	yes	57	0	122
6.6.1	mac	2022-12-14	13:34:30	13:48:51	860134	5c573f18d3cc6b0001d9dbc3	878859854	1	main_slash	11	main_slash	111	stimuli_distractor_trianglediamonds.svg	stimuli_target_circlediamonds.svg	10	yes	53	1	509
6.6.1	mac	2022-12-14	13:34:30	13:48:51	860134	5c573f18d3cc6b0001d9dbc3	878859854	1	main_slash	11	advance_on_keypress_SLASH	112	stimuli_distractor_trianglediamonds.svg	stimuli_target_circlediamonds.svg	10	yes	57	0	110
6.6.1	mac	2022-12-14	13:34:30	13:48:54	862903	5c573f18d3cc6b0001d9dbc3	878859854	1	main_slash	11	main_slash	113	stimuli_distractor_diamondtriangles.svg	stimuli_distractor_diamondtriangles.svg	39	no	0	1	2000
6.6.1	mac	2022-12-14	13:34:30	13:48:54	862903	5c573f18d3cc6b0001d9dbc3	878859854	1	main_slash	11	advance_on_keypress_SLASH	114	stimuli_distractor_diamondtriangles.svg	stimuli_distractor_diamondtriangles.svg	39	no	57	0	68
6.6.1	mac	2022-12-14	13:34:30	13:48:55	864115	5c573f18d3cc6b0001d9dbc3	878859854	1	main_slash	11	main_slash	115	stimuli_distractor_trianglediamonds.svg	stimuli_target_diamondcircles.svg	27	yes	53	1	497
6.6.1	mac	2022-12-14	13:34:30	13:48:55	864115	5c573f18d3cc6b0001d9dbc3	878859854	1	main_slash	11	advance_on_keypress_SLASH	116	stimuli_distractor_trianglediamonds.svg	stimuli_target_diamondcircles.svg	27	yes	57	0	174
6.6.1	mac	2022-12-14	13:34:30	13:48:57	865433	5c573f18d3cc6b0001d9dbc3	878859854	1	main_slash	11	main_slash	117	stimuli_target_circlediamonds.svg	stimuli_distractor_diamondtriangles.svg	6	yes	53	1	519
6.6.1	mac	2022-12-14	13:34:30	13:48:57	865433	5c573f18d3cc6b0001d9dbc3	878859854	1	main_slash	11	advance_on_keypress_SLASH	118	stimuli_target_circlediamonds.svg	stimuli_distractor_diamondtriangles.svg	6	yes	57	0	133
6.6.1	mac	2022-12-14	13:34:30	13:48:59	868195	5c573f18d3cc6b0001d9dbc3	878859854	1	main_slash	11	main_slash	119	stimuli_distractor_diamondtriangles.svg	stimuli_distractor_trianglediamonds.svg	38	no	0	1	2000
6.6.1	mac	2022-12-14	13:34:30	13:48:59	868195	5c573f18d3cc6b0001d9dbc3	878859854	1	main_slash	11	advance_on_keypress_SLASH	120	stimuli_distractor_diamondtriangles.svg	stimuli_distractor_trianglediamonds.svg	38	no	57	0	566
6.6.1	mac	2022-12-14	13:34:30	13:49:01	869925	5c573f18d3cc6b0001d9dbc3	878859854	1	main_slash	11	main_slash	121	stimuli_target_squarediamonds.svg	stimuli_distractor_diamondtriangles.svg	8	yes	53	1	523
6.6.1	mac	2022-12-14	13:34:30	13:49:01	869925	5c573f18d3cc6b0001d9dbc3	878859854	1	main_slash	11	advance_on_keypress_SLASH	122	stimuli_target_squarediamonds.svg	stimuli_distractor_diamondtriangles.svg	8	yes	57	0	160
6.6.1	mac	2022-12-14	13:34:30	13:49:02	871303	5c573f18d3cc6b0001d9dbc3	878859854	1	main_slash	11	main_slash	123	stimuli_distractor_diamondtriangles.svg	stimuli_target_diamondcircles.svg	31	yes	53	1	579
6.6.1	mac	2022-12-14	13:34:30	13:49:02	871303	5c573f18d3cc6b0001d9dbc3	878859854	1	main_slash	11	advance_on_keypress_SLASH	124	stimuli_distractor_diamondtriangles.svg	stimuli_target_diamondcircles.svg	31	yes	57	0	121
6.6.1	mac	2022-12-14	13:34:30	13:49:04	872535	5c573f18d3cc6b0001d9dbc3	878859854	1	main_slash	11	main_slash	125	stimuli_distractor_trianglediamonds.svg	stimuli_target_squarediamonds.svg	12	yes	53	1	479
6.6.1	mac	2022-12-14	13:34:30	13:49:04	872535	5c573f18d3cc6b0001d9dbc3	878859854	1	main_slash	11	advance_on_keypress_SLASH	126	stimuli_distractor_trianglediamonds.svg	stimuli_target_squarediamonds.svg	12	yes	57	0	124
6.6.1	mac	2022-12-14	13:34:30	13:49:06	875289	5c573f18d3cc6b0001d9dbc3	878859854	1	main_slash	11	main_slash	127	stimuli_distractor_trianglediamonds.svg	stimuli_distractor_diamondtriangles.svg	36	no	0	1	2000
6.6.1	mac	2022-12-14	13:34:30	13:49:06	875289	5c573f18d3cc6b0001d9dbc3	878859854	1	main_slash	11	advance_on_keypress_SLASH	128	stimuli_distractor_trianglediamonds.svg	stimuli_distractor_diamondtriangles.svg	36	no	57	0	298
6.6.1	mac	2022-12-14	13:34:30	13:49:08	877313	5c573f18d3cc6b0001d9dbc3	878859854	1	main_slash	11	main_slash	129	stimuli_target_diamondsquares.svg	stimuli_distractor_trianglediamonds.svg	20	yes	53	1	1087
6.6.1	mac	2022-12-14	13:34:30	13:49:08	877313	5c573f18d3cc6b0001d9dbc3	878859854	1	main_slash	11	advance_on_keypress_SLASH	130	stimuli_target_diamondsquares.svg	stimuli_distractor_trianglediamonds.svg	20	yes	57	0	139
6.6.1	mac	2022-12-14	13:34:30	13:49:11	880074	5c573f18d3cc6b0001d9dbc3	878859854	1	main_slash	11	main_slash	131	stimuli_distractor_trianglediamonds.svg	stimuli_distractor_trianglediamonds.svg	34	no	0	1	2000
6.6.1	mac	2022-12-14	13:34:30	13:49:11	880074	5c573f18d3cc6b0001d9dbc3	878859854	1	main_slash	11	advance_on_keypress_SLASH	132	stimuli_distractor_trianglediamonds.svg	stimuli_distractor_trianglediamonds.svg	34	no	57	0	154
6.6.1	mac	2022-12-14	13:34:30	13:49:12	881415	5c573f18d3cc6b0001d9dbc3	878859854	1	main_slash	11	main_slash	133	stimuli_target_diamondcircles.svg	stimuli_distractor_diamondtriangles.svg	23	yes	53	1	550
6.6.1	mac	2022-12-14	13:34:30	13:49:12	881415	5c573f18d3cc6b0001d9dbc3	878859854	1	main_slash	11	advance_on_keypress_SLASH	134	stimuli_target_diamondcircles.svg	stimuli_distractor_diamondtriangles.svg	23	yes	57	0	146
6.6.1	mac	2022-12-14	13:34:30	13:49:15	884204	5c573f18d3cc6b0001d9dbc3	878859854	1	main_slash	11	main_slash	135	stimuli_distractor_trianglediamonds.svg	stimuli_distractor_diamondtriangles.svg	35	no	0	1	2000
6.6.1	mac	2022-12-14	13:34:30	13:49:15	884204	5c573f18d3cc6b0001d9dbc3	878859854	1	main_slash	11	advance_on_keypress_SLASH	136	stimuli_distractor_trianglediamonds.svg	stimuli_distractor_diamondtriangles.svg	35	no	57	0	24
6.6.1	mac	2022-12-14	13:34:30	13:49:18	886865	5c573f18d3cc6b0001d9dbc3	878859854	1	main_slash	11	main_slash	137	stimuli_distractor_diamondtriangles.svg	stimuli_distractor_trianglediamonds.svg	37	no	0	1	2000
6.6.1	mac	2022-12-14	13:34:30	13:49:18	886865	5c573f18d3cc6b0001d9dbc3	878859854	1	main_slash	11	advance_on_keypress_SLASH	138	stimuli_distractor_diamondtriangles.svg	stimuli_distractor_trianglediamonds.svg	37	no	57	0	173
6.6.1	mac	2022-12-14	13:34:30	13:49:19	888176	5c573f18d3cc6b0001d9dbc3	878859854	1	main_slash	11	main_slash	139	stimuli_target_circletriangles.svg	stimuli_distractor_diamondtriangles.svg	5	yes	53	1	506
6.6.1	mac	2022-12-14	13:34:30	13:49:19	888176	5c573f18d3cc6b0001d9dbc3	878859854	1	main_slash	11	advance_on_keypress_SLASH	140	stimuli_target_circletriangles.svg	stimuli_distractor_diamondtriangles.svg	5	yes	57	0	136
6.6.1	mac	2022-12-14	13:34:30	13:49:21	889476	5c573f18d3cc6b0001d9dbc3	878859854	1	main_slash	11	main_slash	141	stimuli_distractor_diamondtriangles.svg	stimuli_target_diamondsquares.svg	32	yes	53	1	530
6.6.1	mac	2022-12-14	13:34:30	13:49:21	889476	5c573f18d3cc6b0001d9dbc3	878859854	1	main_slash	11	advance_on_keypress_SLASH	142	stimuli_distractor_diamondtriangles.svg	stimuli_target_diamondsquares.svg	32	yes	57	0	119
6.6.1	mac	2022-12-14	13:34:30	13:49:22	890762	5c573f18d3cc6b0001d9dbc3	878859854	1	main_slash	11	main_slash	143	stimuli_target_squaretriangles.svg	stimuli_distractor_diamondtriangles.svg	7	yes	53	1	528
6.6.1	mac	2022-12-14	13:34:30	13:49:22	890762	5c573f18d3cc6b0001d9dbc3	878859854	1	main_slash	11	advance_on_keypress_SLASH	144	stimuli_target_squaretriangles.svg	stimuli_distractor_diamondtriangles.svg	7	yes	57	0	125
6.6.1	mac	2022-12-14	13:34:30	13:49:23	892220	5c573f18d3cc6b0001d9dbc3	878859854	1	main_slash	11	main_slash	145	stimuli_target_trianglesquares.svg	stimuli_distractor_trianglediamonds.svg	18	yes	53	1	694
6.6.1	mac	2022-12-14	13:34:30	13:49:23	892220	5c573f18d3cc6b0001d9dbc3	878859854	1	main_slash	11	advance_on_keypress_SLASH	146	stimuli_target_trianglesquares.svg	stimuli_distractor_trianglediamonds.svg	18	yes	57	0	129
6.6.1	mac	2022-12-14	13:34:30	13:49:25	893510	5c573f18d3cc6b0001d9dbc3	878859854	1	main_slash	11	main_slash	147	stimuli_distractor_diamondtriangles.svg	stimuli_target_circletriangles.svg	13	yes	53	1	518
6.6.1	mac	2022-12-14	13:34:30	13:49:25	893510	5c573f18d3cc6b0001d9dbc3	878859854	1	main_slash	11	advance_on_keypress_SLASH	148	stimuli_distractor_diamondtriangles.svg	stimuli_target_circletriangles.svg	13	yes	57	0	113
6.6.1	mac	2022-12-14	13:34:30	13:49:26	894736	5c573f18d3cc6b0001d9dbc3	878859854	1	main_slash	11	main_slash	149	stimuli_target_circlediamonds.svg	stimuli_distractor_trianglediamonds.svg	2	yes	53	1	473
6.6.1	mac	2022-12-14	13:34:30	13:49:26	894736	5c573f18d3cc6b0001d9dbc3	878859854	1	main_slash	11	advance_on_keypress_SLASH	150	stimuli_target_circlediamonds.svg	stimuli_distractor_trianglediamonds.svg	2	yes	57	0	113
6.6.1	mac	2022-12-14	13:34:30	13:49:27	895941	5c573f18d3cc6b0001d9dbc3	878859854	1	main_slash	11	main_slash	151	stimuli_distractor_trianglediamonds.svg	stimuli_target_circletriangles.svg	9	yes	53	1	446
6.6.1	mac	2022-12-14	13:34:30	13:49:27	895941	5c573f18d3cc6b0001d9dbc3	878859854	1	main_slash	11	advance_on_keypress_SLASH	152	stimuli_distractor_trianglediamonds.svg	stimuli_target_circletriangles.svg	9	yes	57	0	119
6.6.1	mac	2022-12-14	13:34:30	13:49:30	898691	5c573f18d3cc6b0001d9dbc3	878859854	1	main_slash	11	main_slash	153	stimuli_distractor_diamondtriangles.svg	stimuli_distractor_diamondtriangles.svg	40	no	0	1	2000
6.6.1	mac	2022-12-14	13:34:30	13:49:30	898691	5c573f18d3cc6b0001d9dbc3	878859854	1	main_slash	11	advance_on_keypress_SLASH	154	stimuli_distractor_diamondtriangles.svg	stimuli_distractor_diamondtriangles.svg	40	no	57	0	172
6.6.1	mac	2022-12-14	13:34:30	13:49:31	899963	5c573f18d3cc6b0001d9dbc3	878859854	1	main_slash	11	main_slash	155	stimuli_distractor_trianglediamonds.svg	stimuli_target_trianglesquares.svg	26	yes	53	1	472
6.6.1	mac	2022-12-14	13:34:30	13:49:31	899963	5c573f18d3cc6b0001d9dbc3	878859854	1	main_slash	11	advance_on_keypress_SLASH	156	stimuli_distractor_trianglediamonds.svg	stimuli_target_trianglesquares.svg	26	yes	57	0	99
6.6.1	mac	2022-12-14	13:34:30	13:49:32	901198	5c573f18d3cc6b0001d9dbc3	878859854	1	main_slash	11	main_slash	157	stimuli_distractor_diamondtriangles.svg	stimuli_target_trianglesquares.svg	30	yes	53	1	497
6.6.1	mac	2022-12-14	13:34:30	13:49:32	901198	5c573f18d3cc6b0001d9dbc3	878859854	1	main_slash	11	advance_on_keypress_SLASH	158	stimuli_distractor_diamondtriangles.svg	stimuli_target_trianglesquares.svg	30	yes	57	0	123
6.6.1	mac	2022-12-14	13:34:30	13:49:34	902429	5c573f18d3cc6b0001d9dbc3	878859854	1	main_slash	11	main_slash	159	stimuli_target_circletriangles.svg	stimuli_distractor_trianglediamonds.svg	1	yes	53	1	480
6.6.1	mac	2022-12-14	13:34:30	13:49:34	902429	5c573f18d3cc6b0001d9dbc3	878859854	1	main_slash	11	advance_on_keypress_SLASH	160	stimuli_target_circletriangles.svg	stimuli_distractor_trianglediamonds.svg	1	yes	57	0	86