build	computer.platform	date	time	timestamp	time_elapsed_ms	subject	group	session	blockcode	blocknum	trialcode	trialnum	stimulus_left	stimulus_right	stim_index	target_present	response	correct	latency
6.6.1	win	2022-12-14	15:18:20	15:28:16	592064	5b066e00f58f8400018b0906	410248622	1	practice_z	5	practice_z	1	stimuli_target_diamondsquares.svg	stimuli_distractor_diamondtriangles.svg	3	yes	0	0	2000
6.6.1	win	2022-12-14	15:18:20	15:28:16	592064	5b066e00f58f8400018b0906	410248622	1	practice_z	5	advance_on_keypress_ZEE	2	stimuli_target_diamondsquares.svg	stimuli_distractor_diamondtriangles.svg	3	yes	57	0	65424
6.6.1	win	2022-12-14	15:18:20	15:29:24	659927	5b066e00f58f8400018b0906	410248622	1	practice_z	5	practice_z	3	stimuli_target_squarediamonds.svg	stimuli_distractor_diamondtriangles.svg	2	yes	44	1	750
6.6.1	win	2022-12-14	15:18:20	15:29:24	659927	5b066e00f58f8400018b0906	410248622	1	practice_z	5	advance_on_keypress_ZEE	4	stimuli_target_squarediamonds.svg	stimuli_distractor_diamondtriangles.svg	2	yes	57	0	1271
6.6.1	win	2022-12-14	15:18:20	15:29:29	664879	5b066e00f58f8400018b0906	410248622	1	practice_z	5	practice_z	5	stimuli_distractor_diamondtriangles.svg	stimuli_distractor_diamondtriangles.svg	13	no	0	1	2000
6.6.1	win	2022-12-14	15:18:20	15:29:29	664879	5b066e00f58f8400018b0906	410248622	1	practice_z	5	advance_on_keypress_ZEE	6	stimuli_distractor_diamondtriangles.svg	stimuli_distractor_diamondtriangles.svg	13	no	57	0	968
6.6.1	win	2022-12-14	15:18:20	15:29:32	668105	5b066e00f58f8400018b0906	410248622	1	practice_z	5	practice_z	7	stimuli_distractor_trianglediamonds.svg	stimuli_target_diamondcircles.svg	12	yes	44	1	564
6.6.1	win	2022-12-14	15:18:20	15:29:32	668105	5b066e00f58f8400018b0906	410248622	1	practice_z	5	advance_on_keypress_ZEE	8	stimuli_distractor_trianglediamonds.svg	stimuli_target_diamondcircles.svg	12	yes	57	0	619
6.6.1	win	2022-12-14	15:18:20	15:29:35	670887	5b066e00f58f8400018b0906	410248622	1	practice_z	5	practice_z	9	stimuli_distractor_diamondtriangles.svg	stimuli_distractor_trianglediamonds.svg	14	no	44	0	490
6.6.1	win	2022-12-14	15:18:20	15:29:35	670887	5b066e00f58f8400018b0906	410248622	1	practice_z	5	advance_on_keypress_ZEE	10	stimuli_distractor_diamondtriangles.svg	stimuli_distractor_trianglediamonds.svg	14	no	57	0	533
6.6.1	win	2022-12-14	15:18:20	15:29:38	673537	5b066e00f58f8400018b0906	410248622	1	practice_z	5	practice_z	11	stimuli_distractor_diamondtriangles.svg	stimuli_target_diamondcircles.svg	8	yes	44	1	454
6.6.1	win	2022-12-14	15:18:20	15:29:38	673537	5b066e00f58f8400018b0906	410248622	1	practice_z	5	advance_on_keypress_ZEE	12	stimuli_distractor_diamondtriangles.svg	stimuli_target_diamondcircles.svg	8	yes	57	0	530
6.6.1	win	2022-12-14	15:18:20	15:29:40	676178	5b066e00f58f8400018b0906	410248622	1	practice_z	5	practice_z	13	stimuli_distractor_trianglediamonds.svg	stimuli_distractor_diamondtriangles.svg	16	no	44	0	444
6.6.1	win	2022-12-14	15:18:20	15:29:40	676178	5b066e00f58f8400018b0906	410248622	1	practice_z	5	advance_on_keypress_ZEE	14	stimuli_distractor_trianglediamonds.svg	stimuli_distractor_diamondtriangles.svg	16	no	57	0	513
6.6.1	win	2022-12-14	15:18:20	15:29:43	678920	5b066e00f58f8400018b0906	410248622	1	practice_z	5	practice_z	15	stimuli_distractor_trianglediamonds.svg	stimuli_target_circlediamonds.svg	10	yes	44	1	571
6.6.1	win	2022-12-14	15:18:20	15:29:43	678920	5b066e00f58f8400018b0906	410248622	1	practice_z	5	advance_on_keypress_ZEE	16	stimuli_distractor_trianglediamonds.svg	stimuli_target_circlediamonds.svg	10	yes	57	0	426
6.6.1	win	2022-12-14	15:18:20	15:29:45	681474	5b066e00f58f8400018b0906	410248622	1	practice_z	5	practice_z	17	stimuli_target_circlediamonds.svg	stimuli_distractor_diamondtriangles.svg	1	yes	44	1	455
6.6.1	win	2022-12-14	15:18:20	15:29:45	681474	5b066e00f58f8400018b0906	410248622	1	practice_z	5	advance_on_keypress_ZEE	18	stimuli_target_circlediamonds.svg	stimuli_distractor_diamondtriangles.svg	1	yes	57	0	611
6.6.1	win	2022-12-14	15:18:20	15:29:48	684301	5b066e00f58f8400018b0906	410248622	1	practice_z	5	practice_z	19	stimuli_target_diamondsquares.svg	stimuli_distractor_trianglediamonds.svg	6	yes	44	1	545
6.6.1	win	2022-12-14	15:18:20	15:29:48	684301	5b066e00f58f8400018b0906	410248622	1	practice_z	5	advance_on_keypress_ZEE	20	stimuli_target_diamondsquares.svg	stimuli_distractor_trianglediamonds.svg	6	yes	57	0	322
6.6.1	win	2022-12-14	15:18:20	15:29:51	686712	5b066e00f58f8400018b0906	410248622	1	practice_z	5	practice_z	21	stimuli_distractor_trianglediamonds.svg	stimuli_target_squarediamonds.svg	11	yes	44	1	427
6.6.1	win	2022-12-14	15:18:20	15:29:51	686712	5b066e00f58f8400018b0906	410248622	1	practice_z	5	advance_on_keypress_ZEE	22	stimuli_distractor_trianglediamonds.svg	stimuli_target_squarediamonds.svg	11	yes	57	0	497
6.6.1	win	2022-12-14	15:18:20	15:29:53	689266	5b066e00f58f8400018b0906	410248622	1	practice_z	5	practice_z	23	stimuli_distractor_diamondtriangles.svg	stimuli_target_trianglecircles.svg	9	yes	44	1	374
6.6.1	win	2022-12-14	15:18:20	15:29:53	689266	5b066e00f58f8400018b0906	410248622	1	practice_z	5	advance_on_keypress_ZEE	24	stimuli_distractor_diamondtriangles.svg	stimuli_target_trianglecircles.svg	9	yes	57	0	394
6.6.1	win	2022-12-14	15:18:20	15:29:56	691760	5b066e00f58f8400018b0906	410248622	1	practice_z	5	practice_z	25	stimuli_distractor_diamondtriangles.svg	stimuli_target_circletriangles.svg	7	yes	44	1	441
6.6.1	win	2022-12-14	15:18:20	15:29:56	691760	5b066e00f58f8400018b0906	410248622	1	practice_z	5	advance_on_keypress_ZEE	26	stimuli_distractor_diamondtriangles.svg	stimuli_target_circletriangles.svg	7	yes	57	0	254
6.6.1	win	2022-12-14	15:18:20	15:30:00	695756	5b066e00f58f8400018b0906	410248622	1	practice_z	5	practice_z	27	stimuli_distractor_trianglediamonds.svg	stimuli_distractor_trianglediamonds.svg	15	no	0	1	2000
6.6.1	win	2022-12-14	15:18:20	15:30:00	695756	5b066e00f58f8400018b0906	410248622	1	practice_z	5	advance_on_keypress_ZEE	28	stimuli_distractor_trianglediamonds.svg	stimuli_distractor_trianglediamonds.svg	15	no	57	0	725
6.6.1	win	2022-12-14	15:18:20	15:30:03	698758	5b066e00f58f8400018b0906	410248622	1	practice_z	5	practice_z	29	stimuli_target_squarediamonds.svg	stimuli_distractor_trianglediamonds.svg	5	yes	44	1	592
6.6.1	win	2022-12-14	15:18:20	15:30:03	698758	5b066e00f58f8400018b0906	410248622	1	practice_z	5	advance_on_keypress_ZEE	30	stimuli_target_squarediamonds.svg	stimuli_distractor_trianglediamonds.svg	5	yes	57	0	636
6.6.1	win	2022-12-14	15:18:20	15:30:06	701544	5b066e00f58f8400018b0906	410248622	1	practice_z	5	practice_z	31	stimuli_target_circlediamonds.svg	stimuli_distractor_trianglediamonds.svg	4	yes	44	1	481
6.6.1	win	2022-12-14	15:18:20	15:30:06	701544	5b066e00f58f8400018b0906	410248622	1	practice_z	5	advance_on_keypress_ZEE	32	stimuli_target_circlediamonds.svg	stimuli_distractor_trianglediamonds.svg	4	yes	57	0	460
6.6.1	win	2022-12-14	15:18:20	15:30:14	710164	5b066e00f58f8400018b0906	410248622	1	main_z	7	main_z	1	stimuli_distractor_diamondtriangles.svg	stimuli_target_trianglesquares.svg	30	yes	44	1	444
6.6.1	win	2022-12-14	15:18:20	15:30:14	710164	5b066e00f58f8400018b0906	410248622	1	main_z	7	advance_on_keypress_ZEE	2	stimuli_distractor_diamondtriangles.svg	stimuli_target_trianglesquares.svg	30	yes	57	0	2234
6.6.1	win	2022-12-14	15:18:20	15:30:18	713531	5b066e00f58f8400018b0906	410248622	1	main_z	7	main_z	3	stimuli_target_diamondcircles.svg	stimuli_distractor_diamondtriangles.svg	23	yes	44	1	478
6.6.1	win	2022-12-14	15:18:20	15:30:18	713531	5b066e00f58f8400018b0906	410248622	1	main_z	7	advance_on_keypress_ZEE	4	stimuli_target_diamondcircles.svg	stimuli_distractor_diamondtriangles.svg	23	yes	57	0	858
6.6.1	win	2022-12-14	15:18:20	15:30:19	715420	5b066e00f58f8400018b0906	410248622	1	main_z	7	main_z	5	stimuli_distractor_trianglediamonds.svg	stimuli_target_trianglesquares.svg	26	yes	44	1	366
6.6.1	win	2022-12-14	15:18:20	15:30:19	715420	5b066e00f58f8400018b0906	410248622	1	main_z	7	advance_on_keypress_ZEE	6	stimuli_distractor_trianglediamonds.svg	stimuli_target_trianglesquares.svg	26	yes	57	0	758
6.6.1	win	2022-12-14	15:18:20	15:30:21	717260	5b066e00f58f8400018b0906	410248622	1	main_z	7	main_z	7	stimuli_distractor_trianglediamonds.svg	stimuli_target_squarediamonds.svg	12	yes	44	1	438
6.6.1	win	2022-12-14	15:18:20	15:30:21	717260	5b066e00f58f8400018b0906	410248622	1	main_z	7	advance_on_keypress_ZEE	8	stimuli_distractor_trianglediamonds.svg	stimuli_target_squarediamonds.svg	12	yes	57	0	1180
6.6.1	win	2022-12-14	15:18:20	15:30:24	719668	5b066e00f58f8400018b0906	410248622	1	main_z	7	main_z	9	stimuli_distractor_trianglediamonds.svg	stimuli_target_diamondcircles.svg	27	yes	44	1	580
6.6.1	win	2022-12-14	15:18:20	15:30:24	719668	5b066e00f58f8400018b0906	410248622	1	main_z	7	advance_on_keypress_ZEE	10	stimuli_distractor_trianglediamonds.svg	stimuli_target_diamondcircles.svg	27	yes	57	0	1268
6.6.1	win	2022-12-14	15:18:20	15:30:26	721915	5b066e00f58f8400018b0906	410248622	1	main_z	7	main_z	11	stimuli_distractor_diamondtriangles.svg	stimuli_target_circlediamonds.svg	14	yes	44	1	327
6.6.1	win	2022-12-14	15:18:20	15:30:26	721915	5b066e00f58f8400018b0906	410248622	1	main_z	7	advance_on_keypress_ZEE	12	stimuli_distractor_diamondtriangles.svg	stimuli_target_circlediamonds.svg	14	yes	57	0	793
6.6.1	win	2022-12-14	15:18:20	15:30:28	723844	5b066e00f58f8400018b0906	410248622	1	main_z	7	main_z	13	stimuli_distractor_trianglediamonds.svg	stimuli_target_circletriangles.svg	9	yes	44	1	471
6.6.1	win	2022-12-14	15:18:20	15:30:28	723844	5b066e00f58f8400018b0906	410248622	1	main_z	7	advance_on_keypress_ZEE	14	stimuli_distractor_trianglediamonds.svg	stimuli_target_circletriangles.svg	9	yes	57	0	7860
6.6.1	win	2022-12-14	15:18:20	15:30:37	732873	5b066e00f58f8400018b0906	410248622	1	main_z	7	main_z	15	stimuli_distractor_diamondtriangles.svg	stimuli_target_diamondsquares.svg	32	yes	44	1	511
6.6.1	win	2022-12-14	15:18:20	15:30:37	732873	5b066e00f58f8400018b0906	410248622	1	main_z	7	advance_on_keypress_ZEE	16	stimuli_distractor_diamondtriangles.svg	stimuli_target_diamondsquares.svg	32	yes	57	0	736
6.6.1	win	2022-12-14	15:18:20	15:30:39	734664	5b066e00f58f8400018b0906	410248622	1	main_z	7	main_z	17	stimuli_distractor_diamondtriangles.svg	stimuli_target_squarediamonds.svg	16	yes	44	1	401
6.6.1	win	2022-12-14	15:18:20	15:30:39	734664	5b066e00f58f8400018b0906	410248622	1	main_z	7	advance_on_keypress_ZEE	18	stimuli_distractor_diamondtriangles.svg	stimuli_target_squarediamonds.svg	16	yes	57	0	1800
6.6.1	win	2022-12-14	15:18:20	15:30:41	737428	5b066e00f58f8400018b0906	410248622	1	main_z	7	main_z	19	stimuli_distractor_trianglediamonds.svg	stimuli_target_circlediamonds.svg	10	yes	44	1	318
6.6.1	win	2022-12-14	15:18:20	15:30:41	737428	5b066e00f58f8400018b0906	410248622	1	main_z	7	advance_on_keypress_ZEE	20	stimuli_distractor_trianglediamonds.svg	stimuli_target_circlediamonds.svg	10	yes	57	0	601
6.6.1	win	2022-12-14	15:18:20	15:30:43	739116	5b066e00f58f8400018b0906	410248622	1	main_z	7	main_z	21	stimuli_distractor_trianglediamonds.svg	stimuli_distractor_diamondtriangles.svg	36	no	44	0	439
6.6.1	win	2022-12-14	15:18:20	15:30:43	739116	5b066e00f58f8400018b0906	410248622	1	main_z	7	advance_on_keypress_ZEE	22	stimuli_distractor_trianglediamonds.svg	stimuli_distractor_diamondtriangles.svg	36	no	57	0	1053
6.6.1	win	2022-12-14	15:18:20	15:30:46	741771	5b066e00f58f8400018b0906	410248622	1	main_z	7	main_z	23	stimuli_target_diamondsquares.svg	stimuli_distractor_diamondtriangles.svg	24	yes	44	1	912
6.6.1	win	2022-12-14	15:18:20	15:30:46	741771	5b066e00f58f8400018b0906	410248622	1	main_z	7	advance_on_keypress_ZEE	24	stimuli_target_diamondsquares.svg	stimuli_distractor_diamondtriangles.svg	24	yes	57	0	721
6.6.1	win	2022-12-14	15:18:20	15:30:48	743808	5b066e00f58f8400018b0906	410248622	1	main_z	7	main_z	25	stimuli_distractor_trianglediamonds.svg	stimuli_target_squaretriangles.svg	11	yes	44	1	627
6.6.1	win	2022-12-14	15:18:20	15:30:48	743808	5b066e00f58f8400018b0906	410248622	1	main_z	7	advance_on_keypress_ZEE	26	stimuli_distractor_trianglediamonds.svg	stimuli_target_squaretriangles.svg	11	yes	57	0	688
6.6.1	win	2022-12-14	15:18:20	15:30:50	745756	5b066e00f58f8400018b0906	410248622	1	main_z	7	main_z	27	stimuli_distractor_trianglediamonds.svg	stimuli_target_trianglecircles.svg	25	yes	44	1	611
6.6.1	win	2022-12-14	15:18:20	15:30:50	745756	5b066e00f58f8400018b0906	410248622	1	main_z	7	advance_on_keypress_ZEE	28	stimuli_distractor_trianglediamonds.svg	stimuli_target_trianglecircles.svg	25	yes	57	0	650
6.6.1	win	2022-12-14	15:18:20	15:30:53	749064	5b066e00f58f8400018b0906	410248622	1	main_z	7	main_z	29	stimuli_distractor_trianglediamonds.svg	stimuli_distractor_trianglediamonds.svg	33	no	0	1	2000
6.6.1	win	2022-12-14	15:18:20	15:30:53	749064	5b066e00f58f8400018b0906	410248622	1	main_z	7	advance_on_keypress_ZEE	30	stimuli_distractor_trianglediamonds.svg	stimuli_distractor_trianglediamonds.svg	33	no	57	0	718
6.6.1	win	2022-12-14	15:18:20	15:30:55	750965	5b066e00f58f8400018b0906	410248622	1	main_z	7	main_z	31	stimuli_target_trianglesquares.svg	stimuli_distractor_trianglediamonds.svg	18	yes	44	1	533
6.6.1	win	2022-12-14	15:18:20	15:30:55	750965	5b066e00f58f8400018b0906	410248622	1	main_z	7	advance_on_keypress_ZEE	32	stimuli_target_trianglesquares.svg	stimuli_distractor_trianglediamonds.svg	18	yes	57	0	761
6.6.1	win	2022-12-14	15:18:20	15:30:57	752876	5b066e00f58f8400018b0906	410248622	1	main_z	7	main_z	33	stimuli_target_diamondcircles.svg	stimuli_distractor_trianglediamonds.svg	19	yes	44	1	496
6.6.1	win	2022-12-14	15:18:20	15:30:57	752876	5b066e00f58f8400018b0906	410248622	1	main_z	7	advance_on_keypress_ZEE	34	stimuli_target_diamondcircles.svg	stimuli_distractor_trianglediamonds.svg	19	yes	57	0	612
6.6.1	win	2022-12-14	15:18:20	15:30:59	754668	5b066e00f58f8400018b0906	410248622	1	main_z	7	main_z	35	stimuli_distractor_diamondtriangles.svg	stimuli_target_diamondcircles.svg	31	yes	44	1	521
6.6.1	win	2022-12-14	15:18:20	15:30:59	754668	5b066e00f58f8400018b0906	410248622	1	main_z	7	advance_on_keypress_ZEE	36	stimuli_distractor_diamondtriangles.svg	stimuli_target_diamondcircles.svg	31	yes	57	0	637
6.6.1	win	2022-12-14	15:18:20	15:31:02	757958	5b066e00f58f8400018b0906	410248622	1	main_z	7	main_z	37	stimuli_distractor_diamondtriangles.svg	stimuli_distractor_diamondtriangles.svg	40	no	0	1	2000
6.6.1	win	2022-12-14	15:18:20	15:31:02	757958	5b066e00f58f8400018b0906	410248622	1	main_z	7	advance_on_keypress_ZEE	38	stimuli_distractor_diamondtriangles.svg	stimuli_distractor_diamondtriangles.svg	40	no	57	0	492
6.6.1	win	2022-12-14	15:18:20	15:31:04	759540	5b066e00f58f8400018b0906	410248622	1	main_z	7	main_z	39	stimuli_target_squaretriangles.svg	stimuli_distractor_trianglediamonds.svg	3	yes	44	1	426
6.6.1	win	2022-12-14	15:18:20	15:31:04	759540	5b066e00f58f8400018b0906	410248622	1	main_z	7	advance_on_keypress_ZEE	40	stimuli_target_squaretriangles.svg	stimuli_distractor_trianglediamonds.svg	3	yes	57	0	5999
6.6.1	win	2022-12-14	15:18:20	15:31:12	768204	5b066e00f58f8400018b0906	410248622	1	main_z	7	main_z	41	stimuli_distractor_trianglediamonds.svg	stimuli_distractor_diamondtriangles.svg	35	no	0	1	2000
6.6.1	win	2022-12-14	15:18:20	15:31:12	768204	5b066e00f58f8400018b0906	410248622	1	main_z	7	advance_on_keypress_ZEE	42	stimuli_distractor_trianglediamonds.svg	stimuli_distractor_diamondtriangles.svg	35	no	57	0	75
6.6.1	win	2022-12-14	15:18:20	15:31:13	769380	5b066e00f58f8400018b0906	410248622	1	main_z	7	main_z	43	stimuli_target_trianglesquares.svg	stimuli_distractor_diamondtriangles.svg	22	yes	44	1	447
6.6.1	win	2022-12-14	15:18:20	15:31:13	769380	5b066e00f58f8400018b0906	410248622	1	main_z	7	advance_on_keypress_ZEE	44	stimuli_target_trianglesquares.svg	stimuli_distractor_diamondtriangles.svg	22	yes	57	0	525
6.6.1	win	2022-12-14	15:18:20	15:31:15	771098	5b066e00f58f8400018b0906	410248622	1	main_z	7	main_z	45	stimuli_target_diamondsquares.svg	stimuli_distractor_trianglediamonds.svg	20	yes	44	1	512
6.6.1	win	2022-12-14	15:18:20	15:31:15	771098	5b066e00f58f8400018b0906	410248622	1	main_z	7	advance_on_keypress_ZEE	46	stimuli_target_diamondsquares.svg	stimuli_distractor_trianglediamonds.svg	20	yes	57	0	711
6.6.1	win	2022-12-14	15:18:20	15:31:17	772908	5b066e00f58f8400018b0906	410248622	1	main_z	7	main_z	47	stimuli_target_squarediamonds.svg	stimuli_distractor_trianglediamonds.svg	4	yes	44	1	440
6.6.1	win	2022-12-14	15:18:20	15:31:17	772908	5b066e00f58f8400018b0906	410248622	1	main_z	7	advance_on_keypress_ZEE	48	stimuli_target_squarediamonds.svg	stimuli_distractor_trianglediamonds.svg	4	yes	57	0	661
6.6.1	win	2022-12-14	15:18:20	15:31:20	776236	5b066e00f58f8400018b0906	410248622	1	main_z	7	main_z	49	stimuli_distractor_diamondtriangles.svg	stimuli_distractor_trianglediamonds.svg	38	no	0	1	2000
6.6.1	win	2022-12-14	15:18:20	15:31:20	776236	5b066e00f58f8400018b0906	410248622	1	main_z	7	advance_on_keypress_ZEE	50	stimuli_distractor_diamondtriangles.svg	stimuli_distractor_trianglediamonds.svg	38	no	57	0	568
6.6.1	win	2022-12-14	15:18:20	15:31:22	777940	5b066e00f58f8400018b0906	410248622	1	main_z	7	main_z	51	stimuli_target_squarediamonds.svg	stimuli_distractor_diamondtriangles.svg	8	yes	44	1	488
6.6.1	win	2022-12-14	15:18:20	15:31:22	777940	5b066e00f58f8400018b0906	410248622	1	main_z	7	advance_on_keypress_ZEE	52	stimuli_target_squarediamonds.svg	stimuli_distractor_diamondtriangles.svg	8	yes	57	0	548
6.6.1	win	2022-12-14	15:18:20	15:31:23	779485	5b066e00f58f8400018b0906	410248622	1	main_z	7	main_z	53	stimuli_target_circletriangles.svg	stimuli_distractor_diamondtriangles.svg	5	yes	44	1	348
6.6.1	win	2022-12-14	15:18:20	15:31:23	779485	5b066e00f58f8400018b0906	410248622	1	main_z	7	advance_on_keypress_ZEE	54	stimuli_target_circletriangles.svg	stimuli_distractor_diamondtriangles.svg	5	yes	57	0	1333
6.6.1	win	2022-12-14	15:18:20	15:31:26	782237	5b066e00f58f8400018b0906	410248622	1	main_z	7	main_z	55	stimuli_distractor_diamondtriangles.svg	stimuli_target_squaretriangles.svg	15	yes	44	1	766
6.6.1	win	2022-12-14	15:18:20	15:31:26	782237	5b066e00f58f8400018b0906	410248622	1	main_z	7	advance_on_keypress_ZEE	56	stimuli_distractor_diamondtriangles.svg	stimuli_target_squaretriangles.svg	15	yes	57	0	679
6.6.1	win	2022-12-14	15:18:20	15:31:30	785571	5b066e00f58f8400018b0906	410248622	1	main_z	7	main_z	57	stimuli_distractor_diamondtriangles.svg	stimuli_distractor_trianglediamonds.svg	37	no	0	1	2000
6.6.1	win	2022-12-14	15:18:20	15:31:30	785571	5b066e00f58f8400018b0906	410248622	1	main_z	7	advance_on_keypress_ZEE	58	stimuli_distractor_diamondtriangles.svg	stimuli_distractor_trianglediamonds.svg	37	no	57	0	368
6.6.1	win	2022-12-14	15:18:20	15:31:33	788587	5b066e00f58f8400018b0906	410248622	1	main_z	7	main_z	59	stimuli_distractor_trianglediamonds.svg	stimuli_distractor_trianglediamonds.svg	34	no	0	1	2000
6.6.1	win	2022-12-14	15:18:20	15:31:33	788587	5b066e00f58f8400018b0906	410248622	1	main_z	7	advance_on_keypress_ZEE	60	stimuli_distractor_trianglediamonds.svg	stimuli_distractor_trianglediamonds.svg	34	no	57	0	431
6.6.1	win	2022-12-14	15:18:20	15:31:34	790071	5b066e00f58f8400018b0906	410248622	1	main_z	7	main_z	61	stimuli_distractor_diamondtriangles.svg	stimuli_target_circletriangles.svg	13	yes	44	1	396
6.6.1	win	2022-12-14	15:18:20	15:31:34	790071	5b066e00f58f8400018b0906	410248622	1	main_z	7	advance_on_keypress_ZEE	62	stimuli_distractor_diamondtriangles.svg	stimuli_target_circletriangles.svg	13	yes	57	0	546
6.6.1	win	2022-12-14	15:18:20	15:31:36	791732	5b066e00f58f8400018b0906	410248622	1	main_z	7	main_z	63	stimuli_target_circletriangles.svg	stimuli_distractor_trianglediamonds.svg	1	yes	44	1	460
6.6.1	win	2022-12-14	15:18:20	15:31:36	791732	5b066e00f58f8400018b0906	410248622	1	main_z	7	advance_on_keypress_ZEE	64	stimuli_target_circletriangles.svg	stimuli_distractor_trianglediamonds.svg	1	yes	57	0	552
6.6.1	win	2022-12-14	15:18:20	15:31:37	793341	5b066e00f58f8400018b0906	410248622	1	main_z	7	main_z	65	stimuli_target_circlediamonds.svg	stimuli_distractor_trianglediamonds.svg	2	yes	44	1	400
6.6.1	win	2022-12-14	15:18:20	15:31:37	793341	5b066e00f58f8400018b0906	410248622	1	main_z	7	advance_on_keypress_ZEE	66	stimuli_target_circlediamonds.svg	stimuli_distractor_trianglediamonds.svg	2	yes	57	0	688
6.6.1	win	2022-12-14	15:18:20	15:31:39	795070	5b066e00f58f8400018b0906	410248622	1	main_z	7	main_z	67	stimuli_target_circlediamonds.svg	stimuli_distractor_diamondtriangles.svg	6	yes	44	1	388
6.6.1	win	2022-12-14	15:18:20	15:31:39	795070	5b066e00f58f8400018b0906	410248622	1	main_z	7	advance_on_keypress_ZEE	68	stimuli_target_circlediamonds.svg	stimuli_distractor_diamondtriangles.svg	6	yes	57	0	570
6.6.1	win	2022-12-14	15:18:20	15:31:41	796776	5b066e00f58f8400018b0906	410248622	1	main_z	7	main_z	69	stimuli_distractor_diamondtriangles.svg	stimuli_target_trianglecircles.svg	29	yes	44	1	483
6.6.1	win	2022-12-14	15:18:20	15:31:41	796776	5b066e00f58f8400018b0906	410248622	1	main_z	7	advance_on_keypress_ZEE	70	stimuli_distractor_diamondtriangles.svg	stimuli_target_trianglecircles.svg	29	yes	57	0	487
6.6.1	win	2022-12-14	15:18:20	15:31:42	798464	5b066e00f58f8400018b0906	410248622	1	main_z	7	main_z	71	stimuli_distractor_trianglediamonds.svg	stimuli_target_diamondsquares.svg	28	yes	44	1	523
6.6.1	win	2022-12-14	15:18:20	15:31:42	798464	5b066e00f58f8400018b0906	410248622	1	main_z	7	advance_on_keypress_ZEE	72	stimuli_distractor_trianglediamonds.svg	stimuli_target_diamondsquares.svg	28	yes	57	0	842
6.6.1	win	2022-12-14	15:18:20	15:31:45	800569	5b066e00f58f8400018b0906	410248622	1	main_z	7	main_z	73	stimuli_target_squaretriangles.svg	stimuli_distractor_diamondtriangles.svg	7	yes	44	1	588
6.6.1	win	2022-12-14	15:18:20	15:31:45	800569	5b066e00f58f8400018b0906	410248622	1	main_z	7	advance_on_keypress_ZEE	74	stimuli_target_squaretriangles.svg	stimuli_distractor_diamondtriangles.svg	7	yes	57	0	461
6.6.1	win	2022-12-14	15:18:20	15:31:48	803699	5b066e00f58f8400018b0906	410248622	1	main_z	7	main_z	75	stimuli_distractor_diamondtriangles.svg	stimuli_distractor_diamondtriangles.svg	39	no	0	1	2000
6.6.1	win	2022-12-14	15:18:20	15:31:48	803699	5b066e00f58f8400018b0906	410248622	1	main_z	7	advance_on_keypress_ZEE	76	stimuli_distractor_diamondtriangles.svg	stimuli_distractor_diamondtriangles.svg	39	no	57	0	320
6.6.1	win	2022-12-14	15:18:20	15:31:49	805132	5b066e00f58f8400018b0906	410248622	1	main_z	7	main_z	77	stimuli_target_trianglecircles.svg	stimuli_distractor_trianglediamonds.svg	17	yes	44	1	457
6.6.1	win	2022-12-14	15:18:20	15:31:49	805132	5b066e00f58f8400018b0906	410248622	1	main_z	7	advance_on_keypress_ZEE	78	stimuli_target_trianglecircles.svg	stimuli_distractor_trianglediamonds.svg	17	yes	57	0	470
6.6.1	win	2022-12-14	15:18:20	15:31:51	806652	5b066e00f58f8400018b0906	410248622	1	main_z	7	main_z	79	stimuli_target_trianglecircles.svg	stimuli_distractor_diamondtriangles.svg	21	yes	44	1	410
6.6.1	win	2022-12-14	15:18:20	15:31:51	806652	5b066e00f58f8400018b0906	410248622	1	main_z	7	advance_on_keypress_ZEE	80	stimuli_target_trianglecircles.svg	stimuli_distractor_diamondtriangles.svg	21	yes	57	0	472
6.6.1	win	2022-12-14	15:18:20	15:31:52	808267	5b066e00f58f8400018b0906	410248622	1	main_z	7	main_z	81	stimuli_distractor_diamondtriangles.svg	stimuli_target_circletriangles.svg	13	yes	44	1	475
6.6.1	win	2022-12-14	15:18:20	15:31:52	808267	5b066e00f58f8400018b0906	410248622	1	main_z	7	advance_on_keypress_ZEE	82	stimuli_distractor_diamondtriangles.svg	stimuli_target_circletriangles.svg	13	yes	57	0	464
6.6.1	win	2022-12-14	15:18:20	15:31:54	809781	5b066e00f58f8400018b0906	410248622	1	main_z	7	main_z	83	stimuli_distractor_trianglediamonds.svg	stimuli_target_squaretriangles.svg	11	yes	44	1	388
6.6.1	win	2022-12-14	15:18:20	15:31:54	809781	5b066e00f58f8400018b0906	410248622	1	main_z	7	advance_on_keypress_ZEE	84	stimuli_distractor_trianglediamonds.svg	stimuli_target_squaretriangles.svg	11	yes	57	0	531
6.6.1	win	2022-12-14	15:18:20	15:31:56	811525	5b066e00f58f8400018b0906	410248622	1	main_z	7	main_z	85	stimuli_target_trianglecircles.svg	stimuli_distractor_diamondtriangles.svg	21	yes	44	1	564
6.6.1	win	2022-12-14	15:18:20	15:31:56	811525	5b066e00f58f8400018b0906	410248622	1	main_z	7	advance_on_keypress_ZEE	86	stimuli_target_trianglecircles.svg	stimuli_distractor_diamondtriangles.svg	21	yes	57	0	454
6.6.1	win	2022-12-14	15:18:20	15:31:59	814630	5b066e00f58f8400018b0906	410248622	1	main_z	7	main_z	87	stimuli_target_diamondsquares.svg	stimuli_distractor_diamondtriangles.svg	24	yes	0	0	2000
6.6.1	win	2022-12-14	15:18:20	15:31:59	814630	5b066e00f58f8400018b0906	410248622	1	main_z	7	advance_on_keypress_ZEE	88	stimuli_target_diamondsquares.svg	stimuli_distractor_diamondtriangles.svg	24	yes	57	0	480
6.6.1	win	2022-12-14	15:18:20	15:32:00	816500	5b066e00f58f8400018b0906	410248622	1	main_z	7	main_z	89	stimuli_distractor_diamondtriangles.svg	stimuli_target_squarediamonds.svg	16	yes	44	1	739
6.6.1	win	2022-12-14	15:18:20	15:32:00	816500	5b066e00f58f8400018b0906	410248622	1	main_z	7	advance_on_keypress_ZEE	90	stimuli_distractor_diamondtriangles.svg	stimuli_target_squarediamonds.svg	16	yes	57	0	469
6.6.1	win	2022-12-14	15:18:20	15:32:02	818084	5b066e00f58f8400018b0906	410248622	1	main_z	7	main_z	91	stimuli_target_trianglecircles.svg	stimuli_distractor_trianglediamonds.svg	17	yes	44	1	473
6.6.1	win	2022-12-14	15:18:20	15:32:02	818084	5b066e00f58f8400018b0906	410248622	1	main_z	7	advance_on_keypress_ZEE	92	stimuli_target_trianglecircles.svg	stimuli_distractor_trianglediamonds.svg	17	yes	57	0	445
6.6.1	win	2022-12-14	15:18:20	15:32:04	819804	5b066e00f58f8400018b0906	410248622	1	main_z	7	main_z	93	stimuli_distractor_trianglediamonds.svg	stimuli_target_diamondsquares.svg	28	yes	44	1	626
6.6.1	win	2022-12-14	15:18:20	15:32:04	819804	5b066e00f58f8400018b0906	410248622	1	main_z	7	advance_on_keypress_ZEE	94	stimuli_distractor_trianglediamonds.svg	stimuli_target_diamondsquares.svg	28	yes	57	0	825
6.6.1	win	2022-12-14	15:18:20	15:32:06	821692	5b066e00f58f8400018b0906	410248622	1	main_z	7	main_z	95	stimuli_distractor_diamondtriangles.svg	stimuli_distractor_trianglediamonds.svg	37	no	44	0	413
6.6.1	win	2022-12-14	15:18:20	15:32:06	821692	5b066e00f58f8400018b0906	410248622	1	main_z	7	advance_on_keypress_ZEE	96	stimuli_distractor_diamondtriangles.svg	stimuli_distractor_trianglediamonds.svg	37	no	57	0	637
6.6.1	win	2022-12-14	15:18:20	15:32:09	824979	5b066e00f58f8400018b0906	410248622	1	main_z	7	main_z	97	stimuli_distractor_diamondtriangles.svg	stimuli_distractor_trianglediamonds.svg	38	no	0	1	2000
6.6.1	win	2022-12-14	15:18:20	15:32:09	824979	5b066e00f58f8400018b0906	410248622	1	main_z	7	advance_on_keypress_ZEE	98	stimuli_distractor_diamondtriangles.svg	stimuli_distractor_trianglediamonds.svg	38	no	57	0	311
6.6.1	win	2022-12-14	15:18:20	15:32:10	826317	5b066e00f58f8400018b0906	410248622	1	main_z	7	main_z	99	stimuli_distractor_trianglediamonds.svg	stimuli_target_squarediamonds.svg	12	yes	44	1	350
6.6.1	win	2022-12-14	15:18:20	15:32:10	826317	5b066e00f58f8400018b0906	410248622	1	main_z	7	advance_on_keypress_ZEE	100	stimuli_distractor_trianglediamonds.svg	stimuli_target_squarediamonds.svg	12	yes	57	0	441
6.6.1	win	2022-12-14	15:18:20	15:32:12	827844	5b066e00f58f8400018b0906	410248622	1	main_z	7	main_z	101	stimuli_target_squaretriangles.svg	stimuli_distractor_diamondtriangles.svg	7	yes	44	1	397
6.6.1	win	2022-12-14	15:18:20	15:32:12	827844	5b066e00f58f8400018b0906	410248622	1	main_z	7	advance_on_keypress_ZEE	102	stimuli_target_squaretriangles.svg	stimuli_distractor_diamondtriangles.svg	7	yes	57	0	484
6.6.1	win	2022-12-14	15:18:20	15:32:13	829429	5b066e00f58f8400018b0906	410248622	1	main_z	7	main_z	103	stimuli_target_squarediamonds.svg	stimuli_distractor_diamondtriangles.svg	8	yes	44	1	430
6.6.1	win	2022-12-14	15:18:20	15:32:13	829429	5b066e00f58f8400018b0906	410248622	1	main_z	7	advance_on_keypress_ZEE	104	stimuli_target_squarediamonds.svg	stimuli_distractor_diamondtriangles.svg	8	yes	57	0	461
6.6.1	win	2022-12-14	15:18:20	15:32:15	831107	5b066e00f58f8400018b0906	410248622	1	main_z	7	main_z	105	stimuli_target_diamondcircles.svg	stimuli_distractor_trianglediamonds.svg	19	yes	44	1	517
6.6.1	win	2022-12-14	15:18:20	15:32:15	831107	5b066e00f58f8400018b0906	410248622	1	main_z	7	advance_on_keypress_ZEE	106	stimuli_target_diamondcircles.svg	stimuli_distractor_trianglediamonds.svg	19	yes	57	0	497
6.6.1	win	2022-12-14	15:18:20	15:32:17	832756	5b066e00f58f8400018b0906	410248622	1	main_z	7	main_z	107	stimuli_target_squaretriangles.svg	stimuli_distractor_trianglediamonds.svg	3	yes	44	1	469
6.6.1	win	2022-12-14	15:18:20	15:32:17	832756	5b066e00f58f8400018b0906	410248622	1	main_z	7	advance_on_keypress_ZEE	108	stimuli_target_squaretriangles.svg	stimuli_distractor_trianglediamonds.svg	3	yes	57	0	438
6.6.1	win	2022-12-14	15:18:20	15:32:18	834205	5b066e00f58f8400018b0906	410248622	1	main_z	7	main_z	109	stimuli_target_circlediamonds.svg	stimuli_distractor_trianglediamonds.svg	2	yes	44	1	355
6.6.1	win	2022-12-14	15:18:20	15:32:18	834205	5b066e00f58f8400018b0906	410248622	1	main_z	7	advance_on_keypress_ZEE	110	stimuli_target_circlediamonds.svg	stimuli_distractor_trianglediamonds.svg	2	yes	57	0	524
6.6.1	win	2022-12-14	15:18:20	15:32:20	835781	5b066e00f58f8400018b0906	410248622	1	main_z	7	main_z	111	stimuli_distractor_trianglediamonds.svg	stimuli_target_circlediamonds.svg	10	yes	44	1	399
6.6.1	win	2022-12-14	15:18:20	15:32:20	835781	5b066e00f58f8400018b0906	410248622	1	main_z	7	advance_on_keypress_ZEE	112	stimuli_distractor_trianglediamonds.svg	stimuli_target_circlediamonds.svg	10	yes	57	0	406
6.6.1	win	2022-12-14	15:18:20	15:32:22	837860	5b066e00f58f8400018b0906	410248622	1	main_z	7	main_z	113	stimuli_distractor_trianglediamonds.svg	stimuli_distractor_diamondtriangles.svg	36	no	44	0	1027
6.6.1	win	2022-12-14	15:18:20	15:32:22	837860	5b066e00f58f8400018b0906	410248622	1	main_z	7	advance_on_keypress_ZEE	114	stimuli_distractor_trianglediamonds.svg	stimuli_distractor_diamondtriangles.svg	36	no	57	0	857
6.6.1	win	2022-12-14	15:18:20	15:32:25	841366	5b066e00f58f8400018b0906	410248622	1	main_z	7	main_z	115	stimuli_distractor_trianglediamonds.svg	stimuli_distractor_trianglediamonds.svg	33	no	0	1	2000
6.6.1	win	2022-12-14	15:18:20	15:32:25	841366	5b066e00f58f8400018b0906	410248622	1	main_z	7	advance_on_keypress_ZEE	116	stimuli_distractor_trianglediamonds.svg	stimuli_distractor_trianglediamonds.svg	33	no	57	0	404
6.6.1	win	2022-12-14	15:18:20	15:32:27	842740	5b066e00f58f8400018b0906	410248622	1	main_z	7	main_z	117	stimuli_target_trianglesquares.svg	stimuli_distractor_trianglediamonds.svg	18	yes	44	1	323
6.6.1	win	2022-12-14	15:18:20	15:32:27	842740	5b066e00f58f8400018b0906	410248622	1	main_z	7	advance_on_keypress_ZEE	118	stimuli_target_trianglesquares.svg	stimuli_distractor_trianglediamonds.svg	18	yes	57	0	549
6.6.1	win	2022-12-14	15:18:20	15:32:28	844244	5b066e00f58f8400018b0906	410248622	1	main_z	7	main_z	119	stimuli_distractor_trianglediamonds.svg	stimuli_target_trianglecircles.svg	25	yes	44	1	310
6.6.1	win	2022-12-14	15:18:20	15:32:28	844244	5b066e00f58f8400018b0906	410248622	1	main_z	7	advance_on_keypress_ZEE	120	stimuli_distractor_trianglediamonds.svg	stimuli_target_trianglecircles.svg	25	yes	57	0	602
6.6.1	win	2022-12-14	15:18:20	15:32:31	847507	5b066e00f58f8400018b0906	410248622	1	main_z	7	main_z	121	stimuli_distractor_trianglediamonds.svg	stimuli_distractor_trianglediamonds.svg	34	no	0	1	2000
6.6.1	win	2022-12-14	15:18:20	15:32:31	847507	5b066e00f58f8400018b0906	410248622	1	main_z	7	advance_on_keypress_ZEE	122	stimuli_distractor_trianglediamonds.svg	stimuli_distractor_trianglediamonds.svg	34	no	57	0	366
6.6.1	win	2022-12-14	15:18:20	15:32:35	850536	5b066e00f58f8400018b0906	410248622	1	main_z	7	main_z	123	stimuli_distractor_diamondtriangles.svg	stimuli_distractor_diamondtriangles.svg	40	no	0	1	2000
6.6.1	win	2022-12-14	15:18:20	15:32:35	850536	5b066e00f58f8400018b0906	410248622	1	main_z	7	advance_on_keypress_ZEE	124	stimuli_distractor_diamondtriangles.svg	stimuli_distractor_diamondtriangles.svg	40	no	57	0	468
6.6.1	win	2022-12-14	15:18:20	15:32:36	851995	5b066e00f58f8400018b0906	410248622	1	main_z	7	main_z	125	stimuli_target_circletriangles.svg	stimuli_distractor_diamondtriangles.svg	5	yes	44	1	343
6.6.1	win	2022-12-14	15:18:20	15:32:36	851995	5b066e00f58f8400018b0906	410248622	1	main_z	7	advance_on_keypress_ZEE	126	stimuli_target_circletriangles.svg	stimuli_distractor_diamondtriangles.svg	5	yes	57	0	617
6.6.1	win	2022-12-14	15:18:20	15:32:38	853724	5b066e00f58f8400018b0906	410248622	1	main_z	7	main_z	127	stimuli_distractor_diamondtriangles.svg	stimuli_target_diamondcircles.svg	31	yes	44	1	454
6.6.1	win	2022-12-14	15:18:20	15:32:38	853724	5b066e00f58f8400018b0906	410248622	1	main_z	7	advance_on_keypress_ZEE	128	stimuli_distractor_diamondtriangles.svg	stimuli_target_diamondcircles.svg	31	yes	57	0	475
6.6.1	win	2022-12-14	15:18:20	15:32:41	856854	5b066e00f58f8400018b0906	410248622	1	main_z	7	main_z	129	stimuli_distractor_trianglediamonds.svg	stimuli_distractor_diamondtriangles.svg	35	no	0	1	2000
6.6.1	win	2022-12-14	15:18:20	15:32:41	856854	5b066e00f58f8400018b0906	410248622	1	main_z	7	advance_on_keypress_ZEE	130	stimuli_distractor_trianglediamonds.svg	stimuli_distractor_diamondtriangles.svg	35	no	57	0	654
6.6.1	win	2022-12-14	15:18:20	15:32:43	858548	5b066e00f58f8400018b0906	410248622	1	main_z	7	main_z	131	stimuli_target_trianglesquares.svg	stimuli_distractor_diamondtriangles.svg	22	yes	44	1	394
6.6.1	win	2022-12-14	15:18:20	15:32:43	858548	5b066e00f58f8400018b0906	410248622	1	main_z	7	advance_on_keypress_ZEE	132	stimuli_target_trianglesquares.svg	stimuli_distractor_diamondtriangles.svg	22	yes	57	0	433
6.6.1	win	2022-12-14	15:18:20	15:32:44	860377	5b066e00f58f8400018b0906	410248622	1	main_z	7	main_z	133	stimuli_target_diamondsquares.svg	stimuli_distractor_trianglediamonds.svg	20	yes	44	1	739
6.6.1	win	2022-12-14	15:18:20	15:32:44	860377	5b066e00f58f8400018b0906	410248622	1	main_z	7	advance_on_keypress_ZEE	134	stimuli_target_diamondsquares.svg	stimuli_distractor_trianglediamonds.svg	20	yes	57	0	541
6.6.1	win	2022-12-14	15:18:20	15:32:46	862174	5b066e00f58f8400018b0906	410248622	1	main_z	7	main_z	135	stimuli_distractor_diamondtriangles.svg	stimuli_target_squaretriangles.svg	15	yes	44	1	565
6.6.1	win	2022-12-14	15:18:20	15:32:46	862174	5b066e00f58f8400018b0906	410248622	1	main_z	7	advance_on_keypress_ZEE	136	stimuli_distractor_diamondtriangles.svg	stimuli_target_squaretriangles.svg	15	yes	57	0	567
6.6.1	win	2022-12-14	15:18:20	15:32:48	863798	5b066e00f58f8400018b0906	410248622	1	main_z	7	main_z	137	stimuli_distractor_trianglediamonds.svg	stimuli_target_circletriangles.svg	9	yes	44	1	406
6.6.1	win	2022-12-14	15:18:20	15:32:48	863798	5b066e00f58f8400018b0906	410248622	1	main_z	7	advance_on_keypress_ZEE	138	stimuli_distractor_trianglediamonds.svg	stimuli_target_circletriangles.svg	9	yes	57	0	422
6.6.1	win	2022-12-14	15:18:20	15:32:49	865286	5b066e00f58f8400018b0906	410248622	1	main_z	7	main_z	139	stimuli_target_squarediamonds.svg	stimuli_distractor_trianglediamonds.svg	4	yes	44	1	389
6.6.1	win	2022-12-14	15:18:20	15:32:49	865286	5b066e00f58f8400018b0906	410248622	1	main_z	7	advance_on_keypress_ZEE	140	stimuli_target_squarediamonds.svg	stimuli_distractor_trianglediamonds.svg	4	yes	57	0	474
6.6.1	win	2022-12-14	15:18:20	15:32:51	867009	5b066e00f58f8400018b0906	410248622	1	main_z	7	main_z	141	stimuli_distractor_diamondtriangles.svg	stimuli_target_diamondsquares.svg	32	yes	44	1	576
6.6.1	win	2022-12-14	15:18:20	15:32:51	867009	5b066e00f58f8400018b0906	410248622	1	main_z	7	advance_on_keypress_ZEE	142	stimuli_distractor_diamondtriangles.svg	stimuli_target_diamondsquares.svg	32	yes	57	0	541
6.6.1	win	2022-12-14	15:18:20	15:32:53	868565	5b066e00f58f8400018b0906	410248622	1	main_z	7	main_z	143	stimuli_target_circletriangles.svg	stimuli_distractor_trianglediamonds.svg	1	yes	44	1	357
6.6.1	win	2022-12-14	15:18:20	15:32:53	868565	5b066e00f58f8400018b0906	410248622	1	main_z	7	advance_on_keypress_ZEE	144	stimuli_target_circletriangles.svg	stimuli_distractor_trianglediamonds.svg	1	yes	57	0	414
6.6.1	win	2022-12-14	15:18:20	15:32:54	869980	5b066e00f58f8400018b0906	410248622	1	main_z	7	main_z	145	stimuli_distractor_diamondtriangles.svg	stimuli_target_circlediamonds.svg	14	yes	44	1	340
6.6.1	win	2022-12-14	15:18:20	15:32:54	869980	5b066e00f58f8400018b0906	410248622	1	main_z	7	advance_on_keypress_ZEE	146	stimuli_distractor_diamondtriangles.svg	stimuli_target_circlediamonds.svg	14	yes	57	0	429
6.6.1	win	2022-12-14	15:18:20	15:32:55	871429	5b066e00f58f8400018b0906	410248622	1	main_z	7	main_z	147	stimuli_target_circlediamonds.svg	stimuli_distractor_diamondtriangles.svg	6	yes	44	1	354
6.6.1	win	2022-12-14	15:18:20	15:32:55	871429	5b066e00f58f8400018b0906	410248622	1	main_z	7	advance_on_keypress_ZEE	148	stimuli_target_circlediamonds.svg	stimuli_distractor_diamondtriangles.svg	6	yes	57	0	459
6.6.1	win	2022-12-14	15:18:20	15:32:57	873013	5b066e00f58f8400018b0906	410248622	1	main_z	7	main_z	149	stimuli_distractor_trianglediamonds.svg	stimuli_target_diamondcircles.svg	27	yes	44	1	471
6.6.1	win	2022-12-14	15:18:20	15:32:57	873013	5b066e00f58f8400018b0906	410248622	1	main_z	7	advance_on_keypress_ZEE	150	stimuli_distractor_trianglediamonds.svg	stimuli_target_diamondcircles.svg	27	yes	57	0	379
6.6.1	win	2022-12-14	15:18:20	15:32:58	874453	5b066e00f58f8400018b0906	410248622	1	main_z	7	main_z	151	stimuli_distractor_trianglediamonds.svg	stimuli_target_trianglesquares.svg	26	yes	44	1	412
6.6.1	win	2022-12-14	15:18:20	15:32:58	874453	5b066e00f58f8400018b0906	410248622	1	main_z	7	advance_on_keypress_ZEE	152	stimuli_distractor_trianglediamonds.svg	stimuli_target_trianglesquares.svg	26	yes	57	0	649
6.6.1	win	2022-12-14	15:18:20	15:33:00	876264	5b066e00f58f8400018b0906	410248622	1	main_z	7	main_z	153	stimuli_target_diamondcircles.svg	stimuli_distractor_diamondtriangles.svg	23	yes	44	1	485
6.6.1	win	2022-12-14	15:18:20	15:33:00	876264	5b066e00f58f8400018b0906	410248622	1	main_z	7	advance_on_keypress_ZEE	154	stimuli_target_diamondcircles.svg	stimuli_distractor_diamondtriangles.svg	23	yes	57	0	393
6.6.1	win	2022-12-14	15:18:20	15:33:03	879313	5b066e00f58f8400018b0906	410248622	1	main_z	7	main_z	155	stimuli_distractor_diamondtriangles.svg	stimuli_distractor_diamondtriangles.svg	39	no	0	1	2000
6.6.1	win	2022-12-14	15:18:20	15:33:03	879313	5b066e00f58f8400018b0906	410248622	1	main_z	7	advance_on_keypress_ZEE	156	stimuli_distractor_diamondtriangles.svg	stimuli_distractor_diamondtriangles.svg	39	no	57	0	9015
6.6.1	win	2022-12-14	15:18:20	15:33:13	889447	5b066e00f58f8400018b0906	410248622	1	main_z	7	main_z	157	stimuli_distractor_diamondtriangles.svg	stimuli_target_trianglecircles.svg	29	yes	44	1	459
6.6.1	win	2022-12-14	15:18:20	15:33:13	889447	5b066e00f58f8400018b0906	410248622	1	main_z	7	advance_on_keypress_ZEE	158	stimuli_distractor_diamondtriangles.svg	stimuli_target_trianglecircles.svg	29	yes	57	0	502
6.6.1	win	2022-12-14	15:18:20	15:33:15	890932	5b066e00f58f8400018b0906	410248622	1	main_z	7	main_z	159	stimuli_distractor_diamondtriangles.svg	stimuli_target_trianglesquares.svg	30	yes	44	1	337
6.6.1	win	2022-12-14	15:18:20	15:33:15	890932	5b066e00f58f8400018b0906	410248622	1	main_z	7	advance_on_keypress_ZEE	160	stimuli_distractor_diamondtriangles.svg	stimuli_target_trianglesquares.svg	30	yes	57	0	468
6.6.1	win	2022-12-14	15:18:20	15:33:48	923938	5b066e00f58f8400018b0906	410248622	1	practice_slash	9	practice_slash	1	stimuli_target_diamondsquares.svg	stimuli_distractor_trianglediamonds.svg	6	yes	53	1	396
6.6.1	win	2022-12-14	15:18:20	15:33:48	923938	5b066e00f58f8400018b0906	410248622	1	practice_slash	9	advance_on_keypress_SLASH	2	stimuli_target_diamondsquares.svg	stimuli_distractor_trianglediamonds.svg	6	yes	57	0	3292
6.6.1	win	2022-12-14	15:18:20	15:33:55	930898	5b066e00f58f8400018b0906	410248622	1	practice_slash	9	practice_slash	3	stimuli_distractor_diamondtriangles.svg	stimuli_distractor_trianglediamonds.svg	14	no	0	1	2000
6.6.1	win	2022-12-14	15:18:20	15:33:55	930898	5b066e00f58f8400018b0906	410248622	1	practice_slash	9	advance_on_keypress_SLASH	4	stimuli_distractor_diamondtriangles.svg	stimuli_distractor_trianglediamonds.svg	14	no	57	0	460
6.6.1	win	2022-12-14	15:18:20	15:33:59	935040	5b066e00f58f8400018b0906	410248622	1	practice_slash	9	practice_slash	5	stimuli_distractor_diamondtriangles.svg	stimuli_distractor_diamondtriangles.svg	13	no	0	1	2000
6.6.1	win	2022-12-14	15:18:20	15:33:59	935040	5b066e00f58f8400018b0906	410248622	1	practice_slash	9	advance_on_keypress_SLASH	6	stimuli_distractor_diamondtriangles.svg	stimuli_distractor_diamondtriangles.svg	13	no	57	0	429
6.6.1	win	2022-12-14	15:18:20	15:34:02	937642	5b066e00f58f8400018b0906	410248622	1	practice_slash	9	practice_slash	7	stimuli_distractor_trianglediamonds.svg	stimuli_target_diamondcircles.svg	12	yes	53	1	514
6.6.1	win	2022-12-14	15:18:20	15:34:02	937642	5b066e00f58f8400018b0906	410248622	1	practice_slash	9	advance_on_keypress_SLASH	8	stimuli_distractor_trianglediamonds.svg	stimuli_target_diamondcircles.svg	12	yes	57	0	476
6.6.1	win	2022-12-14	15:18:20	15:34:06	941776	5b066e00f58f8400018b0906	410248622	1	practice_slash	9	practice_slash	9	stimuli_distractor_trianglediamonds.svg	stimuli_distractor_trianglediamonds.svg	15	no	0	1	2000
6.6.1	win	2022-12-14	15:18:20	15:34:06	941776	5b066e00f58f8400018b0906	410248622	1	practice_slash	9	advance_on_keypress_SLASH	10	stimuli_distractor_trianglediamonds.svg	stimuli_distractor_trianglediamonds.svg	15	no	57	0	390
6.6.1	win	2022-12-14	15:18:20	15:34:08	944296	5b066e00f58f8400018b0906	410248622	1	practice_slash	9	practice_slash	11	stimuli_target_squarediamonds.svg	stimuli_distractor_trianglediamonds.svg	5	yes	53	1	468
6.6.1	win	2022-12-14	15:18:20	15:34:08	944296	5b066e00f58f8400018b0906	410248622	1	practice_slash	9	advance_on_keypress_SLASH	12	stimuli_target_squarediamonds.svg	stimuli_distractor_trianglediamonds.svg	5	yes	57	0	561
6.6.1	win	2022-12-14	15:18:20	15:34:11	946996	5b066e00f58f8400018b0906	410248622	1	practice_slash	9	practice_slash	13	stimuli_distractor_trianglediamonds.svg	stimuli_target_circlediamonds.svg	10	yes	53	1	481
6.6.1	win	2022-12-14	15:18:20	15:34:11	946996	5b066e00f58f8400018b0906	410248622	1	practice_slash	9	advance_on_keypress_SLASH	14	stimuli_distractor_trianglediamonds.svg	stimuli_target_circlediamonds.svg	10	yes	57	0	458
6.6.1	win	2022-12-14	15:18:20	15:34:14	949544	5b066e00f58f8400018b0906	410248622	1	practice_slash	9	practice_slash	15	stimuli_distractor_diamondtriangles.svg	stimuli_target_diamondcircles.svg	8	yes	53	1	415
6.6.1	win	2022-12-14	15:18:20	15:34:14	949544	5b066e00f58f8400018b0906	410248622	1	practice_slash	9	advance_on_keypress_SLASH	16	stimuli_distractor_diamondtriangles.svg	stimuli_target_diamondcircles.svg	8	yes	57	0	440
6.6.1	win	2022-12-14	15:18:20	15:34:16	952099	5b066e00f58f8400018b0906	410248622	1	practice_slash	9	practice_slash	17	stimuli_target_squarediamonds.svg	stimuli_distractor_diamondtriangles.svg	2	yes	53	1	447
6.6.1	win	2022-12-14	15:18:20	15:34:16	952099	5b066e00f58f8400018b0906	410248622	1	practice_slash	9	advance_on_keypress_SLASH	18	stimuli_target_squarediamonds.svg	stimuli_distractor_diamondtriangles.svg	2	yes	57	0	398
6.6.1	win	2022-12-14	15:18:20	15:34:19	954617	5b066e00f58f8400018b0906	410248622	1	practice_slash	9	practice_slash	19	stimuli_target_circlediamonds.svg	stimuli_distractor_diamondtriangles.svg	1	yes	53	1	453
6.6.1	win	2022-12-14	15:18:20	15:34:19	954617	5b066e00f58f8400018b0906	410248622	1	practice_slash	9	advance_on_keypress_SLASH	20	stimuli_target_circlediamonds.svg	stimuli_distractor_diamondtriangles.svg	1	yes	57	0	419
6.6.1	win	2022-12-14	15:18:20	15:34:21	957032	5b066e00f58f8400018b0906	410248622	1	practice_slash	9	practice_slash	21	stimuli_target_circlediamonds.svg	stimuli_distractor_trianglediamonds.svg	4	yes	53	1	351
6.6.1	win	2022-12-14	15:18:20	15:34:21	957032	5b066e00f58f8400018b0906	410248622	1	practice_slash	9	advance_on_keypress_SLASH	22	stimuli_target_circlediamonds.svg	stimuli_distractor_trianglediamonds.svg	4	yes	57	0	408
6.6.1	win	2022-12-14	15:18:20	15:34:23	959439	5b066e00f58f8400018b0906	410248622	1	practice_slash	9	practice_slash	23	stimuli_distractor_trianglediamonds.svg	stimuli_target_squarediamonds.svg	11	yes	53	1	325
6.6.1	win	2022-12-14	15:18:20	15:34:23	959439	5b066e00f58f8400018b0906	410248622	1	practice_slash	9	advance_on_keypress_SLASH	24	stimuli_distractor_trianglediamonds.svg	stimuli_target_squarediamonds.svg	11	yes	57	0	479
6.6.1	win	2022-12-14	15:18:20	15:34:26	962147	5b066e00f58f8400018b0906	410248622	1	practice_slash	9	practice_slash	25	stimuli_target_diamondsquares.svg	stimuli_distractor_diamondtriangles.svg	3	yes	53	1	562
6.6.1	win	2022-12-14	15:18:20	15:34:26	962147	5b066e00f58f8400018b0906	410248622	1	practice_slash	9	advance_on_keypress_SLASH	26	stimuli_target_diamondsquares.svg	stimuli_distractor_diamondtriangles.svg	3	yes	57	0	410
6.6.1	win	2022-12-14	15:18:20	15:34:29	964615	5b066e00f58f8400018b0906	410248622	1	practice_slash	9	practice_slash	27	stimuli_distractor_trianglediamonds.svg	stimuli_distractor_diamondtriangles.svg	16	no	53	0	364
6.6.1	win	2022-12-14	15:18:20	15:34:29	964615	5b066e00f58f8400018b0906	410248622	1	practice_slash	9	advance_on_keypress_SLASH	28	stimuli_distractor_trianglediamonds.svg	stimuli_distractor_diamondtriangles.svg	16	no	57	0	1199
6.6.1	win	2022-12-14	15:18:20	15:34:32	967940	5b066e00f58f8400018b0906	410248622	1	practice_slash	9	practice_slash	29	stimuli_distractor_diamondtriangles.svg	stimuli_target_trianglecircles.svg	9	yes	53	1	410
6.6.1	win	2022-12-14	15:18:20	15:34:32	967940	5b066e00f58f8400018b0906	410248622	1	practice_slash	9	advance_on_keypress_SLASH	30	stimuli_distractor_diamondtriangles.svg	stimuli_target_trianglecircles.svg	9	yes	57	0	418
6.6.1	win	2022-12-14	15:18:20	15:34:34	970352	5b066e00f58f8400018b0906	410248622	1	practice_slash	9	practice_slash	31	stimuli_distractor_diamondtriangles.svg	stimuli_target_circletriangles.svg	7	yes	53	1	335
6.6.1	win	2022-12-14	15:18:20	15:34:34	970352	5b066e00f58f8400018b0906	410248622	1	practice_slash	9	advance_on_keypress_SLASH	32	stimuli_distractor_diamondtriangles.svg	stimuli_target_circletriangles.svg	7	yes	57	0	457
6.6.1	win	2022-12-14	15:18:20	15:34:42	977632	5b066e00f58f8400018b0906	410248622	1	main_slash	11	main_slash	1	stimuli_distractor_trianglediamonds.svg	stimuli_distractor_trianglediamonds.svg	34	no	0	1	2000
6.6.1	win	2022-12-14	15:18:20	15:34:42	977632	5b066e00f58f8400018b0906	410248622	1	main_slash	11	advance_on_keypress_SLASH	2	stimuli_distractor_trianglediamonds.svg	stimuli_distractor_trianglediamonds.svg	34	no	57	0	307
6.6.1	win	2022-12-14	15:18:20	15:34:43	979046	5b066e00f58f8400018b0906	410248622	1	main_slash	11	main_slash	3	stimuli_target_trianglesquares.svg	stimuli_distractor_trianglediamonds.svg	18	yes	53	1	446
6.6.1	win	2022-12-14	15:18:20	15:34:43	979046	5b066e00f58f8400018b0906	410248622	1	main_slash	11	advance_on_keypress_SLASH	4	stimuli_target_trianglesquares.svg	stimuli_distractor_trianglediamonds.svg	18	yes	57	0	716
6.6.1	win	2022-12-14	15:18:20	15:34:45	980836	5b066e00f58f8400018b0906	410248622	1	main_slash	11	main_slash	5	stimuli_target_squarediamonds.svg	stimuli_distractor_diamondtriangles.svg	8	yes	53	1	420
6.6.1	win	2022-12-14	15:18:20	15:34:45	980836	5b066e00f58f8400018b0906	410248622	1	main_slash	11	advance_on_keypress_SLASH	6	stimuli_target_squarediamonds.svg	stimuli_distractor_diamondtriangles.svg	8	yes	57	0	499
6.6.1	win	2022-12-14	15:18:20	15:34:46	982294	5b066e00f58f8400018b0906	410248622	1	main_slash	11	main_slash	7	stimuli_distractor_trianglediamonds.svg	stimuli_target_circlediamonds.svg	10	yes	53	1	309
6.6.1	win	2022-12-14	15:18:20	15:34:46	982294	5b066e00f58f8400018b0906	410248622	1	main_slash	11	advance_on_keypress_SLASH	8	stimuli_distractor_trianglediamonds.svg	stimuli_target_circlediamonds.svg	10	yes	57	0	601
6.6.1	win	2022-12-14	15:18:20	15:34:48	983996	5b066e00f58f8400018b0906	410248622	1	main_slash	11	main_slash	9	stimuli_target_trianglecircles.svg	stimuli_distractor_diamondtriangles.svg	21	yes	53	1	446
6.6.1	win	2022-12-14	15:18:20	15:34:48	983996	5b066e00f58f8400018b0906	410248622	1	main_slash	11	advance_on_keypress_SLASH	10	stimuli_target_trianglecircles.svg	stimuli_distractor_diamondtriangles.svg	21	yes	57	0	412
6.6.1	win	2022-12-14	15:18:20	15:34:49	985420	5b066e00f58f8400018b0906	410248622	1	main_slash	11	main_slash	11	stimuli_distractor_diamondtriangles.svg	stimuli_target_squarediamonds.svg	16	yes	53	1	354
6.6.1	win	2022-12-14	15:18:20	15:34:49	985420	5b066e00f58f8400018b0906	410248622	1	main_slash	11	advance_on_keypress_SLASH	12	stimuli_distractor_diamondtriangles.svg	stimuli_target_squarediamonds.svg	16	yes	57	0	402
6.6.1	win	2022-12-14	15:18:20	15:34:51	986988	5b066e00f58f8400018b0906	410248622	1	main_slash	11	main_slash	13	stimuli_distractor_diamondtriangles.svg	stimuli_target_diamondsquares.svg	32	yes	53	1	521
6.6.1	win	2022-12-14	15:18:20	15:34:51	986988	5b066e00f58f8400018b0906	410248622	1	main_slash	11	advance_on_keypress_SLASH	14	stimuli_distractor_diamondtriangles.svg	stimuli_target_diamondsquares.svg	32	yes	57	0	451
6.6.1	win	2022-12-14	15:18:20	15:34:53	988517	5b066e00f58f8400018b0906	410248622	1	main_slash	11	main_slash	15	stimuli_target_diamondcircles.svg	stimuli_distractor_trianglediamonds.svg	19	yes	53	1	432
6.6.1	win	2022-12-14	15:18:20	15:34:53	988517	5b066e00f58f8400018b0906	410248622	1	main_slash	11	advance_on_keypress_SLASH	16	stimuli_target_diamondcircles.svg	stimuli_distractor_trianglediamonds.svg	19	yes	57	0	415
6.6.1	win	2022-12-14	15:18:20	15:34:54	989924	5b066e00f58f8400018b0906	410248622	1	main_slash	11	main_slash	17	stimuli_target_circlediamonds.svg	stimuli_distractor_diamondtriangles.svg	6	yes	53	1	339
6.6.1	win	2022-12-14	15:18:20	15:34:54	989924	5b066e00f58f8400018b0906	410248622	1	main_slash	11	advance_on_keypress_SLASH	18	stimuli_target_circlediamonds.svg	stimuli_distractor_diamondtriangles.svg	6	yes	57	0	388
6.6.1	win	2022-12-14	15:18:20	15:34:55	991388	5b066e00f58f8400018b0906	410248622	1	main_slash	11	main_slash	19	stimuli_distractor_trianglediamonds.svg	stimuli_target_squaretriangles.svg	11	yes	53	1	420
6.6.1	win	2022-12-14	15:18:20	15:34:55	991388	5b066e00f58f8400018b0906	410248622	1	main_slash	11	advance_on_keypress_SLASH	20	stimuli_distractor_trianglediamonds.svg	stimuli_target_squaretriangles.svg	11	yes	57	0	387
6.6.1	win	2022-12-14	15:18:20	15:34:57	992764	5b066e00f58f8400018b0906	410248622	1	main_slash	11	main_slash	21	stimuli_distractor_trianglediamonds.svg	stimuli_target_squarediamonds.svg	12	yes	53	1	345
6.6.1	win	2022-12-14	15:18:20	15:34:57	992764	5b066e00f58f8400018b0906	410248622	1	main_slash	11	advance_on_keypress_SLASH	22	stimuli_distractor_trianglediamonds.svg	stimuli_target_squarediamonds.svg	12	yes	57	0	420
6.6.1	win	2022-12-14	15:18:20	15:35:00	995875	5b066e00f58f8400018b0906	410248622	1	main_slash	11	main_slash	23	stimuli_distractor_diamondtriangles.svg	stimuli_distractor_diamondtriangles.svg	40	no	0	1	2000
6.6.1	win	2022-12-14	15:18:20	15:35:00	995875	5b066e00f58f8400018b0906	410248622	1	main_slash	11	advance_on_keypress_SLASH	24	stimuli_distractor_diamondtriangles.svg	stimuli_distractor_diamondtriangles.svg	40	no	57	0	405
6.6.1	win	2022-12-14	15:18:20	15:35:01	997302	5b066e00f58f8400018b0906	410248622	1	main_slash	11	main_slash	25	stimuli_target_squarediamonds.svg	stimuli_distractor_trianglediamonds.svg	4	yes	53	1	346
6.6.1	win	2022-12-14	15:18:20	15:35:01	997302	5b066e00f58f8400018b0906	410248622	1	main_slash	11	advance_on_keypress_SLASH	26	stimuli_target_squarediamonds.svg	stimuli_distractor_trianglediamonds.svg	4	yes	57	0	453
6.6.1	win	2022-12-14	15:18:20	15:35:03	998833	5b066e00f58f8400018b0906	410248622	1	main_slash	11	main_slash	27	stimuli_distractor_trianglediamonds.svg	stimuli_target_trianglecircles.svg	25	yes	53	1	425
6.6.1	win	2022-12-14	15:18:20	15:35:03	998833	5b066e00f58f8400018b0906	410248622	1	main_slash	11	advance_on_keypress_SLASH	28	stimuli_distractor_trianglediamonds.svg	stimuli_target_trianglecircles.svg	25	yes	57	0	1023
6.6.1	win	2022-12-14	15:18:20	15:35:05	1000871	5b066e00f58f8400018b0906	410248622	1	main_slash	11	main_slash	29	stimuli_distractor_trianglediamonds.svg	stimuli_target_diamondcircles.svg	27	yes	53	1	329
6.6.1	win	2022-12-14	15:18:20	15:35:05	1000871	5b066e00f58f8400018b0906	410248622	1	main_slash	11	advance_on_keypress_SLASH	30	stimuli_distractor_trianglediamonds.svg	stimuli_target_diamondcircles.svg	27	yes	57	0	943
6.6.1	win	2022-12-14	15:18:20	15:35:07	1002903	5b066e00f58f8400018b0906	410248622	1	main_slash	11	main_slash	31	stimuli_target_diamondsquares.svg	stimuli_distractor_trianglediamonds.svg	20	yes	53	1	429
6.6.1	win	2022-12-14	15:18:20	15:35:07	1002903	5b066e00f58f8400018b0906	410248622	1	main_slash	11	advance_on_keypress_SLASH	32	stimuli_target_diamondsquares.svg	stimuli_distractor_trianglediamonds.svg	20	yes	57	0	482
6.6.1	win	2022-12-14	15:18:20	15:35:08	1004444	5b066e00f58f8400018b0906	410248622	1	main_slash	11	main_slash	33	stimuli_target_squaretriangles.svg	stimuli_distractor_diamondtriangles.svg	7	yes	53	1	406
6.6.1	win	2022-12-14	15:18:20	15:35:08	1004444	5b066e00f58f8400018b0906	410248622	1	main_slash	11	advance_on_keypress_SLASH	34	stimuli_target_squaretriangles.svg	stimuli_distractor_diamondtriangles.svg	7	yes	57	0	462
6.6.1	win	2022-12-14	15:18:20	15:35:10	1005845	5b066e00f58f8400018b0906	410248622	1	main_slash	11	main_slash	35	stimuli_distractor_diamondtriangles.svg	stimuli_target_circletriangles.svg	13	yes	53	1	290
6.6.1	win	2022-12-14	15:18:20	15:35:10	1005845	5b066e00f58f8400018b0906	410248622	1	main_slash	11	advance_on_keypress_SLASH	36	stimuli_distractor_diamondtriangles.svg	stimuli_target_circletriangles.svg	13	yes	57	0	477
6.6.1	win	2022-12-14	15:18:20	15:35:11	1007429	5b066e00f58f8400018b0906	410248622	1	main_slash	11	main_slash	37	stimuli_target_trianglecircles.svg	stimuli_distractor_trianglediamonds.svg	17	yes	53	1	456
6.6.1	win	2022-12-14	15:18:20	15:35:11	1007429	5b066e00f58f8400018b0906	410248622	1	main_slash	11	advance_on_keypress_SLASH	38	stimuli_target_trianglecircles.svg	stimuli_distractor_trianglediamonds.svg	17	yes	57	0	41469
6.6.1	win	2022-12-14	15:18:20	15:35:56	1051548	5b066e00f58f8400018b0906	410248622	1	main_slash	11	main_slash	39	stimuli_distractor_trianglediamonds.svg	stimuli_distractor_diamondtriangles.svg	36	no	0	1	2000
6.6.1	win	2022-12-14	15:18:20	15:35:56	1051548	5b066e00f58f8400018b0906	410248622	1	main_slash	11	advance_on_keypress_SLASH	40	stimuli_distractor_trianglediamonds.svg	stimuli_distractor_diamondtriangles.svg	36	no	57	0	278
6.6.1	win	2022-12-14	15:18:20	15:35:57	1053060	5b066e00f58f8400018b0906	410248622	1	main_slash	11	main_slash	41	stimuli_distractor_diamondtriangles.svg	stimuli_distractor_trianglediamonds.svg	37	no	53	0	578
6.6.1	win	2022-12-14	15:18:20	15:35:57	1053060	5b066e00f58f8400018b0906	410248622	1	main_slash	11	advance_on_keypress_SLASH	42	stimuli_distractor_diamondtriangles.svg	stimuli_distractor_trianglediamonds.svg	37	no	57	0	482
6.6.1	win	2022-12-14	15:18:20	15:35:59	1054740	5b066e00f58f8400018b0906	410248622	1	main_slash	11	main_slash	43	stimuli_distractor_diamondtriangles.svg	stimuli_target_squaretriangles.svg	15	yes	53	1	541
6.6.1	win	2022-12-14	15:18:20	15:35:59	1054740	5b066e00f58f8400018b0906	410248622	1	main_slash	11	advance_on_keypress_SLASH	44	stimuli_distractor_diamondtriangles.svg	stimuli_target_squaretriangles.svg	15	yes	57	0	391
6.6.1	win	2022-12-14	15:18:20	15:36:00	1056212	5b066e00f58f8400018b0906	410248622	1	main_slash	11	main_slash	45	stimuli_distractor_trianglediamonds.svg	stimuli_target_diamondsquares.svg	28	yes	53	1	412
6.6.1	win	2022-12-14	15:18:20	15:36:00	1056212	5b066e00f58f8400018b0906	410248622	1	main_slash	11	advance_on_keypress_SLASH	46	stimuli_distractor_trianglediamonds.svg	stimuli_target_diamondsquares.svg	28	yes	57	0	395
6.6.1	win	2022-12-14	15:18:20	15:36:02	1057638	5b066e00f58f8400018b0906	410248622	1	main_slash	11	main_slash	47	stimuli_target_squaretriangles.svg	stimuli_distractor_trianglediamonds.svg	3	yes	53	1	355
6.6.1	win	2022-12-14	15:18:20	15:36:02	1057638	5b066e00f58f8400018b0906	410248622	1	main_slash	11	advance_on_keypress_SLASH	48	stimuli_target_squaretriangles.svg	stimuli_distractor_trianglediamonds.svg	3	yes	57	0	378
6.6.1	win	2022-12-14	15:18:20	15:36:05	1060672	5b066e00f58f8400018b0906	410248622	1	main_slash	11	main_slash	49	stimuli_distractor_trianglediamonds.svg	stimuli_distractor_trianglediamonds.svg	33	no	0	1	2000
6.6.1	win	2022-12-14	15:18:20	15:36:05	1060672	5b066e00f58f8400018b0906	410248622	1	main_slash	11	advance_on_keypress_SLASH	50	stimuli_distractor_trianglediamonds.svg	stimuli_distractor_trianglediamonds.svg	33	no	57	0	328
6.6.1	win	2022-12-14	15:18:20	15:36:06	1062032	5b066e00f58f8400018b0906	410248622	1	main_slash	11	main_slash	51	stimuli_target_circletriangles.svg	stimuli_distractor_diamondtriangles.svg	5	yes	53	1	375
6.6.1	win	2022-12-14	15:18:20	15:36:06	1062032	5b066e00f58f8400018b0906	410248622	1	main_slash	11	advance_on_keypress_SLASH	52	stimuli_target_circletriangles.svg	stimuli_distractor_diamondtriangles.svg	5	yes	57	0	385
6.6.1	win	2022-12-14	15:18:20	15:36:07	1063488	5b066e00f58f8400018b0906	410248622	1	main_slash	11	main_slash	53	stimuli_distractor_diamondtriangles.svg	stimuli_target_trianglesquares.svg	30	yes	53	1	399
6.6.1	win	2022-12-14	15:18:20	15:36:07	1063488	5b066e00f58f8400018b0906	410248622	1	main_slash	11	advance_on_keypress_SLASH	54	stimuli_distractor_diamondtriangles.svg	stimuli_target_trianglesquares.svg	30	yes	57	0	374
6.6.1	win	2022-12-14	15:18:20	15:36:09	1064876	5b066e00f58f8400018b0906	410248622	1	main_slash	11	main_slash	55	stimuli_distractor_trianglediamonds.svg	stimuli_target_circletriangles.svg	9	yes	53	1	340
6.6.1	win	2022-12-14	15:18:20	15:36:09	1064876	5b066e00f58f8400018b0906	410248622	1	main_slash	11	advance_on_keypress_SLASH	56	stimuli_distractor_trianglediamonds.svg	stimuli_target_circletriangles.svg	9	yes	57	0	400
6.6.1	win	2022-12-14	15:18:20	15:36:11	1066537	5b066e00f58f8400018b0906	410248622	1	main_slash	11	main_slash	57	stimuli_target_trianglesquares.svg	stimuli_distractor_diamondtriangles.svg	22	yes	53	1	609
6.6.1	win	2022-12-14	15:18:20	15:36:11	1066537	5b066e00f58f8400018b0906	410248622	1	main_slash	11	advance_on_keypress_SLASH	58	stimuli_target_trianglesquares.svg	stimuli_distractor_diamondtriangles.svg	22	yes	57	0	421
6.6.1	win	2022-12-14	15:18:20	15:36:12	1068018	5b066e00f58f8400018b0906	410248622	1	main_slash	11	main_slash	59	stimuli_distractor_diamondtriangles.svg	stimuli_target_trianglecircles.svg	29	yes	53	1	410
6.6.1	win	2022-12-14	15:18:20	15:36:12	1068018	5b066e00f58f8400018b0906	410248622	1	main_slash	11	advance_on_keypress_SLASH	60	stimuli_distractor_diamondtriangles.svg	stimuli_target_trianglecircles.svg	29	yes	57	0	336
6.6.1	win	2022-12-14	15:18:20	15:36:13	1069480	5b066e00f58f8400018b0906	410248622	1	main_slash	11	main_slash	61	stimuli_distractor_trianglediamonds.svg	stimuli_distractor_diamondtriangles.svg	35	no	53	0	466
6.6.1	win	2022-12-14	15:18:20	15:36:13	1069480	5b066e00f58f8400018b0906	410248622	1	main_slash	11	advance_on_keypress_SLASH	62	stimuli_distractor_trianglediamonds.svg	stimuli_distractor_diamondtriangles.svg	35	no	57	0	485
6.6.1	win	2022-12-14	15:18:20	15:36:15	1071101	5b066e00f58f8400018b0906	410248622	1	main_slash	11	main_slash	63	stimuli_target_circletriangles.svg	stimuli_distractor_trianglediamonds.svg	1	yes	53	1	475
6.6.1	win	2022-12-14	15:18:20	15:36:15	1071101	5b066e00f58f8400018b0906	410248622	1	main_slash	11	advance_on_keypress_SLASH	64	stimuli_target_circletriangles.svg	stimuli_distractor_trianglediamonds.svg	1	yes	57	0	348
6.6.1	win	2022-12-14	15:18:20	15:36:16	1072444	5b066e00f58f8400018b0906	410248622	1	main_slash	11	main_slash	65	stimuli_distractor_trianglediamonds.svg	stimuli_target_trianglesquares.svg	26	yes	53	1	340
6.6.1	win	2022-12-14	15:18:20	15:36:16	1072444	5b066e00f58f8400018b0906	410248622	1	main_slash	11	advance_on_keypress_SLASH	66	stimuli_distractor_trianglediamonds.svg	stimuli_target_trianglesquares.svg	26	yes	57	0	358
6.6.1	win	2022-12-14	15:18:20	15:36:19	1075457	5b066e00f58f8400018b0906	410248622	1	main_slash	11	main_slash	67	stimuli_distractor_diamondtriangles.svg	stimuli_distractor_trianglediamonds.svg	38	no	0	1	2000
6.6.1	win	2022-12-14	15:18:20	15:36:19	1075457	5b066e00f58f8400018b0906	410248622	1	main_slash	11	advance_on_keypress_SLASH	68	stimuli_distractor_diamondtriangles.svg	stimuli_distractor_trianglediamonds.svg	38	no	57	0	366
6.6.1	win	2022-12-14	15:18:20	15:36:21	1076885	5b066e00f58f8400018b0906	410248622	1	main_slash	11	main_slash	69	stimuli_target_diamondcircles.svg	stimuli_distractor_diamondtriangles.svg	23	yes	53	1	413
6.6.1	win	2022-12-14	15:18:20	15:36:21	1076885	5b066e00f58f8400018b0906	410248622	1	main_slash	11	advance_on_keypress_SLASH	70	stimuli_target_diamondcircles.svg	stimuli_distractor_diamondtriangles.svg	23	yes	57	0	355
6.6.1	win	2022-12-14	15:18:20	15:36:22	1078228	5b066e00f58f8400018b0906	410248622	1	main_slash	11	main_slash	71	stimuli_distractor_diamondtriangles.svg	stimuli_target_diamondcircles.svg	31	yes	53	1	341
6.6.1	win	2022-12-14	15:18:20	15:36:22	1078228	5b066e00f58f8400018b0906	410248622	1	main_slash	11	advance_on_keypress_SLASH	72	stimuli_distractor_diamondtriangles.svg	stimuli_target_diamondcircles.svg	31	yes	57	0	413
6.6.1	win	2022-12-14	15:18:20	15:36:24	1079669	5b066e00f58f8400018b0906	410248622	1	main_slash	11	main_slash	73	stimuli_distractor_diamondtriangles.svg	stimuli_target_circlediamonds.svg	14	yes	53	1	374
6.6.1	win	2022-12-14	15:18:20	15:36:24	1079669	5b066e00f58f8400018b0906	410248622	1	main_slash	11	advance_on_keypress_SLASH	74	stimuli_distractor_diamondtriangles.svg	stimuli_target_circlediamonds.svg	14	yes	57	0	363
6.6.1	win	2022-12-14	15:18:20	15:36:27	1082689	5b066e00f58f8400018b0906	410248622	1	main_slash	11	main_slash	75	stimuli_distractor_diamondtriangles.svg	stimuli_distractor_diamondtriangles.svg	39	no	0	1	2000
6.6.1	win	2022-12-14	15:18:20	15:36:27	1082689	5b066e00f58f8400018b0906	410248622	1	main_slash	11	advance_on_keypress_SLASH	76	stimuli_distractor_diamondtriangles.svg	stimuli_distractor_diamondtriangles.svg	39	no	57	0	290
6.6.1	win	2022-12-14	15:18:20	15:36:28	1084084	5b066e00f58f8400018b0906	410248622	1	main_slash	11	main_slash	77	stimuli_target_diamondsquares.svg	stimuli_distractor_diamondtriangles.svg	24	yes	53	1	461
6.6.1	win	2022-12-14	15:18:20	15:36:28	1084084	5b066e00f58f8400018b0906	410248622	1	main_slash	11	advance_on_keypress_SLASH	78	stimuli_target_diamondsquares.svg	stimuli_distractor_diamondtriangles.svg	24	yes	57	0	346
6.6.1	win	2022-12-14	15:18:20	15:36:29	1085454	5b066e00f58f8400018b0906	410248622	1	main_slash	11	main_slash	79	stimuli_target_circlediamonds.svg	stimuli_distractor_trianglediamonds.svg	2	yes	53	1	362
6.6.1	win	2022-12-14	15:18:20	15:36:29	1085454	5b066e00f58f8400018b0906	410248622	1	main_slash	11	advance_on_keypress_SLASH	80	stimuli_target_circlediamonds.svg	stimuli_distractor_trianglediamonds.svg	2	yes	57	0	395
6.6.1	win	2022-12-14	15:18:20	15:36:31	1086844	5b066e00f58f8400018b0906	410248622	1	main_slash	11	main_slash	81	stimuli_distractor_trianglediamonds.svg	stimuli_target_trianglecircles.svg	25	yes	53	1	338
6.6.1	win	2022-12-14	15:18:20	15:36:31	1086844	5b066e00f58f8400018b0906	410248622	1	main_slash	11	advance_on_keypress_SLASH	82	stimuli_distractor_trianglediamonds.svg	stimuli_target_trianglecircles.svg	25	yes	57	0	347
6.6.1	win	2022-12-14	15:18:20	15:36:34	1089840	5b066e00f58f8400018b0906	410248622	1	main_slash	11	main_slash	83	stimuli_distractor_diamondtriangles.svg	stimuli_distractor_trianglediamonds.svg	38	no	0	1	2000
6.6.1	win	2022-12-14	15:18:20	15:36:34	1089840	5b066e00f58f8400018b0906	410248622	1	main_slash	11	advance_on_keypress_SLASH	84	stimuli_distractor_diamondtriangles.svg	stimuli_distractor_trianglediamonds.svg	38	no	57	0	306
6.6.1	win	2022-12-14	15:18:20	15:36:37	1092812	5b066e00f58f8400018b0906	410248622	1	main_slash	11	main_slash	85	stimuli_distractor_trianglediamonds.svg	stimuli_distractor_trianglediamonds.svg	34	no	0	1	2000
6.6.1	win	2022-12-14	15:18:20	15:36:37	1092812	5b066e00f58f8400018b0906	410248622	1	main_slash	11	advance_on_keypress_SLASH	86	stimuli_distractor_trianglediamonds.svg	stimuli_distractor_trianglediamonds.svg	34	no	57	0	1034
6.6.1	win	2022-12-14	15:18:20	15:36:39	1094964	5b066e00f58f8400018b0906	410248622	1	main_slash	11	main_slash	87	stimuli_distractor_diamondtriangles.svg	stimuli_target_diamondsquares.svg	32	yes	53	1	459
6.6.1	win	2022-12-14	15:18:20	15:36:39	1094964	5b066e00f58f8400018b0906	410248622	1	main_slash	11	advance_on_keypress_SLASH	88	stimuli_distractor_diamondtriangles.svg	stimuli_target_diamondsquares.svg	32	yes	57	0	396
6.6.1	win	2022-12-14	15:18:20	15:36:40	1096374	5b066e00f58f8400018b0906	410248622	1	main_slash	11	main_slash	89	stimuli_target_circlediamonds.svg	stimuli_distractor_trianglediamonds.svg	2	yes	53	1	357
6.6.1	win	2022-12-14	15:18:20	15:36:40	1096374	5b066e00f58f8400018b0906	410248622	1	main_slash	11	advance_on_keypress_SLASH	90	stimuli_target_circlediamonds.svg	stimuli_distractor_trianglediamonds.svg	2	yes	57	0	356
6.6.1	win	2022-12-14	15:18:20	15:36:43	1099394	5b066e00f58f8400018b0906	410248622	1	main_slash	11	main_slash	91	stimuli_distractor_diamondtriangles.svg	stimuli_distractor_trianglediamonds.svg	37	no	0	1	2000
6.6.1	win	2022-12-14	15:18:20	15:36:43	1099394	5b066e00f58f8400018b0906	410248622	1	main_slash	11	advance_on_keypress_SLASH	92	stimuli_distractor_diamondtriangles.svg	stimuli_distractor_trianglediamonds.svg	37	no	57	0	298
6.6.1	win	2022-12-14	15:18:20	15:36:45	1100663	5b066e00f58f8400018b0906	410248622	1	main_slash	11	main_slash	93	stimuli_distractor_diamondtriangles.svg	stimuli_target_circletriangles.svg	13	yes	53	1	317
6.6.1	win	2022-12-14	15:18:20	15:36:45	1100663	5b066e00f58f8400018b0906	410248622	1	main_slash	11	advance_on_keypress_SLASH	94	stimuli_distractor_diamondtriangles.svg	stimuli_target_circletriangles.svg	13	yes	57	0	447
6.6.1	win	2022-12-14	15:18:20	15:36:48	1103761	5b066e00f58f8400018b0906	410248622	1	main_slash	11	main_slash	95	stimuli_distractor_trianglediamonds.svg	stimuli_distractor_diamondtriangles.svg	36	no	0	1	2000
6.6.1	win	2022-12-14	15:18:20	15:36:48	1103761	5b066e00f58f8400018b0906	410248622	1	main_slash	11	advance_on_keypress_SLASH	96	stimuli_distractor_trianglediamonds.svg	stimuli_distractor_diamondtriangles.svg	36	no	57	0	370
6.6.1	win	2022-12-14	15:18:20	15:36:49	1105277	5b066e00f58f8400018b0906	410248622	1	main_slash	11	main_slash	97	stimuli_distractor_diamondtriangles.svg	stimuli_target_trianglesquares.svg	30	yes	53	1	498
6.6.1	win	2022-12-14	15:18:20	15:36:49	1105277	5b066e00f58f8400018b0906	410248622	1	main_slash	11	advance_on_keypress_SLASH	98	stimuli_distractor_diamondtriangles.svg	stimuli_target_trianglesquares.svg	30	yes	57	0	381
6.6.1	win	2022-12-14	15:18:20	15:36:51	1106740	5b066e00f58f8400018b0906	410248622	1	main_slash	11	main_slash	99	stimuli_target_circlediamonds.svg	stimuli_distractor_diamondtriangles.svg	6	yes	53	1	428
6.6.1	win	2022-12-14	15:18:20	15:36:51	1106740	5b066e00f58f8400018b0906	410248622	1	main_slash	11	advance_on_keypress_SLASH	100	stimuli_target_circlediamonds.svg	stimuli_distractor_diamondtriangles.svg	6	yes	57	0	427
6.6.1	win	2022-12-14	15:18:20	15:36:52	1108209	5b066e00f58f8400018b0906	410248622	1	main_slash	11	main_slash	101	stimuli_distractor_diamondtriangles.svg	stimuli_target_squarediamonds.svg	16	yes	53	1	367
6.6.1	win	2022-12-14	15:18:20	15:36:52	1108209	5b066e00f58f8400018b0906	410248622	1	main_slash	11	advance_on_keypress_SLASH	102	stimuli_distractor_diamondtriangles.svg	stimuli_target_squarediamonds.svg	16	yes	57	0	423
6.6.1	win	2022-12-14	15:18:20	15:36:54	1109956	5b066e00f58f8400018b0906	410248622	1	main_slash	11	main_slash	103	stimuli_distractor_diamondtriangles.svg	stimuli_target_diamondcircles.svg	31	yes	53	1	677
6.6.1	win	2022-12-14	15:18:20	15:36:54	1109956	5b066e00f58f8400018b0906	410248622	1	main_slash	11	advance_on_keypress_SLASH	104	stimuli_distractor_diamondtriangles.svg	stimuli_target_diamondcircles.svg	31	yes	57	0	433
6.6.1	win	2022-12-14	15:18:20	15:36:55	1111381	5b066e00f58f8400018b0906	410248622	1	main_slash	11	main_slash	105	stimuli_target_circletriangles.svg	stimuli_distractor_diamondtriangles.svg	5	yes	53	1	335
6.6.1	win	2022-12-14	15:18:20	15:36:55	1111381	5b066e00f58f8400018b0906	410248622	1	main_slash	11	advance_on_keypress_SLASH	106	stimuli_target_circletriangles.svg	stimuli_distractor_diamondtriangles.svg	5	yes	57	0	344
6.6.1	win	2022-12-14	15:18:20	15:36:57	1112732	5b066e00f58f8400018b0906	410248622	1	main_slash	11	main_slash	107	stimuli_distractor_trianglediamonds.svg	stimuli_target_diamondcircles.svg	27	yes	53	1	354
6.6.1	win	2022-12-14	15:18:20	15:36:57	1112732	5b066e00f58f8400018b0906	410248622	1	main_slash	11	advance_on_keypress_SLASH	108	stimuli_distractor_trianglediamonds.svg	stimuli_target_diamondcircles.svg	27	yes	57	0	370
6.6.1	win	2022-12-14	15:18:20	15:36:58	1114100	5b066e00f58f8400018b0906	410248622	1	main_slash	11	main_slash	109	stimuli_target_trianglecircles.svg	stimuli_distractor_diamondtriangles.svg	21	yes	53	1	354
6.6.1	win	2022-12-14	15:18:20	15:36:58	1114100	5b066e00f58f8400018b0906	410248622	1	main_slash	11	advance_on_keypress_SLASH	110	stimuli_target_trianglecircles.svg	stimuli_distractor_diamondtriangles.svg	21	yes	57	0	362
6.6.1	win	2022-12-14	15:18:20	15:36:59	1115453	5b066e00f58f8400018b0906	410248622	1	main_slash	11	main_slash	111	stimuli_target_circletriangles.svg	stimuli_distractor_trianglediamonds.svg	1	yes	53	1	340
6.6.1	win	2022-12-14	15:18:20	15:36:59	1115453	5b066e00f58f8400018b0906	410248622	1	main_slash	11	advance_on_keypress_SLASH	112	stimuli_target_circletriangles.svg	stimuli_distractor_trianglediamonds.svg	1	yes	57	0	348
6.6.1	win	2022-12-14	15:18:20	15:37:02	1118464	5b066e00f58f8400018b0906	410248622	1	main_slash	11	main_slash	113	stimuli_distractor_diamondtriangles.svg	stimuli_distractor_diamondtriangles.svg	40	no	0	1	2000
6.6.1	win	2022-12-14	15:18:20	15:37:02	1118464	5b066e00f58f8400018b0906	410248622	1	main_slash	11	advance_on_keypress_SLASH	114	stimuli_distractor_diamondtriangles.svg	stimuli_distractor_diamondtriangles.svg	40	no	57	0	340
6.6.1	win	2022-12-14	15:18:20	15:37:04	1119773	5b066e00f58f8400018b0906	410248622	1	main_slash	11	main_slash	115	stimuli_distractor_trianglediamonds.svg	stimuli_target_squarediamonds.svg	12	yes	53	1	307
6.6.1	win	2022-12-14	15:18:20	15:37:04	1119773	5b066e00f58f8400018b0906	410248622	1	main_slash	11	advance_on_keypress_SLASH	116	stimuli_distractor_trianglediamonds.svg	stimuli_target_squarediamonds.svg	12	yes	57	0	301
6.6.1	win	2022-12-14	15:18:20	15:37:05	1121269	5b066e00f58f8400018b0906	410248622	1	main_slash	11	main_slash	117	stimuli_target_trianglesquares.svg	stimuli_distractor_diamondtriangles.svg	22	yes	53	1	521
6.6.1	win	2022-12-14	15:18:20	15:37:05	1121269	5b066e00f58f8400018b0906	410248622	1	main_slash	11	advance_on_keypress_SLASH	118	stimuli_target_trianglesquares.svg	stimuli_distractor_diamondtriangles.svg	22	yes	57	0	354
6.6.1	win	2022-12-14	15:18:20	15:37:07	1122668	5b066e00f58f8400018b0906	410248622	1	main_slash	11	main_slash	119	stimuli_distractor_trianglediamonds.svg	stimuli_target_circletriangles.svg	9	yes	53	1	401
6.6.1	win	2022-12-14	15:18:20	15:37:07	1122668	5b066e00f58f8400018b0906	410248622	1	main_slash	11	advance_on_keypress_SLASH	120	stimuli_distractor_trianglediamonds.svg	stimuli_target_circletriangles.svg	9	yes	57	0	370
6.6.1	win	2022-12-14	15:18:20	15:37:08	1124028	5b066e00f58f8400018b0906	410248622	1	main_slash	11	main_slash	121	stimuli_target_squarediamonds.svg	stimuli_distractor_trianglediamonds.svg	4	yes	53	1	346
6.6.1	win	2022-12-14	15:18:20	15:37:08	1124028	5b066e00f58f8400018b0906	410248622	1	main_slash	11	advance_on_keypress_SLASH	122	stimuli_target_squarediamonds.svg	stimuli_distractor_trianglediamonds.svg	4	yes	57	0	331
6.6.1	win	2022-12-14	15:18:20	15:37:10	1125581	5b066e00f58f8400018b0906	410248622	1	main_slash	11	main_slash	123	stimuli_target_diamondsquares.svg	stimuli_distractor_trianglediamonds.svg	20	yes	53	1	532
6.6.1	win	2022-12-14	15:18:20	15:37:10	1125581	5b066e00f58f8400018b0906	410248622	1	main_slash	11	advance_on_keypress_SLASH	124	stimuli_target_diamondsquares.svg	stimuli_distractor_trianglediamonds.svg	20	yes	57	0	374
6.6.1	win	2022-12-14	15:18:20	15:37:11	1126953	5b066e00f58f8400018b0906	410248622	1	main_slash	11	main_slash	125	stimuli_target_diamondcircles.svg	stimuli_distractor_trianglediamonds.svg	19	yes	53	1	346
6.6.1	win	2022-12-14	15:18:20	15:37:11	1126953	5b066e00f58f8400018b0906	410248622	1	main_slash	11	advance_on_keypress_SLASH	126	stimuli_target_diamondcircles.svg	stimuli_distractor_trianglediamonds.svg	19	yes	57	0	351
6.6.1	win	2022-12-14	15:18:20	15:37:12	1128309	5b066e00f58f8400018b0906	410248622	1	main_slash	11	main_slash	127	stimuli_target_squaretriangles.svg	stimuli_distractor_diamondtriangles.svg	7	yes	53	1	342
6.6.1	win	2022-12-14	15:18:20	15:37:12	1128309	5b066e00f58f8400018b0906	410248622	1	main_slash	11	advance_on_keypress_SLASH	128	stimuli_target_squaretriangles.svg	stimuli_distractor_diamondtriangles.svg	7	yes	57	0	327
6.6.1	win	2022-12-14	15:18:20	15:37:14	1129639	5b066e00f58f8400018b0906	410248622	1	main_slash	11	main_slash	129	stimuli_distractor_diamondtriangles.svg	stimuli_target_trianglecircles.svg	29	yes	53	1	337
6.6.1	win	2022-12-14	15:18:20	15:37:14	1129639	5b066e00f58f8400018b0906	410248622	1	main_slash	11	advance_on_keypress_SLASH	130	stimuli_distractor_diamondtriangles.svg	stimuli_target_trianglecircles.svg	29	yes	57	0	322
6.6.1	win	2022-12-14	15:18:20	15:37:15	1131032	5b066e00f58f8400018b0906	410248622	1	main_slash	11	main_slash	131	stimuli_target_diamondcircles.svg	stimuli_distractor_diamondtriangles.svg	23	yes	53	1	380
6.6.1	win	2022-12-14	15:18:20	15:37:15	1131032	5b066e00f58f8400018b0906	410248622	1	main_slash	11	advance_on_keypress_SLASH	132	stimuli_target_diamondcircles.svg	stimuli_distractor_diamondtriangles.svg	23	yes	57	0	264
6.6.1	win	2022-12-14	15:18:20	15:37:16	1132331	5b066e00f58f8400018b0906	410248622	1	main_slash	11	main_slash	133	stimuli_distractor_trianglediamonds.svg	stimuli_target_circlediamonds.svg	10	yes	53	1	376
6.6.1	win	2022-12-14	15:18:20	15:37:16	1132331	5b066e00f58f8400018b0906	410248622	1	main_slash	11	advance_on_keypress_SLASH	134	stimuli_distractor_trianglediamonds.svg	stimuli_target_circlediamonds.svg	10	yes	57	0	309
6.6.1	win	2022-12-14	15:18:20	15:37:18	1133628	5b066e00f58f8400018b0906	410248622	1	main_slash	11	main_slash	135	stimuli_distractor_diamondtriangles.svg	stimuli_target_circlediamonds.svg	14	yes	53	1	328
6.6.1	win	2022-12-14	15:18:20	15:37:18	1133628	5b066e00f58f8400018b0906	410248622	1	main_slash	11	advance_on_keypress_SLASH	136	stimuli_distractor_diamondtriangles.svg	stimuli_target_circlediamonds.svg	14	yes	57	0	313
6.6.1	win	2022-12-14	15:18:20	15:37:19	1135005	5b066e00f58f8400018b0906	410248622	1	main_slash	11	main_slash	137	stimuli_target_squarediamonds.svg	stimuli_distractor_diamondtriangles.svg	8	yes	53	1	404
6.6.1	win	2022-12-14	15:18:20	15:37:19	1135005	5b066e00f58f8400018b0906	410248622	1	main_slash	11	advance_on_keypress_SLASH	138	stimuli_target_squarediamonds.svg	stimuli_distractor_diamondtriangles.svg	8	yes	57	0	307
6.6.1	win	2022-12-14	15:18:20	15:37:20	1136277	5b066e00f58f8400018b0906	410248622	1	main_slash	11	main_slash	139	stimuli_distractor_trianglediamonds.svg	stimuli_target_squaretriangles.svg	11	yes	53	1	309
6.6.1	win	2022-12-14	15:18:20	15:37:20	1136277	5b066e00f58f8400018b0906	410248622	1	main_slash	11	advance_on_keypress_SLASH	140	stimuli_distractor_trianglediamonds.svg	stimuli_target_squaretriangles.svg	11	yes	57	0	279
6.6.1	win	2022-12-14	15:18:20	15:37:22	1137613	5b066e00f58f8400018b0906	410248622	1	main_slash	11	main_slash	141	stimuli_distractor_trianglediamonds.svg	stimuli_distractor_trianglediamonds.svg	33	no	53	0	394
6.6.1	win	2022-12-14	15:18:20	15:37:22	1137613	5b066e00f58f8400018b0906	410248622	1	main_slash	11	advance_on_keypress_SLASH	142	stimuli_distractor_trianglediamonds.svg	stimuli_distractor_trianglediamonds.svg	33	no	57	0	601
6.6.1	win	2022-12-14	15:18:20	15:37:23	1139293	5b066e00f58f8400018b0906	410248622	1	main_slash	11	main_slash	143	stimuli_target_squaretriangles.svg	stimuli_distractor_trianglediamonds.svg	3	yes	53	1	423
6.6.1	win	2022-12-14	15:18:20	15:37:23	1139293	5b066e00f58f8400018b0906	410248622	1	main_slash	11	advance_on_keypress_SLASH	144	stimuli_target_squaretriangles.svg	stimuli_distractor_trianglediamonds.svg	3	yes	57	0	334
6.6.1	win	2022-12-14	15:18:20	15:37:25	1140764	5b066e00f58f8400018b0906	410248622	1	main_slash	11	main_slash	145	stimuli_distractor_trianglediamonds.svg	stimuli_target_trianglesquares.svg	26	yes	53	1	478
6.6.1	win	2022-12-14	15:18:20	15:37:25	1140764	5b066e00f58f8400018b0906	410248622	1	main_slash	11	advance_on_keypress_SLASH	146	stimuli_distractor_trianglediamonds.svg	stimuli_target_trianglesquares.svg	26	yes	57	0	336
6.6.1	win	2022-12-14	15:18:20	15:37:26	1142093	5b066e00f58f8400018b0906	410248622	1	main_slash	11	main_slash	147	stimuli_distractor_trianglediamonds.svg	stimuli_distractor_diamondtriangles.svg	35	no	53	0	339
6.6.1	win	2022-12-14	15:18:20	15:37:26	1142093	5b066e00f58f8400018b0906	410248622	1	main_slash	11	advance_on_keypress_SLASH	148	stimuli_distractor_trianglediamonds.svg	stimuli_distractor_diamondtriangles.svg	35	no	57	0	565
6.6.1	win	2022-12-14	15:18:20	15:37:28	1143693	5b066e00f58f8400018b0906	410248622	1	main_slash	11	main_slash	149	stimuli_target_trianglecircles.svg	stimuli_distractor_trianglediamonds.svg	17	yes	53	1	389
6.6.1	win	2022-12-14	15:18:20	15:37:28	1143693	5b066e00f58f8400018b0906	410248622	1	main_slash	11	advance_on_keypress_SLASH	150	stimuli_target_trianglecircles.svg	stimuli_distractor_trianglediamonds.svg	17	yes	57	0	308
6.6.1	win	2022-12-14	15:18:20	15:37:29	1145273	5b066e00f58f8400018b0906	410248622	1	main_slash	11	main_slash	151	stimuli_target_trianglesquares.svg	stimuli_distractor_trianglediamonds.svg	18	yes	53	1	614
6.6.1	win	2022-12-14	15:18:20	15:37:29	1145273	5b066e00f58f8400018b0906	410248622	1	main_slash	11	advance_on_keypress_SLASH	152	stimuli_target_trianglesquares.svg	stimuli_distractor_trianglediamonds.svg	18	yes	57	0	455
6.6.1	win	2022-12-14	15:18:20	15:37:31	1146717	5b066e00f58f8400018b0906	410248622	1	main_slash	11	main_slash	153	stimuli_distractor_diamondtriangles.svg	stimuli_target_squaretriangles.svg	15	yes	53	1	329
6.6.1	win	2022-12-14	15:18:20	15:37:31	1146717	5b066e00f58f8400018b0906	410248622	1	main_slash	11	advance_on_keypress_SLASH	154	stimuli_distractor_diamondtriangles.svg	stimuli_target_squaretriangles.svg	15	yes	57	0	307
6.6.1	win	2022-12-14	15:18:20	15:37:34	1149689	5b066e00f58f8400018b0906	410248622	1	main_slash	11	main_slash	155	stimuli_distractor_diamondtriangles.svg	stimuli_distractor_diamondtriangles.svg	39	no	0	1	2000
6.6.1	win	2022-12-14	15:18:20	15:37:34	1149689	5b066e00f58f8400018b0906	410248622	1	main_slash	11	advance_on_keypress_SLASH	156	stimuli_distractor_diamondtriangles.svg	stimuli_distractor_diamondtriangles.svg	39	no	57	0	387
6.6.1	win	2022-12-14	15:18:20	15:37:35	1151086	5b066e00f58f8400018b0906	410248622	1	main_slash	11	main_slash	157	stimuli_target_diamondsquares.svg	stimuli_distractor_diamondtriangles.svg	24	yes	53	1	362
6.6.1	win	2022-12-14	15:18:20	15:37:35	1151086	5b066e00f58f8400018b0906	410248622	1	main_slash	11	advance_on_keypress_SLASH	158	stimuli_target_diamondsquares.svg	stimuli_distractor_diamondtriangles.svg	24	yes	57	0	395
6.6.1	win	2022-12-14	15:18:20	15:37:37	1152519	5b066e00f58f8400018b0906	410248622	1	main_slash	11	main_slash	159	stimuli_distractor_trianglediamonds.svg	stimuli_target_diamondsquares.svg	28	yes	53	1	372
6.6.1	win	2022-12-14	15:18:20	15:37:37	1152519	5b066e00f58f8400018b0906	410248622	1	main_slash	11	advance_on_keypress_SLASH	160	stimuli_distractor_trianglediamonds.svg	stimuli_target_diamondsquares.svg	28	yes	57	0	369