build	computer.platform	date	time	timestamp	time_elapsed_ms	subject	group	session	blockcode	blocknum	trialcode	trialnum	stimulus_left	stimulus_right	stim_index	target_present	response	correct	latency
6.6.1	win	2022-12-14	13:08:11	13:13:37	322518	6122db5a591eaf8ee07cf3d0	32474325	1	practice_slash	5	practice_slash	1	stimuli_distractor_diamondtriangles.svg	stimuli_distractor_trianglediamonds.svg	14	no	53	0	529
6.6.1	win	2022-12-14	13:08:11	13:13:37	322518	6122db5a591eaf8ee07cf3d0	32474325	1	practice_slash	5	advance_on_keypress_SLASH	2	stimuli_distractor_diamondtriangles.svg	stimuli_distractor_trianglediamonds.svg	14	no	57	0	2303
6.6.1	win	2022-12-14	13:08:11	13:13:41	326855	6122db5a591eaf8ee07cf3d0	32474325	1	practice_slash	5	practice_slash	3	stimuli_target_circlediamonds.svg	stimuli_distractor_diamondtriangles.svg	1	yes	53	1	376
6.6.1	win	2022-12-14	13:08:11	13:13:41	326855	6122db5a591eaf8ee07cf3d0	32474325	1	practice_slash	5	advance_on_keypress_SLASH	4	stimuli_target_circlediamonds.svg	stimuli_distractor_diamondtriangles.svg	1	yes	57	0	3149
6.6.1	win	2022-12-14	13:08:11	13:13:47	332316	6122db5a591eaf8ee07cf3d0	32474325	1	practice_slash	5	practice_slash	5	stimuli_target_squarediamonds.svg	stimuli_distractor_diamondtriangles.svg	2	yes	53	1	658
6.6.1	win	2022-12-14	13:08:11	13:13:47	332316	6122db5a591eaf8ee07cf3d0	32474325	1	practice_slash	5	advance_on_keypress_SLASH	6	stimuli_target_squarediamonds.svg	stimuli_distractor_diamondtriangles.svg	2	yes	57	0	934
6.6.1	win	2022-12-14	13:08:11	13:13:50	335428	6122db5a591eaf8ee07cf3d0	32474325	1	practice_slash	5	practice_slash	7	stimuli_distractor_trianglediamonds.svg	stimuli_target_squarediamonds.svg	11	yes	53	1	531
6.6.1	win	2022-12-14	13:08:11	13:13:50	335428	6122db5a591eaf8ee07cf3d0	32474325	1	practice_slash	5	advance_on_keypress_SLASH	8	stimuli_distractor_trianglediamonds.svg	stimuli_target_squarediamonds.svg	11	yes	57	0	601
6.6.1	win	2022-12-14	13:08:11	13:13:53	338058	6122db5a591eaf8ee07cf3d0	32474325	1	practice_slash	5	practice_slash	9	stimuli_distractor_diamondtriangles.svg	stimuli_target_circletriangles.svg	7	yes	53	1	377
6.6.1	win	2022-12-14	13:08:11	13:13:53	338058	6122db5a591eaf8ee07cf3d0	32474325	1	practice_slash	5	advance_on_keypress_SLASH	10	stimuli_distractor_diamondtriangles.svg	stimuli_target_circletriangles.svg	7	yes	57	0	581
6.6.1	win	2022-12-14	13:08:11	13:13:57	342295	6122db5a591eaf8ee07cf3d0	32474325	1	practice_slash	5	practice_slash	11	stimuli_distractor_diamondtriangles.svg	stimuli_distractor_diamondtriangles.svg	13	no	0	1	2000
6.6.1	win	2022-12-14	13:08:11	13:13:57	342295	6122db5a591eaf8ee07cf3d0	32474325	1	practice_slash	5	advance_on_keypress_SLASH	12	stimuli_distractor_diamondtriangles.svg	stimuli_distractor_diamondtriangles.svg	13	no	57	0	534
6.6.1	win	2022-12-14	13:08:11	13:14:01	346479	6122db5a591eaf8ee07cf3d0	32474325	1	practice_slash	5	practice_slash	13	stimuli_distractor_trianglediamonds.svg	stimuli_distractor_diamondtriangles.svg	16	no	0	1	2000
6.6.1	win	2022-12-14	13:08:11	13:14:01	346479	6122db5a591eaf8ee07cf3d0	32474325	1	practice_slash	5	advance_on_keypress_SLASH	14	stimuli_distractor_trianglediamonds.svg	stimuli_distractor_diamondtriangles.svg	16	no	57	0	513
6.6.1	win	2022-12-14	13:08:11	13:14:04	349589	6122db5a591eaf8ee07cf3d0	32474325	1	practice_slash	5	practice_slash	15	stimuli_distractor_trianglediamonds.svg	stimuli_target_diamondcircles.svg	12	yes	53	1	943
6.6.1	win	2022-12-14	13:08:11	13:14:04	349589	6122db5a591eaf8ee07cf3d0	32474325	1	practice_slash	5	advance_on_keypress_SLASH	16	stimuli_distractor_trianglediamonds.svg	stimuli_target_diamondcircles.svg	12	yes	57	0	806
6.6.1	win	2022-12-14	13:08:11	13:14:08	353390	6122db5a591eaf8ee07cf3d0	32474325	1	practice_slash	5	practice_slash	17	stimuli_target_diamondsquares.svg	stimuli_distractor_trianglediamonds.svg	6	yes	53	1	1327
6.6.1	win	2022-12-14	13:08:11	13:14:08	353390	6122db5a591eaf8ee07cf3d0	32474325	1	practice_slash	5	advance_on_keypress_SLASH	18	stimuli_target_diamondsquares.svg	stimuli_distractor_trianglediamonds.svg	6	yes	57	0	561
6.6.1	win	2022-12-14	13:08:11	13:14:11	356693	6122db5a591eaf8ee07cf3d0	32474325	1	practice_slash	5	practice_slash	19	stimuli_distractor_diamondtriangles.svg	stimuli_target_diamondcircles.svg	8	yes	53	1	1077
6.6.1	win	2022-12-14	13:08:11	13:14:11	356693	6122db5a591eaf8ee07cf3d0	32474325	1	practice_slash	5	advance_on_keypress_SLASH	20	stimuli_distractor_diamondtriangles.svg	stimuli_target_diamondcircles.svg	8	yes	57	0	971
6.6.1	win	2022-12-14	13:08:11	13:14:16	361317	6122db5a591eaf8ee07cf3d0	32474325	1	practice_slash	5	practice_slash	21	stimuli_target_diamondsquares.svg	stimuli_distractor_diamondtriangles.svg	3	yes	0	0	2000
6.6.1	win	2022-12-14	13:08:11	13:14:16	361317	6122db5a591eaf8ee07cf3d0	32474325	1	practice_slash	5	advance_on_keypress_SLASH	22	stimuli_target_diamondsquares.svg	stimuli_distractor_diamondtriangles.svg	3	yes	57	0	1205
6.6.1	win	2022-12-14	13:08:11	13:14:19	364733	6122db5a591eaf8ee07cf3d0	32474325	1	practice_slash	5	practice_slash	23	stimuli_target_squarediamonds.svg	stimuli_distractor_trianglediamonds.svg	5	yes	53	1	565
6.6.1	win	2022-12-14	13:08:11	13:14:19	364733	6122db5a591eaf8ee07cf3d0	32474325	1	practice_slash	5	advance_on_keypress_SLASH	24	stimuli_target_squarediamonds.svg	stimuli_distractor_trianglediamonds.svg	5	yes	57	0	1018
6.6.1	win	2022-12-14	13:08:11	13:14:22	367883	6122db5a591eaf8ee07cf3d0	32474325	1	practice_slash	5	practice_slash	25	stimuli_target_circlediamonds.svg	stimuli_distractor_trianglediamonds.svg	4	yes	53	1	482
6.6.1	win	2022-12-14	13:08:11	13:14:22	367883	6122db5a591eaf8ee07cf3d0	32474325	1	practice_slash	5	advance_on_keypress_SLASH	26	stimuli_target_circlediamonds.svg	stimuli_distractor_trianglediamonds.svg	4	yes	57	0	377
6.6.1	win	2022-12-14	13:08:11	13:14:25	370755	6122db5a591eaf8ee07cf3d0	32474325	1	practice_slash	5	practice_slash	27	stimuli_distractor_trianglediamonds.svg	stimuli_distractor_trianglediamonds.svg	15	no	53	0	836
6.6.1	win	2022-12-14	13:08:11	13:14:25	370755	6122db5a591eaf8ee07cf3d0	32474325	1	practice_slash	5	advance_on_keypress_SLASH	28	stimuli_distractor_trianglediamonds.svg	stimuli_distractor_trianglediamonds.svg	15	no	57	0	1321
6.6.1	win	2022-12-14	13:08:11	13:14:29	374252	6122db5a591eaf8ee07cf3d0	32474325	1	practice_slash	5	practice_slash	29	stimuli_distractor_diamondtriangles.svg	stimuli_target_trianglecircles.svg	9	yes	53	1	511
6.6.1	win	2022-12-14	13:08:11	13:14:29	374252	6122db5a591eaf8ee07cf3d0	32474325	1	practice_slash	5	advance_on_keypress_SLASH	30	stimuli_distractor_diamondtriangles.svg	stimuli_target_trianglecircles.svg	9	yes	57	0	828
6.6.1	win	2022-12-14	13:08:11	13:14:32	377235	6122db5a591eaf8ee07cf3d0	32474325	1	practice_slash	5	practice_slash	31	stimuli_distractor_trianglediamonds.svg	stimuli_target_circlediamonds.svg	10	yes	53	1	497
6.6.1	win	2022-12-14	13:08:11	13:14:32	377235	6122db5a591eaf8ee07cf3d0	32474325	1	practice_slash	5	advance_on_keypress_SLASH	32	stimuli_distractor_trianglediamonds.svg	stimuli_target_circlediamonds.svg	10	yes	57	0	626
6.6.1	win	2022-12-14	13:08:11	13:15:39	444850	6122db5a591eaf8ee07cf3d0	32474325	1	main_slash	7	main_slash	1	stimuli_distractor_trianglediamonds.svg	stimuli_target_circlediamonds.svg	10	yes	53	1	364
6.6.1	win	2022-12-14	13:08:11	13:15:39	444850	6122db5a591eaf8ee07cf3d0	32474325	1	main_slash	7	advance_on_keypress_SLASH	2	stimuli_distractor_trianglediamonds.svg	stimuli_target_circlediamonds.svg	10	yes	57	0	1031
6.6.1	win	2022-12-14	13:08:11	13:15:43	448537	6122db5a591eaf8ee07cf3d0	32474325	1	main_slash	7	main_slash	3	stimuli_distractor_diamondtriangles.svg	stimuli_distractor_trianglediamonds.svg	37	no	0	1	2000
6.6.1	win	2022-12-14	13:08:11	13:15:43	448537	6122db5a591eaf8ee07cf3d0	32474325	1	main_slash	7	advance_on_keypress_SLASH	4	stimuli_distractor_diamondtriangles.svg	stimuli_distractor_trianglediamonds.svg	37	no	57	0	544
6.6.1	win	2022-12-14	13:08:11	13:15:45	450299	6122db5a591eaf8ee07cf3d0	32474325	1	main_slash	7	main_slash	5	stimuli_distractor_diamondtriangles.svg	stimuli_target_squaretriangles.svg	15	yes	53	1	561
6.6.1	win	2022-12-14	13:08:11	13:15:45	450299	6122db5a591eaf8ee07cf3d0	32474325	1	main_slash	7	advance_on_keypress_SLASH	6	stimuli_distractor_diamondtriangles.svg	stimuli_target_squaretriangles.svg	15	yes	57	0	1576
6.6.1	win	2022-12-14	13:08:11	13:15:48	453096	6122db5a591eaf8ee07cf3d0	32474325	1	main_slash	7	main_slash	7	stimuli_distractor_diamondtriangles.svg	stimuli_target_circletriangles.svg	13	yes	53	1	592
6.6.1	win	2022-12-14	13:08:11	13:15:48	453096	6122db5a591eaf8ee07cf3d0	32474325	1	main_slash	7	advance_on_keypress_SLASH	8	stimuli_distractor_diamondtriangles.svg	stimuli_target_circletriangles.svg	13	yes	57	0	1007
6.6.1	win	2022-12-14	13:08:11	13:15:50	455258	6122db5a591eaf8ee07cf3d0	32474325	1	main_slash	7	main_slash	9	stimuli_target_squaretriangles.svg	stimuli_distractor_trianglediamonds.svg	3	yes	53	1	518
6.6.1	win	2022-12-14	13:08:11	13:15:50	455258	6122db5a591eaf8ee07cf3d0	32474325	1	main_slash	7	advance_on_keypress_SLASH	10	stimuli_target_squaretriangles.svg	stimuli_distractor_trianglediamonds.svg	3	yes	57	0	721
6.6.1	win	2022-12-14	13:08:11	13:15:53	458623	6122db5a591eaf8ee07cf3d0	32474325	1	main_slash	7	main_slash	11	stimuli_target_trianglesquares.svg	stimuli_distractor_trianglediamonds.svg	18	yes	0	0	2000
6.6.1	win	2022-12-14	13:08:11	13:15:53	458623	6122db5a591eaf8ee07cf3d0	32474325	1	main_slash	7	advance_on_keypress_SLASH	12	stimuli_target_trianglesquares.svg	stimuli_distractor_trianglediamonds.svg	18	yes	57	0	1200
6.6.1	win	2022-12-14	13:08:11	13:15:57	462474	6122db5a591eaf8ee07cf3d0	32474325	1	main_slash	7	main_slash	13	stimuli_target_diamondsquares.svg	stimuli_distractor_trianglediamonds.svg	20	yes	0	0	2000
6.6.1	win	2022-12-14	13:08:11	13:15:57	462474	6122db5a591eaf8ee07cf3d0	32474325	1	main_slash	7	advance_on_keypress_SLASH	14	stimuli_target_diamondsquares.svg	stimuli_distractor_trianglediamonds.svg	20	yes	57	0	499
6.6.1	win	2022-12-14	13:08:11	13:15:59	464017	6122db5a591eaf8ee07cf3d0	32474325	1	main_slash	7	main_slash	15	stimuli_target_circlediamonds.svg	stimuli_distractor_diamondtriangles.svg	6	yes	53	1	392
6.6.1	win	2022-12-14	13:08:11	13:15:59	464017	6122db5a591eaf8ee07cf3d0	32474325	1	main_slash	7	advance_on_keypress_SLASH	16	stimuli_target_circlediamonds.svg	stimuli_distractor_diamondtriangles.svg	6	yes	57	0	1863
6.6.1	win	2022-12-14	13:08:11	13:16:03	468526	6122db5a591eaf8ee07cf3d0	32474325	1	main_slash	7	main_slash	17	stimuli_distractor_trianglediamonds.svg	stimuli_distractor_trianglediamonds.svg	33	no	0	1	2000
6.6.1	win	2022-12-14	13:08:11	13:16:03	468526	6122db5a591eaf8ee07cf3d0	32474325	1	main_slash	7	advance_on_keypress_SLASH	18	stimuli_distractor_trianglediamonds.svg	stimuli_distractor_trianglediamonds.svg	33	no	57	0	456
6.6.1	win	2022-12-14	13:08:11	13:16:05	470298	6122db5a591eaf8ee07cf3d0	32474325	1	main_slash	7	main_slash	19	stimuli_distractor_diamondtriangles.svg	stimuli_target_diamondsquares.svg	32	yes	53	1	672
6.6.1	win	2022-12-14	13:08:11	13:16:05	470298	6122db5a591eaf8ee07cf3d0	32474325	1	main_slash	7	advance_on_keypress_SLASH	20	stimuli_distractor_diamondtriangles.svg	stimuli_target_diamondsquares.svg	32	yes	57	0	1028
6.6.1	win	2022-12-14	13:08:11	13:16:07	472457	6122db5a591eaf8ee07cf3d0	32474325	1	main_slash	7	main_slash	21	stimuli_distractor_diamondtriangles.svg	stimuli_target_trianglesquares.svg	30	yes	53	1	496
6.6.1	win	2022-12-14	13:08:11	13:16:07	472457	6122db5a591eaf8ee07cf3d0	32474325	1	main_slash	7	advance_on_keypress_SLASH	22	stimuli_distractor_diamondtriangles.svg	stimuli_target_trianglesquares.svg	30	yes	57	0	1013
6.6.1	win	2022-12-14	13:08:11	13:16:09	474727	6122db5a591eaf8ee07cf3d0	32474325	1	main_slash	7	main_slash	23	stimuli_distractor_diamondtriangles.svg	stimuli_target_diamondcircles.svg	31	yes	53	1	599
6.6.1	win	2022-12-14	13:08:11	13:16:09	474727	6122db5a591eaf8ee07cf3d0	32474325	1	main_slash	7	advance_on_keypress_SLASH	24	stimuli_distractor_diamondtriangles.svg	stimuli_target_diamondcircles.svg	31	yes	57	0	1087
6.6.1	win	2022-12-14	13:08:11	13:16:12	477522	6122db5a591eaf8ee07cf3d0	32474325	1	main_slash	7	main_slash	25	stimuli_target_diamondsquares.svg	stimuli_distractor_diamondtriangles.svg	24	yes	53	1	1060
6.6.1	win	2022-12-14	13:08:11	13:16:12	477522	6122db5a591eaf8ee07cf3d0	32474325	1	main_slash	7	advance_on_keypress_SLASH	26	stimuli_target_diamondsquares.svg	stimuli_distractor_diamondtriangles.svg	24	yes	57	0	866
6.6.1	win	2022-12-14	13:08:11	13:16:14	479547	6122db5a591eaf8ee07cf3d0	32474325	1	main_slash	7	main_slash	27	stimuli_target_trianglecircles.svg	stimuli_distractor_diamondtriangles.svg	21	yes	53	1	517
6.6.1	win	2022-12-14	13:08:11	13:16:14	479547	6122db5a591eaf8ee07cf3d0	32474325	1	main_slash	7	advance_on_keypress_SLASH	28	stimuli_target_trianglecircles.svg	stimuli_distractor_diamondtriangles.svg	21	yes	57	0	831
6.6.1	win	2022-12-14	13:08:11	13:16:18	483029	6122db5a591eaf8ee07cf3d0	32474325	1	main_slash	7	main_slash	29	stimuli_distractor_trianglediamonds.svg	stimuli_distractor_diamondtriangles.svg	35	no	0	1	2000
6.6.1	win	2022-12-14	13:08:11	13:16:18	483029	6122db5a591eaf8ee07cf3d0	32474325	1	main_slash	7	advance_on_keypress_SLASH	30	stimuli_distractor_trianglediamonds.svg	stimuli_distractor_diamondtriangles.svg	35	no	57	0	789
6.6.1	win	2022-12-14	13:08:11	13:16:19	484930	6122db5a591eaf8ee07cf3d0	32474325	1	main_slash	7	main_slash	31	stimuli_distractor_diamondtriangles.svg	stimuli_target_circlediamonds.svg	14	yes	53	1	466
6.6.1	win	2022-12-14	13:08:11	13:16:19	484930	6122db5a591eaf8ee07cf3d0	32474325	1	main_slash	7	advance_on_keypress_SLASH	32	stimuli_distractor_diamondtriangles.svg	stimuli_target_circlediamonds.svg	14	yes	57	0	1420
6.6.1	win	2022-12-14	13:08:11	13:16:24	488998	6122db5a591eaf8ee07cf3d0	32474325	1	main_slash	7	main_slash	33	stimuli_distractor_trianglediamonds.svg	stimuli_distractor_trianglediamonds.svg	34	no	0	1	2000
6.6.1	win	2022-12-14	13:08:11	13:16:24	488998	6122db5a591eaf8ee07cf3d0	32474325	1	main_slash	7	advance_on_keypress_SLASH	34	stimuli_distractor_trianglediamonds.svg	stimuli_distractor_trianglediamonds.svg	34	no	57	0	687
6.6.1	win	2022-12-14	13:08:11	13:16:25	490799	6122db5a591eaf8ee07cf3d0	32474325	1	main_slash	7	main_slash	35	stimuli_target_circletriangles.svg	stimuli_distractor_trianglediamonds.svg	1	yes	53	1	467
6.6.1	win	2022-12-14	13:08:11	13:16:25	490799	6122db5a591eaf8ee07cf3d0	32474325	1	main_slash	7	advance_on_keypress_SLASH	36	stimuli_target_circletriangles.svg	stimuli_distractor_trianglediamonds.svg	1	yes	57	0	1183
6.6.1	win	2022-12-14	13:08:11	13:16:28	493704	6122db5a591eaf8ee07cf3d0	32474325	1	main_slash	7	main_slash	37	stimuli_distractor_diamondtriangles.svg	stimuli_distractor_diamondtriangles.svg	40	no	53	0	1072
6.6.1	win	2022-12-14	13:08:11	13:16:28	493704	6122db5a591eaf8ee07cf3d0	32474325	1	main_slash	7	advance_on_keypress_SLASH	38	stimuli_distractor_diamondtriangles.svg	stimuli_distractor_diamondtriangles.svg	40	no	57	0	764
6.6.1	win	2022-12-14	13:08:11	13:16:30	495792	6122db5a591eaf8ee07cf3d0	32474325	1	main_slash	7	main_slash	39	stimuli_target_trianglesquares.svg	stimuli_distractor_diamondtriangles.svg	22	yes	53	1	676
6.6.1	win	2022-12-14	13:08:11	13:16:30	495792	6122db5a591eaf8ee07cf3d0	32474325	1	main_slash	7	advance_on_keypress_SLASH	40	stimuli_target_trianglesquares.svg	stimuli_distractor_diamondtriangles.svg	22	yes	57	0	1024
6.6.1	win	2022-12-14	13:08:11	13:16:33	498015	6122db5a591eaf8ee07cf3d0	32474325	1	main_slash	7	main_slash	41	stimuli_target_squarediamonds.svg	stimuli_distractor_trianglediamonds.svg	4	yes	53	1	565
6.6.1	win	2022-12-14	13:08:11	13:16:33	498015	6122db5a591eaf8ee07cf3d0	32474325	1	main_slash	7	advance_on_keypress_SLASH	42	stimuli_target_squarediamonds.svg	stimuli_distractor_trianglediamonds.svg	4	yes	57	0	750
6.6.1	win	2022-12-14	13:08:11	13:16:34	499876	6122db5a591eaf8ee07cf3d0	32474325	1	main_slash	7	main_slash	43	stimuli_distractor_trianglediamonds.svg	stimuli_target_trianglecircles.svg	25	yes	53	1	458
6.6.1	win	2022-12-14	13:08:11	13:16:34	499876	6122db5a591eaf8ee07cf3d0	32474325	1	main_slash	7	advance_on_keypress_SLASH	44	stimuli_distractor_trianglediamonds.svg	stimuli_target_trianglecircles.svg	25	yes	57	0	684
6.6.1	win	2022-12-14	13:08:11	13:16:36	501686	6122db5a591eaf8ee07cf3d0	32474325	1	main_slash	7	main_slash	45	stimuli_distractor_diamondtriangles.svg	stimuli_target_squarediamonds.svg	16	yes	53	1	484
6.6.1	win	2022-12-14	13:08:11	13:16:36	501686	6122db5a591eaf8ee07cf3d0	32474325	1	main_slash	7	advance_on_keypress_SLASH	46	stimuli_distractor_diamondtriangles.svg	stimuli_target_squarediamonds.svg	16	yes	57	0	636
6.6.1	win	2022-12-14	13:08:11	13:16:38	503631	6122db5a591eaf8ee07cf3d0	32474325	1	main_slash	7	main_slash	47	stimuli_distractor_trianglediamonds.svg	stimuli_target_diamondsquares.svg	28	yes	53	1	663
6.6.1	win	2022-12-14	13:08:11	13:16:38	503631	6122db5a591eaf8ee07cf3d0	32474325	1	main_slash	7	advance_on_keypress_SLASH	48	stimuli_distractor_trianglediamonds.svg	stimuli_target_diamondsquares.svg	28	yes	57	0	561
6.6.1	win	2022-12-14	13:08:11	13:16:40	505452	6122db5a591eaf8ee07cf3d0	32474325	1	main_slash	7	main_slash	49	stimuli_target_squaretriangles.svg	stimuli_distractor_diamondtriangles.svg	7	yes	53	1	617
6.6.1	win	2022-12-14	13:08:11	13:16:40	505452	6122db5a591eaf8ee07cf3d0	32474325	1	main_slash	7	advance_on_keypress_SLASH	50	stimuli_target_squaretriangles.svg	stimuli_distractor_diamondtriangles.svg	7	yes	57	0	658
6.6.1	win	2022-12-14	13:08:11	13:16:43	508753	6122db5a591eaf8ee07cf3d0	32474325	1	main_slash	7	main_slash	51	stimuli_distractor_trianglediamonds.svg	stimuli_distractor_diamondtriangles.svg	36	no	0	1	2000
6.6.1	win	2022-12-14	13:08:11	13:16:43	508753	6122db5a591eaf8ee07cf3d0	32474325	1	main_slash	7	advance_on_keypress_SLASH	52	stimuli_distractor_trianglediamonds.svg	stimuli_distractor_diamondtriangles.svg	36	no	57	0	800
6.6.1	win	2022-12-14	13:08:11	13:16:45	510635	6122db5a591eaf8ee07cf3d0	32474325	1	main_slash	7	main_slash	53	stimuli_distractor_diamondtriangles.svg	stimuli_target_trianglecircles.svg	29	yes	53	1	431
6.6.1	win	2022-12-14	13:08:11	13:16:45	510635	6122db5a591eaf8ee07cf3d0	32474325	1	main_slash	7	advance_on_keypress_SLASH	54	stimuli_distractor_diamondtriangles.svg	stimuli_target_trianglecircles.svg	29	yes	57	0	646
6.6.1	win	2022-12-14	13:08:11	13:16:47	512926	6122db5a591eaf8ee07cf3d0	32474325	1	main_slash	7	main_slash	55	stimuli_distractor_diamondtriangles.svg	stimuli_distractor_trianglediamonds.svg	38	no	53	0	989
6.6.1	win	2022-12-14	13:08:11	13:16:47	512926	6122db5a591eaf8ee07cf3d0	32474325	1	main_slash	7	advance_on_keypress_SLASH	56	stimuli_distractor_diamondtriangles.svg	stimuli_distractor_trianglediamonds.svg	38	no	57	0	433
6.6.1	win	2022-12-14	13:08:11	13:16:51	516005	6122db5a591eaf8ee07cf3d0	32474325	1	main_slash	7	main_slash	57	stimuli_distractor_diamondtriangles.svg	stimuli_distractor_diamondtriangles.svg	39	no	0	1	2000
6.6.1	win	2022-12-14	13:08:11	13:16:51	516005	6122db5a591eaf8ee07cf3d0	32474325	1	main_slash	7	advance_on_keypress_SLASH	58	stimuli_distractor_diamondtriangles.svg	stimuli_distractor_diamondtriangles.svg	39	no	57	0	397
6.6.1	win	2022-12-14	13:08:11	13:16:52	517484	6122db5a591eaf8ee07cf3d0	32474325	1	main_slash	7	main_slash	59	stimuli_distractor_trianglediamonds.svg	stimuli_target_diamondcircles.svg	27	yes	53	1	428
6.6.1	win	2022-12-14	13:08:11	13:16:52	517484	6122db5a591eaf8ee07cf3d0	32474325	1	main_slash	7	advance_on_keypress_SLASH	60	stimuli_distractor_trianglediamonds.svg	stimuli_target_diamondcircles.svg	27	yes	57	0	1024
6.6.1	win	2022-12-14	13:08:11	13:16:54	519853	6122db5a591eaf8ee07cf3d0	32474325	1	main_slash	7	main_slash	61	stimuli_target_diamondcircles.svg	stimuli_distractor_trianglediamonds.svg	19	yes	53	1	697
6.6.1	win	2022-12-14	13:08:11	13:16:54	519853	6122db5a591eaf8ee07cf3d0	32474325	1	main_slash	7	advance_on_keypress_SLASH	62	stimuli_target_diamondcircles.svg	stimuli_distractor_trianglediamonds.svg	19	yes	57	0	806
6.6.1	win	2022-12-14	13:08:11	13:16:57	522087	6122db5a591eaf8ee07cf3d0	32474325	1	main_slash	7	main_slash	63	stimuli_target_squarediamonds.svg	stimuli_distractor_diamondtriangles.svg	8	yes	53	1	780
6.6.1	win	2022-12-14	13:08:11	13:16:57	522087	6122db5a591eaf8ee07cf3d0	32474325	1	main_slash	7	advance_on_keypress_SLASH	64	stimuli_target_squarediamonds.svg	stimuli_distractor_diamondtriangles.svg	8	yes	57	0	1255
6.6.1	win	2022-12-14	13:08:11	13:16:59	524658	6122db5a591eaf8ee07cf3d0	32474325	1	main_slash	7	main_slash	65	stimuli_distractor_trianglediamonds.svg	stimuli_target_squaretriangles.svg	11	yes	53	1	667
6.6.1	win	2022-12-14	13:08:11	13:16:59	524658	6122db5a591eaf8ee07cf3d0	32474325	1	main_slash	7	advance_on_keypress_SLASH	66	stimuli_distractor_trianglediamonds.svg	stimuli_target_squaretriangles.svg	11	yes	57	0	1124
6.6.1	win	2022-12-14	13:08:11	13:17:01	526864	6122db5a591eaf8ee07cf3d0	32474325	1	main_slash	7	main_slash	67	stimuli_distractor_trianglediamonds.svg	stimuli_target_squarediamonds.svg	12	yes	53	1	439
6.6.1	win	2022-12-14	13:08:11	13:17:01	526864	6122db5a591eaf8ee07cf3d0	32474325	1	main_slash	7	advance_on_keypress_SLASH	68	stimuli_distractor_trianglediamonds.svg	stimuli_target_squarediamonds.svg	12	yes	57	0	1414
6.6.1	win	2022-12-14	13:08:11	13:17:04	529443	6122db5a591eaf8ee07cf3d0	32474325	1	main_slash	7	main_slash	69	stimuli_distractor_trianglediamonds.svg	stimuli_target_trianglesquares.svg	26	yes	53	1	517
6.6.1	win	2022-12-14	13:08:11	13:17:04	529443	6122db5a591eaf8ee07cf3d0	32474325	1	main_slash	7	advance_on_keypress_SLASH	70	stimuli_distractor_trianglediamonds.svg	stimuli_target_trianglesquares.svg	26	yes	57	0	781
6.6.1	win	2022-12-14	13:08:11	13:17:06	531403	6122db5a591eaf8ee07cf3d0	32474325	1	main_slash	7	main_slash	71	stimuli_target_trianglecircles.svg	stimuli_distractor_trianglediamonds.svg	17	yes	53	1	527
6.6.1	win	2022-12-14	13:08:11	13:17:06	531403	6122db5a591eaf8ee07cf3d0	32474325	1	main_slash	7	advance_on_keypress_SLASH	72	stimuli_target_trianglecircles.svg	stimuli_distractor_trianglediamonds.svg	17	yes	57	0	691
6.6.1	win	2022-12-14	13:08:11	13:17:08	533283	6122db5a591eaf8ee07cf3d0	32474325	1	main_slash	7	main_slash	73	stimuli_target_circletriangles.svg	stimuli_distractor_diamondtriangles.svg	5	yes	53	1	556
6.6.1	win	2022-12-14	13:08:11	13:17:08	533283	6122db5a591eaf8ee07cf3d0	32474325	1	main_slash	7	advance_on_keypress_SLASH	74	stimuli_target_circletriangles.svg	stimuli_distractor_diamondtriangles.svg	5	yes	57	0	618
6.6.1	win	2022-12-14	13:08:11	13:17:10	535212	6122db5a591eaf8ee07cf3d0	32474325	1	main_slash	7	main_slash	75	stimuli_target_diamondcircles.svg	stimuli_distractor_diamondtriangles.svg	23	yes	53	1	668
6.6.1	win	2022-12-14	13:08:11	13:17:10	535212	6122db5a591eaf8ee07cf3d0	32474325	1	main_slash	7	advance_on_keypress_SLASH	76	stimuli_target_diamondcircles.svg	stimuli_distractor_diamondtriangles.svg	23	yes	57	0	586
6.6.1	win	2022-12-14	13:08:11	13:17:12	537083	6122db5a591eaf8ee07cf3d0	32474325	1	main_slash	7	main_slash	77	stimuli_target_circlediamonds.svg	stimuli_distractor_trianglediamonds.svg	2	yes	53	1	640
6.6.1	win	2022-12-14	13:08:11	13:17:12	537083	6122db5a591eaf8ee07cf3d0	32474325	1	main_slash	7	advance_on_keypress_SLASH	78	stimuli_target_circlediamonds.svg	stimuli_distractor_trianglediamonds.svg	2	yes	57	0	634
6.6.1	win	2022-12-14	13:08:11	13:17:13	538970	6122db5a591eaf8ee07cf3d0	32474325	1	main_slash	7	main_slash	79	stimuli_distractor_trianglediamonds.svg	stimuli_target_circletriangles.svg	9	yes	53	1	609
6.6.1	win	2022-12-14	13:08:11	13:17:13	538970	6122db5a591eaf8ee07cf3d0	32474325	1	main_slash	7	advance_on_keypress_SLASH	80	stimuli_distractor_trianglediamonds.svg	stimuli_target_circletriangles.svg	9	yes	57	0	807
6.6.1	win	2022-12-14	13:08:11	13:17:17	542412	6122db5a591eaf8ee07cf3d0	32474325	1	main_slash	7	main_slash	81	stimuli_distractor_diamondtriangles.svg	stimuli_distractor_diamondtriangles.svg	39	no	0	1	2000
6.6.1	win	2022-12-14	13:08:11	13:17:17	542412	6122db5a591eaf8ee07cf3d0	32474325	1	main_slash	7	advance_on_keypress_SLASH	82	stimuli_distractor_diamondtriangles.svg	stimuli_distractor_diamondtriangles.svg	39	no	57	0	343
6.6.1	win	2022-12-14	13:08:11	13:17:20	545396	6122db5a591eaf8ee07cf3d0	32474325	1	main_slash	7	main_slash	83	stimuli_distractor_diamondtriangles.svg	stimuli_distractor_diamondtriangles.svg	40	no	0	1	2000
6.6.1	win	2022-12-14	13:08:11	13:17:20	545396	6122db5a591eaf8ee07cf3d0	32474325	1	main_slash	7	advance_on_keypress_SLASH	84	stimuli_distractor_diamondtriangles.svg	stimuli_distractor_diamondtriangles.svg	40	no	57	0	340
6.6.1	win	2022-12-14	13:08:11	13:17:21	546828	6122db5a591eaf8ee07cf3d0	32474325	1	main_slash	7	main_slash	85	stimuli_distractor_diamondtriangles.svg	stimuli_target_circlediamonds.svg	14	yes	53	1	448
6.6.1	win	2022-12-14	13:08:11	13:17:21	546828	6122db5a591eaf8ee07cf3d0	32474325	1	main_slash	7	advance_on_keypress_SLASH	86	stimuli_distractor_diamondtriangles.svg	stimuli_target_circlediamonds.svg	14	yes	57	0	442
6.6.1	win	2022-12-14	13:08:11	13:17:23	548454	6122db5a591eaf8ee07cf3d0	32474325	1	main_slash	7	main_slash	87	stimuli_distractor_diamondtriangles.svg	stimuli_target_trianglesquares.svg	30	yes	53	1	540
6.6.1	win	2022-12-14	13:08:11	13:17:23	548454	6122db5a591eaf8ee07cf3d0	32474325	1	main_slash	7	advance_on_keypress_SLASH	88	stimuli_distractor_diamondtriangles.svg	stimuli_target_trianglesquares.svg	30	yes	57	0	498
6.6.1	win	2022-12-14	13:08:11	13:17:25	550180	6122db5a591eaf8ee07cf3d0	32474325	1	main_slash	7	main_slash	89	stimuli_distractor_trianglediamonds.svg	stimuli_target_diamondsquares.svg	28	yes	53	1	582
6.6.1	win	2022-12-14	13:08:11	13:17:25	550180	6122db5a591eaf8ee07cf3d0	32474325	1	main_slash	7	advance_on_keypress_SLASH	90	stimuli_distractor_trianglediamonds.svg	stimuli_target_diamondsquares.svg	28	yes	57	0	1765
6.6.1	win	2022-12-14	13:08:11	13:17:28	553087	6122db5a591eaf8ee07cf3d0	32474325	1	main_slash	7	main_slash	91	stimuli_distractor_trianglediamonds.svg	stimuli_target_circlediamonds.svg	10	yes	53	1	489
6.6.1	win	2022-12-14	13:08:11	13:17:28	553087	6122db5a591eaf8ee07cf3d0	32474325	1	main_slash	7	advance_on_keypress_SLASH	92	stimuli_distractor_trianglediamonds.svg	stimuli_target_circlediamonds.svg	10	yes	57	0	744
6.6.1	win	2022-12-14	13:08:11	13:17:30	555094	6122db5a591eaf8ee07cf3d0	32474325	1	main_slash	7	main_slash	93	stimuli_distractor_trianglediamonds.svg	stimuli_target_circletriangles.svg	9	yes	53	1	628
6.6.1	win	2022-12-14	13:08:11	13:17:30	555094	6122db5a591eaf8ee07cf3d0	32474325	1	main_slash	7	advance_on_keypress_SLASH	94	stimuli_distractor_trianglediamonds.svg	stimuli_target_circletriangles.svg	9	yes	57	0	757
6.6.1	win	2022-12-14	13:08:11	13:17:33	558499	6122db5a591eaf8ee07cf3d0	32474325	1	main_slash	7	main_slash	95	stimuli_distractor_trianglediamonds.svg	stimuli_distractor_trianglediamonds.svg	33	no	0	1	2000
6.6.1	win	2022-12-14	13:08:11	13:17:33	558499	6122db5a591eaf8ee07cf3d0	32474325	1	main_slash	7	advance_on_keypress_SLASH	96	stimuli_distractor_trianglediamonds.svg	stimuli_distractor_trianglediamonds.svg	33	no	57	0	536
6.6.1	win	2022-12-14	13:08:11	13:17:35	560317	6122db5a591eaf8ee07cf3d0	32474325	1	main_slash	7	main_slash	97	stimuli_target_diamondcircles.svg	stimuli_distractor_diamondtriangles.svg	23	yes	53	1	633
6.6.1	win	2022-12-14	13:08:11	13:17:35	560317	6122db5a591eaf8ee07cf3d0	32474325	1	main_slash	7	advance_on_keypress_SLASH	98	stimuli_target_diamondcircles.svg	stimuli_distractor_diamondtriangles.svg	23	yes	57	0	845
6.6.1	win	2022-12-14	13:08:11	13:17:37	562307	6122db5a591eaf8ee07cf3d0	32474325	1	main_slash	7	main_slash	99	stimuli_distractor_trianglediamonds.svg	stimuli_target_squaretriangles.svg	11	yes	53	1	489
6.6.1	win	2022-12-14	13:08:11	13:17:37	562307	6122db5a591eaf8ee07cf3d0	32474325	1	main_slash	7	advance_on_keypress_SLASH	100	stimuli_distractor_trianglediamonds.svg	stimuli_target_squaretriangles.svg	11	yes	57	0	728
6.6.1	win	2022-12-14	13:08:11	13:17:39	564200	6122db5a591eaf8ee07cf3d0	32474325	1	main_slash	7	main_slash	101	stimuli_target_circletriangles.svg	stimuli_distractor_diamondtriangles.svg	5	yes	53	1	508
6.6.1	win	2022-12-14	13:08:11	13:17:39	564200	6122db5a591eaf8ee07cf3d0	32474325	1	main_slash	7	advance_on_keypress_SLASH	102	stimuli_target_circletriangles.svg	stimuli_distractor_diamondtriangles.svg	5	yes	57	0	1376
6.6.1	win	2022-12-14	13:08:11	13:17:41	566787	6122db5a591eaf8ee07cf3d0	32474325	1	main_slash	7	main_slash	103	stimuli_target_trianglesquares.svg	stimuli_distractor_diamondtriangles.svg	22	yes	53	1	569
6.6.1	win	2022-12-14	13:08:11	13:17:41	566787	6122db5a591eaf8ee07cf3d0	32474325	1	main_slash	7	advance_on_keypress_SLASH	104	stimuli_target_trianglesquares.svg	stimuli_distractor_diamondtriangles.svg	22	yes	57	0	988
6.6.1	win	2022-12-14	13:08:11	13:17:43	568914	6122db5a591eaf8ee07cf3d0	32474325	1	main_slash	7	main_slash	105	stimuli_target_trianglecircles.svg	stimuli_distractor_diamondtriangles.svg	21	yes	53	1	496
6.6.1	win	2022-12-14	13:08:11	13:17:43	568914	6122db5a591eaf8ee07cf3d0	32474325	1	main_slash	7	advance_on_keypress_SLASH	106	stimuli_target_trianglecircles.svg	stimuli_distractor_diamondtriangles.svg	21	yes	57	0	686
6.6.1	win	2022-12-14	13:08:11	13:17:45	570855	6122db5a591eaf8ee07cf3d0	32474325	1	main_slash	7	main_slash	107	stimuli_distractor_diamondtriangles.svg	stimuli_target_squarediamonds.svg	16	yes	53	1	602
6.6.1	win	2022-12-14	13:08:11	13:17:45	570855	6122db5a591eaf8ee07cf3d0	32474325	1	main_slash	7	advance_on_keypress_SLASH	108	stimuli_distractor_diamondtriangles.svg	stimuli_target_squarediamonds.svg	16	yes	57	0	652
6.6.1	win	2022-12-14	13:08:11	13:17:49	574154	6122db5a591eaf8ee07cf3d0	32474325	1	main_slash	7	main_slash	109	stimuli_distractor_trianglediamonds.svg	stimuli_distractor_diamondtriangles.svg	36	no	0	1	2000
6.6.1	win	2022-12-14	13:08:11	13:17:49	574154	6122db5a591eaf8ee07cf3d0	32474325	1	main_slash	7	advance_on_keypress_SLASH	110	stimuli_distractor_trianglediamonds.svg	stimuli_distractor_diamondtriangles.svg	36	no	57	0	540
6.6.1	win	2022-12-14	13:08:11	13:17:51	576788	6122db5a591eaf8ee07cf3d0	32474325	1	main_slash	7	main_slash	111	stimuli_target_diamondsquares.svg	stimuli_distractor_trianglediamonds.svg	20	yes	53	1	1451
6.6.1	win	2022-12-14	13:08:11	13:17:51	576788	6122db5a591eaf8ee07cf3d0	32474325	1	main_slash	7	advance_on_keypress_SLASH	112	stimuli_target_diamondsquares.svg	stimuli_distractor_trianglediamonds.svg	20	yes	57	0	446
6.6.1	win	2022-12-14	13:08:11	13:17:53	578502	6122db5a591eaf8ee07cf3d0	32474325	1	main_slash	7	main_slash	113	stimuli_distractor_diamondtriangles.svg	stimuli_target_squaretriangles.svg	15	yes	53	1	614
6.6.1	win	2022-12-14	13:08:11	13:17:53	578502	6122db5a591eaf8ee07cf3d0	32474325	1	main_slash	7	advance_on_keypress_SLASH	114	stimuli_distractor_diamondtriangles.svg	stimuli_target_squaretriangles.svg	15	yes	57	0	721
6.6.1	win	2022-12-14	13:08:11	13:17:55	580496	6122db5a591eaf8ee07cf3d0	32474325	1	main_slash	7	main_slash	115	stimuli_target_trianglesquares.svg	stimuli_distractor_trianglediamonds.svg	18	yes	53	1	624
6.6.1	win	2022-12-14	13:08:11	13:17:55	580496	6122db5a591eaf8ee07cf3d0	32474325	1	main_slash	7	advance_on_keypress_SLASH	116	stimuli_target_trianglesquares.svg	stimuli_distractor_trianglediamonds.svg	18	yes	57	0	789
6.6.1	win	2022-12-14	13:08:11	13:17:57	582462	6122db5a591eaf8ee07cf3d0	32474325	1	main_slash	7	main_slash	117	stimuli_target_circlediamonds.svg	stimuli_distractor_diamondtriangles.svg	6	yes	53	1	540
6.6.1	win	2022-12-14	13:08:11	13:17:57	582462	6122db5a591eaf8ee07cf3d0	32474325	1	main_slash	7	advance_on_keypress_SLASH	118	stimuli_target_circlediamonds.svg	stimuli_distractor_diamondtriangles.svg	6	yes	57	0	1424
6.6.1	win	2022-12-14	13:08:11	13:18:00	585084	6122db5a591eaf8ee07cf3d0	32474325	1	main_slash	7	main_slash	119	stimuli_distractor_trianglediamonds.svg	stimuli_target_trianglecircles.svg	25	yes	53	1	561
6.6.1	win	2022-12-14	13:08:11	13:18:00	585084	6122db5a591eaf8ee07cf3d0	32474325	1	main_slash	7	advance_on_keypress_SLASH	120	stimuli_distractor_trianglediamonds.svg	stimuli_target_trianglecircles.svg	25	yes	57	0	837
6.6.1	win	2022-12-14	13:08:11	13:18:02	587205	6122db5a591eaf8ee07cf3d0	32474325	1	main_slash	7	main_slash	121	stimuli_distractor_diamondtriangles.svg	stimuli_target_diamondcircles.svg	31	yes	53	1	648
6.6.1	win	2022-12-14	13:08:11	13:18:02	587205	6122db5a591eaf8ee07cf3d0	32474325	1	main_slash	7	advance_on_keypress_SLASH	122	stimuli_distractor_diamondtriangles.svg	stimuli_target_diamondcircles.svg	31	yes	57	0	553
6.6.1	win	2022-12-14	13:08:11	13:18:05	590408	6122db5a591eaf8ee07cf3d0	32474325	1	main_slash	7	main_slash	123	stimuli_distractor_trianglediamonds.svg	stimuli_distractor_diamondtriangles.svg	35	no	0	1	2000
6.6.1	win	2022-12-14	13:08:11	13:18:05	590408	6122db5a591eaf8ee07cf3d0	32474325	1	main_slash	7	advance_on_keypress_SLASH	124	stimuli_distractor_trianglediamonds.svg	stimuli_distractor_diamondtriangles.svg	35	no	57	0	650
6.6.1	win	2022-12-14	13:08:11	13:18:07	592323	6122db5a591eaf8ee07cf3d0	32474325	1	main_slash	7	main_slash	125	stimuli_target_trianglecircles.svg	stimuli_distractor_trianglediamonds.svg	17	yes	53	1	614
6.6.1	win	2022-12-14	13:08:11	13:18:07	592323	6122db5a591eaf8ee07cf3d0	32474325	1	main_slash	7	advance_on_keypress_SLASH	126	stimuli_target_trianglecircles.svg	stimuli_distractor_trianglediamonds.svg	17	yes	57	0	1225
6.6.1	win	2022-12-14	13:08:11	13:18:09	594818	6122db5a591eaf8ee07cf3d0	32474325	1	main_slash	7	main_slash	127	stimuli_distractor_diamondtriangles.svg	stimuli_target_circletriangles.svg	13	yes	53	1	625
6.6.1	win	2022-12-14	13:08:11	13:18:09	594818	6122db5a591eaf8ee07cf3d0	32474325	1	main_slash	7	advance_on_keypress_SLASH	128	stimuli_distractor_diamondtriangles.svg	stimuli_target_circletriangles.svg	13	yes	57	0	678
6.6.1	win	2022-12-14	13:08:11	13:18:12	597352	6122db5a591eaf8ee07cf3d0	32474325	1	main_slash	7	main_slash	129	stimuli_distractor_trianglediamonds.svg	stimuli_target_diamondcircles.svg	27	yes	53	1	1209
6.6.1	win	2022-12-14	13:08:11	13:18:12	597352	6122db5a591eaf8ee07cf3d0	32474325	1	main_slash	7	advance_on_keypress_SLASH	130	stimuli_distractor_trianglediamonds.svg	stimuli_target_diamondcircles.svg	27	yes	57	0	879
6.6.1	win	2022-12-14	13:08:11	13:18:14	599628	6122db5a591eaf8ee07cf3d0	32474325	1	main_slash	7	main_slash	131	stimuli_distractor_diamondtriangles.svg	stimuli_target_diamondsquares.svg	32	yes	53	1	751
6.6.1	win	2022-12-14	13:08:11	13:18:14	599628	6122db5a591eaf8ee07cf3d0	32474325	1	main_slash	7	advance_on_keypress_SLASH	132	stimuli_distractor_diamondtriangles.svg	stimuli_target_diamondsquares.svg	32	yes	57	0	870
6.6.1	win	2022-12-14	13:08:11	13:18:16	601878	6122db5a591eaf8ee07cf3d0	32474325	1	main_slash	7	main_slash	133	stimuli_target_squaretriangles.svg	stimuli_distractor_diamondtriangles.svg	7	yes	53	1	734
6.6.1	win	2022-12-14	13:08:11	13:18:16	601878	6122db5a591eaf8ee07cf3d0	32474325	1	main_slash	7	advance_on_keypress_SLASH	134	stimuli_target_squaretriangles.svg	stimuli_distractor_diamondtriangles.svg	7	yes	57	0	728
6.6.1	win	2022-12-14	13:08:11	13:18:19	604000	6122db5a591eaf8ee07cf3d0	32474325	1	main_slash	7	main_slash	135	stimuli_target_circlediamonds.svg	stimuli_distractor_trianglediamonds.svg	2	yes	53	1	738
6.6.1	win	2022-12-14	13:08:11	13:18:19	604000	6122db5a591eaf8ee07cf3d0	32474325	1	main_slash	7	advance_on_keypress_SLASH	136	stimuli_target_circlediamonds.svg	stimuli_distractor_trianglediamonds.svg	2	yes	57	0	701
6.6.1	win	2022-12-14	13:08:11	13:18:21	606005	6122db5a591eaf8ee07cf3d0	32474325	1	main_slash	7	main_slash	137	stimuli_distractor_trianglediamonds.svg	stimuli_target_trianglesquares.svg	26	yes	53	1	659
6.6.1	win	2022-12-14	13:08:11	13:18:21	606005	6122db5a591eaf8ee07cf3d0	32474325	1	main_slash	7	advance_on_keypress_SLASH	138	stimuli_distractor_trianglediamonds.svg	stimuli_target_trianglesquares.svg	26	yes	57	0	721
6.6.1	win	2022-12-14	13:08:11	13:18:24	609363	6122db5a591eaf8ee07cf3d0	32474325	1	main_slash	7	main_slash	139	stimuli_distractor_trianglediamonds.svg	stimuli_distractor_trianglediamonds.svg	34	no	0	1	2000
6.6.1	win	2022-12-14	13:08:11	13:18:24	609363	6122db5a591eaf8ee07cf3d0	32474325	1	main_slash	7	advance_on_keypress_SLASH	140	stimuli_distractor_trianglediamonds.svg	stimuli_distractor_trianglediamonds.svg	34	no	57	0	363
6.6.1	win	2022-12-14	13:08:11	13:18:26	611524	6122db5a591eaf8ee07cf3d0	32474325	1	main_slash	7	main_slash	141	stimuli_target_diamondsquares.svg	stimuli_distractor_diamondtriangles.svg	24	yes	53	1	1145
6.6.1	win	2022-12-14	13:08:11	13:18:26	611524	6122db5a591eaf8ee07cf3d0	32474325	1	main_slash	7	advance_on_keypress_SLASH	142	stimuli_target_diamondsquares.svg	stimuli_distractor_diamondtriangles.svg	24	yes	57	0	602
6.6.1	win	2022-12-14	13:08:11	13:18:29	614764	6122db5a591eaf8ee07cf3d0	32474325	1	main_slash	7	main_slash	143	stimuli_distractor_diamondtriangles.svg	stimuli_distractor_trianglediamonds.svg	38	no	0	1	2000
6.6.1	win	2022-12-14	13:08:11	13:18:29	614764	6122db5a591eaf8ee07cf3d0	32474325	1	main_slash	7	advance_on_keypress_SLASH	144	stimuli_distractor_diamondtriangles.svg	stimuli_distractor_trianglediamonds.svg	38	no	57	0	287
6.6.1	win	2022-12-14	13:08:11	13:18:31	616191	6122db5a591eaf8ee07cf3d0	32474325	1	main_slash	7	main_slash	145	stimuli_target_squaretriangles.svg	stimuli_distractor_trianglediamonds.svg	3	yes	53	1	492
6.6.1	win	2022-12-14	13:08:11	13:18:31	616191	6122db5a591eaf8ee07cf3d0	32474325	1	main_slash	7	advance_on_keypress_SLASH	146	stimuli_target_squaretriangles.svg	stimuli_distractor_trianglediamonds.svg	3	yes	57	0	740
6.6.1	win	2022-12-14	13:08:11	13:18:33	618529	6122db5a591eaf8ee07cf3d0	32474325	1	main_slash	7	main_slash	147	stimuli_target_squarediamonds.svg	stimuli_distractor_trianglediamonds.svg	4	yes	53	1	963
6.6.1	win	2022-12-14	13:08:11	13:18:33	618529	6122db5a591eaf8ee07cf3d0	32474325	1	main_slash	7	advance_on_keypress_SLASH	148	stimuli_target_squarediamonds.svg	stimuli_distractor_trianglediamonds.svg	4	yes	57	0	889
6.6.1	win	2022-12-14	13:08:11	13:18:35	620581	6122db5a591eaf8ee07cf3d0	32474325	1	main_slash	7	main_slash	149	stimuli_target_diamondcircles.svg	stimuli_distractor_trianglediamonds.svg	19	yes	53	1	505
6.6.1	win	2022-12-14	13:08:11	13:18:35	620581	6122db5a591eaf8ee07cf3d0	32474325	1	main_slash	7	advance_on_keypress_SLASH	150	stimuli_target_diamondcircles.svg	stimuli_distractor_trianglediamonds.svg	19	yes	57	0	638
6.6.1	win	2022-12-14	13:08:11	13:18:37	622412	6122db5a591eaf8ee07cf3d0	32474325	1	main_slash	7	main_slash	151	stimuli_target_circletriangles.svg	stimuli_distractor_trianglediamonds.svg	1	yes	53	1	545
6.6.1	win	2022-12-14	13:08:11	13:18:37	622412	6122db5a591eaf8ee07cf3d0	32474325	1	main_slash	7	advance_on_keypress_SLASH	152	stimuli_target_circletriangles.svg	stimuli_distractor_trianglediamonds.svg	1	yes	57	0	505
6.6.1	win	2022-12-14	13:08:11	13:18:40	625567	6122db5a591eaf8ee07cf3d0	32474325	1	main_slash	7	main_slash	153	stimuli_distractor_diamondtriangles.svg	stimuli_distractor_trianglediamonds.svg	37	no	0	1	2000
6.6.1	win	2022-12-14	13:08:11	13:18:40	625567	6122db5a591eaf8ee07cf3d0	32474325	1	main_slash	7	advance_on_keypress_SLASH	154	stimuli_distractor_diamondtriangles.svg	stimuli_distractor_trianglediamonds.svg	37	no	57	0	367
6.6.1	win	2022-12-14	13:08:11	13:18:42	627038	6122db5a591eaf8ee07cf3d0	32474325	1	main_slash	7	main_slash	155	stimuli_distractor_diamondtriangles.svg	stimuli_target_trianglecircles.svg	29	yes	53	1	453
6.6.1	win	2022-12-14	13:08:11	13:18:42	627038	6122db5a591eaf8ee07cf3d0	32474325	1	main_slash	7	advance_on_keypress_SLASH	156	stimuli_distractor_diamondtriangles.svg	stimuli_target_trianglecircles.svg	29	yes	57	0	527
6.6.1	win	2022-12-14	13:08:11	13:18:43	628768	6122db5a591eaf8ee07cf3d0	32474325	1	main_slash	7	main_slash	157	stimuli_target_squarediamonds.svg	stimuli_distractor_diamondtriangles.svg	8	yes	53	1	550
6.6.1	win	2022-12-14	13:08:11	13:18:43	628768	6122db5a591eaf8ee07cf3d0	32474325	1	main_slash	7	advance_on_keypress_SLASH	158	stimuli_target_squarediamonds.svg	stimuli_distractor_diamondtriangles.svg	8	yes	57	0	625
6.6.1	win	2022-12-14	13:08:11	13:18:45	630506	6122db5a591eaf8ee07cf3d0	32474325	1	main_slash	7	main_slash	159	stimuli_distractor_trianglediamonds.svg	stimuli_target_squarediamonds.svg	12	yes	53	1	470
6.6.1	win	2022-12-14	13:08:11	13:18:45	630506	6122db5a591eaf8ee07cf3d0	32474325	1	main_slash	7	advance_on_keypress_SLASH	160	stimuli_distractor_trianglediamonds.svg	stimuli_target_squarediamonds.svg	12	yes	57	0	524
6.6.1	win	2022-12-14	13:08:11	13:19:30	675811	6122db5a591eaf8ee07cf3d0	32474325	1	practice_z	9	practice_z	1	stimuli_distractor_diamondtriangles.svg	stimuli_target_circletriangles.svg	7	yes	44	1	395
6.6.1	win	2022-12-14	13:08:11	13:19:30	675811	6122db5a591eaf8ee07cf3d0	32474325	1	practice_z	9	advance_on_keypress_ZEE	2	stimuli_distractor_diamondtriangles.svg	stimuli_target_circletriangles.svg	7	yes	57	0	1172
6.6.1	win	2022-12-14	13:08:11	13:19:34	679093	6122db5a591eaf8ee07cf3d0	32474325	1	practice_z	9	practice_z	3	stimuli_target_diamondsquares.svg	stimuli_distractor_diamondtriangles.svg	3	yes	44	1	458
6.6.1	win	2022-12-14	13:08:11	13:19:34	679093	6122db5a591eaf8ee07cf3d0	32474325	1	practice_z	9	advance_on_keypress_ZEE	4	stimuli_target_diamondsquares.svg	stimuli_distractor_diamondtriangles.svg	3	yes	57	0	275
6.6.1	win	2022-12-14	13:08:11	13:19:36	681431	6122db5a591eaf8ee07cf3d0	32474325	1	practice_z	9	practice_z	5	stimuli_target_circlediamonds.svg	stimuli_distractor_trianglediamonds.svg	4	yes	44	1	413
6.6.1	win	2022-12-14	13:08:11	13:19:36	681431	6122db5a591eaf8ee07cf3d0	32474325	1	practice_z	9	advance_on_keypress_ZEE	6	stimuli_target_circlediamonds.svg	stimuli_distractor_trianglediamonds.svg	4	yes	57	0	1952
6.6.1	win	2022-12-14	13:08:11	13:19:42	687036	6122db5a591eaf8ee07cf3d0	32474325	1	practice_z	9	practice_z	7	stimuli_distractor_trianglediamonds.svg	stimuli_distractor_diamondtriangles.svg	16	no	0	1	2000
6.6.1	win	2022-12-14	13:08:11	13:19:42	687036	6122db5a591eaf8ee07cf3d0	32474325	1	practice_z	9	advance_on_keypress_ZEE	8	stimuli_distractor_trianglediamonds.svg	stimuli_distractor_diamondtriangles.svg	16	no	57	0	488
6.6.1	win	2022-12-14	13:08:11	13:19:46	691170	6122db5a591eaf8ee07cf3d0	32474325	1	practice_z	9	practice_z	9	stimuli_distractor_trianglediamonds.svg	stimuli_distractor_trianglediamonds.svg	15	no	0	1	2000
6.6.1	win	2022-12-14	13:08:11	13:19:46	691170	6122db5a591eaf8ee07cf3d0	32474325	1	practice_z	9	advance_on_keypress_ZEE	10	stimuli_distractor_trianglediamonds.svg	stimuli_distractor_trianglediamonds.svg	15	no	57	0	519
6.6.1	win	2022-12-14	13:08:11	13:19:48	693736	6122db5a591eaf8ee07cf3d0	32474325	1	practice_z	9	practice_z	11	stimuli_distractor_trianglediamonds.svg	stimuli_target_diamondcircles.svg	12	yes	44	1	399
6.6.1	win	2022-12-14	13:08:11	13:19:48	693736	6122db5a591eaf8ee07cf3d0	32474325	1	practice_z	9	advance_on_keypress_ZEE	12	stimuli_distractor_trianglediamonds.svg	stimuli_target_diamondcircles.svg	12	yes	57	0	341
6.6.1	win	2022-12-14	13:08:11	13:19:52	697722	6122db5a591eaf8ee07cf3d0	32474325	1	practice_z	9	practice_z	13	stimuli_distractor_diamondtriangles.svg	stimuli_distractor_diamondtriangles.svg	13	no	0	1	2000
6.6.1	win	2022-12-14	13:08:11	13:19:52	697722	6122db5a591eaf8ee07cf3d0	32474325	1	practice_z	9	advance_on_keypress_ZEE	14	stimuli_distractor_diamondtriangles.svg	stimuli_distractor_diamondtriangles.svg	13	no	57	0	474
6.6.1	win	2022-12-14	13:08:11	13:19:56	701840	6122db5a591eaf8ee07cf3d0	32474325	1	practice_z	9	practice_z	15	stimuli_distractor_diamondtriangles.svg	stimuli_distractor_trianglediamonds.svg	14	no	0	1	2000
6.6.1	win	2022-12-14	13:08:11	13:19:56	701840	6122db5a591eaf8ee07cf3d0	32474325	1	practice_z	9	advance_on_keypress_ZEE	16	stimuli_distractor_diamondtriangles.svg	stimuli_distractor_trianglediamonds.svg	14	no	57	0	356
6.6.1	win	2022-12-14	13:08:11	13:19:59	704266	6122db5a591eaf8ee07cf3d0	32474325	1	practice_z	9	practice_z	17	stimuli_distractor_diamondtriangles.svg	stimuli_target_diamondcircles.svg	8	yes	44	1	422
6.6.1	win	2022-12-14	13:08:11	13:19:59	704266	6122db5a591eaf8ee07cf3d0	32474325	1	practice_z	9	advance_on_keypress_ZEE	18	stimuli_distractor_diamondtriangles.svg	stimuli_target_diamondcircles.svg	8	yes	57	0	500
6.6.1	win	2022-12-14	13:08:11	13:20:01	706911	6122db5a591eaf8ee07cf3d0	32474325	1	practice_z	9	practice_z	19	stimuli_distractor_trianglediamonds.svg	stimuli_target_circlediamonds.svg	10	yes	44	1	487
6.6.1	win	2022-12-14	13:08:11	13:20:01	706911	6122db5a591eaf8ee07cf3d0	32474325	1	practice_z	9	advance_on_keypress_ZEE	20	stimuli_distractor_trianglediamonds.svg	stimuli_target_circlediamonds.svg	10	yes	57	0	172
6.6.1	win	2022-12-14	13:08:11	13:20:04	709360	6122db5a591eaf8ee07cf3d0	32474325	1	practice_z	9	practice_z	21	stimuli_target_squarediamonds.svg	stimuli_distractor_diamondtriangles.svg	2	yes	44	1	634
6.6.1	win	2022-12-14	13:08:11	13:20:04	709360	6122db5a591eaf8ee07cf3d0	32474325	1	practice_z	9	advance_on_keypress_ZEE	22	stimuli_target_squarediamonds.svg	stimuli_distractor_diamondtriangles.svg	2	yes	57	0	43
6.6.1	win	2022-12-14	13:08:11	13:20:06	711424	6122db5a591eaf8ee07cf3d0	32474325	1	practice_z	9	practice_z	23	stimuli_target_diamondsquares.svg	stimuli_distractor_trianglediamonds.svg	6	yes	44	1	364
6.6.1	win	2022-12-14	13:08:11	13:20:06	711424	6122db5a591eaf8ee07cf3d0	32474325	1	practice_z	9	advance_on_keypress_ZEE	24	stimuli_target_diamondsquares.svg	stimuli_distractor_trianglediamonds.svg	6	yes	57	0	996
6.6.1	win	2022-12-14	13:08:11	13:20:09	714525	6122db5a591eaf8ee07cf3d0	32474325	1	practice_z	9	practice_z	25	stimuli_target_circlediamonds.svg	stimuli_distractor_diamondtriangles.svg	1	yes	44	1	448
6.6.1	win	2022-12-14	13:08:11	13:20:09	714525	6122db5a591eaf8ee07cf3d0	32474325	1	practice_z	9	advance_on_keypress_ZEE	26	stimuli_target_circlediamonds.svg	stimuli_distractor_diamondtriangles.svg	1	yes	57	0	382
6.6.1	win	2022-12-14	13:08:11	13:20:12	717114	6122db5a591eaf8ee07cf3d0	32474325	1	practice_z	9	practice_z	27	stimuli_distractor_trianglediamonds.svg	stimuli_target_squarediamonds.svg	11	yes	44	1	554
6.6.1	win	2022-12-14	13:08:11	13:20:12	717114	6122db5a591eaf8ee07cf3d0	32474325	1	practice_z	9	advance_on_keypress_ZEE	28	stimuli_distractor_trianglediamonds.svg	stimuli_target_squarediamonds.svg	11	yes	57	0	651
6.6.1	win	2022-12-14	13:08:11	13:20:14	719864	6122db5a591eaf8ee07cf3d0	32474325	1	practice_z	9	practice_z	29	stimuli_target_squarediamonds.svg	stimuli_distractor_trianglediamonds.svg	5	yes	44	1	452
6.6.1	win	2022-12-14	13:08:11	13:20:14	719864	6122db5a591eaf8ee07cf3d0	32474325	1	practice_z	9	advance_on_keypress_ZEE	30	stimuli_target_squarediamonds.svg	stimuli_distractor_trianglediamonds.svg	5	yes	57	0	1748
6.6.1	win	2022-12-14	13:08:11	13:20:18	723792	6122db5a591eaf8ee07cf3d0	32474325	1	practice_z	9	practice_z	31	stimuli_distractor_diamondtriangles.svg	stimuli_target_trianglecircles.svg	9	yes	44	1	530
6.6.1	win	2022-12-14	13:08:11	13:20:18	723792	6122db5a591eaf8ee07cf3d0	32474325	1	practice_z	9	advance_on_keypress_ZEE	32	stimuli_distractor_diamondtriangles.svg	stimuli_target_trianglecircles.svg	9	yes	57	0	694
6.6.1	win	2022-12-14	13:08:11	13:21:01	766538	6122db5a591eaf8ee07cf3d0	32474325	1	main_z	11	main_z	1	stimuli_distractor_diamondtriangles.svg	stimuli_distractor_diamondtriangles.svg	40	no	0	1	2000
6.6.1	win	2022-12-14	13:08:11	13:21:01	766538	6122db5a591eaf8ee07cf3d0	32474325	1	main_z	11	advance_on_keypress_ZEE	2	stimuli_distractor_diamondtriangles.svg	stimuli_distractor_diamondtriangles.svg	40	no	57	0	618
6.6.1	win	2022-12-14	13:08:11	13:21:03	768150	6122db5a591eaf8ee07cf3d0	32474325	1	main_z	11	main_z	3	stimuli_distractor_diamondtriangles.svg	stimuli_target_trianglecircles.svg	29	yes	44	1	345
6.6.1	win	2022-12-14	13:08:11	13:21:03	768150	6122db5a591eaf8ee07cf3d0	32474325	1	main_z	11	advance_on_keypress_ZEE	4	stimuli_distractor_diamondtriangles.svg	stimuli_target_trianglecircles.svg	29	yes	57	0	959
6.6.1	win	2022-12-14	13:08:11	13:21:05	770173	6122db5a591eaf8ee07cf3d0	32474325	1	main_z	11	main_z	5	stimuli_distractor_trianglediamonds.svg	stimuli_target_trianglesquares.svg	26	yes	44	1	417
6.6.1	win	2022-12-14	13:08:11	13:21:05	770173	6122db5a591eaf8ee07cf3d0	32474325	1	main_z	11	advance_on_keypress_ZEE	6	stimuli_distractor_trianglediamonds.svg	stimuli_target_trianglesquares.svg	26	yes	57	0	494
6.6.1	win	2022-12-14	13:08:11	13:21:06	771716	6122db5a591eaf8ee07cf3d0	32474325	1	main_z	11	main_z	7	stimuli_target_squarediamonds.svg	stimuli_distractor_diamondtriangles.svg	8	yes	44	1	411
6.6.1	win	2022-12-14	13:08:11	13:21:06	771716	6122db5a591eaf8ee07cf3d0	32474325	1	main_z	11	advance_on_keypress_ZEE	8	stimuli_target_squarediamonds.svg	stimuli_distractor_diamondtriangles.svg	8	yes	57	0	453
6.6.1	win	2022-12-14	13:08:11	13:21:08	773212	6122db5a591eaf8ee07cf3d0	32474325	1	main_z	11	main_z	9	stimuli_distractor_diamondtriangles.svg	stimuli_target_diamondcircles.svg	31	yes	44	1	405
6.6.1	win	2022-12-14	13:08:11	13:21:08	773212	6122db5a591eaf8ee07cf3d0	32474325	1	main_z	11	advance_on_keypress_ZEE	10	stimuli_distractor_diamondtriangles.svg	stimuli_target_diamondcircles.svg	31	yes	57	0	490
6.6.1	win	2022-12-14	13:08:11	13:21:09	774819	6122db5a591eaf8ee07cf3d0	32474325	1	main_z	11	main_z	11	stimuli_target_diamondcircles.svg	stimuli_distractor_trianglediamonds.svg	19	yes	44	1	480
6.6.1	win	2022-12-14	13:08:11	13:21:09	774819	6122db5a591eaf8ee07cf3d0	32474325	1	main_z	11	advance_on_keypress_ZEE	12	stimuli_target_diamondcircles.svg	stimuli_distractor_trianglediamonds.svg	19	yes	57	0	449
6.6.1	win	2022-12-14	13:08:11	13:21:11	776581	6122db5a591eaf8ee07cf3d0	32474325	1	main_z	11	main_z	13	stimuli_distractor_trianglediamonds.svg	stimuli_target_squaretriangles.svg	11	yes	44	1	657
6.6.1	win	2022-12-14	13:08:11	13:21:11	776581	6122db5a591eaf8ee07cf3d0	32474325	1	main_z	11	advance_on_keypress_ZEE	14	stimuli_distractor_trianglediamonds.svg	stimuli_target_squaretriangles.svg	11	yes	57	0	499
6.6.1	win	2022-12-14	13:08:11	13:21:13	778264	6122db5a591eaf8ee07cf3d0	32474325	1	main_z	11	main_z	15	stimuli_distractor_trianglediamonds.svg	stimuli_target_trianglecircles.svg	25	yes	44	1	540
6.6.1	win	2022-12-14	13:08:11	13:21:13	778264	6122db5a591eaf8ee07cf3d0	32474325	1	main_z	11	advance_on_keypress_ZEE	16	stimuli_distractor_trianglediamonds.svg	stimuli_target_trianglecircles.svg	25	yes	57	0	424
6.6.1	win	2022-12-14	13:08:11	13:21:14	779844	6122db5a591eaf8ee07cf3d0	32474325	1	main_z	11	main_z	17	stimuli_distractor_trianglediamonds.svg	stimuli_target_diamondsquares.svg	28	yes	44	1	517
6.6.1	win	2022-12-14	13:08:11	13:21:14	779844	6122db5a591eaf8ee07cf3d0	32474325	1	main_z	11	advance_on_keypress_ZEE	18	stimuli_distractor_trianglediamonds.svg	stimuli_target_diamondsquares.svg	28	yes	57	0	529
6.6.1	win	2022-12-14	13:08:11	13:21:16	781479	6122db5a591eaf8ee07cf3d0	32474325	1	main_z	11	main_z	19	stimuli_target_trianglecircles.svg	stimuli_distractor_trianglediamonds.svg	17	yes	44	1	453
6.6.1	win	2022-12-14	13:08:11	13:21:16	781479	6122db5a591eaf8ee07cf3d0	32474325	1	main_z	11	advance_on_keypress_ZEE	20	stimuli_target_trianglecircles.svg	stimuli_distractor_trianglediamonds.svg	17	yes	57	0	429
6.6.1	win	2022-12-14	13:08:11	13:21:19	784559	6122db5a591eaf8ee07cf3d0	32474325	1	main_z	11	main_z	21	stimuli_distractor_diamondtriangles.svg	stimuli_distractor_diamondtriangles.svg	39	no	0	1	2000
6.6.1	win	2022-12-14	13:08:11	13:21:19	784559	6122db5a591eaf8ee07cf3d0	32474325	1	main_z	11	advance_on_keypress_ZEE	22	stimuli_distractor_diamondtriangles.svg	stimuli_distractor_diamondtriangles.svg	39	no	57	0	361
6.6.1	win	2022-12-14	13:08:11	13:21:21	786091	6122db5a591eaf8ee07cf3d0	32474325	1	main_z	11	main_z	23	stimuli_target_diamondsquares.svg	stimuli_distractor_diamondtriangles.svg	24	yes	44	1	511
6.6.1	win	2022-12-14	13:08:11	13:21:21	786091	6122db5a591eaf8ee07cf3d0	32474325	1	main_z	11	advance_on_keypress_ZEE	24	stimuli_target_diamondsquares.svg	stimuli_distractor_diamondtriangles.svg	24	yes	57	0	496
6.6.1	win	2022-12-14	13:08:11	13:21:22	787767	6122db5a591eaf8ee07cf3d0	32474325	1	main_z	11	main_z	25	stimuli_distractor_diamondtriangles.svg	stimuli_target_diamondsquares.svg	32	yes	44	1	524
6.6.1	win	2022-12-14	13:08:11	13:21:22	787767	6122db5a591eaf8ee07cf3d0	32474325	1	main_z	11	advance_on_keypress_ZEE	26	stimuli_distractor_diamondtriangles.svg	stimuli_target_diamondsquares.svg	32	yes	57	0	535
6.6.1	win	2022-12-14	13:08:11	13:21:24	789470	6122db5a591eaf8ee07cf3d0	32474325	1	main_z	11	main_z	27	stimuli_target_trianglesquares.svg	stimuli_distractor_trianglediamonds.svg	18	yes	44	1	526
6.6.1	win	2022-12-14	13:08:11	13:21:24	789470	6122db5a591eaf8ee07cf3d0	32474325	1	main_z	11	advance_on_keypress_ZEE	28	stimuli_target_trianglesquares.svg	stimuli_distractor_trianglediamonds.svg	18	yes	57	0	457
6.6.1	win	2022-12-14	13:08:11	13:21:27	792561	6122db5a591eaf8ee07cf3d0	32474325	1	main_z	11	main_z	29	stimuli_distractor_trianglediamonds.svg	stimuli_distractor_diamondtriangles.svg	35	no	0	1	2000
6.6.1	win	2022-12-14	13:08:11	13:21:27	792561	6122db5a591eaf8ee07cf3d0	32474325	1	main_z	11	advance_on_keypress_ZEE	30	stimuli_distractor_trianglediamonds.svg	stimuli_distractor_diamondtriangles.svg	35	no	57	0	484
6.6.1	win	2022-12-14	13:08:11	13:21:30	795695	6122db5a591eaf8ee07cf3d0	32474325	1	main_z	11	main_z	31	stimuli_distractor_diamondtriangles.svg	stimuli_distractor_trianglediamonds.svg	37	no	0	1	2000
6.6.1	win	2022-12-14	13:08:11	13:21:30	795695	6122db5a591eaf8ee07cf3d0	32474325	1	main_z	11	advance_on_keypress_ZEE	32	stimuli_distractor_diamondtriangles.svg	stimuli_distractor_trianglediamonds.svg	37	no	57	0	650
6.6.1	win	2022-12-14	13:08:11	13:21:32	797442	6122db5a591eaf8ee07cf3d0	32474325	1	main_z	11	main_z	33	stimuli_target_circletriangles.svg	stimuli_distractor_trianglediamonds.svg	1	yes	44	1	446
6.6.1	win	2022-12-14	13:08:11	13:21:32	797442	6122db5a591eaf8ee07cf3d0	32474325	1	main_z	11	advance_on_keypress_ZEE	34	stimuli_target_circletriangles.svg	stimuli_distractor_trianglediamonds.svg	1	yes	57	0	541
6.6.1	win	2022-12-14	13:08:11	13:21:35	800630	6122db5a591eaf8ee07cf3d0	32474325	1	main_z	11	main_z	35	stimuli_distractor_diamondtriangles.svg	stimuli_distractor_trianglediamonds.svg	38	no	0	1	2000
6.6.1	win	2022-12-14	13:08:11	13:21:35	800630	6122db5a591eaf8ee07cf3d0	32474325	1	main_z	11	advance_on_keypress_ZEE	36	stimuli_distractor_diamondtriangles.svg	stimuli_distractor_trianglediamonds.svg	38	no	57	0	328
6.6.1	win	2022-12-14	13:08:11	13:21:37	801995	6122db5a591eaf8ee07cf3d0	32474325	1	main_z	11	main_z	37	stimuli_target_squaretriangles.svg	stimuli_distractor_diamondtriangles.svg	7	yes	44	1	367
6.6.1	win	2022-12-14	13:08:11	13:21:37	801995	6122db5a591eaf8ee07cf3d0	32474325	1	main_z	11	advance_on_keypress_ZEE	38	stimuli_target_squaretriangles.svg	stimuli_distractor_diamondtriangles.svg	7	yes	57	0	1071
6.6.1	win	2022-12-14	13:08:11	13:21:39	804115	6122db5a591eaf8ee07cf3d0	32474325	1	main_z	11	main_z	39	stimuli_distractor_trianglediamonds.svg	stimuli_target_squarediamonds.svg	12	yes	44	1	401
6.6.1	win	2022-12-14	13:08:11	13:21:39	804115	6122db5a591eaf8ee07cf3d0	32474325	1	main_z	11	advance_on_keypress_ZEE	40	stimuli_distractor_trianglediamonds.svg	stimuli_target_squarediamonds.svg	12	yes	57	0	628
6.6.1	win	2022-12-14	13:08:11	13:21:40	805744	6122db5a591eaf8ee07cf3d0	32474325	1	main_z	11	main_z	41	stimuli_distractor_diamondtriangles.svg	stimuli_target_squarediamonds.svg	16	yes	44	1	362
6.6.1	win	2022-12-14	13:08:11	13:21:40	805744	6122db5a591eaf8ee07cf3d0	32474325	1	main_z	11	advance_on_keypress_ZEE	42	stimuli_distractor_diamondtriangles.svg	stimuli_target_squarediamonds.svg	16	yes	57	0	523
6.6.1	win	2022-12-14	13:08:11	13:21:42	807312	6122db5a591eaf8ee07cf3d0	32474325	1	main_z	11	main_z	43	stimuli_distractor_trianglediamonds.svg	stimuli_target_diamondcircles.svg	27	yes	44	1	397
6.6.1	win	2022-12-14	13:08:11	13:21:42	807312	6122db5a591eaf8ee07cf3d0	32474325	1	main_z	11	advance_on_keypress_ZEE	44	stimuli_distractor_trianglediamonds.svg	stimuli_target_diamondcircles.svg	27	yes	57	0	531
6.6.1	win	2022-12-14	13:08:11	13:21:43	808913	6122db5a591eaf8ee07cf3d0	32474325	1	main_z	11	main_z	45	stimuli_target_trianglesquares.svg	stimuli_distractor_diamondtriangles.svg	22	yes	44	1	414
6.6.1	win	2022-12-14	13:08:11	13:21:43	808913	6122db5a591eaf8ee07cf3d0	32474325	1	main_z	11	advance_on_keypress_ZEE	46	stimuli_target_trianglesquares.svg	stimuli_distractor_diamondtriangles.svg	22	yes	57	0	719
6.6.1	win	2022-12-14	13:08:11	13:21:45	810698	6122db5a591eaf8ee07cf3d0	32474325	1	main_z	11	main_z	47	stimuli_distractor_trianglediamonds.svg	stimuli_target_circletriangles.svg	9	yes	44	1	415
6.6.1	win	2022-12-14	13:08:11	13:21:45	810698	6122db5a591eaf8ee07cf3d0	32474325	1	main_z	11	advance_on_keypress_ZEE	48	stimuli_distractor_trianglediamonds.svg	stimuli_target_circletriangles.svg	9	yes	57	0	511
6.6.1	win	2022-12-14	13:08:11	13:21:47	812226	6122db5a591eaf8ee07cf3d0	32474325	1	main_z	11	main_z	49	stimuli_distractor_trianglediamonds.svg	stimuli_target_circlediamonds.svg	10	yes	44	1	359
6.6.1	win	2022-12-14	13:08:11	13:21:47	812226	6122db5a591eaf8ee07cf3d0	32474325	1	main_z	11	advance_on_keypress_ZEE	50	stimuli_distractor_trianglediamonds.svg	stimuli_target_circlediamonds.svg	10	yes	57	0	572
6.6.1	win	2022-12-14	13:08:11	13:21:48	813820	6122db5a591eaf8ee07cf3d0	32474325	1	main_z	11	main_z	51	stimuli_target_squarediamonds.svg	stimuli_distractor_trianglediamonds.svg	4	yes	44	1	387
6.6.1	win	2022-12-14	13:08:11	13:21:48	813820	6122db5a591eaf8ee07cf3d0	32474325	1	main_z	11	advance_on_keypress_ZEE	52	stimuli_target_squarediamonds.svg	stimuli_distractor_trianglediamonds.svg	4	yes	57	0	1976
6.6.1	win	2022-12-14	13:08:11	13:21:51	816833	6122db5a591eaf8ee07cf3d0	32474325	1	main_z	11	main_z	53	stimuli_target_trianglecircles.svg	stimuli_distractor_diamondtriangles.svg	21	yes	44	1	398
6.6.1	win	2022-12-14	13:08:11	13:21:51	816833	6122db5a591eaf8ee07cf3d0	32474325	1	main_z	11	advance_on_keypress_ZEE	54	stimuli_target_trianglecircles.svg	stimuli_distractor_diamondtriangles.svg	21	yes	57	0	646
6.6.1	win	2022-12-14	13:08:11	13:21:53	818564	6122db5a591eaf8ee07cf3d0	32474325	1	main_z	11	main_z	55	stimuli_target_circletriangles.svg	stimuli_distractor_diamondtriangles.svg	5	yes	44	1	430
6.6.1	win	2022-12-14	13:08:11	13:21:53	818564	6122db5a591eaf8ee07cf3d0	32474325	1	main_z	11	advance_on_keypress_ZEE	56	stimuli_target_circletriangles.svg	stimuli_distractor_diamondtriangles.svg	5	yes	57	0	719
6.6.1	win	2022-12-14	13:08:11	13:21:55	820527	6122db5a591eaf8ee07cf3d0	32474325	1	main_z	11	main_z	57	stimuli_target_diamondcircles.svg	stimuli_distractor_diamondtriangles.svg	23	yes	44	1	592
6.6.1	win	2022-12-14	13:08:11	13:21:55	820527	6122db5a591eaf8ee07cf3d0	32474325	1	main_z	11	advance_on_keypress_ZEE	58	stimuli_target_diamondcircles.svg	stimuli_distractor_diamondtriangles.svg	23	yes	57	0	942
6.6.1	win	2022-12-14	13:08:11	13:21:57	822587	6122db5a591eaf8ee07cf3d0	32474325	1	main_z	11	main_z	59	stimuli_target_circlediamonds.svg	stimuli_distractor_trianglediamonds.svg	2	yes	44	1	484
6.6.1	win	2022-12-14	13:08:11	13:21:57	822587	6122db5a591eaf8ee07cf3d0	32474325	1	main_z	11	advance_on_keypress_ZEE	60	stimuli_target_circlediamonds.svg	stimuli_distractor_trianglediamonds.svg	2	yes	57	0	928
6.6.1	win	2022-12-14	13:08:11	13:21:59	824535	6122db5a591eaf8ee07cf3d0	32474325	1	main_z	11	main_z	61	stimuli_target_squaretriangles.svg	stimuli_distractor_trianglediamonds.svg	3	yes	44	1	377
6.6.1	win	2022-12-14	13:08:11	13:21:59	824535	6122db5a591eaf8ee07cf3d0	32474325	1	main_z	11	advance_on_keypress_ZEE	62	stimuli_target_squaretriangles.svg	stimuli_distractor_trianglediamonds.svg	3	yes	57	0	1101
6.6.1	win	2022-12-14	13:08:11	13:22:01	826669	6122db5a591eaf8ee07cf3d0	32474325	1	main_z	11	main_z	63	stimuli_target_diamondsquares.svg	stimuli_distractor_trianglediamonds.svg	20	yes	44	1	370
6.6.1	win	2022-12-14	13:08:11	13:22:01	826669	6122db5a591eaf8ee07cf3d0	32474325	1	main_z	11	advance_on_keypress_ZEE	64	stimuli_target_diamondsquares.svg	stimuli_distractor_trianglediamonds.svg	20	yes	57	0	642
6.6.1	win	2022-12-14	13:08:11	13:22:04	829955	6122db5a591eaf8ee07cf3d0	32474325	1	main_z	11	main_z	65	stimuli_distractor_trianglediamonds.svg	stimuli_distractor_trianglediamonds.svg	33	no	0	1	2000
6.6.1	win	2022-12-14	13:08:11	13:22:04	829955	6122db5a591eaf8ee07cf3d0	32474325	1	main_z	11	advance_on_keypress_ZEE	66	stimuli_distractor_trianglediamonds.svg	stimuli_distractor_trianglediamonds.svg	33	no	57	0	376
6.6.1	win	2022-12-14	13:08:11	13:22:06	831420	6122db5a591eaf8ee07cf3d0	32474325	1	main_z	11	main_z	67	stimuli_distractor_diamondtriangles.svg	stimuli_target_trianglesquares.svg	30	yes	44	1	431
6.6.1	win	2022-12-14	13:08:11	13:22:06	831420	6122db5a591eaf8ee07cf3d0	32474325	1	main_z	11	advance_on_keypress_ZEE	68	stimuli_distractor_diamondtriangles.svg	stimuli_target_trianglesquares.svg	30	yes	57	0	525
6.6.1	win	2022-12-14	13:08:11	13:22:07	832951	6122db5a591eaf8ee07cf3d0	32474325	1	main_z	11	main_z	69	stimuli_target_circlediamonds.svg	stimuli_distractor_diamondtriangles.svg	6	yes	44	1	362
6.6.1	win	2022-12-14	13:08:11	13:22:07	832951	6122db5a591eaf8ee07cf3d0	32474325	1	main_z	11	advance_on_keypress_ZEE	70	stimuli_target_circlediamonds.svg	stimuli_distractor_diamondtriangles.svg	6	yes	57	0	590
6.6.1	win	2022-12-14	13:08:11	13:22:11	836189	6122db5a591eaf8ee07cf3d0	32474325	1	main_z	11	main_z	71	stimuli_distractor_trianglediamonds.svg	stimuli_distractor_diamondtriangles.svg	36	no	0	1	2000
6.6.1	win	2022-12-14	13:08:11	13:22:11	836189	6122db5a591eaf8ee07cf3d0	32474325	1	main_z	11	advance_on_keypress_ZEE	72	stimuli_distractor_trianglediamonds.svg	stimuli_distractor_diamondtriangles.svg	36	no	57	0	891
6.6.1	win	2022-12-14	13:08:11	13:22:13	838140	6122db5a591eaf8ee07cf3d0	32474325	1	main_z	11	main_z	73	stimuli_distractor_diamondtriangles.svg	stimuli_target_squaretriangles.svg	15	yes	44	1	417
6.6.1	win	2022-12-14	13:08:11	13:22:13	838140	6122db5a591eaf8ee07cf3d0	32474325	1	main_z	11	advance_on_keypress_ZEE	74	stimuli_distractor_diamondtriangles.svg	stimuli_target_squaretriangles.svg	15	yes	57	0	845
6.6.1	win	2022-12-14	13:08:11	13:22:15	839998	6122db5a591eaf8ee07cf3d0	32474325	1	main_z	11	main_z	75	stimuli_distractor_diamondtriangles.svg	stimuli_target_circletriangles.svg	13	yes	44	1	357
6.6.1	win	2022-12-14	13:08:11	13:22:15	839998	6122db5a591eaf8ee07cf3d0	32474325	1	main_z	11	advance_on_keypress_ZEE	76	stimuli_distractor_diamondtriangles.svg	stimuli_target_circletriangles.svg	13	yes	57	0	572
6.6.1	win	2022-12-14	13:08:11	13:22:16	841540	6122db5a591eaf8ee07cf3d0	32474325	1	main_z	11	main_z	77	stimuli_distractor_trianglediamonds.svg	stimuli_distractor_trianglediamonds.svg	34	no	44	0	332
6.6.1	win	2022-12-14	13:08:11	13:22:16	841540	6122db5a591eaf8ee07cf3d0	32474325	1	main_z	11	advance_on_keypress_ZEE	78	stimuli_distractor_trianglediamonds.svg	stimuli_distractor_trianglediamonds.svg	34	no	57	0	2006
6.6.1	win	2022-12-14	13:08:11	13:22:19	844710	6122db5a591eaf8ee07cf3d0	32474325	1	main_z	11	main_z	79	stimuli_distractor_diamondtriangles.svg	stimuli_target_circlediamonds.svg	14	yes	44	1	517
6.6.1	win	2022-12-14	13:08:11	13:22:19	844710	6122db5a591eaf8ee07cf3d0	32474325	1	main_z	11	advance_on_keypress_ZEE	80	stimuli_distractor_diamondtriangles.svg	stimuli_target_circlediamonds.svg	14	yes	57	0	618
6.6.1	win	2022-12-14	13:08:11	13:22:21	846435	6122db5a591eaf8ee07cf3d0	32474325	1	main_z	11	main_z	81	stimuli_target_squarediamonds.svg	stimuli_distractor_trianglediamonds.svg	4	yes	44	1	460
6.6.1	win	2022-12-14	13:08:11	13:22:21	846435	6122db5a591eaf8ee07cf3d0	32474325	1	main_z	11	advance_on_keypress_ZEE	82	stimuli_target_squarediamonds.svg	stimuli_distractor_trianglediamonds.svg	4	yes	57	0	631
6.6.1	win	2022-12-14	13:08:11	13:22:24	849709	6122db5a591eaf8ee07cf3d0	32474325	1	main_z	11	main_z	83	stimuli_target_trianglesquares.svg	stimuli_distractor_trianglediamonds.svg	18	yes	0	0	2000
6.6.1	win	2022-12-14	13:08:11	13:22:24	849709	6122db5a591eaf8ee07cf3d0	32474325	1	main_z	11	advance_on_keypress_ZEE	84	stimuli_target_trianglesquares.svg	stimuli_distractor_trianglediamonds.svg	18	yes	57	0	684
6.6.1	win	2022-12-14	13:08:11	13:22:26	851502	6122db5a591eaf8ee07cf3d0	32474325	1	main_z	11	main_z	85	stimuli_target_squaretriangles.svg	stimuli_distractor_trianglediamonds.svg	3	yes	44	1	459
6.6.1	win	2022-12-14	13:08:11	13:22:26	851502	6122db5a591eaf8ee07cf3d0	32474325	1	main_z	11	advance_on_keypress_ZEE	86	stimuli_target_squaretriangles.svg	stimuli_distractor_trianglediamonds.svg	3	yes	57	0	718
6.6.1	win	2022-12-14	13:08:11	13:22:29	854861	6122db5a591eaf8ee07cf3d0	32474325	1	main_z	11	main_z	87	stimuli_distractor_trianglediamonds.svg	stimuli_distractor_trianglediamonds.svg	33	no	0	1	2000
6.6.1	win	2022-12-14	13:08:11	13:22:29	854861	6122db5a591eaf8ee07cf3d0	32474325	1	main_z	11	advance_on_keypress_ZEE	88	stimuli_distractor_trianglediamonds.svg	stimuli_distractor_trianglediamonds.svg	33	no	57	0	310
6.6.1	win	2022-12-14	13:08:11	13:22:32	857811	6122db5a591eaf8ee07cf3d0	32474325	1	main_z	11	main_z	89	stimuli_distractor_trianglediamonds.svg	stimuli_distractor_diamondtriangles.svg	35	no	0	1	2000
6.6.1	win	2022-12-14	13:08:11	13:22:32	857811	6122db5a591eaf8ee07cf3d0	32474325	1	main_z	11	advance_on_keypress_ZEE	90	stimuli_distractor_trianglediamonds.svg	stimuli_distractor_diamondtriangles.svg	35	no	57	0	437
6.6.1	win	2022-12-14	13:08:11	13:22:34	859315	6122db5a591eaf8ee07cf3d0	32474325	1	main_z	11	main_z	91	stimuli_target_circletriangles.svg	stimuli_distractor_diamondtriangles.svg	5	yes	44	1	419
6.6.1	win	2022-12-14	13:08:11	13:22:34	859315	6122db5a591eaf8ee07cf3d0	32474325	1	main_z	11	advance_on_keypress_ZEE	92	stimuli_target_circletriangles.svg	stimuli_distractor_diamondtriangles.svg	5	yes	57	0	541
6.6.1	win	2022-12-14	13:08:11	13:22:36	861011	6122db5a591eaf8ee07cf3d0	32474325	1	main_z	11	main_z	93	stimuli_target_trianglesquares.svg	stimuli_distractor_diamondtriangles.svg	22	yes	44	1	513
6.6.1	win	2022-12-14	13:08:11	13:22:36	861011	6122db5a591eaf8ee07cf3d0	32474325	1	main_z	11	advance_on_keypress_ZEE	94	stimuli_target_trianglesquares.svg	stimuli_distractor_diamondtriangles.svg	22	yes	57	0	586
6.6.1	win	2022-12-14	13:08:11	13:22:39	864247	6122db5a591eaf8ee07cf3d0	32474325	1	main_z	11	main_z	95	stimuli_distractor_trianglediamonds.svg	stimuli_distractor_diamondtriangles.svg	36	no	0	1	2000
6.6.1	win	2022-12-14	13:08:11	13:22:39	864247	6122db5a591eaf8ee07cf3d0	32474325	1	main_z	11	advance_on_keypress_ZEE	96	stimuli_distractor_trianglediamonds.svg	stimuli_distractor_diamondtriangles.svg	36	no	57	0	383
6.6.1	win	2022-12-14	13:08:11	13:22:40	865677	6122db5a591eaf8ee07cf3d0	32474325	1	main_z	11	main_z	97	stimuli_distractor_diamondtriangles.svg	stimuli_target_trianglecircles.svg	29	yes	44	1	396
6.6.1	win	2022-12-14	13:08:11	13:22:40	865677	6122db5a591eaf8ee07cf3d0	32474325	1	main_z	11	advance_on_keypress_ZEE	98	stimuli_distractor_diamondtriangles.svg	stimuli_target_trianglecircles.svg	29	yes	57	0	506
6.6.1	win	2022-12-14	13:08:11	13:22:42	867251	6122db5a591eaf8ee07cf3d0	32474325	1	main_z	11	main_z	99	stimuli_target_circletriangles.svg	stimuli_distractor_trianglediamonds.svg	1	yes	44	1	419
6.6.1	win	2022-12-14	13:08:11	13:22:42	867251	6122db5a591eaf8ee07cf3d0	32474325	1	main_z	11	advance_on_keypress_ZEE	100	stimuli_target_circletriangles.svg	stimuli_distractor_trianglediamonds.svg	1	yes	57	0	465
6.6.1	win	2022-12-14	13:08:11	13:22:43	868800	6122db5a591eaf8ee07cf3d0	32474325	1	main_z	11	main_z	101	stimuli_distractor_trianglediamonds.svg	stimuli_target_circlediamonds.svg	10	yes	44	1	435
6.6.1	win	2022-12-14	13:08:11	13:22:43	868800	6122db5a591eaf8ee07cf3d0	32474325	1	main_z	11	advance_on_keypress_ZEE	102	stimuli_distractor_trianglediamonds.svg	stimuli_target_circlediamonds.svg	10	yes	57	0	732
6.6.1	win	2022-12-14	13:08:11	13:22:45	870597	6122db5a591eaf8ee07cf3d0	32474325	1	main_z	11	main_z	103	stimuli_distractor_diamondtriangles.svg	stimuli_target_squarediamonds.svg	16	yes	44	1	415
6.6.1	win	2022-12-14	13:08:11	13:22:45	870597	6122db5a591eaf8ee07cf3d0	32474325	1	main_z	11	advance_on_keypress_ZEE	104	stimuli_distractor_diamondtriangles.svg	stimuli_target_squarediamonds.svg	16	yes	57	0	719
6.6.1	win	2022-12-14	13:08:11	13:22:47	872389	6122db5a591eaf8ee07cf3d0	32474325	1	main_z	11	main_z	105	stimuli_distractor_diamondtriangles.svg	stimuli_target_diamondcircles.svg	31	yes	44	1	423
6.6.1	win	2022-12-14	13:08:11	13:22:47	872389	6122db5a591eaf8ee07cf3d0	32474325	1	main_z	11	advance_on_keypress_ZEE	106	stimuli_distractor_diamondtriangles.svg	stimuli_target_diamondcircles.svg	31	yes	57	0	812
6.6.1	win	2022-12-14	13:08:11	13:22:49	874552	6122db5a591eaf8ee07cf3d0	32474325	1	main_z	11	main_z	107	stimuli_target_diamondsquares.svg	stimuli_distractor_trianglediamonds.svg	20	yes	44	1	703
6.6.1	win	2022-12-14	13:08:11	13:22:49	874552	6122db5a591eaf8ee07cf3d0	32474325	1	main_z	11	advance_on_keypress_ZEE	108	stimuli_target_diamondsquares.svg	stimuli_distractor_trianglediamonds.svg	20	yes	57	0	557
6.6.1	win	2022-12-14	13:08:11	13:22:51	876185	6122db5a591eaf8ee07cf3d0	32474325	1	main_z	11	main_z	109	stimuli_distractor_diamondtriangles.svg	stimuli_target_squaretriangles.svg	15	yes	44	1	434
6.6.1	win	2022-12-14	13:08:11	13:22:51	876185	6122db5a591eaf8ee07cf3d0	32474325	1	main_z	11	advance_on_keypress_ZEE	110	stimuli_distractor_diamondtriangles.svg	stimuli_target_squaretriangles.svg	15	yes	57	0	1146
6.6.1	win	2022-12-14	13:08:11	13:22:53	878536	6122db5a591eaf8ee07cf3d0	32474325	1	main_z	11	main_z	111	stimuli_distractor_diamondtriangles.svg	stimuli_target_circlediamonds.svg	14	yes	44	1	552
6.6.1	win	2022-12-14	13:08:11	13:22:53	878536	6122db5a591eaf8ee07cf3d0	32474325	1	main_z	11	advance_on_keypress_ZEE	112	stimuli_distractor_diamondtriangles.svg	stimuli_target_circlediamonds.svg	14	yes	57	0	847
6.6.1	win	2022-12-14	13:08:11	13:22:55	880621	6122db5a591eaf8ee07cf3d0	32474325	1	main_z	11	main_z	113	stimuli_distractor_trianglediamonds.svg	stimuli_target_squaretriangles.svg	11	yes	44	1	587
6.6.1	win	2022-12-14	13:08:11	13:22:55	880621	6122db5a591eaf8ee07cf3d0	32474325	1	main_z	11	advance_on_keypress_ZEE	114	stimuli_distractor_trianglediamonds.svg	stimuli_target_squaretriangles.svg	11	yes	57	0	888
6.6.1	win	2022-12-14	13:08:11	13:22:57	882537	6122db5a591eaf8ee07cf3d0	32474325	1	main_z	11	main_z	115	stimuli_target_circlediamonds.svg	stimuli_distractor_trianglediamonds.svg	2	yes	44	1	384
6.6.1	win	2022-12-14	13:08:11	13:22:57	882537	6122db5a591eaf8ee07cf3d0	32474325	1	main_z	11	advance_on_keypress_ZEE	116	stimuli_target_circlediamonds.svg	stimuli_distractor_trianglediamonds.svg	2	yes	57	0	783
6.6.1	win	2022-12-14	13:08:11	13:22:59	884590	6122db5a591eaf8ee07cf3d0	32474325	1	main_z	11	main_z	117	stimuli_distractor_diamondtriangles.svg	stimuli_target_diamondsquares.svg	32	yes	44	1	621
6.6.1	win	2022-12-14	13:08:11	13:22:59	884590	6122db5a591eaf8ee07cf3d0	32474325	1	main_z	11	advance_on_keypress_ZEE	118	stimuli_distractor_diamondtriangles.svg	stimuli_target_diamondsquares.svg	32	yes	57	0	757
6.6.1	win	2022-12-14	13:08:11	13:23:01	886863	6122db5a591eaf8ee07cf3d0	32474325	1	main_z	11	main_z	119	stimuli_target_diamondcircles.svg	stimuli_distractor_trianglediamonds.svg	19	yes	44	1	877
6.6.1	win	2022-12-14	13:08:11	13:23:01	886863	6122db5a591eaf8ee07cf3d0	32474325	1	main_z	11	advance_on_keypress_ZEE	120	stimuli_target_diamondcircles.svg	stimuli_distractor_trianglediamonds.svg	19	yes	57	0	437
6.6.1	win	2022-12-14	13:08:11	13:23:03	888410	6122db5a591eaf8ee07cf3d0	32474325	1	main_z	11	main_z	121	stimuli_distractor_diamondtriangles.svg	stimuli_target_circletriangles.svg	13	yes	44	1	474
6.6.1	win	2022-12-14	13:08:11	13:23:03	888410	6122db5a591eaf8ee07cf3d0	32474325	1	main_z	11	advance_on_keypress_ZEE	122	stimuli_distractor_diamondtriangles.svg	stimuli_target_circletriangles.svg	13	yes	57	0	761
6.6.1	win	2022-12-14	13:08:11	13:23:05	890258	6122db5a591eaf8ee07cf3d0	32474325	1	main_z	11	main_z	123	stimuli_target_trianglecircles.svg	stimuli_distractor_diamondtriangles.svg	21	yes	44	1	437
6.6.1	win	2022-12-14	13:08:11	13:23:05	890258	6122db5a591eaf8ee07cf3d0	32474325	1	main_z	11	advance_on_keypress_ZEE	124	stimuli_target_trianglecircles.svg	stimuli_distractor_diamondtriangles.svg	21	yes	57	0	801
6.6.1	win	2022-12-14	13:08:11	13:23:08	893704	6122db5a591eaf8ee07cf3d0	32474325	1	main_z	11	main_z	125	stimuli_distractor_trianglediamonds.svg	stimuli_distractor_trianglediamonds.svg	34	no	0	1	2000
6.6.1	win	2022-12-14	13:08:11	13:23:08	893704	6122db5a591eaf8ee07cf3d0	32474325	1	main_z	11	advance_on_keypress_ZEE	126	stimuli_distractor_trianglediamonds.svg	stimuli_distractor_trianglediamonds.svg	34	no	57	0	400
6.6.1	win	2022-12-14	13:08:11	13:23:10	895253	6122db5a591eaf8ee07cf3d0	32474325	1	main_z	11	main_z	127	stimuli_target_squarediamonds.svg	stimuli_distractor_diamondtriangles.svg	8	yes	44	1	497
6.6.1	win	2022-12-14	13:08:11	13:23:10	895253	6122db5a591eaf8ee07cf3d0	32474325	1	main_z	11	advance_on_keypress_ZEE	128	stimuli_target_squarediamonds.svg	stimuli_distractor_diamondtriangles.svg	8	yes	57	0	571
6.6.1	win	2022-12-14	13:08:11	13:23:13	898472	6122db5a591eaf8ee07cf3d0	32474325	1	main_z	11	main_z	129	stimuli_distractor_diamondtriangles.svg	stimuli_distractor_diamondtriangles.svg	39	no	0	1	2000
6.6.1	win	2022-12-14	13:08:11	13:23:13	898472	6122db5a591eaf8ee07cf3d0	32474325	1	main_z	11	advance_on_keypress_ZEE	130	stimuli_distractor_diamondtriangles.svg	stimuli_distractor_diamondtriangles.svg	39	no	57	0	421
6.6.1	win	2022-12-14	13:08:11	13:23:16	901540	6122db5a591eaf8ee07cf3d0	32474325	1	main_z	11	main_z	131	stimuli_distractor_diamondtriangles.svg	stimuli_distractor_diamondtriangles.svg	40	no	0	1	2000
6.6.1	win	2022-12-14	13:08:11	13:23:16	901540	6122db5a591eaf8ee07cf3d0	32474325	1	main_z	11	advance_on_keypress_ZEE	132	stimuli_distractor_diamondtriangles.svg	stimuli_distractor_diamondtriangles.svg	40	no	57	0	572
6.6.1	win	2022-12-14	13:08:11	13:23:18	903139	6122db5a591eaf8ee07cf3d0	32474325	1	main_z	11	main_z	133	stimuli_distractor_trianglediamonds.svg	stimuli_target_diamondcircles.svg	27	yes	44	1	373
6.6.1	win	2022-12-14	13:08:11	13:23:18	903139	6122db5a591eaf8ee07cf3d0	32474325	1	main_z	11	advance_on_keypress_ZEE	134	stimuli_distractor_trianglediamonds.svg	stimuli_target_diamondcircles.svg	27	yes	57	0	675
6.6.1	win	2022-12-14	13:08:11	13:23:19	904901	6122db5a591eaf8ee07cf3d0	32474325	1	main_z	11	main_z	135	stimuli_target_diamondcircles.svg	stimuli_distractor_diamondtriangles.svg	23	yes	44	1	443
6.6.1	win	2022-12-14	13:08:11	13:23:19	904901	6122db5a591eaf8ee07cf3d0	32474325	1	main_z	11	advance_on_keypress_ZEE	136	stimuli_target_diamondcircles.svg	stimuli_distractor_diamondtriangles.svg	23	yes	57	0	807
6.6.1	win	2022-12-14	13:08:11	13:23:21	906723	6122db5a591eaf8ee07cf3d0	32474325	1	main_z	11	main_z	137	stimuli_target_trianglecircles.svg	stimuli_distractor_trianglediamonds.svg	17	yes	44	1	370
6.6.1	win	2022-12-14	13:08:11	13:23:21	906723	6122db5a591eaf8ee07cf3d0	32474325	1	main_z	11	advance_on_keypress_ZEE	138	stimuli_target_trianglecircles.svg	stimuli_distractor_trianglediamonds.svg	17	yes	57	0	811
6.6.1	win	2022-12-14	13:08:11	13:23:23	908685	6122db5a591eaf8ee07cf3d0	32474325	1	main_z	11	main_z	139	stimuli_distractor_trianglediamonds.svg	stimuli_target_squarediamonds.svg	12	yes	44	1	494
6.6.1	win	2022-12-14	13:08:11	13:23:23	908685	6122db5a591eaf8ee07cf3d0	32474325	1	main_z	11	advance_on_keypress_ZEE	140	stimuli_distractor_trianglediamonds.svg	stimuli_target_squarediamonds.svg	12	yes	57	0	934
6.6.1	win	2022-12-14	13:08:11	13:23:25	910621	6122db5a591eaf8ee07cf3d0	32474325	1	main_z	11	main_z	141	stimuli_target_circlediamonds.svg	stimuli_distractor_diamondtriangles.svg	6	yes	44	1	362
6.6.1	win	2022-12-14	13:08:11	13:23:25	910621	6122db5a591eaf8ee07cf3d0	32474325	1	main_z	11	advance_on_keypress_ZEE	142	stimuli_target_circlediamonds.svg	stimuli_distractor_diamondtriangles.svg	6	yes	57	0	725
6.6.1	win	2022-12-14	13:08:11	13:23:27	912450	6122db5a591eaf8ee07cf3d0	32474325	1	main_z	11	main_z	143	stimuli_distractor_diamondtriangles.svg	stimuli_distractor_trianglediamonds.svg	38	no	44	0	457
6.6.1	win	2022-12-14	13:08:11	13:23:27	912450	6122db5a591eaf8ee07cf3d0	32474325	1	main_z	11	advance_on_keypress_ZEE	144	stimuli_distractor_diamondtriangles.svg	stimuli_distractor_trianglediamonds.svg	38	no	57	0	1362
6.6.1	win	2022-12-14	13:08:11	13:23:30	915077	6122db5a591eaf8ee07cf3d0	32474325	1	main_z	11	main_z	145	stimuli_distractor_trianglediamonds.svg	stimuli_target_diamondsquares.svg	28	yes	44	1	616
6.6.1	win	2022-12-14	13:08:11	13:23:30	915077	6122db5a591eaf8ee07cf3d0	32474325	1	main_z	11	advance_on_keypress_ZEE	146	stimuli_distractor_trianglediamonds.svg	stimuli_target_diamondsquares.svg	28	yes	57	0	757
6.6.1	win	2022-12-14	13:08:11	13:23:32	916997	6122db5a591eaf8ee07cf3d0	32474325	1	main_z	11	main_z	147	stimuli_distractor_diamondtriangles.svg	stimuli_target_trianglesquares.svg	30	yes	44	1	520
6.6.1	win	2022-12-14	13:08:11	13:23:32	916997	6122db5a591eaf8ee07cf3d0	32474325	1	main_z	11	advance_on_keypress_ZEE	148	stimuli_distractor_diamondtriangles.svg	stimuli_target_trianglesquares.svg	30	yes	57	0	674
6.6.1	win	2022-12-14	13:08:11	13:23:33	918741	6122db5a591eaf8ee07cf3d0	32474325	1	main_z	11	main_z	149	stimuli_distractor_trianglediamonds.svg	stimuli_target_trianglesquares.svg	26	yes	44	1	430
6.6.1	win	2022-12-14	13:08:11	13:23:33	918741	6122db5a591eaf8ee07cf3d0	32474325	1	main_z	11	advance_on_keypress_ZEE	150	stimuli_distractor_trianglediamonds.svg	stimuli_target_trianglesquares.svg	26	yes	57	0	548
6.6.1	win	2022-12-14	13:08:11	13:23:35	920410	6122db5a591eaf8ee07cf3d0	32474325	1	main_z	11	main_z	151	stimuli_distractor_trianglediamonds.svg	stimuli_target_trianglecircles.svg	25	yes	44	1	464
6.6.1	win	2022-12-14	13:08:11	13:23:35	920410	6122db5a591eaf8ee07cf3d0	32474325	1	main_z	11	advance_on_keypress_ZEE	152	stimuli_distractor_trianglediamonds.svg	stimuli_target_trianglecircles.svg	25	yes	57	0	556
6.6.1	win	2022-12-14	13:08:11	13:23:38	923612	6122db5a591eaf8ee07cf3d0	32474325	1	main_z	11	main_z	153	stimuli_distractor_diamondtriangles.svg	stimuli_distractor_trianglediamonds.svg	37	no	0	1	2000
6.6.1	win	2022-12-14	13:08:11	13:23:38	923612	6122db5a591eaf8ee07cf3d0	32474325	1	main_z	11	advance_on_keypress_ZEE	154	stimuli_distractor_diamondtriangles.svg	stimuli_distractor_trianglediamonds.svg	37	no	57	0	442
6.6.1	win	2022-12-14	13:08:11	13:23:40	925129	6122db5a591eaf8ee07cf3d0	32474325	1	main_z	11	main_z	155	stimuli_distractor_trianglediamonds.svg	stimuli_target_circletriangles.svg	9	yes	44	1	432
6.6.1	win	2022-12-14	13:08:11	13:23:40	925129	6122db5a591eaf8ee07cf3d0	32474325	1	main_z	11	advance_on_keypress_ZEE	156	stimuli_distractor_trianglediamonds.svg	stimuli_target_circletriangles.svg	9	yes	57	0	521
6.6.1	win	2022-12-14	13:08:11	13:23:43	928297	6122db5a591eaf8ee07cf3d0	32474325	1	main_z	11	main_z	157	stimuli_target_diamondsquares.svg	stimuli_distractor_diamondtriangles.svg	24	yes	0	0	2000
6.6.1	win	2022-12-14	13:08:11	13:23:43	928297	6122db5a591eaf8ee07cf3d0	32474325	1	main_z	11	advance_on_keypress_ZEE	158	stimuli_target_diamondsquares.svg	stimuli_distractor_diamondtriangles.svg	24	yes	57	0	655
6.6.1	win	2022-12-14	13:08:11	13:23:44	929994	6122db5a591eaf8ee07cf3d0	32474325	1	main_z	11	main_z	159	stimuli_target_squaretriangles.svg	stimuli_distractor_diamondtriangles.svg	7	yes	44	1	396
6.6.1	win	2022-12-14	13:08:11	13:23:44	929994	6122db5a591eaf8ee07cf3d0	32474325	1	main_z	11	advance_on_keypress_ZEE	160	stimuli_target_squaretriangles.svg	stimuli_distractor_diamondtriangles.svg	7	yes	57	0	655