build	computer.platform	date	time	timestamp	time_elapsed_ms	subject	group	session	blockcode	blocknum	trialcode	trialnum	stimulus_left	stimulus_right	stim_index	target_present	response	correct	latency
6.6.1	win	2022-12-14	14:20:53	14:24:16	202274	5da360b12e89480010ef417a	58534219	1	practice_slash	5	practice_slash	1	stimuli_target_squarediamonds.svg	stimuli_distractor_diamondtriangles.svg	2	yes	53	1	839
6.6.1	win	2022-12-14	14:20:53	14:24:16	202274	5da360b12e89480010ef417a	58534219	1	practice_slash	5	advance_on_keypress_SLASH	2	stimuli_target_squarediamonds.svg	stimuli_distractor_diamondtriangles.svg	2	yes	57	0	2632
6.6.1	win	2022-12-14	14:20:53	14:24:21	207219	5da360b12e89480010ef417a	58534219	1	practice_slash	5	practice_slash	3	stimuli_target_squarediamonds.svg	stimuli_distractor_trianglediamonds.svg	5	yes	53	1	694
6.6.1	win	2022-12-14	14:20:53	14:24:21	207219	5da360b12e89480010ef417a	58534219	1	practice_slash	5	advance_on_keypress_SLASH	4	stimuli_target_squarediamonds.svg	stimuli_distractor_trianglediamonds.svg	5	yes	57	0	1162
6.6.1	win	2022-12-14	14:20:53	14:24:25	211111	5da360b12e89480010ef417a	58534219	1	practice_slash	5	practice_slash	5	stimuli_distractor_trianglediamonds.svg	stimuli_distractor_diamondtriangles.svg	16	no	53	0	1107
6.6.1	win	2022-12-14	14:20:53	14:24:25	211111	5da360b12e89480010ef417a	58534219	1	practice_slash	5	advance_on_keypress_SLASH	6	stimuli_distractor_trianglediamonds.svg	stimuli_distractor_diamondtriangles.svg	16	no	57	0	581
6.6.1	win	2022-12-14	14:20:53	14:24:29	215310	5da360b12e89480010ef417a	58534219	1	practice_slash	5	practice_slash	7	stimuli_distractor_diamondtriangles.svg	stimuli_target_circletriangles.svg	7	yes	0	0	2000
6.6.1	win	2022-12-14	14:20:53	14:24:29	215310	5da360b12e89480010ef417a	58534219	1	practice_slash	5	advance_on_keypress_SLASH	8	stimuli_distractor_diamondtriangles.svg	stimuli_target_circletriangles.svg	7	yes	57	0	767
6.6.1	win	2022-12-14	14:20:53	14:24:33	218586	5da360b12e89480010ef417a	58534219	1	practice_slash	5	practice_slash	9	stimuli_distractor_trianglediamonds.svg	stimuli_target_circlediamonds.svg	10	yes	53	1	887
6.6.1	win	2022-12-14	14:20:53	14:24:33	218586	5da360b12e89480010ef417a	58534219	1	practice_slash	5	advance_on_keypress_SLASH	10	stimuli_distractor_trianglediamonds.svg	stimuli_target_circlediamonds.svg	10	yes	57	0	495
6.6.1	win	2022-12-14	14:20:53	14:24:35	221365	5da360b12e89480010ef417a	58534219	1	practice_slash	5	practice_slash	11	stimuli_target_circlediamonds.svg	stimuli_distractor_trianglediamonds.svg	4	yes	53	1	662
6.6.1	win	2022-12-14	14:20:53	14:24:35	221365	5da360b12e89480010ef417a	58534219	1	practice_slash	5	advance_on_keypress_SLASH	12	stimuli_target_circlediamonds.svg	stimuli_distractor_trianglediamonds.svg	4	yes	57	0	308
6.6.1	win	2022-12-14	14:20:53	14:24:39	225293	5da360b12e89480010ef417a	58534219	1	practice_slash	5	practice_slash	13	stimuli_distractor_trianglediamonds.svg	stimuli_distractor_trianglediamonds.svg	15	no	0	1	2000
6.6.1	win	2022-12-14	14:20:53	14:24:39	225293	5da360b12e89480010ef417a	58534219	1	practice_slash	5	advance_on_keypress_SLASH	14	stimuli_distractor_trianglediamonds.svg	stimuli_distractor_trianglediamonds.svg	15	no	57	0	312
6.6.1	win	2022-12-14	14:20:53	14:24:42	227883	5da360b12e89480010ef417a	58534219	1	practice_slash	5	practice_slash	15	stimuli_distractor_diamondtriangles.svg	stimuli_target_diamondcircles.svg	8	yes	53	1	658
6.6.1	win	2022-12-14	14:20:53	14:24:42	227883	5da360b12e89480010ef417a	58534219	1	practice_slash	5	advance_on_keypress_SLASH	16	stimuli_distractor_diamondtriangles.svg	stimuli_target_diamondcircles.svg	8	yes	57	0	272
6.6.1	win	2022-12-14	14:20:53	14:24:46	231774	5da360b12e89480010ef417a	58534219	1	practice_slash	5	practice_slash	17	stimuli_distractor_diamondtriangles.svg	stimuli_distractor_trianglediamonds.svg	14	no	0	1	2000
6.6.1	win	2022-12-14	14:20:53	14:24:46	231774	5da360b12e89480010ef417a	58534219	1	practice_slash	5	advance_on_keypress_SLASH	18	stimuli_distractor_diamondtriangles.svg	stimuli_distractor_trianglediamonds.svg	14	no	57	0	274
6.6.1	win	2022-12-14	14:20:53	14:24:49	235034	5da360b12e89480010ef417a	58534219	1	practice_slash	5	practice_slash	19	stimuli_target_diamondsquares.svg	stimuli_distractor_trianglediamonds.svg	6	yes	53	1	1370
6.6.1	win	2022-12-14	14:20:53	14:24:49	235034	5da360b12e89480010ef417a	58534219	1	practice_slash	5	advance_on_keypress_SLASH	20	stimuli_target_diamondsquares.svg	stimuli_distractor_trianglediamonds.svg	6	yes	57	0	247
6.6.1	win	2022-12-14	14:20:53	14:24:52	237781	5da360b12e89480010ef417a	58534219	1	practice_slash	5	practice_slash	21	stimuli_distractor_diamondtriangles.svg	stimuli_target_trianglecircles.svg	9	yes	53	1	882
6.6.1	win	2022-12-14	14:20:53	14:24:52	237781	5da360b12e89480010ef417a	58534219	1	practice_slash	5	advance_on_keypress_SLASH	22	stimuli_distractor_diamondtriangles.svg	stimuli_target_trianglecircles.svg	9	yes	57	0	301
6.6.1	win	2022-12-14	14:20:53	14:24:55	240838	5da360b12e89480010ef417a	58534219	1	practice_slash	5	practice_slash	23	stimuli_target_diamondsquares.svg	stimuli_distractor_diamondtriangles.svg	3	yes	53	1	1135
6.6.1	win	2022-12-14	14:20:53	14:24:55	240838	5da360b12e89480010ef417a	58534219	1	practice_slash	5	advance_on_keypress_SLASH	24	stimuli_target_diamondsquares.svg	stimuli_distractor_diamondtriangles.svg	3	yes	57	0	241
6.6.1	win	2022-12-14	14:20:53	14:24:58	243444	5da360b12e89480010ef417a	58534219	1	practice_slash	5	practice_slash	25	stimuli_distractor_trianglediamonds.svg	stimuli_target_diamondcircles.svg	12	yes	53	1	750
6.6.1	win	2022-12-14	14:20:53	14:24:58	243444	5da360b12e89480010ef417a	58534219	1	practice_slash	5	advance_on_keypress_SLASH	26	stimuli_distractor_trianglediamonds.svg	stimuli_target_diamondcircles.svg	12	yes	57	0	243
6.6.1	win	2022-12-14	14:20:53	14:25:01	247304	5da360b12e89480010ef417a	58534219	1	practice_slash	5	practice_slash	27	stimuli_target_circlediamonds.svg	stimuli_distractor_diamondtriangles.svg	1	yes	0	0	2000
6.6.1	win	2022-12-14	14:20:53	14:25:01	247304	5da360b12e89480010ef417a	58534219	1	practice_slash	5	advance_on_keypress_SLASH	28	stimuli_target_circlediamonds.svg	stimuli_distractor_diamondtriangles.svg	1	yes	57	0	262
6.6.1	win	2022-12-14	14:20:53	14:25:04	249972	5da360b12e89480010ef417a	58534219	1	practice_slash	5	practice_slash	29	stimuli_distractor_trianglediamonds.svg	stimuli_target_squarediamonds.svg	11	yes	53	1	789
6.6.1	win	2022-12-14	14:20:53	14:25:04	249972	5da360b12e89480010ef417a	58534219	1	practice_slash	5	advance_on_keypress_SLASH	30	stimuli_distractor_trianglediamonds.svg	stimuli_target_squarediamonds.svg	11	yes	57	0	284
6.6.1	win	2022-12-14	14:20:53	14:25:07	252875	5da360b12e89480010ef417a	58534219	1	practice_slash	5	practice_slash	31	stimuli_distractor_diamondtriangles.svg	stimuli_distractor_diamondtriangles.svg	13	no	53	0	999
6.6.1	win	2022-12-14	14:20:53	14:25:07	252875	5da360b12e89480010ef417a	58534219	1	practice_slash	5	advance_on_keypress_SLASH	32	stimuli_distractor_diamondtriangles.svg	stimuli_distractor_diamondtriangles.svg	13	no	57	0	299
6.6.1	win	2022-12-14	14:20:53	14:25:15	261029	5da360b12e89480010ef417a	58534219	1	main_slash	7	main_slash	1	stimuli_distractor_diamondtriangles.svg	stimuli_distractor_trianglediamonds.svg	38	no	53	0	898
6.6.1	win	2022-12-14	14:20:53	14:25:15	261029	5da360b12e89480010ef417a	58534219	1	main_slash	7	advance_on_keypress_SLASH	2	stimuli_distractor_diamondtriangles.svg	stimuli_distractor_trianglediamonds.svg	38	no	57	0	958
6.6.1	win	2022-12-14	14:20:53	14:25:17	263257	5da360b12e89480010ef417a	58534219	1	main_slash	7	main_slash	3	stimuli_distractor_diamondtriangles.svg	stimuli_target_squaretriangles.svg	15	yes	53	1	650
6.6.1	win	2022-12-14	14:20:53	14:25:17	263257	5da360b12e89480010ef417a	58534219	1	main_slash	7	advance_on_keypress_SLASH	4	stimuli_distractor_diamondtriangles.svg	stimuli_target_squaretriangles.svg	15	yes	57	0	513
6.6.1	win	2022-12-14	14:20:53	14:25:19	265011	5da360b12e89480010ef417a	58534219	1	main_slash	7	main_slash	5	stimuli_target_squarediamonds.svg	stimuli_distractor_trianglediamonds.svg	4	yes	53	1	626
6.6.1	win	2022-12-14	14:20:53	14:25:19	265011	5da360b12e89480010ef417a	58534219	1	main_slash	7	advance_on_keypress_SLASH	6	stimuli_target_squarediamonds.svg	stimuli_distractor_trianglediamonds.svg	4	yes	57	0	476
6.6.1	win	2022-12-14	14:20:53	14:25:22	268103	5da360b12e89480010ef417a	58534219	1	main_slash	7	main_slash	7	stimuli_distractor_trianglediamonds.svg	stimuli_distractor_diamondtriangles.svg	36	no	0	1	2000
6.6.1	win	2022-12-14	14:20:53	14:25:22	268103	5da360b12e89480010ef417a	58534219	1	main_slash	7	advance_on_keypress_SLASH	8	stimuli_distractor_trianglediamonds.svg	stimuli_distractor_diamondtriangles.svg	36	no	57	0	343
6.6.1	win	2022-12-14	14:20:53	14:25:24	269588	5da360b12e89480010ef417a	58534219	1	main_slash	7	main_slash	9	stimuli_distractor_diamondtriangles.svg	stimuli_target_trianglecircles.svg	29	yes	53	1	530
6.6.1	win	2022-12-14	14:20:53	14:25:24	269588	5da360b12e89480010ef417a	58534219	1	main_slash	7	advance_on_keypress_SLASH	10	stimuli_distractor_diamondtriangles.svg	stimuli_target_trianglecircles.svg	29	yes	57	0	663
6.6.1	win	2022-12-14	14:20:53	14:25:26	271445	5da360b12e89480010ef417a	58534219	1	main_slash	7	main_slash	11	stimuli_distractor_trianglediamonds.svg	stimuli_target_trianglecircles.svg	25	yes	53	1	579
6.6.1	win	2022-12-14	14:20:53	14:25:26	271445	5da360b12e89480010ef417a	58534219	1	main_slash	7	advance_on_keypress_SLASH	12	stimuli_distractor_trianglediamonds.svg	stimuli_target_trianglecircles.svg	25	yes	57	0	485
6.6.1	win	2022-12-14	14:20:53	14:25:28	273584	5da360b12e89480010ef417a	58534219	1	main_slash	7	main_slash	13	stimuli_target_circletriangles.svg	stimuli_distractor_diamondtriangles.svg	5	yes	53	1	1037
6.6.1	win	2022-12-14	14:20:53	14:25:28	273584	5da360b12e89480010ef417a	58534219	1	main_slash	7	advance_on_keypress_SLASH	14	stimuli_target_circletriangles.svg	stimuli_distractor_diamondtriangles.svg	5	yes	57	0	387
6.6.1	win	2022-12-14	14:20:53	14:25:31	276586	5da360b12e89480010ef417a	58534219	1	main_slash	7	main_slash	15	stimuli_distractor_trianglediamonds.svg	stimuli_distractor_trianglediamonds.svg	33	no	0	1	2000
6.6.1	win	2022-12-14	14:20:53	14:25:31	276586	5da360b12e89480010ef417a	58534219	1	main_slash	7	advance_on_keypress_SLASH	16	stimuli_distractor_trianglediamonds.svg	stimuli_distractor_trianglediamonds.svg	33	no	57	0	262
6.6.1	win	2022-12-14	14:20:53	14:25:32	278320	5da360b12e89480010ef417a	58534219	1	main_slash	7	main_slash	17	stimuli_distractor_diamondtriangles.svg	stimuli_target_diamondsquares.svg	32	yes	53	1	857
6.6.1	win	2022-12-14	14:20:53	14:25:32	278320	5da360b12e89480010ef417a	58534219	1	main_slash	7	advance_on_keypress_SLASH	18	stimuli_distractor_diamondtriangles.svg	stimuli_target_diamondsquares.svg	32	yes	57	0	506
6.6.1	win	2022-12-14	14:20:53	14:25:35	280506	5da360b12e89480010ef417a	58534219	1	main_slash	7	main_slash	19	stimuli_target_diamondsquares.svg	stimuli_distractor_diamondtriangles.svg	24	yes	53	1	1065
6.6.1	win	2022-12-14	14:20:53	14:25:35	280506	5da360b12e89480010ef417a	58534219	1	main_slash	7	advance_on_keypress_SLASH	20	stimuli_target_diamondsquares.svg	stimuli_distractor_diamondtriangles.svg	24	yes	57	0	488
6.6.1	win	2022-12-14	14:20:53	14:25:37	282441	5da360b12e89480010ef417a	58534219	1	main_slash	7	main_slash	21	stimuli_distractor_diamondtriangles.svg	stimuli_target_diamondcircles.svg	31	yes	53	1	833
6.6.1	win	2022-12-14	14:20:53	14:25:37	282441	5da360b12e89480010ef417a	58534219	1	main_slash	7	advance_on_keypress_SLASH	22	stimuli_distractor_diamondtriangles.svg	stimuli_target_diamondcircles.svg	31	yes	57	0	340
6.6.1	win	2022-12-14	14:20:53	14:25:39	284680	5da360b12e89480010ef417a	58534219	1	main_slash	7	main_slash	23	stimuli_distractor_trianglediamonds.svg	stimuli_target_diamondsquares.svg	28	yes	53	1	1282
6.6.1	win	2022-12-14	14:20:53	14:25:39	284680	5da360b12e89480010ef417a	58534219	1	main_slash	7	advance_on_keypress_SLASH	24	stimuli_distractor_trianglediamonds.svg	stimuli_target_diamondsquares.svg	28	yes	57	0	425
6.6.1	win	2022-12-14	14:20:53	14:25:41	286819	5da360b12e89480010ef417a	58534219	1	main_slash	7	main_slash	25	stimuli_target_circlediamonds.svg	stimuli_distractor_diamondtriangles.svg	6	yes	53	1	1097
6.6.1	win	2022-12-14	14:20:53	14:25:41	286819	5da360b12e89480010ef417a	58534219	1	main_slash	7	advance_on_keypress_SLASH	26	stimuli_target_circlediamonds.svg	stimuli_distractor_diamondtriangles.svg	6	yes	57	0	444
6.6.1	win	2022-12-14	14:20:53	14:25:43	288784	5da360b12e89480010ef417a	58534219	1	main_slash	7	main_slash	27	stimuli_target_squaretriangles.svg	stimuli_distractor_trianglediamonds.svg	3	yes	53	1	907
6.6.1	win	2022-12-14	14:20:53	14:25:43	288784	5da360b12e89480010ef417a	58534219	1	main_slash	7	advance_on_keypress_SLASH	28	stimuli_target_squaretriangles.svg	stimuli_distractor_trianglediamonds.svg	3	yes	57	0	343
6.6.1	win	2022-12-14	14:20:53	14:25:46	291740	5da360b12e89480010ef417a	58534219	1	main_slash	7	main_slash	29	stimuli_target_diamondsquares.svg	stimuli_distractor_trianglediamonds.svg	20	yes	0	0	2000
6.6.1	win	2022-12-14	14:20:53	14:25:46	291740	5da360b12e89480010ef417a	58534219	1	main_slash	7	advance_on_keypress_SLASH	30	stimuli_target_diamondsquares.svg	stimuli_distractor_trianglediamonds.svg	20	yes	57	0	280
6.6.1	win	2022-12-14	14:20:53	14:25:47	293365	5da360b12e89480010ef417a	58534219	1	main_slash	7	main_slash	31	stimuli_distractor_trianglediamonds.svg	stimuli_target_squaretriangles.svg	11	yes	53	1	730
6.6.1	win	2022-12-14	14:20:53	14:25:47	293365	5da360b12e89480010ef417a	58534219	1	main_slash	7	advance_on_keypress_SLASH	32	stimuli_distractor_trianglediamonds.svg	stimuli_target_squaretriangles.svg	11	yes	57	0	326
6.6.1	win	2022-12-14	14:20:53	14:25:49	295152	5da360b12e89480010ef417a	58534219	1	main_slash	7	main_slash	33	stimuli_distractor_trianglediamonds.svg	stimuli_target_diamondcircles.svg	27	yes	53	1	843
6.6.1	win	2022-12-14	14:20:53	14:25:49	295152	5da360b12e89480010ef417a	58534219	1	main_slash	7	advance_on_keypress_SLASH	34	stimuli_distractor_trianglediamonds.svg	stimuli_target_diamondcircles.svg	27	yes	57	0	360
6.6.1	win	2022-12-14	14:20:53	14:25:51	297125	5da360b12e89480010ef417a	58534219	1	main_slash	7	main_slash	35	stimuli_distractor_diamondtriangles.svg	stimuli_target_circlediamonds.svg	14	yes	53	1	1001
6.6.1	win	2022-12-14	14:20:53	14:25:51	297125	5da360b12e89480010ef417a	58534219	1	main_slash	7	advance_on_keypress_SLASH	36	stimuli_distractor_diamondtriangles.svg	stimuli_target_circlediamonds.svg	14	yes	57	0	299
6.6.1	win	2022-12-14	14:20:53	14:25:54	300042	5da360b12e89480010ef417a	58534219	1	main_slash	7	main_slash	37	stimuli_distractor_diamondtriangles.svg	stimuli_distractor_trianglediamonds.svg	37	no	0	1	2000
6.6.1	win	2022-12-14	14:20:53	14:25:54	300042	5da360b12e89480010ef417a	58534219	1	main_slash	7	advance_on_keypress_SLASH	38	stimuli_distractor_diamondtriangles.svg	stimuli_distractor_trianglediamonds.svg	37	no	57	0	280
6.6.1	win	2022-12-14	14:20:53	14:25:57	302937	5da360b12e89480010ef417a	58534219	1	main_slash	7	main_slash	39	stimuli_distractor_trianglediamonds.svg	stimuli_distractor_trianglediamonds.svg	34	no	0	1	2000
6.6.1	win	2022-12-14	14:20:53	14:25:57	302937	5da360b12e89480010ef417a	58534219	1	main_slash	7	advance_on_keypress_SLASH	40	stimuli_distractor_trianglediamonds.svg	stimuli_distractor_trianglediamonds.svg	34	no	57	0	265
6.6.1	win	2022-12-14	14:20:53	14:25:59	304593	5da360b12e89480010ef417a	58534219	1	main_slash	7	main_slash	41	stimuli_target_squaretriangles.svg	stimuli_distractor_diamondtriangles.svg	7	yes	53	1	780
6.6.1	win	2022-12-14	14:20:53	14:25:59	304593	5da360b12e89480010ef417a	58534219	1	main_slash	7	advance_on_keypress_SLASH	42	stimuli_target_squaretriangles.svg	stimuli_distractor_diamondtriangles.svg	7	yes	57	0	300
6.6.1	win	2022-12-14	14:20:53	14:26:00	306294	5da360b12e89480010ef417a	58534219	1	main_slash	7	main_slash	43	stimuli_distractor_diamondtriangles.svg	stimuli_target_squarediamonds.svg	16	yes	53	1	788
6.6.1	win	2022-12-14	14:20:53	14:26:00	306294	5da360b12e89480010ef417a	58534219	1	main_slash	7	advance_on_keypress_SLASH	44	stimuli_distractor_diamondtriangles.svg	stimuli_target_squarediamonds.svg	16	yes	57	0	294
6.6.1	win	2022-12-14	14:20:53	14:26:02	308029	5da360b12e89480010ef417a	58534219	1	main_slash	7	main_slash	45	stimuli_target_diamondcircles.svg	stimuli_distractor_diamondtriangles.svg	23	yes	53	1	830
6.6.1	win	2022-12-14	14:20:53	14:26:02	308029	5da360b12e89480010ef417a	58534219	1	main_slash	7	advance_on_keypress_SLASH	46	stimuli_target_diamondcircles.svg	stimuli_distractor_diamondtriangles.svg	23	yes	57	0	236
6.6.1	win	2022-12-14	14:20:53	14:26:04	309705	5da360b12e89480010ef417a	58534219	1	main_slash	7	main_slash	47	stimuli_target_trianglecircles.svg	stimuli_distractor_trianglediamonds.svg	17	yes	53	1	825
6.6.1	win	2022-12-14	14:20:53	14:26:04	309705	5da360b12e89480010ef417a	58534219	1	main_slash	7	advance_on_keypress_SLASH	48	stimuli_target_trianglecircles.svg	stimuli_distractor_trianglediamonds.svg	17	yes	57	0	285
6.6.1	win	2022-12-14	14:20:53	14:26:05	311405	5da360b12e89480010ef417a	58534219	1	main_slash	7	main_slash	49	stimuli_distractor_diamondtriangles.svg	stimuli_target_circletriangles.svg	13	yes	53	1	801
6.6.1	win	2022-12-14	14:20:53	14:26:05	311405	5da360b12e89480010ef417a	58534219	1	main_slash	7	advance_on_keypress_SLASH	50	stimuli_distractor_diamondtriangles.svg	stimuli_target_circletriangles.svg	13	yes	57	0	259
6.6.1	win	2022-12-14	14:20:53	14:26:07	313065	5da360b12e89480010ef417a	58534219	1	main_slash	7	main_slash	51	stimuli_target_trianglecircles.svg	stimuli_distractor_diamondtriangles.svg	21	yes	53	1	786
6.6.1	win	2022-12-14	14:20:53	14:26:07	313065	5da360b12e89480010ef417a	58534219	1	main_slash	7	advance_on_keypress_SLASH	52	stimuli_target_trianglecircles.svg	stimuli_distractor_diamondtriangles.svg	21	yes	57	0	242
6.6.1	win	2022-12-14	14:20:53	14:26:10	315917	5da360b12e89480010ef417a	58534219	1	main_slash	7	main_slash	53	stimuli_distractor_trianglediamonds.svg	stimuli_target_circletriangles.svg	9	yes	0	0	2000
6.6.1	win	2022-12-14	14:20:53	14:26:10	315917	5da360b12e89480010ef417a	58534219	1	main_slash	7	advance_on_keypress_SLASH	54	stimuli_distractor_trianglediamonds.svg	stimuli_target_circletriangles.svg	9	yes	57	0	258
6.6.1	win	2022-12-14	14:20:53	14:26:11	317405	5da360b12e89480010ef417a	58534219	1	main_slash	7	main_slash	55	stimuli_target_squarediamonds.svg	stimuli_distractor_diamondtriangles.svg	8	yes	53	1	617
6.6.1	win	2022-12-14	14:20:53	14:26:11	317405	5da360b12e89480010ef417a	58534219	1	main_slash	7	advance_on_keypress_SLASH	56	stimuli_target_squarediamonds.svg	stimuli_distractor_diamondtriangles.svg	8	yes	57	0	314
6.6.1	win	2022-12-14	14:20:53	14:26:13	319106	5da360b12e89480010ef417a	58534219	1	main_slash	7	main_slash	57	stimuli_distractor_trianglediamonds.svg	stimuli_target_trianglesquares.svg	26	yes	53	1	777
6.6.1	win	2022-12-14	14:20:53	14:26:13	319106	5da360b12e89480010ef417a	58534219	1	main_slash	7	advance_on_keypress_SLASH	58	stimuli_distractor_trianglediamonds.svg	stimuli_target_trianglesquares.svg	26	yes	57	0	234
6.6.1	win	2022-12-14	14:20:53	14:26:15	320772	5da360b12e89480010ef417a	58534219	1	main_slash	7	main_slash	59	stimuli_distractor_trianglediamonds.svg	stimuli_target_squarediamonds.svg	12	yes	53	1	817
6.6.1	win	2022-12-14	14:20:53	14:26:15	320772	5da360b12e89480010ef417a	58534219	1	main_slash	7	advance_on_keypress_SLASH	60	stimuli_distractor_trianglediamonds.svg	stimuli_target_squarediamonds.svg	12	yes	57	0	227
6.6.1	win	2022-12-14	14:20:53	14:26:18	323612	5da360b12e89480010ef417a	58534219	1	main_slash	7	main_slash	61	stimuli_distractor_diamondtriangles.svg	stimuli_target_trianglesquares.svg	30	yes	0	0	2000
6.6.1	win	2022-12-14	14:20:53	14:26:18	323612	5da360b12e89480010ef417a	58534219	1	main_slash	7	advance_on_keypress_SLASH	62	stimuli_distractor_diamondtriangles.svg	stimuli_target_trianglesquares.svg	30	yes	57	0	330
6.6.1	win	2022-12-14	14:20:53	14:26:19	325307	5da360b12e89480010ef417a	58534219	1	main_slash	7	main_slash	63	stimuli_target_circlediamonds.svg	stimuli_distractor_trianglediamonds.svg	2	yes	53	1	751
6.6.1	win	2022-12-14	14:20:53	14:26:19	325307	5da360b12e89480010ef417a	58534219	1	main_slash	7	advance_on_keypress_SLASH	64	stimuli_target_circlediamonds.svg	stimuli_distractor_trianglediamonds.svg	2	yes	57	0	269
6.6.1	win	2022-12-14	14:20:53	14:26:21	326990	5da360b12e89480010ef417a	58534219	1	main_slash	7	main_slash	65	stimuli_target_trianglesquares.svg	stimuli_distractor_trianglediamonds.svg	18	yes	53	1	802
6.6.1	win	2022-12-14	14:20:53	14:26:21	326990	5da360b12e89480010ef417a	58534219	1	main_slash	7	advance_on_keypress_SLASH	66	stimuli_target_trianglesquares.svg	stimuli_distractor_trianglediamonds.svg	18	yes	57	0	163
6.6.1	win	2022-12-14	14:20:53	14:26:23	328576	5da360b12e89480010ef417a	58534219	1	main_slash	7	main_slash	67	stimuli_target_circletriangles.svg	stimuli_distractor_trianglediamonds.svg	1	yes	53	1	804
6.6.1	win	2022-12-14	14:20:53	14:26:23	328576	5da360b12e89480010ef417a	58534219	1	main_slash	7	advance_on_keypress_SLASH	68	stimuli_target_circletriangles.svg	stimuli_distractor_trianglediamonds.svg	1	yes	57	0	163
6.6.1	win	2022-12-14	14:20:53	14:26:25	331356	5da360b12e89480010ef417a	58534219	1	main_slash	7	main_slash	69	stimuli_distractor_diamondtriangles.svg	stimuli_distractor_diamondtriangles.svg	40	no	0	1	2000
6.6.1	win	2022-12-14	14:20:53	14:26:25	331356	5da360b12e89480010ef417a	58534219	1	main_slash	7	advance_on_keypress_SLASH	70	stimuli_distractor_diamondtriangles.svg	stimuli_distractor_diamondtriangles.svg	40	no	57	0	294
6.6.1	win	2022-12-14	14:20:53	14:26:27	332981	5da360b12e89480010ef417a	58534219	1	main_slash	7	main_slash	71	stimuli_distractor_trianglediamonds.svg	stimuli_target_circlediamonds.svg	10	yes	53	1	718
6.6.1	win	2022-12-14	14:20:53	14:26:27	332981	5da360b12e89480010ef417a	58534219	1	main_slash	7	advance_on_keypress_SLASH	72	stimuli_distractor_trianglediamonds.svg	stimuli_target_circlediamonds.svg	10	yes	57	0	226
6.6.1	win	2022-12-14	14:20:53	14:26:30	335823	5da360b12e89480010ef417a	58534219	1	main_slash	7	main_slash	73	stimuli_distractor_trianglediamonds.svg	stimuli_distractor_diamondtriangles.svg	35	no	0	1	2000
6.6.1	win	2022-12-14	14:20:53	14:26:30	335823	5da360b12e89480010ef417a	58534219	1	main_slash	7	advance_on_keypress_SLASH	74	stimuli_distractor_trianglediamonds.svg	stimuli_distractor_diamondtriangles.svg	35	no	57	0	328
6.6.1	win	2022-12-14	14:20:53	14:26:33	338766	5da360b12e89480010ef417a	58534219	1	main_slash	7	main_slash	75	stimuli_distractor_diamondtriangles.svg	stimuli_distractor_diamondtriangles.svg	39	no	0	1	2000
6.6.1	win	2022-12-14	14:20:53	14:26:33	338766	5da360b12e89480010ef417a	58534219	1	main_slash	7	advance_on_keypress_SLASH	76	stimuli_distractor_diamondtriangles.svg	stimuli_distractor_diamondtriangles.svg	39	no	57	0	383
6.6.1	win	2022-12-14	14:20:53	14:26:35	340507	5da360b12e89480010ef417a	58534219	1	main_slash	7	main_slash	77	stimuli_target_diamondcircles.svg	stimuli_distractor_trianglediamonds.svg	19	yes	53	1	743
6.6.1	win	2022-12-14	14:20:53	14:26:35	340507	5da360b12e89480010ef417a	58534219	1	main_slash	7	advance_on_keypress_SLASH	78	stimuli_target_diamondcircles.svg	stimuli_distractor_trianglediamonds.svg	19	yes	57	0	266
6.6.1	win	2022-12-14	14:20:53	14:26:37	343390	5da360b12e89480010ef417a	58534219	1	main_slash	7	main_slash	79	stimuli_target_trianglesquares.svg	stimuli_distractor_diamondtriangles.svg	22	yes	0	0	2000
6.6.1	win	2022-12-14	14:20:53	14:26:37	343390	5da360b12e89480010ef417a	58534219	1	main_slash	7	advance_on_keypress_SLASH	80	stimuli_target_trianglesquares.svg	stimuli_distractor_diamondtriangles.svg	22	yes	57	0	237
6.6.1	win	2022-12-14	14:20:53	14:26:39	345023	5da360b12e89480010ef417a	58534219	1	main_slash	7	main_slash	81	stimuli_distractor_diamondtriangles.svg	stimuli_target_squaretriangles.svg	15	yes	53	1	781
6.6.1	win	2022-12-14	14:20:53	14:26:39	345023	5da360b12e89480010ef417a	58534219	1	main_slash	7	advance_on_keypress_SLASH	82	stimuli_distractor_diamondtriangles.svg	stimuli_target_squaretriangles.svg	15	yes	57	0	191
6.6.1	win	2022-12-14	14:20:53	14:26:41	346626	5da360b12e89480010ef417a	58534219	1	main_slash	7	main_slash	83	stimuli_target_circlediamonds.svg	stimuli_distractor_trianglediamonds.svg	2	yes	53	1	800
6.6.1	win	2022-12-14	14:20:53	14:26:41	346626	5da360b12e89480010ef417a	58534219	1	main_slash	7	advance_on_keypress_SLASH	84	stimuli_target_circlediamonds.svg	stimuli_distractor_trianglediamonds.svg	2	yes	57	0	192
6.6.1	win	2022-12-14	14:20:53	14:26:43	349428	5da360b12e89480010ef417a	58534219	1	main_slash	7	main_slash	85	stimuli_distractor_trianglediamonds.svg	stimuli_target_trianglesquares.svg	26	yes	0	0	2000
6.6.1	win	2022-12-14	14:20:53	14:26:43	349428	5da360b12e89480010ef417a	58534219	1	main_slash	7	advance_on_keypress_SLASH	86	stimuli_distractor_trianglediamonds.svg	stimuli_target_trianglesquares.svg	26	yes	57	0	736
6.6.1	win	2022-12-14	14:20:53	14:26:45	351410	5da360b12e89480010ef417a	58534219	1	main_slash	7	main_slash	87	stimuli_distractor_trianglediamonds.svg	stimuli_target_diamondcircles.svg	27	yes	53	1	632
6.6.1	win	2022-12-14	14:20:53	14:26:45	351410	5da360b12e89480010ef417a	58534219	1	main_slash	7	advance_on_keypress_SLASH	88	stimuli_distractor_trianglediamonds.svg	stimuli_target_diamondcircles.svg	27	yes	57	0	254
6.6.1	win	2022-12-14	14:20:53	14:26:47	353073	5da360b12e89480010ef417a	58534219	1	main_slash	7	main_slash	89	stimuli_target_circlediamonds.svg	stimuli_distractor_diamondtriangles.svg	6	yes	53	1	790
6.6.1	win	2022-12-14	14:20:53	14:26:47	353073	5da360b12e89480010ef417a	58534219	1	main_slash	7	advance_on_keypress_SLASH	90	stimuli_target_circlediamonds.svg	stimuli_distractor_diamondtriangles.svg	6	yes	57	0	182
6.6.1	win	2022-12-14	14:20:53	14:26:49	354811	5da360b12e89480010ef417a	58534219	1	main_slash	7	main_slash	91	stimuli_distractor_trianglediamonds.svg	stimuli_target_circletriangles.svg	9	yes	53	1	938
6.6.1	win	2022-12-14	14:20:53	14:26:49	354811	5da360b12e89480010ef417a	58534219	1	main_slash	7	advance_on_keypress_SLASH	92	stimuli_distractor_trianglediamonds.svg	stimuli_target_circletriangles.svg	9	yes	57	0	240
6.6.1	win	2022-12-14	14:20:53	14:26:51	356453	5da360b12e89480010ef417a	58534219	1	main_slash	7	main_slash	93	stimuli_target_diamondcircles.svg	stimuli_distractor_trianglediamonds.svg	19	yes	53	1	790
6.6.1	win	2022-12-14	14:20:53	14:26:51	356453	5da360b12e89480010ef417a	58534219	1	main_slash	7	advance_on_keypress_SLASH	94	stimuli_target_diamondcircles.svg	stimuli_distractor_trianglediamonds.svg	19	yes	57	0	197
6.6.1	win	2022-12-14	14:20:53	14:26:52	357969	5da360b12e89480010ef417a	58534219	1	main_slash	7	main_slash	95	stimuli_distractor_diamondtriangles.svg	stimuli_target_circlediamonds.svg	14	yes	53	1	703
6.6.1	win	2022-12-14	14:20:53	14:26:52	357969	5da360b12e89480010ef417a	58534219	1	main_slash	7	advance_on_keypress_SLASH	96	stimuli_distractor_diamondtriangles.svg	stimuli_target_circlediamonds.svg	14	yes	57	0	192
6.6.1	win	2022-12-14	14:20:53	14:26:53	359378	5da360b12e89480010ef417a	58534219	1	main_slash	7	main_slash	97	stimuli_target_diamondcircles.svg	stimuli_distractor_diamondtriangles.svg	23	yes	53	1	601
6.6.1	win	2022-12-14	14:20:53	14:26:53	359378	5da360b12e89480010ef417a	58534219	1	main_slash	7	advance_on_keypress_SLASH	98	stimuli_target_diamondcircles.svg	stimuli_distractor_diamondtriangles.svg	23	yes	57	0	242
6.6.1	win	2022-12-14	14:20:53	14:26:55	360962	5da360b12e89480010ef417a	58534219	1	main_slash	7	main_slash	99	stimuli_target_squarediamonds.svg	stimuli_distractor_trianglediamonds.svg	4	yes	53	1	723
6.6.1	win	2022-12-14	14:20:53	14:26:55	360962	5da360b12e89480010ef417a	58534219	1	main_slash	7	advance_on_keypress_SLASH	100	stimuli_target_squarediamonds.svg	stimuli_distractor_trianglediamonds.svg	4	yes	57	0	246
6.6.1	win	2022-12-14	14:20:53	14:26:58	363823	5da360b12e89480010ef417a	58534219	1	main_slash	7	main_slash	101	stimuli_distractor_trianglediamonds.svg	stimuli_distractor_trianglediamonds.svg	33	no	0	1	2000
6.6.1	win	2022-12-14	14:20:53	14:26:58	363823	5da360b12e89480010ef417a	58534219	1	main_slash	7	advance_on_keypress_SLASH	102	stimuli_distractor_trianglediamonds.svg	stimuli_distractor_trianglediamonds.svg	33	no	57	0	256
6.6.1	win	2022-12-14	14:20:53	14:26:59	365350	5da360b12e89480010ef417a	58534219	1	main_slash	7	main_slash	103	stimuli_target_trianglecircles.svg	stimuli_distractor_diamondtriangles.svg	21	yes	53	1	656
6.6.1	win	2022-12-14	14:20:53	14:26:59	365350	5da360b12e89480010ef417a	58534219	1	main_slash	7	advance_on_keypress_SLASH	104	stimuli_target_trianglecircles.svg	stimuli_distractor_diamondtriangles.svg	21	yes	57	0	266
6.6.1	win	2022-12-14	14:20:53	14:27:02	368235	5da360b12e89480010ef417a	58534219	1	main_slash	7	main_slash	105	stimuli_target_trianglesquares.svg	stimuli_distractor_diamondtriangles.svg	22	yes	0	0	2000
6.6.1	win	2022-12-14	14:20:53	14:27:02	368235	5da360b12e89480010ef417a	58534219	1	main_slash	7	advance_on_keypress_SLASH	106	stimuli_target_trianglesquares.svg	stimuli_distractor_diamondtriangles.svg	22	yes	57	0	285
6.6.1	win	2022-12-14	14:20:53	14:27:04	369847	5da360b12e89480010ef417a	58534219	1	main_slash	7	main_slash	107	stimuli_distractor_trianglediamonds.svg	stimuli_target_diamondsquares.svg	28	yes	53	1	711
6.6.1	win	2022-12-14	14:20:53	14:27:04	369847	5da360b12e89480010ef417a	58534219	1	main_slash	7	advance_on_keypress_SLASH	108	stimuli_distractor_trianglediamonds.svg	stimuli_target_diamondsquares.svg	28	yes	57	0	155
6.6.1	win	2022-12-14	14:20:53	14:27:07	372617	5da360b12e89480010ef417a	58534219	1	main_slash	7	main_slash	109	stimuli_distractor_diamondtriangles.svg	stimuli_distractor_diamondtriangles.svg	40	no	0	1	2000
6.6.1	win	2022-12-14	14:20:53	14:27:07	372617	5da360b12e89480010ef417a	58534219	1	main_slash	7	advance_on_keypress_SLASH	110	stimuli_distractor_diamondtriangles.svg	stimuli_distractor_diamondtriangles.svg	40	no	57	0	739
6.6.1	win	2022-12-14	14:20:53	14:27:09	374622	5da360b12e89480010ef417a	58534219	1	main_slash	7	main_slash	111	stimuli_target_circletriangles.svg	stimuli_distractor_diamondtriangles.svg	5	yes	53	1	656
6.6.1	win	2022-12-14	14:20:53	14:27:09	374622	5da360b12e89480010ef417a	58534219	1	main_slash	7	advance_on_keypress_SLASH	112	stimuli_target_circletriangles.svg	stimuli_distractor_diamondtriangles.svg	5	yes	57	0	1423
6.6.1	win	2022-12-14	14:20:53	14:27:11	377290	5da360b12e89480010ef417a	58534219	1	main_slash	7	main_slash	113	stimuli_distractor_trianglediamonds.svg	stimuli_target_trianglecircles.svg	25	yes	53	1	629
6.6.1	win	2022-12-14	14:20:53	14:27:11	377290	5da360b12e89480010ef417a	58534219	1	main_slash	7	advance_on_keypress_SLASH	114	stimuli_distractor_trianglediamonds.svg	stimuli_target_trianglecircles.svg	25	yes	57	0	282
6.6.1	win	2022-12-14	14:20:53	14:27:13	378898	5da360b12e89480010ef417a	58534219	1	main_slash	7	main_slash	115	stimuli_target_circletriangles.svg	stimuli_distractor_trianglediamonds.svg	1	yes	53	1	714
6.6.1	win	2022-12-14	14:20:53	14:27:13	378898	5da360b12e89480010ef417a	58534219	1	main_slash	7	advance_on_keypress_SLASH	116	stimuli_target_circletriangles.svg	stimuli_distractor_trianglediamonds.svg	1	yes	57	0	191
6.6.1	win	2022-12-14	14:20:53	14:27:14	380334	5da360b12e89480010ef417a	58534219	1	main_slash	7	main_slash	117	stimuli_target_squarediamonds.svg	stimuli_distractor_diamondtriangles.svg	8	yes	53	1	633
6.6.1	win	2022-12-14	14:20:53	14:27:14	380334	5da360b12e89480010ef417a	58534219	1	main_slash	7	advance_on_keypress_SLASH	118	stimuli_target_squarediamonds.svg	stimuli_distractor_diamondtriangles.svg	8	yes	57	0	196
6.6.1	win	2022-12-14	14:20:53	14:27:17	383146	5da360b12e89480010ef417a	58534219	1	main_slash	7	main_slash	119	stimuli_target_diamondsquares.svg	stimuli_distractor_diamondtriangles.svg	24	yes	0	0	2000
6.6.1	win	2022-12-14	14:20:53	14:27:17	383146	5da360b12e89480010ef417a	58534219	1	main_slash	7	advance_on_keypress_SLASH	120	stimuli_target_diamondsquares.svg	stimuli_distractor_diamondtriangles.svg	24	yes	57	0	262
6.6.1	win	2022-12-14	14:20:53	14:27:19	384712	5da360b12e89480010ef417a	58534219	1	main_slash	7	main_slash	121	stimuli_distractor_diamondtriangles.svg	stimuli_target_diamondsquares.svg	32	yes	53	1	690
6.6.1	win	2022-12-14	14:20:53	14:27:19	384712	5da360b12e89480010ef417a	58534219	1	main_slash	7	advance_on_keypress_SLASH	122	stimuli_distractor_diamondtriangles.svg	stimuli_target_diamondsquares.svg	32	yes	57	0	322
6.6.1	win	2022-12-14	14:20:53	14:27:20	386380	5da360b12e89480010ef417a	58534219	1	main_slash	7	main_slash	123	stimuli_target_squaretriangles.svg	stimuli_distractor_trianglediamonds.svg	3	yes	53	1	732
6.6.1	win	2022-12-14	14:20:53	14:27:20	386380	5da360b12e89480010ef417a	58534219	1	main_slash	7	advance_on_keypress_SLASH	124	stimuli_target_squaretriangles.svg	stimuli_distractor_trianglediamonds.svg	3	yes	57	0	169
6.6.1	win	2022-12-14	14:20:53	14:27:23	389166	5da360b12e89480010ef417a	58534219	1	main_slash	7	main_slash	125	stimuli_target_trianglesquares.svg	stimuli_distractor_trianglediamonds.svg	18	yes	0	0	2000
6.6.1	win	2022-12-14	14:20:53	14:27:23	389166	5da360b12e89480010ef417a	58534219	1	main_slash	7	advance_on_keypress_SLASH	126	stimuli_target_trianglesquares.svg	stimuli_distractor_trianglediamonds.svg	18	yes	57	0	302
6.6.1	win	2022-12-14	14:20:53	14:27:26	392079	5da360b12e89480010ef417a	58534219	1	main_slash	7	main_slash	127	stimuli_distractor_diamondtriangles.svg	stimuli_distractor_diamondtriangles.svg	39	no	0	1	2000
6.6.1	win	2022-12-14	14:20:53	14:27:26	392079	5da360b12e89480010ef417a	58534219	1	main_slash	7	advance_on_keypress_SLASH	128	stimuli_distractor_diamondtriangles.svg	stimuli_distractor_diamondtriangles.svg	39	no	57	0	251
6.6.1	win	2022-12-14	14:20:53	14:27:28	393705	5da360b12e89480010ef417a	58534219	1	main_slash	7	main_slash	129	stimuli_distractor_trianglediamonds.svg	stimuli_distractor_diamondtriangles.svg	36	no	53	0	762
6.6.1	win	2022-12-14	14:20:53	14:27:28	393705	5da360b12e89480010ef417a	58534219	1	main_slash	7	advance_on_keypress_SLASH	130	stimuli_distractor_trianglediamonds.svg	stimuli_distractor_diamondtriangles.svg	36	no	57	0	1088
6.6.1	win	2022-12-14	14:20:53	14:27:31	397407	5da360b12e89480010ef417a	58534219	1	main_slash	7	main_slash	131	stimuli_distractor_diamondtriangles.svg	stimuli_distractor_trianglediamonds.svg	37	no	0	1	2000
6.6.1	win	2022-12-14	14:20:53	14:27:31	397407	5da360b12e89480010ef417a	58534219	1	main_slash	7	advance_on_keypress_SLASH	132	stimuli_distractor_diamondtriangles.svg	stimuli_distractor_trianglediamonds.svg	37	no	57	0	261
6.6.1	win	2022-12-14	14:20:53	14:27:34	400284	5da360b12e89480010ef417a	58534219	1	main_slash	7	main_slash	133	stimuli_distractor_trianglediamonds.svg	stimuli_distractor_diamondtriangles.svg	35	no	0	1	2000
6.6.1	win	2022-12-14	14:20:53	14:27:34	400284	5da360b12e89480010ef417a	58534219	1	main_slash	7	advance_on_keypress_SLASH	134	stimuli_distractor_trianglediamonds.svg	stimuli_distractor_diamondtriangles.svg	35	no	57	0	259
6.6.1	win	2022-12-14	14:20:53	14:27:36	401704	5da360b12e89480010ef417a	58534219	1	main_slash	7	main_slash	135	stimuli_distractor_trianglediamonds.svg	stimuli_target_circlediamonds.svg	10	yes	53	1	550
6.6.1	win	2022-12-14	14:20:53	14:27:36	401704	5da360b12e89480010ef417a	58534219	1	main_slash	7	advance_on_keypress_SLASH	136	stimuli_distractor_trianglediamonds.svg	stimuli_target_circlediamonds.svg	10	yes	57	0	386
6.6.1	win	2022-12-14	14:20:53	14:27:37	403321	5da360b12e89480010ef417a	58534219	1	main_slash	7	main_slash	137	stimuli_distractor_trianglediamonds.svg	stimuli_target_squaretriangles.svg	11	yes	53	1	620
6.6.1	win	2022-12-14	14:20:53	14:27:37	403321	5da360b12e89480010ef417a	58534219	1	main_slash	7	advance_on_keypress_SLASH	138	stimuli_distractor_trianglediamonds.svg	stimuli_target_squaretriangles.svg	11	yes	57	0	177
6.6.1	win	2022-12-14	14:20:53	14:27:39	404792	5da360b12e89480010ef417a	58534219	1	main_slash	7	main_slash	139	stimuli_target_squaretriangles.svg	stimuli_distractor_diamondtriangles.svg	7	yes	53	1	677
6.6.1	win	2022-12-14	14:20:53	14:27:39	404792	5da360b12e89480010ef417a	58534219	1	main_slash	7	advance_on_keypress_SLASH	140	stimuli_target_squaretriangles.svg	stimuli_distractor_diamondtriangles.svg	7	yes	57	0	182
6.6.1	win	2022-12-14	14:20:53	14:27:42	407590	5da360b12e89480010ef417a	58534219	1	main_slash	7	main_slash	141	stimuli_distractor_trianglediamonds.svg	stimuli_distractor_trianglediamonds.svg	34	no	0	1	2000
6.6.1	win	2022-12-14	14:20:53	14:27:42	407590	5da360b12e89480010ef417a	58534219	1	main_slash	7	advance_on_keypress_SLASH	142	stimuli_distractor_trianglediamonds.svg	stimuli_distractor_trianglediamonds.svg	34	no	57	0	388
6.6.1	win	2022-12-14	14:20:53	14:27:45	410594	5da360b12e89480010ef417a	58534219	1	main_slash	7	main_slash	143	stimuli_distractor_diamondtriangles.svg	stimuli_distractor_trianglediamonds.svg	38	no	0	1	2000
6.6.1	win	2022-12-14	14:20:53	14:27:45	410594	5da360b12e89480010ef417a	58534219	1	main_slash	7	advance_on_keypress_SLASH	144	stimuli_distractor_diamondtriangles.svg	stimuli_distractor_trianglediamonds.svg	38	no	57	0	251
6.6.1	win	2022-12-14	14:20:53	14:27:46	412121	5da360b12e89480010ef417a	58534219	1	main_slash	7	main_slash	145	stimuli_distractor_diamondtriangles.svg	stimuli_target_squarediamonds.svg	16	yes	53	1	662
6.6.1	win	2022-12-14	14:20:53	14:27:46	412121	5da360b12e89480010ef417a	58534219	1	main_slash	7	advance_on_keypress_SLASH	146	stimuli_distractor_diamondtriangles.svg	stimuli_target_squarediamonds.svg	16	yes	57	0	307
6.6.1	win	2022-12-14	14:20:53	14:27:48	413905	5da360b12e89480010ef417a	58534219	1	main_slash	7	main_slash	147	stimuli_distractor_diamondtriangles.svg	stimuli_target_trianglecircles.svg	29	yes	53	1	863
6.6.1	win	2022-12-14	14:20:53	14:27:48	413905	5da360b12e89480010ef417a	58534219	1	main_slash	7	advance_on_keypress_SLASH	148	stimuli_distractor_diamondtriangles.svg	stimuli_target_trianglecircles.svg	29	yes	57	0	170
6.6.1	win	2022-12-14	14:20:53	14:27:51	416693	5da360b12e89480010ef417a	58534219	1	main_slash	7	main_slash	149	stimuli_distractor_diamondtriangles.svg	stimuli_target_trianglesquares.svg	30	yes	0	0	2000
6.6.1	win	2022-12-14	14:20:53	14:27:51	416693	5da360b12e89480010ef417a	58534219	1	main_slash	7	advance_on_keypress_SLASH	150	stimuli_distractor_diamondtriangles.svg	stimuli_target_trianglesquares.svg	30	yes	57	0	266
6.6.1	win	2022-12-14	14:20:53	14:27:52	418385	5da360b12e89480010ef417a	58534219	1	main_slash	7	main_slash	151	stimuli_distractor_diamondtriangles.svg	stimuli_target_diamondcircles.svg	31	yes	53	1	809
6.6.1	win	2022-12-14	14:20:53	14:27:52	418385	5da360b12e89480010ef417a	58534219	1	main_slash	7	advance_on_keypress_SLASH	152	stimuli_distractor_diamondtriangles.svg	stimuli_target_diamondcircles.svg	31	yes	57	0	232
6.6.1	win	2022-12-14	14:20:53	14:27:54	420149	5da360b12e89480010ef417a	58534219	1	main_slash	7	main_slash	153	stimuli_target_trianglecircles.svg	stimuli_distractor_trianglediamonds.svg	17	yes	53	1	917
6.6.1	win	2022-12-14	14:20:53	14:27:54	420149	5da360b12e89480010ef417a	58534219	1	main_slash	7	advance_on_keypress_SLASH	154	stimuli_target_trianglecircles.svg	stimuli_distractor_trianglediamonds.svg	17	yes	57	0	182
6.6.1	win	2022-12-14	14:20:53	14:27:56	421847	5da360b12e89480010ef417a	58534219	1	main_slash	7	main_slash	155	stimuli_distractor_trianglediamonds.svg	stimuli_target_squarediamonds.svg	12	yes	53	1	897
6.6.1	win	2022-12-14	14:20:53	14:27:56	421847	5da360b12e89480010ef417a	58534219	1	main_slash	7	advance_on_keypress_SLASH	156	stimuli_distractor_trianglediamonds.svg	stimuli_target_squarediamonds.svg	12	yes	57	0	422
6.6.1	win	2022-12-14	14:20:53	14:27:58	423846	5da360b12e89480010ef417a	58534219	1	main_slash	7	main_slash	157	stimuli_distractor_diamondtriangles.svg	stimuli_target_circletriangles.svg	13	yes	53	1	966
6.6.1	win	2022-12-14	14:20:53	14:27:58	423846	5da360b12e89480010ef417a	58534219	1	main_slash	7	advance_on_keypress_SLASH	158	stimuli_distractor_diamondtriangles.svg	stimuli_target_circletriangles.svg	13	yes	57	0	220
6.6.1	win	2022-12-14	14:20:53	14:28:00	425567	5da360b12e89480010ef417a	58534219	1	main_slash	7	main_slash	159	stimuli_target_diamondsquares.svg	stimuli_distractor_trianglediamonds.svg	20	yes	53	1	885
6.6.1	win	2022-12-14	14:20:53	14:28:00	425567	5da360b12e89480010ef417a	58534219	1	main_slash	7	advance_on_keypress_SLASH	160	stimuli_target_diamondsquares.svg	stimuli_distractor_trianglediamonds.svg	20	yes	57	0	185
6.6.1	win	2022-12-14	14:20:53	14:28:18	444371	5da360b12e89480010ef417a	58534219	1	practice_z	9	practice_z	1	stimuli_distractor_trianglediamonds.svg	stimuli_distractor_trianglediamonds.svg	15	no	0	1	2000
6.6.1	win	2022-12-14	14:20:53	14:28:18	444371	5da360b12e89480010ef417a	58534219	1	practice_z	9	advance_on_keypress_ZEE	2	stimuli_distractor_trianglediamonds.svg	stimuli_distractor_trianglediamonds.svg	15	no	57	0	333
6.6.1	win	2022-12-14	14:20:53	14:28:21	447178	5da360b12e89480010ef417a	58534219	1	practice_z	9	practice_z	3	stimuli_target_squarediamonds.svg	stimuli_distractor_diamondtriangles.svg	2	yes	44	1	856
6.6.1	win	2022-12-14	14:20:53	14:28:21	447178	5da360b12e89480010ef417a	58534219	1	practice_z	9	advance_on_keypress_ZEE	4	stimuli_target_squarediamonds.svg	stimuli_distractor_diamondtriangles.svg	2	yes	57	0	336
6.6.1	win	2022-12-14	14:20:53	14:28:24	450033	5da360b12e89480010ef417a	58534219	1	practice_z	9	practice_z	5	stimuli_distractor_trianglediamonds.svg	stimuli_target_circlediamonds.svg	10	yes	44	1	902
6.6.1	win	2022-12-14	14:20:53	14:28:24	450033	5da360b12e89480010ef417a	58534219	1	practice_z	9	advance_on_keypress_ZEE	6	stimuli_distractor_trianglediamonds.svg	stimuli_target_circlediamonds.svg	10	yes	57	0	211
6.6.1	win	2022-12-14	14:20:53	14:28:27	452607	5da360b12e89480010ef417a	58534219	1	practice_z	9	practice_z	7	stimuli_target_circlediamonds.svg	stimuli_distractor_diamondtriangles.svg	1	yes	44	1	745
6.6.1	win	2022-12-14	14:20:53	14:28:27	452607	5da360b12e89480010ef417a	58534219	1	practice_z	9	advance_on_keypress_ZEE	8	stimuli_target_circlediamonds.svg	stimuli_distractor_diamondtriangles.svg	1	yes	57	0	248
6.6.1	win	2022-12-14	14:20:53	14:28:29	455278	5da360b12e89480010ef417a	58534219	1	practice_z	9	practice_z	9	stimuli_distractor_diamondtriangles.svg	stimuli_target_trianglecircles.svg	9	yes	44	1	806
6.6.1	win	2022-12-14	14:20:53	14:28:29	455278	5da360b12e89480010ef417a	58534219	1	practice_z	9	advance_on_keypress_ZEE	10	stimuli_distractor_diamondtriangles.svg	stimuli_target_trianglecircles.svg	9	yes	57	0	228
6.6.1	win	2022-12-14	14:20:53	14:28:33	459124	5da360b12e89480010ef417a	58534219	1	practice_z	9	practice_z	11	stimuli_distractor_diamondtriangles.svg	stimuli_distractor_diamondtriangles.svg	13	no	0	1	2000
6.6.1	win	2022-12-14	14:20:53	14:28:33	459124	5da360b12e89480010ef417a	58534219	1	practice_z	9	advance_on_keypress_ZEE	12	stimuli_distractor_diamondtriangles.svg	stimuli_distractor_diamondtriangles.svg	13	no	57	0	190
6.6.1	win	2022-12-14	14:20:53	14:28:37	462929	5da360b12e89480010ef417a	58534219	1	practice_z	9	practice_z	13	stimuli_distractor_trianglediamonds.svg	stimuli_distractor_diamondtriangles.svg	16	no	0	1	2000
6.6.1	win	2022-12-14	14:20:53	14:28:37	462929	5da360b12e89480010ef417a	58534219	1	practice_z	9	advance_on_keypress_ZEE	14	stimuli_distractor_trianglediamonds.svg	stimuli_distractor_diamondtriangles.svg	16	no	57	0	274
6.6.1	win	2022-12-14	14:20:53	14:28:39	465235	5da360b12e89480010ef417a	58534219	1	practice_z	9	practice_z	15	stimuli_target_circlediamonds.svg	stimuli_distractor_trianglediamonds.svg	4	yes	44	1	416
6.6.1	win	2022-12-14	14:20:53	14:28:39	465235	5da360b12e89480010ef417a	58534219	1	practice_z	9	advance_on_keypress_ZEE	16	stimuli_target_circlediamonds.svg	stimuli_distractor_trianglediamonds.svg	4	yes	57	0	335
6.6.1	win	2022-12-14	14:20:53	14:28:42	467540	5da360b12e89480010ef417a	58534219	1	practice_z	9	practice_z	17	stimuli_distractor_diamondtriangles.svg	stimuli_target_diamondcircles.svg	8	yes	44	1	355
6.6.1	win	2022-12-14	14:20:53	14:28:42	467540	5da360b12e89480010ef417a	58534219	1	practice_z	9	advance_on_keypress_ZEE	18	stimuli_distractor_diamondtriangles.svg	stimuli_target_diamondcircles.svg	8	yes	57	0	213
6.6.1	win	2022-12-14	14:20:53	14:28:45	471370	5da360b12e89480010ef417a	58534219	1	practice_z	9	practice_z	19	stimuli_distractor_diamondtriangles.svg	stimuli_distractor_trianglediamonds.svg	14	no	0	1	2000
6.6.1	win	2022-12-14	14:20:53	14:28:45	471370	5da360b12e89480010ef417a	58534219	1	practice_z	9	advance_on_keypress_ZEE	20	stimuli_distractor_diamondtriangles.svg	stimuli_distractor_trianglediamonds.svg	14	no	57	0	727
6.6.1	win	2022-12-14	14:20:53	14:28:48	474140	5da360b12e89480010ef417a	58534219	1	practice_z	9	practice_z	21	stimuli_distractor_trianglediamonds.svg	stimuli_target_diamondcircles.svg	12	yes	44	1	425
6.6.1	win	2022-12-14	14:20:53	14:28:48	474140	5da360b12e89480010ef417a	58534219	1	practice_z	9	advance_on_keypress_ZEE	22	stimuli_distractor_trianglediamonds.svg	stimuli_target_diamondcircles.svg	12	yes	57	0	554
6.6.1	win	2022-12-14	14:20:53	14:28:51	477072	5da360b12e89480010ef417a	58534219	1	practice_z	9	practice_z	23	stimuli_target_diamondsquares.svg	stimuli_distractor_diamondtriangles.svg	3	yes	44	1	765
6.6.1	win	2022-12-14	14:20:53	14:28:51	477072	5da360b12e89480010ef417a	58534219	1	practice_z	9	advance_on_keypress_ZEE	24	stimuli_target_diamondsquares.svg	stimuli_distractor_diamondtriangles.svg	3	yes	57	0	262
6.6.1	win	2022-12-14	14:20:53	14:28:54	479635	5da360b12e89480010ef417a	58534219	1	practice_z	9	practice_z	25	stimuli_target_diamondsquares.svg	stimuli_distractor_trianglediamonds.svg	6	yes	44	1	688
6.6.1	win	2022-12-14	14:20:53	14:28:54	479635	5da360b12e89480010ef417a	58534219	1	practice_z	9	advance_on_keypress_ZEE	26	stimuli_target_diamondsquares.svg	stimuli_distractor_trianglediamonds.svg	6	yes	57	0	561
6.6.1	win	2022-12-14	14:20:53	14:28:57	482561	5da360b12e89480010ef417a	58534219	1	practice_z	9	practice_z	27	stimuli_target_squarediamonds.svg	stimuli_distractor_trianglediamonds.svg	5	yes	44	1	750
6.6.1	win	2022-12-14	14:20:53	14:28:57	482561	5da360b12e89480010ef417a	58534219	1	practice_z	9	advance_on_keypress_ZEE	28	stimuli_target_squarediamonds.svg	stimuli_distractor_trianglediamonds.svg	5	yes	57	0	260
6.6.1	win	2022-12-14	14:20:53	14:28:59	485032	5da360b12e89480010ef417a	58534219	1	practice_z	9	practice_z	29	stimuli_distractor_trianglediamonds.svg	stimuli_target_squarediamonds.svg	11	yes	44	1	593
6.6.1	win	2022-12-14	14:20:53	14:28:59	485032	5da360b12e89480010ef417a	58534219	1	practice_z	9	advance_on_keypress_ZEE	30	stimuli_distractor_trianglediamonds.svg	stimuli_target_squarediamonds.svg	11	yes	57	0	257
6.6.1	win	2022-12-14	14:20:53	14:29:02	487802	5da360b12e89480010ef417a	58534219	1	practice_z	9	practice_z	31	stimuli_distractor_diamondtriangles.svg	stimuli_target_circletriangles.svg	7	yes	44	1	900
6.6.1	win	2022-12-14	14:20:53	14:29:02	487802	5da360b12e89480010ef417a	58534219	1	practice_z	9	advance_on_keypress_ZEE	32	stimuli_distractor_diamondtriangles.svg	stimuli_target_circletriangles.svg	7	yes	57	0	813
6.6.1	win	2022-12-14	14:20:53	14:29:08	493548	5da360b12e89480010ef417a	58534219	1	main_z	11	main_z	1	stimuli_distractor_diamondtriangles.svg	stimuli_distractor_diamondtriangles.svg	40	no	44	0	855
6.6.1	win	2022-12-14	14:20:53	14:29:08	493548	5da360b12e89480010ef417a	58534219	1	main_z	11	advance_on_keypress_ZEE	2	stimuli_distractor_diamondtriangles.svg	stimuli_distractor_diamondtriangles.svg	40	no	57	0	548
6.6.1	win	2022-12-14	14:20:53	14:29:11	496714	5da360b12e89480010ef417a	58534219	1	main_z	11	main_z	3	stimuli_distractor_trianglediamonds.svg	stimuli_distractor_trianglediamonds.svg	33	no	0	1	2000
6.6.1	win	2022-12-14	14:20:53	14:29:11	496714	5da360b12e89480010ef417a	58534219	1	main_z	11	advance_on_keypress_ZEE	4	stimuli_distractor_trianglediamonds.svg	stimuli_distractor_trianglediamonds.svg	33	no	57	0	258
6.6.1	win	2022-12-14	14:20:53	14:29:12	498341	5da360b12e89480010ef417a	58534219	1	main_z	11	main_z	5	stimuli_distractor_diamondtriangles.svg	stimuli_target_diamondcircles.svg	31	yes	44	1	756
6.6.1	win	2022-12-14	14:20:53	14:29:12	498341	5da360b12e89480010ef417a	58534219	1	main_z	11	advance_on_keypress_ZEE	6	stimuli_distractor_diamondtriangles.svg	stimuli_target_diamondcircles.svg	31	yes	57	0	448
6.6.1	win	2022-12-14	14:20:53	14:29:14	500050	5da360b12e89480010ef417a	58534219	1	main_z	11	main_z	7	stimuli_distractor_trianglediamonds.svg	stimuli_target_diamondsquares.svg	28	yes	44	1	645
6.6.1	win	2022-12-14	14:20:53	14:29:14	500050	5da360b12e89480010ef417a	58534219	1	main_z	11	advance_on_keypress_ZEE	8	stimuli_distractor_trianglediamonds.svg	stimuli_target_diamondsquares.svg	28	yes	57	0	315
6.6.1	win	2022-12-14	14:20:53	14:29:16	501567	5da360b12e89480010ef417a	58534219	1	main_z	11	main_z	9	stimuli_target_circlediamonds.svg	stimuli_distractor_diamondtriangles.svg	6	yes	44	1	584
6.6.1	win	2022-12-14	14:20:53	14:29:16	501567	5da360b12e89480010ef417a	58534219	1	main_z	11	advance_on_keypress_ZEE	10	stimuli_target_circlediamonds.svg	stimuli_distractor_diamondtriangles.svg	6	yes	57	0	338
6.6.1	win	2022-12-14	14:20:53	14:29:17	503153	5da360b12e89480010ef417a	58534219	1	main_z	11	main_z	11	stimuli_target_trianglesquares.svg	stimuli_distractor_trianglediamonds.svg	18	yes	44	1	635
6.6.1	win	2022-12-14	14:20:53	14:29:17	503153	5da360b12e89480010ef417a	58534219	1	main_z	11	advance_on_keypress_ZEE	12	stimuli_target_trianglesquares.svg	stimuli_distractor_trianglediamonds.svg	18	yes	57	0	291
6.6.1	win	2022-12-14	14:20:53	14:29:19	504761	5da360b12e89480010ef417a	58534219	1	main_z	11	main_z	13	stimuli_target_diamondcircles.svg	stimuli_distractor_trianglediamonds.svg	19	yes	44	1	701
6.6.1	win	2022-12-14	14:20:53	14:29:19	504761	5da360b12e89480010ef417a	58534219	1	main_z	11	advance_on_keypress_ZEE	14	stimuli_target_diamondcircles.svg	stimuli_distractor_trianglediamonds.svg	19	yes	57	0	282
6.6.1	win	2022-12-14	14:20:53	14:29:22	507656	5da360b12e89480010ef417a	58534219	1	main_z	11	main_z	15	stimuli_distractor_trianglediamonds.svg	stimuli_distractor_diamondtriangles.svg	35	no	0	1	2000
6.6.1	win	2022-12-14	14:20:53	14:29:22	507656	5da360b12e89480010ef417a	58534219	1	main_z	11	advance_on_keypress_ZEE	16	stimuli_distractor_trianglediamonds.svg	stimuli_distractor_diamondtriangles.svg	35	no	57	0	264
6.6.1	win	2022-12-14	14:20:53	14:29:23	509079	5da360b12e89480010ef417a	58534219	1	main_z	11	main_z	17	stimuli_distractor_trianglediamonds.svg	stimuli_target_trianglesquares.svg	26	yes	44	1	547
6.6.1	win	2022-12-14	14:20:53	14:29:23	509079	5da360b12e89480010ef417a	58534219	1	main_z	11	advance_on_keypress_ZEE	18	stimuli_distractor_trianglediamonds.svg	stimuli_target_trianglesquares.svg	26	yes	57	0	353
6.6.1	win	2022-12-14	14:20:53	14:29:25	510550	5da360b12e89480010ef417a	58534219	1	main_z	11	main_z	19	stimuli_target_squarediamonds.svg	stimuli_distractor_diamondtriangles.svg	8	yes	44	1	500
6.6.1	win	2022-12-14	14:20:53	14:29:25	510550	5da360b12e89480010ef417a	58534219	1	main_z	11	advance_on_keypress_ZEE	20	stimuli_target_squarediamonds.svg	stimuli_distractor_diamondtriangles.svg	8	yes	57	0	273
6.6.1	win	2022-12-14	14:20:53	14:29:26	511854	5da360b12e89480010ef417a	58534219	1	main_z	11	main_z	21	stimuli_target_diamondsquares.svg	stimuli_distractor_diamondtriangles.svg	24	yes	44	1	415
6.6.1	win	2022-12-14	14:20:53	14:29:26	511854	5da360b12e89480010ef417a	58534219	1	main_z	11	advance_on_keypress_ZEE	22	stimuli_target_diamondsquares.svg	stimuli_distractor_diamondtriangles.svg	24	yes	57	0	399
6.6.1	win	2022-12-14	14:20:53	14:29:27	513344	5da360b12e89480010ef417a	58534219	1	main_z	11	main_z	23	stimuli_target_circletriangles.svg	stimuli_distractor_diamondtriangles.svg	5	yes	44	1	479
6.6.1	win	2022-12-14	14:20:53	14:29:27	513344	5da360b12e89480010ef417a	58534219	1	main_z	11	advance_on_keypress_ZEE	24	stimuli_target_circletriangles.svg	stimuli_distractor_diamondtriangles.svg	5	yes	57	0	267
6.6.1	win	2022-12-14	14:20:53	14:29:29	514608	5da360b12e89480010ef417a	58534219	1	main_z	11	main_z	25	stimuli_distractor_trianglediamonds.svg	stimuli_target_squarediamonds.svg	12	yes	44	1	382
6.6.1	win	2022-12-14	14:20:53	14:29:29	514608	5da360b12e89480010ef417a	58534219	1	main_z	11	advance_on_keypress_ZEE	26	stimuli_distractor_trianglediamonds.svg	stimuli_target_squarediamonds.svg	12	yes	57	0	273
6.6.1	win	2022-12-14	14:20:53	14:29:30	515905	5da360b12e89480010ef417a	58534219	1	main_z	11	main_z	27	stimuli_target_trianglecircles.svg	stimuli_distractor_trianglediamonds.svg	17	yes	44	1	406
6.6.1	win	2022-12-14	14:20:53	14:29:30	515905	5da360b12e89480010ef417a	58534219	1	main_z	11	advance_on_keypress_ZEE	28	stimuli_target_trianglecircles.svg	stimuli_distractor_trianglediamonds.svg	17	yes	57	0	313
6.6.1	win	2022-12-14	14:20:53	14:29:31	517163	5da360b12e89480010ef417a	58534219	1	main_z	11	main_z	29	stimuli_distractor_trianglediamonds.svg	stimuli_target_trianglecircles.svg	25	yes	44	1	335
6.6.1	win	2022-12-14	14:20:53	14:29:31	517163	5da360b12e89480010ef417a	58534219	1	main_z	11	advance_on_keypress_ZEE	30	stimuli_distractor_trianglediamonds.svg	stimuli_target_trianglecircles.svg	25	yes	57	0	257
6.6.1	win	2022-12-14	14:20:53	14:29:33	518501	5da360b12e89480010ef417a	58534219	1	main_z	11	main_z	31	stimuli_distractor_diamondtriangles.svg	stimuli_target_squaretriangles.svg	15	yes	44	1	465
6.6.1	win	2022-12-14	14:20:53	14:29:33	518501	5da360b12e89480010ef417a	58534219	1	main_z	11	advance_on_keypress_ZEE	32	stimuli_distractor_diamondtriangles.svg	stimuli_target_squaretriangles.svg	15	yes	57	0	222
6.6.1	win	2022-12-14	14:20:53	14:29:34	519716	5da360b12e89480010ef417a	58534219	1	main_z	11	main_z	33	stimuli_target_squaretriangles.svg	stimuli_distractor_trianglediamonds.svg	3	yes	44	1	381
6.6.1	win	2022-12-14	14:20:53	14:29:34	519716	5da360b12e89480010ef417a	58534219	1	main_z	11	advance_on_keypress_ZEE	34	stimuli_target_squaretriangles.svg	stimuli_distractor_trianglediamonds.svg	3	yes	57	0	226
6.6.1	win	2022-12-14	14:20:53	14:29:35	520977	5da360b12e89480010ef417a	58534219	1	main_z	11	main_z	35	stimuli_target_trianglesquares.svg	stimuli_distractor_diamondtriangles.svg	22	yes	44	1	423
6.6.1	win	2022-12-14	14:20:53	14:29:35	520977	5da360b12e89480010ef417a	58534219	1	main_z	11	advance_on_keypress_ZEE	36	stimuli_target_trianglesquares.svg	stimuli_distractor_diamondtriangles.svg	22	yes	57	0	235
6.6.1	win	2022-12-14	14:20:53	14:29:36	522221	5da360b12e89480010ef417a	58534219	1	main_z	11	main_z	37	stimuli_distractor_trianglediamonds.svg	stimuli_target_diamondcircles.svg	27	yes	44	1	398
6.6.1	win	2022-12-14	14:20:53	14:29:36	522221	5da360b12e89480010ef417a	58534219	1	main_z	11	advance_on_keypress_ZEE	38	stimuli_distractor_trianglediamonds.svg	stimuli_target_diamondcircles.svg	27	yes	57	0	210
6.6.1	win	2022-12-14	14:20:53	14:29:37	523398	5da360b12e89480010ef417a	58534219	1	main_z	11	main_z	39	stimuli_distractor_diamondtriangles.svg	stimuli_target_circlediamonds.svg	14	yes	44	1	355
6.6.1	win	2022-12-14	14:20:53	14:29:37	523398	5da360b12e89480010ef417a	58534219	1	main_z	11	advance_on_keypress_ZEE	40	stimuli_distractor_diamondtriangles.svg	stimuli_target_circlediamonds.svg	14	yes	57	0	240
6.6.1	win	2022-12-14	14:20:53	14:29:40	526250	5da360b12e89480010ef417a	58534219	1	main_z	11	main_z	41	stimuli_distractor_diamondtriangles.svg	stimuli_target_circletriangles.svg	13	yes	0	0	2000
6.6.1	win	2022-12-14	14:20:53	14:29:40	526250	5da360b12e89480010ef417a	58534219	1	main_z	11	advance_on_keypress_ZEE	42	stimuli_distractor_diamondtriangles.svg	stimuli_target_circletriangles.svg	13	yes	57	0	262
6.6.1	win	2022-12-14	14:20:53	14:29:42	527477	5da360b12e89480010ef417a	58534219	1	main_z	11	main_z	43	stimuli_distractor_diamondtriangles.svg	stimuli_target_diamondsquares.svg	32	yes	44	1	350
6.6.1	win	2022-12-14	14:20:53	14:29:42	527477	5da360b12e89480010ef417a	58534219	1	main_z	11	advance_on_keypress_ZEE	44	stimuli_distractor_diamondtriangles.svg	stimuli_target_diamondsquares.svg	32	yes	57	0	264
6.6.1	win	2022-12-14	14:20:53	14:29:43	528726	5da360b12e89480010ef417a	58534219	1	main_z	11	main_z	45	stimuli_target_circletriangles.svg	stimuli_distractor_trianglediamonds.svg	1	yes	44	1	373
6.6.1	win	2022-12-14	14:20:53	14:29:43	528726	5da360b12e89480010ef417a	58534219	1	main_z	11	advance_on_keypress_ZEE	46	stimuli_target_circletriangles.svg	stimuli_distractor_trianglediamonds.svg	1	yes	57	0	203
6.6.1	win	2022-12-14	14:20:53	14:29:44	529900	5da360b12e89480010ef417a	58534219	1	main_z	11	main_z	47	stimuli_distractor_diamondtriangles.svg	stimuli_target_trianglesquares.svg	30	yes	44	1	358
6.6.1	win	2022-12-14	14:20:53	14:29:44	529900	5da360b12e89480010ef417a	58534219	1	main_z	11	advance_on_keypress_ZEE	48	stimuli_distractor_diamondtriangles.svg	stimuli_target_trianglesquares.svg	30	yes	57	0	262
6.6.1	win	2022-12-14	14:20:53	14:29:45	531102	5da360b12e89480010ef417a	58534219	1	main_z	11	main_z	49	stimuli_target_squarediamonds.svg	stimuli_distractor_trianglediamonds.svg	4	yes	44	1	322
6.6.1	win	2022-12-14	14:20:53	14:29:45	531102	5da360b12e89480010ef417a	58534219	1	main_z	11	advance_on_keypress_ZEE	50	stimuli_target_squarediamonds.svg	stimuli_distractor_trianglediamonds.svg	4	yes	57	0	234
6.6.1	win	2022-12-14	14:20:53	14:29:46	532231	5da360b12e89480010ef417a	58534219	1	main_z	11	main_z	51	stimuli_target_diamondcircles.svg	stimuli_distractor_diamondtriangles.svg	23	yes	44	1	280
6.6.1	win	2022-12-14	14:20:53	14:29:46	532231	5da360b12e89480010ef417a	58534219	1	main_z	11	advance_on_keypress_ZEE	52	stimuli_target_diamondcircles.svg	stimuli_distractor_diamondtriangles.svg	23	yes	57	0	244
6.6.1	win	2022-12-14	14:20:53	14:29:48	533459	5da360b12e89480010ef417a	58534219	1	main_z	11	main_z	53	stimuli_distractor_trianglediamonds.svg	stimuli_target_squaretriangles.svg	11	yes	44	1	367
6.6.1	win	2022-12-14	14:20:53	14:29:48	533459	5da360b12e89480010ef417a	58534219	1	main_z	11	advance_on_keypress_ZEE	54	stimuli_distractor_trianglediamonds.svg	stimuli_target_squaretriangles.svg	11	yes	57	0	247
6.6.1	win	2022-12-14	14:20:53	14:29:49	534647	5da360b12e89480010ef417a	58534219	1	main_z	11	main_z	55	stimuli_target_circlediamonds.svg	stimuli_distractor_trianglediamonds.svg	2	yes	44	1	329
6.6.1	win	2022-12-14	14:20:53	14:29:49	534647	5da360b12e89480010ef417a	58534219	1	main_z	11	advance_on_keypress_ZEE	56	stimuli_target_circlediamonds.svg	stimuli_distractor_trianglediamonds.svg	2	yes	57	0	233
6.6.1	win	2022-12-14	14:20:53	14:29:50	535840	5da360b12e89480010ef417a	58534219	1	main_z	11	main_z	57	stimuli_distractor_trianglediamonds.svg	stimuli_target_circlediamonds.svg	10	yes	44	1	345
6.6.1	win	2022-12-14	14:20:53	14:29:50	535840	5da360b12e89480010ef417a	58534219	1	main_z	11	advance_on_keypress_ZEE	58	stimuli_distractor_trianglediamonds.svg	stimuli_target_circlediamonds.svg	10	yes	57	0	259
6.6.1	win	2022-12-14	14:20:53	14:29:51	537057	5da360b12e89480010ef417a	58534219	1	main_z	11	main_z	59	stimuli_target_diamondsquares.svg	stimuli_distractor_trianglediamonds.svg	20	yes	44	1	348
6.6.1	win	2022-12-14	14:20:53	14:29:51	537057	5da360b12e89480010ef417a	58534219	1	main_z	11	advance_on_keypress_ZEE	60	stimuli_target_diamondsquares.svg	stimuli_distractor_trianglediamonds.svg	20	yes	57	0	259
6.6.1	win	2022-12-14	14:20:53	14:29:52	538259	5da360b12e89480010ef417a	58534219	1	main_z	11	main_z	61	stimuli_target_trianglecircles.svg	stimuli_distractor_diamondtriangles.svg	21	yes	44	1	330
6.6.1	win	2022-12-14	14:20:53	14:29:52	538259	5da360b12e89480010ef417a	58534219	1	main_z	11	advance_on_keypress_ZEE	62	stimuli_target_trianglecircles.svg	stimuli_distractor_diamondtriangles.svg	21	yes	57	0	248
6.6.1	win	2022-12-14	14:20:53	14:29:55	541118	5da360b12e89480010ef417a	58534219	1	main_z	11	main_z	63	stimuli_distractor_diamondtriangles.svg	stimuli_distractor_diamondtriangles.svg	39	no	0	1	2000
6.6.1	win	2022-12-14	14:20:53	14:29:55	541118	5da360b12e89480010ef417a	58534219	1	main_z	11	advance_on_keypress_ZEE	64	stimuli_distractor_diamondtriangles.svg	stimuli_distractor_diamondtriangles.svg	39	no	57	0	262
6.6.1	win	2022-12-14	14:20:53	14:29:57	542932	5da360b12e89480010ef417a	58534219	1	main_z	11	main_z	65	stimuli_distractor_diamondtriangles.svg	stimuli_distractor_trianglediamonds.svg	37	no	44	0	937
6.6.1	win	2022-12-14	14:20:53	14:29:57	542932	5da360b12e89480010ef417a	58534219	1	main_z	11	advance_on_keypress_ZEE	66	stimuli_distractor_diamondtriangles.svg	stimuli_distractor_trianglediamonds.svg	37	no	57	0	232
6.6.1	win	2022-12-14	14:20:53	14:30:00	545779	5da360b12e89480010ef417a	58534219	1	main_z	11	main_z	67	stimuli_distractor_trianglediamonds.svg	stimuli_distractor_diamondtriangles.svg	36	no	0	1	2000
6.6.1	win	2022-12-14	14:20:53	14:30:00	545779	5da360b12e89480010ef417a	58534219	1	main_z	11	advance_on_keypress_ZEE	68	stimuli_distractor_trianglediamonds.svg	stimuli_distractor_diamondtriangles.svg	36	no	57	0	248
6.6.1	win	2022-12-14	14:20:53	14:30:01	546978	5da360b12e89480010ef417a	58534219	1	main_z	11	main_z	69	stimuli_distractor_trianglediamonds.svg	stimuli_target_circletriangles.svg	9	yes	44	1	334
6.6.1	win	2022-12-14	14:20:53	14:30:01	546978	5da360b12e89480010ef417a	58534219	1	main_z	11	advance_on_keypress_ZEE	70	stimuli_distractor_trianglediamonds.svg	stimuli_target_circletriangles.svg	9	yes	57	0	239
6.6.1	win	2022-12-14	14:20:53	14:30:02	548387	5da360b12e89480010ef417a	58534219	1	main_z	11	main_z	71	stimuli_distractor_diamondtriangles.svg	stimuli_target_trianglecircles.svg	29	yes	44	1	554
6.6.1	win	2022-12-14	14:20:53	14:30:02	548387	5da360b12e89480010ef417a	58534219	1	main_z	11	advance_on_keypress_ZEE	72	stimuli_distractor_diamondtriangles.svg	stimuli_target_trianglecircles.svg	29	yes	57	0	222
6.6.1	win	2022-12-14	14:20:53	14:30:04	549587	5da360b12e89480010ef417a	58534219	1	main_z	11	main_z	73	stimuli_target_squaretriangles.svg	stimuli_distractor_diamondtriangles.svg	7	yes	44	1	364
6.6.1	win	2022-12-14	14:20:53	14:30:04	549587	5da360b12e89480010ef417a	58534219	1	main_z	11	advance_on_keypress_ZEE	74	stimuli_target_squaretriangles.svg	stimuli_distractor_diamondtriangles.svg	7	yes	57	0	246
6.6.1	win	2022-12-14	14:20:53	14:30:05	550860	5da360b12e89480010ef417a	58534219	1	main_z	11	main_z	75	stimuli_distractor_diamondtriangles.svg	stimuli_target_squarediamonds.svg	16	yes	44	1	411
6.6.1	win	2022-12-14	14:20:53	14:30:05	550860	5da360b12e89480010ef417a	58534219	1	main_z	11	advance_on_keypress_ZEE	76	stimuli_distractor_diamondtriangles.svg	stimuli_target_squarediamonds.svg	16	yes	57	0	234
6.6.1	win	2022-12-14	14:20:53	14:30:08	553705	5da360b12e89480010ef417a	58534219	1	main_z	11	main_z	77	stimuli_distractor_diamondtriangles.svg	stimuli_distractor_trianglediamonds.svg	38	no	0	1	2000
6.6.1	win	2022-12-14	14:20:53	14:30:08	553705	5da360b12e89480010ef417a	58534219	1	main_z	11	advance_on_keypress_ZEE	78	stimuli_distractor_diamondtriangles.svg	stimuli_distractor_trianglediamonds.svg	38	no	57	0	241
6.6.1	win	2022-12-14	14:20:53	14:30:11	556557	5da360b12e89480010ef417a	58534219	1	main_z	11	main_z	79	stimuli_distractor_trianglediamonds.svg	stimuli_distractor_trianglediamonds.svg	34	no	0	1	2000
6.6.1	win	2022-12-14	14:20:53	14:30:11	556557	5da360b12e89480010ef417a	58534219	1	main_z	11	advance_on_keypress_ZEE	80	stimuli_distractor_trianglediamonds.svg	stimuli_distractor_trianglediamonds.svg	34	no	57	0	126
6.6.1	win	2022-12-14	14:20:53	14:30:12	557658	5da360b12e89480010ef417a	58534219	1	main_z	11	main_z	81	stimuli_distractor_trianglediamonds.svg	stimuli_target_squarediamonds.svg	12	yes	44	1	358
6.6.1	win	2022-12-14	14:20:53	14:30:12	557658	5da360b12e89480010ef417a	58534219	1	main_z	11	advance_on_keypress_ZEE	82	stimuli_distractor_trianglediamonds.svg	stimuli_target_squarediamonds.svg	12	yes	57	0	226
6.6.1	win	2022-12-14	14:20:53	14:30:13	559026	5da360b12e89480010ef417a	58534219	1	main_z	11	main_z	83	stimuli_distractor_diamondtriangles.svg	stimuli_target_diamondsquares.svg	32	yes	44	1	524
6.6.1	win	2022-12-14	14:20:53	14:30:13	559026	5da360b12e89480010ef417a	58534219	1	main_z	11	advance_on_keypress_ZEE	84	stimuli_distractor_diamondtriangles.svg	stimuli_target_diamondsquares.svg	32	yes	57	0	221
6.6.1	win	2022-12-14	14:20:53	14:30:16	561861	5da360b12e89480010ef417a	58534219	1	main_z	11	main_z	85	stimuli_distractor_trianglediamonds.svg	stimuli_distractor_trianglediamonds.svg	33	no	0	1	2000
6.6.1	win	2022-12-14	14:20:53	14:30:16	561861	5da360b12e89480010ef417a	58534219	1	main_z	11	advance_on_keypress_ZEE	86	stimuli_distractor_trianglediamonds.svg	stimuli_distractor_trianglediamonds.svg	33	no	57	0	596
6.6.1	win	2022-12-14	14:20:53	14:30:17	563422	5da360b12e89480010ef417a	58534219	1	main_z	11	main_z	87	stimuli_distractor_trianglediamonds.svg	stimuli_target_trianglecircles.svg	25	yes	44	1	351
6.6.1	win	2022-12-14	14:20:53	14:30:17	563422	5da360b12e89480010ef417a	58534219	1	main_z	11	advance_on_keypress_ZEE	88	stimuli_distractor_trianglediamonds.svg	stimuli_target_trianglecircles.svg	25	yes	57	0	222
6.6.1	win	2022-12-14	14:20:53	14:30:19	564694	5da360b12e89480010ef417a	58534219	1	main_z	11	main_z	89	stimuli_target_squaretriangles.svg	stimuli_distractor_trianglediamonds.svg	3	yes	44	1	439
6.6.1	win	2022-12-14	14:20:53	14:30:19	564694	5da360b12e89480010ef417a	58534219	1	main_z	11	advance_on_keypress_ZEE	90	stimuli_target_squaretriangles.svg	stimuli_distractor_trianglediamonds.svg	3	yes	57	0	219
6.6.1	win	2022-12-14	14:20:53	14:30:20	565906	5da360b12e89480010ef417a	58534219	1	main_z	11	main_z	91	stimuli_distractor_trianglediamonds.svg	stimuli_target_circletriangles.svg	9	yes	44	1	377
6.6.1	win	2022-12-14	14:20:53	14:30:20	565906	5da360b12e89480010ef417a	58534219	1	main_z	11	advance_on_keypress_ZEE	92	stimuli_distractor_trianglediamonds.svg	stimuli_target_circletriangles.svg	9	yes	57	0	249
6.6.1	win	2022-12-14	14:20:53	14:30:21	567144	5da360b12e89480010ef417a	58534219	1	main_z	11	main_z	93	stimuli_target_diamondcircles.svg	stimuli_distractor_trianglediamonds.svg	19	yes	44	1	371
6.6.1	win	2022-12-14	14:20:53	14:30:21	567144	5da360b12e89480010ef417a	58534219	1	main_z	11	advance_on_keypress_ZEE	94	stimuli_target_diamondcircles.svg	stimuli_distractor_trianglediamonds.svg	19	yes	57	0	208
6.6.1	win	2022-12-14	14:20:53	14:30:23	568471	5da360b12e89480010ef417a	58534219	1	main_z	11	main_z	95	stimuli_target_squarediamonds.svg	stimuli_distractor_diamondtriangles.svg	8	yes	44	1	502
6.6.1	win	2022-12-14	14:20:53	14:30:23	568471	5da360b12e89480010ef417a	58534219	1	main_z	11	advance_on_keypress_ZEE	96	stimuli_target_squarediamonds.svg	stimuli_distractor_diamondtriangles.svg	8	yes	57	0	221
6.6.1	win	2022-12-14	14:20:53	14:30:24	569670	5da360b12e89480010ef417a	58534219	1	main_z	11	main_z	97	stimuli_distractor_trianglediamonds.svg	stimuli_target_diamondcircles.svg	27	yes	44	1	366
6.6.1	win	2022-12-14	14:20:53	14:30:24	569670	5da360b12e89480010ef417a	58534219	1	main_z	11	advance_on_keypress_ZEE	98	stimuli_distractor_trianglediamonds.svg	stimuli_target_diamondcircles.svg	27	yes	57	0	231
6.6.1	win	2022-12-14	14:20:53	14:30:25	570878	5da360b12e89480010ef417a	58534219	1	main_z	11	main_z	99	stimuli_distractor_trianglediamonds.svg	stimuli_target_diamondsquares.svg	28	yes	44	1	360
6.6.1	win	2022-12-14	14:20:53	14:30:25	570878	5da360b12e89480010ef417a	58534219	1	main_z	11	advance_on_keypress_ZEE	100	stimuli_distractor_trianglediamonds.svg	stimuli_target_diamondsquares.svg	28	yes	57	0	206
6.6.1	win	2022-12-14	14:20:53	14:30:26	572166	5da360b12e89480010ef417a	58534219	1	main_z	11	main_z	101	stimuli_target_circletriangles.svg	stimuli_distractor_trianglediamonds.svg	1	yes	44	1	465
6.6.1	win	2022-12-14	14:20:53	14:30:26	572166	5da360b12e89480010ef417a	58534219	1	main_z	11	advance_on_keypress_ZEE	102	stimuli_target_circletriangles.svg	stimuli_distractor_trianglediamonds.svg	1	yes	57	0	196
6.6.1	win	2022-12-14	14:20:53	14:30:27	573380	5da360b12e89480010ef417a	58534219	1	main_z	11	main_z	103	stimuli_target_diamondsquares.svg	stimuli_distractor_diamondtriangles.svg	24	yes	44	1	405
6.6.1	win	2022-12-14	14:20:53	14:30:27	573380	5da360b12e89480010ef417a	58534219	1	main_z	11	advance_on_keypress_ZEE	104	stimuli_target_diamondsquares.svg	stimuli_distractor_diamondtriangles.svg	24	yes	57	0	238
6.6.1	win	2022-12-14	14:20:53	14:30:29	574628	5da360b12e89480010ef417a	58534219	1	main_z	11	main_z	105	stimuli_target_squarediamonds.svg	stimuli_distractor_trianglediamonds.svg	4	yes	44	1	396
6.6.1	win	2022-12-14	14:20:53	14:30:29	574628	5da360b12e89480010ef417a	58534219	1	main_z	11	advance_on_keypress_ZEE	106	stimuli_target_squarediamonds.svg	stimuli_distractor_trianglediamonds.svg	4	yes	57	0	205
6.6.1	win	2022-12-14	14:20:53	14:30:30	576115	5da360b12e89480010ef417a	58534219	1	main_z	11	main_z	107	stimuli_distractor_diamondtriangles.svg	stimuli_target_circlediamonds.svg	14	yes	44	1	664
6.6.1	win	2022-12-14	14:20:53	14:30:30	576115	5da360b12e89480010ef417a	58534219	1	main_z	11	advance_on_keypress_ZEE	108	stimuli_distractor_diamondtriangles.svg	stimuli_target_circlediamonds.svg	14	yes	57	0	167
6.6.1	win	2022-12-14	14:20:53	14:30:31	577274	5da360b12e89480010ef417a	58534219	1	main_z	11	main_z	109	stimuli_target_diamondcircles.svg	stimuli_distractor_diamondtriangles.svg	23	yes	44	1	378
6.6.1	win	2022-12-14	14:20:53	14:30:31	577274	5da360b12e89480010ef417a	58534219	1	main_z	11	advance_on_keypress_ZEE	110	stimuli_target_diamondcircles.svg	stimuli_distractor_diamondtriangles.svg	23	yes	57	0	203
6.6.1	win	2022-12-14	14:20:53	14:30:34	580091	5da360b12e89480010ef417a	58534219	1	main_z	11	main_z	111	stimuli_distractor_diamondtriangles.svg	stimuli_distractor_diamondtriangles.svg	40	no	0	1	2000
6.6.1	win	2022-12-14	14:20:53	14:30:34	580091	5da360b12e89480010ef417a	58534219	1	main_z	11	advance_on_keypress_ZEE	112	stimuli_distractor_diamondtriangles.svg	stimuli_distractor_diamondtriangles.svg	40	no	57	0	226
6.6.1	win	2022-12-14	14:20:53	14:30:35	581248	5da360b12e89480010ef417a	58534219	1	main_z	11	main_z	113	stimuli_distractor_diamondtriangles.svg	stimuli_distractor_trianglediamonds.svg	37	no	44	0	317
6.6.1	win	2022-12-14	14:20:53	14:30:35	581248	5da360b12e89480010ef417a	58534219	1	main_z	11	advance_on_keypress_ZEE	114	stimuli_distractor_diamondtriangles.svg	stimuli_distractor_trianglediamonds.svg	37	no	57	0	227
6.6.1	win	2022-12-14	14:20:53	14:30:37	582470	5da360b12e89480010ef417a	58534219	1	main_z	11	main_z	115	stimuli_distractor_trianglediamonds.svg	stimuli_distractor_diamondtriangles.svg	35	no	44	0	380
6.6.1	win	2022-12-14	14:20:53	14:30:37	582470	5da360b12e89480010ef417a	58534219	1	main_z	11	advance_on_keypress_ZEE	116	stimuli_distractor_trianglediamonds.svg	stimuli_distractor_diamondtriangles.svg	35	no	57	0	245
6.6.1	win	2022-12-14	14:20:53	14:30:38	583698	5da360b12e89480010ef417a	58534219	1	main_z	11	main_z	117	stimuli_distractor_trianglediamonds.svg	stimuli_distractor_diamondtriangles.svg	36	no	44	0	370
6.6.1	win	2022-12-14	14:20:53	14:30:38	583698	5da360b12e89480010ef417a	58534219	1	main_z	11	advance_on_keypress_ZEE	118	stimuli_distractor_trianglediamonds.svg	stimuli_distractor_diamondtriangles.svg	36	no	57	0	234
6.6.1	win	2022-12-14	14:20:53	14:30:39	584882	5da360b12e89480010ef417a	58534219	1	main_z	11	main_z	119	stimuli_distractor_diamondtriangles.svg	stimuli_target_circletriangles.svg	13	yes	44	1	340
6.6.1	win	2022-12-14	14:20:53	14:30:39	584882	5da360b12e89480010ef417a	58534219	1	main_z	11	advance_on_keypress_ZEE	120	stimuli_distractor_diamondtriangles.svg	stimuli_target_circletriangles.svg	13	yes	57	0	217
6.6.1	win	2022-12-14	14:20:53	14:30:42	587714	5da360b12e89480010ef417a	58534219	1	main_z	11	main_z	121	stimuli_distractor_diamondtriangles.svg	stimuli_distractor_diamondtriangles.svg	39	no	0	1	2000
6.6.1	win	2022-12-14	14:20:53	14:30:42	587714	5da360b12e89480010ef417a	58534219	1	main_z	11	advance_on_keypress_ZEE	122	stimuli_distractor_diamondtriangles.svg	stimuli_distractor_diamondtriangles.svg	39	no	57	0	249
6.6.1	win	2022-12-14	14:20:53	14:30:43	588908	5da360b12e89480010ef417a	58534219	1	main_z	11	main_z	123	stimuli_distractor_trianglediamonds.svg	stimuli_target_circlediamonds.svg	10	yes	44	1	330
6.6.1	win	2022-12-14	14:20:53	14:30:43	588908	5da360b12e89480010ef417a	58534219	1	main_z	11	advance_on_keypress_ZEE	124	stimuli_distractor_trianglediamonds.svg	stimuli_target_circlediamonds.svg	10	yes	57	0	226
6.6.1	win	2022-12-14	14:20:53	14:30:44	590057	5da360b12e89480010ef417a	58534219	1	main_z	11	main_z	125	stimuli_distractor_diamondtriangles.svg	stimuli_distractor_trianglediamonds.svg	38	no	44	0	308
6.6.1	win	2022-12-14	14:20:53	14:30:44	590057	5da360b12e89480010ef417a	58534219	1	main_z	11	advance_on_keypress_ZEE	126	stimuli_distractor_diamondtriangles.svg	stimuli_distractor_trianglediamonds.svg	38	no	57	0	234
6.6.1	win	2022-12-14	14:20:53	14:30:45	591238	5da360b12e89480010ef417a	58534219	1	main_z	11	main_z	127	stimuli_target_circlediamonds.svg	stimuli_distractor_diamondtriangles.svg	6	yes	44	1	336
6.6.1	win	2022-12-14	14:20:53	14:30:45	591238	5da360b12e89480010ef417a	58534219	1	main_z	11	advance_on_keypress_ZEE	128	stimuli_target_circlediamonds.svg	stimuli_distractor_diamondtriangles.svg	6	yes	57	0	222
6.6.1	win	2022-12-14	14:20:53	14:30:48	594074	5da360b12e89480010ef417a	58534219	1	main_z	11	main_z	129	stimuli_distractor_trianglediamonds.svg	stimuli_distractor_trianglediamonds.svg	34	no	0	1	2000
6.6.1	win	2022-12-14	14:20:53	14:30:48	594074	5da360b12e89480010ef417a	58534219	1	main_z	11	advance_on_keypress_ZEE	130	stimuli_distractor_trianglediamonds.svg	stimuli_distractor_trianglediamonds.svg	34	no	57	0	208
6.6.1	win	2022-12-14	14:20:53	14:30:49	595273	5da360b12e89480010ef417a	58534219	1	main_z	11	main_z	131	stimuli_target_trianglecircles.svg	stimuli_distractor_trianglediamonds.svg	17	yes	44	1	378
6.6.1	win	2022-12-14	14:20:53	14:30:49	595273	5da360b12e89480010ef417a	58534219	1	main_z	11	advance_on_keypress_ZEE	132	stimuli_target_trianglecircles.svg	stimuli_distractor_trianglediamonds.svg	17	yes	57	0	190
6.6.1	win	2022-12-14	14:20:53	14:30:51	596463	5da360b12e89480010ef417a	58534219	1	main_z	11	main_z	133	stimuli_distractor_diamondtriangles.svg	stimuli_target_squarediamonds.svg	16	yes	44	1	384
6.6.1	win	2022-12-14	14:20:53	14:30:51	596463	5da360b12e89480010ef417a	58534219	1	main_z	11	advance_on_keypress_ZEE	134	stimuli_distractor_diamondtriangles.svg	stimuli_target_squarediamonds.svg	16	yes	57	0	196
6.6.1	win	2022-12-14	14:20:53	14:30:52	597601	5da360b12e89480010ef417a	58534219	1	main_z	11	main_z	135	stimuli_distractor_trianglediamonds.svg	stimuli_target_squaretriangles.svg	11	yes	44	1	327
6.6.1	win	2022-12-14	14:20:53	14:30:52	597601	5da360b12e89480010ef417a	58534219	1	main_z	11	advance_on_keypress_ZEE	136	stimuli_distractor_trianglediamonds.svg	stimuli_target_squaretriangles.svg	11	yes	57	0	201
6.6.1	win	2022-12-14	14:20:53	14:30:53	598753	5da360b12e89480010ef417a	58534219	1	main_z	11	main_z	137	stimuli_target_squaretriangles.svg	stimuli_distractor_diamondtriangles.svg	7	yes	44	1	338
6.6.1	win	2022-12-14	14:20:53	14:30:53	598753	5da360b12e89480010ef417a	58534219	1	main_z	11	advance_on_keypress_ZEE	138	stimuli_target_squaretriangles.svg	stimuli_distractor_diamondtriangles.svg	7	yes	57	0	198
6.6.1	win	2022-12-14	14:20:53	14:30:54	599846	5da360b12e89480010ef417a	58534219	1	main_z	11	main_z	139	stimuli_target_circlediamonds.svg	stimuli_distractor_trianglediamonds.svg	2	yes	44	1	284
6.6.1	win	2022-12-14	14:20:53	14:30:54	599846	5da360b12e89480010ef417a	58534219	1	main_z	11	advance_on_keypress_ZEE	140	stimuli_target_circlediamonds.svg	stimuli_distractor_trianglediamonds.svg	2	yes	57	0	181
6.6.1	win	2022-12-14	14:20:53	14:30:55	600941	5da360b12e89480010ef417a	58534219	1	main_z	11	main_z	141	stimuli_target_trianglecircles.svg	stimuli_distractor_diamondtriangles.svg	21	yes	44	1	299
6.6.1	win	2022-12-14	14:20:53	14:30:55	600941	5da360b12e89480010ef417a	58534219	1	main_z	11	advance_on_keypress_ZEE	142	stimuli_target_trianglecircles.svg	stimuli_distractor_diamondtriangles.svg	21	yes	57	0	151
6.6.1	win	2022-12-14	14:20:53	14:30:56	601995	5da360b12e89480010ef417a	58534219	1	main_z	11	main_z	143	stimuli_distractor_diamondtriangles.svg	stimuli_target_trianglecircles.svg	29	yes	44	1	285
6.6.1	win	2022-12-14	14:20:53	14:30:56	601995	5da360b12e89480010ef417a	58534219	1	main_z	11	advance_on_keypress_ZEE	144	stimuli_distractor_diamondtriangles.svg	stimuli_target_trianglecircles.svg	29	yes	57	0	182
6.6.1	win	2022-12-14	14:20:53	14:30:57	603032	5da360b12e89480010ef417a	58534219	1	main_z	11	main_z	145	stimuli_distractor_trianglediamonds.svg	stimuli_target_trianglesquares.svg	26	yes	44	1	241
6.6.1	win	2022-12-14	14:20:53	14:30:57	603032	5da360b12e89480010ef417a	58534219	1	main_z	11	advance_on_keypress_ZEE	146	stimuli_distractor_trianglediamonds.svg	stimuli_target_trianglesquares.svg	26	yes	57	0	147
6.6.1	win	2022-12-14	14:20:53	14:30:58	604040	5da360b12e89480010ef417a	58534219	1	main_z	11	main_z	147	stimuli_distractor_diamondtriangles.svg	stimuli_target_squaretriangles.svg	15	yes	44	1	248
6.6.1	win	2022-12-14	14:20:53	14:30:58	604040	5da360b12e89480010ef417a	58534219	1	main_z	11	advance_on_keypress_ZEE	148	stimuli_distractor_diamondtriangles.svg	stimuli_target_squaretriangles.svg	15	yes	57	0	138
6.6.1	win	2022-12-14	14:20:53	14:30:59	605064	5da360b12e89480010ef417a	58534219	1	main_z	11	main_z	149	stimuli_target_circletriangles.svg	stimuli_distractor_diamondtriangles.svg	5	yes	44	1	277
6.6.1	win	2022-12-14	14:20:53	14:30:59	605064	5da360b12e89480010ef417a	58534219	1	main_z	11	advance_on_keypress_ZEE	150	stimuli_target_circletriangles.svg	stimuli_distractor_diamondtriangles.svg	5	yes	57	0	126
6.6.1	win	2022-12-14	14:20:53	14:31:00	606078	5da360b12e89480010ef417a	58534219	1	main_z	11	main_z	151	stimuli_target_trianglesquares.svg	stimuli_distractor_diamondtriangles.svg	22	yes	44	1	277
6.6.1	win	2022-12-14	14:20:53	14:31:00	606078	5da360b12e89480010ef417a	58534219	1	main_z	11	advance_on_keypress_ZEE	152	stimuli_target_trianglesquares.svg	stimuli_distractor_diamondtriangles.svg	22	yes	57	0	137
6.6.1	win	2022-12-14	14:20:53	14:31:01	607074	5da360b12e89480010ef417a	58534219	1	main_z	11	main_z	153	stimuli_target_diamondsquares.svg	stimuli_distractor_trianglediamonds.svg	20	yes	44	1	248
6.6.1	win	2022-12-14	14:20:53	14:31:01	607074	5da360b12e89480010ef417a	58534219	1	main_z	11	advance_on_keypress_ZEE	154	stimuli_target_diamondsquares.svg	stimuli_distractor_trianglediamonds.svg	20	yes	57	0	120
6.6.1	win	2022-12-14	14:20:53	14:31:02	608113	5da360b12e89480010ef417a	58534219	1	main_z	11	main_z	155	stimuli_target_trianglesquares.svg	stimuli_distractor_trianglediamonds.svg	18	yes	44	1	310
6.6.1	win	2022-12-14	14:20:53	14:31:02	608113	5da360b12e89480010ef417a	58534219	1	main_z	11	advance_on_keypress_ZEE	156	stimuli_target_trianglesquares.svg	stimuli_distractor_trianglediamonds.svg	18	yes	57	0	121
6.6.1	win	2022-12-14	14:20:53	14:31:03	609136	5da360b12e89480010ef417a	58534219	1	main_z	11	main_z	157	stimuli_distractor_diamondtriangles.svg	stimuli_target_trianglesquares.svg	30	yes	44	1	283
6.6.1	win	2022-12-14	14:20:53	14:31:03	609136	5da360b12e89480010ef417a	58534219	1	main_z	11	advance_on_keypress_ZEE	158	stimuli_distractor_diamondtriangles.svg	stimuli_target_trianglesquares.svg	30	yes	57	0	100
6.6.1	win	2022-12-14	14:20:53	14:31:04	610093	5da360b12e89480010ef417a	58534219	1	main_z	11	main_z	159	stimuli_distractor_diamondtriangles.svg	stimuli_target_diamondcircles.svg	31	yes	44	1	245
6.6.1	win	2022-12-14	14:20:53	14:31:04	610093	5da360b12e89480010ef417a	58534219	1	main_z	11	advance_on_keypress_ZEE	160	stimuli_distractor_diamondtriangles.svg	stimuli_target_diamondcircles.svg	31	yes	57	0	98