build	computer.platform	date	time	timestamp	time_elapsed_ms	subject	group	session	blockcode	blocknum	trialcode	trialnum	stimulus_left	stimulus_right	stim_index	target_present	response	correct	latency
6.6.1	win	2022-12-15	16:20:06	16:22:42	153997	594c13bdb9380200018809c9	323949938	1	practice_z	5	practice_z	1	stimuli_target_diamondsquares.svg	stimuli_distractor_diamondtriangles.svg	3	yes	0	0	2000
6.6.1	win	2022-12-15	16:20:06	16:22:42	153997	594c13bdb9380200018809c9	323949938	1	practice_z	5	advance_on_keypress_ZEE	2	stimuli_target_diamondsquares.svg	stimuli_distractor_diamondtriangles.svg	3	yes	57	0	1363
6.6.1	win	2022-12-15	16:20:06	16:22:46	157660	594c13bdb9380200018809c9	323949938	1	practice_z	5	practice_z	3	stimuli_target_squarediamonds.svg	stimuli_distractor_trianglediamonds.svg	5	yes	44	1	640
6.6.1	win	2022-12-15	16:20:06	16:22:46	157660	594c13bdb9380200018809c9	323949938	1	practice_z	5	advance_on_keypress_ZEE	4	stimuli_target_squarediamonds.svg	stimuli_distractor_trianglediamonds.svg	5	yes	57	0	2374
6.6.1	win	2022-12-15	16:20:06	16:22:51	162724	594c13bdb9380200018809c9	323949938	1	practice_z	5	practice_z	5	stimuli_distractor_diamondtriangles.svg	stimuli_target_diamondcircles.svg	8	yes	44	1	1030
6.6.1	win	2022-12-15	16:20:06	16:22:51	162724	594c13bdb9380200018809c9	323949938	1	practice_z	5	advance_on_keypress_ZEE	6	stimuli_distractor_diamondtriangles.svg	stimuli_target_diamondcircles.svg	8	yes	57	0	939
6.6.1	win	2022-12-15	16:20:06	16:22:55	166596	594c13bdb9380200018809c9	323949938	1	practice_z	5	practice_z	7	stimuli_distractor_trianglediamonds.svg	stimuli_distractor_diamondtriangles.svg	16	no	44	0	1294
6.6.1	win	2022-12-15	16:20:06	16:22:55	166596	594c13bdb9380200018809c9	323949938	1	practice_z	5	advance_on_keypress_ZEE	8	stimuli_distractor_trianglediamonds.svg	stimuli_distractor_diamondtriangles.svg	16	no	57	0	697
6.6.1	win	2022-12-15	16:20:06	16:22:59	170044	594c13bdb9380200018809c9	323949938	1	practice_z	5	practice_z	9	stimuli_target_circlediamonds.svg	stimuli_distractor_trianglediamonds.svg	4	yes	44	1	1099
6.6.1	win	2022-12-15	16:20:06	16:22:59	170044	594c13bdb9380200018809c9	323949938	1	practice_z	5	advance_on_keypress_ZEE	10	stimuli_target_circlediamonds.svg	stimuli_distractor_trianglediamonds.svg	4	yes	57	0	438
6.6.1	win	2022-12-15	16:20:06	16:23:02	173042	594c13bdb9380200018809c9	323949938	1	practice_z	5	practice_z	11	stimuli_distractor_diamondtriangles.svg	stimuli_target_circletriangles.svg	7	yes	44	1	918
6.6.1	win	2022-12-15	16:20:06	16:23:02	173042	594c13bdb9380200018809c9	323949938	1	practice_z	5	advance_on_keypress_ZEE	12	stimuli_distractor_diamondtriangles.svg	stimuli_target_circletriangles.svg	7	yes	57	0	818
6.6.1	win	2022-12-15	16:20:06	16:23:05	176491	594c13bdb9380200018809c9	323949938	1	practice_z	5	practice_z	13	stimuli_distractor_trianglediamonds.svg	stimuli_target_circlediamonds.svg	10	yes	44	1	977
6.6.1	win	2022-12-15	16:20:06	16:23:05	176491	594c13bdb9380200018809c9	323949938	1	practice_z	5	advance_on_keypress_ZEE	14	stimuli_distractor_trianglediamonds.svg	stimuli_target_circlediamonds.svg	10	yes	57	0	47
6.6.1	win	2022-12-15	16:20:06	16:23:09	180191	594c13bdb9380200018809c9	323949938	1	practice_z	5	practice_z	15	stimuli_distractor_diamondtriangles.svg	stimuli_distractor_trianglediamonds.svg	14	no	0	1	2000
6.6.1	win	2022-12-15	16:20:06	16:23:09	180191	594c13bdb9380200018809c9	323949938	1	practice_z	5	advance_on_keypress_ZEE	16	stimuli_distractor_diamondtriangles.svg	stimuli_distractor_trianglediamonds.svg	14	no	57	0	702
6.6.1	win	2022-12-15	16:20:06	16:23:12	183849	594c13bdb9380200018809c9	323949938	1	practice_z	5	practice_z	17	stimuli_distractor_diamondtriangles.svg	stimuli_distractor_diamondtriangles.svg	13	no	44	0	1317
6.6.1	win	2022-12-15	16:20:06	16:23:12	183849	594c13bdb9380200018809c9	323949938	1	practice_z	5	advance_on_keypress_ZEE	18	stimuli_distractor_diamondtriangles.svg	stimuli_distractor_diamondtriangles.svg	13	no	57	0	519
6.6.1	win	2022-12-15	16:20:06	16:23:15	186862	594c13bdb9380200018809c9	323949938	1	practice_z	5	practice_z	19	stimuli_target_circlediamonds.svg	stimuli_distractor_diamondtriangles.svg	1	yes	44	1	854
6.6.1	win	2022-12-15	16:20:06	16:23:15	186862	594c13bdb9380200018809c9	323949938	1	practice_z	5	advance_on_keypress_ZEE	20	stimuli_target_circlediamonds.svg	stimuli_distractor_diamondtriangles.svg	1	yes	57	0	695
6.6.1	win	2022-12-15	16:20:06	16:23:19	190302	594c13bdb9380200018809c9	323949938	1	practice_z	5	practice_z	21	stimuli_target_diamondsquares.svg	stimuli_distractor_trianglediamonds.svg	6	yes	44	1	1084
6.6.1	win	2022-12-15	16:20:06	16:23:19	190302	594c13bdb9380200018809c9	323949938	1	practice_z	5	advance_on_keypress_ZEE	22	stimuli_target_diamondsquares.svg	stimuli_distractor_trianglediamonds.svg	6	yes	57	0	479
6.6.1	win	2022-12-15	16:20:06	16:23:22	193298	594c13bdb9380200018809c9	323949938	1	practice_z	5	practice_z	23	stimuli_target_squarediamonds.svg	stimuli_distractor_diamondtriangles.svg	2	yes	44	1	869
6.6.1	win	2022-12-15	16:20:06	16:23:22	193298	594c13bdb9380200018809c9	323949938	1	practice_z	5	advance_on_keypress_ZEE	24	stimuli_target_squarediamonds.svg	stimuli_distractor_diamondtriangles.svg	2	yes	57	0	689
6.6.1	win	2022-12-15	16:20:06	16:23:25	196547	594c13bdb9380200018809c9	323949938	1	practice_z	5	practice_z	25	stimuli_distractor_trianglediamonds.svg	stimuli_target_squarediamonds.svg	11	yes	44	1	892
6.6.1	win	2022-12-15	16:20:06	16:23:25	196547	594c13bdb9380200018809c9	323949938	1	practice_z	5	advance_on_keypress_ZEE	26	stimuli_distractor_trianglediamonds.svg	stimuli_target_squarediamonds.svg	11	yes	57	0	557
6.6.1	win	2022-12-15	16:20:06	16:23:28	199653	594c13bdb9380200018809c9	323949938	1	practice_z	5	practice_z	27	stimuli_distractor_diamondtriangles.svg	stimuli_target_trianglecircles.svg	9	yes	44	1	887
6.6.1	win	2022-12-15	16:20:06	16:23:28	199653	594c13bdb9380200018809c9	323949938	1	practice_z	5	advance_on_keypress_ZEE	28	stimuli_distractor_diamondtriangles.svg	stimuli_target_trianglecircles.svg	9	yes	57	0	462
6.6.1	win	2022-12-15	16:20:06	16:23:31	202624	594c13bdb9380200018809c9	323949938	1	practice_z	5	practice_z	29	stimuli_distractor_trianglediamonds.svg	stimuli_target_diamondcircles.svg	12	yes	44	1	848
6.6.1	win	2022-12-15	16:20:06	16:23:31	202624	594c13bdb9380200018809c9	323949938	1	practice_z	5	advance_on_keypress_ZEE	30	stimuli_distractor_trianglediamonds.svg	stimuli_target_diamondcircles.svg	12	yes	57	0	301
6.6.1	win	2022-12-15	16:20:06	16:23:35	206568	594c13bdb9380200018809c9	323949938	1	practice_z	5	practice_z	31	stimuli_distractor_trianglediamonds.svg	stimuli_distractor_trianglediamonds.svg	15	no	0	1	2000
6.6.1	win	2022-12-15	16:20:06	16:23:35	206568	594c13bdb9380200018809c9	323949938	1	practice_z	5	advance_on_keypress_ZEE	32	stimuli_distractor_trianglediamonds.svg	stimuli_distractor_trianglediamonds.svg	15	no	57	0	463
6.6.1	win	2022-12-15	16:20:06	16:23:45	216566	594c13bdb9380200018809c9	323949938	1	main_z	7	main_z	1	stimuli_target_squaretriangles.svg	stimuli_distractor_diamondtriangles.svg	7	yes	44	1	593
6.6.1	win	2022-12-15	16:20:06	16:23:45	216566	594c13bdb9380200018809c9	323949938	1	main_z	7	advance_on_keypress_ZEE	2	stimuli_target_squaretriangles.svg	stimuli_distractor_diamondtriangles.svg	7	yes	57	0	1158
6.6.1	win	2022-12-15	16:20:06	16:23:48	219187	594c13bdb9380200018809c9	323949938	1	main_z	7	main_z	3	stimuli_distractor_trianglediamonds.svg	stimuli_target_diamondsquares.svg	28	yes	44	1	802
6.6.1	win	2022-12-15	16:20:06	16:23:48	219187	594c13bdb9380200018809c9	323949938	1	main_z	7	advance_on_keypress_ZEE	4	stimuli_distractor_trianglediamonds.svg	stimuli_target_diamondsquares.svg	28	yes	57	0	1059
6.6.1	win	2022-12-15	16:20:06	16:23:50	221531	594c13bdb9380200018809c9	323949938	1	main_z	7	main_z	5	stimuli_target_diamondcircles.svg	stimuli_distractor_diamondtriangles.svg	23	yes	44	1	635
6.6.1	win	2022-12-15	16:20:06	16:23:50	221531	594c13bdb9380200018809c9	323949938	1	main_z	7	advance_on_keypress_ZEE	6	stimuli_target_diamondcircles.svg	stimuli_distractor_diamondtriangles.svg	23	yes	57	0	436
6.6.1	win	2022-12-15	16:20:06	16:23:52	223232	594c13bdb9380200018809c9	323949938	1	main_z	7	main_z	7	stimuli_target_diamondsquares.svg	stimuli_distractor_diamondtriangles.svg	24	yes	44	1	622
6.6.1	win	2022-12-15	16:20:06	16:23:52	223232	594c13bdb9380200018809c9	323949938	1	main_z	7	advance_on_keypress_ZEE	8	stimuli_target_diamondsquares.svg	stimuli_distractor_diamondtriangles.svg	24	yes	57	0	428
6.6.1	win	2022-12-15	16:20:06	16:23:54	225081	594c13bdb9380200018809c9	323949938	1	main_z	7	main_z	9	stimuli_target_squarediamonds.svg	stimuli_distractor_diamondtriangles.svg	8	yes	44	1	775
6.6.1	win	2022-12-15	16:20:06	16:23:54	225081	594c13bdb9380200018809c9	323949938	1	main_z	7	advance_on_keypress_ZEE	10	stimuli_target_squarediamonds.svg	stimuli_distractor_diamondtriangles.svg	8	yes	57	0	397
6.6.1	win	2022-12-15	16:20:06	16:23:55	226789	594c13bdb9380200018809c9	323949938	1	main_z	7	main_z	11	stimuli_distractor_diamondtriangles.svg	stimuli_target_diamondcircles.svg	31	yes	44	1	654
6.6.1	win	2022-12-15	16:20:06	16:23:55	226789	594c13bdb9380200018809c9	323949938	1	main_z	7	advance_on_keypress_ZEE	12	stimuli_distractor_diamondtriangles.svg	stimuli_target_diamondcircles.svg	31	yes	57	0	344
6.6.1	win	2022-12-15	16:20:06	16:23:57	228896	594c13bdb9380200018809c9	323949938	1	main_z	7	main_z	13	stimuli_distractor_diamondtriangles.svg	stimuli_target_circletriangles.svg	13	yes	44	1	1114
6.6.1	win	2022-12-15	16:20:06	16:23:57	228896	594c13bdb9380200018809c9	323949938	1	main_z	7	advance_on_keypress_ZEE	14	stimuli_distractor_diamondtriangles.svg	stimuli_target_circletriangles.svg	13	yes	57	0	758
6.6.1	win	2022-12-15	16:20:06	16:24:00	231050	594c13bdb9380200018809c9	323949938	1	main_z	7	main_z	15	stimuli_distractor_diamondtriangles.svg	stimuli_target_squarediamonds.svg	16	yes	44	1	740
6.6.1	win	2022-12-15	16:20:06	16:24:00	231050	594c13bdb9380200018809c9	323949938	1	main_z	7	advance_on_keypress_ZEE	16	stimuli_distractor_diamondtriangles.svg	stimuli_target_squarediamonds.svg	16	yes	57	0	344
6.6.1	win	2022-12-15	16:20:06	16:24:01	232774	594c13bdb9380200018809c9	323949938	1	main_z	7	main_z	17	stimuli_target_circletriangles.svg	stimuli_distractor_trianglediamonds.svg	1	yes	44	1	719
6.6.1	win	2022-12-15	16:20:06	16:24:01	232774	594c13bdb9380200018809c9	323949938	1	main_z	7	advance_on_keypress_ZEE	18	stimuli_target_circletriangles.svg	stimuli_distractor_trianglediamonds.svg	1	yes	57	0	316
6.6.1	win	2022-12-15	16:20:06	16:24:03	234665	594c13bdb9380200018809c9	323949938	1	main_z	7	main_z	19	stimuli_target_trianglesquares.svg	stimuli_distractor_diamondtriangles.svg	22	yes	44	1	929
6.6.1	win	2022-12-15	16:20:06	16:24:03	234665	594c13bdb9380200018809c9	323949938	1	main_z	7	advance_on_keypress_ZEE	20	stimuli_target_trianglesquares.svg	stimuli_distractor_diamondtriangles.svg	22	yes	57	0	320
6.6.1	win	2022-12-15	16:20:06	16:24:05	236380	594c13bdb9380200018809c9	323949938	1	main_z	7	main_z	21	stimuli_distractor_diamondtriangles.svg	stimuli_target_squaretriangles.svg	15	yes	44	1	748
6.6.1	win	2022-12-15	16:20:06	16:24:05	236380	594c13bdb9380200018809c9	323949938	1	main_z	7	advance_on_keypress_ZEE	22	stimuli_distractor_diamondtriangles.svg	stimuli_target_squaretriangles.svg	15	yes	57	0	274
6.6.1	win	2022-12-15	16:20:06	16:24:07	238173	594c13bdb9380200018809c9	323949938	1	main_z	7	main_z	23	stimuli_distractor_diamondtriangles.svg	stimuli_target_circlediamonds.svg	14	yes	44	1	878
6.6.1	win	2022-12-15	16:20:06	16:24:07	238173	594c13bdb9380200018809c9	323949938	1	main_z	7	advance_on_keypress_ZEE	24	stimuli_distractor_diamondtriangles.svg	stimuli_target_circlediamonds.svg	14	yes	57	0	268
6.6.1	win	2022-12-15	16:20:06	16:24:08	239804	594c13bdb9380200018809c9	323949938	1	main_z	7	main_z	25	stimuli_distractor_trianglediamonds.svg	stimuli_target_circletriangles.svg	9	yes	44	1	713
6.6.1	win	2022-12-15	16:20:06	16:24:08	239804	594c13bdb9380200018809c9	323949938	1	main_z	7	advance_on_keypress_ZEE	26	stimuli_distractor_trianglediamonds.svg	stimuli_target_circletriangles.svg	9	yes	57	0	294
6.6.1	win	2022-12-15	16:20:06	16:24:11	242754	594c13bdb9380200018809c9	323949938	1	main_z	7	main_z	27	stimuli_distractor_trianglediamonds.svg	stimuli_distractor_trianglediamonds.svg	34	no	0	1	2000
6.6.1	win	2022-12-15	16:20:06	16:24:11	242754	594c13bdb9380200018809c9	323949938	1	main_z	7	advance_on_keypress_ZEE	28	stimuli_distractor_trianglediamonds.svg	stimuli_distractor_trianglediamonds.svg	34	no	57	0	658
6.6.1	win	2022-12-15	16:20:06	16:24:13	244581	594c13bdb9380200018809c9	323949938	1	main_z	7	main_z	29	stimuli_distractor_trianglediamonds.svg	stimuli_target_circlediamonds.svg	10	yes	44	1	534
6.6.1	win	2022-12-15	16:20:06	16:24:13	244581	594c13bdb9380200018809c9	323949938	1	main_z	7	advance_on_keypress_ZEE	30	stimuli_distractor_trianglediamonds.svg	stimuli_target_circlediamonds.svg	10	yes	57	0	420
6.6.1	win	2022-12-15	16:20:06	16:24:15	246545	594c13bdb9380200018809c9	323949938	1	main_z	7	main_z	31	stimuli_target_diamondsquares.svg	stimuli_distractor_trianglediamonds.svg	20	yes	44	1	901
6.6.1	win	2022-12-15	16:20:06	16:24:15	246545	594c13bdb9380200018809c9	323949938	1	main_z	7	advance_on_keypress_ZEE	32	stimuli_target_diamondsquares.svg	stimuli_distractor_trianglediamonds.svg	20	yes	57	0	453
6.6.1	win	2022-12-15	16:20:06	16:24:17	248304	594c13bdb9380200018809c9	323949938	1	main_z	7	main_z	33	stimuli_target_squaretriangles.svg	stimuli_distractor_trianglediamonds.svg	3	yes	44	1	665
6.6.1	win	2022-12-15	16:20:06	16:24:17	248304	594c13bdb9380200018809c9	323949938	1	main_z	7	advance_on_keypress_ZEE	34	stimuli_target_squaretriangles.svg	stimuli_distractor_trianglediamonds.svg	3	yes	57	0	347
6.6.1	win	2022-12-15	16:20:06	16:24:19	250103	594c13bdb9380200018809c9	323949938	1	main_z	7	main_z	35	stimuli_distractor_trianglediamonds.svg	stimuli_target_diamondcircles.svg	27	yes	44	1	800
6.6.1	win	2022-12-15	16:20:06	16:24:19	250103	594c13bdb9380200018809c9	323949938	1	main_z	7	advance_on_keypress_ZEE	36	stimuli_distractor_trianglediamonds.svg	stimuli_target_diamondcircles.svg	27	yes	57	0	287
6.6.1	win	2022-12-15	16:20:06	16:24:21	252265	594c13bdb9380200018809c9	323949938	1	main_z	7	main_z	37	stimuli_distractor_trianglediamonds.svg	stimuli_distractor_diamondtriangles.svg	35	no	44	0	1233
6.6.1	win	2022-12-15	16:20:06	16:24:21	252265	594c13bdb9380200018809c9	323949938	1	main_z	7	advance_on_keypress_ZEE	38	stimuli_distractor_trianglediamonds.svg	stimuli_distractor_diamondtriangles.svg	35	no	57	0	458
6.6.1	win	2022-12-15	16:20:06	16:24:23	254329	594c13bdb9380200018809c9	323949938	1	main_z	7	main_z	39	stimuli_distractor_diamondtriangles.svg	stimuli_target_diamondsquares.svg	32	yes	44	1	952
6.6.1	win	2022-12-15	16:20:06	16:24:23	254329	594c13bdb9380200018809c9	323949938	1	main_z	7	advance_on_keypress_ZEE	40	stimuli_distractor_diamondtriangles.svg	stimuli_target_diamondsquares.svg	32	yes	57	0	355
6.6.1	win	2022-12-15	16:20:06	16:24:26	257323	594c13bdb9380200018809c9	323949938	1	main_z	7	main_z	41	stimuli_distractor_trianglediamonds.svg	stimuli_distractor_diamondtriangles.svg	36	no	0	1	2000
6.6.1	win	2022-12-15	16:20:06	16:24:26	257323	594c13bdb9380200018809c9	323949938	1	main_z	7	advance_on_keypress_ZEE	42	stimuli_distractor_trianglediamonds.svg	stimuli_distractor_diamondtriangles.svg	36	no	57	0	254
6.6.1	win	2022-12-15	16:20:06	16:24:27	259002	594c13bdb9380200018809c9	323949938	1	main_z	7	main_z	43	stimuli_target_circletriangles.svg	stimuli_distractor_diamondtriangles.svg	5	yes	44	1	785
6.6.1	win	2022-12-15	16:20:06	16:24:27	259002	594c13bdb9380200018809c9	323949938	1	main_z	7	advance_on_keypress_ZEE	44	stimuli_target_circletriangles.svg	stimuli_distractor_diamondtriangles.svg	5	yes	57	0	392
6.6.1	win	2022-12-15	16:20:06	16:24:29	260860	594c13bdb9380200018809c9	323949938	1	main_z	7	main_z	45	stimuli_distractor_trianglediamonds.svg	stimuli_distractor_trianglediamonds.svg	33	no	44	0	814
6.6.1	win	2022-12-15	16:20:06	16:24:29	260860	594c13bdb9380200018809c9	323949938	1	main_z	7	advance_on_keypress_ZEE	46	stimuli_distractor_trianglediamonds.svg	stimuli_distractor_trianglediamonds.svg	33	no	57	0	397
6.6.1	win	2022-12-15	16:20:06	16:24:31	262613	594c13bdb9380200018809c9	323949938	1	main_z	7	main_z	47	stimuli_target_trianglesquares.svg	stimuli_distractor_trianglediamonds.svg	18	yes	44	1	704
6.6.1	win	2022-12-15	16:20:06	16:24:31	262613	594c13bdb9380200018809c9	323949938	1	main_z	7	advance_on_keypress_ZEE	48	stimuli_target_trianglesquares.svg	stimuli_distractor_trianglediamonds.svg	18	yes	57	0	331
6.6.1	win	2022-12-15	16:20:06	16:24:33	264422	594c13bdb9380200018809c9	323949938	1	main_z	7	main_z	49	stimuli_distractor_diamondtriangles.svg	stimuli_target_trianglesquares.svg	30	yes	44	1	833
6.6.1	win	2022-12-15	16:20:06	16:24:33	264422	594c13bdb9380200018809c9	323949938	1	main_z	7	advance_on_keypress_ZEE	50	stimuli_distractor_diamondtriangles.svg	stimuli_target_trianglesquares.svg	30	yes	57	0	326
6.6.1	win	2022-12-15	16:20:06	16:24:35	266201	594c13bdb9380200018809c9	323949938	1	main_z	7	main_z	51	stimuli_distractor_diamondtriangles.svg	stimuli_target_trianglecircles.svg	29	yes	44	1	799
6.6.1	win	2022-12-15	16:20:06	16:24:35	266201	594c13bdb9380200018809c9	323949938	1	main_z	7	advance_on_keypress_ZEE	52	stimuli_distractor_diamondtriangles.svg	stimuli_target_trianglecircles.svg	29	yes	57	0	364
6.6.1	win	2022-12-15	16:20:06	16:24:37	268167	594c13bdb9380200018809c9	323949938	1	main_z	7	main_z	53	stimuli_distractor_diamondtriangles.svg	stimuli_distractor_diamondtriangles.svg	39	no	44	0	953
6.6.1	win	2022-12-15	16:20:06	16:24:37	268167	594c13bdb9380200018809c9	323949938	1	main_z	7	advance_on_keypress_ZEE	54	stimuli_distractor_diamondtriangles.svg	stimuli_distractor_diamondtriangles.svg	39	no	57	0	368
6.6.1	win	2022-12-15	16:20:06	16:24:39	270793	594c13bdb9380200018809c9	323949938	1	main_z	7	main_z	55	stimuli_distractor_trianglediamonds.svg	stimuli_target_squaretriangles.svg	11	yes	44	1	1616
6.6.1	win	2022-12-15	16:20:06	16:24:39	270793	594c13bdb9380200018809c9	323949938	1	main_z	7	advance_on_keypress_ZEE	56	stimuli_distractor_trianglediamonds.svg	stimuli_target_squaretriangles.svg	11	yes	57	0	698
6.6.1	win	2022-12-15	16:20:06	16:24:41	272975	594c13bdb9380200018809c9	323949938	1	main_z	7	main_z	57	stimuli_target_trianglecircles.svg	stimuli_distractor_diamondtriangles.svg	21	yes	44	1	838
6.6.1	win	2022-12-15	16:20:06	16:24:41	272975	594c13bdb9380200018809c9	323949938	1	main_z	7	advance_on_keypress_ZEE	58	stimuli_target_trianglecircles.svg	stimuli_distractor_diamondtriangles.svg	21	yes	57	0	344
6.6.1	win	2022-12-15	16:20:06	16:24:44	275086	594c13bdb9380200018809c9	323949938	1	main_z	7	main_z	59	stimuli_distractor_diamondtriangles.svg	stimuli_distractor_trianglediamonds.svg	38	no	44	0	1119
6.6.1	win	2022-12-15	16:20:06	16:24:44	275086	594c13bdb9380200018809c9	323949938	1	main_z	7	advance_on_keypress_ZEE	60	stimuli_distractor_diamondtriangles.svg	stimuli_distractor_trianglediamonds.svg	38	no	57	0	246
6.6.1	win	2022-12-15	16:20:06	16:24:45	276760	594c13bdb9380200018809c9	323949938	1	main_z	7	main_z	61	stimuli_target_diamondcircles.svg	stimuli_distractor_trianglediamonds.svg	19	yes	44	1	781
6.6.1	win	2022-12-15	16:20:06	16:24:45	276760	594c13bdb9380200018809c9	323949938	1	main_z	7	advance_on_keypress_ZEE	62	stimuli_target_diamondcircles.svg	stimuli_distractor_trianglediamonds.svg	19	yes	57	0	353
6.6.1	win	2022-12-15	16:20:06	16:24:47	278530	594c13bdb9380200018809c9	323949938	1	main_z	7	main_z	63	stimuli_target_circlediamonds.svg	stimuli_distractor_diamondtriangles.svg	6	yes	44	1	771
6.6.1	win	2022-12-15	16:20:06	16:24:47	278530	594c13bdb9380200018809c9	323949938	1	main_z	7	advance_on_keypress_ZEE	64	stimuli_target_circlediamonds.svg	stimuli_distractor_diamondtriangles.svg	6	yes	57	0	339
6.6.1	win	2022-12-15	16:20:06	16:24:49	280463	594c13bdb9380200018809c9	323949938	1	main_z	7	main_z	65	stimuli_distractor_diamondtriangles.svg	stimuli_distractor_trianglediamonds.svg	37	no	44	0	958
6.6.1	win	2022-12-15	16:20:06	16:24:49	280463	594c13bdb9380200018809c9	323949938	1	main_z	7	advance_on_keypress_ZEE	66	stimuli_distractor_diamondtriangles.svg	stimuli_distractor_trianglediamonds.svg	37	no	57	0	354
6.6.1	win	2022-12-15	16:20:06	16:24:51	282215	594c13bdb9380200018809c9	323949938	1	main_z	7	main_z	67	stimuli_distractor_trianglediamonds.svg	stimuli_target_trianglecircles.svg	25	yes	44	1	747
6.6.1	win	2022-12-15	16:20:06	16:24:51	282215	594c13bdb9380200018809c9	323949938	1	main_z	7	advance_on_keypress_ZEE	68	stimuli_distractor_trianglediamonds.svg	stimuli_target_trianglecircles.svg	25	yes	57	0	359
6.6.1	win	2022-12-15	16:20:06	16:24:53	284068	594c13bdb9380200018809c9	323949938	1	main_z	7	main_z	69	stimuli_target_squarediamonds.svg	stimuli_distractor_trianglediamonds.svg	4	yes	44	1	837
6.6.1	win	2022-12-15	16:20:06	16:24:53	284068	594c13bdb9380200018809c9	323949938	1	main_z	7	advance_on_keypress_ZEE	70	stimuli_target_squarediamonds.svg	stimuli_distractor_trianglediamonds.svg	4	yes	57	0	383
6.6.1	win	2022-12-15	16:20:06	16:24:56	287093	594c13bdb9380200018809c9	323949938	1	main_z	7	main_z	71	stimuli_distractor_diamondtriangles.svg	stimuli_distractor_diamondtriangles.svg	40	no	0	1	2000
6.6.1	win	2022-12-15	16:20:06	16:24:56	287093	594c13bdb9380200018809c9	323949938	1	main_z	7	advance_on_keypress_ZEE	72	stimuli_distractor_diamondtriangles.svg	stimuli_distractor_diamondtriangles.svg	40	no	57	0	468
6.6.1	win	2022-12-15	16:20:06	16:24:57	288948	594c13bdb9380200018809c9	323949938	1	main_z	7	main_z	73	stimuli_distractor_trianglediamonds.svg	stimuli_target_trianglesquares.svg	26	yes	44	1	745
6.6.1	win	2022-12-15	16:20:06	16:24:57	288948	594c13bdb9380200018809c9	323949938	1	main_z	7	advance_on_keypress_ZEE	74	stimuli_distractor_trianglediamonds.svg	stimuli_target_trianglesquares.svg	26	yes	57	0	369
6.6.1	win	2022-12-15	16:20:06	16:24:59	290760	594c13bdb9380200018809c9	323949938	1	main_z	7	main_z	75	stimuli_distractor_trianglediamonds.svg	stimuli_target_squarediamonds.svg	12	yes	44	1	793
6.6.1	win	2022-12-15	16:20:06	16:24:59	290760	594c13bdb9380200018809c9	323949938	1	main_z	7	advance_on_keypress_ZEE	76	stimuli_distractor_trianglediamonds.svg	stimuli_target_squarediamonds.svg	12	yes	57	0	339
6.6.1	win	2022-12-15	16:20:06	16:25:01	292539	594c13bdb9380200018809c9	323949938	1	main_z	7	main_z	77	stimuli_target_circlediamonds.svg	stimuli_distractor_trianglediamonds.svg	2	yes	44	1	794
6.6.1	win	2022-12-15	16:20:06	16:25:01	292539	594c13bdb9380200018809c9	323949938	1	main_z	7	advance_on_keypress_ZEE	78	stimuli_target_circlediamonds.svg	stimuli_distractor_trianglediamonds.svg	2	yes	57	0	402
6.6.1	win	2022-12-15	16:20:06	16:25:03	294299	594c13bdb9380200018809c9	323949938	1	main_z	7	main_z	79	stimuli_target_trianglecircles.svg	stimuli_distractor_trianglediamonds.svg	17	yes	44	1	707
6.6.1	win	2022-12-15	16:20:06	16:25:03	294299	594c13bdb9380200018809c9	323949938	1	main_z	7	advance_on_keypress_ZEE	80	stimuli_target_trianglecircles.svg	stimuli_distractor_trianglediamonds.svg	17	yes	57	0	351
6.6.1	win	2022-12-15	16:20:06	16:25:05	296065	594c13bdb9380200018809c9	323949938	1	main_z	7	main_z	81	stimuli_target_circlediamonds.svg	stimuli_distractor_trianglediamonds.svg	2	yes	44	1	760
6.6.1	win	2022-12-15	16:20:06	16:25:05	296065	594c13bdb9380200018809c9	323949938	1	main_z	7	advance_on_keypress_ZEE	82	stimuli_target_circlediamonds.svg	stimuli_distractor_trianglediamonds.svg	2	yes	57	0	322
6.6.1	win	2022-12-15	16:20:06	16:25:06	297810	594c13bdb9380200018809c9	323949938	1	main_z	7	main_z	83	stimuli_distractor_trianglediamonds.svg	stimuli_target_circletriangles.svg	9	yes	44	1	776
6.6.1	win	2022-12-15	16:20:06	16:25:06	297810	594c13bdb9380200018809c9	323949938	1	main_z	7	advance_on_keypress_ZEE	84	stimuli_distractor_trianglediamonds.svg	stimuli_target_circletriangles.svg	9	yes	57	0	302
6.6.1	win	2022-12-15	16:20:06	16:25:08	299506	594c13bdb9380200018809c9	323949938	1	main_z	7	main_z	85	stimuli_target_diamondcircles.svg	stimuli_distractor_diamondtriangles.svg	23	yes	44	1	742
6.6.1	win	2022-12-15	16:20:06	16:25:08	299506	594c13bdb9380200018809c9	323949938	1	main_z	7	advance_on_keypress_ZEE	86	stimuli_target_diamondcircles.svg	stimuli_distractor_diamondtriangles.svg	23	yes	57	0	295
6.6.1	win	2022-12-15	16:20:06	16:25:10	301207	594c13bdb9380200018809c9	323949938	1	main_z	7	main_z	87	stimuli_distractor_diamondtriangles.svg	stimuli_target_circlediamonds.svg	14	yes	44	1	747
6.6.1	win	2022-12-15	16:20:06	16:25:10	301207	594c13bdb9380200018809c9	323949938	1	main_z	7	advance_on_keypress_ZEE	88	stimuli_distractor_diamondtriangles.svg	stimuli_target_circlediamonds.svg	14	yes	57	0	355
6.6.1	win	2022-12-15	16:20:06	16:25:12	303009	594c13bdb9380200018809c9	323949938	1	main_z	7	main_z	89	stimuli_distractor_trianglediamonds.svg	stimuli_target_trianglecircles.svg	25	yes	44	1	802
6.6.1	win	2022-12-15	16:20:06	16:25:12	303009	594c13bdb9380200018809c9	323949938	1	main_z	7	advance_on_keypress_ZEE	90	stimuli_distractor_trianglediamonds.svg	stimuli_target_trianglecircles.svg	25	yes	57	0	362
6.6.1	win	2022-12-15	16:20:06	16:25:13	304770	594c13bdb9380200018809c9	323949938	1	main_z	7	main_z	91	stimuli_target_squaretriangles.svg	stimuli_distractor_diamondtriangles.svg	7	yes	44	1	751
6.6.1	win	2022-12-15	16:20:06	16:25:13	304770	594c13bdb9380200018809c9	323949938	1	main_z	7	advance_on_keypress_ZEE	92	stimuli_target_squaretriangles.svg	stimuli_distractor_diamondtriangles.svg	7	yes	57	0	335
6.6.1	win	2022-12-15	16:20:06	16:25:15	306522	594c13bdb9380200018809c9	323949938	1	main_z	7	main_z	93	stimuli_target_diamondsquares.svg	stimuli_distractor_trianglediamonds.svg	20	yes	44	1	773
6.6.1	win	2022-12-15	16:20:06	16:25:15	306522	594c13bdb9380200018809c9	323949938	1	main_z	7	advance_on_keypress_ZEE	94	stimuli_target_diamondsquares.svg	stimuli_distractor_trianglediamonds.svg	20	yes	57	0	336
6.6.1	win	2022-12-15	16:20:06	16:25:17	308248	594c13bdb9380200018809c9	323949938	1	main_z	7	main_z	95	stimuli_distractor_trianglediamonds.svg	stimuli_target_circlediamonds.svg	10	yes	44	1	753
6.6.1	win	2022-12-15	16:20:06	16:25:17	308248	594c13bdb9380200018809c9	323949938	1	main_z	7	advance_on_keypress_ZEE	96	stimuli_distractor_trianglediamonds.svg	stimuli_target_circlediamonds.svg	10	yes	57	0	316
6.6.1	win	2022-12-15	16:20:06	16:25:19	310039	594c13bdb9380200018809c9	323949938	1	main_z	7	main_z	97	stimuli_distractor_trianglediamonds.svg	stimuli_target_diamondsquares.svg	28	yes	44	1	831
6.6.1	win	2022-12-15	16:20:06	16:25:19	310039	594c13bdb9380200018809c9	323949938	1	main_z	7	advance_on_keypress_ZEE	98	stimuli_distractor_trianglediamonds.svg	stimuli_target_diamondsquares.svg	28	yes	57	0	311
6.6.1	win	2022-12-15	16:20:06	16:25:20	311787	594c13bdb9380200018809c9	323949938	1	main_z	7	main_z	99	stimuli_distractor_diamondtriangles.svg	stimuli_target_trianglesquares.svg	30	yes	44	1	783
6.6.1	win	2022-12-15	16:20:06	16:25:20	311787	594c13bdb9380200018809c9	323949938	1	main_z	7	advance_on_keypress_ZEE	100	stimuli_distractor_diamondtriangles.svg	stimuli_target_trianglesquares.svg	30	yes	57	0	320
6.6.1	win	2022-12-15	16:20:06	16:25:22	313655	594c13bdb9380200018809c9	323949938	1	main_z	7	main_z	101	stimuli_distractor_diamondtriangles.svg	stimuli_distractor_trianglediamonds.svg	37	no	44	0	905
6.6.1	win	2022-12-15	16:20:06	16:25:22	313655	594c13bdb9380200018809c9	323949938	1	main_z	7	advance_on_keypress_ZEE	102	stimuli_distractor_diamondtriangles.svg	stimuli_distractor_trianglediamonds.svg	37	no	57	0	315
6.6.1	win	2022-12-15	16:20:06	16:25:25	316613	594c13bdb9380200018809c9	323949938	1	main_z	7	main_z	103	stimuli_distractor_trianglediamonds.svg	stimuli_distractor_diamondtriangles.svg	35	no	0	1	2000
6.6.1	win	2022-12-15	16:20:06	16:25:25	316613	594c13bdb9380200018809c9	323949938	1	main_z	7	advance_on_keypress_ZEE	104	stimuli_distractor_trianglediamonds.svg	stimuli_distractor_diamondtriangles.svg	35	no	57	0	702
6.6.1	win	2022-12-15	16:20:06	16:25:27	318757	594c13bdb9380200018809c9	323949938	1	main_z	7	main_z	105	stimuli_target_diamondsquares.svg	stimuli_distractor_diamondtriangles.svg	24	yes	44	1	801
6.6.1	win	2022-12-15	16:20:06	16:25:27	318757	594c13bdb9380200018809c9	323949938	1	main_z	7	advance_on_keypress_ZEE	106	stimuli_target_diamondsquares.svg	stimuli_distractor_diamondtriangles.svg	24	yes	57	0	651
6.6.1	win	2022-12-15	16:20:06	16:25:29	320858	594c13bdb9380200018809c9	323949938	1	main_z	7	main_z	107	stimuli_distractor_diamondtriangles.svg	stimuli_target_diamondsquares.svg	32	yes	44	1	806
6.6.1	win	2022-12-15	16:20:06	16:25:29	320858	594c13bdb9380200018809c9	323949938	1	main_z	7	advance_on_keypress_ZEE	108	stimuli_distractor_diamondtriangles.svg	stimuli_target_diamondsquares.svg	32	yes	57	0	411
6.6.1	win	2022-12-15	16:20:06	16:25:32	323493	594c13bdb9380200018809c9	323949938	1	main_z	7	main_z	109	stimuli_distractor_diamondtriangles.svg	stimuli_target_squarediamonds.svg	16	yes	44	1	1561
6.6.1	win	2022-12-15	16:20:06	16:25:32	323493	594c13bdb9380200018809c9	323949938	1	main_z	7	advance_on_keypress_ZEE	110	stimuli_distractor_diamondtriangles.svg	stimuli_target_squarediamonds.svg	16	yes	57	0	916
6.6.1	win	2022-12-15	16:20:06	16:25:34	325792	594c13bdb9380200018809c9	323949938	1	main_z	7	main_z	111	stimuli_target_circlediamonds.svg	stimuli_distractor_diamondtriangles.svg	6	yes	44	1	734
6.6.1	win	2022-12-15	16:20:06	16:25:34	325792	594c13bdb9380200018809c9	323949938	1	main_z	7	advance_on_keypress_ZEE	112	stimuli_target_circlediamonds.svg	stimuli_distractor_diamondtriangles.svg	6	yes	57	0	446
6.6.1	win	2022-12-15	16:20:06	16:25:36	327820	594c13bdb9380200018809c9	323949938	1	main_z	7	main_z	113	stimuli_target_squarediamonds.svg	stimuli_distractor_diamondtriangles.svg	8	yes	44	1	933
6.6.1	win	2022-12-15	16:20:06	16:25:36	327820	594c13bdb9380200018809c9	323949938	1	main_z	7	advance_on_keypress_ZEE	114	stimuli_target_squarediamonds.svg	stimuli_distractor_diamondtriangles.svg	8	yes	57	0	307
6.6.1	win	2022-12-15	16:20:06	16:25:38	329469	594c13bdb9380200018809c9	323949938	1	main_z	7	main_z	115	stimuli_distractor_diamondtriangles.svg	stimuli_target_circletriangles.svg	13	yes	44	1	702
6.6.1	win	2022-12-15	16:20:06	16:25:38	329469	594c13bdb9380200018809c9	323949938	1	main_z	7	advance_on_keypress_ZEE	116	stimuli_distractor_diamondtriangles.svg	stimuli_target_circletriangles.svg	13	yes	57	0	321
6.6.1	win	2022-12-15	16:20:06	16:25:40	331227	594c13bdb9380200018809c9	323949938	1	main_z	7	main_z	117	stimuli_distractor_diamondtriangles.svg	stimuli_distractor_trianglediamonds.svg	38	no	44	0	797
6.6.1	win	2022-12-15	16:20:06	16:25:40	331227	594c13bdb9380200018809c9	323949938	1	main_z	7	advance_on_keypress_ZEE	118	stimuli_distractor_diamondtriangles.svg	stimuli_distractor_trianglediamonds.svg	38	no	57	0	351
6.6.1	win	2022-12-15	16:20:06	16:25:43	334226	594c13bdb9380200018809c9	323949938	1	main_z	7	main_z	119	stimuli_target_squaretriangles.svg	stimuli_distractor_trianglediamonds.svg	3	yes	0	0	2000
6.6.1	win	2022-12-15	16:20:06	16:25:43	334226	594c13bdb9380200018809c9	323949938	1	main_z	7	advance_on_keypress_ZEE	120	stimuli_target_squaretriangles.svg	stimuli_distractor_trianglediamonds.svg	3	yes	57	0	348
6.6.1	win	2022-12-15	16:20:06	16:25:44	335982	594c13bdb9380200018809c9	323949938	1	main_z	7	main_z	121	stimuli_target_trianglesquares.svg	stimuli_distractor_trianglediamonds.svg	18	yes	44	1	763
6.6.1	win	2022-12-15	16:20:06	16:25:44	335982	594c13bdb9380200018809c9	323949938	1	main_z	7	advance_on_keypress_ZEE	122	stimuli_target_trianglesquares.svg	stimuli_distractor_trianglediamonds.svg	18	yes	57	0	349
6.6.1	win	2022-12-15	16:20:06	16:25:46	337665	594c13bdb9380200018809c9	323949938	1	main_z	7	main_z	123	stimuli_target_circletriangles.svg	stimuli_distractor_trianglediamonds.svg	1	yes	44	1	683
6.6.1	win	2022-12-15	16:20:06	16:25:46	337665	594c13bdb9380200018809c9	323949938	1	main_z	7	advance_on_keypress_ZEE	124	stimuli_target_circletriangles.svg	stimuli_distractor_trianglediamonds.svg	1	yes	57	0	367
6.6.1	win	2022-12-15	16:20:06	16:25:48	339361	594c13bdb9380200018809c9	323949938	1	main_z	7	main_z	125	stimuli_target_squarediamonds.svg	stimuli_distractor_trianglediamonds.svg	4	yes	44	1	682
6.6.1	win	2022-12-15	16:20:06	16:25:48	339361	594c13bdb9380200018809c9	323949938	1	main_z	7	advance_on_keypress_ZEE	126	stimuli_target_squarediamonds.svg	stimuli_distractor_trianglediamonds.svg	4	yes	57	0	371
6.6.1	win	2022-12-15	16:20:06	16:25:50	341536	594c13bdb9380200018809c9	323949938	1	main_z	7	main_z	127	stimuli_target_trianglesquares.svg	stimuli_distractor_diamondtriangles.svg	22	yes	44	1	1160
6.6.1	win	2022-12-15	16:20:06	16:25:50	341536	594c13bdb9380200018809c9	323949938	1	main_z	7	advance_on_keypress_ZEE	128	stimuli_target_trianglesquares.svg	stimuli_distractor_diamondtriangles.svg	22	yes	57	0	334
6.6.1	win	2022-12-15	16:20:06	16:25:52	343217	594c13bdb9380200018809c9	323949938	1	main_z	7	main_z	129	stimuli_target_trianglecircles.svg	stimuli_distractor_trianglediamonds.svg	17	yes	44	1	698
6.6.1	win	2022-12-15	16:20:06	16:25:52	343217	594c13bdb9380200018809c9	323949938	1	main_z	7	advance_on_keypress_ZEE	130	stimuli_target_trianglecircles.svg	stimuli_distractor_trianglediamonds.svg	17	yes	57	0	349
6.6.1	win	2022-12-15	16:20:06	16:25:53	345007	594c13bdb9380200018809c9	323949938	1	main_z	7	main_z	131	stimuli_target_trianglecircles.svg	stimuli_distractor_diamondtriangles.svg	21	yes	44	1	790
6.6.1	win	2022-12-15	16:20:06	16:25:53	345007	594c13bdb9380200018809c9	323949938	1	main_z	7	advance_on_keypress_ZEE	132	stimuli_target_trianglecircles.svg	stimuli_distractor_diamondtriangles.svg	21	yes	57	0	333
6.6.1	win	2022-12-15	16:20:06	16:25:56	347997	594c13bdb9380200018809c9	323949938	1	main_z	7	main_z	133	stimuli_distractor_diamondtriangles.svg	stimuli_distractor_diamondtriangles.svg	40	no	0	1	2000
6.6.1	win	2022-12-15	16:20:06	16:25:56	347997	594c13bdb9380200018809c9	323949938	1	main_z	7	advance_on_keypress_ZEE	134	stimuli_distractor_diamondtriangles.svg	stimuli_distractor_diamondtriangles.svg	40	no	57	0	151
6.6.1	win	2022-12-15	16:20:06	16:25:59	350790	594c13bdb9380200018809c9	323949938	1	main_z	7	main_z	135	stimuli_distractor_trianglediamonds.svg	stimuli_distractor_trianglediamonds.svg	33	no	0	1	2000
6.6.1	win	2022-12-15	16:20:06	16:25:59	350790	594c13bdb9380200018809c9	323949938	1	main_z	7	advance_on_keypress_ZEE	136	stimuli_distractor_trianglediamonds.svg	stimuli_distractor_trianglediamonds.svg	33	no	57	0	767
6.6.1	win	2022-12-15	16:20:06	16:26:01	352773	594c13bdb9380200018809c9	323949938	1	main_z	7	main_z	137	stimuli_distractor_trianglediamonds.svg	stimuli_target_squarediamonds.svg	12	yes	44	1	573
6.6.1	win	2022-12-15	16:20:06	16:26:01	352773	594c13bdb9380200018809c9	323949938	1	main_z	7	advance_on_keypress_ZEE	138	stimuli_distractor_trianglediamonds.svg	stimuli_target_squarediamonds.svg	12	yes	57	0	359
6.6.1	win	2022-12-15	16:20:06	16:26:03	354395	594c13bdb9380200018809c9	323949938	1	main_z	7	main_z	139	stimuli_distractor_diamondtriangles.svg	stimuli_target_diamondcircles.svg	31	yes	44	1	599
6.6.1	win	2022-12-15	16:20:06	16:26:03	354395	594c13bdb9380200018809c9	323949938	1	main_z	7	advance_on_keypress_ZEE	140	stimuli_distractor_diamondtriangles.svg	stimuli_target_diamondcircles.svg	31	yes	57	0	362
6.6.1	win	2022-12-15	16:20:06	16:26:05	356159	594c13bdb9380200018809c9	323949938	1	main_z	7	main_z	141	stimuli_distractor_trianglediamonds.svg	stimuli_distractor_diamondtriangles.svg	36	no	44	0	750
6.6.1	win	2022-12-15	16:20:06	16:26:05	356159	594c13bdb9380200018809c9	323949938	1	main_z	7	advance_on_keypress_ZEE	142	stimuli_distractor_trianglediamonds.svg	stimuli_distractor_diamondtriangles.svg	36	no	57	0	346
6.6.1	win	2022-12-15	16:20:06	16:26:06	357772	594c13bdb9380200018809c9	323949938	1	main_z	7	main_z	143	stimuli_target_circletriangles.svg	stimuli_distractor_diamondtriangles.svg	5	yes	44	1	616
6.6.1	win	2022-12-15	16:20:06	16:26:06	357772	594c13bdb9380200018809c9	323949938	1	main_z	7	advance_on_keypress_ZEE	144	stimuli_target_circletriangles.svg	stimuli_distractor_diamondtriangles.svg	5	yes	57	0	378
6.6.1	win	2022-12-15	16:20:06	16:26:08	359478	594c13bdb9380200018809c9	323949938	1	main_z	7	main_z	145	stimuli_distractor_trianglediamonds.svg	stimuli_target_diamondcircles.svg	27	yes	44	1	676
6.6.1	win	2022-12-15	16:20:06	16:26:08	359478	594c13bdb9380200018809c9	323949938	1	main_z	7	advance_on_keypress_ZEE	146	stimuli_distractor_trianglediamonds.svg	stimuli_target_diamondcircles.svg	27	yes	57	0	340
6.6.1	win	2022-12-15	16:20:06	16:26:10	361232	594c13bdb9380200018809c9	323949938	1	main_z	7	main_z	147	stimuli_distractor_diamondtriangles.svg	stimuli_target_squaretriangles.svg	15	yes	44	1	767
6.6.1	win	2022-12-15	16:20:06	16:26:10	361232	594c13bdb9380200018809c9	323949938	1	main_z	7	advance_on_keypress_ZEE	148	stimuli_distractor_diamondtriangles.svg	stimuli_target_squaretriangles.svg	15	yes	57	0	306
6.6.1	win	2022-12-15	16:20:06	16:26:13	364179	594c13bdb9380200018809c9	323949938	1	main_z	7	main_z	149	stimuli_distractor_trianglediamonds.svg	stimuli_distractor_trianglediamonds.svg	34	no	0	1	2000
6.6.1	win	2022-12-15	16:20:06	16:26:13	364179	594c13bdb9380200018809c9	323949938	1	main_z	7	advance_on_keypress_ZEE	150	stimuli_distractor_trianglediamonds.svg	stimuli_distractor_trianglediamonds.svg	34	no	57	0	516
6.6.1	win	2022-12-15	16:20:06	16:26:14	365897	594c13bdb9380200018809c9	323949938	1	main_z	7	main_z	151	stimuli_distractor_diamondtriangles.svg	stimuli_target_trianglecircles.svg	29	yes	44	1	559
6.6.1	win	2022-12-15	16:20:06	16:26:14	365897	594c13bdb9380200018809c9	323949938	1	main_z	7	advance_on_keypress_ZEE	152	stimuli_distractor_diamondtriangles.svg	stimuli_target_trianglecircles.svg	29	yes	57	0	362
6.6.1	win	2022-12-15	16:20:06	16:26:16	367416	594c13bdb9380200018809c9	323949938	1	main_z	7	main_z	153	stimuli_distractor_trianglediamonds.svg	stimuli_target_trianglesquares.svg	26	yes	44	1	497
6.6.1	win	2022-12-15	16:20:06	16:26:16	367416	594c13bdb9380200018809c9	323949938	1	main_z	7	advance_on_keypress_ZEE	154	stimuli_distractor_trianglediamonds.svg	stimuli_target_trianglesquares.svg	26	yes	57	0	381
6.6.1	win	2022-12-15	16:20:06	16:26:18	369078	594c13bdb9380200018809c9	323949938	1	main_z	7	main_z	155	stimuli_distractor_trianglediamonds.svg	stimuli_target_squaretriangles.svg	11	yes	44	1	630
6.6.1	win	2022-12-15	16:20:06	16:26:18	369078	594c13bdb9380200018809c9	323949938	1	main_z	7	advance_on_keypress_ZEE	156	stimuli_distractor_trianglediamonds.svg	stimuli_target_squaretriangles.svg	11	yes	57	0	310
6.6.1	win	2022-12-15	16:20:06	16:26:19	370726	594c13bdb9380200018809c9	323949938	1	main_z	7	main_z	157	stimuli_target_diamondcircles.svg	stimuli_distractor_trianglediamonds.svg	19	yes	44	1	681
6.6.1	win	2022-12-15	16:20:06	16:26:19	370726	594c13bdb9380200018809c9	323949938	1	main_z	7	advance_on_keypress_ZEE	158	stimuli_target_diamondcircles.svg	stimuli_distractor_trianglediamonds.svg	19	yes	57	0	303
6.6.1	win	2022-12-15	16:20:06	16:26:21	372603	594c13bdb9380200018809c9	323949938	1	main_z	7	main_z	159	stimuli_distractor_diamondtriangles.svg	stimuli_distractor_diamondtriangles.svg	39	no	44	0	928
6.6.1	win	2022-12-15	16:20:06	16:26:21	372603	594c13bdb9380200018809c9	323949938	1	main_z	7	advance_on_keypress_ZEE	160	stimuli_distractor_diamondtriangles.svg	stimuli_distractor_diamondtriangles.svg	39	no	57	0	286
6.6.1	win	2022-12-15	16:20:06	16:26:43	394877	594c13bdb9380200018809c9	323949938	1	practice_slash	9	practice_slash	1	stimuli_target_diamondsquares.svg	stimuli_distractor_trianglediamonds.svg	6	yes	53	1	1027
6.6.1	win	2022-12-15	16:20:06	16:26:43	394877	594c13bdb9380200018809c9	323949938	1	practice_slash	9	advance_on_keypress_SLASH	2	stimuli_target_diamondsquares.svg	stimuli_distractor_trianglediamonds.svg	6	yes	57	0	2195
6.6.1	win	2022-12-15	16:20:06	16:26:48	399634	594c13bdb9380200018809c9	323949938	1	practice_slash	9	practice_slash	3	stimuli_distractor_trianglediamonds.svg	stimuli_distractor_diamondtriangles.svg	16	no	53	0	913
6.6.1	win	2022-12-15	16:20:06	16:26:48	399634	594c13bdb9380200018809c9	323949938	1	practice_slash	9	advance_on_keypress_SLASH	4	stimuli_distractor_trianglediamonds.svg	stimuli_distractor_diamondtriangles.svg	16	no	57	0	411
6.6.1	win	2022-12-15	16:20:06	16:26:51	402311	594c13bdb9380200018809c9	323949938	1	practice_slash	9	practice_slash	5	stimuli_target_squarediamonds.svg	stimuli_distractor_diamondtriangles.svg	2	yes	53	1	611
6.6.1	win	2022-12-15	16:20:06	16:26:51	402311	594c13bdb9380200018809c9	323949938	1	practice_slash	9	advance_on_keypress_SLASH	6	stimuli_target_squarediamonds.svg	stimuli_distractor_diamondtriangles.svg	2	yes	57	0	42
6.6.1	win	2022-12-15	16:20:06	16:26:54	405402	594c13bdb9380200018809c9	323949938	1	practice_slash	9	practice_slash	7	stimuli_distractor_trianglediamonds.svg	stimuli_target_circlediamonds.svg	10	yes	53	1	1392
6.6.1	win	2022-12-15	16:20:06	16:26:54	405402	594c13bdb9380200018809c9	323949938	1	practice_slash	9	advance_on_keypress_SLASH	8	stimuli_distractor_trianglediamonds.svg	stimuli_target_circlediamonds.svg	10	yes	57	0	482
6.6.1	win	2022-12-15	16:20:06	16:26:57	408671	594c13bdb9380200018809c9	323949938	1	practice_slash	9	practice_slash	9	stimuli_distractor_diamondtriangles.svg	stimuli_target_trianglecircles.svg	9	yes	53	1	1135
6.6.1	win	2022-12-15	16:20:06	16:26:57	408671	594c13bdb9380200018809c9	323949938	1	practice_slash	9	advance_on_keypress_SLASH	10	stimuli_distractor_diamondtriangles.svg	stimuli_target_trianglecircles.svg	9	yes	57	0	573
6.6.1	win	2022-12-15	16:20:06	16:27:00	411808	594c13bdb9380200018809c9	323949938	1	practice_slash	9	practice_slash	11	stimuli_distractor_diamondtriangles.svg	stimuli_target_circletriangles.svg	7	yes	53	1	895
6.6.1	win	2022-12-15	16:20:06	16:27:00	411808	594c13bdb9380200018809c9	323949938	1	practice_slash	9	advance_on_keypress_SLASH	12	stimuli_distractor_diamondtriangles.svg	stimuli_target_circletriangles.svg	7	yes	57	0	282
6.6.1	win	2022-12-15	16:20:06	16:27:03	414222	594c13bdb9380200018809c9	323949938	1	practice_slash	9	practice_slash	13	stimuli_distractor_trianglediamonds.svg	stimuli_target_squarediamonds.svg	11	yes	53	1	482
6.6.1	win	2022-12-15	16:20:06	16:27:03	414222	594c13bdb9380200018809c9	323949938	1	practice_slash	9	advance_on_keypress_SLASH	14	stimuli_distractor_trianglediamonds.svg	stimuli_target_squarediamonds.svg	11	yes	57	0	340
6.6.1	win	2022-12-15	16:20:06	16:27:05	416683	594c13bdb9380200018809c9	323949938	1	practice_slash	9	practice_slash	15	stimuli_distractor_trianglediamonds.svg	stimuli_target_diamondcircles.svg	12	yes	53	1	483
6.6.1	win	2022-12-15	16:20:06	16:27:05	416683	594c13bdb9380200018809c9	323949938	1	practice_slash	9	advance_on_keypress_SLASH	16	stimuli_distractor_trianglediamonds.svg	stimuli_target_diamondcircles.svg	12	yes	57	0	341
6.6.1	win	2022-12-15	16:20:06	16:27:08	419153	594c13bdb9380200018809c9	323949938	1	practice_slash	9	practice_slash	17	stimuli_target_circlediamonds.svg	stimuli_distractor_diamondtriangles.svg	1	yes	53	1	491
6.6.1	win	2022-12-15	16:20:06	16:27:08	419153	594c13bdb9380200018809c9	323949938	1	practice_slash	9	advance_on_keypress_SLASH	18	stimuli_target_circlediamonds.svg	stimuli_distractor_diamondtriangles.svg	1	yes	57	0	252
6.6.1	win	2022-12-15	16:20:06	16:27:12	423057	594c13bdb9380200018809c9	323949938	1	practice_slash	9	practice_slash	19	stimuli_distractor_diamondtriangles.svg	stimuli_distractor_diamondtriangles.svg	13	no	0	1	2000
6.6.1	win	2022-12-15	16:20:06	16:27:12	423057	594c13bdb9380200018809c9	323949938	1	practice_slash	9	advance_on_keypress_SLASH	20	stimuli_distractor_diamondtriangles.svg	stimuli_distractor_diamondtriangles.svg	13	no	57	0	540
6.6.1	win	2022-12-15	16:20:06	16:27:14	425778	594c13bdb9380200018809c9	323949938	1	practice_slash	9	practice_slash	21	stimuli_target_circlediamonds.svg	stimuli_distractor_trianglediamonds.svg	4	yes	53	1	506
6.6.1	win	2022-12-15	16:20:06	16:27:14	425778	594c13bdb9380200018809c9	323949938	1	practice_slash	9	advance_on_keypress_SLASH	22	stimuli_target_circlediamonds.svg	stimuli_distractor_trianglediamonds.svg	4	yes	57	0	469
6.6.1	win	2022-12-15	16:20:06	16:27:17	428606	594c13bdb9380200018809c9	323949938	1	practice_slash	9	practice_slash	23	stimuli_distractor_diamondtriangles.svg	stimuli_target_diamondcircles.svg	8	yes	53	1	712
6.6.1	win	2022-12-15	16:20:06	16:27:17	428606	594c13bdb9380200018809c9	323949938	1	practice_slash	9	advance_on_keypress_SLASH	24	stimuli_distractor_diamondtriangles.svg	stimuli_target_diamondcircles.svg	8	yes	57	0	4
6.6.1	win	2022-12-15	16:20:06	16:27:20	431129	594c13bdb9380200018809c9	323949938	1	practice_slash	9	practice_slash	25	stimuli_target_diamondsquares.svg	stimuli_distractor_diamondtriangles.svg	3	yes	53	1	857
6.6.1	win	2022-12-15	16:20:06	16:27:20	431129	594c13bdb9380200018809c9	323949938	1	practice_slash	9	advance_on_keypress_SLASH	26	stimuli_target_diamondsquares.svg	stimuli_distractor_diamondtriangles.svg	3	yes	57	0	665
6.6.1	win	2022-12-15	16:20:06	16:27:22	433981	594c13bdb9380200018809c9	323949938	1	practice_slash	9	practice_slash	27	stimuli_target_squarediamonds.svg	stimuli_distractor_trianglediamonds.svg	5	yes	53	1	534
6.6.1	win	2022-12-15	16:20:06	16:27:22	433981	594c13bdb9380200018809c9	323949938	1	practice_slash	9	advance_on_keypress_SLASH	28	stimuli_target_squarediamonds.svg	stimuli_distractor_trianglediamonds.svg	5	yes	57	0	320
6.6.1	win	2022-12-15	16:20:06	16:27:26	437943	594c13bdb9380200018809c9	323949938	1	practice_slash	9	practice_slash	29	stimuli_distractor_diamondtriangles.svg	stimuli_distractor_trianglediamonds.svg	14	no	0	1	2000
6.6.1	win	2022-12-15	16:20:06	16:27:26	437943	594c13bdb9380200018809c9	323949938	1	practice_slash	9	advance_on_keypress_SLASH	30	stimuli_distractor_diamondtriangles.svg	stimuli_distractor_trianglediamonds.svg	14	no	57	0	888
6.6.1	win	2022-12-15	16:20:06	16:27:30	441287	594c13bdb9380200018809c9	323949938	1	practice_slash	9	practice_slash	31	stimuli_distractor_trianglediamonds.svg	stimuli_distractor_trianglediamonds.svg	15	no	53	0	804
6.6.1	win	2022-12-15	16:20:06	16:27:30	441287	594c13bdb9380200018809c9	323949938	1	practice_slash	9	advance_on_keypress_SLASH	32	stimuli_distractor_trianglediamonds.svg	stimuli_distractor_trianglediamonds.svg	15	no	57	0	433
6.6.1	win	2022-12-15	16:20:06	16:27:35	446948	594c13bdb9380200018809c9	323949938	1	main_slash	11	main_slash	1	stimuli_distractor_trianglediamonds.svg	stimuli_target_squaretriangles.svg	11	yes	53	1	450
6.6.1	win	2022-12-15	16:20:06	16:27:35	446948	594c13bdb9380200018809c9	323949938	1	main_slash	11	advance_on_keypress_SLASH	2	stimuli_distractor_trianglediamonds.svg	stimuli_target_squaretriangles.svg	11	yes	57	0	1218
6.6.1	win	2022-12-15	16:20:06	16:27:38	449252	594c13bdb9380200018809c9	323949938	1	main_slash	11	main_slash	3	stimuli_target_squarediamonds.svg	stimuli_distractor_trianglediamonds.svg	4	yes	53	1	441
6.6.1	win	2022-12-15	16:20:06	16:27:38	449252	594c13bdb9380200018809c9	323949938	1	main_slash	11	advance_on_keypress_SLASH	4	stimuli_target_squarediamonds.svg	stimuli_distractor_trianglediamonds.svg	4	yes	57	0	448
6.6.1	win	2022-12-15	16:20:06	16:27:39	450677	594c13bdb9380200018809c9	323949938	1	main_slash	11	main_slash	5	stimuli_target_trianglecircles.svg	stimuli_distractor_diamondtriangles.svg	21	yes	53	1	320
6.6.1	win	2022-12-15	16:20:06	16:27:39	450677	594c13bdb9380200018809c9	323949938	1	main_slash	11	advance_on_keypress_SLASH	6	stimuli_target_trianglecircles.svg	stimuli_distractor_diamondtriangles.svg	21	yes	57	0	389
6.6.1	win	2022-12-15	16:20:06	16:27:41	452023	594c13bdb9380200018809c9	323949938	1	main_slash	11	main_slash	7	stimuli_distractor_diamondtriangles.svg	stimuli_target_circlediamonds.svg	14	yes	53	1	319
6.6.1	win	2022-12-15	16:20:06	16:27:41	452023	594c13bdb9380200018809c9	323949938	1	main_slash	11	advance_on_keypress_SLASH	8	stimuli_distractor_diamondtriangles.svg	stimuli_target_circlediamonds.svg	14	yes	57	0	495
6.6.1	win	2022-12-15	16:20:06	16:27:44	455168	594c13bdb9380200018809c9	323949938	1	main_slash	11	main_slash	9	stimuli_distractor_trianglediamonds.svg	stimuli_distractor_diamondtriangles.svg	35	no	0	1	2000
6.6.1	win	2022-12-15	16:20:06	16:27:44	455168	594c13bdb9380200018809c9	323949938	1	main_slash	11	advance_on_keypress_SLASH	10	stimuli_distractor_trianglediamonds.svg	stimuli_distractor_diamondtriangles.svg	35	no	57	0	497
6.6.1	win	2022-12-15	16:20:06	16:27:46	457123	594c13bdb9380200018809c9	323949938	1	main_slash	11	main_slash	11	stimuli_distractor_trianglediamonds.svg	stimuli_distractor_diamondtriangles.svg	36	no	53	0	812
6.6.1	win	2022-12-15	16:20:06	16:27:46	457123	594c13bdb9380200018809c9	323949938	1	main_slash	11	advance_on_keypress_SLASH	12	stimuli_distractor_trianglediamonds.svg	stimuli_distractor_diamondtriangles.svg	36	no	57	0	395
6.6.1	win	2022-12-15	16:20:06	16:27:47	458795	594c13bdb9380200018809c9	323949938	1	main_slash	11	main_slash	13	stimuli_target_trianglecircles.svg	stimuli_distractor_trianglediamonds.svg	17	yes	53	1	621
6.6.1	win	2022-12-15	16:20:06	16:27:47	458795	594c13bdb9380200018809c9	323949938	1	main_slash	11	advance_on_keypress_SLASH	14	stimuli_target_trianglecircles.svg	stimuli_distractor_trianglediamonds.svg	17	yes	57	0	1366
6.6.1	win	2022-12-15	16:20:06	16:27:50	461379	594c13bdb9380200018809c9	323949938	1	main_slash	11	main_slash	15	stimuli_distractor_diamondtriangles.svg	stimuli_target_squaretriangles.svg	15	yes	53	1	578
6.6.1	win	2022-12-15	16:20:06	16:27:50	461379	594c13bdb9380200018809c9	323949938	1	main_slash	11	advance_on_keypress_SLASH	16	stimuli_distractor_diamondtriangles.svg	stimuli_target_squaretriangles.svg	15	yes	57	0	665
6.6.1	win	2022-12-15	16:20:06	16:27:52	463176	594c13bdb9380200018809c9	323949938	1	main_slash	11	main_slash	17	stimuli_target_diamondcircles.svg	stimuli_distractor_trianglediamonds.svg	19	yes	53	1	479
6.6.1	win	2022-12-15	16:20:06	16:27:52	463176	594c13bdb9380200018809c9	323949938	1	main_slash	11	advance_on_keypress_SLASH	18	stimuli_target_diamondcircles.svg	stimuli_distractor_trianglediamonds.svg	19	yes	57	0	477
6.6.1	win	2022-12-15	16:20:06	16:27:53	464586	594c13bdb9380200018809c9	323949938	1	main_slash	11	main_slash	19	stimuli_distractor_diamondtriangles.svg	stimuli_distractor_trianglediamonds.svg	37	no	53	0	275
6.6.1	win	2022-12-15	16:20:06	16:27:53	464586	594c13bdb9380200018809c9	323949938	1	main_slash	11	advance_on_keypress_SLASH	20	stimuli_distractor_diamondtriangles.svg	stimuli_distractor_trianglediamonds.svg	37	no	57	0	469
6.6.1	win	2022-12-15	16:20:06	16:27:55	466360	594c13bdb9380200018809c9	323949938	1	main_slash	11	main_slash	21	stimuli_distractor_diamondtriangles.svg	stimuli_target_diamondcircles.svg	31	yes	53	1	652
6.6.1	win	2022-12-15	16:20:06	16:27:55	466360	594c13bdb9380200018809c9	323949938	1	main_slash	11	advance_on_keypress_SLASH	22	stimuli_distractor_diamondtriangles.svg	stimuli_target_diamondcircles.svg	31	yes	57	0	405
6.6.1	win	2022-12-15	16:20:06	16:27:57	468203	594c13bdb9380200018809c9	323949938	1	main_slash	11	main_slash	23	stimuli_target_squarediamonds.svg	stimuli_distractor_diamondtriangles.svg	8	yes	53	1	799
6.6.1	win	2022-12-15	16:20:06	16:27:57	468203	594c13bdb9380200018809c9	323949938	1	main_slash	11	advance_on_keypress_SLASH	24	stimuli_target_squarediamonds.svg	stimuli_distractor_diamondtriangles.svg	8	yes	57	0	428
6.6.1	win	2022-12-15	16:20:06	16:27:59	470089	594c13bdb9380200018809c9	323949938	1	main_slash	11	main_slash	25	stimuli_distractor_diamondtriangles.svg	stimuli_target_circletriangles.svg	13	yes	53	1	805
6.6.1	win	2022-12-15	16:20:06	16:27:59	470089	594c13bdb9380200018809c9	323949938	1	main_slash	11	advance_on_keypress_SLASH	26	stimuli_distractor_diamondtriangles.svg	stimuli_target_circletriangles.svg	13	yes	57	0	352
6.6.1	win	2022-12-15	16:20:06	16:28:00	471837	594c13bdb9380200018809c9	323949938	1	main_slash	11	main_slash	27	stimuli_target_circlediamonds.svg	stimuli_distractor_diamondtriangles.svg	6	yes	53	1	757
6.6.1	win	2022-12-15	16:20:06	16:28:00	471837	594c13bdb9380200018809c9	323949938	1	main_slash	11	advance_on_keypress_SLASH	28	stimuli_target_circlediamonds.svg	stimuli_distractor_diamondtriangles.svg	6	yes	57	0	334
6.6.1	win	2022-12-15	16:20:06	16:28:02	473490	594c13bdb9380200018809c9	323949938	1	main_slash	11	main_slash	29	stimuli_distractor_trianglediamonds.svg	stimuli_target_diamondcircles.svg	27	yes	53	1	664
6.6.1	win	2022-12-15	16:20:06	16:28:02	473490	594c13bdb9380200018809c9	323949938	1	main_slash	11	advance_on_keypress_SLASH	30	stimuli_distractor_trianglediamonds.svg	stimuli_target_diamondcircles.svg	27	yes	57	0	341
6.6.1	win	2022-12-15	16:20:06	16:28:05	476489	594c13bdb9380200018809c9	323949938	1	main_slash	11	main_slash	31	stimuli_target_diamondsquares.svg	stimuli_distractor_diamondtriangles.svg	24	yes	0	0	2000
6.6.1	win	2022-12-15	16:20:06	16:28:05	476489	594c13bdb9380200018809c9	323949938	1	main_slash	11	advance_on_keypress_SLASH	32	stimuli_target_diamondsquares.svg	stimuli_distractor_diamondtriangles.svg	24	yes	57	0	240
6.6.1	win	2022-12-15	16:20:06	16:28:06	478000	594c13bdb9380200018809c9	323949938	1	main_slash	11	main_slash	33	stimuli_target_circlediamonds.svg	stimuli_distractor_trianglediamonds.svg	2	yes	53	1	634
6.6.1	win	2022-12-15	16:20:06	16:28:06	478000	594c13bdb9380200018809c9	323949938	1	main_slash	11	advance_on_keypress_SLASH	34	stimuli_target_circlediamonds.svg	stimuli_distractor_trianglediamonds.svg	2	yes	57	0	394
6.6.1	win	2022-12-15	16:20:06	16:28:08	479693	594c13bdb9380200018809c9	323949938	1	main_slash	11	main_slash	35	stimuli_distractor_trianglediamonds.svg	stimuli_target_trianglesquares.svg	26	yes	53	1	647
6.6.1	win	2022-12-15	16:20:06	16:28:08	479693	594c13bdb9380200018809c9	323949938	1	main_slash	11	advance_on_keypress_SLASH	36	stimuli_distractor_trianglediamonds.svg	stimuli_target_trianglesquares.svg	26	yes	57	0	328
6.6.1	win	2022-12-15	16:20:06	16:28:10	481339	594c13bdb9380200018809c9	323949938	1	main_slash	11	main_slash	37	stimuli_target_circletriangles.svg	stimuli_distractor_diamondtriangles.svg	5	yes	53	1	662
6.6.1	win	2022-12-15	16:20:06	16:28:10	481339	594c13bdb9380200018809c9	323949938	1	main_slash	11	advance_on_keypress_SLASH	38	stimuli_target_circletriangles.svg	stimuli_distractor_diamondtriangles.svg	5	yes	57	0	332
6.6.1	win	2022-12-15	16:20:06	16:28:13	484322	594c13bdb9380200018809c9	323949938	1	main_slash	11	main_slash	39	stimuli_distractor_diamondtriangles.svg	stimuli_distractor_diamondtriangles.svg	40	no	0	1	2000
6.6.1	win	2022-12-15	16:20:06	16:28:13	484322	594c13bdb9380200018809c9	323949938	1	main_slash	11	advance_on_keypress_SLASH	40	stimuli_distractor_diamondtriangles.svg	stimuli_distractor_diamondtriangles.svg	40	no	57	0	162
6.6.1	win	2022-12-15	16:20:06	16:28:14	485802	594c13bdb9380200018809c9	323949938	1	main_slash	11	main_slash	41	stimuli_target_squaretriangles.svg	stimuli_distractor_trianglediamonds.svg	3	yes	53	1	669
6.6.1	win	2022-12-15	16:20:06	16:28:14	485802	594c13bdb9380200018809c9	323949938	1	main_slash	11	advance_on_keypress_SLASH	42	stimuli_target_squaretriangles.svg	stimuli_distractor_trianglediamonds.svg	3	yes	57	0	377
6.6.1	win	2022-12-15	16:20:06	16:28:16	487589	594c13bdb9380200018809c9	323949938	1	main_slash	11	main_slash	43	stimuli_target_trianglesquares.svg	stimuli_distractor_trianglediamonds.svg	18	yes	53	1	759
6.6.1	win	2022-12-15	16:20:06	16:28:16	487589	594c13bdb9380200018809c9	323949938	1	main_slash	11	advance_on_keypress_SLASH	44	stimuli_target_trianglesquares.svg	stimuli_distractor_trianglediamonds.svg	18	yes	57	0	388
6.6.1	win	2022-12-15	16:20:06	16:28:18	489366	594c13bdb9380200018809c9	323949938	1	main_slash	11	main_slash	45	stimuli_distractor_trianglediamonds.svg	stimuli_target_circletriangles.svg	9	yes	53	1	740
6.6.1	win	2022-12-15	16:20:06	16:28:18	489366	594c13bdb9380200018809c9	323949938	1	main_slash	11	advance_on_keypress_SLASH	46	stimuli_distractor_trianglediamonds.svg	stimuli_target_circletriangles.svg	9	yes	57	0	372
6.6.1	win	2022-12-15	16:20:06	16:28:20	491199	594c13bdb9380200018809c9	323949938	1	main_slash	11	main_slash	47	stimuli_distractor_diamondtriangles.svg	stimuli_target_trianglesquares.svg	30	yes	53	1	810
6.6.1	win	2022-12-15	16:20:06	16:28:20	491199	594c13bdb9380200018809c9	323949938	1	main_slash	11	advance_on_keypress_SLASH	48	stimuli_distractor_diamondtriangles.svg	stimuli_target_trianglesquares.svg	30	yes	57	0	370
6.6.1	win	2022-12-15	16:20:06	16:28:23	494218	594c13bdb9380200018809c9	323949938	1	main_slash	11	main_slash	49	stimuli_distractor_trianglediamonds.svg	stimuli_distractor_trianglediamonds.svg	34	no	0	1	2000
6.6.1	win	2022-12-15	16:20:06	16:28:23	494218	594c13bdb9380200018809c9	323949938	1	main_slash	11	advance_on_keypress_SLASH	50	stimuli_distractor_trianglediamonds.svg	stimuli_distractor_trianglediamonds.svg	34	no	57	0	432
6.6.1	win	2022-12-15	16:20:06	16:28:24	495769	594c13bdb9380200018809c9	323949938	1	main_slash	11	main_slash	51	stimuli_target_squaretriangles.svg	stimuli_distractor_diamondtriangles.svg	7	yes	53	1	473
6.6.1	win	2022-12-15	16:20:06	16:28:24	495769	594c13bdb9380200018809c9	323949938	1	main_slash	11	advance_on_keypress_SLASH	52	stimuli_target_squaretriangles.svg	stimuli_distractor_diamondtriangles.svg	7	yes	57	0	398
6.6.1	win	2022-12-15	16:20:06	16:28:26	497426	594c13bdb9380200018809c9	323949938	1	main_slash	11	main_slash	53	stimuli_distractor_trianglediamonds.svg	stimuli_target_squarediamonds.svg	12	yes	53	1	602
6.6.1	win	2022-12-15	16:20:06	16:28:26	497426	594c13bdb9380200018809c9	323949938	1	main_slash	11	advance_on_keypress_SLASH	54	stimuli_distractor_trianglediamonds.svg	stimuli_target_squarediamonds.svg	12	yes	57	0	379
6.6.1	win	2022-12-15	16:20:06	16:28:28	499183	594c13bdb9380200018809c9	323949938	1	main_slash	11	main_slash	55	stimuli_distractor_trianglediamonds.svg	stimuli_target_diamondsquares.svg	28	yes	53	1	728
6.6.1	win	2022-12-15	16:20:06	16:28:28	499183	594c13bdb9380200018809c9	323949938	1	main_slash	11	advance_on_keypress_SLASH	56	stimuli_distractor_trianglediamonds.svg	stimuli_target_diamondsquares.svg	28	yes	57	0	277
6.6.1	win	2022-12-15	16:20:06	16:28:31	502118	594c13bdb9380200018809c9	323949938	1	main_slash	11	main_slash	57	stimuli_distractor_diamondtriangles.svg	stimuli_distractor_diamondtriangles.svg	39	no	0	1	2000
6.6.1	win	2022-12-15	16:20:06	16:28:31	502118	594c13bdb9380200018809c9	323949938	1	main_slash	11	advance_on_keypress_SLASH	58	stimuli_distractor_diamondtriangles.svg	stimuli_distractor_diamondtriangles.svg	39	no	57	0	300
6.6.1	win	2022-12-15	16:20:06	16:28:32	503498	594c13bdb9380200018809c9	323949938	1	main_slash	11	main_slash	59	stimuli_distractor_diamondtriangles.svg	stimuli_target_trianglecircles.svg	29	yes	53	1	436
6.6.1	win	2022-12-15	16:20:06	16:28:32	503498	594c13bdb9380200018809c9	323949938	1	main_slash	11	advance_on_keypress_SLASH	60	stimuli_distractor_diamondtriangles.svg	stimuli_target_trianglecircles.svg	29	yes	57	0	451
6.6.1	win	2022-12-15	16:20:06	16:28:34	505194	594c13bdb9380200018809c9	323949938	1	main_slash	11	main_slash	61	stimuli_target_circletriangles.svg	stimuli_distractor_trianglediamonds.svg	1	yes	53	1	602
6.6.1	win	2022-12-15	16:20:06	16:28:34	505194	594c13bdb9380200018809c9	323949938	1	main_slash	11	advance_on_keypress_SLASH	62	stimuli_target_circletriangles.svg	stimuli_distractor_trianglediamonds.svg	1	yes	57	0	405
6.6.1	win	2022-12-15	16:20:06	16:28:36	507593	594c13bdb9380200018809c9	323949938	1	main_slash	11	main_slash	63	stimuli_distractor_diamondtriangles.svg	stimuli_distractor_trianglediamonds.svg	38	no	53	0	1355
6.6.1	win	2022-12-15	16:20:06	16:28:36	507593	594c13bdb9380200018809c9	323949938	1	main_slash	11	advance_on_keypress_SLASH	64	stimuli_distractor_diamondtriangles.svg	stimuli_distractor_trianglediamonds.svg	38	no	57	0	458
6.6.1	win	2022-12-15	16:20:06	16:28:39	510716	594c13bdb9380200018809c9	323949938	1	main_slash	11	main_slash	65	stimuli_target_diamondsquares.svg	stimuli_distractor_trianglediamonds.svg	20	yes	0	0	2000
6.6.1	win	2022-12-15	16:20:06	16:28:39	510716	594c13bdb9380200018809c9	323949938	1	main_slash	11	advance_on_keypress_SLASH	66	stimuli_target_diamondsquares.svg	stimuli_distractor_trianglediamonds.svg	20	yes	57	0	276
6.6.1	win	2022-12-15	16:20:06	16:28:40	511965	594c13bdb9380200018809c9	323949938	1	main_slash	11	main_slash	67	stimuli_distractor_trianglediamonds.svg	stimuli_target_trianglecircles.svg	25	yes	53	1	323
6.6.1	win	2022-12-15	16:20:06	16:28:40	511965	594c13bdb9380200018809c9	323949938	1	main_slash	11	advance_on_keypress_SLASH	68	stimuli_distractor_trianglediamonds.svg	stimuli_target_trianglecircles.svg	25	yes	57	0	440
6.6.1	win	2022-12-15	16:20:06	16:28:44	515040	594c13bdb9380200018809c9	323949938	1	main_slash	11	main_slash	69	stimuli_distractor_trianglediamonds.svg	stimuli_distractor_trianglediamonds.svg	33	no	0	1	2000
6.6.1	win	2022-12-15	16:20:06	16:28:44	515040	594c13bdb9380200018809c9	323949938	1	main_slash	11	advance_on_keypress_SLASH	70	stimuli_distractor_trianglediamonds.svg	stimuli_distractor_trianglediamonds.svg	33	no	57	0	369
6.6.1	win	2022-12-15	16:20:06	16:28:45	516530	594c13bdb9380200018809c9	323949938	1	main_slash	11	main_slash	71	stimuli_distractor_trianglediamonds.svg	stimuli_target_circlediamonds.svg	10	yes	53	1	479
6.6.1	win	2022-12-15	16:20:06	16:28:45	516530	594c13bdb9380200018809c9	323949938	1	main_slash	11	advance_on_keypress_SLASH	72	stimuli_distractor_trianglediamonds.svg	stimuli_target_circlediamonds.svg	10	yes	57	0	369
6.6.1	win	2022-12-15	16:20:06	16:28:47	518223	594c13bdb9380200018809c9	323949938	1	main_slash	11	main_slash	73	stimuli_target_trianglesquares.svg	stimuli_distractor_diamondtriangles.svg	22	yes	53	1	676
6.6.1	win	2022-12-15	16:20:06	16:28:47	518223	594c13bdb9380200018809c9	323949938	1	main_slash	11	advance_on_keypress_SLASH	74	stimuli_target_trianglesquares.svg	stimuli_distractor_diamondtriangles.svg	22	yes	57	0	312
6.6.1	win	2022-12-15	16:20:06	16:28:48	519962	594c13bdb9380200018809c9	323949938	1	main_slash	11	main_slash	75	stimuli_distractor_diamondtriangles.svg	stimuli_target_diamondsquares.svg	32	yes	53	1	769
6.6.1	win	2022-12-15	16:20:06	16:28:48	519962	594c13bdb9380200018809c9	323949938	1	main_slash	11	advance_on_keypress_SLASH	76	stimuli_distractor_diamondtriangles.svg	stimuli_target_diamondsquares.svg	32	yes	57	0	306
6.6.1	win	2022-12-15	16:20:06	16:28:50	521632	594c13bdb9380200018809c9	323949938	1	main_slash	11	main_slash	77	stimuli_target_diamondcircles.svg	stimuli_distractor_diamondtriangles.svg	23	yes	53	1	725
6.6.1	win	2022-12-15	16:20:06	16:28:50	521632	594c13bdb9380200018809c9	323949938	1	main_slash	11	advance_on_keypress_SLASH	78	stimuli_target_diamondcircles.svg	stimuli_distractor_diamondtriangles.svg	23	yes	57	0	378
6.6.1	win	2022-12-15	16:20:06	16:28:52	523769	594c13bdb9380200018809c9	323949938	1	main_slash	11	main_slash	79	stimuli_distractor_diamondtriangles.svg	stimuli_target_squarediamonds.svg	16	yes	53	1	1099
6.6.1	win	2022-12-15	16:20:06	16:28:52	523769	594c13bdb9380200018809c9	323949938	1	main_slash	11	advance_on_keypress_SLASH	80	stimuli_distractor_diamondtriangles.svg	stimuli_target_squarediamonds.svg	16	yes	57	0	318
6.6.1	win	2022-12-15	16:20:06	16:28:54	526003	594c13bdb9380200018809c9	323949938	1	main_slash	11	main_slash	81	stimuli_distractor_diamondtriangles.svg	stimuli_target_squarediamonds.svg	16	yes	53	1	1271
6.6.1	win	2022-12-15	16:20:06	16:28:54	526003	594c13bdb9380200018809c9	323949938	1	main_slash	11	advance_on_keypress_SLASH	82	stimuli_distractor_diamondtriangles.svg	stimuli_target_squarediamonds.svg	16	yes	57	0	342
6.6.1	win	2022-12-15	16:20:06	16:28:56	527810	594c13bdb9380200018809c9	323949938	1	main_slash	11	main_slash	83	stimuli_distractor_trianglediamonds.svg	stimuli_target_squarediamonds.svg	12	yes	53	1	816
6.6.1	win	2022-12-15	16:20:06	16:28:56	527810	594c13bdb9380200018809c9	323949938	1	main_slash	11	advance_on_keypress_SLASH	84	stimuli_distractor_trianglediamonds.svg	stimuli_target_squarediamonds.svg	12	yes	57	0	243
6.6.1	win	2022-12-15	16:20:06	16:28:59	530707	594c13bdb9380200018809c9	323949938	1	main_slash	11	main_slash	85	stimuli_distractor_diamondtriangles.svg	stimuli_distractor_diamondtriangles.svg	39	no	0	1	2000
6.6.1	win	2022-12-15	16:20:06	16:28:59	530707	594c13bdb9380200018809c9	323949938	1	main_slash	11	advance_on_keypress_SLASH	86	stimuli_distractor_diamondtriangles.svg	stimuli_distractor_diamondtriangles.svg	39	no	57	0	383
6.6.1	win	2022-12-15	16:20:06	16:29:02	533734	594c13bdb9380200018809c9	323949938	1	main_slash	11	main_slash	87	stimuli_distractor_diamondtriangles.svg	stimuli_distractor_diamondtriangles.svg	40	no	0	1	2000
6.6.1	win	2022-12-15	16:20:06	16:29:02	533734	594c13bdb9380200018809c9	323949938	1	main_slash	11	advance_on_keypress_SLASH	88	stimuli_distractor_diamondtriangles.svg	stimuli_distractor_diamondtriangles.svg	40	no	57	0	290
6.6.1	win	2022-12-15	16:20:06	16:29:04	535276	594c13bdb9380200018809c9	323949938	1	main_slash	11	main_slash	89	stimuli_target_squaretriangles.svg	stimuli_distractor_diamondtriangles.svg	7	yes	53	1	615
6.6.1	win	2022-12-15	16:20:06	16:29:04	535276	594c13bdb9380200018809c9	323949938	1	main_slash	11	advance_on_keypress_SLASH	90	stimuli_target_squaretriangles.svg	stimuli_distractor_diamondtriangles.svg	7	yes	57	0	365
6.6.1	win	2022-12-15	16:20:06	16:29:05	536790	594c13bdb9380200018809c9	323949938	1	main_slash	11	main_slash	91	stimuli_target_squaretriangles.svg	stimuli_distractor_trianglediamonds.svg	3	yes	53	1	499
6.6.1	win	2022-12-15	16:20:06	16:29:05	536790	594c13bdb9380200018809c9	323949938	1	main_slash	11	advance_on_keypress_SLASH	92	stimuli_target_squaretriangles.svg	stimuli_distractor_trianglediamonds.svg	3	yes	57	0	406
6.6.1	win	2022-12-15	16:20:06	16:29:07	538570	594c13bdb9380200018809c9	323949938	1	main_slash	11	main_slash	93	stimuli_distractor_trianglediamonds.svg	stimuli_target_diamondsquares.svg	28	yes	53	1	732
6.6.1	win	2022-12-15	16:20:06	16:29:07	538570	594c13bdb9380200018809c9	323949938	1	main_slash	11	advance_on_keypress_SLASH	94	stimuli_distractor_trianglediamonds.svg	stimuli_target_diamondsquares.svg	28	yes	57	0	307
6.6.1	win	2022-12-15	16:20:06	16:29:09	540042	594c13bdb9380200018809c9	323949938	1	main_slash	11	main_slash	95	stimuli_distractor_diamondtriangles.svg	stimuli_target_diamondcircles.svg	31	yes	53	1	525
6.6.1	win	2022-12-15	16:20:06	16:29:09	540042	594c13bdb9380200018809c9	323949938	1	main_slash	11	advance_on_keypress_SLASH	96	stimuli_distractor_diamondtriangles.svg	stimuli_target_diamondcircles.svg	31	yes	57	0	407
6.6.1	win	2022-12-15	16:20:06	16:29:10	541903	594c13bdb9380200018809c9	323949938	1	main_slash	11	main_slash	97	stimuli_target_trianglesquares.svg	stimuli_distractor_trianglediamonds.svg	18	yes	53	1	806
6.6.1	win	2022-12-15	16:20:06	16:29:10	541903	594c13bdb9380200018809c9	323949938	1	main_slash	11	advance_on_keypress_SLASH	98	stimuli_target_trianglesquares.svg	stimuli_distractor_trianglediamonds.svg	18	yes	57	0	303
6.6.1	win	2022-12-15	16:20:06	16:29:12	543632	594c13bdb9380200018809c9	323949938	1	main_slash	11	main_slash	99	stimuli_distractor_diamondtriangles.svg	stimuli_target_trianglesquares.svg	30	yes	53	1	789
6.6.1	win	2022-12-15	16:20:06	16:29:12	543632	594c13bdb9380200018809c9	323949938	1	main_slash	11	advance_on_keypress_SLASH	100	stimuli_distractor_diamondtriangles.svg	stimuli_target_trianglesquares.svg	30	yes	57	0	319
6.6.1	win	2022-12-15	16:20:06	16:29:14	545331	594c13bdb9380200018809c9	323949938	1	main_slash	11	main_slash	101	stimuli_target_circlediamonds.svg	stimuli_distractor_diamondtriangles.svg	6	yes	53	1	743
6.6.1	win	2022-12-15	16:20:06	16:29:14	545331	594c13bdb9380200018809c9	323949938	1	main_slash	11	advance_on_keypress_SLASH	102	stimuli_target_circlediamonds.svg	stimuli_distractor_diamondtriangles.svg	6	yes	57	0	365
6.6.1	win	2022-12-15	16:20:06	16:29:16	547095	594c13bdb9380200018809c9	323949938	1	main_slash	11	main_slash	103	stimuli_distractor_diamondtriangles.svg	stimuli_target_squaretriangles.svg	15	yes	53	1	742
6.6.1	win	2022-12-15	16:20:06	16:29:16	547095	594c13bdb9380200018809c9	323949938	1	main_slash	11	advance_on_keypress_SLASH	104	stimuli_distractor_diamondtriangles.svg	stimuli_target_squaretriangles.svg	15	yes	57	0	311
6.6.1	win	2022-12-15	16:20:06	16:29:17	548822	594c13bdb9380200018809c9	323949938	1	main_slash	11	main_slash	105	stimuli_distractor_diamondtriangles.svg	stimuli_target_diamondsquares.svg	32	yes	53	1	757
6.6.1	win	2022-12-15	16:20:06	16:29:17	548822	594c13bdb9380200018809c9	323949938	1	main_slash	11	advance_on_keypress_SLASH	106	stimuli_distractor_diamondtriangles.svg	stimuli_target_diamondsquares.svg	32	yes	57	0	268
6.6.1	win	2022-12-15	16:20:06	16:29:19	550558	594c13bdb9380200018809c9	323949938	1	main_slash	11	main_slash	107	stimuli_target_squarediamonds.svg	stimuli_distractor_trianglediamonds.svg	4	yes	53	1	813
6.6.1	win	2022-12-15	16:20:06	16:29:19	550558	594c13bdb9380200018809c9	323949938	1	main_slash	11	advance_on_keypress_SLASH	108	stimuli_target_squarediamonds.svg	stimuli_distractor_trianglediamonds.svg	4	yes	57	0	288
6.6.1	win	2022-12-15	16:20:06	16:29:21	552363	594c13bdb9380200018809c9	323949938	1	main_slash	11	main_slash	109	stimuli_distractor_diamondtriangles.svg	stimuli_target_trianglecircles.svg	29	yes	53	1	872
6.6.1	win	2022-12-15	16:20:06	16:29:21	552363	594c13bdb9380200018809c9	323949938	1	main_slash	11	advance_on_keypress_SLASH	110	stimuli_distractor_diamondtriangles.svg	stimuli_target_trianglecircles.svg	29	yes	57	0	283
6.6.1	win	2022-12-15	16:20:06	16:29:24	555288	594c13bdb9380200018809c9	323949938	1	main_slash	11	main_slash	111	stimuli_distractor_diamondtriangles.svg	stimuli_distractor_trianglediamonds.svg	38	no	0	1	2000
6.6.1	win	2022-12-15	16:20:06	16:29:24	555288	594c13bdb9380200018809c9	323949938	1	main_slash	11	advance_on_keypress_SLASH	112	stimuli_distractor_diamondtriangles.svg	stimuli_distractor_trianglediamonds.svg	38	no	57	0	353
6.6.1	win	2022-12-15	16:20:06	16:29:27	558281	594c13bdb9380200018809c9	323949938	1	main_slash	11	main_slash	113	stimuli_distractor_trianglediamonds.svg	stimuli_distractor_diamondtriangles.svg	36	no	0	1	2000
6.6.1	win	2022-12-15	16:20:06	16:29:27	558281	594c13bdb9380200018809c9	323949938	1	main_slash	11	advance_on_keypress_SLASH	114	stimuli_distractor_trianglediamonds.svg	stimuli_distractor_diamondtriangles.svg	36	no	57	0	358
6.6.1	win	2022-12-15	16:20:06	16:29:28	559975	594c13bdb9380200018809c9	323949938	1	main_slash	11	main_slash	115	stimuli_target_trianglecircles.svg	stimuli_distractor_trianglediamonds.svg	17	yes	53	1	701
6.6.1	win	2022-12-15	16:20:06	16:29:28	559975	594c13bdb9380200018809c9	323949938	1	main_slash	11	advance_on_keypress_SLASH	116	stimuli_target_trianglecircles.svg	stimuli_distractor_trianglediamonds.svg	17	yes	57	0	328
6.6.1	win	2022-12-15	16:20:06	16:29:30	561629	594c13bdb9380200018809c9	323949938	1	main_slash	11	main_slash	117	stimuli_target_trianglecircles.svg	stimuli_distractor_diamondtriangles.svg	21	yes	53	1	674
6.6.1	win	2022-12-15	16:20:06	16:29:30	561629	594c13bdb9380200018809c9	323949938	1	main_slash	11	advance_on_keypress_SLASH	118	stimuli_target_trianglecircles.svg	stimuli_distractor_diamondtriangles.svg	21	yes	57	0	291
6.6.1	win	2022-12-15	16:20:06	16:29:32	563245	594c13bdb9380200018809c9	323949938	1	main_slash	11	main_slash	119	stimuli_distractor_trianglediamonds.svg	stimuli_target_circletriangles.svg	9	yes	53	1	677
6.6.1	win	2022-12-15	16:20:06	16:29:32	563245	594c13bdb9380200018809c9	323949938	1	main_slash	11	advance_on_keypress_SLASH	120	stimuli_distractor_trianglediamonds.svg	stimuli_target_circletriangles.svg	9	yes	57	0	321
6.6.1	win	2022-12-15	16:20:06	16:29:33	564910	594c13bdb9380200018809c9	323949938	1	main_slash	11	main_slash	121	stimuli_distractor_trianglediamonds.svg	stimuli_target_circlediamonds.svg	10	yes	53	1	696
6.6.1	win	2022-12-15	16:20:06	16:29:33	564910	594c13bdb9380200018809c9	323949938	1	main_slash	11	advance_on_keypress_SLASH	122	stimuli_distractor_trianglediamonds.svg	stimuli_target_circlediamonds.svg	10	yes	57	0	297
6.6.1	win	2022-12-15	16:20:06	16:29:36	567861	594c13bdb9380200018809c9	323949938	1	main_slash	11	main_slash	123	stimuli_distractor_trianglediamonds.svg	stimuli_distractor_diamondtriangles.svg	35	no	0	1	2000
6.6.1	win	2022-12-15	16:20:06	16:29:36	567861	594c13bdb9380200018809c9	323949938	1	main_slash	11	advance_on_keypress_SLASH	124	stimuli_distractor_trianglediamonds.svg	stimuli_distractor_diamondtriangles.svg	35	no	57	0	381
6.6.1	win	2022-12-15	16:20:06	16:29:38	569236	594c13bdb9380200018809c9	323949938	1	main_slash	11	main_slash	125	stimuli_target_diamondsquares.svg	stimuli_distractor_trianglediamonds.svg	20	yes	53	1	348
6.6.1	win	2022-12-15	16:20:06	16:29:38	569236	594c13bdb9380200018809c9	323949938	1	main_slash	11	advance_on_keypress_SLASH	126	stimuli_target_diamondsquares.svg	stimuli_distractor_trianglediamonds.svg	20	yes	57	0	430
6.6.1	win	2022-12-15	16:20:06	16:29:39	570990	594c13bdb9380200018809c9	323949938	1	main_slash	11	main_slash	127	stimuli_target_squarediamonds.svg	stimuli_distractor_diamondtriangles.svg	8	yes	53	1	672
6.6.1	win	2022-12-15	16:20:06	16:29:39	570990	594c13bdb9380200018809c9	323949938	1	main_slash	11	advance_on_keypress_SLASH	128	stimuli_target_squarediamonds.svg	stimuli_distractor_diamondtriangles.svg	8	yes	57	0	266
6.6.1	win	2022-12-15	16:20:06	16:29:41	572555	594c13bdb9380200018809c9	323949938	1	main_slash	11	main_slash	129	stimuli_distractor_trianglediamonds.svg	stimuli_target_trianglecircles.svg	25	yes	53	1	657
6.6.1	win	2022-12-15	16:20:06	16:29:41	572555	594c13bdb9380200018809c9	323949938	1	main_slash	11	advance_on_keypress_SLASH	130	stimuli_distractor_trianglediamonds.svg	stimuli_target_trianglecircles.svg	25	yes	57	0	194
6.6.1	win	2022-12-15	16:20:06	16:29:43	574302	594c13bdb9380200018809c9	323949938	1	main_slash	11	main_slash	131	stimuli_target_diamondsquares.svg	stimuli_distractor_diamondtriangles.svg	24	yes	53	1	891
6.6.1	win	2022-12-15	16:20:06	16:29:43	574302	594c13bdb9380200018809c9	323949938	1	main_slash	11	advance_on_keypress_SLASH	132	stimuli_target_diamondsquares.svg	stimuli_distractor_diamondtriangles.svg	24	yes	57	0	249
6.6.1	win	2022-12-15	16:20:06	16:29:45	576135	594c13bdb9380200018809c9	323949938	1	main_slash	11	main_slash	133	stimuli_distractor_trianglediamonds.svg	stimuli_target_squaretriangles.svg	11	yes	53	1	927
6.6.1	win	2022-12-15	16:20:06	16:29:45	576135	594c13bdb9380200018809c9	323949938	1	main_slash	11	advance_on_keypress_SLASH	134	stimuli_distractor_trianglediamonds.svg	stimuli_target_squaretriangles.svg	11	yes	57	0	238
6.6.1	win	2022-12-15	16:20:06	16:29:46	577785	594c13bdb9380200018809c9	323949938	1	main_slash	11	main_slash	135	stimuli_target_circletriangles.svg	stimuli_distractor_diamondtriangles.svg	5	yes	53	1	765
6.6.1	win	2022-12-15	16:20:06	16:29:46	577785	594c13bdb9380200018809c9	323949938	1	main_slash	11	advance_on_keypress_SLASH	136	stimuli_target_circletriangles.svg	stimuli_distractor_diamondtriangles.svg	5	yes	57	0	314
6.6.1	win	2022-12-15	16:20:06	16:29:48	579168	594c13bdb9380200018809c9	323949938	1	main_slash	11	main_slash	137	stimuli_target_circletriangles.svg	stimuli_distractor_trianglediamonds.svg	1	yes	53	1	419
6.6.1	win	2022-12-15	16:20:06	16:29:48	579168	594c13bdb9380200018809c9	323949938	1	main_slash	11	advance_on_keypress_SLASH	138	stimuli_target_circletriangles.svg	stimuli_distractor_trianglediamonds.svg	1	yes	57	0	328
6.6.1	win	2022-12-15	16:20:06	16:29:49	580924	594c13bdb9380200018809c9	323949938	1	main_slash	11	main_slash	139	stimuli_distractor_trianglediamonds.svg	stimuli_distractor_trianglediamonds.svg	34	no	53	0	777
6.6.1	win	2022-12-15	16:20:06	16:29:49	580924	594c13bdb9380200018809c9	323949938	1	main_slash	11	advance_on_keypress_SLASH	140	stimuli_distractor_trianglediamonds.svg	stimuli_distractor_trianglediamonds.svg	34	no	57	0	182
6.6.1	win	2022-12-15	16:20:06	16:29:51	582376	594c13bdb9380200018809c9	323949938	1	main_slash	11	main_slash	141	stimuli_distractor_diamondtriangles.svg	stimuli_target_circlediamonds.svg	14	yes	53	1	616
6.6.1	win	2022-12-15	16:20:06	16:29:51	582376	594c13bdb9380200018809c9	323949938	1	main_slash	11	advance_on_keypress_SLASH	142	stimuli_distractor_diamondtriangles.svg	stimuli_target_circlediamonds.svg	14	yes	57	0	339
6.6.1	win	2022-12-15	16:20:06	16:29:52	583992	594c13bdb9380200018809c9	323949938	1	main_slash	11	main_slash	143	stimuli_distractor_trianglediamonds.svg	stimuli_target_diamondcircles.svg	27	yes	53	1	636
6.6.1	win	2022-12-15	16:20:06	16:29:52	583992	594c13bdb9380200018809c9	323949938	1	main_slash	11	advance_on_keypress_SLASH	144	stimuli_distractor_trianglediamonds.svg	stimuli_target_diamondcircles.svg	27	yes	57	0	318
6.6.1	win	2022-12-15	16:20:06	16:29:55	586652	594c13bdb9380200018809c9	323949938	1	main_slash	11	main_slash	145	stimuli_target_diamondcircles.svg	stimuli_distractor_diamondtriangles.svg	23	yes	53	1	1698
6.6.1	win	2022-12-15	16:20:06	16:29:55	586652	594c13bdb9380200018809c9	323949938	1	main_slash	11	advance_on_keypress_SLASH	146	stimuli_target_diamondcircles.svg	stimuli_distractor_diamondtriangles.svg	23	yes	57	0	412
6.6.1	win	2022-12-15	16:20:06	16:29:58	589714	594c13bdb9380200018809c9	323949938	1	main_slash	11	main_slash	147	stimuli_distractor_trianglediamonds.svg	stimuli_distractor_trianglediamonds.svg	33	no	0	1	2000
6.6.1	win	2022-12-15	16:20:06	16:29:58	589714	594c13bdb9380200018809c9	323949938	1	main_slash	11	advance_on_keypress_SLASH	148	stimuli_distractor_trianglediamonds.svg	stimuli_distractor_trianglediamonds.svg	33	no	57	0	1472
6.6.1	win	2022-12-15	16:20:06	16:30:01	592555	594c13bdb9380200018809c9	323949938	1	main_slash	11	main_slash	149	stimuli_target_diamondcircles.svg	stimuli_distractor_trianglediamonds.svg	19	yes	53	1	733
6.6.1	win	2022-12-15	16:20:06	16:30:01	592555	594c13bdb9380200018809c9	323949938	1	main_slash	11	advance_on_keypress_SLASH	150	stimuli_target_diamondcircles.svg	stimuli_distractor_trianglediamonds.svg	19	yes	57	0	339
6.6.1	win	2022-12-15	16:20:06	16:30:03	594114	594c13bdb9380200018809c9	323949938	1	main_slash	11	main_slash	151	stimuli_distractor_diamondtriangles.svg	stimuli_target_circletriangles.svg	13	yes	53	1	579
6.6.1	win	2022-12-15	16:20:06	16:30:03	594114	594c13bdb9380200018809c9	323949938	1	main_slash	11	advance_on_keypress_SLASH	152	stimuli_distractor_diamondtriangles.svg	stimuli_target_circletriangles.svg	13	yes	57	0	326
6.6.1	win	2022-12-15	16:20:06	16:30:04	595730	594c13bdb9380200018809c9	323949938	1	main_slash	11	main_slash	153	stimuli_target_trianglesquares.svg	stimuli_distractor_diamondtriangles.svg	22	yes	53	1	631
6.6.1	win	2022-12-15	16:20:06	16:30:04	595730	594c13bdb9380200018809c9	323949938	1	main_slash	11	advance_on_keypress_SLASH	154	stimuli_target_trianglesquares.svg	stimuli_distractor_diamondtriangles.svg	22	yes	57	0	301
6.6.1	win	2022-12-15	16:20:06	16:30:06	597399	594c13bdb9380200018809c9	323949938	1	main_slash	11	main_slash	155	stimuli_distractor_trianglediamonds.svg	stimuli_target_trianglesquares.svg	26	yes	53	1	721
6.6.1	win	2022-12-15	16:20:06	16:30:06	597399	594c13bdb9380200018809c9	323949938	1	main_slash	11	advance_on_keypress_SLASH	156	stimuli_distractor_trianglediamonds.svg	stimuli_target_trianglesquares.svg	26	yes	57	0	293
6.6.1	win	2022-12-15	16:20:06	16:30:08	599031	594c13bdb9380200018809c9	323949938	1	main_slash	11	main_slash	157	stimuli_target_circlediamonds.svg	stimuli_distractor_trianglediamonds.svg	2	yes	53	1	689
6.6.1	win	2022-12-15	16:20:06	16:30:08	599031	594c13bdb9380200018809c9	323949938	1	main_slash	11	advance_on_keypress_SLASH	158	stimuli_target_circlediamonds.svg	stimuli_distractor_trianglediamonds.svg	2	yes	57	0	337
6.6.1	win	2022-12-15	16:20:06	16:30:10	601012	594c13bdb9380200018809c9	323949938	1	main_slash	11	main_slash	159	stimuli_distractor_diamondtriangles.svg	stimuli_distractor_trianglediamonds.svg	37	no	53	0	991
6.6.1	win	2022-12-15	16:20:06	16:30:10	601012	594c13bdb9380200018809c9	323949938	1	main_slash	11	advance_on_keypress_SLASH	160	stimuli_distractor_diamondtriangles.svg	stimuli_distractor_trianglediamonds.svg	37	no	57	0	298