build	computer.platform	date	time	timestamp	time_elapsed_ms	subject	group	session	blockcode	blocknum	trialcode	trialnum	stimulus_left	stimulus_right	stim_index	target_present	response	correct	latency
6.6.1	mac	2022-12-15	20:35:39	20:37:47	126074	60fce7c3094706567dd1870b	601474800	1	practice_z	5	practice_z	1	stimuli_target_diamondsquares.svg	stimuli_distractor_trianglediamonds.svg	6	yes	44	1	1935
6.6.1	mac	2022-12-15	20:35:39	20:37:47	126074	60fce7c3094706567dd1870b	601474800	1	practice_z	5	advance_on_keypress_ZEE	2	stimuli_target_diamondsquares.svg	stimuli_distractor_trianglediamonds.svg	6	yes	57	0	1636
6.6.1	mac	2022-12-15	20:35:39	20:37:51	129894	60fce7c3094706567dd1870b	601474800	1	practice_z	5	practice_z	3	stimuli_distractor_trianglediamonds.svg	stimuli_target_circlediamonds.svg	10	yes	44	1	557
6.6.1	mac	2022-12-15	20:35:39	20:37:51	129894	60fce7c3094706567dd1870b	601474800	1	practice_z	5	advance_on_keypress_ZEE	4	stimuli_distractor_trianglediamonds.svg	stimuli_target_circlediamonds.svg	10	yes	57	0	633
6.6.1	mac	2022-12-15	20:35:39	20:37:55	134171	60fce7c3094706567dd1870b	601474800	1	practice_z	5	practice_z	5	stimuli_distractor_trianglediamonds.svg	stimuli_target_diamondcircles.svg	12	yes	0	0	2000
6.6.1	mac	2022-12-15	20:35:39	20:37:55	134171	60fce7c3094706567dd1870b	601474800	1	practice_z	5	advance_on_keypress_ZEE	6	stimuli_distractor_trianglediamonds.svg	stimuli_target_diamondcircles.svg	12	yes	57	0	1258
6.6.1	mac	2022-12-15	20:35:39	20:37:59	138181	60fce7c3094706567dd1870b	601474800	1	practice_z	5	practice_z	7	stimuli_distractor_diamondtriangles.svg	stimuli_target_diamondcircles.svg	8	yes	44	1	1099
6.6.1	mac	2022-12-15	20:35:39	20:37:59	138181	60fce7c3094706567dd1870b	601474800	1	practice_z	5	advance_on_keypress_ZEE	8	stimuli_distractor_diamondtriangles.svg	stimuli_target_diamondcircles.svg	8	yes	57	0	882
6.6.1	mac	2022-12-15	20:35:39	20:38:03	141673	60fce7c3094706567dd1870b	601474800	1	practice_z	5	practice_z	9	stimuli_distractor_trianglediamonds.svg	stimuli_target_squarediamonds.svg	11	yes	44	1	967
6.6.1	mac	2022-12-15	20:35:39	20:38:03	141673	60fce7c3094706567dd1870b	601474800	1	practice_z	5	advance_on_keypress_ZEE	10	stimuli_distractor_trianglediamonds.svg	stimuli_target_squarediamonds.svg	11	yes	57	0	443
6.6.1	mac	2022-12-15	20:35:39	20:38:05	144537	60fce7c3094706567dd1870b	601474800	1	practice_z	5	practice_z	11	stimuli_distractor_diamondtriangles.svg	stimuli_target_circletriangles.svg	7	yes	44	1	765
6.6.1	mac	2022-12-15	20:35:39	20:38:05	144537	60fce7c3094706567dd1870b	601474800	1	practice_z	5	advance_on_keypress_ZEE	12	stimuli_distractor_diamondtriangles.svg	stimuli_target_circletriangles.svg	7	yes	57	0	406
6.6.1	mac	2022-12-15	20:35:39	20:38:08	147292	60fce7c3094706567dd1870b	601474800	1	practice_z	5	practice_z	13	stimuli_target_circlediamonds.svg	stimuli_distractor_diamondtriangles.svg	1	yes	44	1	716
6.6.1	mac	2022-12-15	20:35:39	20:38:08	147292	60fce7c3094706567dd1870b	601474800	1	practice_z	5	advance_on_keypress_ZEE	14	stimuli_target_circlediamonds.svg	stimuli_distractor_diamondtriangles.svg	1	yes	57	0	447
6.6.1	mac	2022-12-15	20:35:39	20:38:11	150074	60fce7c3094706567dd1870b	601474800	1	practice_z	5	practice_z	15	stimuli_distractor_diamondtriangles.svg	stimuli_target_trianglecircles.svg	9	yes	44	1	694
6.6.1	mac	2022-12-15	20:35:39	20:38:11	150074	60fce7c3094706567dd1870b	601474800	1	practice_z	5	advance_on_keypress_ZEE	16	stimuli_distractor_diamondtriangles.svg	stimuli_target_trianglecircles.svg	9	yes	57	0	473
6.6.1	mac	2022-12-15	20:35:39	20:38:15	154186	60fce7c3094706567dd1870b	601474800	1	practice_z	5	practice_z	17	stimuli_distractor_trianglediamonds.svg	stimuli_distractor_diamondtriangles.svg	16	no	0	1	2000
6.6.1	mac	2022-12-15	20:35:39	20:38:15	154186	60fce7c3094706567dd1870b	601474800	1	practice_z	5	advance_on_keypress_ZEE	18	stimuli_distractor_trianglediamonds.svg	stimuli_distractor_diamondtriangles.svg	16	no	57	0	449
6.6.1	mac	2022-12-15	20:35:39	20:38:19	158273	60fce7c3094706567dd1870b	601474800	1	practice_z	5	practice_z	19	stimuli_distractor_diamondtriangles.svg	stimuli_distractor_diamondtriangles.svg	13	no	0	1	2000
6.6.1	mac	2022-12-15	20:35:39	20:38:19	158273	60fce7c3094706567dd1870b	601474800	1	practice_z	5	advance_on_keypress_ZEE	20	stimuli_distractor_diamondtriangles.svg	stimuli_distractor_diamondtriangles.svg	13	no	57	0	424
6.6.1	mac	2022-12-15	20:35:39	20:38:22	160881	60fce7c3094706567dd1870b	601474800	1	practice_z	5	practice_z	21	stimuli_target_circlediamonds.svg	stimuli_distractor_trianglediamonds.svg	4	yes	44	1	556
6.6.1	mac	2022-12-15	20:35:39	20:38:22	160881	60fce7c3094706567dd1870b	601474800	1	practice_z	5	advance_on_keypress_ZEE	22	stimuli_target_circlediamonds.svg	stimuli_distractor_trianglediamonds.svg	4	yes	57	0	528
6.6.1	mac	2022-12-15	20:35:39	20:38:26	165051	60fce7c3094706567dd1870b	601474800	1	practice_z	5	practice_z	23	stimuli_distractor_diamondtriangles.svg	stimuli_distractor_trianglediamonds.svg	14	no	0	1	2000
6.6.1	mac	2022-12-15	20:35:39	20:38:26	165051	60fce7c3094706567dd1870b	601474800	1	practice_z	5	advance_on_keypress_ZEE	24	stimuli_distractor_diamondtriangles.svg	stimuli_distractor_trianglediamonds.svg	14	no	57	0	558
6.6.1	mac	2022-12-15	20:35:39	20:38:29	168501	60fce7c3094706567dd1870b	601474800	1	practice_z	5	practice_z	25	stimuli_target_diamondsquares.svg	stimuli_distractor_diamondtriangles.svg	3	yes	44	1	1248
6.6.1	mac	2022-12-15	20:35:39	20:38:29	168501	60fce7c3094706567dd1870b	601474800	1	practice_z	5	advance_on_keypress_ZEE	26	stimuli_target_diamondsquares.svg	stimuli_distractor_diamondtriangles.svg	3	yes	57	0	505
6.6.1	mac	2022-12-15	20:35:39	20:38:32	171541	60fce7c3094706567dd1870b	601474800	1	practice_z	5	practice_z	27	stimuli_target_squarediamonds.svg	stimuli_distractor_trianglediamonds.svg	5	yes	44	1	893
6.6.1	mac	2022-12-15	20:35:39	20:38:32	171541	60fce7c3094706567dd1870b	601474800	1	practice_z	5	advance_on_keypress_ZEE	28	stimuli_target_squarediamonds.svg	stimuli_distractor_trianglediamonds.svg	5	yes	57	0	646
6.6.1	mac	2022-12-15	20:35:39	20:38:35	174585	60fce7c3094706567dd1870b	601474800	1	practice_z	5	practice_z	29	stimuli_target_squarediamonds.svg	stimuli_distractor_diamondtriangles.svg	2	yes	44	1	750
6.6.1	mac	2022-12-15	20:35:39	20:38:35	174585	60fce7c3094706567dd1870b	601474800	1	practice_z	5	advance_on_keypress_ZEE	30	stimuli_target_squarediamonds.svg	stimuli_distractor_diamondtriangles.svg	2	yes	57	0	510
6.6.1	mac	2022-12-15	20:35:39	20:38:40	178736	60fce7c3094706567dd1870b	601474800	1	practice_z	5	practice_z	31	stimuli_distractor_trianglediamonds.svg	stimuli_distractor_trianglediamonds.svg	15	no	0	1	2000
6.6.1	mac	2022-12-15	20:35:39	20:38:40	178736	60fce7c3094706567dd1870b	601474800	1	practice_z	5	advance_on_keypress_ZEE	32	stimuli_distractor_trianglediamonds.svg	stimuli_distractor_trianglediamonds.svg	15	no	57	0	369
6.6.1	mac	2022-12-15	20:35:39	20:38:46	185486	60fce7c3094706567dd1870b	601474800	1	main_z	7	main_z	1	stimuli_distractor_diamondtriangles.svg	stimuli_target_trianglesquares.svg	30	yes	44	1	1137
6.6.1	mac	2022-12-15	20:35:39	20:38:46	185486	60fce7c3094706567dd1870b	601474800	1	main_z	7	advance_on_keypress_ZEE	2	stimuli_distractor_diamondtriangles.svg	stimuli_target_trianglesquares.svg	30	yes	57	0	1554
6.6.1	mac	2022-12-15	20:35:39	20:38:49	188255	60fce7c3094706567dd1870b	601474800	1	main_z	7	main_z	3	stimuli_distractor_diamondtriangles.svg	stimuli_target_squaretriangles.svg	15	yes	44	1	581
6.6.1	mac	2022-12-15	20:35:39	20:38:49	188255	60fce7c3094706567dd1870b	601474800	1	main_z	7	advance_on_keypress_ZEE	4	stimuli_distractor_diamondtriangles.svg	stimuli_target_squaretriangles.svg	15	yes	57	0	644
6.6.1	mac	2022-12-15	20:35:39	20:38:52	190746	60fce7c3094706567dd1870b	601474800	1	main_z	7	main_z	5	stimuli_distractor_trianglediamonds.svg	stimuli_target_squaretriangles.svg	11	yes	44	1	1218
6.6.1	mac	2022-12-15	20:35:39	20:38:52	190746	60fce7c3094706567dd1870b	601474800	1	main_z	7	advance_on_keypress_ZEE	6	stimuli_distractor_trianglediamonds.svg	stimuli_target_squaretriangles.svg	11	yes	57	0	558
6.6.1	mac	2022-12-15	20:35:39	20:38:55	193934	60fce7c3094706567dd1870b	601474800	1	main_z	7	main_z	7	stimuli_distractor_diamondtriangles.svg	stimuli_distractor_diamondtriangles.svg	40	no	0	1	2000
6.6.1	mac	2022-12-15	20:35:39	20:38:55	193934	60fce7c3094706567dd1870b	601474800	1	main_z	7	advance_on_keypress_ZEE	8	stimuli_distractor_diamondtriangles.svg	stimuli_distractor_diamondtriangles.svg	40	no	57	0	516
6.6.1	mac	2022-12-15	20:35:39	20:38:57	195868	60fce7c3094706567dd1870b	601474800	1	main_z	7	main_z	9	stimuli_distractor_diamondtriangles.svg	stimuli_target_circlediamonds.svg	14	yes	44	1	771
6.6.1	mac	2022-12-15	20:35:39	20:38:57	195868	60fce7c3094706567dd1870b	601474800	1	main_z	7	advance_on_keypress_ZEE	10	stimuli_distractor_diamondtriangles.svg	stimuli_target_circlediamonds.svg	14	yes	57	0	462
6.6.1	mac	2022-12-15	20:35:39	20:38:59	197678	60fce7c3094706567dd1870b	601474800	1	main_z	7	main_z	11	stimuli_target_diamondcircles.svg	stimuli_distractor_diamondtriangles.svg	23	yes	44	1	726
6.6.1	mac	2022-12-15	20:35:39	20:38:59	197678	60fce7c3094706567dd1870b	601474800	1	main_z	7	advance_on_keypress_ZEE	12	stimuli_target_diamondcircles.svg	stimuli_distractor_diamondtriangles.svg	23	yes	57	0	371
6.6.1	mac	2022-12-15	20:35:39	20:39:02	200685	60fce7c3094706567dd1870b	601474800	1	main_z	7	main_z	13	stimuli_distractor_trianglediamonds.svg	stimuli_distractor_trianglediamonds.svg	33	no	0	1	2000
6.6.1	mac	2022-12-15	20:35:39	20:39:02	200685	60fce7c3094706567dd1870b	601474800	1	main_z	7	advance_on_keypress_ZEE	14	stimuli_distractor_trianglediamonds.svg	stimuli_distractor_trianglediamonds.svg	33	no	57	0	350
6.6.1	mac	2022-12-15	20:35:39	20:39:03	202420	60fce7c3094706567dd1870b	601474800	1	main_z	7	main_z	15	stimuli_distractor_trianglediamonds.svg	stimuli_target_trianglecircles.svg	25	yes	44	1	737
6.6.1	mac	2022-12-15	20:35:39	20:39:03	202420	60fce7c3094706567dd1870b	601474800	1	main_z	7	advance_on_keypress_ZEE	16	stimuli_distractor_trianglediamonds.svg	stimuli_target_trianglecircles.svg	25	yes	57	0	926
6.6.1	mac	2022-12-15	20:35:39	20:39:05	204516	60fce7c3094706567dd1870b	601474800	1	main_z	7	main_z	17	stimuli_distractor_diamondtriangles.svg	stimuli_target_diamondcircles.svg	31	yes	44	1	539
6.6.1	mac	2022-12-15	20:35:39	20:39:05	204516	60fce7c3094706567dd1870b	601474800	1	main_z	7	advance_on_keypress_ZEE	18	stimuli_distractor_diamondtriangles.svg	stimuli_target_diamondcircles.svg	31	yes	57	0	584
6.6.1	mac	2022-12-15	20:35:39	20:39:07	206529	60fce7c3094706567dd1870b	601474800	1	main_z	7	main_z	19	stimuli_distractor_trianglediamonds.svg	stimuli_target_trianglesquares.svg	26	yes	44	1	788
6.6.1	mac	2022-12-15	20:35:39	20:39:07	206529	60fce7c3094706567dd1870b	601474800	1	main_z	7	advance_on_keypress_ZEE	20	stimuli_distractor_trianglediamonds.svg	stimuli_target_trianglesquares.svg	26	yes	57	0	1136
6.6.1	mac	2022-12-15	20:35:39	20:39:10	209062	60fce7c3094706567dd1870b	601474800	1	main_z	7	main_z	21	stimuli_distractor_diamondtriangles.svg	stimuli_target_diamondsquares.svg	32	yes	44	1	747
6.6.1	mac	2022-12-15	20:35:39	20:39:10	209062	60fce7c3094706567dd1870b	601474800	1	main_z	7	advance_on_keypress_ZEE	22	stimuli_distractor_diamondtriangles.svg	stimuli_target_diamondsquares.svg	32	yes	57	0	286
6.6.1	mac	2022-12-15	20:35:39	20:39:12	211492	60fce7c3094706567dd1870b	601474800	1	main_z	7	main_z	23	stimuli_target_squaretriangles.svg	stimuli_distractor_trianglediamonds.svg	3	yes	44	1	1501
6.6.1	mac	2022-12-15	20:35:39	20:39:12	211492	60fce7c3094706567dd1870b	601474800	1	main_z	7	advance_on_keypress_ZEE	24	stimuli_target_squaretriangles.svg	stimuli_distractor_trianglediamonds.svg	3	yes	57	0	426
6.6.1	mac	2022-12-15	20:35:39	20:39:14	213338	60fce7c3094706567dd1870b	601474800	1	main_z	7	main_z	25	stimuli_target_circletriangles.svg	stimuli_distractor_diamondtriangles.svg	5	yes	44	1	785
6.6.1	mac	2022-12-15	20:35:39	20:39:14	213338	60fce7c3094706567dd1870b	601474800	1	main_z	7	advance_on_keypress_ZEE	26	stimuli_target_circletriangles.svg	stimuli_distractor_diamondtriangles.svg	5	yes	57	0	290
6.6.1	mac	2022-12-15	20:35:39	20:39:17	216259	60fce7c3094706567dd1870b	601474800	1	main_z	7	main_z	27	stimuli_distractor_diamondtriangles.svg	stimuli_distractor_trianglediamonds.svg	37	no	0	1	2000
6.6.1	mac	2022-12-15	20:35:39	20:39:17	216259	60fce7c3094706567dd1870b	601474800	1	main_z	7	advance_on_keypress_ZEE	28	stimuli_distractor_diamondtriangles.svg	stimuli_distractor_trianglediamonds.svg	37	no	57	0	347
6.6.1	mac	2022-12-15	20:35:39	20:39:19	217807	60fce7c3094706567dd1870b	601474800	1	main_z	7	main_z	29	stimuli_target_diamondcircles.svg	stimuli_distractor_trianglediamonds.svg	19	yes	44	1	566
6.6.1	mac	2022-12-15	20:35:39	20:39:19	217807	60fce7c3094706567dd1870b	601474800	1	main_z	7	advance_on_keypress_ZEE	30	stimuli_target_diamondcircles.svg	stimuli_distractor_trianglediamonds.svg	19	yes	57	0	338
6.6.1	mac	2022-12-15	20:35:39	20:39:21	219669	60fce7c3094706567dd1870b	601474800	1	main_z	7	main_z	31	stimuli_target_circlediamonds.svg	stimuli_distractor_diamondtriangles.svg	6	yes	44	1	889
6.6.1	mac	2022-12-15	20:35:39	20:39:21	219669	60fce7c3094706567dd1870b	601474800	1	main_z	7	advance_on_keypress_ZEE	32	stimuli_target_circlediamonds.svg	stimuli_distractor_diamondtriangles.svg	6	yes	57	0	240
6.6.1	mac	2022-12-15	20:35:39	20:39:23	222546	60fce7c3094706567dd1870b	601474800	1	main_z	7	main_z	33	stimuli_distractor_trianglediamonds.svg	stimuli_distractor_diamondtriangles.svg	36	no	0	1	2000
6.6.1	mac	2022-12-15	20:35:39	20:39:23	222546	60fce7c3094706567dd1870b	601474800	1	main_z	7	advance_on_keypress_ZEE	34	stimuli_distractor_trianglediamonds.svg	stimuli_distractor_diamondtriangles.svg	36	no	57	0	342
6.6.1	mac	2022-12-15	20:35:39	20:39:26	224633	60fce7c3094706567dd1870b	601474800	1	main_z	7	main_z	35	stimuli_distractor_diamondtriangles.svg	stimuli_target_circletriangles.svg	13	yes	44	1	1120
6.6.1	mac	2022-12-15	20:35:39	20:39:26	224633	60fce7c3094706567dd1870b	601474800	1	main_z	7	advance_on_keypress_ZEE	36	stimuli_distractor_diamondtriangles.svg	stimuli_target_circletriangles.svg	13	yes	57	0	492
6.6.1	mac	2022-12-15	20:35:39	20:39:27	226308	60fce7c3094706567dd1870b	601474800	1	main_z	7	main_z	37	stimuli_target_circletriangles.svg	stimuli_distractor_trianglediamonds.svg	1	yes	44	1	553
6.6.1	mac	2022-12-15	20:35:39	20:39:27	226308	60fce7c3094706567dd1870b	601474800	1	main_z	7	advance_on_keypress_ZEE	38	stimuli_target_circletriangles.svg	stimuli_distractor_trianglediamonds.svg	1	yes	57	0	346
6.6.1	mac	2022-12-15	20:35:39	20:39:29	228038	60fce7c3094706567dd1870b	601474800	1	main_z	7	main_z	39	stimuli_target_trianglecircles.svg	stimuli_distractor_trianglediamonds.svg	17	yes	44	1	753
6.6.1	mac	2022-12-15	20:35:39	20:39:29	228038	60fce7c3094706567dd1870b	601474800	1	main_z	7	advance_on_keypress_ZEE	40	stimuli_target_trianglecircles.svg	stimuli_distractor_trianglediamonds.svg	17	yes	57	0	450
6.6.1	mac	2022-12-15	20:35:39	20:39:31	230134	60fce7c3094706567dd1870b	601474800	1	main_z	7	main_z	41	stimuli_target_squaretriangles.svg	stimuli_distractor_diamondtriangles.svg	7	yes	44	1	999
6.6.1	mac	2022-12-15	20:35:39	20:39:31	230134	60fce7c3094706567dd1870b	601474800	1	main_z	7	advance_on_keypress_ZEE	42	stimuli_target_squaretriangles.svg	stimuli_distractor_diamondtriangles.svg	7	yes	57	0	279
6.6.1	mac	2022-12-15	20:35:39	20:39:34	233055	60fce7c3094706567dd1870b	601474800	1	main_z	7	main_z	43	stimuli_distractor_trianglediamonds.svg	stimuli_distractor_diamondtriangles.svg	35	no	0	1	2000
6.6.1	mac	2022-12-15	20:35:39	20:39:34	233055	60fce7c3094706567dd1870b	601474800	1	main_z	7	advance_on_keypress_ZEE	44	stimuli_distractor_trianglediamonds.svg	stimuli_distractor_diamondtriangles.svg	35	no	57	0	448
6.6.1	mac	2022-12-15	20:35:39	20:39:37	236153	60fce7c3094706567dd1870b	601474800	1	main_z	7	main_z	45	stimuli_distractor_diamondtriangles.svg	stimuli_distractor_diamondtriangles.svg	39	no	0	1	2000
6.6.1	mac	2022-12-15	20:35:39	20:39:37	236153	60fce7c3094706567dd1870b	601474800	1	main_z	7	advance_on_keypress_ZEE	46	stimuli_distractor_diamondtriangles.svg	stimuli_distractor_diamondtriangles.svg	39	no	57	0	418
6.6.1	mac	2022-12-15	20:35:39	20:39:40	239203	60fce7c3094706567dd1870b	601474800	1	main_z	7	main_z	47	stimuli_distractor_diamondtriangles.svg	stimuli_distractor_trianglediamonds.svg	38	no	0	1	2000
6.6.1	mac	2022-12-15	20:35:39	20:39:40	239203	60fce7c3094706567dd1870b	601474800	1	main_z	7	advance_on_keypress_ZEE	48	stimuli_distractor_diamondtriangles.svg	stimuli_distractor_trianglediamonds.svg	38	no	57	0	386
6.6.1	mac	2022-12-15	20:35:39	20:39:42	240835	60fce7c3094706567dd1870b	601474800	1	main_z	7	main_z	49	stimuli_target_trianglecircles.svg	stimuli_distractor_diamondtriangles.svg	21	yes	44	1	610
6.6.1	mac	2022-12-15	20:35:39	20:39:42	240835	60fce7c3094706567dd1870b	601474800	1	main_z	7	advance_on_keypress_ZEE	50	stimuli_target_trianglecircles.svg	stimuli_distractor_diamondtriangles.svg	21	yes	57	0	384
6.6.1	mac	2022-12-15	20:35:39	20:39:43	242579	60fce7c3094706567dd1870b	601474800	1	main_z	7	main_z	51	stimuli_target_diamondsquares.svg	stimuli_distractor_trianglediamonds.svg	20	yes	44	1	723
6.6.1	mac	2022-12-15	20:35:39	20:39:43	242579	60fce7c3094706567dd1870b	601474800	1	main_z	7	advance_on_keypress_ZEE	52	stimuli_target_diamondsquares.svg	stimuli_distractor_trianglediamonds.svg	20	yes	57	0	344
6.6.1	mac	2022-12-15	20:35:39	20:39:45	244402	60fce7c3094706567dd1870b	601474800	1	main_z	7	main_z	53	stimuli_distractor_trianglediamonds.svg	stimuli_target_circlediamonds.svg	10	yes	44	1	824
6.6.1	mac	2022-12-15	20:35:39	20:39:45	244402	60fce7c3094706567dd1870b	601474800	1	main_z	7	advance_on_keypress_ZEE	54	stimuli_distractor_trianglediamonds.svg	stimuli_target_circlediamonds.svg	10	yes	57	0	282
6.6.1	mac	2022-12-15	20:35:39	20:39:47	246368	60fce7c3094706567dd1870b	601474800	1	main_z	7	main_z	55	stimuli_distractor_diamondtriangles.svg	stimuli_target_trianglecircles.svg	29	yes	44	1	1039
6.6.1	mac	2022-12-15	20:35:39	20:39:47	246368	60fce7c3094706567dd1870b	601474800	1	main_z	7	advance_on_keypress_ZEE	56	stimuli_distractor_diamondtriangles.svg	stimuli_target_trianglecircles.svg	29	yes	57	0	392
6.6.1	mac	2022-12-15	20:35:39	20:39:49	248477	60fce7c3094706567dd1870b	601474800	1	main_z	7	main_z	57	stimuli_target_trianglesquares.svg	stimuli_distractor_diamondtriangles.svg	22	yes	44	1	1076
6.6.1	mac	2022-12-15	20:35:39	20:39:49	248477	60fce7c3094706567dd1870b	601474800	1	main_z	7	advance_on_keypress_ZEE	58	stimuli_target_trianglesquares.svg	stimuli_distractor_diamondtriangles.svg	22	yes	57	0	382
6.6.1	mac	2022-12-15	20:35:39	20:39:51	250406	60fce7c3094706567dd1870b	601474800	1	main_z	7	main_z	59	stimuli_distractor_trianglediamonds.svg	stimuli_target_squarediamonds.svg	12	yes	44	1	903
6.6.1	mac	2022-12-15	20:35:39	20:39:51	250406	60fce7c3094706567dd1870b	601474800	1	main_z	7	advance_on_keypress_ZEE	60	stimuli_distractor_trianglediamonds.svg	stimuli_target_squarediamonds.svg	12	yes	57	0	261
6.6.1	mac	2022-12-15	20:35:39	20:39:53	252501	60fce7c3094706567dd1870b	601474800	1	main_z	7	main_z	61	stimuli_distractor_trianglediamonds.svg	stimuli_distractor_trianglediamonds.svg	34	no	44	0	1180
6.6.1	mac	2022-12-15	20:35:39	20:39:53	252501	60fce7c3094706567dd1870b	601474800	1	main_z	7	advance_on_keypress_ZEE	62	stimuli_distractor_trianglediamonds.svg	stimuli_distractor_trianglediamonds.svg	34	no	57	0	633
6.6.1	mac	2022-12-15	20:35:39	20:39:55	254627	60fce7c3094706567dd1870b	601474800	1	main_z	7	main_z	63	stimuli_target_squarediamonds.svg	stimuli_distractor_trianglediamonds.svg	4	yes	44	1	846
6.6.1	mac	2022-12-15	20:35:39	20:39:55	254627	60fce7c3094706567dd1870b	601474800	1	main_z	7	advance_on_keypress_ZEE	64	stimuli_target_squarediamonds.svg	stimuli_distractor_trianglediamonds.svg	4	yes	57	0	277
6.6.1	mac	2022-12-15	20:35:39	20:39:57	256304	60fce7c3094706567dd1870b	601474800	1	main_z	7	main_z	65	stimuli_distractor_trianglediamonds.svg	stimuli_target_circletriangles.svg	9	yes	44	1	762
6.6.1	mac	2022-12-15	20:35:39	20:39:57	256304	60fce7c3094706567dd1870b	601474800	1	main_z	7	advance_on_keypress_ZEE	66	stimuli_distractor_trianglediamonds.svg	stimuli_target_circletriangles.svg	9	yes	57	0	323
6.6.1	mac	2022-12-15	20:35:39	20:39:59	258118	60fce7c3094706567dd1870b	601474800	1	main_z	7	main_z	67	stimuli_target_trianglesquares.svg	stimuli_distractor_trianglediamonds.svg	18	yes	44	1	860
6.6.1	mac	2022-12-15	20:35:39	20:39:59	258118	60fce7c3094706567dd1870b	601474800	1	main_z	7	advance_on_keypress_ZEE	68	stimuli_target_trianglesquares.svg	stimuli_distractor_trianglediamonds.svg	18	yes	57	0	228
6.6.1	mac	2022-12-15	20:35:39	20:40:01	259952	60fce7c3094706567dd1870b	601474800	1	main_z	7	main_z	69	stimuli_target_squarediamonds.svg	stimuli_distractor_diamondtriangles.svg	8	yes	44	1	959
6.6.1	mac	2022-12-15	20:35:39	20:40:01	259952	60fce7c3094706567dd1870b	601474800	1	main_z	7	advance_on_keypress_ZEE	70	stimuli_target_squarediamonds.svg	stimuli_distractor_diamondtriangles.svg	8	yes	57	0	236
6.6.1	mac	2022-12-15	20:35:39	20:40:02	261564	60fce7c3094706567dd1870b	601474800	1	main_z	7	main_z	71	stimuli_target_circlediamonds.svg	stimuli_distractor_trianglediamonds.svg	2	yes	44	1	736
6.6.1	mac	2022-12-15	20:35:39	20:40:02	261564	60fce7c3094706567dd1870b	601474800	1	main_z	7	advance_on_keypress_ZEE	72	stimuli_target_circlediamonds.svg	stimuli_distractor_trianglediamonds.svg	2	yes	57	0	270
6.6.1	mac	2022-12-15	20:35:39	20:40:04	263400	60fce7c3094706567dd1870b	601474800	1	main_z	7	main_z	73	stimuli_target_diamondsquares.svg	stimuli_distractor_diamondtriangles.svg	24	yes	44	1	923
6.6.1	mac	2022-12-15	20:35:39	20:40:04	263400	60fce7c3094706567dd1870b	601474800	1	main_z	7	advance_on_keypress_ZEE	74	stimuli_target_diamondsquares.svg	stimuli_distractor_diamondtriangles.svg	24	yes	57	0	306
6.6.1	mac	2022-12-15	20:35:39	20:40:06	265147	60fce7c3094706567dd1870b	601474800	1	main_z	7	main_z	75	stimuli_distractor_diamondtriangles.svg	stimuli_target_squarediamonds.svg	16	yes	44	1	798
6.6.1	mac	2022-12-15	20:35:39	20:40:06	265147	60fce7c3094706567dd1870b	601474800	1	main_z	7	advance_on_keypress_ZEE	76	stimuli_distractor_diamondtriangles.svg	stimuli_target_squarediamonds.svg	16	yes	57	0	216
6.6.1	mac	2022-12-15	20:35:39	20:40:08	266937	60fce7c3094706567dd1870b	601474800	1	main_z	7	main_z	77	stimuli_distractor_trianglediamonds.svg	stimuli_target_diamondsquares.svg	28	yes	44	1	940
6.6.1	mac	2022-12-15	20:35:39	20:40:08	266937	60fce7c3094706567dd1870b	601474800	1	main_z	7	advance_on_keypress_ZEE	78	stimuli_distractor_trianglediamonds.svg	stimuli_target_diamondsquares.svg	28	yes	57	0	235
6.6.1	mac	2022-12-15	20:35:39	20:40:09	268542	60fce7c3094706567dd1870b	601474800	1	main_z	7	main_z	79	stimuli_distractor_trianglediamonds.svg	stimuli_target_diamondcircles.svg	27	yes	44	1	726
6.6.1	mac	2022-12-15	20:35:39	20:40:09	268542	60fce7c3094706567dd1870b	601474800	1	main_z	7	advance_on_keypress_ZEE	80	stimuli_distractor_trianglediamonds.svg	stimuli_target_diamondcircles.svg	27	yes	57	0	267
6.6.1	mac	2022-12-15	20:35:39	20:40:11	270278	60fce7c3094706567dd1870b	601474800	1	main_z	7	main_z	81	stimuli_distractor_trianglediamonds.svg	stimuli_target_diamondcircles.svg	27	yes	44	1	829
6.6.1	mac	2022-12-15	20:35:39	20:40:11	270278	60fce7c3094706567dd1870b	601474800	1	main_z	7	advance_on_keypress_ZEE	82	stimuli_distractor_trianglediamonds.svg	stimuli_target_diamondcircles.svg	27	yes	57	0	219
6.6.1	mac	2022-12-15	20:35:39	20:40:13	271935	60fce7c3094706567dd1870b	601474800	1	main_z	7	main_z	83	stimuli_distractor_diamondtriangles.svg	stimuli_target_diamondcircles.svg	31	yes	44	1	800
6.6.1	mac	2022-12-15	20:35:39	20:40:13	271935	60fce7c3094706567dd1870b	601474800	1	main_z	7	advance_on_keypress_ZEE	84	stimuli_distractor_diamondtriangles.svg	stimuli_target_diamondcircles.svg	31	yes	57	0	177
6.6.1	mac	2022-12-15	20:35:39	20:40:16	274749	60fce7c3094706567dd1870b	601474800	1	main_z	7	main_z	85	stimuli_distractor_diamondtriangles.svg	stimuli_distractor_diamondtriangles.svg	40	no	0	1	2000
6.6.1	mac	2022-12-15	20:35:39	20:40:16	274749	60fce7c3094706567dd1870b	601474800	1	main_z	7	advance_on_keypress_ZEE	86	stimuli_distractor_diamondtriangles.svg	stimuli_distractor_diamondtriangles.svg	40	no	57	0	314
6.6.1	mac	2022-12-15	20:35:39	20:40:19	277701	60fce7c3094706567dd1870b	601474800	1	main_z	7	main_z	87	stimuli_distractor_diamondtriangles.svg	stimuli_distractor_trianglediamonds.svg	37	no	0	1	2000
6.6.1	mac	2022-12-15	20:35:39	20:40:19	277701	60fce7c3094706567dd1870b	601474800	1	main_z	7	advance_on_keypress_ZEE	88	stimuli_distractor_diamondtriangles.svg	stimuli_distractor_trianglediamonds.svg	37	no	57	0	328
6.6.1	mac	2022-12-15	20:35:39	20:40:20	279363	60fce7c3094706567dd1870b	601474800	1	main_z	7	main_z	89	stimuli_distractor_trianglediamonds.svg	stimuli_target_circlediamonds.svg	10	yes	44	1	710
6.6.1	mac	2022-12-15	20:35:39	20:40:20	279363	60fce7c3094706567dd1870b	601474800	1	main_z	7	advance_on_keypress_ZEE	90	stimuli_distractor_trianglediamonds.svg	stimuli_target_circlediamonds.svg	10	yes	57	0	248
6.6.1	mac	2022-12-15	20:35:39	20:40:22	280860	60fce7c3094706567dd1870b	601474800	1	main_z	7	main_z	91	stimuli_target_diamondcircles.svg	stimuli_distractor_diamondtriangles.svg	23	yes	44	1	606
6.6.1	mac	2022-12-15	20:35:39	20:40:22	280860	60fce7c3094706567dd1870b	601474800	1	main_z	7	advance_on_keypress_ZEE	92	stimuli_target_diamondcircles.svg	stimuli_distractor_diamondtriangles.svg	23	yes	57	0	298
6.6.1	mac	2022-12-15	20:35:39	20:40:24	282714	60fce7c3094706567dd1870b	601474800	1	main_z	7	main_z	93	stimuli_target_diamondsquares.svg	stimuli_distractor_diamondtriangles.svg	24	yes	44	1	911
6.6.1	mac	2022-12-15	20:35:39	20:40:24	282714	60fce7c3094706567dd1870b	601474800	1	main_z	7	advance_on_keypress_ZEE	94	stimuli_target_diamondsquares.svg	stimuli_distractor_diamondtriangles.svg	24	yes	57	0	208
6.6.1	mac	2022-12-15	20:35:39	20:40:25	284539	60fce7c3094706567dd1870b	601474800	1	main_z	7	main_z	95	stimuli_target_circlediamonds.svg	stimuli_distractor_trianglediamonds.svg	2	yes	44	1	981
6.6.1	mac	2022-12-15	20:35:39	20:40:25	284539	60fce7c3094706567dd1870b	601474800	1	main_z	7	advance_on_keypress_ZEE	96	stimuli_target_circlediamonds.svg	stimuli_distractor_trianglediamonds.svg	2	yes	57	0	245
6.6.1	mac	2022-12-15	20:35:39	20:40:27	286172	60fce7c3094706567dd1870b	601474800	1	main_z	7	main_z	97	stimuli_distractor_diamondtriangles.svg	stimuli_target_trianglecircles.svg	29	yes	44	1	746
6.6.1	mac	2022-12-15	20:35:39	20:40:27	286172	60fce7c3094706567dd1870b	601474800	1	main_z	7	advance_on_keypress_ZEE	98	stimuli_distractor_diamondtriangles.svg	stimuli_target_trianglecircles.svg	29	yes	57	0	280
6.6.1	mac	2022-12-15	20:35:39	20:40:29	287843	60fce7c3094706567dd1870b	601474800	1	main_z	7	main_z	99	stimuli_target_trianglesquares.svg	stimuli_distractor_diamondtriangles.svg	22	yes	44	1	750
6.6.1	mac	2022-12-15	20:35:39	20:40:29	287843	60fce7c3094706567dd1870b	601474800	1	main_z	7	advance_on_keypress_ZEE	100	stimuli_target_trianglesquares.svg	stimuli_distractor_diamondtriangles.svg	22	yes	57	0	200
6.6.1	mac	2022-12-15	20:35:39	20:40:31	290065	60fce7c3094706567dd1870b	601474800	1	main_z	7	main_z	101	stimuli_distractor_diamondtriangles.svg	stimuli_target_diamondsquares.svg	32	yes	44	1	1388
6.6.1	mac	2022-12-15	20:35:39	20:40:31	290065	60fce7c3094706567dd1870b	601474800	1	main_z	7	advance_on_keypress_ZEE	102	stimuli_distractor_diamondtriangles.svg	stimuli_target_diamondsquares.svg	32	yes	57	0	167
6.6.1	mac	2022-12-15	20:35:39	20:40:32	291443	60fce7c3094706567dd1870b	601474800	1	main_z	7	main_z	103	stimuli_distractor_trianglediamonds.svg	stimuli_target_trianglecircles.svg	25	yes	44	1	577
6.6.1	mac	2022-12-15	20:35:39	20:40:32	291443	60fce7c3094706567dd1870b	601474800	1	main_z	7	advance_on_keypress_ZEE	104	stimuli_distractor_trianglediamonds.svg	stimuli_target_trianglecircles.svg	25	yes	57	0	199
6.6.1	mac	2022-12-15	20:35:39	20:40:34	293072	60fce7c3094706567dd1870b	601474800	1	main_z	7	main_z	105	stimuli_distractor_trianglediamonds.svg	stimuli_target_circletriangles.svg	9	yes	44	1	796
6.6.1	mac	2022-12-15	20:35:39	20:40:34	293072	60fce7c3094706567dd1870b	601474800	1	main_z	7	advance_on_keypress_ZEE	106	stimuli_distractor_trianglediamonds.svg	stimuli_target_circletriangles.svg	9	yes	57	0	191
6.6.1	mac	2022-12-15	20:35:39	20:40:37	295897	60fce7c3094706567dd1870b	601474800	1	main_z	7	main_z	107	stimuli_distractor_trianglediamonds.svg	stimuli_target_diamondsquares.svg	28	yes	0	0	2000
6.6.1	mac	2022-12-15	20:35:39	20:40:37	295897	60fce7c3094706567dd1870b	601474800	1	main_z	7	advance_on_keypress_ZEE	108	stimuli_distractor_trianglediamonds.svg	stimuli_target_diamondsquares.svg	28	yes	57	0	378
6.6.1	mac	2022-12-15	20:35:39	20:40:38	297545	60fce7c3094706567dd1870b	601474800	1	main_z	7	main_z	109	stimuli_target_diamondcircles.svg	stimuli_distractor_trianglediamonds.svg	19	yes	44	1	642
6.6.1	mac	2022-12-15	20:35:39	20:40:38	297545	60fce7c3094706567dd1870b	601474800	1	main_z	7	advance_on_keypress_ZEE	110	stimuli_target_diamondcircles.svg	stimuli_distractor_trianglediamonds.svg	19	yes	57	0	187
6.6.1	mac	2022-12-15	20:35:39	20:40:40	299225	60fce7c3094706567dd1870b	601474800	1	main_z	7	main_z	111	stimuli_target_squarediamonds.svg	stimuli_distractor_diamondtriangles.svg	8	yes	44	1	857
6.6.1	mac	2022-12-15	20:35:39	20:40:40	299225	60fce7c3094706567dd1870b	601474800	1	main_z	7	advance_on_keypress_ZEE	112	stimuli_target_squarediamonds.svg	stimuli_distractor_diamondtriangles.svg	8	yes	57	0	173
6.6.1	mac	2022-12-15	20:35:39	20:40:42	300751	60fce7c3094706567dd1870b	601474800	1	main_z	7	main_z	113	stimuli_target_squaretriangles.svg	stimuli_distractor_diamondtriangles.svg	7	yes	44	1	711
6.6.1	mac	2022-12-15	20:35:39	20:40:42	300751	60fce7c3094706567dd1870b	601474800	1	main_z	7	advance_on_keypress_ZEE	114	stimuli_target_squaretriangles.svg	stimuli_distractor_diamondtriangles.svg	7	yes	57	0	198
6.6.1	mac	2022-12-15	20:35:39	20:40:44	302662	60fce7c3094706567dd1870b	601474800	1	main_z	7	main_z	115	stimuli_distractor_diamondtriangles.svg	stimuli_distractor_trianglediamonds.svg	38	no	44	0	1071
6.6.1	mac	2022-12-15	20:35:39	20:40:44	302662	60fce7c3094706567dd1870b	601474800	1	main_z	7	advance_on_keypress_ZEE	116	stimuli_distractor_diamondtriangles.svg	stimuli_distractor_trianglediamonds.svg	38	no	57	0	148
6.6.1	mac	2022-12-15	20:35:39	20:40:46	305443	60fce7c3094706567dd1870b	601474800	1	main_z	7	main_z	117	stimuli_distractor_trianglediamonds.svg	stimuli_distractor_trianglediamonds.svg	34	no	0	1	2000
6.6.1	mac	2022-12-15	20:35:39	20:40:46	305443	60fce7c3094706567dd1870b	601474800	1	main_z	7	advance_on_keypress_ZEE	118	stimuli_distractor_trianglediamonds.svg	stimuli_distractor_trianglediamonds.svg	34	no	57	0	286
6.6.1	mac	2022-12-15	20:35:39	20:40:48	307137	60fce7c3094706567dd1870b	601474800	1	main_z	7	main_z	119	stimuli_distractor_trianglediamonds.svg	stimuli_target_squarediamonds.svg	12	yes	44	1	776
6.6.1	mac	2022-12-15	20:35:39	20:40:48	307137	60fce7c3094706567dd1870b	601474800	1	main_z	7	advance_on_keypress_ZEE	120	stimuli_distractor_trianglediamonds.svg	stimuli_target_squarediamonds.svg	12	yes	57	0	205
6.6.1	mac	2022-12-15	20:35:39	20:40:50	309046	60fce7c3094706567dd1870b	601474800	1	main_z	7	main_z	121	stimuli_distractor_diamondtriangles.svg	stimuli_target_trianglesquares.svg	30	yes	44	1	1065
6.6.1	mac	2022-12-15	20:35:39	20:40:50	309046	60fce7c3094706567dd1870b	601474800	1	main_z	7	advance_on_keypress_ZEE	122	stimuli_distractor_diamondtriangles.svg	stimuli_target_trianglesquares.svg	30	yes	57	0	160
6.6.1	mac	2022-12-15	20:35:39	20:40:53	311851	60fce7c3094706567dd1870b	601474800	1	main_z	7	main_z	123	stimuli_distractor_trianglediamonds.svg	stimuli_distractor_trianglediamonds.svg	33	no	0	1	2000
6.6.1	mac	2022-12-15	20:35:39	20:40:53	311851	60fce7c3094706567dd1870b	601474800	1	main_z	7	advance_on_keypress_ZEE	124	stimuli_distractor_trianglediamonds.svg	stimuli_distractor_trianglediamonds.svg	33	no	57	0	565
6.6.1	mac	2022-12-15	20:35:39	20:40:55	313742	60fce7c3094706567dd1870b	601474800	1	main_z	7	main_z	125	stimuli_distractor_diamondtriangles.svg	stimuli_distractor_diamondtriangles.svg	39	no	44	0	684
6.6.1	mac	2022-12-15	20:35:39	20:40:55	313742	60fce7c3094706567dd1870b	601474800	1	main_z	7	advance_on_keypress_ZEE	126	stimuli_distractor_diamondtriangles.svg	stimuli_distractor_diamondtriangles.svg	39	no	57	0	519
6.6.1	mac	2022-12-15	20:35:39	20:40:57	315674	60fce7c3094706567dd1870b	601474800	1	main_z	7	main_z	127	stimuli_distractor_diamondtriangles.svg	stimuli_target_squaretriangles.svg	15	yes	44	1	768
6.6.1	mac	2022-12-15	20:35:39	20:40:57	315674	60fce7c3094706567dd1870b	601474800	1	main_z	7	advance_on_keypress_ZEE	128	stimuli_distractor_diamondtriangles.svg	stimuli_target_squaretriangles.svg	15	yes	57	0	199
6.6.1	mac	2022-12-15	20:35:39	20:40:58	317103	60fce7c3094706567dd1870b	601474800	1	main_z	7	main_z	129	stimuli_target_squarediamonds.svg	stimuli_distractor_trianglediamonds.svg	4	yes	44	1	582
6.6.1	mac	2022-12-15	20:35:39	20:40:58	317103	60fce7c3094706567dd1870b	601474800	1	main_z	7	advance_on_keypress_ZEE	130	stimuli_target_squarediamonds.svg	stimuli_distractor_trianglediamonds.svg	4	yes	57	0	176
6.6.1	mac	2022-12-15	20:35:39	20:41:01	319919	60fce7c3094706567dd1870b	601474800	1	main_z	7	main_z	131	stimuli_distractor_trianglediamonds.svg	stimuli_distractor_diamondtriangles.svg	36	no	0	1	2000
6.6.1	mac	2022-12-15	20:35:39	20:41:01	319919	60fce7c3094706567dd1870b	601474800	1	main_z	7	advance_on_keypress_ZEE	132	stimuli_distractor_trianglediamonds.svg	stimuli_distractor_diamondtriangles.svg	36	no	57	0	314
6.6.1	mac	2022-12-15	20:35:39	20:41:04	322874	60fce7c3094706567dd1870b	601474800	1	main_z	7	main_z	133	stimuli_target_trianglesquares.svg	stimuli_distractor_trianglediamonds.svg	18	yes	0	0	2000
6.6.1	mac	2022-12-15	20:35:39	20:41:04	322874	60fce7c3094706567dd1870b	601474800	1	main_z	7	advance_on_keypress_ZEE	134	stimuli_target_trianglesquares.svg	stimuli_distractor_trianglediamonds.svg	18	yes	57	0	430
6.6.1	mac	2022-12-15	20:35:39	20:41:07	325944	60fce7c3094706567dd1870b	601474800	1	main_z	7	main_z	135	stimuli_distractor_trianglediamonds.svg	stimuli_distractor_diamondtriangles.svg	35	no	0	1	2000
6.6.1	mac	2022-12-15	20:35:39	20:41:07	325944	60fce7c3094706567dd1870b	601474800	1	main_z	7	advance_on_keypress_ZEE	136	stimuli_distractor_trianglediamonds.svg	stimuli_distractor_diamondtriangles.svg	35	no	57	0	319
6.6.1	mac	2022-12-15	20:35:39	20:41:09	327920	60fce7c3094706567dd1870b	601474800	1	main_z	7	main_z	137	stimuli_target_squaretriangles.svg	stimuli_distractor_trianglediamonds.svg	3	yes	44	1	1025
6.6.1	mac	2022-12-15	20:35:39	20:41:09	327920	60fce7c3094706567dd1870b	601474800	1	main_z	7	advance_on_keypress_ZEE	138	stimuli_target_squaretriangles.svg	stimuli_distractor_trianglediamonds.svg	3	yes	57	0	205
6.6.1	mac	2022-12-15	20:35:39	20:41:11	329660	60fce7c3094706567dd1870b	601474800	1	main_z	7	main_z	139	stimuli_target_circletriangles.svg	stimuli_distractor_diamondtriangles.svg	5	yes	44	1	893
6.6.1	mac	2022-12-15	20:35:39	20:41:11	329660	60fce7c3094706567dd1870b	601474800	1	main_z	7	advance_on_keypress_ZEE	140	stimuli_target_circletriangles.svg	stimuli_distractor_diamondtriangles.svg	5	yes	57	0	166
6.6.1	mac	2022-12-15	20:35:39	20:41:12	331390	60fce7c3094706567dd1870b	601474800	1	main_z	7	main_z	141	stimuli_target_trianglecircles.svg	stimuli_distractor_trianglediamonds.svg	17	yes	44	1	923
6.6.1	mac	2022-12-15	20:35:39	20:41:12	331390	60fce7c3094706567dd1870b	601474800	1	main_z	7	advance_on_keypress_ZEE	142	stimuli_target_trianglecircles.svg	stimuli_distractor_trianglediamonds.svg	17	yes	57	0	194
6.6.1	mac	2022-12-15	20:35:39	20:41:14	333403	60fce7c3094706567dd1870b	601474800	1	main_z	7	main_z	143	stimuli_target_diamondsquares.svg	stimuli_distractor_trianglediamonds.svg	20	yes	44	1	1167
6.6.1	mac	2022-12-15	20:35:39	20:41:14	333403	60fce7c3094706567dd1870b	601474800	1	main_z	7	advance_on_keypress_ZEE	144	stimuli_target_diamondsquares.svg	stimuli_distractor_trianglediamonds.svg	20	yes	57	0	175
6.6.1	mac	2022-12-15	20:35:39	20:41:16	335315	60fce7c3094706567dd1870b	601474800	1	main_z	7	main_z	145	stimuli_distractor_diamondtriangles.svg	stimuli_target_circlediamonds.svg	14	yes	44	1	1108
6.6.1	mac	2022-12-15	20:35:39	20:41:16	335315	60fce7c3094706567dd1870b	601474800	1	main_z	7	advance_on_keypress_ZEE	146	stimuli_distractor_diamondtriangles.svg	stimuli_target_circlediamonds.svg	14	yes	57	0	148
6.6.1	mac	2022-12-15	20:35:39	20:41:18	336830	60fce7c3094706567dd1870b	601474800	1	main_z	7	main_z	147	stimuli_distractor_trianglediamonds.svg	stimuli_target_squaretriangles.svg	11	yes	44	1	719
6.6.1	mac	2022-12-15	20:35:39	20:41:18	336830	60fce7c3094706567dd1870b	601474800	1	main_z	7	advance_on_keypress_ZEE	148	stimuli_distractor_trianglediamonds.svg	stimuli_target_squaretriangles.svg	11	yes	57	0	186
6.6.1	mac	2022-12-15	20:35:39	20:41:20	338751	60fce7c3094706567dd1870b	601474800	1	main_z	7	main_z	149	stimuli_distractor_trianglediamonds.svg	stimuli_target_trianglesquares.svg	26	yes	44	1	1092
6.6.1	mac	2022-12-15	20:35:39	20:41:20	338751	60fce7c3094706567dd1870b	601474800	1	main_z	7	advance_on_keypress_ZEE	150	stimuli_distractor_trianglediamonds.svg	stimuli_target_trianglesquares.svg	26	yes	57	0	201
6.6.1	mac	2022-12-15	20:35:39	20:41:21	340370	60fce7c3094706567dd1870b	601474800	1	main_z	7	main_z	151	stimuli_distractor_diamondtriangles.svg	stimuli_target_circletriangles.svg	13	yes	44	1	787
6.6.1	mac	2022-12-15	20:35:39	20:41:21	340370	60fce7c3094706567dd1870b	601474800	1	main_z	7	advance_on_keypress_ZEE	152	stimuli_distractor_diamondtriangles.svg	stimuli_target_circletriangles.svg	13	yes	57	0	175
6.6.1	mac	2022-12-15	20:35:39	20:41:23	341837	60fce7c3094706567dd1870b	601474800	1	main_z	7	main_z	153	stimuli_target_circletriangles.svg	stimuli_distractor_trianglediamonds.svg	1	yes	44	1	637
6.6.1	mac	2022-12-15	20:35:39	20:41:23	341837	60fce7c3094706567dd1870b	601474800	1	main_z	7	advance_on_keypress_ZEE	154	stimuli_target_circletriangles.svg	stimuli_distractor_trianglediamonds.svg	1	yes	57	0	156
6.6.1	mac	2022-12-15	20:35:39	20:41:24	343307	60fce7c3094706567dd1870b	601474800	1	main_z	7	main_z	155	stimuli_distractor_diamondtriangles.svg	stimuli_target_squarediamonds.svg	16	yes	44	1	673
6.6.1	mac	2022-12-15	20:35:39	20:41:24	343307	60fce7c3094706567dd1870b	601474800	1	main_z	7	advance_on_keypress_ZEE	156	stimuli_distractor_diamondtriangles.svg	stimuli_target_squarediamonds.svg	16	yes	57	0	127
6.6.1	mac	2022-12-15	20:35:39	20:41:26	344684	60fce7c3094706567dd1870b	601474800	1	main_z	7	main_z	157	stimuli_target_circlediamonds.svg	stimuli_distractor_diamondtriangles.svg	6	yes	44	1	600
6.6.1	mac	2022-12-15	20:35:39	20:41:26	344684	60fce7c3094706567dd1870b	601474800	1	main_z	7	advance_on_keypress_ZEE	158	stimuli_target_circlediamonds.svg	stimuli_distractor_diamondtriangles.svg	6	yes	57	0	145
6.6.1	mac	2022-12-15	20:35:39	20:41:27	346041	60fce7c3094706567dd1870b	601474800	1	main_z	7	main_z	159	stimuli_target_trianglecircles.svg	stimuli_distractor_diamondtriangles.svg	21	yes	44	1	575
6.6.1	mac	2022-12-15	20:35:39	20:41:27	346041	60fce7c3094706567dd1870b	601474800	1	main_z	7	advance_on_keypress_ZEE	160	stimuli_target_trianglecircles.svg	stimuli_distractor_diamondtriangles.svg	21	yes	57	0	178
6.6.1	mac	2022-12-15	20:35:39	20:41:53	372096	60fce7c3094706567dd1870b	601474800	1	practice_slash	9	practice_slash	1	stimuli_target_diamondsquares.svg	stimuli_distractor_diamondtriangles.svg	3	yes	53	1	1052
6.6.1	mac	2022-12-15	20:35:39	20:41:53	372096	60fce7c3094706567dd1870b	601474800	1	practice_slash	9	advance_on_keypress_SLASH	2	stimuli_target_diamondsquares.svg	stimuli_distractor_diamondtriangles.svg	3	yes	57	0	714
6.6.1	mac	2022-12-15	20:35:39	20:41:56	375076	60fce7c3094706567dd1870b	601474800	1	practice_slash	9	practice_slash	3	stimuli_distractor_diamondtriangles.svg	stimuli_target_circletriangles.svg	7	yes	53	1	601
6.6.1	mac	2022-12-15	20:35:39	20:41:56	375076	60fce7c3094706567dd1870b	601474800	1	practice_slash	9	advance_on_keypress_SLASH	4	stimuli_distractor_diamondtriangles.svg	stimuli_target_circletriangles.svg	7	yes	57	0	497
6.6.1	mac	2022-12-15	20:35:39	20:42:00	379217	60fce7c3094706567dd1870b	601474800	1	practice_slash	9	practice_slash	5	stimuli_distractor_trianglediamonds.svg	stimuli_distractor_diamondtriangles.svg	16	no	0	1	2000
6.6.1	mac	2022-12-15	20:35:39	20:42:00	379217	60fce7c3094706567dd1870b	601474800	1	practice_slash	9	advance_on_keypress_SLASH	6	stimuli_distractor_trianglediamonds.svg	stimuli_distractor_diamondtriangles.svg	16	no	57	0	572
6.6.1	mac	2022-12-15	20:35:39	20:42:03	382118	60fce7c3094706567dd1870b	601474800	1	practice_slash	9	practice_slash	7	stimuli_distractor_trianglediamonds.svg	stimuli_target_circlediamonds.svg	10	yes	53	1	693
6.6.1	mac	2022-12-15	20:35:39	20:42:03	382118	60fce7c3094706567dd1870b	601474800	1	practice_slash	9	advance_on_keypress_SLASH	8	stimuli_distractor_trianglediamonds.svg	stimuli_target_circlediamonds.svg	10	yes	57	0	470
6.6.1	mac	2022-12-15	20:35:39	20:42:06	384851	60fce7c3094706567dd1870b	601474800	1	practice_slash	9	practice_slash	9	stimuli_target_circlediamonds.svg	stimuli_distractor_trianglediamonds.svg	4	yes	53	1	622
6.6.1	mac	2022-12-15	20:35:39	20:42:06	384851	60fce7c3094706567dd1870b	601474800	1	practice_slash	9	advance_on_keypress_SLASH	10	stimuli_target_circlediamonds.svg	stimuli_distractor_trianglediamonds.svg	4	yes	57	0	1400
6.6.1	mac	2022-12-15	20:35:39	20:42:09	388500	60fce7c3094706567dd1870b	601474800	1	practice_slash	9	practice_slash	11	stimuli_target_squarediamonds.svg	stimuli_distractor_trianglediamonds.svg	5	yes	53	1	603
6.6.1	mac	2022-12-15	20:35:39	20:42:09	388500	60fce7c3094706567dd1870b	601474800	1	practice_slash	9	advance_on_keypress_SLASH	12	stimuli_target_squarediamonds.svg	stimuli_distractor_trianglediamonds.svg	5	yes	57	0	620
6.6.1	mac	2022-12-15	20:35:39	20:42:12	391450	60fce7c3094706567dd1870b	601474800	1	practice_slash	9	practice_slash	13	stimuli_target_circlediamonds.svg	stimuli_distractor_diamondtriangles.svg	1	yes	53	1	690
6.6.1	mac	2022-12-15	20:35:39	20:42:12	391450	60fce7c3094706567dd1870b	601474800	1	practice_slash	9	advance_on_keypress_SLASH	14	stimuli_target_circlediamonds.svg	stimuli_distractor_diamondtriangles.svg	1	yes	57	0	774
6.6.1	mac	2022-12-15	20:35:39	20:42:15	394500	60fce7c3094706567dd1870b	601474800	1	practice_slash	9	practice_slash	15	stimuli_distractor_trianglediamonds.svg	stimuli_target_diamondcircles.svg	12	yes	53	1	633
6.6.1	mac	2022-12-15	20:35:39	20:42:15	394500	60fce7c3094706567dd1870b	601474800	1	practice_slash	9	advance_on_keypress_SLASH	16	stimuli_distractor_trianglediamonds.svg	stimuli_target_diamondcircles.svg	12	yes	57	0	629
6.6.1	mac	2022-12-15	20:35:39	20:42:18	397345	60fce7c3094706567dd1870b	601474800	1	practice_slash	9	practice_slash	17	stimuli_distractor_diamondtriangles.svg	stimuli_target_diamondcircles.svg	8	yes	53	1	559
6.6.1	mac	2022-12-15	20:35:39	20:42:18	397345	60fce7c3094706567dd1870b	601474800	1	practice_slash	9	advance_on_keypress_SLASH	18	stimuli_distractor_diamondtriangles.svg	stimuli_target_diamondcircles.svg	8	yes	57	0	447
6.6.1	mac	2022-12-15	20:35:39	20:42:21	399955	60fce7c3094706567dd1870b	601474800	1	practice_slash	9	practice_slash	19	stimuli_distractor_diamondtriangles.svg	stimuli_target_trianglecircles.svg	9	yes	53	1	514
6.6.1	mac	2022-12-15	20:35:39	20:42:21	399955	60fce7c3094706567dd1870b	601474800	1	practice_slash	9	advance_on_keypress_SLASH	20	stimuli_distractor_diamondtriangles.svg	stimuli_target_trianglecircles.svg	9	yes	57	0	493
6.6.1	mac	2022-12-15	20:35:39	20:42:24	402698	60fce7c3094706567dd1870b	601474800	1	practice_slash	9	practice_slash	21	stimuli_target_diamondsquares.svg	stimuli_distractor_trianglediamonds.svg	6	yes	53	1	601
6.6.1	mac	2022-12-15	20:35:39	20:42:24	402698	60fce7c3094706567dd1870b	601474800	1	practice_slash	9	advance_on_keypress_SLASH	22	stimuli_target_diamondsquares.svg	stimuli_distractor_trianglediamonds.svg	6	yes	57	0	592
6.6.1	mac	2022-12-15	20:35:39	20:42:27	405767	60fce7c3094706567dd1870b	601474800	1	practice_slash	9	practice_slash	23	stimuli_target_squarediamonds.svg	stimuli_distractor_diamondtriangles.svg	2	yes	53	1	832
6.6.1	mac	2022-12-15	20:35:39	20:42:27	405767	60fce7c3094706567dd1870b	601474800	1	practice_slash	9	advance_on_keypress_SLASH	24	stimuli_target_squarediamonds.svg	stimuli_distractor_diamondtriangles.svg	2	yes	57	0	466
6.6.1	mac	2022-12-15	20:35:39	20:42:30	408873	60fce7c3094706567dd1870b	601474800	1	practice_slash	9	practice_slash	25	stimuli_distractor_diamondtriangles.svg	stimuli_distractor_trianglediamonds.svg	14	no	53	0	995
6.6.1	mac	2022-12-15	20:35:39	20:42:30	408873	60fce7c3094706567dd1870b	601474800	1	practice_slash	9	advance_on_keypress_SLASH	26	stimuli_distractor_diamondtriangles.svg	stimuli_distractor_trianglediamonds.svg	14	no	57	0	436
6.6.1	mac	2022-12-15	20:35:39	20:42:32	411633	60fce7c3094706567dd1870b	601474800	1	practice_slash	9	practice_slash	27	stimuli_distractor_trianglediamonds.svg	stimuli_target_squarediamonds.svg	11	yes	53	1	682
6.6.1	mac	2022-12-15	20:35:39	20:42:32	411633	60fce7c3094706567dd1870b	601474800	1	practice_slash	9	advance_on_keypress_SLASH	28	stimuli_distractor_trianglediamonds.svg	stimuli_target_squarediamonds.svg	11	yes	57	0	416
6.6.1	mac	2022-12-15	20:35:39	20:42:37	415701	60fce7c3094706567dd1870b	601474800	1	practice_slash	9	practice_slash	29	stimuli_distractor_diamondtriangles.svg	stimuli_distractor_diamondtriangles.svg	13	no	0	1	2000
6.6.1	mac	2022-12-15	20:35:39	20:42:37	415701	60fce7c3094706567dd1870b	601474800	1	practice_slash	9	advance_on_keypress_SLASH	30	stimuli_distractor_diamondtriangles.svg	stimuli_distractor_diamondtriangles.svg	13	no	57	0	555
6.6.1	mac	2022-12-15	20:35:39	20:42:41	419891	60fce7c3094706567dd1870b	601474800	1	practice_slash	9	practice_slash	31	stimuli_distractor_trianglediamonds.svg	stimuli_distractor_trianglediamonds.svg	15	no	0	1	2000
6.6.1	mac	2022-12-15	20:35:39	20:42:41	419891	60fce7c3094706567dd1870b	601474800	1	practice_slash	9	advance_on_keypress_SLASH	32	stimuli_distractor_trianglediamonds.svg	stimuli_distractor_trianglediamonds.svg	15	no	57	0	579
6.6.1	mac	2022-12-15	20:35:39	20:42:48	427425	60fce7c3094706567dd1870b	601474800	1	main_slash	11	main_slash	1	stimuli_distractor_diamondtriangles.svg	stimuli_distractor_diamondtriangles.svg	39	no	0	1	2000
6.6.1	mac	2022-12-15	20:35:39	20:42:48	427425	60fce7c3094706567dd1870b	601474800	1	main_slash	11	advance_on_keypress_SLASH	2	stimuli_distractor_diamondtriangles.svg	stimuli_distractor_diamondtriangles.svg	39	no	57	0	406
6.6.1	mac	2022-12-15	20:35:39	20:42:50	429052	60fce7c3094706567dd1870b	601474800	1	main_slash	11	main_slash	3	stimuli_distractor_trianglediamonds.svg	stimuli_target_circlediamonds.svg	10	yes	53	1	576
6.6.1	mac	2022-12-15	20:35:39	20:42:50	429052	60fce7c3094706567dd1870b	601474800	1	main_slash	11	advance_on_keypress_SLASH	4	stimuli_distractor_trianglediamonds.svg	stimuli_target_circlediamonds.svg	10	yes	57	0	1767
6.6.1	mac	2022-12-15	20:35:39	20:42:53	431990	60fce7c3094706567dd1870b	601474800	1	main_slash	11	main_slash	5	stimuli_target_trianglesquares.svg	stimuli_distractor_diamondtriangles.svg	22	yes	53	1	527
6.6.1	mac	2022-12-15	20:35:39	20:42:53	431990	60fce7c3094706567dd1870b	601474800	1	main_slash	11	advance_on_keypress_SLASH	6	stimuli_target_trianglesquares.svg	stimuli_distractor_diamondtriangles.svg	22	yes	57	0	681
6.6.1	mac	2022-12-15	20:35:39	20:42:55	433849	60fce7c3094706567dd1870b	601474800	1	main_slash	11	main_slash	7	stimuli_target_trianglesquares.svg	stimuli_distractor_trianglediamonds.svg	18	yes	53	1	538
6.6.1	mac	2022-12-15	20:35:39	20:42:55	433849	60fce7c3094706567dd1870b	601474800	1	main_slash	11	advance_on_keypress_SLASH	8	stimuli_target_trianglesquares.svg	stimuli_distractor_trianglediamonds.svg	18	yes	57	0	518
6.6.1	mac	2022-12-15	20:35:39	20:42:56	435589	60fce7c3094706567dd1870b	601474800	1	main_slash	11	main_slash	9	stimuli_distractor_diamondtriangles.svg	stimuli_target_diamondsquares.svg	32	yes	53	1	579
6.6.1	mac	2022-12-15	20:35:39	20:42:56	435589	60fce7c3094706567dd1870b	601474800	1	main_slash	11	advance_on_keypress_SLASH	10	stimuli_distractor_diamondtriangles.svg	stimuli_target_diamondsquares.svg	32	yes	57	0	356
6.6.1	mac	2022-12-15	20:35:39	20:42:58	437130	60fce7c3094706567dd1870b	601474800	1	main_slash	11	main_slash	11	stimuli_target_diamondsquares.svg	stimuli_distractor_diamondtriangles.svg	24	yes	53	1	555
6.6.1	mac	2022-12-15	20:35:39	20:42:58	437130	60fce7c3094706567dd1870b	601474800	1	main_slash	11	advance_on_keypress_SLASH	12	stimuli_target_diamondsquares.svg	stimuli_distractor_diamondtriangles.svg	24	yes	57	0	250
6.6.1	mac	2022-12-15	20:35:39	20:43:01	440025	60fce7c3094706567dd1870b	601474800	1	main_slash	11	main_slash	13	stimuli_distractor_diamondtriangles.svg	stimuli_distractor_diamondtriangles.svg	40	no	0	1	2000
6.6.1	mac	2022-12-15	20:35:39	20:43:01	440025	60fce7c3094706567dd1870b	601474800	1	main_slash	11	advance_on_keypress_SLASH	14	stimuli_distractor_diamondtriangles.svg	stimuli_distractor_diamondtriangles.svg	40	no	57	0	486
6.6.1	mac	2022-12-15	20:35:39	20:43:04	443145	60fce7c3094706567dd1870b	601474800	1	main_slash	11	main_slash	15	stimuli_distractor_trianglediamonds.svg	stimuli_distractor_trianglediamonds.svg	33	no	0	1	2000
6.6.1	mac	2022-12-15	20:35:39	20:43:04	443145	60fce7c3094706567dd1870b	601474800	1	main_slash	11	advance_on_keypress_SLASH	16	stimuli_distractor_trianglediamonds.svg	stimuli_distractor_trianglediamonds.svg	33	no	57	0	378
6.6.1	mac	2022-12-15	20:35:39	20:43:06	444818	60fce7c3094706567dd1870b	601474800	1	main_slash	11	main_slash	17	stimuli_target_circletriangles.svg	stimuli_distractor_diamondtriangles.svg	5	yes	53	1	672
6.6.1	mac	2022-12-15	20:35:39	20:43:06	444818	60fce7c3094706567dd1870b	601474800	1	main_slash	11	advance_on_keypress_SLASH	18	stimuli_target_circletriangles.svg	stimuli_distractor_diamondtriangles.svg	5	yes	57	0	1158
6.6.1	mac	2022-12-15	20:35:39	20:43:08	447290	60fce7c3094706567dd1870b	601474800	1	main_slash	11	main_slash	19	stimuli_target_circlediamonds.svg	stimuli_distractor_diamondtriangles.svg	6	yes	53	1	666
6.6.1	mac	2022-12-15	20:35:39	20:43:08	447290	60fce7c3094706567dd1870b	601474800	1	main_slash	11	advance_on_keypress_SLASH	20	stimuli_target_circlediamonds.svg	stimuli_distractor_diamondtriangles.svg	6	yes	57	0	267
6.6.1	mac	2022-12-15	20:35:39	20:43:10	448738	60fce7c3094706567dd1870b	601474800	1	main_slash	11	main_slash	21	stimuli_target_squaretriangles.svg	stimuli_distractor_diamondtriangles.svg	7	yes	53	1	541
6.6.1	mac	2022-12-15	20:35:39	20:43:10	448738	60fce7c3094706567dd1870b	601474800	1	main_slash	11	advance_on_keypress_SLASH	22	stimuli_target_squaretriangles.svg	stimuli_distractor_diamondtriangles.svg	7	yes	57	0	226
6.6.1	mac	2022-12-15	20:35:39	20:43:12	451595	60fce7c3094706567dd1870b	601474800	1	main_slash	11	main_slash	23	stimuli_distractor_trianglediamonds.svg	stimuli_distractor_diamondtriangles.svg	36	no	0	1	2000
6.6.1	mac	2022-12-15	20:35:39	20:43:12	451595	60fce7c3094706567dd1870b	601474800	1	main_slash	11	advance_on_keypress_SLASH	24	stimuli_distractor_trianglediamonds.svg	stimuli_distractor_diamondtriangles.svg	36	no	57	0	312
6.6.1	mac	2022-12-15	20:35:39	20:43:14	453315	60fce7c3094706567dd1870b	601474800	1	main_slash	11	main_slash	25	stimuli_distractor_trianglediamonds.svg	stimuli_target_circletriangles.svg	9	yes	53	1	766
6.6.1	mac	2022-12-15	20:35:39	20:43:14	453315	60fce7c3094706567dd1870b	601474800	1	main_slash	11	advance_on_keypress_SLASH	26	stimuli_distractor_trianglediamonds.svg	stimuli_target_circletriangles.svg	9	yes	57	0	633
6.6.1	mac	2022-12-15	20:35:39	20:43:16	455281	60fce7c3094706567dd1870b	601474800	1	main_slash	11	main_slash	27	stimuli_target_circlediamonds.svg	stimuli_distractor_trianglediamonds.svg	2	yes	53	1	691
6.6.1	mac	2022-12-15	20:35:39	20:43:16	455281	60fce7c3094706567dd1870b	601474800	1	main_slash	11	advance_on_keypress_SLASH	28	stimuli_target_circlediamonds.svg	stimuli_distractor_trianglediamonds.svg	2	yes	57	0	626
6.6.1	mac	2022-12-15	20:35:39	20:43:18	457484	60fce7c3094706567dd1870b	601474800	1	main_slash	11	main_slash	29	stimuli_distractor_diamondtriangles.svg	stimuli_distractor_trianglediamonds.svg	38	no	53	0	947
6.6.1	mac	2022-12-15	20:35:39	20:43:18	457484	60fce7c3094706567dd1870b	601474800	1	main_slash	11	advance_on_keypress_SLASH	30	stimuli_distractor_diamondtriangles.svg	stimuli_distractor_trianglediamonds.svg	38	no	57	0	626
6.6.1	mac	2022-12-15	20:35:39	20:43:20	459262	60fce7c3094706567dd1870b	601474800	1	main_slash	11	main_slash	31	stimuli_distractor_diamondtriangles.svg	stimuli_target_trianglesquares.svg	30	yes	53	1	522
6.6.1	mac	2022-12-15	20:35:39	20:43:20	459262	60fce7c3094706567dd1870b	601474800	1	main_slash	11	advance_on_keypress_SLASH	32	stimuli_distractor_diamondtriangles.svg	stimuli_target_trianglesquares.svg	30	yes	57	0	639
6.6.1	mac	2022-12-15	20:35:39	20:43:22	461146	60fce7c3094706567dd1870b	601474800	1	main_slash	11	main_slash	33	stimuli_distractor_diamondtriangles.svg	stimuli_target_circletriangles.svg	13	yes	53	1	605
6.6.1	mac	2022-12-15	20:35:39	20:43:22	461146	60fce7c3094706567dd1870b	601474800	1	main_slash	11	advance_on_keypress_SLASH	34	stimuli_distractor_diamondtriangles.svg	stimuli_target_circletriangles.svg	13	yes	57	0	308
6.6.1	mac	2022-12-15	20:35:39	20:43:25	464086	60fce7c3094706567dd1870b	601474800	1	main_slash	11	main_slash	35	stimuli_distractor_trianglediamonds.svg	stimuli_distractor_diamondtriangles.svg	35	no	0	1	2000
6.6.1	mac	2022-12-15	20:35:39	20:43:25	464086	60fce7c3094706567dd1870b	601474800	1	main_slash	11	advance_on_keypress_SLASH	36	stimuli_distractor_trianglediamonds.svg	stimuli_distractor_diamondtriangles.svg	35	no	57	0	275
6.6.1	mac	2022-12-15	20:35:39	20:43:27	465926	60fce7c3094706567dd1870b	601474800	1	main_slash	11	main_slash	37	stimuli_target_diamondsquares.svg	stimuli_distractor_trianglediamonds.svg	20	yes	53	1	938
6.6.1	mac	2022-12-15	20:35:39	20:43:27	465926	60fce7c3094706567dd1870b	601474800	1	main_slash	11	advance_on_keypress_SLASH	38	stimuli_target_diamondsquares.svg	stimuli_distractor_trianglediamonds.svg	20	yes	57	0	499
6.6.1	mac	2022-12-15	20:35:39	20:43:29	467867	60fce7c3094706567dd1870b	601474800	1	main_slash	11	main_slash	39	stimuli_distractor_trianglediamonds.svg	stimuli_target_squarediamonds.svg	12	yes	53	1	805
6.6.1	mac	2022-12-15	20:35:39	20:43:29	467867	60fce7c3094706567dd1870b	601474800	1	main_slash	11	advance_on_keypress_SLASH	40	stimuli_distractor_trianglediamonds.svg	stimuli_target_squarediamonds.svg	12	yes	57	0	468
6.6.1	mac	2022-12-15	20:35:39	20:43:31	469697	60fce7c3094706567dd1870b	601474800	1	main_slash	11	main_slash	41	stimuli_distractor_diamondtriangles.svg	stimuli_target_trianglecircles.svg	29	yes	53	1	718
6.6.1	mac	2022-12-15	20:35:39	20:43:31	469697	60fce7c3094706567dd1870b	601474800	1	main_slash	11	advance_on_keypress_SLASH	42	stimuli_distractor_diamondtriangles.svg	stimuli_target_trianglecircles.svg	29	yes	57	0	283
6.6.1	mac	2022-12-15	20:35:39	20:43:32	471233	60fce7c3094706567dd1870b	601474800	1	main_slash	11	main_slash	43	stimuli_distractor_diamondtriangles.svg	stimuli_target_circlediamonds.svg	14	yes	53	1	606
6.6.1	mac	2022-12-15	20:35:39	20:43:32	471233	60fce7c3094706567dd1870b	601474800	1	main_slash	11	advance_on_keypress_SLASH	44	stimuli_distractor_diamondtriangles.svg	stimuli_target_circlediamonds.svg	14	yes	57	0	307
6.6.1	mac	2022-12-15	20:35:39	20:43:34	472965	60fce7c3094706567dd1870b	601474800	1	main_slash	11	main_slash	45	stimuli_target_trianglecircles.svg	stimuli_distractor_diamondtriangles.svg	21	yes	53	1	787
6.6.1	mac	2022-12-15	20:35:39	20:43:34	472965	60fce7c3094706567dd1870b	601474800	1	main_slash	11	advance_on_keypress_SLASH	46	stimuli_target_trianglecircles.svg	stimuli_distractor_diamondtriangles.svg	21	yes	57	0	382
6.6.1	mac	2022-12-15	20:35:39	20:43:36	474743	60fce7c3094706567dd1870b	601474800	1	main_slash	11	main_slash	47	stimuli_target_squaretriangles.svg	stimuli_distractor_trianglediamonds.svg	3	yes	53	1	761
6.6.1	mac	2022-12-15	20:35:39	20:43:36	474743	60fce7c3094706567dd1870b	601474800	1	main_slash	11	advance_on_keypress_SLASH	48	stimuli_target_squaretriangles.svg	stimuli_distractor_trianglediamonds.svg	3	yes	57	0	239
6.6.1	mac	2022-12-15	20:35:39	20:43:37	476208	60fce7c3094706567dd1870b	601474800	1	main_slash	11	main_slash	49	stimuli_target_squarediamonds.svg	stimuli_distractor_diamondtriangles.svg	8	yes	53	1	594
6.6.1	mac	2022-12-15	20:35:39	20:43:37	476208	60fce7c3094706567dd1870b	601474800	1	main_slash	11	advance_on_keypress_SLASH	50	stimuli_target_squarediamonds.svg	stimuli_distractor_diamondtriangles.svg	8	yes	57	0	188
6.6.1	mac	2022-12-15	20:35:39	20:43:38	477603	60fce7c3094706567dd1870b	601474800	1	main_slash	11	main_slash	51	stimuli_distractor_trianglediamonds.svg	stimuli_target_trianglecircles.svg	25	yes	53	1	575
6.6.1	mac	2022-12-15	20:35:39	20:43:38	477603	60fce7c3094706567dd1870b	601474800	1	main_slash	11	advance_on_keypress_SLASH	52	stimuli_distractor_trianglediamonds.svg	stimuli_target_trianglecircles.svg	25	yes	57	0	286
6.6.1	mac	2022-12-15	20:35:39	20:43:40	479171	60fce7c3094706567dd1870b	601474800	1	main_slash	11	main_slash	53	stimuli_distractor_diamondtriangles.svg	stimuli_target_squarediamonds.svg	16	yes	53	1	636
6.6.1	mac	2022-12-15	20:35:39	20:43:40	479171	60fce7c3094706567dd1870b	601474800	1	main_slash	11	advance_on_keypress_SLASH	54	stimuli_distractor_diamondtriangles.svg	stimuli_target_squarediamonds.svg	16	yes	57	0	154
6.6.1	mac	2022-12-15	20:35:39	20:43:41	480486	60fce7c3094706567dd1870b	601474800	1	main_slash	11	main_slash	55	stimuli_target_squarediamonds.svg	stimuli_distractor_trianglediamonds.svg	4	yes	53	1	518
6.6.1	mac	2022-12-15	20:35:39	20:43:41	480486	60fce7c3094706567dd1870b	601474800	1	main_slash	11	advance_on_keypress_SLASH	56	stimuli_target_squarediamonds.svg	stimuli_distractor_trianglediamonds.svg	4	yes	57	0	188
6.6.1	mac	2022-12-15	20:35:39	20:43:44	483318	60fce7c3094706567dd1870b	601474800	1	main_slash	11	main_slash	57	stimuli_distractor_trianglediamonds.svg	stimuli_target_trianglesquares.svg	26	yes	0	0	2000
6.6.1	mac	2022-12-15	20:35:39	20:43:44	483318	60fce7c3094706567dd1870b	601474800	1	main_slash	11	advance_on_keypress_SLASH	58	stimuli_distractor_trianglediamonds.svg	stimuli_target_trianglesquares.svg	26	yes	57	0	365
6.6.1	mac	2022-12-15	20:35:39	20:43:47	486322	60fce7c3094706567dd1870b	601474800	1	main_slash	11	main_slash	59	stimuli_distractor_trianglediamonds.svg	stimuli_distractor_trianglediamonds.svg	34	no	0	1	2000
6.6.1	mac	2022-12-15	20:35:39	20:43:47	486322	60fce7c3094706567dd1870b	601474800	1	main_slash	11	advance_on_keypress_SLASH	60	stimuli_distractor_trianglediamonds.svg	stimuli_distractor_trianglediamonds.svg	34	no	57	0	779
6.6.1	mac	2022-12-15	20:35:39	20:43:49	488303	60fce7c3094706567dd1870b	601474800	1	main_slash	11	main_slash	61	stimuli_distractor_diamondtriangles.svg	stimuli_target_squaretriangles.svg	15	yes	53	1	574
6.6.1	mac	2022-12-15	20:35:39	20:43:49	488303	60fce7c3094706567dd1870b	601474800	1	main_slash	11	advance_on_keypress_SLASH	62	stimuli_distractor_diamondtriangles.svg	stimuli_target_squaretriangles.svg	15	yes	57	0	328
6.6.1	mac	2022-12-15	20:35:39	20:43:51	489813	60fce7c3094706567dd1870b	601474800	1	main_slash	11	main_slash	63	stimuli_target_diamondcircles.svg	stimuli_distractor_diamondtriangles.svg	23	yes	53	1	540
6.6.1	mac	2022-12-15	20:35:39	20:43:51	489813	60fce7c3094706567dd1870b	601474800	1	main_slash	11	advance_on_keypress_SLASH	64	stimuli_target_diamondcircles.svg	stimuli_distractor_diamondtriangles.svg	23	yes	57	0	137
6.6.1	mac	2022-12-15	20:35:39	20:43:52	491145	60fce7c3094706567dd1870b	601474800	1	main_slash	11	main_slash	65	stimuli_target_circletriangles.svg	stimuli_distractor_trianglediamonds.svg	1	yes	53	1	556
6.6.1	mac	2022-12-15	20:35:39	20:43:52	491145	60fce7c3094706567dd1870b	601474800	1	main_slash	11	advance_on_keypress_SLASH	66	stimuli_target_circletriangles.svg	stimuli_distractor_trianglediamonds.svg	1	yes	57	0	121
6.6.1	mac	2022-12-15	20:35:39	20:43:54	492972	60fce7c3094706567dd1870b	601474800	1	main_slash	11	main_slash	67	stimuli_distractor_trianglediamonds.svg	stimuli_target_diamondsquares.svg	28	yes	53	1	1066
6.6.1	mac	2022-12-15	20:35:39	20:43:54	492972	60fce7c3094706567dd1870b	601474800	1	main_slash	11	advance_on_keypress_SLASH	68	stimuli_distractor_trianglediamonds.svg	stimuli_target_diamondsquares.svg	28	yes	57	0	128
6.6.1	mac	2022-12-15	20:35:39	20:43:57	495743	60fce7c3094706567dd1870b	601474800	1	main_slash	11	main_slash	69	stimuli_distractor_diamondtriangles.svg	stimuli_distractor_trianglediamonds.svg	37	no	0	1	2000
6.6.1	mac	2022-12-15	20:35:39	20:43:57	495743	60fce7c3094706567dd1870b	601474800	1	main_slash	11	advance_on_keypress_SLASH	70	stimuli_distractor_diamondtriangles.svg	stimuli_distractor_trianglediamonds.svg	37	no	57	0	489
6.6.1	mac	2022-12-15	20:35:39	20:43:58	497329	60fce7c3094706567dd1870b	601474800	1	main_slash	11	main_slash	71	stimuli_distractor_trianglediamonds.svg	stimuli_target_diamondcircles.svg	27	yes	53	1	465
6.6.1	mac	2022-12-15	20:35:39	20:43:58	497329	60fce7c3094706567dd1870b	601474800	1	main_slash	11	advance_on_keypress_SLASH	72	stimuli_distractor_trianglediamonds.svg	stimuli_target_diamondcircles.svg	27	yes	57	0	269
6.6.1	mac	2022-12-15	20:35:39	20:44:01	499778	60fce7c3094706567dd1870b	601474800	1	main_slash	11	main_slash	73	stimuli_distractor_trianglediamonds.svg	stimuli_target_squaretriangles.svg	11	yes	53	1	1551
6.6.1	mac	2022-12-15	20:35:39	20:44:01	499778	60fce7c3094706567dd1870b	601474800	1	main_slash	11	advance_on_keypress_SLASH	74	stimuli_distractor_trianglediamonds.svg	stimuli_target_squaretriangles.svg	11	yes	57	0	528
6.6.1	mac	2022-12-15	20:35:39	20:44:02	501480	60fce7c3094706567dd1870b	601474800	1	main_slash	11	main_slash	75	stimuli_target_trianglecircles.svg	stimuli_distractor_trianglediamonds.svg	17	yes	53	1	538
6.6.1	mac	2022-12-15	20:35:39	20:44:02	501480	60fce7c3094706567dd1870b	601474800	1	main_slash	11	advance_on_keypress_SLASH	76	stimuli_target_trianglecircles.svg	stimuli_distractor_trianglediamonds.svg	17	yes	57	0	375
6.6.1	mac	2022-12-15	20:35:39	20:44:04	503139	60fce7c3094706567dd1870b	601474800	1	main_slash	11	main_slash	77	stimuli_distractor_diamondtriangles.svg	stimuli_target_diamondcircles.svg	31	yes	53	1	643
6.6.1	mac	2022-12-15	20:35:39	20:44:04	503139	60fce7c3094706567dd1870b	601474800	1	main_slash	11	advance_on_keypress_SLASH	78	stimuli_distractor_diamondtriangles.svg	stimuli_target_diamondcircles.svg	31	yes	57	0	439
6.6.1	mac	2022-12-15	20:35:39	20:44:06	504745	60fce7c3094706567dd1870b	601474800	1	main_slash	11	main_slash	79	stimuli_target_diamondcircles.svg	stimuli_distractor_trianglediamonds.svg	19	yes	53	1	531
6.6.1	mac	2022-12-15	20:35:39	20:44:06	504745	60fce7c3094706567dd1870b	601474800	1	main_slash	11	advance_on_keypress_SLASH	80	stimuli_target_diamondcircles.svg	stimuli_distractor_trianglediamonds.svg	19	yes	57	0	253
6.6.1	mac	2022-12-15	20:35:39	20:44:07	506175	60fce7c3094706567dd1870b	601474800	1	main_slash	11	main_slash	81	stimuli_distractor_diamondtriangles.svg	stimuli_target_trianglecircles.svg	29	yes	53	1	549
6.6.1	mac	2022-12-15	20:35:39	20:44:07	506175	60fce7c3094706567dd1870b	601474800	1	main_slash	11	advance_on_keypress_SLASH	82	stimuli_distractor_diamondtriangles.svg	stimuli_target_trianglecircles.svg	29	yes	57	0	167
6.6.1	mac	2022-12-15	20:35:39	20:44:08	507513	60fce7c3094706567dd1870b	601474800	1	main_slash	11	main_slash	83	stimuli_distractor_trianglediamonds.svg	stimuli_target_trianglesquares.svg	26	yes	53	1	540
6.6.1	mac	2022-12-15	20:35:39	20:44:08	507513	60fce7c3094706567dd1870b	601474800	1	main_slash	11	advance_on_keypress_SLASH	84	stimuli_distractor_trianglediamonds.svg	stimuli_target_trianglesquares.svg	26	yes	57	0	209
6.6.1	mac	2022-12-15	20:35:39	20:44:10	508970	60fce7c3094706567dd1870b	601474800	1	main_slash	11	main_slash	85	stimuli_distractor_diamondtriangles.svg	stimuli_target_diamondsquares.svg	32	yes	53	1	615
6.6.1	mac	2022-12-15	20:35:39	20:44:10	508970	60fce7c3094706567dd1870b	601474800	1	main_slash	11	advance_on_keypress_SLASH	86	stimuli_distractor_diamondtriangles.svg	stimuli_target_diamondsquares.svg	32	yes	57	0	127
6.6.1	mac	2022-12-15	20:35:39	20:44:13	511736	60fce7c3094706567dd1870b	601474800	1	main_slash	11	main_slash	87	stimuli_distractor_diamondtriangles.svg	stimuli_target_squaretriangles.svg	15	yes	0	0	2000
6.6.1	mac	2022-12-15	20:35:39	20:44:13	511736	60fce7c3094706567dd1870b	601474800	1	main_slash	11	advance_on_keypress_SLASH	88	stimuli_distractor_diamondtriangles.svg	stimuli_target_squaretriangles.svg	15	yes	57	0	785
6.6.1	mac	2022-12-15	20:35:39	20:44:14	513635	60fce7c3094706567dd1870b	601474800	1	main_slash	11	main_slash	89	stimuli_distractor_diamondtriangles.svg	stimuli_target_circletriangles.svg	13	yes	53	1	485
6.6.1	mac	2022-12-15	20:35:39	20:44:14	513635	60fce7c3094706567dd1870b	601474800	1	main_slash	11	advance_on_keypress_SLASH	90	stimuli_distractor_diamondtriangles.svg	stimuli_target_circletriangles.svg	13	yes	57	0	456
6.6.1	mac	2022-12-15	20:35:39	20:44:18	516728	60fce7c3094706567dd1870b	601474800	1	main_slash	11	main_slash	91	stimuli_distractor_diamondtriangles.svg	stimuli_distractor_diamondtriangles.svg	39	no	0	1	2000
6.6.1	mac	2022-12-15	20:35:39	20:44:18	516728	60fce7c3094706567dd1870b	601474800	1	main_slash	11	advance_on_keypress_SLASH	92	stimuli_distractor_diamondtriangles.svg	stimuli_distractor_diamondtriangles.svg	39	no	57	0	641
6.6.1	mac	2022-12-15	20:35:39	20:44:20	518718	60fce7c3094706567dd1870b	601474800	1	main_slash	11	main_slash	93	stimuli_distractor_trianglediamonds.svg	stimuli_target_squarediamonds.svg	12	yes	53	1	717
6.6.1	mac	2022-12-15	20:35:39	20:44:20	518718	60fce7c3094706567dd1870b	601474800	1	main_slash	11	advance_on_keypress_SLASH	94	stimuli_distractor_trianglediamonds.svg	stimuli_target_squarediamonds.svg	12	yes	57	0	344
6.6.1	mac	2022-12-15	20:35:39	20:44:21	520400	60fce7c3094706567dd1870b	601474800	1	main_slash	11	main_slash	95	stimuli_distractor_trianglediamonds.svg	stimuli_target_circlediamonds.svg	10	yes	53	1	713
6.6.1	mac	2022-12-15	20:35:39	20:44:21	520400	60fce7c3094706567dd1870b	601474800	1	main_slash	11	advance_on_keypress_SLASH	96	stimuli_distractor_trianglediamonds.svg	stimuli_target_circlediamonds.svg	10	yes	57	0	280
6.6.1	mac	2022-12-15	20:35:39	20:44:23	521827	60fce7c3094706567dd1870b	601474800	1	main_slash	11	main_slash	97	stimuli_distractor_diamondtriangles.svg	stimuli_target_circlediamonds.svg	14	yes	53	1	506
6.6.1	mac	2022-12-15	20:35:39	20:44:23	521827	60fce7c3094706567dd1870b	601474800	1	main_slash	11	advance_on_keypress_SLASH	98	stimuli_distractor_diamondtriangles.svg	stimuli_target_circlediamonds.svg	14	yes	57	0	208
6.6.1	mac	2022-12-15	20:35:39	20:44:24	523269	60fce7c3094706567dd1870b	601474800	1	main_slash	11	main_slash	99	stimuli_distractor_trianglediamonds.svg	stimuli_distractor_trianglediamonds.svg	34	no	53	0	588
6.6.1	mac	2022-12-15	20:35:39	20:44:24	523269	60fce7c3094706567dd1870b	601474800	1	main_slash	11	advance_on_keypress_SLASH	100	stimuli_distractor_trianglediamonds.svg	stimuli_distractor_trianglediamonds.svg	34	no	57	0	233
6.6.1	mac	2022-12-15	20:35:39	20:44:26	524708	60fce7c3094706567dd1870b	601474800	1	main_slash	11	main_slash	101	stimuli_target_trianglesquares.svg	stimuli_distractor_trianglediamonds.svg	18	yes	53	1	559
6.6.1	mac	2022-12-15	20:35:39	20:44:26	524708	60fce7c3094706567dd1870b	601474800	1	main_slash	11	advance_on_keypress_SLASH	102	stimuli_target_trianglesquares.svg	stimuli_distractor_trianglediamonds.svg	18	yes	57	0	225
6.6.1	mac	2022-12-15	20:35:39	20:44:27	526024	60fce7c3094706567dd1870b	601474800	1	main_slash	11	main_slash	103	stimuli_distractor_trianglediamonds.svg	stimuli_target_diamondcircles.svg	27	yes	53	1	455
6.6.1	mac	2022-12-15	20:35:39	20:44:27	526024	60fce7c3094706567dd1870b	601474800	1	main_slash	11	advance_on_keypress_SLASH	104	stimuli_distractor_trianglediamonds.svg	stimuli_target_diamondcircles.svg	27	yes	57	0	276
6.6.1	mac	2022-12-15	20:35:39	20:44:28	527366	60fce7c3094706567dd1870b	601474800	1	main_slash	11	main_slash	105	stimuli_target_trianglecircles.svg	stimuli_distractor_diamondtriangles.svg	21	yes	53	1	430
6.6.1	mac	2022-12-15	20:35:39	20:44:28	527366	60fce7c3094706567dd1870b	601474800	1	main_slash	11	advance_on_keypress_SLASH	106	stimuli_target_trianglecircles.svg	stimuli_distractor_diamondtriangles.svg	21	yes	57	0	260
6.6.1	mac	2022-12-15	20:35:39	20:44:29	528620	60fce7c3094706567dd1870b	601474800	1	main_slash	11	main_slash	107	stimuli_target_squarediamonds.svg	stimuli_distractor_diamondtriangles.svg	8	yes	53	1	368
6.6.1	mac	2022-12-15	20:35:39	20:44:29	528620	60fce7c3094706567dd1870b	601474800	1	main_slash	11	advance_on_keypress_SLASH	108	stimuli_target_squarediamonds.svg	stimuli_distractor_diamondtriangles.svg	8	yes	57	0	254
6.6.1	mac	2022-12-15	20:35:39	20:44:31	529897	60fce7c3094706567dd1870b	601474800	1	main_slash	11	main_slash	109	stimuli_target_circletriangles.svg	stimuli_distractor_diamondtriangles.svg	5	yes	53	1	384
6.6.1	mac	2022-12-15	20:35:39	20:44:31	529897	60fce7c3094706567dd1870b	601474800	1	main_slash	11	advance_on_keypress_SLASH	110	stimuli_target_circletriangles.svg	stimuli_distractor_diamondtriangles.svg	5	yes	57	0	240
6.6.1	mac	2022-12-15	20:35:39	20:44:32	531181	60fce7c3094706567dd1870b	601474800	1	main_slash	11	main_slash	111	stimuli_target_diamondcircles.svg	stimuli_distractor_diamondtriangles.svg	23	yes	53	1	421
6.6.1	mac	2022-12-15	20:35:39	20:44:32	531181	60fce7c3094706567dd1870b	601474800	1	main_slash	11	advance_on_keypress_SLASH	112	stimuli_target_diamondcircles.svg	stimuli_distractor_diamondtriangles.svg	23	yes	57	0	211
6.6.1	mac	2022-12-15	20:35:39	20:44:35	534039	60fce7c3094706567dd1870b	601474800	1	main_slash	11	main_slash	113	stimuli_distractor_diamondtriangles.svg	stimuli_distractor_diamondtriangles.svg	40	no	0	1	2000
6.6.1	mac	2022-12-15	20:35:39	20:44:35	534039	60fce7c3094706567dd1870b	601474800	1	main_slash	11	advance_on_keypress_SLASH	114	stimuli_distractor_diamondtriangles.svg	stimuli_distractor_diamondtriangles.svg	40	no	57	0	686
6.6.1	mac	2022-12-15	20:35:39	20:44:37	535788	60fce7c3094706567dd1870b	601474800	1	main_slash	11	main_slash	115	stimuli_target_circlediamonds.svg	stimuli_distractor_trianglediamonds.svg	2	yes	53	1	425
6.6.1	mac	2022-12-15	20:35:39	20:44:37	535788	60fce7c3094706567dd1870b	601474800	1	main_slash	11	advance_on_keypress_SLASH	116	stimuli_target_circlediamonds.svg	stimuli_distractor_trianglediamonds.svg	2	yes	57	0	214
6.6.1	mac	2022-12-15	20:35:39	20:44:38	537108	60fce7c3094706567dd1870b	601474800	1	main_slash	11	main_slash	117	stimuli_target_trianglesquares.svg	stimuli_distractor_diamondtriangles.svg	22	yes	53	1	452
6.6.1	mac	2022-12-15	20:35:39	20:44:38	537108	60fce7c3094706567dd1870b	601474800	1	main_slash	11	advance_on_keypress_SLASH	118	stimuli_target_trianglesquares.svg	stimuli_distractor_diamondtriangles.svg	22	yes	57	0	210
6.6.1	mac	2022-12-15	20:35:39	20:44:39	538367	60fce7c3094706567dd1870b	601474800	1	main_slash	11	main_slash	119	stimuli_target_circlediamonds.svg	stimuli_distractor_diamondtriangles.svg	6	yes	53	1	397
6.6.1	mac	2022-12-15	20:35:39	20:44:39	538367	60fce7c3094706567dd1870b	601474800	1	main_slash	11	advance_on_keypress_SLASH	120	stimuli_target_circlediamonds.svg	stimuli_distractor_diamondtriangles.svg	6	yes	57	0	211
6.6.1	mac	2022-12-15	20:35:39	20:44:40	539590	60fce7c3094706567dd1870b	601474800	1	main_slash	11	main_slash	121	stimuli_target_squaretriangles.svg	stimuli_distractor_trianglediamonds.svg	3	yes	53	1	371
6.6.1	mac	2022-12-15	20:35:39	20:44:40	539590	60fce7c3094706567dd1870b	601474800	1	main_slash	11	advance_on_keypress_SLASH	122	stimuli_target_squaretriangles.svg	stimuli_distractor_trianglediamonds.svg	3	yes	57	0	182
6.6.1	mac	2022-12-15	20:35:39	20:44:42	540892	60fce7c3094706567dd1870b	601474800	1	main_slash	11	main_slash	123	stimuli_distractor_diamondtriangles.svg	stimuli_distractor_trianglediamonds.svg	37	no	53	0	478
6.6.1	mac	2022-12-15	20:35:39	20:44:42	540892	60fce7c3094706567dd1870b	601474800	1	main_slash	11	advance_on_keypress_SLASH	124	stimuli_distractor_diamondtriangles.svg	stimuli_distractor_trianglediamonds.svg	37	no	57	0	283
6.6.1	mac	2022-12-15	20:35:39	20:44:45	543810	60fce7c3094706567dd1870b	601474800	1	main_slash	11	main_slash	125	stimuli_target_diamondsquares.svg	stimuli_distractor_trianglediamonds.svg	20	yes	0	0	2000
6.6.1	mac	2022-12-15	20:35:39	20:44:45	543810	60fce7c3094706567dd1870b	601474800	1	main_slash	11	advance_on_keypress_SLASH	126	stimuli_target_diamondsquares.svg	stimuli_distractor_trianglediamonds.svg	20	yes	57	0	683
6.6.1	mac	2022-12-15	20:35:39	20:44:48	547136	60fce7c3094706567dd1870b	601474800	1	main_slash	11	main_slash	127	stimuli_distractor_trianglediamonds.svg	stimuli_distractor_trianglediamonds.svg	33	no	0	1	2000
6.6.1	mac	2022-12-15	20:35:39	20:44:48	547136	60fce7c3094706567dd1870b	601474800	1	main_slash	11	advance_on_keypress_SLASH	128	stimuli_distractor_trianglediamonds.svg	stimuli_distractor_trianglediamonds.svg	33	no	57	0	676
6.6.1	mac	2022-12-15	20:35:39	20:44:51	550441	60fce7c3094706567dd1870b	601474800	1	main_slash	11	main_slash	129	stimuli_distractor_diamondtriangles.svg	stimuli_target_diamondcircles.svg	31	yes	0	0	2000
6.6.1	mac	2022-12-15	20:35:39	20:44:51	550441	60fce7c3094706567dd1870b	601474800	1	main_slash	11	advance_on_keypress_SLASH	130	stimuli_distractor_diamondtriangles.svg	stimuli_target_diamondcircles.svg	31	yes	57	0	735
6.6.1	mac	2022-12-15	20:35:39	20:44:55	553827	60fce7c3094706567dd1870b	601474800	1	main_slash	11	main_slash	131	stimuli_distractor_diamondtriangles.svg	stimuli_distractor_trianglediamonds.svg	38	no	0	1	2000
6.6.1	mac	2022-12-15	20:35:39	20:44:55	553827	60fce7c3094706567dd1870b	601474800	1	main_slash	11	advance_on_keypress_SLASH	132	stimuli_distractor_diamondtriangles.svg	stimuli_distractor_trianglediamonds.svg	38	no	57	0	2073
6.6.1	mac	2022-12-15	20:35:39	20:44:58	557142	60fce7c3094706567dd1870b	601474800	1	main_slash	11	main_slash	133	stimuli_distractor_diamondtriangles.svg	stimuli_target_trianglesquares.svg	30	yes	53	1	592
6.6.1	mac	2022-12-15	20:35:39	20:44:58	557142	60fce7c3094706567dd1870b	601474800	1	main_slash	11	advance_on_keypress_SLASH	134	stimuli_distractor_diamondtriangles.svg	stimuli_target_trianglesquares.svg	30	yes	57	0	167
6.6.1	mac	2022-12-15	20:35:39	20:45:00	559612	60fce7c3094706567dd1870b	601474800	1	main_slash	11	main_slash	135	stimuli_distractor_trianglediamonds.svg	stimuli_target_squaretriangles.svg	11	yes	53	1	1674
6.6.1	mac	2022-12-15	20:35:39	20:45:00	559612	60fce7c3094706567dd1870b	601474800	1	main_slash	11	advance_on_keypress_SLASH	136	stimuli_distractor_trianglediamonds.svg	stimuli_target_squaretriangles.svg	11	yes	57	0	445
6.6.1	mac	2022-12-15	20:35:39	20:45:02	561161	60fce7c3094706567dd1870b	601474800	1	main_slash	11	main_slash	137	stimuli_distractor_trianglediamonds.svg	stimuli_target_circletriangles.svg	9	yes	53	1	472
6.6.1	mac	2022-12-15	20:35:39	20:45:02	561161	60fce7c3094706567dd1870b	601474800	1	main_slash	11	advance_on_keypress_SLASH	138	stimuli_distractor_trianglediamonds.svg	stimuli_target_circletriangles.svg	9	yes	57	0	568
6.6.1	mac	2022-12-15	20:35:39	20:45:04	562984	60fce7c3094706567dd1870b	601474800	1	main_slash	11	main_slash	139	stimuli_distractor_trianglediamonds.svg	stimuli_target_diamondsquares.svg	28	yes	53	1	605
6.6.1	mac	2022-12-15	20:35:39	20:45:04	562984	60fce7c3094706567dd1870b	601474800	1	main_slash	11	advance_on_keypress_SLASH	140	stimuli_distractor_trianglediamonds.svg	stimuli_target_diamondsquares.svg	28	yes	57	0	425
6.6.1	mac	2022-12-15	20:35:39	20:45:05	564574	60fce7c3094706567dd1870b	601474800	1	main_slash	11	main_slash	141	stimuli_target_diamondsquares.svg	stimuli_distractor_diamondtriangles.svg	24	yes	53	1	528
6.6.1	mac	2022-12-15	20:35:39	20:45:05	564574	60fce7c3094706567dd1870b	601474800	1	main_slash	11	advance_on_keypress_SLASH	142	stimuli_target_diamondsquares.svg	stimuli_distractor_diamondtriangles.svg	24	yes	57	0	213
6.6.1	mac	2022-12-15	20:35:39	20:45:07	566255	60fce7c3094706567dd1870b	601474800	1	main_slash	11	main_slash	143	stimuli_target_squaretriangles.svg	stimuli_distractor_diamondtriangles.svg	7	yes	53	1	829
6.6.1	mac	2022-12-15	20:35:39	20:45:07	566255	60fce7c3094706567dd1870b	601474800	1	main_slash	11	advance_on_keypress_SLASH	144	stimuli_target_squaretriangles.svg	stimuli_distractor_diamondtriangles.svg	7	yes	57	0	191
6.6.1	mac	2022-12-15	20:35:39	20:45:08	567513	60fce7c3094706567dd1870b	601474800	1	main_slash	11	main_slash	145	stimuli_target_trianglecircles.svg	stimuli_distractor_trianglediamonds.svg	17	yes	53	1	438
6.6.1	mac	2022-12-15	20:35:39	20:45:08	567513	60fce7c3094706567dd1870b	601474800	1	main_slash	11	advance_on_keypress_SLASH	146	stimuli_target_trianglecircles.svg	stimuli_distractor_trianglediamonds.svg	17	yes	57	0	146
6.6.1	mac	2022-12-15	20:35:39	20:45:10	568812	60fce7c3094706567dd1870b	601474800	1	main_slash	11	main_slash	147	stimuli_target_circletriangles.svg	stimuli_distractor_trianglediamonds.svg	1	yes	53	1	503
6.6.1	mac	2022-12-15	20:35:39	20:45:10	568812	60fce7c3094706567dd1870b	601474800	1	main_slash	11	advance_on_keypress_SLASH	148	stimuli_target_circletriangles.svg	stimuli_distractor_trianglediamonds.svg	1	yes	57	0	175
6.6.1	mac	2022-12-15	20:35:39	20:45:11	570146	60fce7c3094706567dd1870b	601474800	1	main_slash	11	main_slash	149	stimuli_distractor_trianglediamonds.svg	stimuli_target_trianglecircles.svg	25	yes	53	1	524
6.6.1	mac	2022-12-15	20:35:39	20:45:11	570146	60fce7c3094706567dd1870b	601474800	1	main_slash	11	advance_on_keypress_SLASH	150	stimuli_distractor_trianglediamonds.svg	stimuli_target_trianglecircles.svg	25	yes	57	0	217
6.6.1	mac	2022-12-15	20:35:39	20:45:12	571587	60fce7c3094706567dd1870b	601474800	1	main_slash	11	main_slash	151	stimuli_target_squarediamonds.svg	stimuli_distractor_trianglediamonds.svg	4	yes	53	1	583
6.6.1	mac	2022-12-15	20:35:39	20:45:12	571587	60fce7c3094706567dd1870b	601474800	1	main_slash	11	advance_on_keypress_SLASH	152	stimuli_target_squarediamonds.svg	stimuli_distractor_trianglediamonds.svg	4	yes	57	0	310
6.6.1	mac	2022-12-15	20:35:39	20:45:14	573038	60fce7c3094706567dd1870b	601474800	1	main_slash	11	main_slash	153	stimuli_target_diamondcircles.svg	stimuli_distractor_trianglediamonds.svg	19	yes	53	1	498
6.6.1	mac	2022-12-15	20:35:39	20:45:14	573038	60fce7c3094706567dd1870b	601474800	1	main_slash	11	advance_on_keypress_SLASH	154	stimuli_target_diamondcircles.svg	stimuli_distractor_trianglediamonds.svg	19	yes	57	0	283
6.6.1	mac	2022-12-15	20:35:39	20:45:15	574594	60fce7c3094706567dd1870b	601474800	1	main_slash	11	main_slash	155	stimuli_distractor_trianglediamonds.svg	stimuli_distractor_diamondtriangles.svg	35	no	53	0	636
6.6.1	mac	2022-12-15	20:35:39	20:45:15	574594	60fce7c3094706567dd1870b	601474800	1	main_slash	11	advance_on_keypress_SLASH	156	stimuli_distractor_trianglediamonds.svg	stimuli_distractor_diamondtriangles.svg	35	no	57	0	177
6.6.1	mac	2022-12-15	20:35:39	20:45:18	577421	60fce7c3094706567dd1870b	601474800	1	main_slash	11	main_slash	157	stimuli_distractor_trianglediamonds.svg	stimuli_distractor_diamondtriangles.svg	36	no	0	1	2000
6.6.1	mac	2022-12-15	20:35:39	20:45:18	577421	60fce7c3094706567dd1870b	601474800	1	main_slash	11	advance_on_keypress_SLASH	158	stimuli_distractor_trianglediamonds.svg	stimuli_distractor_diamondtriangles.svg	36	no	57	0	759
6.6.1	mac	2022-12-15	20:35:39	20:45:20	579342	60fce7c3094706567dd1870b	601474800	1	main_slash	11	main_slash	159	stimuli_distractor_diamondtriangles.svg	stimuli_target_squarediamonds.svg	16	yes	53	1	522
6.6.1	mac	2022-12-15	20:35:39	20:45:20	579342	60fce7c3094706567dd1870b	601474800	1	main_slash	11	advance_on_keypress_SLASH	160	stimuli_distractor_diamondtriangles.svg	stimuli_target_squarediamonds.svg	16	yes	57	0	286