build	computer.platform	date	time	timestamp	time_elapsed_ms	subject	group	session	blockcode	blocknum	trialcode	trialnum	stimulus_left	stimulus_right	stim_index	target_present	response	correct	latency
6.6.1	win	2022-12-15	08:31:06	08:34:02	173943	5be31629e69dde0001a2fdd3	431163746	1	practice_z	5	practice_z	1	stimuli_distractor_trianglediamonds.svg	stimuli_distractor_trianglediamonds.svg	15	no	0	1	2000
6.6.1	win	2022-12-15	08:31:06	08:34:02	173943	5be31629e69dde0001a2fdd3	431163746	1	practice_z	5	advance_on_keypress_ZEE	2	stimuli_distractor_trianglediamonds.svg	stimuli_distractor_trianglediamonds.svg	15	no	57	0	881
6.6.1	win	2022-12-15	08:31:06	08:34:06	178503	5be31629e69dde0001a2fdd3	431163746	1	practice_z	5	practice_z	3	stimuli_distractor_diamondtriangles.svg	stimuli_target_trianglecircles.svg	9	yes	0	0	2000
6.6.1	win	2022-12-15	08:31:06	08:34:06	178503	5be31629e69dde0001a2fdd3	431163746	1	practice_z	5	advance_on_keypress_ZEE	4	stimuli_distractor_diamondtriangles.svg	stimuli_target_trianglecircles.svg	9	yes	57	0	489
6.6.1	win	2022-12-15	08:31:06	08:34:10	182661	5be31629e69dde0001a2fdd3	431163746	1	practice_z	5	practice_z	5	stimuli_distractor_trianglediamonds.svg	stimuli_target_diamondcircles.svg	12	yes	0	0	2000
6.6.1	win	2022-12-15	08:31:06	08:34:10	182661	5be31629e69dde0001a2fdd3	431163746	1	practice_z	5	advance_on_keypress_ZEE	6	stimuli_distractor_trianglediamonds.svg	stimuli_target_diamondcircles.svg	12	yes	57	0	481
6.6.1	win	2022-12-15	08:31:06	08:34:13	185251	5be31629e69dde0001a2fdd3	431163746	1	practice_z	5	practice_z	7	stimuli_target_squarediamonds.svg	stimuli_distractor_diamondtriangles.svg	2	yes	44	1	457
6.6.1	win	2022-12-15	08:31:06	08:34:13	185251	5be31629e69dde0001a2fdd3	431163746	1	practice_z	5	advance_on_keypress_ZEE	8	stimuli_target_squarediamonds.svg	stimuli_distractor_diamondtriangles.svg	2	yes	57	0	679
6.6.1	win	2022-12-15	08:31:06	08:34:17	189591	5be31629e69dde0001a2fdd3	431163746	1	practice_z	5	practice_z	9	stimuli_target_diamondsquares.svg	stimuli_distractor_diamondtriangles.svg	3	yes	0	0	2000
6.6.1	win	2022-12-15	08:31:06	08:34:17	189591	5be31629e69dde0001a2fdd3	431163746	1	practice_z	5	advance_on_keypress_ZEE	10	stimuli_target_diamondsquares.svg	stimuli_distractor_diamondtriangles.svg	3	yes	57	0	618
6.6.1	win	2022-12-15	08:31:06	08:34:21	192891	5be31629e69dde0001a2fdd3	431163746	1	practice_z	5	practice_z	11	stimuli_distractor_trianglediamonds.svg	stimuli_target_circlediamonds.svg	10	yes	44	1	1032
6.6.1	win	2022-12-15	08:31:06	08:34:21	192891	5be31629e69dde0001a2fdd3	431163746	1	practice_z	5	advance_on_keypress_ZEE	12	stimuli_distractor_trianglediamonds.svg	stimuli_target_circlediamonds.svg	10	yes	57	0	602
6.6.1	win	2022-12-15	08:31:06	08:34:24	195725	5be31629e69dde0001a2fdd3	431163746	1	practice_z	5	practice_z	13	stimuli_target_squarediamonds.svg	stimuli_distractor_trianglediamonds.svg	5	yes	44	1	583
6.6.1	win	2022-12-15	08:31:06	08:34:24	195725	5be31629e69dde0001a2fdd3	431163746	1	practice_z	5	advance_on_keypress_ZEE	14	stimuli_target_squarediamonds.svg	stimuli_distractor_trianglediamonds.svg	5	yes	57	0	485
6.6.1	win	2022-12-15	08:31:06	08:34:28	199857	5be31629e69dde0001a2fdd3	431163746	1	practice_z	5	practice_z	15	stimuli_distractor_trianglediamonds.svg	stimuli_distractor_diamondtriangles.svg	16	no	0	1	2000
6.6.1	win	2022-12-15	08:31:06	08:34:28	199857	5be31629e69dde0001a2fdd3	431163746	1	practice_z	5	advance_on_keypress_ZEE	16	stimuli_distractor_trianglediamonds.svg	stimuli_distractor_diamondtriangles.svg	16	no	57	0	526
6.6.1	win	2022-12-15	08:31:06	08:34:30	202628	5be31629e69dde0001a2fdd3	431163746	1	practice_z	5	practice_z	17	stimuli_distractor_trianglediamonds.svg	stimuli_target_squarediamonds.svg	11	yes	44	1	586
6.6.1	win	2022-12-15	08:31:06	08:34:30	202628	5be31629e69dde0001a2fdd3	431163746	1	practice_z	5	advance_on_keypress_ZEE	18	stimuli_distractor_trianglediamonds.svg	stimuli_target_squarediamonds.svg	11	yes	57	0	1363
6.6.1	win	2022-12-15	08:31:06	08:34:34	205962	5be31629e69dde0001a2fdd3	431163746	1	practice_z	5	practice_z	19	stimuli_target_circlediamonds.svg	stimuli_distractor_trianglediamonds.svg	4	yes	44	1	320
6.6.1	win	2022-12-15	08:31:06	08:34:34	205962	5be31629e69dde0001a2fdd3	431163746	1	practice_z	5	advance_on_keypress_ZEE	20	stimuli_target_circlediamonds.svg	stimuli_distractor_trianglediamonds.svg	4	yes	57	0	474
6.6.1	win	2022-12-15	08:31:06	08:34:36	208713	5be31629e69dde0001a2fdd3	431163746	1	practice_z	5	practice_z	21	stimuli_distractor_diamondtriangles.svg	stimuli_distractor_diamondtriangles.svg	13	no	44	0	638
6.6.1	win	2022-12-15	08:31:06	08:34:36	208713	5be31629e69dde0001a2fdd3	431163746	1	practice_z	5	advance_on_keypress_ZEE	22	stimuli_distractor_diamondtriangles.svg	stimuli_distractor_diamondtriangles.svg	13	no	57	0	841
6.6.1	win	2022-12-15	08:31:06	08:34:39	211644	5be31629e69dde0001a2fdd3	431163746	1	practice_z	5	practice_z	23	stimuli_distractor_diamondtriangles.svg	stimuli_target_circletriangles.svg	7	yes	44	1	450
6.6.1	win	2022-12-15	08:31:06	08:34:39	211644	5be31629e69dde0001a2fdd3	431163746	1	practice_z	5	advance_on_keypress_ZEE	24	stimuli_distractor_diamondtriangles.svg	stimuli_target_circletriangles.svg	7	yes	57	0	540
6.6.1	win	2022-12-15	08:31:06	08:34:42	214298	5be31629e69dde0001a2fdd3	431163746	1	practice_z	5	practice_z	25	stimuli_target_circlediamonds.svg	stimuli_distractor_diamondtriangles.svg	1	yes	44	1	474
6.6.1	win	2022-12-15	08:31:06	08:34:42	214298	5be31629e69dde0001a2fdd3	431163746	1	practice_z	5	advance_on_keypress_ZEE	26	stimuli_target_circlediamonds.svg	stimuli_distractor_diamondtriangles.svg	1	yes	57	0	856
6.6.1	win	2022-12-15	08:31:06	08:34:47	218791	5be31629e69dde0001a2fdd3	431163746	1	practice_z	5	practice_z	27	stimuli_target_diamondsquares.svg	stimuli_distractor_trianglediamonds.svg	6	yes	0	0	2000
6.6.1	win	2022-12-15	08:31:06	08:34:47	218791	5be31629e69dde0001a2fdd3	431163746	1	practice_z	5	advance_on_keypress_ZEE	28	stimuli_target_diamondsquares.svg	stimuli_distractor_trianglediamonds.svg	6	yes	57	0	587
6.6.1	win	2022-12-15	08:31:06	08:34:49	221389	5be31629e69dde0001a2fdd3	431163746	1	practice_z	5	practice_z	29	stimuli_distractor_diamondtriangles.svg	stimuli_distractor_trianglediamonds.svg	14	no	44	0	346
6.6.1	win	2022-12-15	08:31:06	08:34:49	221389	5be31629e69dde0001a2fdd3	431163746	1	practice_z	5	advance_on_keypress_ZEE	30	stimuli_distractor_diamondtriangles.svg	stimuli_distractor_trianglediamonds.svg	14	no	57	0	424
6.6.1	win	2022-12-15	08:31:06	08:34:53	225457	5be31629e69dde0001a2fdd3	431163746	1	practice_z	5	practice_z	31	stimuli_distractor_diamondtriangles.svg	stimuli_target_diamondcircles.svg	8	yes	0	0	2000
6.6.1	win	2022-12-15	08:31:06	08:34:53	225457	5be31629e69dde0001a2fdd3	431163746	1	practice_z	5	advance_on_keypress_ZEE	32	stimuli_distractor_diamondtriangles.svg	stimuli_target_diamondcircles.svg	8	yes	57	0	588
6.6.1	win	2022-12-15	08:31:06	08:35:09	241110	5be31629e69dde0001a2fdd3	431163746	1	main_z	7	main_z	1	stimuli_distractor_trianglediamonds.svg	stimuli_target_squarediamonds.svg	12	yes	44	1	388
6.6.1	win	2022-12-15	08:31:06	08:35:09	241110	5be31629e69dde0001a2fdd3	431163746	1	main_z	7	advance_on_keypress_ZEE	2	stimuli_distractor_trianglediamonds.svg	stimuli_target_squarediamonds.svg	12	yes	57	0	913
6.6.1	win	2022-12-15	08:31:06	08:35:11	243383	5be31629e69dde0001a2fdd3	431163746	1	main_z	7	main_z	3	stimuli_distractor_trianglediamonds.svg	stimuli_target_diamondcircles.svg	27	yes	44	1	710
6.6.1	win	2022-12-15	08:31:06	08:35:11	243383	5be31629e69dde0001a2fdd3	431163746	1	main_z	7	advance_on_keypress_ZEE	4	stimuli_distractor_trianglediamonds.svg	stimuli_target_diamondcircles.svg	27	yes	57	0	690
6.6.1	win	2022-12-15	08:31:06	08:35:13	245239	5be31629e69dde0001a2fdd3	431163746	1	main_z	7	main_z	5	stimuli_distractor_diamondtriangles.svg	stimuli_target_diamondsquares.svg	32	yes	44	1	533
6.6.1	win	2022-12-15	08:31:06	08:35:13	245239	5be31629e69dde0001a2fdd3	431163746	1	main_z	7	advance_on_keypress_ZEE	6	stimuli_distractor_diamondtriangles.svg	stimuli_target_diamondsquares.svg	32	yes	57	0	496
6.6.1	win	2022-12-15	08:31:06	08:35:16	248389	5be31629e69dde0001a2fdd3	431163746	1	main_z	7	main_z	7	stimuli_target_diamondcircles.svg	stimuli_distractor_diamondtriangles.svg	23	yes	0	0	2000
6.6.1	win	2022-12-15	08:31:06	08:35:16	248389	5be31629e69dde0001a2fdd3	431163746	1	main_z	7	advance_on_keypress_ZEE	8	stimuli_target_diamondcircles.svg	stimuli_distractor_diamondtriangles.svg	23	yes	57	0	398
6.6.1	win	2022-12-15	08:31:06	08:35:18	249746	5be31629e69dde0001a2fdd3	431163746	1	main_z	7	main_z	9	stimuli_target_circletriangles.svg	stimuli_distractor_trianglediamonds.svg	1	yes	44	1	308
6.6.1	win	2022-12-15	08:31:06	08:35:18	249746	5be31629e69dde0001a2fdd3	431163746	1	main_z	7	advance_on_keypress_ZEE	10	stimuli_target_circletriangles.svg	stimuli_distractor_trianglediamonds.svg	1	yes	57	0	1276
6.6.1	win	2022-12-15	08:31:06	08:35:20	252088	5be31629e69dde0001a2fdd3	431163746	1	main_z	7	main_z	11	stimuli_distractor_diamondtriangles.svg	stimuli_target_circletriangles.svg	13	yes	44	1	433
6.6.1	win	2022-12-15	08:31:06	08:35:20	252088	5be31629e69dde0001a2fdd3	431163746	1	main_z	7	advance_on_keypress_ZEE	12	stimuli_distractor_diamondtriangles.svg	stimuli_target_circletriangles.svg	13	yes	57	0	584
6.6.1	win	2022-12-15	08:31:06	08:35:21	253683	5be31629e69dde0001a2fdd3	431163746	1	main_z	7	main_z	13	stimuli_target_circlediamonds.svg	stimuli_distractor_diamondtriangles.svg	6	yes	44	1	361
6.6.1	win	2022-12-15	08:31:06	08:35:21	253683	5be31629e69dde0001a2fdd3	431163746	1	main_z	7	advance_on_keypress_ZEE	14	stimuli_target_circlediamonds.svg	stimuli_distractor_diamondtriangles.svg	6	yes	57	0	596
6.6.1	win	2022-12-15	08:31:06	08:35:25	256938	5be31629e69dde0001a2fdd3	431163746	1	main_z	7	main_z	15	stimuli_distractor_diamondtriangles.svg	stimuli_distractor_diamondtriangles.svg	39	no	0	1	2000
6.6.1	win	2022-12-15	08:31:06	08:35:25	256938	5be31629e69dde0001a2fdd3	431163746	1	main_z	7	advance_on_keypress_ZEE	16	stimuli_distractor_diamondtriangles.svg	stimuli_distractor_diamondtriangles.svg	39	no	57	0	629
6.6.1	win	2022-12-15	08:31:06	08:35:26	258452	5be31629e69dde0001a2fdd3	431163746	1	main_z	7	main_z	17	stimuli_distractor_trianglediamonds.svg	stimuli_target_squaretriangles.svg	11	yes	44	1	231
6.6.1	win	2022-12-15	08:31:06	08:35:26	258452	5be31629e69dde0001a2fdd3	431163746	1	main_z	7	advance_on_keypress_ZEE	18	stimuli_distractor_trianglediamonds.svg	stimuli_target_squaretriangles.svg	11	yes	57	0	592
6.6.1	win	2022-12-15	08:31:06	08:35:29	261688	5be31629e69dde0001a2fdd3	431163746	1	main_z	7	main_z	19	stimuli_distractor_trianglediamonds.svg	stimuli_target_trianglesquares.svg	26	yes	0	0	2000
6.6.1	win	2022-12-15	08:31:06	08:35:29	261688	5be31629e69dde0001a2fdd3	431163746	1	main_z	7	advance_on_keypress_ZEE	20	stimuli_distractor_trianglediamonds.svg	stimuli_target_trianglesquares.svg	26	yes	57	0	342
6.6.1	win	2022-12-15	08:31:06	08:35:31	262954	5be31629e69dde0001a2fdd3	431163746	1	main_z	7	main_z	21	stimuli_distractor_diamondtriangles.svg	stimuli_target_trianglecircles.svg	29	yes	44	1	283
6.6.1	win	2022-12-15	08:31:06	08:35:31	262954	5be31629e69dde0001a2fdd3	431163746	1	main_z	7	advance_on_keypress_ZEE	22	stimuli_distractor_diamondtriangles.svg	stimuli_target_trianglecircles.svg	29	yes	57	0	844
6.6.1	win	2022-12-15	08:31:06	08:35:34	266438	5be31629e69dde0001a2fdd3	431163746	1	main_z	7	main_z	23	stimuli_distractor_diamondtriangles.svg	stimuli_target_diamondcircles.svg	31	yes	0	0	2000
6.6.1	win	2022-12-15	08:31:06	08:35:34	266438	5be31629e69dde0001a2fdd3	431163746	1	main_z	7	advance_on_keypress_ZEE	24	stimuli_distractor_diamondtriangles.svg	stimuli_target_diamondcircles.svg	31	yes	57	0	364
6.6.1	win	2022-12-15	08:31:06	08:35:36	267807	5be31629e69dde0001a2fdd3	431163746	1	main_z	7	main_z	25	stimuli_target_circletriangles.svg	stimuli_distractor_diamondtriangles.svg	5	yes	44	1	353
6.6.1	win	2022-12-15	08:31:06	08:35:36	267807	5be31629e69dde0001a2fdd3	431163746	1	main_z	7	advance_on_keypress_ZEE	26	stimuli_target_circletriangles.svg	stimuli_distractor_diamondtriangles.svg	5	yes	57	0	994
6.6.1	win	2022-12-15	08:31:06	08:35:39	271438	5be31629e69dde0001a2fdd3	431163746	1	main_z	7	main_z	27	stimuli_distractor_trianglediamonds.svg	stimuli_distractor_trianglediamonds.svg	33	no	0	1	2000
6.6.1	win	2022-12-15	08:31:06	08:35:39	271438	5be31629e69dde0001a2fdd3	431163746	1	main_z	7	advance_on_keypress_ZEE	28	stimuli_distractor_trianglediamonds.svg	stimuli_distractor_trianglediamonds.svg	33	no	57	0	520
6.6.1	win	2022-12-15	08:31:06	08:35:42	274605	5be31629e69dde0001a2fdd3	431163746	1	main_z	7	main_z	29	stimuli_distractor_trianglediamonds.svg	stimuli_target_diamondsquares.svg	28	yes	0	0	2000
6.6.1	win	2022-12-15	08:31:06	08:35:42	274605	5be31629e69dde0001a2fdd3	431163746	1	main_z	7	advance_on_keypress_ZEE	30	stimuli_distractor_trianglediamonds.svg	stimuli_target_diamondsquares.svg	28	yes	57	0	39
6.6.1	win	2022-12-15	08:31:06	08:35:44	275727	5be31629e69dde0001a2fdd3	431163746	1	main_z	7	main_z	31	stimuli_target_squarediamonds.svg	stimuli_distractor_diamondtriangles.svg	8	yes	44	1	438
6.6.1	win	2022-12-15	08:31:06	08:35:44	275727	5be31629e69dde0001a2fdd3	431163746	1	main_z	7	advance_on_keypress_ZEE	32	stimuli_target_squarediamonds.svg	stimuli_distractor_diamondtriangles.svg	8	yes	57	0	791
6.6.1	win	2022-12-15	08:31:06	08:35:45	277584	5be31629e69dde0001a2fdd3	431163746	1	main_z	7	main_z	33	stimuli_distractor_trianglediamonds.svg	stimuli_target_circlediamonds.svg	10	yes	44	1	430
6.6.1	win	2022-12-15	08:31:06	08:35:45	277584	5be31629e69dde0001a2fdd3	431163746	1	main_z	7	advance_on_keypress_ZEE	34	stimuli_distractor_trianglediamonds.svg	stimuli_target_circlediamonds.svg	10	yes	57	0	711
6.6.1	win	2022-12-15	08:31:06	08:35:49	280938	5be31629e69dde0001a2fdd3	431163746	1	main_z	7	main_z	35	stimuli_distractor_trianglediamonds.svg	stimuli_distractor_diamondtriangles.svg	36	no	0	1	2000
6.6.1	win	2022-12-15	08:31:06	08:35:49	280938	5be31629e69dde0001a2fdd3	431163746	1	main_z	7	advance_on_keypress_ZEE	36	stimuli_distractor_trianglediamonds.svg	stimuli_distractor_diamondtriangles.svg	36	no	57	0	515
6.6.1	win	2022-12-15	08:31:06	08:35:52	284104	5be31629e69dde0001a2fdd3	431163746	1	main_z	7	main_z	37	stimuli_target_diamondcircles.svg	stimuli_distractor_trianglediamonds.svg	19	yes	0	0	2000
6.6.1	win	2022-12-15	08:31:06	08:35:52	284104	5be31629e69dde0001a2fdd3	431163746	1	main_z	7	advance_on_keypress_ZEE	38	stimuli_target_diamondcircles.svg	stimuli_distractor_trianglediamonds.svg	19	yes	57	0	325
6.6.1	win	2022-12-15	08:31:06	08:35:53	285470	5be31629e69dde0001a2fdd3	431163746	1	main_z	7	main_z	39	stimuli_target_circlediamonds.svg	stimuli_distractor_trianglediamonds.svg	2	yes	44	1	399
6.6.1	win	2022-12-15	08:31:06	08:35:53	285470	5be31629e69dde0001a2fdd3	431163746	1	main_z	7	advance_on_keypress_ZEE	40	stimuli_target_circlediamonds.svg	stimuli_distractor_trianglediamonds.svg	2	yes	57	0	600
6.6.1	win	2022-12-15	08:31:06	08:35:56	288721	5be31629e69dde0001a2fdd3	431163746	1	main_z	7	main_z	41	stimuli_target_trianglesquares.svg	stimuli_distractor_diamondtriangles.svg	22	yes	0	0	2000
6.6.1	win	2022-12-15	08:31:06	08:35:56	288721	5be31629e69dde0001a2fdd3	431163746	1	main_z	7	advance_on_keypress_ZEE	42	stimuli_target_trianglesquares.svg	stimuli_distractor_diamondtriangles.svg	22	yes	57	0	347
6.6.1	win	2022-12-15	08:31:06	08:35:59	291721	5be31629e69dde0001a2fdd3	431163746	1	main_z	7	main_z	43	stimuli_target_trianglecircles.svg	stimuli_distractor_diamondtriangles.svg	21	yes	0	0	2000
6.6.1	win	2022-12-15	08:31:06	08:35:59	291721	5be31629e69dde0001a2fdd3	431163746	1	main_z	7	advance_on_keypress_ZEE	44	stimuli_target_trianglecircles.svg	stimuli_distractor_diamondtriangles.svg	21	yes	57	0	427
6.6.1	win	2022-12-15	08:31:06	08:36:01	293335	5be31629e69dde0001a2fdd3	431163746	1	main_z	7	main_z	45	stimuli_distractor_diamondtriangles.svg	stimuli_target_squarediamonds.svg	16	yes	44	1	548
6.6.1	win	2022-12-15	08:31:06	08:36:01	293335	5be31629e69dde0001a2fdd3	431163746	1	main_z	7	advance_on_keypress_ZEE	46	stimuli_distractor_diamondtriangles.svg	stimuli_target_squarediamonds.svg	16	yes	57	0	521
6.6.1	win	2022-12-15	08:31:06	08:36:04	296504	5be31629e69dde0001a2fdd3	431163746	1	main_z	7	main_z	47	stimuli_distractor_diamondtriangles.svg	stimuli_distractor_diamondtriangles.svg	40	no	0	1	2000
6.6.1	win	2022-12-15	08:31:06	08:36:04	296504	5be31629e69dde0001a2fdd3	431163746	1	main_z	7	advance_on_keypress_ZEE	48	stimuli_distractor_diamondtriangles.svg	stimuli_distractor_diamondtriangles.svg	40	no	57	0	258
6.6.1	win	2022-12-15	08:31:06	08:36:06	297988	5be31629e69dde0001a2fdd3	431163746	1	main_z	7	main_z	49	stimuli_distractor_diamondtriangles.svg	stimuli_target_squaretriangles.svg	15	yes	44	1	584
6.6.1	win	2022-12-15	08:31:06	08:36:06	297988	5be31629e69dde0001a2fdd3	431163746	1	main_z	7	advance_on_keypress_ZEE	50	stimuli_distractor_diamondtriangles.svg	stimuli_target_squaretriangles.svg	15	yes	57	0	608
6.6.1	win	2022-12-15	08:31:06	08:36:09	301237	5be31629e69dde0001a2fdd3	431163746	1	main_z	7	main_z	51	stimuli_distractor_trianglediamonds.svg	stimuli_distractor_diamondtriangles.svg	35	no	0	1	2000
6.6.1	win	2022-12-15	08:31:06	08:36:09	301237	5be31629e69dde0001a2fdd3	431163746	1	main_z	7	advance_on_keypress_ZEE	52	stimuli_distractor_trianglediamonds.svg	stimuli_distractor_diamondtriangles.svg	35	no	57	0	534
6.6.1	win	2022-12-15	08:31:06	08:36:12	304421	5be31629e69dde0001a2fdd3	431163746	1	main_z	7	main_z	53	stimuli_distractor_diamondtriangles.svg	stimuli_distractor_trianglediamonds.svg	37	no	0	1	2000
6.6.1	win	2022-12-15	08:31:06	08:36:12	304421	5be31629e69dde0001a2fdd3	431163746	1	main_z	7	advance_on_keypress_ZEE	54	stimuli_distractor_diamondtriangles.svg	stimuli_distractor_trianglediamonds.svg	37	no	57	0	366
6.6.1	win	2022-12-15	08:31:06	08:36:15	307437	5be31629e69dde0001a2fdd3	431163746	1	main_z	7	main_z	55	stimuli_target_diamondsquares.svg	stimuli_distractor_trianglediamonds.svg	20	yes	0	0	2000
6.6.1	win	2022-12-15	08:31:06	08:36:15	307437	5be31629e69dde0001a2fdd3	431163746	1	main_z	7	advance_on_keypress_ZEE	56	stimuli_target_diamondsquares.svg	stimuli_distractor_trianglediamonds.svg	20	yes	57	0	391
6.6.1	win	2022-12-15	08:31:06	08:36:18	310471	5be31629e69dde0001a2fdd3	431163746	1	main_z	7	main_z	57	stimuli_target_diamondsquares.svg	stimuli_distractor_diamondtriangles.svg	24	yes	0	0	2000
6.6.1	win	2022-12-15	08:31:06	08:36:18	310471	5be31629e69dde0001a2fdd3	431163746	1	main_z	7	advance_on_keypress_ZEE	58	stimuli_target_diamondsquares.svg	stimuli_distractor_diamondtriangles.svg	24	yes	57	0	425
6.6.1	win	2022-12-15	08:31:06	08:36:20	311976	5be31629e69dde0001a2fdd3	431163746	1	main_z	7	main_z	59	stimuli_distractor_trianglediamonds.svg	stimuli_target_circletriangles.svg	9	yes	44	1	439
6.6.1	win	2022-12-15	08:31:06	08:36:20	311976	5be31629e69dde0001a2fdd3	431163746	1	main_z	7	advance_on_keypress_ZEE	60	stimuli_distractor_trianglediamonds.svg	stimuli_target_circletriangles.svg	9	yes	57	0	906
6.6.1	win	2022-12-15	08:31:06	08:36:23	315521	5be31629e69dde0001a2fdd3	431163746	1	main_z	7	main_z	61	stimuli_distractor_diamondtriangles.svg	stimuli_target_trianglesquares.svg	30	yes	0	0	2000
6.6.1	win	2022-12-15	08:31:06	08:36:23	315521	5be31629e69dde0001a2fdd3	431163746	1	main_z	7	advance_on_keypress_ZEE	62	stimuli_distractor_diamondtriangles.svg	stimuli_target_trianglesquares.svg	30	yes	57	0	306
6.6.1	win	2022-12-15	08:31:06	08:36:25	316911	5be31629e69dde0001a2fdd3	431163746	1	main_z	7	main_z	63	stimuli_target_squaretriangles.svg	stimuli_distractor_diamondtriangles.svg	7	yes	44	1	441
6.6.1	win	2022-12-15	08:31:06	08:36:25	316911	5be31629e69dde0001a2fdd3	431163746	1	main_z	7	advance_on_keypress_ZEE	64	stimuli_target_squaretriangles.svg	stimuli_distractor_diamondtriangles.svg	7	yes	57	0	509
6.6.1	win	2022-12-15	08:31:06	08:36:28	320054	5be31629e69dde0001a2fdd3	431163746	1	main_z	7	main_z	65	stimuli_target_trianglecircles.svg	stimuli_distractor_trianglediamonds.svg	17	yes	0	0	2000
6.6.1	win	2022-12-15	08:31:06	08:36:28	320054	5be31629e69dde0001a2fdd3	431163746	1	main_z	7	advance_on_keypress_ZEE	66	stimuli_target_trianglecircles.svg	stimuli_distractor_trianglediamonds.svg	17	yes	57	0	725
6.6.1	win	2022-12-15	08:31:06	08:36:31	323420	5be31629e69dde0001a2fdd3	431163746	1	main_z	7	main_z	67	stimuli_distractor_trianglediamonds.svg	stimuli_target_trianglecircles.svg	25	yes	0	0	2000
6.6.1	win	2022-12-15	08:31:06	08:36:31	323420	5be31629e69dde0001a2fdd3	431163746	1	main_z	7	advance_on_keypress_ZEE	68	stimuli_distractor_trianglediamonds.svg	stimuli_target_trianglecircles.svg	25	yes	57	0	460
6.6.1	win	2022-12-15	08:31:06	08:36:33	324901	5be31629e69dde0001a2fdd3	431163746	1	main_z	7	main_z	69	stimuli_target_squarediamonds.svg	stimuli_distractor_trianglediamonds.svg	4	yes	44	1	374
6.6.1	win	2022-12-15	08:31:06	08:36:33	324901	5be31629e69dde0001a2fdd3	431163746	1	main_z	7	advance_on_keypress_ZEE	70	stimuli_target_squarediamonds.svg	stimuli_distractor_trianglediamonds.svg	4	yes	57	0	743
6.6.1	win	2022-12-15	08:31:06	08:36:36	328287	5be31629e69dde0001a2fdd3	431163746	1	main_z	7	main_z	71	stimuli_distractor_trianglediamonds.svg	stimuli_distractor_trianglediamonds.svg	34	no	0	1	2000
6.6.1	win	2022-12-15	08:31:06	08:36:36	328287	5be31629e69dde0001a2fdd3	431163746	1	main_z	7	advance_on_keypress_ZEE	72	stimuli_distractor_trianglediamonds.svg	stimuli_distractor_trianglediamonds.svg	34	no	57	0	436
6.6.1	win	2022-12-15	08:31:06	08:36:39	331370	5be31629e69dde0001a2fdd3	431163746	1	main_z	7	main_z	73	stimuli_target_trianglesquares.svg	stimuli_distractor_trianglediamonds.svg	18	yes	0	0	2000
6.6.1	win	2022-12-15	08:31:06	08:36:39	331370	5be31629e69dde0001a2fdd3	431163746	1	main_z	7	advance_on_keypress_ZEE	74	stimuli_target_trianglesquares.svg	stimuli_distractor_trianglediamonds.svg	18	yes	57	0	363
6.6.1	win	2022-12-15	08:31:06	08:36:42	334387	5be31629e69dde0001a2fdd3	431163746	1	main_z	7	main_z	75	stimuli_distractor_diamondtriangles.svg	stimuli_distractor_trianglediamonds.svg	38	no	0	1	2000
6.6.1	win	2022-12-15	08:31:06	08:36:42	334387	5be31629e69dde0001a2fdd3	431163746	1	main_z	7	advance_on_keypress_ZEE	76	stimuli_distractor_diamondtriangles.svg	stimuli_distractor_trianglediamonds.svg	38	no	57	0	5
6.6.1	win	2022-12-15	08:31:06	08:36:43	335639	5be31629e69dde0001a2fdd3	431163746	1	main_z	7	main_z	77	stimuli_distractor_diamondtriangles.svg	stimuli_target_circlediamonds.svg	14	yes	44	1	586
6.6.1	win	2022-12-15	08:31:06	08:36:43	335639	5be31629e69dde0001a2fdd3	431163746	1	main_z	7	advance_on_keypress_ZEE	78	stimuli_distractor_diamondtriangles.svg	stimuli_target_circlediamonds.svg	14	yes	57	0	508
6.6.1	win	2022-12-15	08:31:06	08:36:45	337238	5be31629e69dde0001a2fdd3	431163746	1	main_z	7	main_z	79	stimuli_target_squaretriangles.svg	stimuli_distractor_trianglediamonds.svg	3	yes	44	1	451
6.6.1	win	2022-12-15	08:31:06	08:36:45	337238	5be31629e69dde0001a2fdd3	431163746	1	main_z	7	advance_on_keypress_ZEE	80	stimuli_target_squaretriangles.svg	stimuli_distractor_trianglediamonds.svg	3	yes	57	0	582
6.6.1	win	2022-12-15	08:31:06	08:36:47	338851	5be31629e69dde0001a2fdd3	431163746	1	main_z	7	main_z	81	stimuli_distractor_diamondtriangles.svg	stimuli_target_circlediamonds.svg	14	yes	44	1	370
6.6.1	win	2022-12-15	08:31:06	08:36:47	338851	5be31629e69dde0001a2fdd3	431163746	1	main_z	7	advance_on_keypress_ZEE	82	stimuli_distractor_diamondtriangles.svg	stimuli_target_circlediamonds.svg	14	yes	57	0	572
6.6.1	win	2022-12-15	08:31:06	08:36:48	340419	5be31629e69dde0001a2fdd3	431163746	1	main_z	7	main_z	83	stimuli_target_circlediamonds.svg	stimuli_distractor_diamondtriangles.svg	6	yes	44	1	349
6.6.1	win	2022-12-15	08:31:06	08:36:48	340419	5be31629e69dde0001a2fdd3	431163746	1	main_z	7	advance_on_keypress_ZEE	84	stimuli_target_circlediamonds.svg	stimuli_distractor_diamondtriangles.svg	6	yes	57	0	1574
6.6.1	win	2022-12-15	08:31:06	08:36:52	344636	5be31629e69dde0001a2fdd3	431163746	1	main_z	7	main_z	85	stimuli_distractor_diamondtriangles.svg	stimuli_distractor_diamondtriangles.svg	40	no	0	1	2000
6.6.1	win	2022-12-15	08:31:06	08:36:52	344636	5be31629e69dde0001a2fdd3	431163746	1	main_z	7	advance_on_keypress_ZEE	86	stimuli_distractor_diamondtriangles.svg	stimuli_distractor_diamondtriangles.svg	40	no	57	0	191
6.6.1	win	2022-12-15	08:31:06	08:36:54	345959	5be31629e69dde0001a2fdd3	431163746	1	main_z	7	main_z	87	stimuli_target_squaretriangles.svg	stimuli_distractor_diamondtriangles.svg	7	yes	44	1	489
6.6.1	win	2022-12-15	08:31:06	08:36:54	345959	5be31629e69dde0001a2fdd3	431163746	1	main_z	7	advance_on_keypress_ZEE	88	stimuli_target_squaretriangles.svg	stimuli_distractor_diamondtriangles.svg	7	yes	57	0	1644
6.6.1	win	2022-12-15	08:31:06	08:36:58	350236	5be31629e69dde0001a2fdd3	431163746	1	main_z	7	main_z	89	stimuli_target_trianglecircles.svg	stimuli_distractor_diamondtriangles.svg	21	yes	0	0	2000
6.6.1	win	2022-12-15	08:31:06	08:36:58	350236	5be31629e69dde0001a2fdd3	431163746	1	main_z	7	advance_on_keypress_ZEE	90	stimuli_target_trianglecircles.svg	stimuli_distractor_diamondtriangles.svg	21	yes	57	0	1035
6.6.1	win	2022-12-15	08:31:06	08:37:00	352434	5be31629e69dde0001a2fdd3	431163746	1	main_z	7	main_z	91	stimuli_distractor_diamondtriangles.svg	stimuli_target_circletriangles.svg	13	yes	44	1	511
6.6.1	win	2022-12-15	08:31:06	08:37:00	352434	5be31629e69dde0001a2fdd3	431163746	1	main_z	7	advance_on_keypress_ZEE	92	stimuli_distractor_diamondtriangles.svg	stimuli_target_circletriangles.svg	13	yes	57	0	558
6.6.1	win	2022-12-15	08:31:06	08:37:03	355636	5be31629e69dde0001a2fdd3	431163746	1	main_z	7	main_z	93	stimuli_distractor_trianglediamonds.svg	stimuli_target_diamondcircles.svg	27	yes	0	0	2000
6.6.1	win	2022-12-15	08:31:06	08:37:03	355636	5be31629e69dde0001a2fdd3	431163746	1	main_z	7	advance_on_keypress_ZEE	94	stimuli_distractor_trianglediamonds.svg	stimuli_target_diamondcircles.svg	27	yes	57	0	1173
6.6.1	win	2022-12-15	08:31:06	08:37:07	359453	5be31629e69dde0001a2fdd3	431163746	1	main_z	7	main_z	95	stimuli_distractor_trianglediamonds.svg	stimuli_distractor_trianglediamonds.svg	34	no	0	1	2000
6.6.1	win	2022-12-15	08:31:06	08:37:07	359453	5be31629e69dde0001a2fdd3	431163746	1	main_z	7	advance_on_keypress_ZEE	96	stimuli_distractor_trianglediamonds.svg	stimuli_distractor_trianglediamonds.svg	34	no	57	0	321
6.6.1	win	2022-12-15	08:31:06	08:37:09	360937	5be31629e69dde0001a2fdd3	431163746	1	main_z	7	main_z	97	stimuli_distractor_trianglediamonds.svg	stimuli_target_circlediamonds.svg	10	yes	44	1	516
6.6.1	win	2022-12-15	08:31:06	08:37:09	360937	5be31629e69dde0001a2fdd3	431163746	1	main_z	7	advance_on_keypress_ZEE	98	stimuli_distractor_trianglediamonds.svg	stimuli_target_circlediamonds.svg	10	yes	57	0	565
6.6.1	win	2022-12-15	08:31:06	08:37:12	364153	5be31629e69dde0001a2fdd3	431163746	1	main_z	7	main_z	99	stimuli_distractor_trianglediamonds.svg	stimuli_distractor_diamondtriangles.svg	35	no	0	1	2000
6.6.1	win	2022-12-15	08:31:06	08:37:12	364153	5be31629e69dde0001a2fdd3	431163746	1	main_z	7	advance_on_keypress_ZEE	100	stimuli_distractor_trianglediamonds.svg	stimuli_distractor_diamondtriangles.svg	35	no	57	0	1028
6.6.1	win	2022-12-15	08:31:06	08:37:14	366160	5be31629e69dde0001a2fdd3	431163746	1	main_z	7	main_z	101	stimuli_distractor_diamondtriangles.svg	stimuli_target_diamondsquares.svg	32	yes	44	1	341
6.6.1	win	2022-12-15	08:31:06	08:37:14	366160	5be31629e69dde0001a2fdd3	431163746	1	main_z	7	advance_on_keypress_ZEE	102	stimuli_distractor_diamondtriangles.svg	stimuli_target_diamondsquares.svg	32	yes	57	0	513
6.6.1	win	2022-12-15	08:31:06	08:37:17	369319	5be31629e69dde0001a2fdd3	431163746	1	main_z	7	main_z	103	stimuli_target_trianglecircles.svg	stimuli_distractor_trianglediamonds.svg	17	yes	0	0	2000
6.6.1	win	2022-12-15	08:31:06	08:37:17	369319	5be31629e69dde0001a2fdd3	431163746	1	main_z	7	advance_on_keypress_ZEE	104	stimuli_target_trianglecircles.svg	stimuli_distractor_trianglediamonds.svg	17	yes	57	0	530
6.6.1	win	2022-12-15	08:31:06	08:37:20	372503	5be31629e69dde0001a2fdd3	431163746	1	main_z	7	main_z	105	stimuli_target_diamondcircles.svg	stimuli_distractor_trianglediamonds.svg	19	yes	0	0	2000
6.6.1	win	2022-12-15	08:31:06	08:37:20	372503	5be31629e69dde0001a2fdd3	431163746	1	main_z	7	advance_on_keypress_ZEE	106	stimuli_target_diamondcircles.svg	stimuli_distractor_trianglediamonds.svg	19	yes	57	0	369
6.6.1	win	2022-12-15	08:31:06	08:37:23	375519	5be31629e69dde0001a2fdd3	431163746	1	main_z	7	main_z	107	stimuli_target_trianglesquares.svg	stimuli_distractor_trianglediamonds.svg	18	yes	0	0	2000
6.6.1	win	2022-12-15	08:31:06	08:37:23	375519	5be31629e69dde0001a2fdd3	431163746	1	main_z	7	advance_on_keypress_ZEE	108	stimuli_target_trianglesquares.svg	stimuli_distractor_trianglediamonds.svg	18	yes	57	0	344
6.6.1	win	2022-12-15	08:31:06	08:37:25	377020	5be31629e69dde0001a2fdd3	431163746	1	main_z	7	main_z	109	stimuli_target_squarediamonds.svg	stimuli_distractor_diamondtriangles.svg	8	yes	44	1	517
6.6.1	win	2022-12-15	08:31:06	08:37:25	377020	5be31629e69dde0001a2fdd3	431163746	1	main_z	7	advance_on_keypress_ZEE	110	stimuli_target_squarediamonds.svg	stimuli_distractor_diamondtriangles.svg	8	yes	57	0	868
6.6.1	win	2022-12-15	08:31:06	08:37:27	379101	5be31629e69dde0001a2fdd3	431163746	1	main_z	7	main_z	111	stimuli_target_circletriangles.svg	stimuli_distractor_trianglediamonds.svg	1	yes	44	1	565
6.6.1	win	2022-12-15	08:31:06	08:37:27	379101	5be31629e69dde0001a2fdd3	431163746	1	main_z	7	advance_on_keypress_ZEE	112	stimuli_target_circletriangles.svg	stimuli_distractor_trianglediamonds.svg	1	yes	57	0	1077
6.6.1	win	2022-12-15	08:31:06	08:37:31	382819	5be31629e69dde0001a2fdd3	431163746	1	main_z	7	main_z	113	stimuli_distractor_diamondtriangles.svg	stimuli_distractor_trianglediamonds.svg	38	no	0	1	2000
6.6.1	win	2022-12-15	08:31:06	08:37:31	382819	5be31629e69dde0001a2fdd3	431163746	1	main_z	7	advance_on_keypress_ZEE	114	stimuli_distractor_diamondtriangles.svg	stimuli_distractor_trianglediamonds.svg	38	no	57	0	356
6.6.1	win	2022-12-15	08:31:06	08:37:32	384210	5be31629e69dde0001a2fdd3	431163746	1	main_z	7	main_z	115	stimuli_target_circletriangles.svg	stimuli_distractor_diamondtriangles.svg	5	yes	44	1	391
6.6.1	win	2022-12-15	08:31:06	08:37:32	384210	5be31629e69dde0001a2fdd3	431163746	1	main_z	7	advance_on_keypress_ZEE	116	stimuli_target_circletriangles.svg	stimuli_distractor_diamondtriangles.svg	5	yes	57	0	864
6.6.1	win	2022-12-15	08:31:06	08:37:35	387719	5be31629e69dde0001a2fdd3	431163746	1	main_z	7	main_z	117	stimuli_distractor_diamondtriangles.svg	stimuli_distractor_trianglediamonds.svg	37	no	0	1	2000
6.6.1	win	2022-12-15	08:31:06	08:37:35	387719	5be31629e69dde0001a2fdd3	431163746	1	main_z	7	advance_on_keypress_ZEE	118	stimuli_distractor_diamondtriangles.svg	stimuli_distractor_trianglediamonds.svg	37	no	57	0	350
6.6.1	win	2022-12-15	08:31:06	08:37:37	389157	5be31629e69dde0001a2fdd3	431163746	1	main_z	7	main_z	119	stimuli_target_squaretriangles.svg	stimuli_distractor_trianglediamonds.svg	3	yes	44	1	438
6.6.1	win	2022-12-15	08:31:06	08:37:37	389157	5be31629e69dde0001a2fdd3	431163746	1	main_z	7	advance_on_keypress_ZEE	120	stimuli_target_squaretriangles.svg	stimuli_distractor_trianglediamonds.svg	3	yes	57	0	672
6.6.1	win	2022-12-15	08:31:06	08:37:40	392469	5be31629e69dde0001a2fdd3	431163746	1	main_z	7	main_z	121	stimuli_target_diamondcircles.svg	stimuli_distractor_diamondtriangles.svg	23	yes	0	0	2000
6.6.1	win	2022-12-15	08:31:06	08:37:40	392469	5be31629e69dde0001a2fdd3	431163746	1	main_z	7	advance_on_keypress_ZEE	122	stimuli_target_diamondcircles.svg	stimuli_distractor_diamondtriangles.svg	23	yes	57	0	495
6.6.1	win	2022-12-15	08:31:06	08:37:43	395619	5be31629e69dde0001a2fdd3	431163746	1	main_z	7	main_z	123	stimuli_distractor_trianglediamonds.svg	stimuli_target_trianglecircles.svg	25	yes	0	0	2000
6.6.1	win	2022-12-15	08:31:06	08:37:43	395619	5be31629e69dde0001a2fdd3	431163746	1	main_z	7	advance_on_keypress_ZEE	124	stimuli_distractor_trianglediamonds.svg	stimuli_target_trianglecircles.svg	25	yes	57	0	288
6.6.1	win	2022-12-15	08:31:06	08:37:46	398552	5be31629e69dde0001a2fdd3	431163746	1	main_z	7	main_z	125	stimuli_distractor_trianglediamonds.svg	stimuli_target_trianglesquares.svg	26	yes	0	0	2000
6.6.1	win	2022-12-15	08:31:06	08:37:46	398552	5be31629e69dde0001a2fdd3	431163746	1	main_z	7	advance_on_keypress_ZEE	126	stimuli_distractor_trianglediamonds.svg	stimuli_target_trianglesquares.svg	26	yes	57	0	424
6.6.1	win	2022-12-15	08:31:06	08:37:49	401619	5be31629e69dde0001a2fdd3	431163746	1	main_z	7	main_z	127	stimuli_distractor_diamondtriangles.svg	stimuli_target_trianglecircles.svg	29	yes	0	0	2000
6.6.1	win	2022-12-15	08:31:06	08:37:49	401619	5be31629e69dde0001a2fdd3	431163746	1	main_z	7	advance_on_keypress_ZEE	128	stimuli_distractor_diamondtriangles.svg	stimuli_target_trianglecircles.svg	29	yes	57	0	389
6.6.1	win	2022-12-15	08:31:06	08:37:52	404652	5be31629e69dde0001a2fdd3	431163746	1	main_z	7	main_z	129	stimuli_distractor_trianglediamonds.svg	stimuli_target_diamondsquares.svg	28	yes	0	0	2000
6.6.1	win	2022-12-15	08:31:06	08:37:52	404652	5be31629e69dde0001a2fdd3	431163746	1	main_z	7	advance_on_keypress_ZEE	130	stimuli_distractor_trianglediamonds.svg	stimuli_target_diamondsquares.svg	28	yes	57	0	393
6.6.1	win	2022-12-15	08:31:06	08:37:55	407686	5be31629e69dde0001a2fdd3	431163746	1	main_z	7	main_z	131	stimuli_distractor_diamondtriangles.svg	stimuli_target_diamondcircles.svg	31	yes	0	0	2000
6.6.1	win	2022-12-15	08:31:06	08:37:55	407686	5be31629e69dde0001a2fdd3	431163746	1	main_z	7	advance_on_keypress_ZEE	132	stimuli_distractor_diamondtriangles.svg	stimuli_target_diamondcircles.svg	31	yes	57	0	461
6.6.1	win	2022-12-15	08:31:06	08:37:57	409394	5be31629e69dde0001a2fdd3	431163746	1	main_z	7	main_z	133	stimuli_distractor_trianglediamonds.svg	stimuli_target_squarediamonds.svg	12	yes	44	1	592
6.6.1	win	2022-12-15	08:31:06	08:37:57	409394	5be31629e69dde0001a2fdd3	431163746	1	main_z	7	advance_on_keypress_ZEE	134	stimuli_distractor_trianglediamonds.svg	stimuli_target_squarediamonds.svg	12	yes	57	0	623
6.6.1	win	2022-12-15	08:31:06	08:38:00	412652	5be31629e69dde0001a2fdd3	431163746	1	main_z	7	main_z	135	stimuli_distractor_diamondtriangles.svg	stimuli_distractor_diamondtriangles.svg	39	no	0	1	2000
6.6.1	win	2022-12-15	08:31:06	08:38:00	412652	5be31629e69dde0001a2fdd3	431163746	1	main_z	7	advance_on_keypress_ZEE	136	stimuli_distractor_diamondtriangles.svg	stimuli_distractor_diamondtriangles.svg	39	no	57	0	473
6.6.1	win	2022-12-15	08:31:06	08:38:02	414262	5be31629e69dde0001a2fdd3	431163746	1	main_z	7	main_z	137	stimuli_distractor_diamondtriangles.svg	stimuli_target_squarediamonds.svg	16	yes	44	1	493
6.6.1	win	2022-12-15	08:31:06	08:38:02	414262	5be31629e69dde0001a2fdd3	431163746	1	main_z	7	advance_on_keypress_ZEE	138	stimuli_distractor_diamondtriangles.svg	stimuli_target_squarediamonds.svg	16	yes	57	0	516
6.6.1	win	2022-12-15	08:31:06	08:38:05	417418	5be31629e69dde0001a2fdd3	431163746	1	main_z	7	main_z	139	stimuli_target_trianglesquares.svg	stimuli_distractor_diamondtriangles.svg	22	yes	0	0	2000
6.6.1	win	2022-12-15	08:31:06	08:38:05	417418	5be31629e69dde0001a2fdd3	431163746	1	main_z	7	advance_on_keypress_ZEE	140	stimuli_target_trianglesquares.svg	stimuli_distractor_diamondtriangles.svg	22	yes	57	0	303
6.6.1	win	2022-12-15	08:31:06	08:38:07	418814	5be31629e69dde0001a2fdd3	431163746	1	main_z	7	main_z	141	stimuli_distractor_trianglediamonds.svg	stimuli_target_circletriangles.svg	9	yes	44	1	446
6.6.1	win	2022-12-15	08:31:06	08:38:07	418814	5be31629e69dde0001a2fdd3	431163746	1	main_z	7	advance_on_keypress_ZEE	142	stimuli_distractor_trianglediamonds.svg	stimuli_target_circletriangles.svg	9	yes	57	0	437
6.6.1	win	2022-12-15	08:31:06	08:38:08	420429	5be31629e69dde0001a2fdd3	431163746	1	main_z	7	main_z	143	stimuli_target_squarediamonds.svg	stimuli_distractor_trianglediamonds.svg	4	yes	44	1	528
6.6.1	win	2022-12-15	08:31:06	08:38:08	420429	5be31629e69dde0001a2fdd3	431163746	1	main_z	7	advance_on_keypress_ZEE	144	stimuli_target_squarediamonds.svg	stimuli_distractor_trianglediamonds.svg	4	yes	57	0	480
6.6.1	win	2022-12-15	08:31:06	08:38:11	423552	5be31629e69dde0001a2fdd3	431163746	1	main_z	7	main_z	145	stimuli_target_diamondsquares.svg	stimuli_distractor_diamondtriangles.svg	24	yes	0	0	2000
6.6.1	win	2022-12-15	08:31:06	08:38:11	423552	5be31629e69dde0001a2fdd3	431163746	1	main_z	7	advance_on_keypress_ZEE	146	stimuli_target_diamondsquares.svg	stimuli_distractor_diamondtriangles.svg	24	yes	57	0	571
6.6.1	win	2022-12-15	08:31:06	08:38:15	426768	5be31629e69dde0001a2fdd3	431163746	1	main_z	7	main_z	147	stimuli_distractor_trianglediamonds.svg	stimuli_distractor_diamondtriangles.svg	36	no	0	1	2000
6.6.1	win	2022-12-15	08:31:06	08:38:15	426768	5be31629e69dde0001a2fdd3	431163746	1	main_z	7	advance_on_keypress_ZEE	148	stimuli_distractor_trianglediamonds.svg	stimuli_distractor_diamondtriangles.svg	36	no	57	0	372
6.6.1	win	2022-12-15	08:31:06	08:38:16	428303	5be31629e69dde0001a2fdd3	431163746	1	main_z	7	main_z	149	stimuli_target_circlediamonds.svg	stimuli_distractor_trianglediamonds.svg	2	yes	44	1	517
6.6.1	win	2022-12-15	08:31:06	08:38:16	428303	5be31629e69dde0001a2fdd3	431163746	1	main_z	7	advance_on_keypress_ZEE	150	stimuli_target_circlediamonds.svg	stimuli_distractor_trianglediamonds.svg	2	yes	57	0	388
6.6.1	win	2022-12-15	08:31:06	08:38:19	431335	5be31629e69dde0001a2fdd3	431163746	1	main_z	7	main_z	151	stimuli_target_diamondsquares.svg	stimuli_distractor_trianglediamonds.svg	20	yes	0	0	2000
6.6.1	win	2022-12-15	08:31:06	08:38:19	431335	5be31629e69dde0001a2fdd3	431163746	1	main_z	7	advance_on_keypress_ZEE	152	stimuli_target_diamondsquares.svg	stimuli_distractor_trianglediamonds.svg	20	yes	57	0	325
6.6.1	win	2022-12-15	08:31:06	08:38:22	434301	5be31629e69dde0001a2fdd3	431163746	1	main_z	7	main_z	153	stimuli_distractor_trianglediamonds.svg	stimuli_distractor_trianglediamonds.svg	33	no	0	1	2000
6.6.1	win	2022-12-15	08:31:06	08:38:22	434301	5be31629e69dde0001a2fdd3	431163746	1	main_z	7	advance_on_keypress_ZEE	154	stimuli_distractor_trianglediamonds.svg	stimuli_distractor_trianglediamonds.svg	33	no	57	0	388
6.6.1	win	2022-12-15	08:31:06	08:38:24	435866	5be31629e69dde0001a2fdd3	431163746	1	main_z	7	main_z	155	stimuli_distractor_diamondtriangles.svg	stimuli_target_squaretriangles.svg	15	yes	44	1	531
6.6.1	win	2022-12-15	08:31:06	08:38:24	435866	5be31629e69dde0001a2fdd3	431163746	1	main_z	7	advance_on_keypress_ZEE	156	stimuli_distractor_diamondtriangles.svg	stimuli_target_squaretriangles.svg	15	yes	57	0	498
6.6.1	win	2022-12-15	08:31:06	08:38:27	439018	5be31629e69dde0001a2fdd3	431163746	1	main_z	7	main_z	157	stimuli_distractor_diamondtriangles.svg	stimuli_target_trianglesquares.svg	30	yes	0	0	2000
6.6.1	win	2022-12-15	08:31:06	08:38:27	439018	5be31629e69dde0001a2fdd3	431163746	1	main_z	7	advance_on_keypress_ZEE	158	stimuli_distractor_diamondtriangles.svg	stimuli_target_trianglesquares.svg	30	yes	57	0	376
6.6.1	win	2022-12-15	08:31:06	08:38:28	440419	5be31629e69dde0001a2fdd3	431163746	1	main_z	7	main_z	159	stimuli_distractor_trianglediamonds.svg	stimuli_target_squaretriangles.svg	11	yes	44	1	383
6.6.1	win	2022-12-15	08:31:06	08:38:28	440419	5be31629e69dde0001a2fdd3	431163746	1	main_z	7	advance_on_keypress_ZEE	160	stimuli_distractor_trianglediamonds.svg	stimuli_target_squaretriangles.svg	11	yes	57	0	688
6.6.1	win	2022-12-15	08:31:06	08:38:58	470694	5be31629e69dde0001a2fdd3	431163746	1	practice_slash	9	practice_slash	1	stimuli_target_circlediamonds.svg	stimuli_distractor_trianglediamonds.svg	4	yes	53	1	573
6.6.1	win	2022-12-15	08:31:06	08:38:58	470694	5be31629e69dde0001a2fdd3	431163746	1	practice_slash	9	advance_on_keypress_SLASH	2	stimuli_target_circlediamonds.svg	stimuli_distractor_trianglediamonds.svg	4	yes	57	0	1751
6.6.1	win	2022-12-15	08:31:06	08:39:02	474438	5be31629e69dde0001a2fdd3	431163746	1	practice_slash	9	practice_slash	3	stimuli_target_circlediamonds.svg	stimuli_distractor_diamondtriangles.svg	1	yes	53	1	334
6.6.1	win	2022-12-15	08:31:06	08:39:02	474438	5be31629e69dde0001a2fdd3	431163746	1	practice_slash	9	advance_on_keypress_SLASH	4	stimuli_target_circlediamonds.svg	stimuli_distractor_diamondtriangles.svg	1	yes	57	0	417
6.6.1	win	2022-12-15	08:31:06	08:39:05	476858	5be31629e69dde0001a2fdd3	431163746	1	practice_slash	9	practice_slash	5	stimuli_distractor_diamondtriangles.svg	stimuli_target_circletriangles.svg	7	yes	53	1	355
6.6.1	win	2022-12-15	08:31:06	08:39:05	476858	5be31629e69dde0001a2fdd3	431163746	1	practice_slash	9	advance_on_keypress_SLASH	6	stimuli_distractor_diamondtriangles.svg	stimuli_target_circletriangles.svg	7	yes	57	0	406
6.6.1	win	2022-12-15	08:31:06	08:39:07	479194	5be31629e69dde0001a2fdd3	431163746	1	practice_slash	9	practice_slash	7	stimuli_distractor_diamondtriangles.svg	stimuli_target_diamondcircles.svg	8	yes	53	1	291
6.6.1	win	2022-12-15	08:31:06	08:39:07	479194	5be31629e69dde0001a2fdd3	431163746	1	practice_slash	9	advance_on_keypress_SLASH	8	stimuli_distractor_diamondtriangles.svg	stimuli_target_diamondcircles.svg	8	yes	57	0	462
6.6.1	win	2022-12-15	08:31:06	08:39:11	483305	5be31629e69dde0001a2fdd3	431163746	1	practice_slash	9	practice_slash	9	stimuli_distractor_trianglediamonds.svg	stimuli_distractor_trianglediamonds.svg	15	no	0	1	2000
6.6.1	win	2022-12-15	08:31:06	08:39:11	483305	5be31629e69dde0001a2fdd3	431163746	1	practice_slash	9	advance_on_keypress_SLASH	10	stimuli_distractor_trianglediamonds.svg	stimuli_distractor_trianglediamonds.svg	15	no	57	0	484
6.6.1	win	2022-12-15	08:31:06	08:39:15	487436	5be31629e69dde0001a2fdd3	431163746	1	practice_slash	9	practice_slash	11	stimuli_distractor_trianglediamonds.svg	stimuli_target_diamondcircles.svg	12	yes	0	0	2000
6.6.1	win	2022-12-15	08:31:06	08:39:15	487436	5be31629e69dde0001a2fdd3	431163746	1	practice_slash	9	advance_on_keypress_SLASH	12	stimuli_distractor_trianglediamonds.svg	stimuli_target_diamondcircles.svg	12	yes	57	0	2271
6.6.1	win	2022-12-15	08:31:06	08:39:21	493353	5be31629e69dde0001a2fdd3	431163746	1	practice_slash	9	practice_slash	13	stimuli_target_diamondsquares.svg	stimuli_distractor_trianglediamonds.svg	6	yes	0	0	2000
6.6.1	win	2022-12-15	08:31:06	08:39:21	493353	5be31629e69dde0001a2fdd3	431163746	1	practice_slash	9	advance_on_keypress_SLASH	14	stimuli_target_diamondsquares.svg	stimuli_distractor_trianglediamonds.svg	6	yes	57	0	701
6.6.1	win	2022-12-15	08:31:06	08:39:24	496295	5be31629e69dde0001a2fdd3	431163746	1	practice_slash	9	practice_slash	15	stimuli_target_squarediamonds.svg	stimuli_distractor_diamondtriangles.svg	2	yes	53	1	593
6.6.1	win	2022-12-15	08:31:06	08:39:24	496295	5be31629e69dde0001a2fdd3	431163746	1	practice_slash	9	advance_on_keypress_SLASH	16	stimuli_target_squarediamonds.svg	stimuli_distractor_diamondtriangles.svg	2	yes	57	0	498
6.6.1	win	2022-12-15	08:31:06	08:39:27	498890	5be31629e69dde0001a2fdd3	431163746	1	practice_slash	9	practice_slash	17	stimuli_target_squarediamonds.svg	stimuli_distractor_trianglediamonds.svg	5	yes	53	1	438
6.6.1	win	2022-12-15	08:31:06	08:39:27	498890	5be31629e69dde0001a2fdd3	431163746	1	practice_slash	9	advance_on_keypress_SLASH	18	stimuli_target_squarediamonds.svg	stimuli_distractor_trianglediamonds.svg	5	yes	57	0	533
6.6.1	win	2022-12-15	08:31:06	08:39:29	501402	5be31629e69dde0001a2fdd3	431163746	1	practice_slash	9	practice_slash	19	stimuli_distractor_diamondtriangles.svg	stimuli_distractor_diamondtriangles.svg	13	no	53	0	330
6.6.1	win	2022-12-15	08:31:06	08:39:29	501402	5be31629e69dde0001a2fdd3	431163746	1	practice_slash	9	advance_on_keypress_SLASH	20	stimuli_distractor_diamondtriangles.svg	stimuli_distractor_diamondtriangles.svg	13	no	57	0	429
6.6.1	win	2022-12-15	08:31:06	08:39:33	505487	5be31629e69dde0001a2fdd3	431163746	1	practice_slash	9	practice_slash	21	stimuli_distractor_diamondtriangles.svg	stimuli_distractor_trianglediamonds.svg	14	no	0	1	2000
6.6.1	win	2022-12-15	08:31:06	08:39:33	505487	5be31629e69dde0001a2fdd3	431163746	1	practice_slash	9	advance_on_keypress_SLASH	22	stimuli_distractor_diamondtriangles.svg	stimuli_distractor_trianglediamonds.svg	14	no	57	0	3947
6.6.1	win	2022-12-15	08:31:06	08:39:39	511601	5be31629e69dde0001a2fdd3	431163746	1	practice_slash	9	practice_slash	23	stimuli_distractor_trianglediamonds.svg	stimuli_target_squarediamonds.svg	11	yes	53	1	515
6.6.1	win	2022-12-15	08:31:06	08:39:39	511601	5be31629e69dde0001a2fdd3	431163746	1	practice_slash	9	advance_on_keypress_SLASH	24	stimuli_distractor_trianglediamonds.svg	stimuli_target_squarediamonds.svg	11	yes	57	0	1186
6.6.1	win	2022-12-15	08:31:06	08:39:43	514960	5be31629e69dde0001a2fdd3	431163746	1	practice_slash	9	practice_slash	25	stimuli_distractor_trianglediamonds.svg	stimuli_distractor_diamondtriangles.svg	16	no	53	0	522
6.6.1	win	2022-12-15	08:31:06	08:39:43	514960	5be31629e69dde0001a2fdd3	431163746	1	practice_slash	9	advance_on_keypress_SLASH	26	stimuli_distractor_trianglediamonds.svg	stimuli_distractor_diamondtriangles.svg	16	no	57	0	930
6.6.1	win	2022-12-15	08:31:06	08:39:47	519536	5be31629e69dde0001a2fdd3	431163746	1	practice_slash	9	practice_slash	27	stimuli_target_diamondsquares.svg	stimuli_distractor_diamondtriangles.svg	3	yes	0	0	2000
6.6.1	win	2022-12-15	08:31:06	08:39:47	519536	5be31629e69dde0001a2fdd3	431163746	1	practice_slash	9	advance_on_keypress_SLASH	28	stimuli_target_diamondsquares.svg	stimuli_distractor_diamondtriangles.svg	3	yes	57	0	1770
6.6.1	win	2022-12-15	08:31:06	08:39:53	524953	5be31629e69dde0001a2fdd3	431163746	1	practice_slash	9	practice_slash	29	stimuli_distractor_diamondtriangles.svg	stimuli_target_trianglecircles.svg	9	yes	0	0	2000
6.6.1	win	2022-12-15	08:31:06	08:39:53	524953	5be31629e69dde0001a2fdd3	431163746	1	practice_slash	9	advance_on_keypress_SLASH	30	stimuli_distractor_diamondtriangles.svg	stimuli_target_trianglecircles.svg	9	yes	57	0	371
6.6.1	win	2022-12-15	08:31:06	08:39:57	528970	5be31629e69dde0001a2fdd3	431163746	1	practice_slash	9	practice_slash	31	stimuli_distractor_trianglediamonds.svg	stimuli_target_circlediamonds.svg	10	yes	0	0	2000
6.6.1	win	2022-12-15	08:31:06	08:39:57	528970	5be31629e69dde0001a2fdd3	431163746	1	practice_slash	9	advance_on_keypress_SLASH	32	stimuli_distractor_trianglediamonds.svg	stimuli_target_circlediamonds.svg	10	yes	57	0	428
6.6.1	win	2022-12-15	08:31:06	08:40:02	534450	5be31629e69dde0001a2fdd3	431163746	1	main_slash	11	main_slash	1	stimuli_target_diamondcircles.svg	stimuli_distractor_trianglediamonds.svg	19	yes	0	0	2000
6.6.1	win	2022-12-15	08:31:06	08:40:02	534450	5be31629e69dde0001a2fdd3	431163746	1	main_slash	11	advance_on_keypress_SLASH	2	stimuli_target_diamondcircles.svg	stimuli_distractor_trianglediamonds.svg	19	yes	57	0	483
6.6.1	win	2022-12-15	08:31:06	08:40:05	537583	5be31629e69dde0001a2fdd3	431163746	1	main_slash	11	main_slash	3	stimuli_distractor_diamondtriangles.svg	stimuli_target_diamondcircles.svg	31	yes	0	0	2000
6.6.1	win	2022-12-15	08:31:06	08:40:05	537583	5be31629e69dde0001a2fdd3	431163746	1	main_slash	11	advance_on_keypress_SLASH	4	stimuli_distractor_diamondtriangles.svg	stimuli_target_diamondcircles.svg	31	yes	57	0	385
6.6.1	win	2022-12-15	08:31:06	08:40:07	539148	5be31629e69dde0001a2fdd3	431163746	1	main_slash	11	main_slash	5	stimuli_target_circlediamonds.svg	stimuli_distractor_diamondtriangles.svg	6	yes	53	1	532
6.6.1	win	2022-12-15	08:31:06	08:40:07	539148	5be31629e69dde0001a2fdd3	431163746	1	main_slash	11	advance_on_keypress_SLASH	6	stimuli_target_circlediamonds.svg	stimuli_distractor_diamondtriangles.svg	6	yes	57	0	1137
6.6.1	win	2022-12-15	08:31:06	08:40:11	542941	5be31629e69dde0001a2fdd3	431163746	1	main_slash	11	main_slash	7	stimuli_distractor_trianglediamonds.svg	stimuli_distractor_trianglediamonds.svg	34	no	0	1	2000
6.6.1	win	2022-12-15	08:31:06	08:40:11	542941	5be31629e69dde0001a2fdd3	431163746	1	main_slash	11	advance_on_keypress_SLASH	8	stimuli_distractor_trianglediamonds.svg	stimuli_distractor_trianglediamonds.svg	34	no	57	0	409
6.6.1	win	2022-12-15	08:31:06	08:40:12	544539	5be31629e69dde0001a2fdd3	431163746	1	main_slash	11	main_slash	9	stimuli_distractor_diamondtriangles.svg	stimuli_distractor_trianglediamonds.svg	37	no	53	0	540
6.6.1	win	2022-12-15	08:31:06	08:40:12	544539	5be31629e69dde0001a2fdd3	431163746	1	main_slash	11	advance_on_keypress_SLASH	10	stimuli_distractor_diamondtriangles.svg	stimuli_distractor_trianglediamonds.svg	37	no	57	0	630
6.6.1	win	2022-12-15	08:31:06	08:40:16	547816	5be31629e69dde0001a2fdd3	431163746	1	main_slash	11	main_slash	11	stimuli_distractor_diamondtriangles.svg	stimuli_target_trianglesquares.svg	30	yes	0	0	2000
6.6.1	win	2022-12-15	08:31:06	08:40:16	547816	5be31629e69dde0001a2fdd3	431163746	1	main_slash	11	advance_on_keypress_SLASH	12	stimuli_distractor_diamondtriangles.svg	stimuli_target_trianglesquares.svg	30	yes	57	0	342
6.6.1	win	2022-12-15	08:31:06	08:40:17	549276	5be31629e69dde0001a2fdd3	431163746	1	main_slash	11	main_slash	13	stimuli_target_circletriangles.svg	stimuli_distractor_diamondtriangles.svg	5	yes	53	1	476
6.6.1	win	2022-12-15	08:31:06	08:40:17	549276	5be31629e69dde0001a2fdd3	431163746	1	main_slash	11	advance_on_keypress_SLASH	14	stimuli_target_circletriangles.svg	stimuli_distractor_diamondtriangles.svg	5	yes	57	0	577
6.6.1	win	2022-12-15	08:31:06	08:40:19	550982	5be31629e69dde0001a2fdd3	431163746	1	main_slash	11	main_slash	15	stimuli_target_squaretriangles.svg	stimuli_distractor_trianglediamonds.svg	3	yes	53	1	482
6.6.1	win	2022-12-15	08:31:06	08:40:19	550982	5be31629e69dde0001a2fdd3	431163746	1	main_slash	11	advance_on_keypress_SLASH	16	stimuli_target_squaretriangles.svg	stimuli_distractor_trianglediamonds.svg	3	yes	57	0	516
6.6.1	win	2022-12-15	08:31:06	08:40:20	552537	5be31629e69dde0001a2fdd3	431163746	1	main_slash	11	main_slash	17	stimuli_distractor_diamondtriangles.svg	stimuli_target_circletriangles.svg	13	yes	53	1	388
6.6.1	win	2022-12-15	08:31:06	08:40:20	552537	5be31629e69dde0001a2fdd3	431163746	1	main_slash	11	advance_on_keypress_SLASH	18	stimuli_distractor_diamondtriangles.svg	stimuli_target_circletriangles.svg	13	yes	57	0	472
6.6.1	win	2022-12-15	08:31:06	08:40:22	554186	5be31629e69dde0001a2fdd3	431163746	1	main_slash	11	main_slash	19	stimuli_target_circlediamonds.svg	stimuli_distractor_trianglediamonds.svg	2	yes	53	1	537
6.6.1	win	2022-12-15	08:31:06	08:40:22	554186	5be31629e69dde0001a2fdd3	431163746	1	main_slash	11	advance_on_keypress_SLASH	20	stimuli_target_circlediamonds.svg	stimuli_distractor_trianglediamonds.svg	2	yes	57	0	445
6.6.1	win	2022-12-15	08:31:06	08:40:25	557294	5be31629e69dde0001a2fdd3	431163746	1	main_slash	11	main_slash	21	stimuli_distractor_diamondtriangles.svg	stimuli_target_diamondsquares.svg	32	yes	0	0	2000
6.6.1	win	2022-12-15	08:31:06	08:40:25	557294	5be31629e69dde0001a2fdd3	431163746	1	main_slash	11	advance_on_keypress_SLASH	22	stimuli_distractor_diamondtriangles.svg	stimuli_target_diamondsquares.svg	32	yes	57	0	352
6.6.1	win	2022-12-15	08:31:06	08:40:28	560299	5be31629e69dde0001a2fdd3	431163746	1	main_slash	11	main_slash	23	stimuli_target_trianglecircles.svg	stimuli_distractor_diamondtriangles.svg	21	yes	0	0	2000
6.6.1	win	2022-12-15	08:31:06	08:40:28	560299	5be31629e69dde0001a2fdd3	431163746	1	main_slash	11	advance_on_keypress_SLASH	24	stimuli_target_trianglecircles.svg	stimuli_distractor_diamondtriangles.svg	21	yes	57	0	473
6.6.1	win	2022-12-15	08:31:06	08:40:30	561944	5be31629e69dde0001a2fdd3	431163746	1	main_slash	11	main_slash	25	stimuli_distractor_diamondtriangles.svg	stimuli_target_circlediamonds.svg	14	yes	53	1	528
6.6.1	win	2022-12-15	08:31:06	08:40:30	561944	5be31629e69dde0001a2fdd3	431163746	1	main_slash	11	advance_on_keypress_SLASH	26	stimuli_distractor_diamondtriangles.svg	stimuli_target_circlediamonds.svg	14	yes	57	0	425
6.6.1	win	2022-12-15	08:31:06	08:40:33	565016	5be31629e69dde0001a2fdd3	431163746	1	main_slash	11	main_slash	27	stimuli_target_trianglesquares.svg	stimuli_distractor_diamondtriangles.svg	22	yes	0	0	2000
6.6.1	win	2022-12-15	08:31:06	08:40:33	565016	5be31629e69dde0001a2fdd3	431163746	1	main_slash	11	advance_on_keypress_SLASH	28	stimuli_target_trianglesquares.svg	stimuli_distractor_diamondtriangles.svg	22	yes	57	0	310
6.6.1	win	2022-12-15	08:31:06	08:40:36	567966	5be31629e69dde0001a2fdd3	431163746	1	main_slash	11	main_slash	29	stimuli_distractor_trianglediamonds.svg	stimuli_target_diamondsquares.svg	28	yes	0	0	2000
6.6.1	win	2022-12-15	08:31:06	08:40:36	567966	5be31629e69dde0001a2fdd3	431163746	1	main_slash	11	advance_on_keypress_SLASH	30	stimuli_distractor_trianglediamonds.svg	stimuli_target_diamondsquares.svg	28	yes	57	0	328
6.6.1	win	2022-12-15	08:31:06	08:40:37	569446	5be31629e69dde0001a2fdd3	431163746	1	main_slash	11	main_slash	31	stimuli_target_circletriangles.svg	stimuli_distractor_trianglediamonds.svg	1	yes	53	1	498
6.6.1	win	2022-12-15	08:31:06	08:40:37	569446	5be31629e69dde0001a2fdd3	431163746	1	main_slash	11	advance_on_keypress_SLASH	32	stimuli_target_circletriangles.svg	stimuli_distractor_trianglediamonds.svg	1	yes	57	0	491
6.6.1	win	2022-12-15	08:31:06	08:40:39	571190	5be31629e69dde0001a2fdd3	431163746	1	main_slash	11	main_slash	33	stimuli_distractor_diamondtriangles.svg	stimuli_target_squarediamonds.svg	16	yes	53	1	608
6.6.1	win	2022-12-15	08:31:06	08:40:39	571190	5be31629e69dde0001a2fdd3	431163746	1	main_slash	11	advance_on_keypress_SLASH	34	stimuli_distractor_diamondtriangles.svg	stimuli_target_squarediamonds.svg	16	yes	57	0	623
6.6.1	win	2022-12-15	08:31:06	08:40:42	574449	5be31629e69dde0001a2fdd3	431163746	1	main_slash	11	main_slash	35	stimuli_distractor_diamondtriangles.svg	stimuli_distractor_diamondtriangles.svg	40	no	0	1	2000
6.6.1	win	2022-12-15	08:31:06	08:40:42	574449	5be31629e69dde0001a2fdd3	431163746	1	main_slash	11	advance_on_keypress_SLASH	36	stimuli_distractor_diamondtriangles.svg	stimuli_distractor_diamondtriangles.svg	40	no	57	0	441
6.6.1	win	2022-12-15	08:31:06	08:40:45	577532	5be31629e69dde0001a2fdd3	431163746	1	main_slash	11	main_slash	37	stimuli_distractor_trianglediamonds.svg	stimuli_distractor_trianglediamonds.svg	33	no	0	1	2000
6.6.1	win	2022-12-15	08:31:06	08:40:45	577532	5be31629e69dde0001a2fdd3	431163746	1	main_slash	11	advance_on_keypress_SLASH	38	stimuli_distractor_trianglediamonds.svg	stimuli_distractor_trianglediamonds.svg	33	no	57	0	490
6.6.1	win	2022-12-15	08:31:06	08:40:48	580665	5be31629e69dde0001a2fdd3	431163746	1	main_slash	11	main_slash	39	stimuli_distractor_trianglediamonds.svg	stimuli_target_trianglecircles.svg	25	yes	0	0	2000
6.6.1	win	2022-12-15	08:31:06	08:40:48	580665	5be31629e69dde0001a2fdd3	431163746	1	main_slash	11	advance_on_keypress_SLASH	40	stimuli_distractor_trianglediamonds.svg	stimuli_target_trianglecircles.svg	25	yes	57	0	371
6.6.1	win	2022-12-15	08:31:06	08:40:50	582153	5be31629e69dde0001a2fdd3	431163746	1	main_slash	11	main_slash	41	stimuli_distractor_trianglediamonds.svg	stimuli_target_squarediamonds.svg	12	yes	53	1	471
6.6.1	win	2022-12-15	08:31:06	08:40:50	582153	5be31629e69dde0001a2fdd3	431163746	1	main_slash	11	advance_on_keypress_SLASH	42	stimuli_distractor_trianglediamonds.svg	stimuli_target_squarediamonds.svg	12	yes	57	0	1626
6.6.1	win	2022-12-15	08:31:06	08:40:53	584992	5be31629e69dde0001a2fdd3	431163746	1	main_slash	11	main_slash	43	stimuli_distractor_diamondtriangles.svg	stimuli_target_squaretriangles.svg	15	yes	53	1	577
6.6.1	win	2022-12-15	08:31:06	08:40:53	584992	5be31629e69dde0001a2fdd3	431163746	1	main_slash	11	advance_on_keypress_SLASH	44	stimuli_distractor_diamondtriangles.svg	stimuli_target_squaretriangles.svg	15	yes	57	0	6579
6.6.1	win	2022-12-15	08:31:06	08:41:00	592576	5be31629e69dde0001a2fdd3	431163746	1	main_slash	11	main_slash	45	stimuli_target_squaretriangles.svg	stimuli_distractor_diamondtriangles.svg	7	yes	53	1	361
6.6.1	win	2022-12-15	08:31:06	08:41:00	592576	5be31629e69dde0001a2fdd3	431163746	1	main_slash	11	advance_on_keypress_SLASH	46	stimuli_target_squaretriangles.svg	stimuli_distractor_diamondtriangles.svg	7	yes	57	0	619
6.6.1	win	2022-12-15	08:31:06	08:41:02	594183	5be31629e69dde0001a2fdd3	431163746	1	main_slash	11	main_slash	47	stimuli_distractor_trianglediamonds.svg	stimuli_target_circletriangles.svg	9	yes	53	1	350
6.6.1	win	2022-12-15	08:31:06	08:41:02	594183	5be31629e69dde0001a2fdd3	431163746	1	main_slash	11	advance_on_keypress_SLASH	48	stimuli_distractor_trianglediamonds.svg	stimuli_target_circletriangles.svg	9	yes	57	0	1522
6.6.1	win	2022-12-15	08:31:06	08:41:05	596835	5be31629e69dde0001a2fdd3	431163746	1	main_slash	11	main_slash	49	stimuli_distractor_trianglediamonds.svg	stimuli_target_squaretriangles.svg	11	yes	53	1	486
6.6.1	win	2022-12-15	08:31:06	08:41:05	596835	5be31629e69dde0001a2fdd3	431163746	1	main_slash	11	advance_on_keypress_SLASH	50	stimuli_distractor_trianglediamonds.svg	stimuli_target_squaretriangles.svg	11	yes	57	0	1266
6.6.1	win	2022-12-15	08:31:06	08:41:07	599166	5be31629e69dde0001a2fdd3	431163746	1	main_slash	11	main_slash	51	stimuli_target_squarediamonds.svg	stimuli_distractor_diamondtriangles.svg	8	yes	53	1	418
6.6.1	win	2022-12-15	08:31:06	08:41:07	599166	5be31629e69dde0001a2fdd3	431163746	1	main_slash	11	advance_on_keypress_SLASH	52	stimuli_target_squarediamonds.svg	stimuli_distractor_diamondtriangles.svg	8	yes	57	0	755
6.6.1	win	2022-12-15	08:31:06	08:41:10	602565	5be31629e69dde0001a2fdd3	431163746	1	main_slash	11	main_slash	53	stimuli_distractor_trianglediamonds.svg	stimuli_target_trianglesquares.svg	26	yes	0	0	2000
6.6.1	win	2022-12-15	08:31:06	08:41:10	602565	5be31629e69dde0001a2fdd3	431163746	1	main_slash	11	advance_on_keypress_SLASH	54	stimuli_distractor_trianglediamonds.svg	stimuli_target_trianglesquares.svg	26	yes	57	0	339
6.6.1	win	2022-12-15	08:31:06	08:41:13	605549	5be31629e69dde0001a2fdd3	431163746	1	main_slash	11	main_slash	55	stimuli_target_diamondcircles.svg	stimuli_distractor_diamondtriangles.svg	23	yes	0	0	2000
6.6.1	win	2022-12-15	08:31:06	08:41:13	605549	5be31629e69dde0001a2fdd3	431163746	1	main_slash	11	advance_on_keypress_SLASH	56	stimuli_target_diamondcircles.svg	stimuli_distractor_diamondtriangles.svg	23	yes	57	0	380
6.6.1	win	2022-12-15	08:31:06	08:41:16	608582	5be31629e69dde0001a2fdd3	431163746	1	main_slash	11	main_slash	57	stimuli_target_trianglesquares.svg	stimuli_distractor_trianglediamonds.svg	18	yes	0	0	2000
6.6.1	win	2022-12-15	08:31:06	08:41:16	608582	5be31629e69dde0001a2fdd3	431163746	1	main_slash	11	advance_on_keypress_SLASH	58	stimuli_target_trianglesquares.svg	stimuli_distractor_trianglediamonds.svg	18	yes	57	0	276
6.6.1	win	2022-12-15	08:31:06	08:41:19	611498	5be31629e69dde0001a2fdd3	431163746	1	main_slash	11	main_slash	59	stimuli_distractor_diamondtriangles.svg	stimuli_distractor_diamondtriangles.svg	39	no	0	1	2000
6.6.1	win	2022-12-15	08:31:06	08:41:19	611498	5be31629e69dde0001a2fdd3	431163746	1	main_slash	11	advance_on_keypress_SLASH	60	stimuli_distractor_diamondtriangles.svg	stimuli_distractor_diamondtriangles.svg	39	no	57	0	440
6.6.1	win	2022-12-15	08:31:06	08:41:22	614582	5be31629e69dde0001a2fdd3	431163746	1	main_slash	11	main_slash	61	stimuli_distractor_diamondtriangles.svg	stimuli_target_trianglecircles.svg	29	yes	0	0	2000
6.6.1	win	2022-12-15	08:31:06	08:41:22	614582	5be31629e69dde0001a2fdd3	431163746	1	main_slash	11	advance_on_keypress_SLASH	62	stimuli_distractor_diamondtriangles.svg	stimuli_target_trianglecircles.svg	29	yes	57	0	121
6.6.1	win	2022-12-15	08:31:06	08:41:25	617348	5be31629e69dde0001a2fdd3	431163746	1	main_slash	11	main_slash	63	stimuli_distractor_trianglediamonds.svg	stimuli_distractor_diamondtriangles.svg	36	no	0	1	2000
6.6.1	win	2022-12-15	08:31:06	08:41:25	617348	5be31629e69dde0001a2fdd3	431163746	1	main_slash	11	advance_on_keypress_SLASH	64	stimuli_distractor_trianglediamonds.svg	stimuli_distractor_diamondtriangles.svg	36	no	57	0	262
6.6.1	win	2022-12-15	08:31:06	08:41:28	620265	5be31629e69dde0001a2fdd3	431163746	1	main_slash	11	main_slash	65	stimuli_distractor_diamondtriangles.svg	stimuli_distractor_trianglediamonds.svg	38	no	0	1	2000
6.6.1	win	2022-12-15	08:31:06	08:41:28	620265	5be31629e69dde0001a2fdd3	431163746	1	main_slash	11	advance_on_keypress_SLASH	66	stimuli_distractor_diamondtriangles.svg	stimuli_distractor_trianglediamonds.svg	38	no	57	0	594
6.6.1	win	2022-12-15	08:31:06	08:41:30	621882	5be31629e69dde0001a2fdd3	431163746	1	main_slash	11	main_slash	67	stimuli_target_squarediamonds.svg	stimuli_distractor_trianglediamonds.svg	4	yes	53	1	385
6.6.1	win	2022-12-15	08:31:06	08:41:30	621882	5be31629e69dde0001a2fdd3	431163746	1	main_slash	11	advance_on_keypress_SLASH	68	stimuli_target_squarediamonds.svg	stimuli_distractor_trianglediamonds.svg	4	yes	57	0	635
6.6.1	win	2022-12-15	08:31:06	08:41:33	625165	5be31629e69dde0001a2fdd3	431163746	1	main_slash	11	main_slash	69	stimuli_target_trianglecircles.svg	stimuli_distractor_trianglediamonds.svg	17	yes	0	0	2000
6.6.1	win	2022-12-15	08:31:06	08:41:33	625165	5be31629e69dde0001a2fdd3	431163746	1	main_slash	11	advance_on_keypress_SLASH	70	stimuli_target_trianglecircles.svg	stimuli_distractor_trianglediamonds.svg	17	yes	57	0	346
6.6.1	win	2022-12-15	08:31:06	08:41:36	628165	5be31629e69dde0001a2fdd3	431163746	1	main_slash	11	main_slash	71	stimuli_distractor_trianglediamonds.svg	stimuli_target_diamondcircles.svg	27	yes	0	0	2000
6.6.1	win	2022-12-15	08:31:06	08:41:36	628165	5be31629e69dde0001a2fdd3	431163746	1	main_slash	11	advance_on_keypress_SLASH	72	stimuli_distractor_trianglediamonds.svg	stimuli_target_diamondcircles.svg	27	yes	57	0	1803
6.6.1	win	2022-12-15	08:31:06	08:41:40	632614	5be31629e69dde0001a2fdd3	431163746	1	main_slash	11	main_slash	73	stimuli_target_diamondsquares.svg	stimuli_distractor_trianglediamonds.svg	20	yes	0	0	2000
6.6.1	win	2022-12-15	08:31:06	08:41:40	632614	5be31629e69dde0001a2fdd3	431163746	1	main_slash	11	advance_on_keypress_SLASH	74	stimuli_target_diamondsquares.svg	stimuli_distractor_trianglediamonds.svg	20	yes	57	0	388
6.6.1	win	2022-12-15	08:31:06	08:41:42	634119	5be31629e69dde0001a2fdd3	431163746	1	main_slash	11	main_slash	75	stimuli_distractor_trianglediamonds.svg	stimuli_target_circlediamonds.svg	10	yes	53	1	470
6.6.1	win	2022-12-15	08:31:06	08:41:42	634119	5be31629e69dde0001a2fdd3	431163746	1	main_slash	11	advance_on_keypress_SLASH	76	stimuli_distractor_trianglediamonds.svg	stimuli_target_circlediamonds.svg	10	yes	57	0	462
6.6.1	win	2022-12-15	08:31:06	08:41:43	635554	5be31629e69dde0001a2fdd3	431163746	1	main_slash	11	main_slash	77	stimuli_distractor_trianglediamonds.svg	stimuli_distractor_diamondtriangles.svg	35	no	53	0	324
6.6.1	win	2022-12-15	08:31:06	08:41:43	635554	5be31629e69dde0001a2fdd3	431163746	1	main_slash	11	advance_on_keypress_SLASH	78	stimuli_distractor_trianglediamonds.svg	stimuli_distractor_diamondtriangles.svg	35	no	57	0	412
6.6.1	win	2022-12-15	08:31:06	08:41:46	638615	5be31629e69dde0001a2fdd3	431163746	1	main_slash	11	main_slash	79	stimuli_target_diamondsquares.svg	stimuli_distractor_diamondtriangles.svg	24	yes	0	0	2000
6.6.1	win	2022-12-15	08:31:06	08:41:46	638615	5be31629e69dde0001a2fdd3	431163746	1	main_slash	11	advance_on_keypress_SLASH	80	stimuli_target_diamondsquares.svg	stimuli_distractor_diamondtriangles.svg	24	yes	57	0	290
6.6.1	win	2022-12-15	08:31:06	08:41:49	641548	5be31629e69dde0001a2fdd3	431163746	1	main_slash	11	main_slash	81	stimuli_distractor_diamondtriangles.svg	stimuli_distractor_diamondtriangles.svg	40	no	0	1	2000
6.6.1	win	2022-12-15	08:31:06	08:41:49	641548	5be31629e69dde0001a2fdd3	431163746	1	main_slash	11	advance_on_keypress_SLASH	82	stimuli_distractor_diamondtriangles.svg	stimuli_distractor_diamondtriangles.svg	40	no	57	0	259
6.6.1	win	2022-12-15	08:31:06	08:41:51	642983	5be31629e69dde0001a2fdd3	431163746	1	main_slash	11	main_slash	83	stimuli_target_squaretriangles.svg	stimuli_distractor_diamondtriangles.svg	7	yes	53	1	536
6.6.1	win	2022-12-15	08:31:06	08:41:51	642983	5be31629e69dde0001a2fdd3	431163746	1	main_slash	11	advance_on_keypress_SLASH	84	stimuli_target_squaretriangles.svg	stimuli_distractor_diamondtriangles.svg	7	yes	57	0	421
6.6.1	win	2022-12-15	08:31:06	08:41:54	646047	5be31629e69dde0001a2fdd3	431163746	1	main_slash	11	main_slash	85	stimuli_target_diamondsquares.svg	stimuli_distractor_trianglediamonds.svg	20	yes	0	0	2000
6.6.1	win	2022-12-15	08:31:06	08:41:54	646047	5be31629e69dde0001a2fdd3	431163746	1	main_slash	11	advance_on_keypress_SLASH	86	stimuli_target_diamondsquares.svg	stimuli_distractor_trianglediamonds.svg	20	yes	57	0	48
6.6.1	win	2022-12-15	08:31:06	08:41:55	647261	5be31629e69dde0001a2fdd3	431163746	1	main_slash	11	main_slash	87	stimuli_distractor_diamondtriangles.svg	stimuli_target_circlediamonds.svg	14	yes	53	1	511
6.6.1	win	2022-12-15	08:31:06	08:41:55	647261	5be31629e69dde0001a2fdd3	431163746	1	main_slash	11	advance_on_keypress_SLASH	88	stimuli_distractor_diamondtriangles.svg	stimuli_target_circlediamonds.svg	14	yes	57	0	395
6.6.1	win	2022-12-15	08:31:06	08:41:58	650315	5be31629e69dde0001a2fdd3	431163746	1	main_slash	11	main_slash	89	stimuli_distractor_trianglediamonds.svg	stimuli_target_trianglecircles.svg	25	yes	0	0	2000
6.6.1	win	2022-12-15	08:31:06	08:41:58	650315	5be31629e69dde0001a2fdd3	431163746	1	main_slash	11	advance_on_keypress_SLASH	90	stimuli_distractor_trianglediamonds.svg	stimuli_target_trianglecircles.svg	25	yes	57	0	323
6.6.1	win	2022-12-15	08:31:06	08:42:01	653281	5be31629e69dde0001a2fdd3	431163746	1	main_slash	11	main_slash	91	stimuli_distractor_trianglediamonds.svg	stimuli_target_diamondcircles.svg	27	yes	0	0	2000
6.6.1	win	2022-12-15	08:31:06	08:42:01	653281	5be31629e69dde0001a2fdd3	431163746	1	main_slash	11	advance_on_keypress_SLASH	92	stimuli_distractor_trianglediamonds.svg	stimuli_target_diamondcircles.svg	27	yes	57	0	576
6.6.1	win	2022-12-15	08:31:06	08:42:03	655036	5be31629e69dde0001a2fdd3	431163746	1	main_slash	11	main_slash	93	stimuli_target_squarediamonds.svg	stimuli_distractor_diamondtriangles.svg	8	yes	53	1	539
6.6.1	win	2022-12-15	08:31:06	08:42:03	655036	5be31629e69dde0001a2fdd3	431163746	1	main_slash	11	advance_on_keypress_SLASH	94	stimuli_target_squarediamonds.svg	stimuli_distractor_diamondtriangles.svg	8	yes	57	0	382
6.6.1	win	2022-12-15	08:31:06	08:42:06	658064	5be31629e69dde0001a2fdd3	431163746	1	main_slash	11	main_slash	95	stimuli_distractor_diamondtriangles.svg	stimuli_target_diamondcircles.svg	31	yes	0	0	2000
6.6.1	win	2022-12-15	08:31:06	08:42:06	658064	5be31629e69dde0001a2fdd3	431163746	1	main_slash	11	advance_on_keypress_SLASH	96	stimuli_distractor_diamondtriangles.svg	stimuli_target_diamondcircles.svg	31	yes	57	0	293
6.6.1	win	2022-12-15	08:31:06	08:42:09	660997	5be31629e69dde0001a2fdd3	431163746	1	main_slash	11	main_slash	97	stimuli_target_trianglecircles.svg	stimuli_distractor_trianglediamonds.svg	17	yes	0	0	2000
6.6.1	win	2022-12-15	08:31:06	08:42:09	660997	5be31629e69dde0001a2fdd3	431163746	1	main_slash	11	advance_on_keypress_SLASH	98	stimuli_target_trianglecircles.svg	stimuli_distractor_trianglediamonds.svg	17	yes	57	0	292
6.6.1	win	2022-12-15	08:31:06	08:42:12	663930	5be31629e69dde0001a2fdd3	431163746	1	main_slash	11	main_slash	99	stimuli_distractor_trianglediamonds.svg	stimuli_distractor_trianglediamonds.svg	34	no	0	1	2000
6.6.1	win	2022-12-15	08:31:06	08:42:12	663930	5be31629e69dde0001a2fdd3	431163746	1	main_slash	11	advance_on_keypress_SLASH	100	stimuli_distractor_trianglediamonds.svg	stimuli_distractor_trianglediamonds.svg	34	no	57	0	284
6.6.1	win	2022-12-15	08:31:06	08:42:13	665436	5be31629e69dde0001a2fdd3	431163746	1	main_slash	11	main_slash	101	stimuli_distractor_diamondtriangles.svg	stimuli_target_squaretriangles.svg	15	yes	53	1	572
6.6.1	win	2022-12-15	08:31:06	08:42:13	665436	5be31629e69dde0001a2fdd3	431163746	1	main_slash	11	advance_on_keypress_SLASH	102	stimuli_distractor_diamondtriangles.svg	stimuli_target_squaretriangles.svg	15	yes	57	0	998
6.6.1	win	2022-12-15	08:31:06	08:42:17	669080	5be31629e69dde0001a2fdd3	431163746	1	main_slash	11	main_slash	103	stimuli_target_squarediamonds.svg	stimuli_distractor_trianglediamonds.svg	4	yes	0	0	2000
6.6.1	win	2022-12-15	08:31:06	08:42:17	669080	5be31629e69dde0001a2fdd3	431163746	1	main_slash	11	advance_on_keypress_SLASH	104	stimuli_target_squarediamonds.svg	stimuli_distractor_trianglediamonds.svg	4	yes	57	0	2333
6.6.1	win	2022-12-15	08:31:06	08:42:20	672354	5be31629e69dde0001a2fdd3	431163746	1	main_slash	11	main_slash	105	stimuli_target_diamondcircles.svg	stimuli_distractor_trianglediamonds.svg	19	yes	53	1	291
6.6.1	win	2022-12-15	08:31:06	08:42:20	672354	5be31629e69dde0001a2fdd3	431163746	1	main_slash	11	advance_on_keypress_SLASH	106	stimuli_target_diamondcircles.svg	stimuli_distractor_trianglediamonds.svg	19	yes	57	0	1155
6.6.1	win	2022-12-15	08:31:06	08:42:22	674527	5be31629e69dde0001a2fdd3	431163746	1	main_slash	11	main_slash	107	stimuli_target_circlediamonds.svg	stimuli_distractor_diamondtriangles.svg	6	yes	53	1	379
6.6.1	win	2022-12-15	08:31:06	08:42:22	674527	5be31629e69dde0001a2fdd3	431163746	1	main_slash	11	advance_on_keypress_SLASH	108	stimuli_target_circlediamonds.svg	stimuli_distractor_diamondtriangles.svg	6	yes	57	0	503
6.6.1	win	2022-12-15	08:31:06	08:42:25	677680	5be31629e69dde0001a2fdd3	431163746	1	main_slash	11	main_slash	109	stimuli_distractor_diamondtriangles.svg	stimuli_distractor_trianglediamonds.svg	38	no	0	1	2000
6.6.1	win	2022-12-15	08:31:06	08:42:25	677680	5be31629e69dde0001a2fdd3	431163746	1	main_slash	11	advance_on_keypress_SLASH	110	stimuli_distractor_diamondtriangles.svg	stimuli_distractor_trianglediamonds.svg	38	no	57	0	473
6.6.1	win	2022-12-15	08:31:06	08:42:27	679120	5be31629e69dde0001a2fdd3	431163746	1	main_slash	11	main_slash	111	stimuli_distractor_trianglediamonds.svg	stimuli_target_trianglesquares.svg	26	yes	53	1	324
6.6.1	win	2022-12-15	08:31:06	08:42:27	679120	5be31629e69dde0001a2fdd3	431163746	1	main_slash	11	advance_on_keypress_SLASH	112	stimuli_distractor_trianglediamonds.svg	stimuli_target_trianglesquares.svg	26	yes	57	0	439
6.6.1	win	2022-12-15	08:31:06	08:42:30	682197	5be31629e69dde0001a2fdd3	431163746	1	main_slash	11	main_slash	113	stimuli_distractor_trianglediamonds.svg	stimuli_distractor_diamondtriangles.svg	35	no	0	1	2000
6.6.1	win	2022-12-15	08:31:06	08:42:30	682197	5be31629e69dde0001a2fdd3	431163746	1	main_slash	11	advance_on_keypress_SLASH	114	stimuli_distractor_trianglediamonds.svg	stimuli_distractor_diamondtriangles.svg	35	no	57	0	414
6.6.1	win	2022-12-15	08:31:06	08:42:33	685263	5be31629e69dde0001a2fdd3	431163746	1	main_slash	11	main_slash	115	stimuli_target_diamondsquares.svg	stimuli_distractor_diamondtriangles.svg	24	yes	0	0	2000
6.6.1	win	2022-12-15	08:31:06	08:42:33	685263	5be31629e69dde0001a2fdd3	431163746	1	main_slash	11	advance_on_keypress_SLASH	116	stimuli_target_diamondsquares.svg	stimuli_distractor_diamondtriangles.svg	24	yes	57	0	458
6.6.1	win	2022-12-15	08:31:06	08:42:36	688363	5be31629e69dde0001a2fdd3	431163746	1	main_slash	11	main_slash	117	stimuli_target_trianglecircles.svg	stimuli_distractor_diamondtriangles.svg	21	yes	0	0	2000
6.6.1	win	2022-12-15	08:31:06	08:42:36	688363	5be31629e69dde0001a2fdd3	431163746	1	main_slash	11	advance_on_keypress_SLASH	118	stimuli_target_trianglecircles.svg	stimuli_distractor_diamondtriangles.svg	21	yes	57	0	371
6.6.1	win	2022-12-15	08:31:06	08:42:39	691380	5be31629e69dde0001a2fdd3	431163746	1	main_slash	11	main_slash	119	stimuli_target_diamondcircles.svg	stimuli_distractor_diamondtriangles.svg	23	yes	0	0	2000
6.6.1	win	2022-12-15	08:31:06	08:42:39	691380	5be31629e69dde0001a2fdd3	431163746	1	main_slash	11	advance_on_keypress_SLASH	120	stimuli_target_diamondcircles.svg	stimuli_distractor_diamondtriangles.svg	23	yes	57	0	406
6.6.1	win	2022-12-15	08:31:06	08:42:42	694430	5be31629e69dde0001a2fdd3	431163746	1	main_slash	11	main_slash	121	stimuli_target_trianglesquares.svg	stimuli_distractor_diamondtriangles.svg	22	yes	0	0	2000
6.6.1	win	2022-12-15	08:31:06	08:42:42	694430	5be31629e69dde0001a2fdd3	431163746	1	main_slash	11	advance_on_keypress_SLASH	122	stimuli_target_trianglesquares.svg	stimuli_distractor_diamondtriangles.svg	22	yes	57	0	393
6.6.1	win	2022-12-15	08:31:06	08:42:44	696003	5be31629e69dde0001a2fdd3	431163746	1	main_slash	11	main_slash	123	stimuli_distractor_trianglediamonds.svg	stimuli_target_circlediamonds.svg	10	yes	53	1	540
6.6.1	win	2022-12-15	08:31:06	08:42:44	696003	5be31629e69dde0001a2fdd3	431163746	1	main_slash	11	advance_on_keypress_SLASH	124	stimuli_distractor_trianglediamonds.svg	stimuli_target_circlediamonds.svg	10	yes	57	0	420
6.6.1	win	2022-12-15	08:31:06	08:42:45	697415	5be31629e69dde0001a2fdd3	431163746	1	main_slash	11	main_slash	125	stimuli_target_circlediamonds.svg	stimuli_distractor_trianglediamonds.svg	2	yes	53	1	352
6.6.1	win	2022-12-15	08:31:06	08:42:45	697415	5be31629e69dde0001a2fdd3	431163746	1	main_slash	11	advance_on_keypress_SLASH	126	stimuli_target_circlediamonds.svg	stimuli_distractor_trianglediamonds.svg	2	yes	57	0	355
6.6.1	win	2022-12-15	08:31:06	08:42:47	698739	5be31629e69dde0001a2fdd3	431163746	1	main_slash	11	main_slash	127	stimuli_distractor_diamondtriangles.svg	stimuli_distractor_trianglediamonds.svg	37	no	53	0	326
6.6.1	win	2022-12-15	08:31:06	08:42:47	698739	5be31629e69dde0001a2fdd3	431163746	1	main_slash	11	advance_on_keypress_SLASH	128	stimuli_distractor_diamondtriangles.svg	stimuli_distractor_trianglediamonds.svg	37	no	57	0	426
6.6.1	win	2022-12-15	08:31:06	08:42:50	701796	5be31629e69dde0001a2fdd3	431163746	1	main_slash	11	main_slash	129	stimuli_distractor_diamondtriangles.svg	stimuli_target_trianglesquares.svg	30	yes	0	0	2000
6.6.1	win	2022-12-15	08:31:06	08:42:50	701796	5be31629e69dde0001a2fdd3	431163746	1	main_slash	11	advance_on_keypress_SLASH	130	stimuli_distractor_diamondtriangles.svg	stimuli_target_trianglesquares.svg	30	yes	57	0	359
6.6.1	win	2022-12-15	08:31:06	08:42:51	703156	5be31629e69dde0001a2fdd3	431163746	1	main_slash	11	main_slash	131	stimuli_target_circletriangles.svg	stimuli_distractor_diamondtriangles.svg	5	yes	53	1	360
6.6.1	win	2022-12-15	08:31:06	08:42:51	703156	5be31629e69dde0001a2fdd3	431163746	1	main_slash	11	advance_on_keypress_SLASH	132	stimuli_target_circletriangles.svg	stimuli_distractor_diamondtriangles.svg	5	yes	57	0	403
6.6.1	win	2022-12-15	08:31:06	08:42:54	706197	5be31629e69dde0001a2fdd3	431163746	1	main_slash	11	main_slash	133	stimuli_distractor_diamondtriangles.svg	stimuli_target_diamondsquares.svg	32	yes	0	0	2000
6.6.1	win	2022-12-15	08:31:06	08:42:54	706197	5be31629e69dde0001a2fdd3	431163746	1	main_slash	11	advance_on_keypress_SLASH	134	stimuli_distractor_diamondtriangles.svg	stimuli_target_diamondsquares.svg	32	yes	57	0	311
6.6.1	win	2022-12-15	08:31:06	08:42:57	709146	5be31629e69dde0001a2fdd3	431163746	1	main_slash	11	main_slash	135	stimuli_distractor_diamondtriangles.svg	stimuli_target_trianglecircles.svg	29	yes	0	0	2000
6.6.1	win	2022-12-15	08:31:06	08:42:57	709146	5be31629e69dde0001a2fdd3	431163746	1	main_slash	11	advance_on_keypress_SLASH	136	stimuli_distractor_diamondtriangles.svg	stimuli_target_trianglecircles.svg	29	yes	57	0	75
6.6.1	win	2022-12-15	08:31:06	08:42:58	710311	5be31629e69dde0001a2fdd3	431163746	1	main_slash	11	main_slash	137	stimuli_target_circletriangles.svg	stimuli_distractor_trianglediamonds.svg	1	yes	53	1	447
6.6.1	win	2022-12-15	08:31:06	08:42:58	710311	5be31629e69dde0001a2fdd3	431163746	1	main_slash	11	advance_on_keypress_SLASH	138	stimuli_target_circletriangles.svg	stimuli_distractor_trianglediamonds.svg	1	yes	57	0	392
6.6.1	win	2022-12-15	08:31:06	08:43:01	713346	5be31629e69dde0001a2fdd3	431163746	1	main_slash	11	main_slash	139	stimuli_distractor_trianglediamonds.svg	stimuli_distractor_diamondtriangles.svg	36	no	0	1	2000
6.6.1	win	2022-12-15	08:31:06	08:43:01	713346	5be31629e69dde0001a2fdd3	431163746	1	main_slash	11	advance_on_keypress_SLASH	140	stimuli_distractor_trianglediamonds.svg	stimuli_distractor_diamondtriangles.svg	36	no	57	0	328
6.6.1	win	2022-12-15	08:31:06	08:43:03	714776	5be31629e69dde0001a2fdd3	431163746	1	main_slash	11	main_slash	141	stimuli_distractor_trianglediamonds.svg	stimuli_target_circletriangles.svg	9	yes	53	1	464
6.6.1	win	2022-12-15	08:31:06	08:43:03	714776	5be31629e69dde0001a2fdd3	431163746	1	main_slash	11	advance_on_keypress_SLASH	142	stimuli_distractor_trianglediamonds.svg	stimuli_target_circletriangles.svg	9	yes	57	0	487
6.6.1	win	2022-12-15	08:31:06	08:43:04	716408	5be31629e69dde0001a2fdd3	431163746	1	main_slash	11	main_slash	143	stimuli_target_squaretriangles.svg	stimuli_distractor_trianglediamonds.svg	3	yes	53	1	495
6.6.1	win	2022-12-15	08:31:06	08:43:04	716408	5be31629e69dde0001a2fdd3	431163746	1	main_slash	11	advance_on_keypress_SLASH	144	stimuli_target_squaretriangles.svg	stimuli_distractor_trianglediamonds.svg	3	yes	57	0	377
6.6.1	win	2022-12-15	08:31:06	08:43:06	717766	5be31629e69dde0001a2fdd3	431163746	1	main_slash	11	main_slash	145	stimuli_distractor_diamondtriangles.svg	stimuli_target_circletriangles.svg	13	yes	53	1	337
6.6.1	win	2022-12-15	08:31:06	08:43:06	717766	5be31629e69dde0001a2fdd3	431163746	1	main_slash	11	advance_on_keypress_SLASH	146	stimuli_distractor_diamondtriangles.svg	stimuli_target_circletriangles.svg	13	yes	57	0	326
6.6.1	win	2022-12-15	08:31:06	08:43:07	719132	5be31629e69dde0001a2fdd3	431163746	1	main_slash	11	main_slash	147	stimuli_distractor_trianglediamonds.svg	stimuli_target_squarediamonds.svg	12	yes	53	1	403
6.6.1	win	2022-12-15	08:31:06	08:43:07	719132	5be31629e69dde0001a2fdd3	431163746	1	main_slash	11	advance_on_keypress_SLASH	148	stimuli_distractor_trianglediamonds.svg	stimuli_target_squarediamonds.svg	12	yes	57	0	328
6.6.1	win	2022-12-15	08:31:06	08:43:08	720420	5be31629e69dde0001a2fdd3	431163746	1	main_slash	11	main_slash	149	stimuli_distractor_diamondtriangles.svg	stimuli_target_squarediamonds.svg	16	yes	53	1	324
6.6.1	win	2022-12-15	08:31:06	08:43:08	720420	5be31629e69dde0001a2fdd3	431163746	1	main_slash	11	advance_on_keypress_SLASH	150	stimuli_distractor_diamondtriangles.svg	stimuli_target_squarediamonds.svg	16	yes	57	0	293
6.6.1	win	2022-12-15	08:31:06	08:43:09	721634	5be31629e69dde0001a2fdd3	431163746	1	main_slash	11	main_slash	151	stimuli_distractor_trianglediamonds.svg	stimuli_target_squaretriangles.svg	11	yes	53	1	272
6.6.1	win	2022-12-15	08:31:06	08:43:09	721634	5be31629e69dde0001a2fdd3	431163746	1	main_slash	11	advance_on_keypress_SLASH	152	stimuli_distractor_trianglediamonds.svg	stimuli_target_squaretriangles.svg	11	yes	57	0	328
6.6.1	win	2022-12-15	08:31:06	08:43:11	722936	5be31629e69dde0001a2fdd3	431163746	1	main_slash	11	main_slash	153	stimuli_distractor_trianglediamonds.svg	stimuli_distractor_trianglediamonds.svg	33	no	53	0	324
6.6.1	win	2022-12-15	08:31:06	08:43:11	722936	5be31629e69dde0001a2fdd3	431163746	1	main_slash	11	advance_on_keypress_SLASH	154	stimuli_distractor_trianglediamonds.svg	stimuli_distractor_trianglediamonds.svg	33	no	57	0	455
6.6.1	win	2022-12-15	08:31:06	08:43:14	726029	5be31629e69dde0001a2fdd3	431163746	1	main_slash	11	main_slash	155	stimuli_distractor_trianglediamonds.svg	stimuli_target_diamondsquares.svg	28	yes	0	0	2000
6.6.1	win	2022-12-15	08:31:06	08:43:14	726029	5be31629e69dde0001a2fdd3	431163746	1	main_slash	11	advance_on_keypress_SLASH	156	stimuli_distractor_trianglediamonds.svg	stimuli_target_diamondsquares.svg	28	yes	57	0	6299
6.6.1	win	2022-12-15	08:31:06	08:43:23	734979	5be31629e69dde0001a2fdd3	431163746	1	main_slash	11	main_slash	157	stimuli_target_trianglesquares.svg	stimuli_distractor_trianglediamonds.svg	18	yes	0	0	2000
6.6.1	win	2022-12-15	08:31:06	08:43:23	734979	5be31629e69dde0001a2fdd3	431163746	1	main_slash	11	advance_on_keypress_SLASH	158	stimuli_target_trianglesquares.svg	stimuli_distractor_trianglediamonds.svg	18	yes	57	0	443
6.6.1	win	2022-12-15	08:31:06	08:43:26	738062	5be31629e69dde0001a2fdd3	431163746	1	main_slash	11	main_slash	159	stimuli_distractor_diamondtriangles.svg	stimuli_distractor_diamondtriangles.svg	39	no	0	1	2000
6.6.1	win	2022-12-15	08:31:06	08:43:26	738062	5be31629e69dde0001a2fdd3	431163746	1	main_slash	11	advance_on_keypress_SLASH	160	stimuli_distractor_diamondtriangles.svg	stimuli_distractor_diamondtriangles.svg	39	no	57	0	531