build	computer.platform	date	time	timestamp	time_elapsed_ms	subject	group	session	blockcode	blocknum	trialcode	trialnum	stimulus_left	stimulus_right	stim_index	target_present	response	correct	latency
6.6.1	win	2022-12-14	11:47:35	11:50:27	171945	594a964c215cbd000146de75	201782412	1	practice_z	5	practice_z	1	stimuli_target_squarediamonds.svg	stimuli_distractor_diamondtriangles.svg	2	yes	44	1	524
6.6.1	win	2022-12-14	11:47:35	11:50:27	171945	594a964c215cbd000146de75	201782412	1	practice_z	5	advance_on_keypress_ZEE	2	stimuli_target_squarediamonds.svg	stimuli_distractor_diamondtriangles.svg	2	yes	57	0	2111
6.6.1	win	2022-12-14	11:47:35	11:50:32	176128	594a964c215cbd000146de75	201782412	1	practice_z	5	practice_z	3	stimuli_target_squarediamonds.svg	stimuli_distractor_trianglediamonds.svg	5	yes	44	1	424
6.6.1	win	2022-12-14	11:47:35	11:50:32	176128	594a964c215cbd000146de75	201782412	1	practice_z	5	advance_on_keypress_ZEE	4	stimuli_target_squarediamonds.svg	stimuli_distractor_trianglediamonds.svg	5	yes	57	0	791
6.6.1	win	2022-12-14	11:47:35	11:50:36	180555	594a964c215cbd000146de75	201782412	1	practice_z	5	practice_z	5	stimuli_distractor_trianglediamonds.svg	stimuli_distractor_trianglediamonds.svg	15	no	0	1	2000
6.6.1	win	2022-12-14	11:47:35	11:50:36	180555	594a964c215cbd000146de75	201782412	1	practice_z	5	advance_on_keypress_ZEE	6	stimuli_distractor_trianglediamonds.svg	stimuli_distractor_trianglediamonds.svg	15	no	57	0	925
6.6.1	win	2022-12-14	11:47:35	11:50:39	183569	594a964c215cbd000146de75	201782412	1	practice_z	5	practice_z	7	stimuli_distractor_trianglediamonds.svg	stimuli_target_circlediamonds.svg	10	yes	44	1	447
6.6.1	win	2022-12-14	11:47:35	11:50:39	183569	594a964c215cbd000146de75	201782412	1	practice_z	5	advance_on_keypress_ZEE	8	stimuli_distractor_trianglediamonds.svg	stimuli_target_circlediamonds.svg	10	yes	57	0	892
6.6.1	win	2022-12-14	11:47:35	11:50:42	186657	594a964c215cbd000146de75	201782412	1	practice_z	5	practice_z	9	stimuli_distractor_trianglediamonds.svg	stimuli_target_squarediamonds.svg	11	yes	44	1	552
6.6.1	win	2022-12-14	11:47:35	11:50:42	186657	594a964c215cbd000146de75	201782412	1	practice_z	5	advance_on_keypress_ZEE	10	stimuli_distractor_trianglediamonds.svg	stimuli_target_squarediamonds.svg	11	yes	57	0	617
6.6.1	win	2022-12-14	11:47:35	11:50:45	189377	594a964c215cbd000146de75	201782412	1	practice_z	5	practice_z	11	stimuli_distractor_diamondtriangles.svg	stimuli_target_circletriangles.svg	7	yes	44	1	455
6.6.1	win	2022-12-14	11:47:35	11:50:45	189377	594a964c215cbd000146de75	201782412	1	practice_z	5	advance_on_keypress_ZEE	12	stimuli_distractor_diamondtriangles.svg	stimuli_target_circletriangles.svg	7	yes	57	0	668
6.6.1	win	2022-12-14	11:47:35	11:50:48	192137	594a964c215cbd000146de75	201782412	1	practice_z	5	practice_z	13	stimuli_target_circlediamonds.svg	stimuli_distractor_diamondtriangles.svg	1	yes	44	1	448
6.6.1	win	2022-12-14	11:47:35	11:50:48	192137	594a964c215cbd000146de75	201782412	1	practice_z	5	advance_on_keypress_ZEE	14	stimuli_target_circlediamonds.svg	stimuli_distractor_diamondtriangles.svg	1	yes	57	0	885
6.6.1	win	2022-12-14	11:47:35	11:50:52	196672	594a964c215cbd000146de75	201782412	1	practice_z	5	practice_z	15	stimuli_distractor_diamondtriangles.svg	stimuli_target_trianglecircles.svg	9	yes	0	0	2000
6.6.1	win	2022-12-14	11:47:35	11:50:52	196672	594a964c215cbd000146de75	201782412	1	practice_z	5	advance_on_keypress_ZEE	16	stimuli_distractor_diamondtriangles.svg	stimuli_target_trianglecircles.svg	9	yes	57	0	856
6.6.1	win	2022-12-14	11:47:35	11:50:57	201172	594a964c215cbd000146de75	201782412	1	practice_z	5	practice_z	17	stimuli_distractor_diamondtriangles.svg	stimuli_distractor_trianglediamonds.svg	14	no	0	1	2000
6.6.1	win	2022-12-14	11:47:35	11:50:57	201172	594a964c215cbd000146de75	201782412	1	practice_z	5	advance_on_keypress_ZEE	18	stimuli_distractor_diamondtriangles.svg	stimuli_distractor_trianglediamonds.svg	14	no	57	0	716
6.6.1	win	2022-12-14	11:47:35	11:51:01	205539	594a964c215cbd000146de75	201782412	1	practice_z	5	practice_z	19	stimuli_distractor_trianglediamonds.svg	stimuli_distractor_diamondtriangles.svg	16	no	0	1	2000
6.6.1	win	2022-12-14	11:47:35	11:51:01	205539	594a964c215cbd000146de75	201782412	1	practice_z	5	advance_on_keypress_ZEE	20	stimuli_distractor_trianglediamonds.svg	stimuli_distractor_diamondtriangles.svg	16	no	57	0	597
6.6.1	win	2022-12-14	11:47:35	11:51:05	209790	594a964c215cbd000146de75	201782412	1	practice_z	5	practice_z	21	stimuli_distractor_diamondtriangles.svg	stimuli_distractor_diamondtriangles.svg	13	no	0	1	2000
6.6.1	win	2022-12-14	11:47:35	11:51:05	209790	594a964c215cbd000146de75	201782412	1	practice_z	5	advance_on_keypress_ZEE	22	stimuli_distractor_diamondtriangles.svg	stimuli_distractor_diamondtriangles.svg	13	no	57	0	730
6.6.1	win	2022-12-14	11:47:35	11:51:10	214173	594a964c215cbd000146de75	201782412	1	practice_z	5	practice_z	23	stimuli_distractor_trianglediamonds.svg	stimuli_target_diamondcircles.svg	12	yes	0	0	2000
6.6.1	win	2022-12-14	11:47:35	11:51:10	214173	594a964c215cbd000146de75	201782412	1	practice_z	5	advance_on_keypress_ZEE	24	stimuli_distractor_trianglediamonds.svg	stimuli_target_diamondcircles.svg	12	yes	57	0	531
6.6.1	win	2022-12-14	11:47:35	11:51:14	218357	594a964c215cbd000146de75	201782412	1	practice_z	5	practice_z	25	stimuli_distractor_diamondtriangles.svg	stimuli_target_diamondcircles.svg	8	yes	0	0	2000
6.6.1	win	2022-12-14	11:47:35	11:51:14	218357	594a964c215cbd000146de75	201782412	1	practice_z	5	advance_on_keypress_ZEE	26	stimuli_distractor_diamondtriangles.svg	stimuli_target_diamondcircles.svg	8	yes	57	0	531
6.6.1	win	2022-12-14	11:47:35	11:51:17	221096	594a964c215cbd000146de75	201782412	1	practice_z	5	practice_z	27	stimuli_target_diamondsquares.svg	stimuli_distractor_trianglediamonds.svg	6	yes	44	1	557
6.6.1	win	2022-12-14	11:47:35	11:51:17	221096	594a964c215cbd000146de75	201782412	1	practice_z	5	advance_on_keypress_ZEE	28	stimuli_target_diamondsquares.svg	stimuli_distractor_trianglediamonds.svg	6	yes	57	0	742
6.6.1	win	2022-12-14	11:47:35	11:51:21	225474	594a964c215cbd000146de75	201782412	1	practice_z	5	practice_z	29	stimuli_target_circlediamonds.svg	stimuli_distractor_trianglediamonds.svg	4	yes	0	0	2000
6.6.1	win	2022-12-14	11:47:35	11:51:21	225474	594a964c215cbd000146de75	201782412	1	practice_z	5	advance_on_keypress_ZEE	30	stimuli_target_circlediamonds.svg	stimuli_distractor_trianglediamonds.svg	4	yes	57	0	670
6.6.1	win	2022-12-14	11:47:35	11:51:24	228680	594a964c215cbd000146de75	201782412	1	practice_z	5	practice_z	31	stimuli_target_diamondsquares.svg	stimuli_distractor_diamondtriangles.svg	3	yes	44	1	890
6.6.1	win	2022-12-14	11:47:35	11:51:24	228680	594a964c215cbd000146de75	201782412	1	practice_z	5	advance_on_keypress_ZEE	32	stimuli_target_diamondsquares.svg	stimuli_distractor_diamondtriangles.svg	3	yes	57	0	542
6.6.1	win	2022-12-14	11:47:35	11:51:33	237335	594a964c215cbd000146de75	201782412	1	main_z	7	main_z	1	stimuli_target_trianglecircles.svg	stimuli_distractor_diamondtriangles.svg	21	yes	44	1	496
6.6.1	win	2022-12-14	11:47:35	11:51:33	237335	594a964c215cbd000146de75	201782412	1	main_z	7	advance_on_keypress_ZEE	2	stimuli_target_trianglecircles.svg	stimuli_distractor_diamondtriangles.svg	21	yes	57	0	1091
6.6.1	win	2022-12-14	11:47:35	11:51:36	241073	594a964c215cbd000146de75	201782412	1	main_z	7	main_z	3	stimuli_distractor_diamondtriangles.svg	stimuli_target_trianglecircles.svg	29	yes	0	0	2000
6.6.1	win	2022-12-14	11:47:35	11:51:36	241073	594a964c215cbd000146de75	201782412	1	main_z	7	advance_on_keypress_ZEE	4	stimuli_distractor_diamondtriangles.svg	stimuli_target_trianglecircles.svg	29	yes	57	0	750
6.6.1	win	2022-12-14	11:47:35	11:51:40	244473	594a964c215cbd000146de75	201782412	1	main_z	7	main_z	5	stimuli_distractor_diamondtriangles.svg	stimuli_distractor_diamondtriangles.svg	40	no	0	1	2000
6.6.1	win	2022-12-14	11:47:35	11:51:40	244473	594a964c215cbd000146de75	201782412	1	main_z	7	advance_on_keypress_ZEE	6	stimuli_distractor_diamondtriangles.svg	stimuli_distractor_diamondtriangles.svg	40	no	57	0	477
6.6.1	win	2022-12-14	11:47:35	11:51:41	245999	594a964c215cbd000146de75	201782412	1	main_z	7	main_z	7	stimuli_distractor_trianglediamonds.svg	stimuli_target_circletriangles.svg	9	yes	44	1	409
6.6.1	win	2022-12-14	11:47:35	11:51:41	245999	594a964c215cbd000146de75	201782412	1	main_z	7	advance_on_keypress_ZEE	8	stimuli_distractor_trianglediamonds.svg	stimuli_target_circletriangles.svg	9	yes	57	0	810
6.6.1	win	2022-12-14	11:47:35	11:51:44	248103	594a964c215cbd000146de75	201782412	1	main_z	7	main_z	9	stimuli_distractor_diamondtriangles.svg	stimuli_target_trianglesquares.svg	30	yes	44	1	663
6.6.1	win	2022-12-14	11:47:35	11:51:44	248103	594a964c215cbd000146de75	201782412	1	main_z	7	advance_on_keypress_ZEE	10	stimuli_distractor_diamondtriangles.svg	stimuli_target_trianglesquares.svg	30	yes	57	0	693
6.6.1	win	2022-12-14	11:47:35	11:51:45	250087	594a964c215cbd000146de75	201782412	1	main_z	7	main_z	11	stimuli_distractor_trianglediamonds.svg	stimuli_target_diamondcircles.svg	27	yes	44	1	664
6.6.1	win	2022-12-14	11:47:35	11:51:45	250087	594a964c215cbd000146de75	201782412	1	main_z	7	advance_on_keypress_ZEE	12	stimuli_distractor_trianglediamonds.svg	stimuli_target_diamondcircles.svg	27	yes	57	0	596
6.6.1	win	2022-12-14	11:47:35	11:51:49	253323	594a964c215cbd000146de75	201782412	1	main_z	7	main_z	13	stimuli_distractor_diamondtriangles.svg	stimuli_distractor_diamondtriangles.svg	39	no	0	1	2000
6.6.1	win	2022-12-14	11:47:35	11:51:49	253323	594a964c215cbd000146de75	201782412	1	main_z	7	advance_on_keypress_ZEE	14	stimuli_distractor_diamondtriangles.svg	stimuli_distractor_diamondtriangles.svg	39	no	57	0	867
6.6.1	win	2022-12-14	11:47:35	11:51:52	256840	594a964c215cbd000146de75	201782412	1	main_z	7	main_z	15	stimuli_distractor_diamondtriangles.svg	stimuli_distractor_trianglediamonds.svg	38	no	0	1	2000
6.6.1	win	2022-12-14	11:47:35	11:51:52	256840	594a964c215cbd000146de75	201782412	1	main_z	7	advance_on_keypress_ZEE	16	stimuli_distractor_diamondtriangles.svg	stimuli_distractor_trianglediamonds.svg	38	no	57	0	790
6.6.1	win	2022-12-14	11:47:35	11:51:54	258735	594a964c215cbd000146de75	201782412	1	main_z	7	main_z	17	stimuli_distractor_diamondtriangles.svg	stimuli_target_circlediamonds.svg	14	yes	44	1	461
6.6.1	win	2022-12-14	11:47:35	11:51:54	258735	594a964c215cbd000146de75	201782412	1	main_z	7	advance_on_keypress_ZEE	18	stimuli_distractor_diamondtriangles.svg	stimuli_target_circlediamonds.svg	14	yes	57	0	667
6.6.1	win	2022-12-14	11:47:35	11:51:56	260631	594a964c215cbd000146de75	201782412	1	main_z	7	main_z	19	stimuli_target_squarediamonds.svg	stimuli_distractor_diamondtriangles.svg	8	yes	44	1	591
6.6.1	win	2022-12-14	11:47:35	11:51:56	260631	594a964c215cbd000146de75	201782412	1	main_z	7	advance_on_keypress_ZEE	20	stimuli_target_squarediamonds.svg	stimuli_distractor_diamondtriangles.svg	8	yes	57	0	511
6.6.1	win	2022-12-14	11:47:35	11:51:58	262399	594a964c215cbd000146de75	201782412	1	main_z	7	main_z	21	stimuli_target_trianglesquares.svg	stimuli_distractor_diamondtriangles.svg	22	yes	44	1	625
6.6.1	win	2022-12-14	11:47:35	11:51:58	262399	594a964c215cbd000146de75	201782412	1	main_z	7	advance_on_keypress_ZEE	22	stimuli_target_trianglesquares.svg	stimuli_distractor_diamondtriangles.svg	22	yes	57	0	552
6.6.1	win	2022-12-14	11:47:35	11:52:00	264151	594a964c215cbd000146de75	201782412	1	main_z	7	main_z	23	stimuli_distractor_trianglediamonds.svg	stimuli_target_squaretriangles.svg	11	yes	44	1	560
6.6.1	win	2022-12-14	11:47:35	11:52:00	264151	594a964c215cbd000146de75	201782412	1	main_z	7	advance_on_keypress_ZEE	24	stimuli_distractor_trianglediamonds.svg	stimuli_target_squaretriangles.svg	11	yes	57	0	418
6.6.1	win	2022-12-14	11:47:35	11:52:01	265751	594a964c215cbd000146de75	201782412	1	main_z	7	main_z	25	stimuli_target_trianglesquares.svg	stimuli_distractor_trianglediamonds.svg	18	yes	44	1	544
6.6.1	win	2022-12-14	11:47:35	11:52:01	265751	594a964c215cbd000146de75	201782412	1	main_z	7	advance_on_keypress_ZEE	26	stimuli_target_trianglesquares.svg	stimuli_distractor_trianglediamonds.svg	18	yes	57	0	410
6.6.1	win	2022-12-14	11:47:35	11:52:03	267424	594a964c215cbd000146de75	201782412	1	main_z	7	main_z	27	stimuli_distractor_diamondtriangles.svg	stimuli_target_circletriangles.svg	13	yes	44	1	632
6.6.1	win	2022-12-14	11:47:35	11:52:03	267424	594a964c215cbd000146de75	201782412	1	main_z	7	advance_on_keypress_ZEE	28	stimuli_distractor_diamondtriangles.svg	stimuli_target_circletriangles.svg	13	yes	57	0	470
6.6.1	win	2022-12-14	11:47:35	11:52:05	269127	594a964c215cbd000146de75	201782412	1	main_z	7	main_z	29	stimuli_distractor_trianglediamonds.svg	stimuli_target_squarediamonds.svg	12	yes	44	1	586
6.6.1	win	2022-12-14	11:47:35	11:52:05	269127	594a964c215cbd000146de75	201782412	1	main_z	7	advance_on_keypress_ZEE	30	stimuli_distractor_trianglediamonds.svg	stimuli_target_squarediamonds.svg	12	yes	57	0	354
6.6.1	win	2022-12-14	11:47:35	11:52:06	270624	594a964c215cbd000146de75	201782412	1	main_z	7	main_z	31	stimuli_target_circlediamonds.svg	stimuli_distractor_trianglediamonds.svg	2	yes	44	1	499
6.6.1	win	2022-12-14	11:47:35	11:52:06	270624	594a964c215cbd000146de75	201782412	1	main_z	7	advance_on_keypress_ZEE	32	stimuli_target_circlediamonds.svg	stimuli_distractor_trianglediamonds.svg	2	yes	57	0	366
6.6.1	win	2022-12-14	11:47:35	11:52:09	273641	594a964c215cbd000146de75	201782412	1	main_z	7	main_z	33	stimuli_distractor_trianglediamonds.svg	stimuli_distractor_diamondtriangles.svg	36	no	0	1	2000
6.6.1	win	2022-12-14	11:47:35	11:52:09	273641	594a964c215cbd000146de75	201782412	1	main_z	7	advance_on_keypress_ZEE	34	stimuli_distractor_trianglediamonds.svg	stimuli_distractor_diamondtriangles.svg	36	no	57	0	757
6.6.1	win	2022-12-14	11:47:35	11:52:12	277041	594a964c215cbd000146de75	201782412	1	main_z	7	main_z	35	stimuli_distractor_trianglediamonds.svg	stimuli_distractor_trianglediamonds.svg	34	no	0	1	2000
6.6.1	win	2022-12-14	11:47:35	11:52:12	277041	594a964c215cbd000146de75	201782412	1	main_z	7	advance_on_keypress_ZEE	36	stimuli_distractor_trianglediamonds.svg	stimuli_distractor_trianglediamonds.svg	34	no	57	0	1973
6.6.1	win	2022-12-14	11:47:35	11:52:16	280303	594a964c215cbd000146de75	201782412	1	main_z	7	main_z	37	stimuli_target_squaretriangles.svg	stimuli_distractor_trianglediamonds.svg	3	yes	44	1	645
6.6.1	win	2022-12-14	11:47:35	11:52:16	280303	594a964c215cbd000146de75	201782412	1	main_z	7	advance_on_keypress_ZEE	38	stimuli_target_squaretriangles.svg	stimuli_distractor_trianglediamonds.svg	3	yes	57	0	555
6.6.1	win	2022-12-14	11:47:35	11:52:17	281959	594a964c215cbd000146de75	201782412	1	main_z	7	main_z	39	stimuli_target_circletriangles.svg	stimuli_distractor_diamondtriangles.svg	5	yes	44	1	468
6.6.1	win	2022-12-14	11:47:35	11:52:17	281959	594a964c215cbd000146de75	201782412	1	main_z	7	advance_on_keypress_ZEE	40	stimuli_target_circletriangles.svg	stimuli_distractor_diamondtriangles.svg	5	yes	57	0	384
6.6.1	win	2022-12-14	11:47:35	11:52:19	283767	594a964c215cbd000146de75	201782412	1	main_z	7	main_z	41	stimuli_target_diamondsquares.svg	stimuli_distractor_trianglediamonds.svg	20	yes	44	1	775
6.6.1	win	2022-12-14	11:47:35	11:52:19	283767	594a964c215cbd000146de75	201782412	1	main_z	7	advance_on_keypress_ZEE	42	stimuli_target_diamondsquares.svg	stimuli_distractor_trianglediamonds.svg	20	yes	57	0	448
6.6.1	win	2022-12-14	11:47:35	11:52:21	285423	594a964c215cbd000146de75	201782412	1	main_z	7	main_z	43	stimuli_distractor_trianglediamonds.svg	stimuli_target_circlediamonds.svg	10	yes	44	1	565
6.6.1	win	2022-12-14	11:47:35	11:52:21	285423	594a964c215cbd000146de75	201782412	1	main_z	7	advance_on_keypress_ZEE	44	stimuli_distractor_trianglediamonds.svg	stimuli_target_circlediamonds.svg	10	yes	57	0	381
6.6.1	win	2022-12-14	11:47:35	11:52:22	286951	594a964c215cbd000146de75	201782412	1	main_z	7	main_z	45	stimuli_target_circlediamonds.svg	stimuli_distractor_diamondtriangles.svg	6	yes	44	1	493
6.6.1	win	2022-12-14	11:47:35	11:52:22	286951	594a964c215cbd000146de75	201782412	1	main_z	7	advance_on_keypress_ZEE	46	stimuli_target_circlediamonds.svg	stimuli_distractor_diamondtriangles.svg	6	yes	57	0	369
6.6.1	win	2022-12-14	11:47:35	11:52:25	289959	594a964c215cbd000146de75	201782412	1	main_z	7	main_z	47	stimuli_distractor_diamondtriangles.svg	stimuli_distractor_trianglediamonds.svg	37	no	0	1	2000
6.6.1	win	2022-12-14	11:47:35	11:52:25	289959	594a964c215cbd000146de75	201782412	1	main_z	7	advance_on_keypress_ZEE	48	stimuli_distractor_diamondtriangles.svg	stimuli_distractor_trianglediamonds.svg	37	no	57	0	616
6.6.1	win	2022-12-14	11:47:35	11:52:27	291639	594a964c215cbd000146de75	201782412	1	main_z	7	main_z	49	stimuli_target_squarediamonds.svg	stimuli_distractor_trianglediamonds.svg	4	yes	44	1	414
6.6.1	win	2022-12-14	11:47:35	11:52:27	291639	594a964c215cbd000146de75	201782412	1	main_z	7	advance_on_keypress_ZEE	50	stimuli_target_squarediamonds.svg	stimuli_distractor_trianglediamonds.svg	4	yes	57	0	284
6.6.1	win	2022-12-14	11:47:35	11:52:28	292975	594a964c215cbd000146de75	201782412	1	main_z	7	main_z	51	stimuli_target_circletriangles.svg	stimuli_distractor_trianglediamonds.svg	1	yes	44	1	400
6.6.1	win	2022-12-14	11:47:35	11:52:28	292975	594a964c215cbd000146de75	201782412	1	main_z	7	advance_on_keypress_ZEE	52	stimuli_target_circletriangles.svg	stimuli_distractor_trianglediamonds.svg	1	yes	57	0	287
6.6.1	win	2022-12-14	11:47:35	11:52:30	294583	594a964c215cbd000146de75	201782412	1	main_z	7	main_z	53	stimuli_distractor_trianglediamonds.svg	stimuli_target_diamondsquares.svg	28	yes	44	1	674
6.6.1	win	2022-12-14	11:47:35	11:52:30	294583	594a964c215cbd000146de75	201782412	1	main_z	7	advance_on_keypress_ZEE	54	stimuli_distractor_trianglediamonds.svg	stimuli_target_diamondsquares.svg	28	yes	57	0	335
6.6.1	win	2022-12-14	11:47:35	11:52:33	297559	594a964c215cbd000146de75	201782412	1	main_z	7	main_z	55	stimuli_distractor_trianglediamonds.svg	stimuli_distractor_diamondtriangles.svg	35	no	0	1	2000
6.6.1	win	2022-12-14	11:47:35	11:52:33	297559	594a964c215cbd000146de75	201782412	1	main_z	7	advance_on_keypress_ZEE	56	stimuli_distractor_trianglediamonds.svg	stimuli_distractor_diamondtriangles.svg	35	no	57	0	551
6.6.1	win	2022-12-14	11:47:35	11:52:35	299191	594a964c215cbd000146de75	201782412	1	main_z	7	main_z	57	stimuli_distractor_diamondtriangles.svg	stimuli_target_squaretriangles.svg	15	yes	44	1	432
6.6.1	win	2022-12-14	11:47:35	11:52:35	299191	594a964c215cbd000146de75	201782412	1	main_z	7	advance_on_keypress_ZEE	58	stimuli_distractor_diamondtriangles.svg	stimuli_target_squaretriangles.svg	15	yes	57	0	278
6.6.1	win	2022-12-14	11:47:35	11:52:36	300863	594a964c215cbd000146de75	201782412	1	main_z	7	main_z	59	stimuli_target_diamondsquares.svg	stimuli_distractor_diamondtriangles.svg	24	yes	44	1	754
6.6.1	win	2022-12-14	11:47:35	11:52:36	300863	594a964c215cbd000146de75	201782412	1	main_z	7	advance_on_keypress_ZEE	60	stimuli_target_diamondsquares.svg	stimuli_distractor_diamondtriangles.svg	24	yes	57	0	411
6.6.1	win	2022-12-14	11:47:35	11:52:38	302424	594a964c215cbd000146de75	201782412	1	main_z	7	main_z	61	stimuli_target_trianglecircles.svg	stimuli_distractor_trianglediamonds.svg	17	yes	44	1	514
6.6.1	win	2022-12-14	11:47:35	11:52:38	302424	594a964c215cbd000146de75	201782412	1	main_z	7	advance_on_keypress_ZEE	62	stimuli_target_trianglecircles.svg	stimuli_distractor_trianglediamonds.svg	17	yes	57	0	236
6.6.1	win	2022-12-14	11:47:35	11:52:41	305309	594a964c215cbd000146de75	201782412	1	main_z	7	main_z	63	stimuli_distractor_trianglediamonds.svg	stimuli_distractor_trianglediamonds.svg	33	no	0	1	2000
6.6.1	win	2022-12-14	11:47:35	11:52:41	305309	594a964c215cbd000146de75	201782412	1	main_z	7	advance_on_keypress_ZEE	64	stimuli_distractor_trianglediamonds.svg	stimuli_distractor_trianglediamonds.svg	33	no	57	0	753
6.6.1	win	2022-12-14	11:47:35	11:52:44	308710	594a964c215cbd000146de75	201782412	1	main_z	7	main_z	65	stimuli_distractor_trianglediamonds.svg	stimuli_target_trianglecircles.svg	25	yes	0	0	2000
6.6.1	win	2022-12-14	11:47:35	11:52:44	308710	594a964c215cbd000146de75	201782412	1	main_z	7	advance_on_keypress_ZEE	66	stimuli_distractor_trianglediamonds.svg	stimuli_target_trianglecircles.svg	25	yes	57	0	666
6.6.1	win	2022-12-14	11:47:35	11:52:46	310615	594a964c215cbd000146de75	201782412	1	main_z	7	main_z	67	stimuli_target_diamondcircles.svg	stimuli_distractor_trianglediamonds.svg	19	yes	44	1	589
6.6.1	win	2022-12-14	11:47:35	11:52:46	310615	594a964c215cbd000146de75	201782412	1	main_z	7	advance_on_keypress_ZEE	68	stimuli_target_diamondcircles.svg	stimuli_distractor_trianglediamonds.svg	19	yes	57	0	325
6.6.1	win	2022-12-14	11:47:35	11:52:49	313576	594a964c215cbd000146de75	201782412	1	main_z	7	main_z	69	stimuli_distractor_diamondtriangles.svg	stimuli_target_diamondcircles.svg	31	yes	0	0	2000
6.6.1	win	2022-12-14	11:47:35	11:52:49	313576	594a964c215cbd000146de75	201782412	1	main_z	7	advance_on_keypress_ZEE	70	stimuli_distractor_diamondtriangles.svg	stimuli_target_diamondcircles.svg	31	yes	57	0	3366
6.6.1	win	2022-12-14	11:47:35	11:52:53	318055	594a964c215cbd000146de75	201782412	1	main_z	7	main_z	71	stimuli_target_diamondcircles.svg	stimuli_distractor_diamondtriangles.svg	23	yes	44	1	462
6.6.1	win	2022-12-14	11:47:35	11:52:53	318055	594a964c215cbd000146de75	201782412	1	main_z	7	advance_on_keypress_ZEE	72	stimuli_target_diamondcircles.svg	stimuli_distractor_diamondtriangles.svg	23	yes	57	0	291
6.6.1	win	2022-12-14	11:47:35	11:52:55	319519	594a964c215cbd000146de75	201782412	1	main_z	7	main_z	73	stimuli_target_squaretriangles.svg	stimuli_distractor_diamondtriangles.svg	7	yes	44	1	542
6.6.1	win	2022-12-14	11:47:35	11:52:55	319519	594a964c215cbd000146de75	201782412	1	main_z	7	advance_on_keypress_ZEE	74	stimuli_target_squaretriangles.svg	stimuli_distractor_diamondtriangles.svg	7	yes	57	0	280
6.6.1	win	2022-12-14	11:47:35	11:52:57	321111	594a964c215cbd000146de75	201782412	1	main_z	7	main_z	75	stimuli_distractor_diamondtriangles.svg	stimuli_target_diamondsquares.svg	32	yes	44	1	667
6.6.1	win	2022-12-14	11:47:35	11:52:57	321111	594a964c215cbd000146de75	201782412	1	main_z	7	advance_on_keypress_ZEE	76	stimuli_distractor_diamondtriangles.svg	stimuli_target_diamondsquares.svg	32	yes	57	0	296
6.6.1	win	2022-12-14	11:47:35	11:52:58	322703	594a964c215cbd000146de75	201782412	1	main_z	7	main_z	77	stimuli_distractor_trianglediamonds.svg	stimuli_target_trianglesquares.svg	26	yes	44	1	643
6.6.1	win	2022-12-14	11:47:35	11:52:58	322703	594a964c215cbd000146de75	201782412	1	main_z	7	advance_on_keypress_ZEE	78	stimuli_distractor_trianglediamonds.svg	stimuli_target_trianglesquares.svg	26	yes	57	0	249
6.6.1	win	2022-12-14	11:47:35	11:53:01	325594	594a964c215cbd000146de75	201782412	1	main_z	7	main_z	79	stimuli_distractor_diamondtriangles.svg	stimuli_target_squarediamonds.svg	16	yes	0	0	2000
6.6.1	win	2022-12-14	11:47:35	11:53:01	325594	594a964c215cbd000146de75	201782412	1	main_z	7	advance_on_keypress_ZEE	80	stimuli_distractor_diamondtriangles.svg	stimuli_target_squarediamonds.svg	16	yes	57	0	493
6.6.1	win	2022-12-14	11:47:35	11:53:03	327242	594a964c215cbd000146de75	201782412	1	main_z	7	main_z	81	stimuli_target_squaretriangles.svg	stimuli_distractor_trianglediamonds.svg	3	yes	44	1	504
6.6.1	win	2022-12-14	11:47:35	11:53:03	327242	594a964c215cbd000146de75	201782412	1	main_z	7	advance_on_keypress_ZEE	82	stimuli_target_squaretriangles.svg	stimuli_distractor_trianglediamonds.svg	3	yes	57	0	194
6.6.1	win	2022-12-14	11:47:35	11:53:05	330077	594a964c215cbd000146de75	201782412	1	main_z	7	main_z	83	stimuli_distractor_diamondtriangles.svg	stimuli_distractor_diamondtriangles.svg	40	no	0	1	2000
6.6.1	win	2022-12-14	11:47:35	11:53:05	330077	594a964c215cbd000146de75	201782412	1	main_z	7	advance_on_keypress_ZEE	84	stimuli_distractor_diamondtriangles.svg	stimuli_distractor_diamondtriangles.svg	40	no	57	0	609
6.6.1	win	2022-12-14	11:47:35	11:53:07	331842	594a964c215cbd000146de75	201782412	1	main_z	7	main_z	85	stimuli_distractor_diamondtriangles.svg	stimuli_target_trianglecircles.svg	29	yes	44	1	512
6.6.1	win	2022-12-14	11:47:35	11:53:07	331842	594a964c215cbd000146de75	201782412	1	main_z	7	advance_on_keypress_ZEE	86	stimuli_distractor_diamondtriangles.svg	stimuli_target_trianglecircles.svg	29	yes	57	0	314
6.6.1	win	2022-12-14	11:47:35	11:53:10	334811	594a964c215cbd000146de75	201782412	1	main_z	7	main_z	87	stimuli_distractor_diamondtriangles.svg	stimuli_distractor_diamondtriangles.svg	39	no	0	1	2000
6.6.1	win	2022-12-14	11:47:35	11:53:10	334811	594a964c215cbd000146de75	201782412	1	main_z	7	advance_on_keypress_ZEE	88	stimuli_distractor_diamondtriangles.svg	stimuli_distractor_diamondtriangles.svg	39	no	57	0	515
6.6.1	win	2022-12-14	11:47:35	11:53:12	336492	594a964c215cbd000146de75	201782412	1	main_z	7	main_z	89	stimuli_target_trianglecircles.svg	stimuli_distractor_diamondtriangles.svg	21	yes	44	1	503
6.6.1	win	2022-12-14	11:47:35	11:53:12	336492	594a964c215cbd000146de75	201782412	1	main_z	7	advance_on_keypress_ZEE	90	stimuli_target_trianglecircles.svg	stimuli_distractor_diamondtriangles.svg	21	yes	57	0	224
6.6.1	win	2022-12-14	11:47:35	11:53:13	337944	594a964c215cbd000146de75	201782412	1	main_z	7	main_z	91	stimuli_target_diamondsquares.svg	stimuli_distractor_diamondtriangles.svg	24	yes	44	1	582
6.6.1	win	2022-12-14	11:47:35	11:53:13	337944	594a964c215cbd000146de75	201782412	1	main_z	7	advance_on_keypress_ZEE	92	stimuli_target_diamondsquares.svg	stimuli_distractor_diamondtriangles.svg	24	yes	57	0	206
6.6.1	win	2022-12-14	11:47:35	11:53:15	339319	594a964c215cbd000146de75	201782412	1	main_z	7	main_z	93	stimuli_target_circlediamonds.svg	stimuli_distractor_diamondtriangles.svg	6	yes	44	1	525
6.6.1	win	2022-12-14	11:47:35	11:53:15	339319	594a964c215cbd000146de75	201782412	1	main_z	7	advance_on_keypress_ZEE	94	stimuli_target_circlediamonds.svg	stimuli_distractor_diamondtriangles.svg	6	yes	57	0	191
6.6.1	win	2022-12-14	11:47:35	11:53:18	342145	594a964c215cbd000146de75	201782412	1	main_z	7	main_z	95	stimuli_distractor_trianglediamonds.svg	stimuli_distractor_diamondtriangles.svg	35	no	0	1	2000
6.6.1	win	2022-12-14	11:47:35	11:53:18	342145	594a964c215cbd000146de75	201782412	1	main_z	7	advance_on_keypress_ZEE	96	stimuli_distractor_trianglediamonds.svg	stimuli_distractor_diamondtriangles.svg	35	no	57	0	1262
6.6.1	win	2022-12-14	11:47:35	11:53:21	346045	594a964c215cbd000146de75	201782412	1	main_z	7	main_z	97	stimuli_distractor_trianglediamonds.svg	stimuli_distractor_trianglediamonds.svg	34	no	0	1	2000
6.6.1	win	2022-12-14	11:47:35	11:53:21	346045	594a964c215cbd000146de75	201782412	1	main_z	7	advance_on_keypress_ZEE	98	stimuli_distractor_trianglediamonds.svg	stimuli_distractor_trianglediamonds.svg	34	no	57	0	577
6.6.1	win	2022-12-14	11:47:35	11:53:23	347783	594a964c215cbd000146de75	201782412	1	main_z	7	main_z	99	stimuli_distractor_trianglediamonds.svg	stimuli_target_circlediamonds.svg	10	yes	44	1	521
6.6.1	win	2022-12-14	11:47:35	11:53:23	347783	594a964c215cbd000146de75	201782412	1	main_z	7	advance_on_keypress_ZEE	100	stimuli_distractor_trianglediamonds.svg	stimuli_target_circlediamonds.svg	10	yes	57	0	204
6.6.1	win	2022-12-14	11:47:35	11:53:24	349039	594a964c215cbd000146de75	201782412	1	main_z	7	main_z	101	stimuli_target_squarediamonds.svg	stimuli_distractor_diamondtriangles.svg	8	yes	44	1	411
6.6.1	win	2022-12-14	11:47:35	11:53:24	349039	594a964c215cbd000146de75	201782412	1	main_z	7	advance_on_keypress_ZEE	102	stimuli_target_squarediamonds.svg	stimuli_distractor_diamondtriangles.svg	8	yes	57	0	210
6.6.1	win	2022-12-14	11:47:35	11:53:26	350328	594a964c215cbd000146de75	201782412	1	main_z	7	main_z	103	stimuli_target_trianglesquares.svg	stimuli_distractor_trianglediamonds.svg	18	yes	44	1	449
6.6.1	win	2022-12-14	11:47:35	11:53:26	350328	594a964c215cbd000146de75	201782412	1	main_z	7	advance_on_keypress_ZEE	104	stimuli_target_trianglesquares.svg	stimuli_distractor_trianglediamonds.svg	18	yes	57	0	190
6.6.1	win	2022-12-14	11:47:35	11:53:27	351687	594a964c215cbd000146de75	201782412	1	main_z	7	main_z	105	stimuli_distractor_diamondtriangles.svg	stimuli_target_circletriangles.svg	13	yes	44	1	526
6.6.1	win	2022-12-14	11:47:35	11:53:27	351687	594a964c215cbd000146de75	201782412	1	main_z	7	advance_on_keypress_ZEE	106	stimuli_distractor_diamondtriangles.svg	stimuli_target_circletriangles.svg	13	yes	57	0	168
6.6.1	win	2022-12-14	11:47:35	11:53:28	352951	594a964c215cbd000146de75	201782412	1	main_z	7	main_z	107	stimuli_target_squaretriangles.svg	stimuli_distractor_diamondtriangles.svg	7	yes	44	1	456
6.6.1	win	2022-12-14	11:47:35	11:53:28	352951	594a964c215cbd000146de75	201782412	1	main_z	7	advance_on_keypress_ZEE	108	stimuli_target_squaretriangles.svg	stimuli_distractor_diamondtriangles.svg	7	yes	57	0	205
6.6.1	win	2022-12-14	11:47:35	11:53:30	354471	594a964c215cbd000146de75	201782412	1	main_z	7	main_z	109	stimuli_distractor_trianglediamonds.svg	stimuli_target_trianglesquares.svg	26	yes	44	1	676
6.6.1	win	2022-12-14	11:47:35	11:53:30	354471	594a964c215cbd000146de75	201782412	1	main_z	7	advance_on_keypress_ZEE	110	stimuli_distractor_trianglediamonds.svg	stimuli_target_trianglesquares.svg	26	yes	57	0	224
6.6.1	win	2022-12-14	11:47:35	11:53:31	355863	594a964c215cbd000146de75	201782412	1	main_z	7	main_z	111	stimuli_target_circletriangles.svg	stimuli_distractor_diamondtriangles.svg	5	yes	44	1	534
6.6.1	win	2022-12-14	11:47:35	11:53:31	355863	594a964c215cbd000146de75	201782412	1	main_z	7	advance_on_keypress_ZEE	112	stimuli_target_circletriangles.svg	stimuli_distractor_diamondtriangles.svg	5	yes	57	0	224
6.6.1	win	2022-12-14	11:47:35	11:53:33	357167	594a964c215cbd000146de75	201782412	1	main_z	7	main_z	113	stimuli_distractor_diamondtriangles.svg	stimuli_target_circlediamonds.svg	14	yes	44	1	438
6.6.1	win	2022-12-14	11:47:35	11:53:33	357167	594a964c215cbd000146de75	201782412	1	main_z	7	advance_on_keypress_ZEE	114	stimuli_distractor_diamondtriangles.svg	stimuli_target_circlediamonds.svg	14	yes	57	0	236
6.6.1	win	2022-12-14	11:47:35	11:53:34	358647	594a964c215cbd000146de75	201782412	1	main_z	7	main_z	115	stimuli_distractor_diamondtriangles.svg	stimuli_target_diamondcircles.svg	31	yes	44	1	601
6.6.1	win	2022-12-14	11:47:35	11:53:34	358647	594a964c215cbd000146de75	201782412	1	main_z	7	advance_on_keypress_ZEE	116	stimuli_distractor_diamondtriangles.svg	stimuli_target_diamondcircles.svg	31	yes	57	0	225
6.6.1	win	2022-12-14	11:47:35	11:53:35	360007	594a964c215cbd000146de75	201782412	1	main_z	7	main_z	117	stimuli_target_circletriangles.svg	stimuli_distractor_trianglediamonds.svg	1	yes	44	1	495
6.6.1	win	2022-12-14	11:47:35	11:53:35	360007	594a964c215cbd000146de75	201782412	1	main_z	7	advance_on_keypress_ZEE	118	stimuli_target_circletriangles.svg	stimuli_distractor_trianglediamonds.svg	1	yes	57	0	203
6.6.1	win	2022-12-14	11:47:35	11:53:37	361311	594a964c215cbd000146de75	201782412	1	main_z	7	main_z	119	stimuli_target_circlediamonds.svg	stimuli_distractor_trianglediamonds.svg	2	yes	44	1	465
6.6.1	win	2022-12-14	11:47:35	11:53:37	361311	594a964c215cbd000146de75	201782412	1	main_z	7	advance_on_keypress_ZEE	120	stimuli_target_circlediamonds.svg	stimuli_distractor_trianglediamonds.svg	2	yes	57	0	166
6.6.1	win	2022-12-14	11:47:35	11:53:38	362727	594a964c215cbd000146de75	201782412	1	main_z	7	main_z	121	stimuli_distractor_diamondtriangles.svg	stimuli_target_trianglesquares.svg	30	yes	44	1	598
6.6.1	win	2022-12-14	11:47:35	11:53:38	362727	594a964c215cbd000146de75	201782412	1	main_z	7	advance_on_keypress_ZEE	122	stimuli_distractor_diamondtriangles.svg	stimuli_target_trianglesquares.svg	30	yes	57	0	189
6.6.1	win	2022-12-14	11:47:35	11:53:40	364239	594a964c215cbd000146de75	201782412	1	main_z	7	main_z	123	stimuli_target_diamondcircles.svg	stimuli_distractor_diamondtriangles.svg	23	yes	44	1	677
6.6.1	win	2022-12-14	11:47:35	11:53:40	364239	594a964c215cbd000146de75	201782412	1	main_z	7	advance_on_keypress_ZEE	124	stimuli_target_diamondcircles.svg	stimuli_distractor_diamondtriangles.svg	23	yes	57	0	233
6.6.1	win	2022-12-14	11:47:35	11:53:41	365735	594a964c215cbd000146de75	201782412	1	main_z	7	main_z	125	stimuli_distractor_diamondtriangles.svg	stimuli_target_squaretriangles.svg	15	yes	44	1	622
6.6.1	win	2022-12-14	11:47:35	11:53:41	365735	594a964c215cbd000146de75	201782412	1	main_z	7	advance_on_keypress_ZEE	126	stimuli_distractor_diamondtriangles.svg	stimuli_target_squaretriangles.svg	15	yes	57	0	197
6.6.1	win	2022-12-14	11:47:35	11:53:44	368579	594a964c215cbd000146de75	201782412	1	main_z	7	main_z	127	stimuli_distractor_trianglediamonds.svg	stimuli_distractor_trianglediamonds.svg	33	no	0	1	2000
6.6.1	win	2022-12-14	11:47:35	11:53:44	368579	594a964c215cbd000146de75	201782412	1	main_z	7	advance_on_keypress_ZEE	128	stimuli_distractor_trianglediamonds.svg	stimuli_distractor_trianglediamonds.svg	33	no	57	0	595
6.6.1	win	2022-12-14	11:47:35	11:53:46	370255	594a964c215cbd000146de75	201782412	1	main_z	7	main_z	129	stimuli_target_squarediamonds.svg	stimuli_distractor_trianglediamonds.svg	4	yes	44	1	442
6.6.1	win	2022-12-14	11:47:35	11:53:46	370255	594a964c215cbd000146de75	201782412	1	main_z	7	advance_on_keypress_ZEE	130	stimuli_target_squarediamonds.svg	stimuli_distractor_trianglediamonds.svg	4	yes	57	0	272
6.6.1	win	2022-12-14	11:47:35	11:53:49	373163	594a964c215cbd000146de75	201782412	1	main_z	7	main_z	131	stimuli_distractor_diamondtriangles.svg	stimuli_distractor_trianglediamonds.svg	38	no	0	1	2000
6.6.1	win	2022-12-14	11:47:35	11:53:49	373163	594a964c215cbd000146de75	201782412	1	main_z	7	advance_on_keypress_ZEE	132	stimuli_distractor_diamondtriangles.svg	stimuli_distractor_trianglediamonds.svg	38	no	57	0	475
6.6.1	win	2022-12-14	11:47:35	11:53:50	374775	594a964c215cbd000146de75	201782412	1	main_z	7	main_z	133	stimuli_target_diamondsquares.svg	stimuli_distractor_trianglediamonds.svg	20	yes	44	1	495
6.6.1	win	2022-12-14	11:47:35	11:53:50	374775	594a964c215cbd000146de75	201782412	1	main_z	7	advance_on_keypress_ZEE	134	stimuli_target_diamondsquares.svg	stimuli_distractor_trianglediamonds.svg	20	yes	57	0	211
6.6.1	win	2022-12-14	11:47:35	11:53:52	376335	594a964c215cbd000146de75	201782412	1	main_z	7	main_z	135	stimuli_distractor_trianglediamonds.svg	stimuli_target_trianglecircles.svg	25	yes	44	1	722
6.6.1	win	2022-12-14	11:47:35	11:53:52	376335	594a964c215cbd000146de75	201782412	1	main_z	7	advance_on_keypress_ZEE	136	stimuli_distractor_trianglediamonds.svg	stimuli_target_trianglecircles.svg	25	yes	57	0	253
6.6.1	win	2022-12-14	11:47:35	11:53:53	377887	594a964c215cbd000146de75	201782412	1	main_z	7	main_z	137	stimuli_distractor_trianglediamonds.svg	stimuli_target_squarediamonds.svg	12	yes	44	1	657
6.6.1	win	2022-12-14	11:47:35	11:53:53	377887	594a964c215cbd000146de75	201782412	1	main_z	7	advance_on_keypress_ZEE	138	stimuli_distractor_trianglediamonds.svg	stimuli_target_squarediamonds.svg	12	yes	57	0	215
6.6.1	win	2022-12-14	11:47:35	11:53:55	379359	594a964c215cbd000146de75	201782412	1	main_z	7	main_z	139	stimuli_target_trianglesquares.svg	stimuli_distractor_diamondtriangles.svg	22	yes	44	1	612
6.6.1	win	2022-12-14	11:47:35	11:53:55	379359	594a964c215cbd000146de75	201782412	1	main_z	7	advance_on_keypress_ZEE	140	stimuli_target_trianglesquares.svg	stimuli_distractor_diamondtriangles.svg	22	yes	57	0	156
6.6.1	win	2022-12-14	11:47:35	11:53:56	380775	594a964c215cbd000146de75	201782412	1	main_z	7	main_z	141	stimuli_distractor_diamondtriangles.svg	stimuli_target_diamondsquares.svg	32	yes	44	1	628
6.6.1	win	2022-12-14	11:47:35	11:53:56	380775	594a964c215cbd000146de75	201782412	1	main_z	7	advance_on_keypress_ZEE	142	stimuli_distractor_diamondtriangles.svg	stimuli_target_diamondsquares.svg	32	yes	57	0	155
6.6.1	win	2022-12-14	11:47:35	11:53:58	382103	594a964c215cbd000146de75	201782412	1	main_z	7	main_z	143	stimuli_distractor_trianglediamonds.svg	stimuli_target_circletriangles.svg	9	yes	44	1	540
6.6.1	win	2022-12-14	11:47:35	11:53:58	382103	594a964c215cbd000146de75	201782412	1	main_z	7	advance_on_keypress_ZEE	144	stimuli_distractor_trianglediamonds.svg	stimuli_target_circletriangles.svg	9	yes	57	0	158
6.6.1	win	2022-12-14	11:47:35	11:53:59	383703	594a964c215cbd000146de75	201782412	1	main_z	7	main_z	145	stimuli_distractor_trianglediamonds.svg	stimuli_target_diamondsquares.svg	28	yes	44	1	806
6.6.1	win	2022-12-14	11:47:35	11:53:59	383703	594a964c215cbd000146de75	201782412	1	main_z	7	advance_on_keypress_ZEE	146	stimuli_distractor_trianglediamonds.svg	stimuli_target_diamondsquares.svg	28	yes	57	0	181
6.6.1	win	2022-12-14	11:47:35	11:54:01	385191	594a964c215cbd000146de75	201782412	1	main_z	7	main_z	147	stimuli_target_diamondcircles.svg	stimuli_distractor_trianglediamonds.svg	19	yes	44	1	661
6.6.1	win	2022-12-14	11:47:35	11:54:01	385191	594a964c215cbd000146de75	201782412	1	main_z	7	advance_on_keypress_ZEE	148	stimuli_target_diamondcircles.svg	stimuli_distractor_trianglediamonds.svg	19	yes	57	0	138
6.6.1	win	2022-12-14	11:47:35	11:54:02	386575	594a964c215cbd000146de75	201782412	1	main_z	7	main_z	149	stimuli_target_trianglecircles.svg	stimuli_distractor_trianglediamonds.svg	17	yes	44	1	611
6.6.1	win	2022-12-14	11:47:35	11:54:02	386575	594a964c215cbd000146de75	201782412	1	main_z	7	advance_on_keypress_ZEE	150	stimuli_target_trianglecircles.svg	stimuli_distractor_trianglediamonds.svg	17	yes	57	0	155
6.6.1	win	2022-12-14	11:47:35	11:54:04	388567	594a964c215cbd000146de75	201782412	1	main_z	7	main_z	151	stimuli_distractor_trianglediamonds.svg	stimuli_target_squaretriangles.svg	11	yes	44	1	1204
6.6.1	win	2022-12-14	11:47:35	11:54:04	388567	594a964c215cbd000146de75	201782412	1	main_z	7	advance_on_keypress_ZEE	152	stimuli_distractor_trianglediamonds.svg	stimuli_target_squaretriangles.svg	11	yes	57	0	603
6.6.1	win	2022-12-14	11:47:35	11:54:06	390343	594a964c215cbd000146de75	201782412	1	main_z	7	main_z	153	stimuli_distractor_diamondtriangles.svg	stimuli_target_squarediamonds.svg	16	yes	44	1	530
6.6.1	win	2022-12-14	11:47:35	11:54:06	390343	594a964c215cbd000146de75	201782412	1	main_z	7	advance_on_keypress_ZEE	154	stimuli_distractor_diamondtriangles.svg	stimuli_target_squarediamonds.svg	16	yes	57	0	244
6.6.1	win	2022-12-14	11:47:35	11:54:09	393214	594a964c215cbd000146de75	201782412	1	main_z	7	main_z	155	stimuli_distractor_diamondtriangles.svg	stimuli_distractor_trianglediamonds.svg	37	no	0	1	2000
6.6.1	win	2022-12-14	11:47:35	11:54:09	393214	594a964c215cbd000146de75	201782412	1	main_z	7	advance_on_keypress_ZEE	156	stimuli_distractor_diamondtriangles.svg	stimuli_distractor_trianglediamonds.svg	37	no	57	0	896
6.6.1	win	2022-12-14	11:47:35	11:54:12	396764	594a964c215cbd000146de75	201782412	1	main_z	7	main_z	157	stimuli_distractor_trianglediamonds.svg	stimuli_distractor_diamondtriangles.svg	36	no	0	1	2000
6.6.1	win	2022-12-14	11:47:35	11:54:12	396764	594a964c215cbd000146de75	201782412	1	main_z	7	advance_on_keypress_ZEE	158	stimuli_distractor_trianglediamonds.svg	stimuli_distractor_diamondtriangles.svg	36	no	57	0	690
6.6.1	win	2022-12-14	11:47:35	11:54:14	398991	594a964c215cbd000146de75	201782412	1	main_z	7	main_z	159	stimuli_distractor_trianglediamonds.svg	stimuli_target_diamondcircles.svg	27	yes	44	1	893
6.6.1	win	2022-12-14	11:47:35	11:54:14	398991	594a964c215cbd000146de75	201782412	1	main_z	7	advance_on_keypress_ZEE	160	stimuli_distractor_trianglediamonds.svg	stimuli_target_diamondcircles.svg	27	yes	57	0	321
6.6.1	win	2022-12-14	11:47:35	11:54:40	424434	594a964c215cbd000146de75	201782412	1	practice_slash	9	practice_slash	1	stimuli_distractor_diamondtriangles.svg	stimuli_distractor_trianglediamonds.svg	14	no	0	1	2000
6.6.1	win	2022-12-14	11:47:35	11:54:40	424434	594a964c215cbd000146de75	201782412	1	practice_slash	9	advance_on_keypress_SLASH	2	stimuli_distractor_diamondtriangles.svg	stimuli_distractor_trianglediamonds.svg	14	no	57	0	558
6.6.1	win	2022-12-14	11:47:35	11:54:44	428634	594a964c215cbd000146de75	201782412	1	practice_slash	9	practice_slash	3	stimuli_distractor_diamondtriangles.svg	stimuli_distractor_diamondtriangles.svg	13	no	0	1	2000
6.6.1	win	2022-12-14	11:47:35	11:54:44	428634	594a964c215cbd000146de75	201782412	1	practice_slash	9	advance_on_keypress_SLASH	4	stimuli_distractor_diamondtriangles.svg	stimuli_distractor_diamondtriangles.svg	13	no	57	0	614
6.6.1	win	2022-12-14	11:47:35	11:54:47	431422	594a964c215cbd000146de75	201782412	1	practice_slash	9	practice_slash	5	stimuli_target_diamondsquares.svg	stimuli_distractor_trianglediamonds.svg	6	yes	53	1	516
6.6.1	win	2022-12-14	11:47:35	11:54:47	431422	594a964c215cbd000146de75	201782412	1	practice_slash	9	advance_on_keypress_SLASH	6	stimuli_target_diamondsquares.svg	stimuli_distractor_trianglediamonds.svg	6	yes	57	0	526
6.6.1	win	2022-12-14	11:47:35	11:54:50	434128	594a964c215cbd000146de75	201782412	1	practice_slash	9	practice_slash	7	stimuli_distractor_diamondtriangles.svg	stimuli_target_circletriangles.svg	7	yes	53	1	544
6.6.1	win	2022-12-14	11:47:35	11:54:50	434128	594a964c215cbd000146de75	201782412	1	practice_slash	9	advance_on_keypress_SLASH	8	stimuli_distractor_diamondtriangles.svg	stimuli_target_circletriangles.svg	7	yes	57	0	562
6.6.1	win	2022-12-14	11:47:35	11:54:54	438318	594a964c215cbd000146de75	201782412	1	practice_slash	9	practice_slash	9	stimuli_distractor_trianglediamonds.svg	stimuli_distractor_trianglediamonds.svg	15	no	0	1	2000
6.6.1	win	2022-12-14	11:47:35	11:54:54	438318	594a964c215cbd000146de75	201782412	1	practice_slash	9	advance_on_keypress_SLASH	10	stimuli_distractor_trianglediamonds.svg	stimuli_distractor_trianglediamonds.svg	15	no	57	0	602
6.6.1	win	2022-12-14	11:47:35	11:54:56	440984	594a964c215cbd000146de75	201782412	1	practice_slash	9	practice_slash	11	stimuli_target_diamondsquares.svg	stimuli_distractor_diamondtriangles.svg	3	yes	53	1	417
6.6.1	win	2022-12-14	11:47:35	11:54:56	440984	594a964c215cbd000146de75	201782412	1	practice_slash	9	advance_on_keypress_SLASH	12	stimuli_target_diamondsquares.svg	stimuli_distractor_diamondtriangles.svg	3	yes	57	0	423
6.6.1	win	2022-12-14	11:47:35	11:54:59	443681	594a964c215cbd000146de75	201782412	1	practice_slash	9	practice_slash	13	stimuli_distractor_trianglediamonds.svg	stimuli_target_diamondcircles.svg	12	yes	53	1	629
6.6.1	win	2022-12-14	11:47:35	11:54:59	443681	594a964c215cbd000146de75	201782412	1	practice_slash	9	advance_on_keypress_SLASH	14	stimuli_distractor_trianglediamonds.svg	stimuli_target_diamondcircles.svg	12	yes	57	0	467
6.6.1	win	2022-12-14	11:47:35	11:55:02	446481	594a964c215cbd000146de75	201782412	1	practice_slash	9	practice_slash	15	stimuli_distractor_diamondtriangles.svg	stimuli_target_trianglecircles.svg	9	yes	53	1	679
6.6.1	win	2022-12-14	11:47:35	11:55:02	446481	594a964c215cbd000146de75	201782412	1	practice_slash	9	advance_on_keypress_SLASH	16	stimuli_distractor_diamondtriangles.svg	stimuli_target_trianglecircles.svg	9	yes	57	0	427
6.6.1	win	2022-12-14	11:47:35	11:55:05	449201	594a964c215cbd000146de75	201782412	1	practice_slash	9	practice_slash	17	stimuli_distractor_diamondtriangles.svg	stimuli_target_diamondcircles.svg	8	yes	53	1	649
6.6.1	win	2022-12-14	11:47:35	11:55:05	449201	594a964c215cbd000146de75	201782412	1	practice_slash	9	advance_on_keypress_SLASH	18	stimuli_distractor_diamondtriangles.svg	stimuli_target_diamondcircles.svg	8	yes	57	0	430
6.6.1	win	2022-12-14	11:47:35	11:55:07	451905	594a964c215cbd000146de75	201782412	1	practice_slash	9	practice_slash	19	stimuli_distractor_trianglediamonds.svg	stimuli_target_circlediamonds.svg	10	yes	53	1	619
6.6.1	win	2022-12-14	11:47:35	11:55:07	451905	594a964c215cbd000146de75	201782412	1	practice_slash	9	advance_on_keypress_SLASH	20	stimuli_distractor_trianglediamonds.svg	stimuli_target_circlediamonds.svg	10	yes	57	0	482
6.6.1	win	2022-12-14	11:47:35	11:55:11	456036	594a964c215cbd000146de75	201782412	1	practice_slash	9	practice_slash	21	stimuli_distractor_trianglediamonds.svg	stimuli_distractor_diamondtriangles.svg	16	no	0	1	2000
6.6.1	win	2022-12-14	11:47:35	11:55:11	456036	594a964c215cbd000146de75	201782412	1	practice_slash	9	advance_on_keypress_SLASH	22	stimuli_distractor_trianglediamonds.svg	stimuli_distractor_diamondtriangles.svg	16	no	57	0	516
6.6.1	win	2022-12-14	11:47:35	11:55:14	458889	594a964c215cbd000146de75	201782412	1	practice_slash	9	practice_slash	23	stimuli_target_circlediamonds.svg	stimuli_distractor_trianglediamonds.svg	4	yes	53	1	686
6.6.1	win	2022-12-14	11:47:35	11:55:14	458889	594a964c215cbd000146de75	201782412	1	practice_slash	9	advance_on_keypress_SLASH	24	stimuli_target_circlediamonds.svg	stimuli_distractor_trianglediamonds.svg	4	yes	57	0	514
6.6.1	win	2022-12-14	11:47:35	11:55:17	461573	594a964c215cbd000146de75	201782412	1	practice_slash	9	practice_slash	25	stimuli_target_squarediamonds.svg	stimuli_distractor_diamondtriangles.svg	2	yes	53	1	516
6.6.1	win	2022-12-14	11:47:35	11:55:17	461573	594a964c215cbd000146de75	201782412	1	practice_slash	9	advance_on_keypress_SLASH	26	stimuli_target_squarediamonds.svg	stimuli_distractor_diamondtriangles.svg	2	yes	57	0	567
6.6.1	win	2022-12-14	11:47:35	11:55:20	464301	594a964c215cbd000146de75	201782412	1	practice_slash	9	practice_slash	27	stimuli_target_circlediamonds.svg	stimuli_distractor_diamondtriangles.svg	1	yes	53	1	504
6.6.1	win	2022-12-14	11:47:35	11:55:20	464301	594a964c215cbd000146de75	201782412	1	practice_slash	9	advance_on_keypress_SLASH	28	stimuli_target_circlediamonds.svg	stimuli_distractor_diamondtriangles.svg	1	yes	57	0	434
6.6.1	win	2022-12-14	11:47:35	11:55:22	466901	594a964c215cbd000146de75	201782412	1	practice_slash	9	practice_slash	29	stimuli_distractor_trianglediamonds.svg	stimuli_target_squarediamonds.svg	11	yes	53	1	504
6.6.1	win	2022-12-14	11:47:35	11:55:22	466901	594a964c215cbd000146de75	201782412	1	practice_slash	9	advance_on_keypress_SLASH	30	stimuli_distractor_trianglediamonds.svg	stimuli_target_squarediamonds.svg	11	yes	57	0	393
6.6.1	win	2022-12-14	11:47:35	11:55:25	469424	594a964c215cbd000146de75	201782412	1	practice_slash	9	practice_slash	31	stimuli_target_squarediamonds.svg	stimuli_distractor_trianglediamonds.svg	5	yes	53	1	489
6.6.1	win	2022-12-14	11:47:35	11:55:25	469424	594a964c215cbd000146de75	201782412	1	practice_slash	9	advance_on_keypress_SLASH	32	stimuli_target_squarediamonds.svg	stimuli_distractor_trianglediamonds.svg	5	yes	57	0	772
6.6.1	win	2022-12-14	11:47:35	11:55:30	474518	594a964c215cbd000146de75	201782412	1	main_slash	11	main_slash	1	stimuli_distractor_diamondtriangles.svg	stimuli_target_diamondcircles.svg	31	yes	0	0	2000
6.6.1	win	2022-12-14	11:47:35	11:55:30	474518	594a964c215cbd000146de75	201782412	1	main_slash	11	advance_on_keypress_SLASH	2	stimuli_distractor_diamondtriangles.svg	stimuli_target_diamondcircles.svg	31	yes	57	0	560
6.6.1	win	2022-12-14	11:47:35	11:55:31	476071	594a964c215cbd000146de75	201782412	1	main_slash	11	main_slash	3	stimuli_target_squarediamonds.svg	stimuli_distractor_trianglediamonds.svg	4	yes	53	1	353
6.6.1	win	2022-12-14	11:47:35	11:55:31	476071	594a964c215cbd000146de75	201782412	1	main_slash	11	advance_on_keypress_SLASH	4	stimuli_target_squarediamonds.svg	stimuli_distractor_trianglediamonds.svg	4	yes	57	0	426
6.6.1	win	2022-12-14	11:47:35	11:55:33	477575	594a964c215cbd000146de75	201782412	1	main_slash	11	main_slash	5	stimuli_target_circletriangles.svg	stimuli_distractor_diamondtriangles.svg	5	yes	53	1	440
6.6.1	win	2022-12-14	11:47:35	11:55:33	477575	594a964c215cbd000146de75	201782412	1	main_slash	11	advance_on_keypress_SLASH	6	stimuli_target_circletriangles.svg	stimuli_distractor_diamondtriangles.svg	5	yes	57	0	294
6.6.1	win	2022-12-14	11:47:35	11:55:34	478991	594a964c215cbd000146de75	201782412	1	main_slash	11	main_slash	7	stimuli_target_squaretriangles.svg	stimuli_distractor_diamondtriangles.svg	7	yes	53	1	489
6.6.1	win	2022-12-14	11:47:35	11:55:34	478991	594a964c215cbd000146de75	201782412	1	main_slash	11	advance_on_keypress_SLASH	8	stimuli_target_squaretriangles.svg	stimuli_distractor_diamondtriangles.svg	7	yes	57	0	245
6.6.1	win	2022-12-14	11:47:35	11:55:36	480352	594a964c215cbd000146de75	201782412	1	main_slash	11	main_slash	9	stimuli_distractor_trianglediamonds.svg	stimuli_target_diamondsquares.svg	28	yes	53	1	483
6.6.1	win	2022-12-14	11:47:35	11:55:36	480352	594a964c215cbd000146de75	201782412	1	main_slash	11	advance_on_keypress_SLASH	10	stimuli_distractor_trianglediamonds.svg	stimuli_target_diamondsquares.svg	28	yes	57	0	262
6.6.1	win	2022-12-14	11:47:35	11:55:37	481695	594a964c215cbd000146de75	201782412	1	main_slash	11	main_slash	11	stimuli_target_trianglecircles.svg	stimuli_distractor_trianglediamonds.svg	17	yes	53	1	443
6.6.1	win	2022-12-14	11:47:35	11:55:37	481695	594a964c215cbd000146de75	201782412	1	main_slash	11	advance_on_keypress_SLASH	12	stimuli_target_trianglecircles.svg	stimuli_distractor_trianglediamonds.svg	17	yes	57	0	265
6.6.1	win	2022-12-14	11:47:35	11:55:38	483071	594a964c215cbd000146de75	201782412	1	main_slash	11	main_slash	13	stimuli_target_diamondcircles.svg	stimuli_distractor_diamondtriangles.svg	23	yes	53	1	469
6.6.1	win	2022-12-14	11:47:35	11:55:38	483071	594a964c215cbd000146de75	201782412	1	main_slash	11	advance_on_keypress_SLASH	14	stimuli_target_diamondcircles.svg	stimuli_distractor_diamondtriangles.svg	23	yes	57	0	242
6.6.1	win	2022-12-14	11:47:35	11:55:41	485952	594a964c215cbd000146de75	201782412	1	main_slash	11	main_slash	15	stimuli_distractor_trianglediamonds.svg	stimuli_distractor_trianglediamonds.svg	33	no	0	1	2000
6.6.1	win	2022-12-14	11:47:35	11:55:41	485952	594a964c215cbd000146de75	201782412	1	main_slash	11	advance_on_keypress_SLASH	16	stimuli_distractor_trianglediamonds.svg	stimuli_distractor_trianglediamonds.svg	33	no	57	0	414
6.6.1	win	2022-12-14	11:47:35	11:55:43	487400	594a964c215cbd000146de75	201782412	1	main_slash	11	main_slash	17	stimuli_target_circlediamonds.svg	stimuli_distractor_trianglediamonds.svg	2	yes	53	1	372
6.6.1	win	2022-12-14	11:47:35	11:55:43	487400	594a964c215cbd000146de75	201782412	1	main_slash	11	advance_on_keypress_SLASH	18	stimuli_target_circlediamonds.svg	stimuli_distractor_trianglediamonds.svg	2	yes	57	0	348
6.6.1	win	2022-12-14	11:47:35	11:55:44	488968	594a964c215cbd000146de75	201782412	1	main_slash	11	main_slash	19	stimuli_target_trianglesquares.svg	stimuli_distractor_diamondtriangles.svg	22	yes	53	1	565
6.6.1	win	2022-12-14	11:47:35	11:55:44	488968	594a964c215cbd000146de75	201782412	1	main_slash	11	advance_on_keypress_SLASH	20	stimuli_target_trianglesquares.svg	stimuli_distractor_diamondtriangles.svg	22	yes	57	0	301
6.6.1	win	2022-12-14	11:47:35	11:55:46	490511	594a964c215cbd000146de75	201782412	1	main_slash	11	main_slash	21	stimuli_distractor_trianglediamonds.svg	stimuli_target_circletriangles.svg	9	yes	53	1	592
6.6.1	win	2022-12-14	11:47:35	11:55:46	490511	594a964c215cbd000146de75	201782412	1	main_slash	11	advance_on_keypress_SLASH	22	stimuli_distractor_trianglediamonds.svg	stimuli_target_circletriangles.svg	9	yes	57	0	304
6.6.1	win	2022-12-14	11:47:35	11:55:48	492175	594a964c215cbd000146de75	201782412	1	main_slash	11	main_slash	23	stimuli_distractor_trianglediamonds.svg	stimuli_target_trianglesquares.svg	26	yes	53	1	723
6.6.1	win	2022-12-14	11:47:35	11:55:48	492175	594a964c215cbd000146de75	201782412	1	main_slash	11	advance_on_keypress_SLASH	24	stimuli_distractor_trianglediamonds.svg	stimuli_target_trianglesquares.svg	26	yes	57	0	341
6.6.1	win	2022-12-14	11:47:35	11:55:49	493687	594a964c215cbd000146de75	201782412	1	main_slash	11	main_slash	25	stimuli_target_circletriangles.svg	stimuli_distractor_trianglediamonds.svg	1	yes	53	1	535
6.6.1	win	2022-12-14	11:47:35	11:55:49	493687	594a964c215cbd000146de75	201782412	1	main_slash	11	advance_on_keypress_SLASH	26	stimuli_target_circletriangles.svg	stimuli_distractor_trianglediamonds.svg	1	yes	57	0	265
6.6.1	win	2022-12-14	11:47:35	11:55:51	495239	594a964c215cbd000146de75	201782412	1	main_slash	11	main_slash	27	stimuli_distractor_diamondtriangles.svg	stimuli_target_circlediamonds.svg	14	yes	53	1	637
6.6.1	win	2022-12-14	11:47:35	11:55:51	495239	594a964c215cbd000146de75	201782412	1	main_slash	11	advance_on_keypress_SLASH	28	stimuli_distractor_diamondtriangles.svg	stimuli_target_circlediamonds.svg	14	yes	57	0	322
6.6.1	win	2022-12-14	11:47:35	11:55:52	496727	594a964c215cbd000146de75	201782412	1	main_slash	11	main_slash	29	stimuli_distractor_trianglediamonds.svg	stimuli_target_squaretriangles.svg	11	yes	53	1	524
6.6.1	win	2022-12-14	11:47:35	11:55:52	496727	594a964c215cbd000146de75	201782412	1	main_slash	11	advance_on_keypress_SLASH	30	stimuli_distractor_trianglediamonds.svg	stimuli_target_squaretriangles.svg	11	yes	57	0	248
6.6.1	win	2022-12-14	11:47:35	11:55:54	498255	594a964c215cbd000146de75	201782412	1	main_slash	11	main_slash	31	stimuli_distractor_trianglediamonds.svg	stimuli_target_circlediamonds.svg	10	yes	53	1	637
6.6.1	win	2022-12-14	11:47:35	11:55:54	498255	594a964c215cbd000146de75	201782412	1	main_slash	11	advance_on_keypress_SLASH	32	stimuli_distractor_trianglediamonds.svg	stimuli_target_circlediamonds.svg	10	yes	57	0	202
6.6.1	win	2022-12-14	11:47:35	11:55:55	499695	594a964c215cbd000146de75	201782412	1	main_slash	11	main_slash	33	stimuli_target_diamondcircles.svg	stimuli_distractor_trianglediamonds.svg	19	yes	53	1	592
6.6.1	win	2022-12-14	11:47:35	11:55:55	499695	594a964c215cbd000146de75	201782412	1	main_slash	11	advance_on_keypress_SLASH	34	stimuli_target_diamondcircles.svg	stimuli_distractor_trianglediamonds.svg	19	yes	57	0	312
6.6.1	win	2022-12-14	11:47:35	11:55:57	501223	594a964c215cbd000146de75	201782412	1	main_slash	11	main_slash	35	stimuli_distractor_diamondtriangles.svg	stimuli_target_squarediamonds.svg	16	yes	53	1	587
6.6.1	win	2022-12-14	11:47:35	11:55:57	501223	594a964c215cbd000146de75	201782412	1	main_slash	11	advance_on_keypress_SLASH	36	stimuli_distractor_diamondtriangles.svg	stimuli_target_squarediamonds.svg	16	yes	57	0	291
6.6.1	win	2022-12-14	11:47:35	11:55:58	502759	594a964c215cbd000146de75	201782412	1	main_slash	11	main_slash	37	stimuli_distractor_diamondtriangles.svg	stimuli_target_trianglesquares.svg	30	yes	53	1	606
6.6.1	win	2022-12-14	11:47:35	11:55:58	502759	594a964c215cbd000146de75	201782412	1	main_slash	11	advance_on_keypress_SLASH	38	stimuli_distractor_diamondtriangles.svg	stimuli_target_trianglesquares.svg	30	yes	57	0	277
6.6.1	win	2022-12-14	11:47:35	11:56:01	505670	594a964c215cbd000146de75	201782412	1	main_slash	11	main_slash	39	stimuli_distractor_trianglediamonds.svg	stimuli_distractor_diamondtriangles.svg	36	no	0	1	2000
6.6.1	win	2022-12-14	11:47:35	11:56:01	505670	594a964c215cbd000146de75	201782412	1	main_slash	11	advance_on_keypress_SLASH	40	stimuli_distractor_trianglediamonds.svg	stimuli_distractor_diamondtriangles.svg	36	no	57	0	489
6.6.1	win	2022-12-14	11:47:35	11:56:03	507455	594a964c215cbd000146de75	201782412	1	main_slash	11	main_slash	41	stimuli_distractor_trianglediamonds.svg	stimuli_target_diamondcircles.svg	27	yes	53	1	652
6.6.1	win	2022-12-14	11:47:35	11:56:03	507455	594a964c215cbd000146de75	201782412	1	main_slash	11	advance_on_keypress_SLASH	42	stimuli_distractor_trianglediamonds.svg	stimuli_target_diamondcircles.svg	27	yes	57	0	369
6.6.1	win	2022-12-14	11:47:35	11:56:06	510470	594a964c215cbd000146de75	201782412	1	main_slash	11	main_slash	43	stimuli_distractor_trianglediamonds.svg	stimuli_distractor_trianglediamonds.svg	34	no	0	1	2000
6.6.1	win	2022-12-14	11:47:35	11:56:06	510470	594a964c215cbd000146de75	201782412	1	main_slash	11	advance_on_keypress_SLASH	44	stimuli_distractor_trianglediamonds.svg	stimuli_distractor_trianglediamonds.svg	34	no	57	0	488
6.6.1	win	2022-12-14	11:47:35	11:56:07	512031	594a964c215cbd000146de75	201782412	1	main_slash	11	main_slash	45	stimuli_target_circlediamonds.svg	stimuli_distractor_diamondtriangles.svg	6	yes	53	1	429
6.6.1	win	2022-12-14	11:47:35	11:56:07	512031	594a964c215cbd000146de75	201782412	1	main_slash	11	advance_on_keypress_SLASH	46	stimuli_target_circlediamonds.svg	stimuli_distractor_diamondtriangles.svg	6	yes	57	0	290
6.6.1	win	2022-12-14	11:47:35	11:56:10	514954	594a964c215cbd000146de75	201782412	1	main_slash	11	main_slash	47	stimuli_distractor_diamondtriangles.svg	stimuli_distractor_trianglediamonds.svg	38	no	0	1	2000
6.6.1	win	2022-12-14	11:47:35	11:56:10	514954	594a964c215cbd000146de75	201782412	1	main_slash	11	advance_on_keypress_SLASH	48	stimuli_distractor_diamondtriangles.svg	stimuli_distractor_trianglediamonds.svg	38	no	57	0	349
6.6.1	win	2022-12-14	11:47:35	11:56:12	516375	594a964c215cbd000146de75	201782412	1	main_slash	11	main_slash	49	stimuli_target_trianglecircles.svg	stimuli_distractor_diamondtriangles.svg	21	yes	53	1	422
6.6.1	win	2022-12-14	11:47:35	11:56:12	516375	594a964c215cbd000146de75	201782412	1	main_slash	11	advance_on_keypress_SLASH	50	stimuli_target_trianglecircles.svg	stimuli_distractor_diamondtriangles.svg	21	yes	57	0	276
6.6.1	win	2022-12-14	11:47:35	11:56:15	519287	594a964c215cbd000146de75	201782412	1	main_slash	11	main_slash	51	stimuli_distractor_trianglediamonds.svg	stimuli_distractor_diamondtriangles.svg	35	no	0	1	2000
6.6.1	win	2022-12-14	11:47:35	11:56:15	519287	594a964c215cbd000146de75	201782412	1	main_slash	11	advance_on_keypress_SLASH	52	stimuli_distractor_trianglediamonds.svg	stimuli_distractor_diamondtriangles.svg	35	no	57	0	327
6.6.1	win	2022-12-14	11:47:35	11:56:16	520775	594a964c215cbd000146de75	201782412	1	main_slash	11	main_slash	53	stimuli_target_squarediamonds.svg	stimuli_distractor_diamondtriangles.svg	8	yes	53	1	521
6.6.1	win	2022-12-14	11:47:35	11:56:16	520775	594a964c215cbd000146de75	201782412	1	main_slash	11	advance_on_keypress_SLASH	54	stimuli_target_squarediamonds.svg	stimuli_distractor_diamondtriangles.svg	8	yes	57	0	244
6.6.1	win	2022-12-14	11:47:35	11:56:18	522320	594a964c215cbd000146de75	201782412	1	main_slash	11	main_slash	55	stimuli_target_trianglesquares.svg	stimuli_distractor_trianglediamonds.svg	18	yes	53	1	665
6.6.1	win	2022-12-14	11:47:35	11:56:18	522320	594a964c215cbd000146de75	201782412	1	main_slash	11	advance_on_keypress_SLASH	56	stimuli_target_trianglesquares.svg	stimuli_distractor_trianglediamonds.svg	18	yes	57	0	326
6.6.1	win	2022-12-14	11:47:35	11:56:19	523823	594a964c215cbd000146de75	201782412	1	main_slash	11	main_slash	57	stimuli_distractor_trianglediamonds.svg	stimuli_target_trianglecircles.svg	25	yes	53	1	536
6.6.1	win	2022-12-14	11:47:35	11:56:19	523823	594a964c215cbd000146de75	201782412	1	main_slash	11	advance_on_keypress_SLASH	58	stimuli_distractor_trianglediamonds.svg	stimuli_target_trianglecircles.svg	25	yes	57	0	210
6.6.1	win	2022-12-14	11:47:35	11:56:21	525185	594a964c215cbd000146de75	201782412	1	main_slash	11	main_slash	59	stimuli_target_diamondsquares.svg	stimuli_distractor_diamondtriangles.svg	24	yes	53	1	512
6.6.1	win	2022-12-14	11:47:35	11:56:21	525185	594a964c215cbd000146de75	201782412	1	main_slash	11	advance_on_keypress_SLASH	60	stimuli_target_diamondsquares.svg	stimuli_distractor_diamondtriangles.svg	24	yes	57	0	195
6.6.1	win	2022-12-14	11:47:35	11:56:22	526679	594a964c215cbd000146de75	201782412	1	main_slash	11	main_slash	61	stimuli_distractor_diamondtriangles.svg	stimuli_target_trianglecircles.svg	29	yes	53	1	659
6.6.1	win	2022-12-14	11:47:35	11:56:22	526679	594a964c215cbd000146de75	201782412	1	main_slash	11	advance_on_keypress_SLASH	62	stimuli_distractor_diamondtriangles.svg	stimuli_target_trianglecircles.svg	29	yes	57	0	232
6.6.1	win	2022-12-14	11:47:35	11:56:25	529554	594a964c215cbd000146de75	201782412	1	main_slash	11	main_slash	63	stimuli_distractor_diamondtriangles.svg	stimuli_distractor_diamondtriangles.svg	39	no	0	1	2000
6.6.1	win	2022-12-14	11:47:35	11:56:25	529554	594a964c215cbd000146de75	201782412	1	main_slash	11	advance_on_keypress_SLASH	64	stimuli_distractor_diamondtriangles.svg	stimuli_distractor_diamondtriangles.svg	39	no	57	0	341
6.6.1	win	2022-12-14	11:47:35	11:56:27	531135	594a964c215cbd000146de75	201782412	1	main_slash	11	main_slash	65	stimuli_distractor_diamondtriangles.svg	stimuli_target_squaretriangles.svg	15	yes	53	1	597
6.6.1	win	2022-12-14	11:47:35	11:56:27	531135	594a964c215cbd000146de75	201782412	1	main_slash	11	advance_on_keypress_SLASH	66	stimuli_distractor_diamondtriangles.svg	stimuli_target_squaretriangles.svg	15	yes	57	0	317
6.6.1	win	2022-12-14	11:47:35	11:56:28	532679	594a964c215cbd000146de75	201782412	1	main_slash	11	main_slash	67	stimuli_distractor_diamondtriangles.svg	stimuli_target_diamondsquares.svg	32	yes	53	1	575
6.6.1	win	2022-12-14	11:47:35	11:56:28	532679	594a964c215cbd000146de75	201782412	1	main_slash	11	advance_on_keypress_SLASH	68	stimuli_distractor_diamondtriangles.svg	stimuli_target_diamondsquares.svg	32	yes	57	0	264
6.6.1	win	2022-12-14	11:47:35	11:56:30	534231	594a964c215cbd000146de75	201782412	1	main_slash	11	main_slash	69	stimuli_target_diamondsquares.svg	stimuli_distractor_trianglediamonds.svg	20	yes	53	1	643
6.6.1	win	2022-12-14	11:47:35	11:56:30	534231	594a964c215cbd000146de75	201782412	1	main_slash	11	advance_on_keypress_SLASH	70	stimuli_target_diamondsquares.svg	stimuli_distractor_trianglediamonds.svg	20	yes	57	0	185
6.6.1	win	2022-12-14	11:47:35	11:56:31	535647	594a964c215cbd000146de75	201782412	1	main_slash	11	main_slash	71	stimuli_target_squaretriangles.svg	stimuli_distractor_trianglediamonds.svg	3	yes	53	1	592
6.6.1	win	2022-12-14	11:47:35	11:56:31	535647	594a964c215cbd000146de75	201782412	1	main_slash	11	advance_on_keypress_SLASH	72	stimuli_target_squaretriangles.svg	stimuli_distractor_trianglediamonds.svg	3	yes	57	0	304
6.6.1	win	2022-12-14	11:47:35	11:56:34	538588	594a964c215cbd000146de75	201782412	1	main_slash	11	main_slash	73	stimuli_distractor_diamondtriangles.svg	stimuli_distractor_trianglediamonds.svg	37	no	0	1	2000
6.6.1	win	2022-12-14	11:47:35	11:56:34	538588	594a964c215cbd000146de75	201782412	1	main_slash	11	advance_on_keypress_SLASH	74	stimuli_distractor_diamondtriangles.svg	stimuli_distractor_trianglediamonds.svg	37	no	57	0	443
6.6.1	win	2022-12-14	11:47:35	11:56:37	541672	594a964c215cbd000146de75	201782412	1	main_slash	11	main_slash	75	stimuli_distractor_diamondtriangles.svg	stimuli_distractor_diamondtriangles.svg	40	no	0	1	2000
6.6.1	win	2022-12-14	11:47:35	11:56:37	541672	594a964c215cbd000146de75	201782412	1	main_slash	11	advance_on_keypress_SLASH	76	stimuli_distractor_diamondtriangles.svg	stimuli_distractor_diamondtriangles.svg	40	no	57	0	392
6.6.1	win	2022-12-14	11:47:35	11:56:39	543279	594a964c215cbd000146de75	201782412	1	main_slash	11	main_slash	77	stimuli_distractor_diamondtriangles.svg	stimuli_target_circletriangles.svg	13	yes	53	1	574
6.6.1	win	2022-12-14	11:47:35	11:56:39	543279	594a964c215cbd000146de75	201782412	1	main_slash	11	advance_on_keypress_SLASH	78	stimuli_distractor_diamondtriangles.svg	stimuli_target_circletriangles.svg	13	yes	57	0	272
6.6.1	win	2022-12-14	11:47:35	11:56:40	544599	594a964c215cbd000146de75	201782412	1	main_slash	11	main_slash	79	stimuli_distractor_trianglediamonds.svg	stimuli_target_squarediamonds.svg	12	yes	53	1	411
6.6.1	win	2022-12-14	11:47:35	11:56:40	544599	594a964c215cbd000146de75	201782412	1	main_slash	11	advance_on_keypress_SLASH	80	stimuli_distractor_trianglediamonds.svg	stimuli_target_squarediamonds.svg	12	yes	57	0	298
6.6.1	win	2022-12-14	11:47:35	11:56:43	547539	594a964c215cbd000146de75	201782412	1	main_slash	11	main_slash	81	stimuli_distractor_diamondtriangles.svg	stimuli_distractor_diamondtriangles.svg	40	no	0	1	2000
6.6.1	win	2022-12-14	11:47:35	11:56:43	547539	594a964c215cbd000146de75	201782412	1	main_slash	11	advance_on_keypress_SLASH	82	stimuli_distractor_diamondtriangles.svg	stimuli_distractor_diamondtriangles.svg	40	no	57	0	380
6.6.1	win	2022-12-14	11:47:35	11:56:46	550572	594a964c215cbd000146de75	201782412	1	main_slash	11	main_slash	83	stimuli_distractor_diamondtriangles.svg	stimuli_distractor_trianglediamonds.svg	37	no	0	1	2000
6.6.1	win	2022-12-14	11:47:35	11:56:46	550572	594a964c215cbd000146de75	201782412	1	main_slash	11	advance_on_keypress_SLASH	84	stimuli_distractor_diamondtriangles.svg	stimuli_distractor_trianglediamonds.svg	37	no	57	0	322
6.6.1	win	2022-12-14	11:47:35	11:56:47	552063	594a964c215cbd000146de75	201782412	1	main_slash	11	main_slash	85	stimuli_target_diamondsquares.svg	stimuli_distractor_diamondtriangles.svg	24	yes	53	1	524
6.6.1	win	2022-12-14	11:47:35	11:56:47	552063	594a964c215cbd000146de75	201782412	1	main_slash	11	advance_on_keypress_SLASH	86	stimuli_target_diamondsquares.svg	stimuli_distractor_diamondtriangles.svg	24	yes	57	0	319
6.6.1	win	2022-12-14	11:47:35	11:56:49	553472	594a964c215cbd000146de75	201782412	1	main_slash	11	main_slash	87	stimuli_target_circlediamonds.svg	stimuli_distractor_diamondtriangles.svg	6	yes	53	1	449
6.6.1	win	2022-12-14	11:47:35	11:56:49	553472	594a964c215cbd000146de75	201782412	1	main_slash	11	advance_on_keypress_SLASH	88	stimuli_target_circlediamonds.svg	stimuli_distractor_diamondtriangles.svg	6	yes	57	0	302
6.6.1	win	2022-12-14	11:47:35	11:56:50	554815	594a964c215cbd000146de75	201782412	1	main_slash	11	main_slash	89	stimuli_target_squarediamonds.svg	stimuli_distractor_diamondtriangles.svg	8	yes	53	1	393
6.6.1	win	2022-12-14	11:47:35	11:56:50	554815	594a964c215cbd000146de75	201782412	1	main_slash	11	advance_on_keypress_SLASH	90	stimuli_target_squarediamonds.svg	stimuli_distractor_diamondtriangles.svg	8	yes	57	0	297
6.6.1	win	2022-12-14	11:47:35	11:56:52	556335	594a964c215cbd000146de75	201782412	1	main_slash	11	main_slash	91	stimuli_target_squarediamonds.svg	stimuli_distractor_trianglediamonds.svg	4	yes	53	1	580
6.6.1	win	2022-12-14	11:47:35	11:56:52	556335	594a964c215cbd000146de75	201782412	1	main_slash	11	advance_on_keypress_SLASH	92	stimuli_target_squarediamonds.svg	stimuli_distractor_trianglediamonds.svg	4	yes	57	0	276
6.6.1	win	2022-12-14	11:47:35	11:56:53	557791	594a964c215cbd000146de75	201782412	1	main_slash	11	main_slash	93	stimuli_distractor_diamondtriangles.svg	stimuli_target_diamondsquares.svg	32	yes	53	1	552
6.6.1	win	2022-12-14	11:47:35	11:56:53	557791	594a964c215cbd000146de75	201782412	1	main_slash	11	advance_on_keypress_SLASH	94	stimuli_distractor_diamondtriangles.svg	stimuli_target_diamondsquares.svg	32	yes	57	0	265
6.6.1	win	2022-12-14	11:47:35	11:56:55	559151	594a964c215cbd000146de75	201782412	1	main_slash	11	main_slash	95	stimuli_target_trianglesquares.svg	stimuli_distractor_trianglediamonds.svg	18	yes	53	1	445
6.6.1	win	2022-12-14	11:47:35	11:56:55	559151	594a964c215cbd000146de75	201782412	1	main_slash	11	advance_on_keypress_SLASH	96	stimuli_target_trianglesquares.svg	stimuli_distractor_trianglediamonds.svg	18	yes	57	0	291
6.6.1	win	2022-12-14	11:47:35	11:56:56	560535	594a964c215cbd000146de75	201782412	1	main_slash	11	main_slash	97	stimuli_target_circletriangles.svg	stimuli_distractor_trianglediamonds.svg	1	yes	53	1	463
6.6.1	win	2022-12-14	11:47:35	11:56:56	560535	594a964c215cbd000146de75	201782412	1	main_slash	11	advance_on_keypress_SLASH	98	stimuli_target_circletriangles.svg	stimuli_distractor_trianglediamonds.svg	1	yes	57	0	244
6.6.1	win	2022-12-14	11:47:35	11:56:57	561807	594a964c215cbd000146de75	201782412	1	main_slash	11	main_slash	99	stimuli_target_circletriangles.svg	stimuli_distractor_diamondtriangles.svg	5	yes	53	1	401
6.6.1	win	2022-12-14	11:47:35	11:56:57	561807	594a964c215cbd000146de75	201782412	1	main_slash	11	advance_on_keypress_SLASH	100	stimuli_target_circletriangles.svg	stimuli_distractor_diamondtriangles.svg	5	yes	57	0	249
6.6.1	win	2022-12-14	11:47:35	11:56:59	563103	594a964c215cbd000146de75	201782412	1	main_slash	11	main_slash	101	stimuli_target_trianglecircles.svg	stimuli_distractor_diamondtriangles.svg	21	yes	53	1	397
6.6.1	win	2022-12-14	11:47:35	11:56:59	563103	594a964c215cbd000146de75	201782412	1	main_slash	11	advance_on_keypress_SLASH	102	stimuli_target_trianglecircles.svg	stimuli_distractor_diamondtriangles.svg	21	yes	57	0	269
6.6.1	win	2022-12-14	11:47:35	11:57:01	566023	594a964c215cbd000146de75	201782412	1	main_slash	11	main_slash	103	stimuli_distractor_trianglediamonds.svg	stimuli_distractor_trianglediamonds.svg	33	no	0	1	2000
6.6.1	win	2022-12-14	11:47:35	11:57:01	566023	594a964c215cbd000146de75	201782412	1	main_slash	11	advance_on_keypress_SLASH	104	stimuli_distractor_trianglediamonds.svg	stimuli_distractor_trianglediamonds.svg	33	no	57	0	511
6.6.1	win	2022-12-14	11:47:35	11:57:03	567672	594a964c215cbd000146de75	201782412	1	main_slash	11	main_slash	105	stimuli_distractor_trianglediamonds.svg	stimuli_target_trianglesquares.svg	26	yes	53	1	499
6.6.1	win	2022-12-14	11:47:35	11:57:03	567672	594a964c215cbd000146de75	201782412	1	main_slash	11	advance_on_keypress_SLASH	106	stimuli_distractor_trianglediamonds.svg	stimuli_target_trianglesquares.svg	26	yes	57	0	237
6.6.1	win	2022-12-14	11:47:35	11:57:04	568975	594a964c215cbd000146de75	201782412	1	main_slash	11	main_slash	107	stimuli_distractor_diamondtriangles.svg	stimuli_target_circlediamonds.svg	14	yes	53	1	419
6.6.1	win	2022-12-14	11:47:35	11:57:04	568975	594a964c215cbd000146de75	201782412	1	main_slash	11	advance_on_keypress_SLASH	108	stimuli_distractor_diamondtriangles.svg	stimuli_target_circlediamonds.svg	14	yes	57	0	209
6.6.1	win	2022-12-14	11:47:35	11:57:06	570495	594a964c215cbd000146de75	201782412	1	main_slash	11	main_slash	109	stimuli_distractor_trianglediamonds.svg	stimuli_distractor_trianglediamonds.svg	34	no	53	0	672
6.6.1	win	2022-12-14	11:47:35	11:57:06	570495	594a964c215cbd000146de75	201782412	1	main_slash	11	advance_on_keypress_SLASH	110	stimuli_distractor_trianglediamonds.svg	stimuli_distractor_trianglediamonds.svg	34	no	57	0	277
6.6.1	win	2022-12-14	11:47:35	11:57:07	571951	594a964c215cbd000146de75	201782412	1	main_slash	11	main_slash	111	stimuli_distractor_trianglediamonds.svg	stimuli_target_diamondsquares.svg	28	yes	53	1	545
6.6.1	win	2022-12-14	11:47:35	11:57:07	571951	594a964c215cbd000146de75	201782412	1	main_slash	11	advance_on_keypress_SLASH	112	stimuli_distractor_trianglediamonds.svg	stimuli_target_diamondsquares.svg	28	yes	57	0	243
6.6.1	win	2022-12-14	11:47:35	11:57:09	573247	594a964c215cbd000146de75	201782412	1	main_slash	11	main_slash	113	stimuli_distractor_diamondtriangles.svg	stimuli_target_trianglesquares.svg	30	yes	53	1	424
6.6.1	win	2022-12-14	11:47:35	11:57:09	573247	594a964c215cbd000146de75	201782412	1	main_slash	11	advance_on_keypress_SLASH	114	stimuli_distractor_diamondtriangles.svg	stimuli_target_trianglesquares.svg	30	yes	57	0	230
6.6.1	win	2022-12-14	11:47:35	11:57:10	574743	594a964c215cbd000146de75	201782412	1	main_slash	11	main_slash	115	stimuli_distractor_diamondtriangles.svg	stimuli_target_diamondcircles.svg	31	yes	53	1	620
6.6.1	win	2022-12-14	11:47:35	11:57:10	574743	594a964c215cbd000146de75	201782412	1	main_slash	11	advance_on_keypress_SLASH	116	stimuli_distractor_diamondtriangles.svg	stimuli_target_diamondcircles.svg	31	yes	57	0	170
6.6.1	win	2022-12-14	11:47:35	11:57:12	576103	594a964c215cbd000146de75	201782412	1	main_slash	11	main_slash	117	stimuli_distractor_trianglediamonds.svg	stimuli_target_squarediamonds.svg	12	yes	53	1	546
6.6.1	win	2022-12-14	11:47:35	11:57:12	576103	594a964c215cbd000146de75	201782412	1	main_slash	11	advance_on_keypress_SLASH	118	stimuli_distractor_trianglediamonds.svg	stimuli_target_squarediamonds.svg	12	yes	57	0	212
6.6.1	win	2022-12-14	11:47:35	11:57:14	578940	594a964c215cbd000146de75	201782412	1	main_slash	11	main_slash	119	stimuli_distractor_diamondtriangles.svg	stimuli_distractor_trianglediamonds.svg	38	no	0	1	2000
6.6.1	win	2022-12-14	11:47:35	11:57:14	578940	594a964c215cbd000146de75	201782412	1	main_slash	11	advance_on_keypress_SLASH	120	stimuli_distractor_diamondtriangles.svg	stimuli_distractor_trianglediamonds.svg	38	no	57	0	426
6.6.1	win	2022-12-14	11:47:35	11:57:17	582007	594a964c215cbd000146de75	201782412	1	main_slash	11	main_slash	121	stimuli_target_squaretriangles.svg	stimuli_distractor_trianglediamonds.svg	3	yes	0	0	2000
6.6.1	win	2022-12-14	11:47:35	11:57:17	582007	594a964c215cbd000146de75	201782412	1	main_slash	11	advance_on_keypress_SLASH	122	stimuli_target_squaretriangles.svg	stimuli_distractor_trianglediamonds.svg	3	yes	57	0	527
6.6.1	win	2022-12-14	11:47:35	11:57:19	583689	594a964c215cbd000146de75	201782412	1	main_slash	11	main_slash	123	stimuli_target_trianglecircles.svg	stimuli_distractor_trianglediamonds.svg	17	yes	53	1	505
6.6.1	win	2022-12-14	11:47:35	11:57:19	583689	594a964c215cbd000146de75	201782412	1	main_slash	11	advance_on_keypress_SLASH	124	stimuli_target_trianglecircles.svg	stimuli_distractor_trianglediamonds.svg	17	yes	57	0	188
6.6.1	win	2022-12-14	11:47:35	11:57:20	585007	594a964c215cbd000146de75	201782412	1	main_slash	11	main_slash	125	stimuli_distractor_diamondtriangles.svg	stimuli_target_squarediamonds.svg	16	yes	53	1	484
6.6.1	win	2022-12-14	11:47:35	11:57:20	585007	594a964c215cbd000146de75	201782412	1	main_slash	11	advance_on_keypress_SLASH	126	stimuli_distractor_diamondtriangles.svg	stimuli_target_squarediamonds.svg	16	yes	57	0	167
6.6.1	win	2022-12-14	11:47:35	11:57:22	586631	594a964c215cbd000146de75	201782412	1	main_slash	11	main_slash	127	stimuli_distractor_trianglediamonds.svg	stimuli_target_diamondcircles.svg	27	yes	53	1	807
6.6.1	win	2022-12-14	11:47:35	11:57:22	586631	594a964c215cbd000146de75	201782412	1	main_slash	11	advance_on_keypress_SLASH	128	stimuli_distractor_trianglediamonds.svg	stimuli_target_diamondcircles.svg	27	yes	57	0	166
6.6.1	win	2022-12-14	11:47:35	11:57:23	587910	594a964c215cbd000146de75	201782412	1	main_slash	11	main_slash	129	stimuli_target_circlediamonds.svg	stimuli_distractor_trianglediamonds.svg	2	yes	53	1	470
6.6.1	win	2022-12-14	11:47:35	11:57:23	587910	594a964c215cbd000146de75	201782412	1	main_slash	11	advance_on_keypress_SLASH	130	stimuli_target_circlediamonds.svg	stimuli_distractor_trianglediamonds.svg	2	yes	57	0	203
6.6.1	win	2022-12-14	11:47:35	11:57:25	589191	594a964c215cbd000146de75	201782412	1	main_slash	11	main_slash	131	stimuli_distractor_trianglediamonds.svg	stimuli_target_squaretriangles.svg	11	yes	53	1	434
6.6.1	win	2022-12-14	11:47:35	11:57:25	589191	594a964c215cbd000146de75	201782412	1	main_slash	11	advance_on_keypress_SLASH	132	stimuli_distractor_trianglediamonds.svg	stimuli_target_squaretriangles.svg	11	yes	57	0	232
6.6.1	win	2022-12-14	11:47:35	11:57:26	590511	594a964c215cbd000146de75	201782412	1	main_slash	11	main_slash	133	stimuli_distractor_diamondtriangles.svg	stimuli_target_circletriangles.svg	13	yes	53	1	438
6.6.1	win	2022-12-14	11:47:35	11:57:26	590511	594a964c215cbd000146de75	201782412	1	main_slash	11	advance_on_keypress_SLASH	134	stimuli_distractor_diamondtriangles.svg	stimuli_target_circletriangles.svg	13	yes	57	0	227
6.6.1	win	2022-12-14	11:47:35	11:57:27	591855	594a964c215cbd000146de75	201782412	1	main_slash	11	main_slash	135	stimuli_target_diamondcircles.svg	stimuli_distractor_trianglediamonds.svg	19	yes	53	1	481
6.6.1	win	2022-12-14	11:47:35	11:57:27	591855	594a964c215cbd000146de75	201782412	1	main_slash	11	advance_on_keypress_SLASH	136	stimuli_target_diamondcircles.svg	stimuli_distractor_trianglediamonds.svg	19	yes	57	0	205
6.6.1	win	2022-12-14	11:47:35	11:57:29	593567	594a964c215cbd000146de75	201782412	1	main_slash	11	main_slash	137	stimuli_target_squaretriangles.svg	stimuli_distractor_diamondtriangles.svg	7	yes	53	1	860
6.6.1	win	2022-12-14	11:47:35	11:57:29	593567	594a964c215cbd000146de75	201782412	1	main_slash	11	advance_on_keypress_SLASH	138	stimuli_target_squaretriangles.svg	stimuli_distractor_diamondtriangles.svg	7	yes	57	0	721
6.6.1	win	2022-12-14	11:47:35	11:57:31	595511	594a964c215cbd000146de75	201782412	1	main_slash	11	main_slash	139	stimuli_target_diamondcircles.svg	stimuli_distractor_diamondtriangles.svg	23	yes	53	1	588
6.6.1	win	2022-12-14	11:47:35	11:57:31	595511	594a964c215cbd000146de75	201782412	1	main_slash	11	advance_on_keypress_SLASH	140	stimuli_target_diamondcircles.svg	stimuli_distractor_diamondtriangles.svg	23	yes	57	0	267
6.6.1	win	2022-12-14	11:47:35	11:57:34	598425	594a964c215cbd000146de75	201782412	1	main_slash	11	main_slash	141	stimuli_distractor_trianglediamonds.svg	stimuli_distractor_diamondtriangles.svg	35	no	0	1	2000
6.6.1	win	2022-12-14	11:47:35	11:57:34	598425	594a964c215cbd000146de75	201782412	1	main_slash	11	advance_on_keypress_SLASH	142	stimuli_distractor_trianglediamonds.svg	stimuli_distractor_diamondtriangles.svg	35	no	57	0	935
6.6.1	win	2022-12-14	11:47:35	11:57:36	600503	594a964c215cbd000146de75	201782412	1	main_slash	11	main_slash	143	stimuli_distractor_trianglediamonds.svg	stimuli_target_circletriangles.svg	9	yes	53	1	495
6.6.1	win	2022-12-14	11:47:35	11:57:36	600503	594a964c215cbd000146de75	201782412	1	main_slash	11	advance_on_keypress_SLASH	144	stimuli_distractor_trianglediamonds.svg	stimuli_target_circletriangles.svg	9	yes	57	0	179
6.6.1	win	2022-12-14	11:47:35	11:57:37	601967	594a964c215cbd000146de75	201782412	1	main_slash	11	main_slash	145	stimuli_distractor_diamondtriangles.svg	stimuli_target_squaretriangles.svg	15	yes	53	1	660
6.6.1	win	2022-12-14	11:47:35	11:57:37	601967	594a964c215cbd000146de75	201782412	1	main_slash	11	advance_on_keypress_SLASH	146	stimuli_distractor_diamondtriangles.svg	stimuli_target_squaretriangles.svg	15	yes	57	0	168
6.6.1	win	2022-12-14	11:47:35	11:57:40	604775	594a964c215cbd000146de75	201782412	1	main_slash	11	main_slash	147	stimuli_distractor_trianglediamonds.svg	stimuli_distractor_diamondtriangles.svg	36	no	0	1	2000
6.6.1	win	2022-12-14	11:47:35	11:57:40	604775	594a964c215cbd000146de75	201782412	1	main_slash	11	advance_on_keypress_SLASH	148	stimuli_distractor_trianglediamonds.svg	stimuli_distractor_diamondtriangles.svg	36	no	57	0	496
6.6.1	win	2022-12-14	11:47:35	11:57:42	606351	594a964c215cbd000146de75	201782412	1	main_slash	11	main_slash	149	stimuli_target_diamondsquares.svg	stimuli_distractor_trianglediamonds.svg	20	yes	53	1	444
6.6.1	win	2022-12-14	11:47:35	11:57:42	606351	594a964c215cbd000146de75	201782412	1	main_slash	11	advance_on_keypress_SLASH	150	stimuli_target_diamondsquares.svg	stimuli_distractor_trianglediamonds.svg	20	yes	57	0	241
6.6.1	win	2022-12-14	11:47:35	11:57:43	607687	594a964c215cbd000146de75	201782412	1	main_slash	11	main_slash	151	stimuli_distractor_diamondtriangles.svg	stimuli_target_trianglecircles.svg	29	yes	53	1	462
6.6.1	win	2022-12-14	11:47:35	11:57:43	607687	594a964c215cbd000146de75	201782412	1	main_slash	11	advance_on_keypress_SLASH	152	stimuli_distractor_diamondtriangles.svg	stimuli_target_trianglecircles.svg	29	yes	57	0	227
6.6.1	win	2022-12-14	11:47:35	11:57:44	608959	594a964c215cbd000146de75	201782412	1	main_slash	11	main_slash	153	stimuli_distractor_trianglediamonds.svg	stimuli_target_circlediamonds.svg	10	yes	53	1	418
6.6.1	win	2022-12-14	11:47:35	11:57:44	608959	594a964c215cbd000146de75	201782412	1	main_slash	11	advance_on_keypress_SLASH	154	stimuli_distractor_trianglediamonds.svg	stimuli_target_circlediamonds.svg	10	yes	57	0	264
6.6.1	win	2022-12-14	11:47:35	11:57:46	610495	594a964c215cbd000146de75	201782412	1	main_slash	11	main_slash	155	stimuli_distractor_trianglediamonds.svg	stimuli_target_trianglecircles.svg	25	yes	53	1	620
6.6.1	win	2022-12-14	11:47:35	11:57:46	610495	594a964c215cbd000146de75	201782412	1	main_slash	11	advance_on_keypress_SLASH	156	stimuli_distractor_trianglediamonds.svg	stimuli_target_trianglecircles.svg	25	yes	57	0	186
6.6.1	win	2022-12-14	11:47:35	11:57:47	611792	594a964c215cbd000146de75	201782412	1	main_slash	11	main_slash	157	stimuli_target_trianglesquares.svg	stimuli_distractor_diamondtriangles.svg	22	yes	53	1	466
6.6.1	win	2022-12-14	11:47:35	11:57:47	611792	594a964c215cbd000146de75	201782412	1	main_slash	11	advance_on_keypress_SLASH	158	stimuli_target_trianglesquares.svg	stimuli_distractor_diamondtriangles.svg	22	yes	57	0	190
6.6.1	win	2022-12-14	11:47:35	11:57:50	614625	594a964c215cbd000146de75	201782412	1	main_slash	11	main_slash	159	stimuli_distractor_diamondtriangles.svg	stimuli_distractor_diamondtriangles.svg	39	no	0	1	2000
6.6.1	win	2022-12-14	11:47:35	11:57:50	614625	594a964c215cbd000146de75	201782412	1	main_slash	11	advance_on_keypress_SLASH	160	stimuli_distractor_diamondtriangles.svg	stimuli_distractor_diamondtriangles.svg	39	no	57	0	309