build	computer.platform	date	time	timestamp	time_elapsed_ms	subject	group	session	blockcode	blocknum	trialcode	trialnum	stimulus_left	stimulus_right	stim_index	target_present	response	correct	latency
6.6.1	win	2022-12-15	00:57:42	00:59:49	126385	5ae3a41d32ef52000131a531	356864729	1	practice_slash	5	practice_slash	1	stimuli_target_squarediamonds.svg	stimuli_distractor_trianglediamonds.svg	5	yes	53	1	1217
6.6.1	win	2022-12-15	00:57:42	00:59:49	126385	5ae3a41d32ef52000131a531	356864729	1	practice_slash	5	advance_on_keypress_SLASH	2	stimuli_target_squarediamonds.svg	stimuli_distractor_trianglediamonds.svg	5	yes	57	0	728
6.6.1	win	2022-12-15	00:57:42	00:59:54	130800	5ae3a41d32ef52000131a531	356864729	1	practice_slash	5	practice_slash	3	stimuli_distractor_diamondtriangles.svg	stimuli_target_trianglecircles.svg	9	yes	0	0	2000
6.6.1	win	2022-12-15	00:57:42	00:59:54	130800	5ae3a41d32ef52000131a531	356864729	1	practice_slash	5	advance_on_keypress_SLASH	4	stimuli_distractor_diamondtriangles.svg	stimuli_target_trianglecircles.svg	9	yes	57	0	503
6.6.1	win	2022-12-15	00:57:42	00:59:57	133744	5ae3a41d32ef52000131a531	356864729	1	practice_slash	5	practice_slash	5	stimuli_target_squarediamonds.svg	stimuli_distractor_diamondtriangles.svg	2	yes	53	1	794
6.6.1	win	2022-12-15	00:57:42	00:59:57	133744	5ae3a41d32ef52000131a531	356864729	1	practice_slash	5	advance_on_keypress_SLASH	6	stimuli_target_squarediamonds.svg	stimuli_distractor_diamondtriangles.svg	2	yes	57	0	562
6.6.1	win	2022-12-15	00:57:42	01:00:01	137934	5ae3a41d32ef52000131a531	356864729	1	practice_slash	5	practice_slash	7	stimuli_distractor_trianglediamonds.svg	stimuli_target_diamondcircles.svg	12	yes	0	0	2000
6.6.1	win	2022-12-15	00:57:42	01:00:01	137934	5ae3a41d32ef52000131a531	356864729	1	practice_slash	5	advance_on_keypress_SLASH	8	stimuli_distractor_trianglediamonds.svg	stimuli_target_diamondcircles.svg	12	yes	57	0	634
6.6.1	win	2022-12-15	00:57:42	01:00:05	142217	5ae3a41d32ef52000131a531	356864729	1	practice_slash	5	practice_slash	9	stimuli_distractor_diamondtriangles.svg	stimuli_target_diamondcircles.svg	8	yes	0	0	2000
6.6.1	win	2022-12-15	00:57:42	01:00:05	142217	5ae3a41d32ef52000131a531	356864729	1	practice_slash	5	advance_on_keypress_SLASH	10	stimuli_distractor_diamondtriangles.svg	stimuli_target_diamondcircles.svg	8	yes	57	0	351
6.6.1	win	2022-12-15	00:57:42	01:00:09	145681	5ae3a41d32ef52000131a531	356864729	1	practice_slash	5	practice_slash	11	stimuli_target_diamondsquares.svg	stimuli_distractor_trianglediamonds.svg	6	yes	53	1	1463
6.6.1	win	2022-12-15	00:57:42	01:00:09	145681	5ae3a41d32ef52000131a531	356864729	1	practice_slash	5	advance_on_keypress_SLASH	12	stimuli_target_diamondsquares.svg	stimuli_distractor_trianglediamonds.svg	6	yes	57	0	429
6.6.1	win	2022-12-15	00:57:42	01:00:12	148937	5ae3a41d32ef52000131a531	356864729	1	practice_slash	5	practice_slash	13	stimuli_distractor_trianglediamonds.svg	stimuli_distractor_diamondtriangles.svg	16	no	53	0	1203
6.6.1	win	2022-12-15	00:57:42	01:00:12	148937	5ae3a41d32ef52000131a531	356864729	1	practice_slash	5	advance_on_keypress_SLASH	14	stimuli_distractor_trianglediamonds.svg	stimuli_distractor_diamondtriangles.svg	16	no	57	0	706
6.6.1	win	2022-12-15	00:57:42	01:00:16	153284	5ae3a41d32ef52000131a531	356864729	1	practice_slash	5	practice_slash	15	stimuli_target_diamondsquares.svg	stimuli_distractor_diamondtriangles.svg	3	yes	0	0	2000
6.6.1	win	2022-12-15	00:57:42	01:00:16	153284	5ae3a41d32ef52000131a531	356864729	1	practice_slash	5	advance_on_keypress_SLASH	16	stimuli_target_diamondsquares.svg	stimuli_distractor_diamondtriangles.svg	3	yes	57	0	652
6.6.1	win	2022-12-15	00:57:42	01:00:20	157017	5ae3a41d32ef52000131a531	356864729	1	practice_slash	5	practice_slash	17	stimuli_distractor_diamondtriangles.svg	stimuli_target_circletriangles.svg	7	yes	53	1	1432
6.6.1	win	2022-12-15	00:57:42	01:00:20	157017	5ae3a41d32ef52000131a531	356864729	1	practice_slash	5	advance_on_keypress_SLASH	18	stimuli_distractor_diamondtriangles.svg	stimuli_target_circletriangles.svg	7	yes	57	0	454
6.6.1	win	2022-12-15	00:57:42	01:00:23	160248	5ae3a41d32ef52000131a531	356864729	1	practice_slash	5	practice_slash	19	stimuli_target_circlediamonds.svg	stimuli_distractor_diamondtriangles.svg	1	yes	53	1	1131
6.6.1	win	2022-12-15	00:57:42	01:00:23	160248	5ae3a41d32ef52000131a531	356864729	1	practice_slash	5	advance_on_keypress_SLASH	20	stimuli_target_circlediamonds.svg	stimuli_distractor_diamondtriangles.svg	1	yes	57	0	405
6.6.1	win	2022-12-15	00:57:42	01:00:27	163865	5ae3a41d32ef52000131a531	356864729	1	practice_slash	5	practice_slash	21	stimuli_distractor_diamondtriangles.svg	stimuli_distractor_trianglediamonds.svg	14	no	53	0	1564
6.6.1	win	2022-12-15	00:57:42	01:00:27	163865	5ae3a41d32ef52000131a531	356864729	1	practice_slash	5	advance_on_keypress_SLASH	22	stimuli_distractor_diamondtriangles.svg	stimuli_distractor_trianglediamonds.svg	14	no	57	0	2229
6.6.1	win	2022-12-15	00:57:42	01:00:32	168768	5ae3a41d32ef52000131a531	356864729	1	practice_slash	5	practice_slash	23	stimuli_target_circlediamonds.svg	stimuli_distractor_trianglediamonds.svg	4	yes	53	1	1051
6.6.1	win	2022-12-15	00:57:42	01:00:32	168768	5ae3a41d32ef52000131a531	356864729	1	practice_slash	5	advance_on_keypress_SLASH	24	stimuli_target_circlediamonds.svg	stimuli_distractor_trianglediamonds.svg	4	yes	57	0	480
6.6.1	win	2022-12-15	00:57:42	01:00:36	172884	5ae3a41d32ef52000131a531	356864729	1	practice_slash	5	practice_slash	25	stimuli_distractor_trianglediamonds.svg	stimuli_distractor_trianglediamonds.svg	15	no	0	1	2000
6.6.1	win	2022-12-15	00:57:42	01:00:36	172884	5ae3a41d32ef52000131a531	356864729	1	practice_slash	5	advance_on_keypress_SLASH	26	stimuli_distractor_trianglediamonds.svg	stimuli_distractor_trianglediamonds.svg	15	no	57	0	348
6.6.1	win	2022-12-15	00:57:42	01:00:39	175865	5ae3a41d32ef52000131a531	356864729	1	practice_slash	5	practice_slash	27	stimuli_distractor_trianglediamonds.svg	stimuli_target_circlediamonds.svg	10	yes	53	1	997
6.6.1	win	2022-12-15	00:57:42	01:00:39	175865	5ae3a41d32ef52000131a531	356864729	1	practice_slash	5	advance_on_keypress_SLASH	28	stimuli_distractor_trianglediamonds.svg	stimuli_target_circlediamonds.svg	10	yes	57	0	533
6.6.1	win	2022-12-15	00:57:42	01:00:42	178960	5ae3a41d32ef52000131a531	356864729	1	practice_slash	5	practice_slash	29	stimuli_distractor_trianglediamonds.svg	stimuli_target_squarediamonds.svg	11	yes	53	1	926
6.6.1	win	2022-12-15	00:57:42	01:00:42	178960	5ae3a41d32ef52000131a531	356864729	1	practice_slash	5	advance_on_keypress_SLASH	30	stimuli_distractor_trianglediamonds.svg	stimuli_target_squarediamonds.svg	11	yes	57	0	353
6.6.1	win	2022-12-15	00:57:42	01:00:46	182951	5ae3a41d32ef52000131a531	356864729	1	practice_slash	5	practice_slash	31	stimuli_distractor_diamondtriangles.svg	stimuli_distractor_diamondtriangles.svg	13	no	0	1	2000
6.6.1	win	2022-12-15	00:57:42	01:00:46	182951	5ae3a41d32ef52000131a531	356864729	1	practice_slash	5	advance_on_keypress_SLASH	32	stimuli_distractor_diamondtriangles.svg	stimuli_distractor_diamondtriangles.svg	13	no	57	0	305
6.6.1	win	2022-12-15	00:57:42	01:01:01	197951	5ae3a41d32ef52000131a531	356864729	1	main_slash	7	main_slash	1	stimuli_distractor_trianglediamonds.svg	stimuli_distractor_trianglediamonds.svg	34	no	0	1	2000
6.6.1	win	2022-12-15	00:57:42	01:01:01	197951	5ae3a41d32ef52000131a531	356864729	1	main_slash	7	advance_on_keypress_SLASH	2	stimuli_distractor_trianglediamonds.svg	stimuli_distractor_trianglediamonds.svg	34	no	57	0	577
6.6.1	win	2022-12-15	00:57:42	01:01:04	201168	5ae3a41d32ef52000131a531	356864729	1	main_slash	7	main_slash	3	stimuli_distractor_trianglediamonds.svg	stimuli_distractor_diamondtriangles.svg	35	no	0	1	2000
6.6.1	win	2022-12-15	00:57:42	01:01:04	201168	5ae3a41d32ef52000131a531	356864729	1	main_slash	7	advance_on_keypress_SLASH	4	stimuli_distractor_trianglediamonds.svg	stimuli_distractor_diamondtriangles.svg	35	no	57	0	480
6.6.1	win	2022-12-15	00:57:42	01:01:06	203280	5ae3a41d32ef52000131a531	356864729	1	main_slash	7	main_slash	5	stimuli_target_trianglesquares.svg	stimuli_distractor_diamondtriangles.svg	22	yes	53	1	996
6.6.1	win	2022-12-15	00:57:42	01:01:06	203280	5ae3a41d32ef52000131a531	356864729	1	main_slash	7	advance_on_keypress_SLASH	6	stimuli_target_trianglesquares.svg	stimuli_distractor_diamondtriangles.svg	22	yes	57	0	788
6.6.1	win	2022-12-15	00:57:42	01:01:10	206701	5ae3a41d32ef52000131a531	356864729	1	main_slash	7	main_slash	7	stimuli_distractor_trianglediamonds.svg	stimuli_distractor_diamondtriangles.svg	36	no	0	1	2000
6.6.1	win	2022-12-15	00:57:42	01:01:10	206701	5ae3a41d32ef52000131a531	356864729	1	main_slash	7	advance_on_keypress_SLASH	8	stimuli_distractor_trianglediamonds.svg	stimuli_distractor_diamondtriangles.svg	36	no	57	0	1218
6.6.1	win	2022-12-15	00:57:42	01:01:13	209576	5ae3a41d32ef52000131a531	356864729	1	main_slash	7	main_slash	9	stimuli_target_circlediamonds.svg	stimuli_distractor_trianglediamonds.svg	2	yes	53	1	1008
6.6.1	win	2022-12-15	00:57:42	01:01:13	209576	5ae3a41d32ef52000131a531	356864729	1	main_slash	7	advance_on_keypress_SLASH	10	stimuli_target_circlediamonds.svg	stimuli_distractor_trianglediamonds.svg	2	yes	57	0	760
6.6.1	win	2022-12-15	00:57:42	01:01:15	211896	5ae3a41d32ef52000131a531	356864729	1	main_slash	7	main_slash	11	stimuli_distractor_trianglediamonds.svg	stimuli_target_squaretriangles.svg	11	yes	53	1	928
6.6.1	win	2022-12-15	00:57:42	01:01:15	211896	5ae3a41d32ef52000131a531	356864729	1	main_slash	7	advance_on_keypress_SLASH	12	stimuli_distractor_trianglediamonds.svg	stimuli_target_squaretriangles.svg	11	yes	57	0	731
6.6.1	win	2022-12-15	00:57:42	01:01:17	214176	5ae3a41d32ef52000131a531	356864729	1	main_slash	7	main_slash	13	stimuli_distractor_trianglediamonds.svg	stimuli_target_trianglesquares.svg	26	yes	53	1	925
6.6.1	win	2022-12-15	00:57:42	01:01:17	214176	5ae3a41d32ef52000131a531	356864729	1	main_slash	7	advance_on_keypress_SLASH	14	stimuli_distractor_trianglediamonds.svg	stimuli_target_trianglesquares.svg	26	yes	57	0	688
6.6.1	win	2022-12-15	00:57:42	01:01:19	216408	5ae3a41d32ef52000131a531	356864729	1	main_slash	7	main_slash	15	stimuli_target_trianglecircles.svg	stimuli_distractor_trianglediamonds.svg	17	yes	53	1	907
6.6.1	win	2022-12-15	00:57:42	01:01:19	216408	5ae3a41d32ef52000131a531	356864729	1	main_slash	7	advance_on_keypress_SLASH	16	stimuli_target_trianglecircles.svg	stimuli_distractor_trianglediamonds.svg	17	yes	57	0	622
6.6.1	win	2022-12-15	00:57:42	01:01:22	218648	5ae3a41d32ef52000131a531	356864729	1	main_slash	7	main_slash	17	stimuli_distractor_trianglediamonds.svg	stimuli_target_trianglecircles.svg	25	yes	53	1	980
6.6.1	win	2022-12-15	00:57:42	01:01:22	218648	5ae3a41d32ef52000131a531	356864729	1	main_slash	7	advance_on_keypress_SLASH	18	stimuli_distractor_trianglediamonds.svg	stimuli_target_trianglecircles.svg	25	yes	57	0	821
6.6.1	win	2022-12-15	00:57:42	01:01:25	221848	5ae3a41d32ef52000131a531	356864729	1	main_slash	7	main_slash	19	stimuli_distractor_diamondtriangles.svg	stimuli_target_circletriangles.svg	13	yes	53	1	1747
6.6.1	win	2022-12-15	00:57:42	01:01:25	221848	5ae3a41d32ef52000131a531	356864729	1	main_slash	7	advance_on_keypress_SLASH	20	stimuli_distractor_diamondtriangles.svg	stimuli_target_circletriangles.svg	13	yes	57	0	597
6.6.1	win	2022-12-15	00:57:42	01:01:28	224584	5ae3a41d32ef52000131a531	356864729	1	main_slash	7	main_slash	21	stimuli_target_trianglesquares.svg	stimuli_distractor_trianglediamonds.svg	18	yes	53	1	1516
6.6.1	win	2022-12-15	00:57:42	01:01:28	224584	5ae3a41d32ef52000131a531	356864729	1	main_slash	7	advance_on_keypress_SLASH	22	stimuli_target_trianglesquares.svg	stimuli_distractor_trianglediamonds.svg	18	yes	57	0	471
6.6.1	win	2022-12-15	00:57:42	01:01:31	227701	5ae3a41d32ef52000131a531	356864729	1	main_slash	7	main_slash	23	stimuli_target_circletriangles.svg	stimuli_distractor_trianglediamonds.svg	1	yes	0	0	2000
6.6.1	win	2022-12-15	00:57:42	01:01:31	227701	5ae3a41d32ef52000131a531	356864729	1	main_slash	7	advance_on_keypress_SLASH	24	stimuli_target_circletriangles.svg	stimuli_distractor_trianglediamonds.svg	1	yes	57	0	386
6.6.1	win	2022-12-15	00:57:42	01:01:33	229728	5ae3a41d32ef52000131a531	356864729	1	main_slash	7	main_slash	25	stimuli_target_squarediamonds.svg	stimuli_distractor_diamondtriangles.svg	8	yes	53	1	994
6.6.1	win	2022-12-15	00:57:42	01:01:33	229728	5ae3a41d32ef52000131a531	356864729	1	main_slash	7	advance_on_keypress_SLASH	26	stimuli_target_squarediamonds.svg	stimuli_distractor_diamondtriangles.svg	8	yes	57	0	658
6.6.1	win	2022-12-15	00:57:42	01:01:35	231960	5ae3a41d32ef52000131a531	356864729	1	main_slash	7	main_slash	27	stimuli_distractor_diamondtriangles.svg	stimuli_target_trianglesquares.svg	30	yes	53	1	942
6.6.1	win	2022-12-15	00:57:42	01:01:35	231960	5ae3a41d32ef52000131a531	356864729	1	main_slash	7	advance_on_keypress_SLASH	28	stimuli_distractor_diamondtriangles.svg	stimuli_target_trianglesquares.svg	30	yes	57	0	584
6.6.1	win	2022-12-15	00:57:42	01:01:37	234064	5ae3a41d32ef52000131a531	356864729	1	main_slash	7	main_slash	29	stimuli_distractor_diamondtriangles.svg	stimuli_target_squaretriangles.svg	15	yes	53	1	879
6.6.1	win	2022-12-15	00:57:42	01:01:37	234064	5ae3a41d32ef52000131a531	356864729	1	main_slash	7	advance_on_keypress_SLASH	30	stimuli_distractor_diamondtriangles.svg	stimuli_target_squaretriangles.svg	15	yes	57	0	588
6.6.1	win	2022-12-15	00:57:42	01:01:39	236208	5ae3a41d32ef52000131a531	356864729	1	main_slash	7	main_slash	31	stimuli_target_squaretriangles.svg	stimuli_distractor_trianglediamonds.svg	3	yes	53	1	923
6.6.1	win	2022-12-15	00:57:42	01:01:39	236208	5ae3a41d32ef52000131a531	356864729	1	main_slash	7	advance_on_keypress_SLASH	32	stimuli_target_squaretriangles.svg	stimuli_distractor_trianglediamonds.svg	3	yes	57	0	750
6.6.1	win	2022-12-15	00:57:42	01:01:43	239601	5ae3a41d32ef52000131a531	356864729	1	main_slash	7	main_slash	33	stimuli_distractor_diamondtriangles.svg	stimuli_target_diamondcircles.svg	31	yes	0	0	2000
6.6.1	win	2022-12-15	00:57:42	01:01:43	239601	5ae3a41d32ef52000131a531	356864729	1	main_slash	7	advance_on_keypress_SLASH	34	stimuli_distractor_diamondtriangles.svg	stimuli_target_diamondcircles.svg	31	yes	57	0	438
6.6.1	win	2022-12-15	00:57:42	01:01:45	241728	5ae3a41d32ef52000131a531	356864729	1	main_slash	7	main_slash	35	stimuli_target_squarediamonds.svg	stimuli_distractor_trianglediamonds.svg	4	yes	53	1	1043
6.6.1	win	2022-12-15	00:57:42	01:01:45	241728	5ae3a41d32ef52000131a531	356864729	1	main_slash	7	advance_on_keypress_SLASH	36	stimuli_target_squarediamonds.svg	stimuli_distractor_trianglediamonds.svg	4	yes	57	0	1497
6.6.1	win	2022-12-15	00:57:42	01:01:49	245852	5ae3a41d32ef52000131a531	356864729	1	main_slash	7	main_slash	37	stimuli_distractor_trianglediamonds.svg	stimuli_distractor_trianglediamonds.svg	33	no	0	1	2000
6.6.1	win	2022-12-15	00:57:42	01:01:49	245852	5ae3a41d32ef52000131a531	356864729	1	main_slash	7	advance_on_keypress_SLASH	38	stimuli_distractor_trianglediamonds.svg	stimuli_distractor_trianglediamonds.svg	33	no	57	0	452
6.6.1	win	2022-12-15	00:57:42	01:01:52	248952	5ae3a41d32ef52000131a531	356864729	1	main_slash	7	main_slash	39	stimuli_distractor_diamondtriangles.svg	stimuli_distractor_trianglediamonds.svg	37	no	0	1	2000
6.6.1	win	2022-12-15	00:57:42	01:01:52	248952	5ae3a41d32ef52000131a531	356864729	1	main_slash	7	advance_on_keypress_SLASH	40	stimuli_distractor_diamondtriangles.svg	stimuli_distractor_trianglediamonds.svg	37	no	57	0	408
6.6.1	win	2022-12-15	00:57:42	01:01:54	251016	5ae3a41d32ef52000131a531	356864729	1	main_slash	7	main_slash	41	stimuli_distractor_diamondtriangles.svg	stimuli_target_trianglecircles.svg	29	yes	53	1	1015
6.6.1	win	2022-12-15	00:57:42	01:01:54	251016	5ae3a41d32ef52000131a531	356864729	1	main_slash	7	advance_on_keypress_SLASH	42	stimuli_distractor_diamondtriangles.svg	stimuli_target_trianglecircles.svg	29	yes	57	0	526
6.6.1	win	2022-12-15	00:57:42	01:01:57	254168	5ae3a41d32ef52000131a531	356864729	1	main_slash	7	main_slash	43	stimuli_distractor_trianglediamonds.svg	stimuli_target_circletriangles.svg	9	yes	0	0	2000
6.6.1	win	2022-12-15	00:57:42	01:01:57	254168	5ae3a41d32ef52000131a531	356864729	1	main_slash	7	advance_on_keypress_SLASH	44	stimuli_distractor_trianglediamonds.svg	stimuli_target_circletriangles.svg	9	yes	57	0	487
6.6.1	win	2022-12-15	00:57:42	01:01:59	256464	5ae3a41d32ef52000131a531	356864729	1	main_slash	7	main_slash	45	stimuli_distractor_diamondtriangles.svg	stimuli_target_diamondsquares.svg	32	yes	53	1	1163
6.6.1	win	2022-12-15	00:57:42	01:01:59	256464	5ae3a41d32ef52000131a531	356864729	1	main_slash	7	advance_on_keypress_SLASH	46	stimuli_distractor_diamondtriangles.svg	stimuli_target_diamondsquares.svg	32	yes	57	0	476
6.6.1	win	2022-12-15	00:57:42	01:02:02	258472	5ae3a41d32ef52000131a531	356864729	1	main_slash	7	main_slash	47	stimuli_target_circletriangles.svg	stimuli_distractor_diamondtriangles.svg	5	yes	53	1	904
6.6.1	win	2022-12-15	00:57:42	01:02:02	258472	5ae3a41d32ef52000131a531	356864729	1	main_slash	7	advance_on_keypress_SLASH	48	stimuli_target_circletriangles.svg	stimuli_distractor_diamondtriangles.svg	5	yes	57	0	395
6.6.1	win	2022-12-15	00:57:42	01:02:03	260376	5ae3a41d32ef52000131a531	356864729	1	main_slash	7	main_slash	49	stimuli_distractor_diamondtriangles.svg	stimuli_target_squarediamonds.svg	16	yes	53	1	874
6.6.1	win	2022-12-15	00:57:42	01:02:03	260376	5ae3a41d32ef52000131a531	356864729	1	main_slash	7	advance_on_keypress_SLASH	50	stimuli_distractor_diamondtriangles.svg	stimuli_target_squarediamonds.svg	16	yes	57	0	335
6.6.1	win	2022-12-15	00:57:42	01:02:05	262088	5ae3a41d32ef52000131a531	356864729	1	main_slash	7	main_slash	51	stimuli_target_circlediamonds.svg	stimuli_distractor_diamondtriangles.svg	6	yes	53	1	736
6.6.1	win	2022-12-15	00:57:42	01:02:05	262088	5ae3a41d32ef52000131a531	356864729	1	main_slash	7	advance_on_keypress_SLASH	52	stimuli_target_circlediamonds.svg	stimuli_distractor_diamondtriangles.svg	6	yes	57	0	274
6.6.1	win	2022-12-15	00:57:42	01:02:07	264336	5ae3a41d32ef52000131a531	356864729	1	main_slash	7	main_slash	53	stimuli_target_diamondcircles.svg	stimuli_distractor_diamondtriangles.svg	23	yes	53	1	1334
6.6.1	win	2022-12-15	00:57:42	01:02:07	264336	5ae3a41d32ef52000131a531	356864729	1	main_slash	7	advance_on_keypress_SLASH	54	stimuli_target_diamondcircles.svg	stimuli_distractor_diamondtriangles.svg	23	yes	57	0	424
6.6.1	win	2022-12-15	00:57:42	01:02:09	266168	5ae3a41d32ef52000131a531	356864729	1	main_slash	7	main_slash	55	stimuli_target_trianglecircles.svg	stimuli_distractor_diamondtriangles.svg	21	yes	53	1	766
6.6.1	win	2022-12-15	00:57:42	01:02:09	266168	5ae3a41d32ef52000131a531	356864729	1	main_slash	7	advance_on_keypress_SLASH	56	stimuli_target_trianglecircles.svg	stimuli_distractor_diamondtriangles.svg	21	yes	57	0	335
6.6.1	win	2022-12-15	00:57:42	01:02:12	269152	5ae3a41d32ef52000131a531	356864729	1	main_slash	7	main_slash	57	stimuli_distractor_trianglediamonds.svg	stimuli_target_diamondcircles.svg	27	yes	0	0	2000
6.6.1	win	2022-12-15	00:57:42	01:02:12	269152	5ae3a41d32ef52000131a531	356864729	1	main_slash	7	advance_on_keypress_SLASH	58	stimuli_distractor_trianglediamonds.svg	stimuli_target_diamondcircles.svg	27	yes	57	0	312
6.6.1	win	2022-12-15	00:57:42	01:02:15	272102	5ae3a41d32ef52000131a531	356864729	1	main_slash	7	main_slash	59	stimuli_distractor_diamondtriangles.svg	stimuli_distractor_diamondtriangles.svg	39	no	0	1	2000
6.6.1	win	2022-12-15	00:57:42	01:02:15	272102	5ae3a41d32ef52000131a531	356864729	1	main_slash	7	advance_on_keypress_SLASH	60	stimuli_distractor_diamondtriangles.svg	stimuli_distractor_diamondtriangles.svg	39	no	57	0	250
6.6.1	win	2022-12-15	00:57:42	01:02:17	273920	5ae3a41d32ef52000131a531	356864729	1	main_slash	7	main_slash	61	stimuli_target_diamondcircles.svg	stimuli_distractor_trianglediamonds.svg	19	yes	53	1	918
6.6.1	win	2022-12-15	00:57:42	01:02:17	273920	5ae3a41d32ef52000131a531	356864729	1	main_slash	7	advance_on_keypress_SLASH	62	stimuli_target_diamondcircles.svg	stimuli_distractor_trianglediamonds.svg	19	yes	57	0	353
6.6.1	win	2022-12-15	00:57:42	01:02:20	276919	5ae3a41d32ef52000131a531	356864729	1	main_slash	7	main_slash	63	stimuli_distractor_diamondtriangles.svg	stimuli_distractor_diamondtriangles.svg	40	no	0	1	2000
6.6.1	win	2022-12-15	00:57:42	01:02:20	276919	5ae3a41d32ef52000131a531	356864729	1	main_slash	7	advance_on_keypress_SLASH	64	stimuli_distractor_diamondtriangles.svg	stimuli_distractor_diamondtriangles.svg	40	no	57	0	489
6.6.1	win	2022-12-15	00:57:42	01:02:22	278864	5ae3a41d32ef52000131a531	356864729	1	main_slash	7	main_slash	65	stimuli_distractor_trianglediamonds.svg	stimuli_target_squarediamonds.svg	12	yes	53	1	812
6.6.1	win	2022-12-15	00:57:42	01:02:22	278864	5ae3a41d32ef52000131a531	356864729	1	main_slash	7	advance_on_keypress_SLASH	66	stimuli_distractor_trianglediamonds.svg	stimuli_target_squarediamonds.svg	12	yes	57	0	324
6.6.1	win	2022-12-15	00:57:42	01:02:24	280624	5ae3a41d32ef52000131a531	356864729	1	main_slash	7	main_slash	67	stimuli_target_diamondsquares.svg	stimuli_distractor_diamondtriangles.svg	24	yes	53	1	806
6.6.1	win	2022-12-15	00:57:42	01:02:24	280624	5ae3a41d32ef52000131a531	356864729	1	main_slash	7	advance_on_keypress_SLASH	68	stimuli_target_diamondsquares.svg	stimuli_distractor_diamondtriangles.svg	24	yes	57	0	245
6.6.1	win	2022-12-15	00:57:42	01:02:25	282448	5ae3a41d32ef52000131a531	356864729	1	main_slash	7	main_slash	69	stimuli_distractor_trianglediamonds.svg	stimuli_target_circlediamonds.svg	10	yes	53	1	946
6.6.1	win	2022-12-15	00:57:42	01:02:25	282448	5ae3a41d32ef52000131a531	356864729	1	main_slash	7	advance_on_keypress_SLASH	70	stimuli_distractor_trianglediamonds.svg	stimuli_target_circlediamonds.svg	10	yes	57	0	364
6.6.1	win	2022-12-15	00:57:42	01:02:27	284200	5ae3a41d32ef52000131a531	356864729	1	main_slash	7	main_slash	71	stimuli_target_squaretriangles.svg	stimuli_distractor_diamondtriangles.svg	7	yes	53	1	765
6.6.1	win	2022-12-15	00:57:42	01:02:27	284200	5ae3a41d32ef52000131a531	356864729	1	main_slash	7	advance_on_keypress_SLASH	72	stimuli_target_squaretriangles.svg	stimuli_distractor_diamondtriangles.svg	7	yes	57	0	286
6.6.1	win	2022-12-15	00:57:42	01:02:30	286512	5ae3a41d32ef52000131a531	356864729	1	main_slash	7	main_slash	73	stimuli_distractor_trianglediamonds.svg	stimuli_target_diamondsquares.svg	28	yes	53	1	1393
6.6.1	win	2022-12-15	00:57:42	01:02:30	286512	5ae3a41d32ef52000131a531	356864729	1	main_slash	7	advance_on_keypress_SLASH	74	stimuli_distractor_trianglediamonds.svg	stimuli_target_diamondsquares.svg	28	yes	57	0	257
6.6.1	win	2022-12-15	00:57:42	01:02:32	289402	5ae3a41d32ef52000131a531	356864729	1	main_slash	7	main_slash	75	stimuli_distractor_diamondtriangles.svg	stimuli_distractor_trianglediamonds.svg	38	no	0	1	2000
6.6.1	win	2022-12-15	00:57:42	01:02:32	289402	5ae3a41d32ef52000131a531	356864729	1	main_slash	7	advance_on_keypress_SLASH	76	stimuli_distractor_diamondtriangles.svg	stimuli_distractor_trianglediamonds.svg	38	no	57	0	437
6.6.1	win	2022-12-15	00:57:42	01:02:35	291576	5ae3a41d32ef52000131a531	356864729	1	main_slash	7	main_slash	77	stimuli_distractor_diamondtriangles.svg	stimuli_target_circlediamonds.svg	14	yes	53	1	1091
6.6.1	win	2022-12-15	00:57:42	01:02:35	291576	5ae3a41d32ef52000131a531	356864729	1	main_slash	7	advance_on_keypress_SLASH	78	stimuli_distractor_diamondtriangles.svg	stimuli_target_circlediamonds.svg	14	yes	57	0	327
6.6.1	win	2022-12-15	00:57:42	01:02:37	293616	5ae3a41d32ef52000131a531	356864729	1	main_slash	7	main_slash	79	stimuli_target_diamondsquares.svg	stimuli_distractor_trianglediamonds.svg	20	yes	53	1	1081
6.6.1	win	2022-12-15	00:57:42	01:02:37	293616	5ae3a41d32ef52000131a531	356864729	1	main_slash	7	advance_on_keypress_SLASH	80	stimuli_target_diamondsquares.svg	stimuli_distractor_trianglediamonds.svg	20	yes	57	0	261
6.6.1	win	2022-12-15	00:57:42	01:02:40	296502	5ae3a41d32ef52000131a531	356864729	1	main_slash	7	main_slash	81	stimuli_distractor_diamondtriangles.svg	stimuli_distractor_diamondtriangles.svg	39	no	0	1	2000
6.6.1	win	2022-12-15	00:57:42	01:02:40	296502	5ae3a41d32ef52000131a531	356864729	1	main_slash	7	advance_on_keypress_SLASH	82	stimuli_distractor_diamondtriangles.svg	stimuli_distractor_diamondtriangles.svg	39	no	57	0	297
6.6.1	win	2022-12-15	00:57:42	01:02:42	298488	5ae3a41d32ef52000131a531	356864729	1	main_slash	7	main_slash	83	stimuli_distractor_diamondtriangles.svg	stimuli_target_diamondcircles.svg	31	yes	53	1	1053
6.6.1	win	2022-12-15	00:57:42	01:02:42	298488	5ae3a41d32ef52000131a531	356864729	1	main_slash	7	advance_on_keypress_SLASH	84	stimuli_distractor_diamondtriangles.svg	stimuli_target_diamondcircles.svg	31	yes	57	0	386
6.6.1	win	2022-12-15	00:57:42	01:02:43	300312	5ae3a41d32ef52000131a531	356864729	1	main_slash	7	main_slash	85	stimuli_distractor_diamondtriangles.svg	stimuli_target_squaretriangles.svg	15	yes	53	1	793
6.6.1	win	2022-12-15	00:57:42	01:02:43	300312	5ae3a41d32ef52000131a531	356864729	1	main_slash	7	advance_on_keypress_SLASH	86	stimuli_distractor_diamondtriangles.svg	stimuli_target_squaretriangles.svg	15	yes	57	0	337
6.6.1	win	2022-12-15	00:57:42	01:02:45	302016	5ae3a41d32ef52000131a531	356864729	1	main_slash	7	main_slash	87	stimuli_target_circlediamonds.svg	stimuli_distractor_trianglediamonds.svg	2	yes	53	1	731
6.6.1	win	2022-12-15	00:57:42	01:02:45	302016	5ae3a41d32ef52000131a531	356864729	1	main_slash	7	advance_on_keypress_SLASH	88	stimuli_target_circlediamonds.svg	stimuli_distractor_trianglediamonds.svg	2	yes	57	0	36525
6.6.1	win	2022-12-15	00:57:42	01:03:23	339816	5ae3a41d32ef52000131a531	356864729	1	main_slash	7	main_slash	89	stimuli_target_squaretriangles.svg	stimuli_distractor_trianglediamonds.svg	3	yes	53	1	647
6.6.1	win	2022-12-15	00:57:42	01:03:23	339816	5ae3a41d32ef52000131a531	356864729	1	main_slash	7	advance_on_keypress_SLASH	90	stimuli_target_squaretriangles.svg	stimuli_distractor_trianglediamonds.svg	3	yes	57	0	621
6.6.1	win	2022-12-15	00:57:42	01:03:25	341976	5ae3a41d32ef52000131a531	356864729	1	main_slash	7	main_slash	91	stimuli_target_diamondcircles.svg	stimuli_distractor_trianglediamonds.svg	19	yes	53	1	907
6.6.1	win	2022-12-15	00:57:42	01:03:25	341976	5ae3a41d32ef52000131a531	356864729	1	main_slash	7	advance_on_keypress_SLASH	92	stimuli_target_diamondcircles.svg	stimuli_distractor_trianglediamonds.svg	19	yes	57	0	302
6.6.1	win	2022-12-15	00:57:42	01:03:28	344919	5ae3a41d32ef52000131a531	356864729	1	main_slash	7	main_slash	93	stimuli_distractor_diamondtriangles.svg	stimuli_distractor_diamondtriangles.svg	40	no	0	1	2000
6.6.1	win	2022-12-15	00:57:42	01:03:28	344919	5ae3a41d32ef52000131a531	356864729	1	main_slash	7	advance_on_keypress_SLASH	94	stimuli_distractor_diamondtriangles.svg	stimuli_distractor_diamondtriangles.svg	40	no	57	0	328
6.6.1	win	2022-12-15	00:57:42	01:03:30	346816	5ae3a41d32ef52000131a531	356864729	1	main_slash	7	main_slash	95	stimuli_distractor_diamondtriangles.svg	stimuli_target_diamondsquares.svg	32	yes	53	1	930
6.6.1	win	2022-12-15	00:57:42	01:03:30	346816	5ae3a41d32ef52000131a531	356864729	1	main_slash	7	advance_on_keypress_SLASH	96	stimuli_distractor_diamondtriangles.svg	stimuli_target_diamondsquares.svg	32	yes	57	0	349
6.6.1	win	2022-12-15	00:57:42	01:03:32	348664	5ae3a41d32ef52000131a531	356864729	1	main_slash	7	main_slash	97	stimuli_distractor_diamondtriangles.svg	stimuli_target_trianglesquares.svg	30	yes	53	1	861
6.6.1	win	2022-12-15	00:57:42	01:03:32	348664	5ae3a41d32ef52000131a531	356864729	1	main_slash	7	advance_on_keypress_SLASH	98	stimuli_distractor_diamondtriangles.svg	stimuli_target_trianglesquares.svg	30	yes	57	0	339
6.6.1	win	2022-12-15	00:57:42	01:03:34	350504	5ae3a41d32ef52000131a531	356864729	1	main_slash	7	main_slash	99	stimuli_target_squaretriangles.svg	stimuli_distractor_diamondtriangles.svg	7	yes	53	1	868
6.6.1	win	2022-12-15	00:57:42	01:03:34	350504	5ae3a41d32ef52000131a531	356864729	1	main_slash	7	advance_on_keypress_SLASH	100	stimuli_target_squaretriangles.svg	stimuli_distractor_diamondtriangles.svg	7	yes	57	0	225
6.6.1	win	2022-12-15	00:57:42	01:03:35	352296	5ae3a41d32ef52000131a531	356864729	1	main_slash	7	main_slash	101	stimuli_distractor_trianglediamonds.svg	stimuli_target_trianglecircles.svg	25	yes	53	1	927
6.6.1	win	2022-12-15	00:57:42	01:03:35	352296	5ae3a41d32ef52000131a531	356864729	1	main_slash	7	advance_on_keypress_SLASH	102	stimuli_distractor_trianglediamonds.svg	stimuli_target_trianglecircles.svg	25	yes	57	0	345
6.6.1	win	2022-12-15	00:57:42	01:03:37	354088	5ae3a41d32ef52000131a531	356864729	1	main_slash	7	main_slash	103	stimuli_distractor_diamondtriangles.svg	stimuli_target_squarediamonds.svg	16	yes	53	1	819
6.6.1	win	2022-12-15	00:57:42	01:03:37	354088	5ae3a41d32ef52000131a531	356864729	1	main_slash	7	advance_on_keypress_SLASH	104	stimuli_distractor_diamondtriangles.svg	stimuli_target_squarediamonds.svg	16	yes	57	0	257
6.6.1	win	2022-12-15	00:57:42	01:03:39	355720	5ae3a41d32ef52000131a531	356864729	1	main_slash	7	main_slash	105	stimuli_target_circletriangles.svg	stimuli_distractor_trianglediamonds.svg	1	yes	53	1	734
6.6.1	win	2022-12-15	00:57:42	01:03:39	355720	5ae3a41d32ef52000131a531	356864729	1	main_slash	7	advance_on_keypress_SLASH	106	stimuli_target_circletriangles.svg	stimuli_distractor_trianglediamonds.svg	1	yes	57	0	336
6.6.1	win	2022-12-15	00:57:42	01:03:40	357464	5ae3a41d32ef52000131a531	356864729	1	main_slash	7	main_slash	107	stimuli_target_squarediamonds.svg	stimuli_distractor_trianglediamonds.svg	4	yes	53	1	761
6.6.1	win	2022-12-15	00:57:42	01:03:40	357464	5ae3a41d32ef52000131a531	356864729	1	main_slash	7	advance_on_keypress_SLASH	108	stimuli_target_squarediamonds.svg	stimuli_distractor_trianglediamonds.svg	4	yes	57	0	299
6.6.1	win	2022-12-15	00:57:42	01:03:42	359152	5ae3a41d32ef52000131a531	356864729	1	main_slash	7	main_slash	109	stimuli_distractor_diamondtriangles.svg	stimuli_target_trianglecircles.svg	29	yes	53	1	766
6.6.1	win	2022-12-15	00:57:42	01:03:42	359152	5ae3a41d32ef52000131a531	356864729	1	main_slash	7	advance_on_keypress_SLASH	110	stimuli_distractor_diamondtriangles.svg	stimuli_target_trianglecircles.svg	29	yes	57	0	303
6.6.1	win	2022-12-15	00:57:42	01:03:45	362103	5ae3a41d32ef52000131a531	356864729	1	main_slash	7	main_slash	111	stimuli_distractor_trianglediamonds.svg	stimuli_distractor_trianglediamonds.svg	33	no	0	1	2000
6.6.1	win	2022-12-15	00:57:42	01:03:45	362103	5ae3a41d32ef52000131a531	356864729	1	main_slash	7	advance_on_keypress_SLASH	112	stimuli_distractor_trianglediamonds.svg	stimuli_distractor_trianglediamonds.svg	33	no	57	0	601
6.6.1	win	2022-12-15	00:57:42	01:03:47	364408	5ae3a41d32ef52000131a531	356864729	1	main_slash	7	main_slash	113	stimuli_target_diamondsquares.svg	stimuli_distractor_diamondtriangles.svg	24	yes	53	1	1055
6.6.1	win	2022-12-15	00:57:42	01:03:47	364408	5ae3a41d32ef52000131a531	356864729	1	main_slash	7	advance_on_keypress_SLASH	114	stimuli_target_diamondsquares.svg	stimuli_distractor_diamondtriangles.svg	24	yes	57	0	509
6.6.1	win	2022-12-15	00:57:42	01:03:51	367553	5ae3a41d32ef52000131a531	356864729	1	main_slash	7	main_slash	115	stimuli_distractor_diamondtriangles.svg	stimuli_distractor_trianglediamonds.svg	37	no	0	1	2000
6.6.1	win	2022-12-15	00:57:42	01:03:51	367553	5ae3a41d32ef52000131a531	356864729	1	main_slash	7	advance_on_keypress_SLASH	116	stimuli_distractor_diamondtriangles.svg	stimuli_distractor_trianglediamonds.svg	37	no	57	0	334
6.6.1	win	2022-12-15	00:57:42	01:03:53	369600	5ae3a41d32ef52000131a531	356864729	1	main_slash	7	main_slash	117	stimuli_distractor_trianglediamonds.svg	stimuli_target_circlediamonds.svg	10	yes	53	1	1064
6.6.1	win	2022-12-15	00:57:42	01:03:53	369600	5ae3a41d32ef52000131a531	356864729	1	main_slash	7	advance_on_keypress_SLASH	118	stimuli_distractor_trianglediamonds.svg	stimuli_target_circlediamonds.svg	10	yes	57	0	573
6.6.1	win	2022-12-15	00:57:42	01:03:55	371656	5ae3a41d32ef52000131a531	356864729	1	main_slash	7	main_slash	119	stimuli_target_trianglecircles.svg	stimuli_distractor_trianglediamonds.svg	17	yes	53	1	853
6.6.1	win	2022-12-15	00:57:42	01:03:55	371656	5ae3a41d32ef52000131a531	356864729	1	main_slash	7	advance_on_keypress_SLASH	120	stimuli_target_trianglecircles.svg	stimuli_distractor_trianglediamonds.svg	17	yes	57	0	11666
6.6.1	win	2022-12-15	00:57:42	01:04:09	385970	5ae3a41d32ef52000131a531	356864729	1	main_slash	7	main_slash	121	stimuli_distractor_trianglediamonds.svg	stimuli_distractor_diamondtriangles.svg	36	no	0	1	2000
6.6.1	win	2022-12-15	00:57:42	01:04:09	385970	5ae3a41d32ef52000131a531	356864729	1	main_slash	7	advance_on_keypress_SLASH	122	stimuli_distractor_trianglediamonds.svg	stimuli_distractor_diamondtriangles.svg	36	no	57	0	454
6.6.1	win	2022-12-15	00:57:42	01:04:11	387824	5ae3a41d32ef52000131a531	356864729	1	main_slash	7	main_slash	123	stimuli_target_trianglecircles.svg	stimuli_distractor_diamondtriangles.svg	21	yes	53	1	754
6.6.1	win	2022-12-15	00:57:42	01:04:11	387824	5ae3a41d32ef52000131a531	356864729	1	main_slash	7	advance_on_keypress_SLASH	124	stimuli_target_trianglecircles.svg	stimuli_distractor_diamondtriangles.svg	21	yes	57	0	332
6.6.1	win	2022-12-15	00:57:42	01:04:13	389696	5ae3a41d32ef52000131a531	356864729	1	main_slash	7	main_slash	125	stimuli_distractor_trianglediamonds.svg	stimuli_target_diamondcircles.svg	27	yes	53	1	910
6.6.1	win	2022-12-15	00:57:42	01:04:13	389696	5ae3a41d32ef52000131a531	356864729	1	main_slash	7	advance_on_keypress_SLASH	126	stimuli_distractor_trianglediamonds.svg	stimuli_target_diamondcircles.svg	27	yes	57	0	249
6.6.1	win	2022-12-15	00:57:42	01:04:14	391400	5ae3a41d32ef52000131a531	356864729	1	main_slash	7	main_slash	127	stimuli_distractor_diamondtriangles.svg	stimuli_target_circlediamonds.svg	14	yes	53	1	814
6.6.1	win	2022-12-15	00:57:42	01:04:14	391400	5ae3a41d32ef52000131a531	356864729	1	main_slash	7	advance_on_keypress_SLASH	128	stimuli_distractor_diamondtriangles.svg	stimuli_target_circlediamonds.svg	14	yes	57	0	277
6.6.1	win	2022-12-15	00:57:42	01:04:16	393104	5ae3a41d32ef52000131a531	356864729	1	main_slash	7	main_slash	129	stimuli_distractor_trianglediamonds.svg	stimuli_target_squaretriangles.svg	11	yes	53	1	801
6.6.1	win	2022-12-15	00:57:42	01:04:16	393104	5ae3a41d32ef52000131a531	356864729	1	main_slash	7	advance_on_keypress_SLASH	130	stimuli_distractor_trianglediamonds.svg	stimuli_target_squaretriangles.svg	11	yes	57	0	320
6.6.1	win	2022-12-15	00:57:42	01:04:18	394832	5ae3a41d32ef52000131a531	356864729	1	main_slash	7	main_slash	131	stimuli_distractor_trianglediamonds.svg	stimuli_target_circletriangles.svg	9	yes	53	1	762
6.6.1	win	2022-12-15	00:57:42	01:04:18	394832	5ae3a41d32ef52000131a531	356864729	1	main_slash	7	advance_on_keypress_SLASH	132	stimuli_distractor_trianglediamonds.svg	stimuli_target_circletriangles.svg	9	yes	57	0	331
6.6.1	win	2022-12-15	00:57:42	01:04:20	396544	5ae3a41d32ef52000131a531	356864729	1	main_slash	7	main_slash	133	stimuli_target_circlediamonds.svg	stimuli_distractor_diamondtriangles.svg	6	yes	53	1	757
6.6.1	win	2022-12-15	00:57:42	01:04:20	396544	5ae3a41d32ef52000131a531	356864729	1	main_slash	7	advance_on_keypress_SLASH	134	stimuli_target_circlediamonds.svg	stimuli_distractor_diamondtriangles.svg	6	yes	57	0	351
6.6.1	win	2022-12-15	00:57:42	01:04:21	398344	5ae3a41d32ef52000131a531	356864729	1	main_slash	7	main_slash	135	stimuli_distractor_trianglediamonds.svg	stimuli_target_squarediamonds.svg	12	yes	53	1	807
6.6.1	win	2022-12-15	00:57:42	01:04:21	398344	5ae3a41d32ef52000131a531	356864729	1	main_slash	7	advance_on_keypress_SLASH	136	stimuli_distractor_trianglediamonds.svg	stimuli_target_squarediamonds.svg	12	yes	57	0	231
6.6.1	win	2022-12-15	00:57:42	01:04:23	400000	5ae3a41d32ef52000131a531	356864729	1	main_slash	7	main_slash	137	stimuli_distractor_diamondtriangles.svg	stimuli_target_circletriangles.svg	13	yes	53	1	797
6.6.1	win	2022-12-15	00:57:42	01:04:23	400000	5ae3a41d32ef52000131a531	356864729	1	main_slash	7	advance_on_keypress_SLASH	138	stimuli_distractor_diamondtriangles.svg	stimuli_target_circletriangles.svg	13	yes	57	0	389
6.6.1	win	2022-12-15	00:57:42	01:04:25	402336	5ae3a41d32ef52000131a531	356864729	1	main_slash	7	main_slash	139	stimuli_distractor_trianglediamonds.svg	stimuli_target_diamondsquares.svg	28	yes	53	1	1316
6.6.1	win	2022-12-15	00:57:42	01:04:25	402336	5ae3a41d32ef52000131a531	356864729	1	main_slash	7	advance_on_keypress_SLASH	140	stimuli_distractor_trianglediamonds.svg	stimuli_target_diamondsquares.svg	28	yes	57	0	319
6.6.1	win	2022-12-15	00:57:42	01:04:27	404256	5ae3a41d32ef52000131a531	356864729	1	main_slash	7	main_slash	141	stimuli_target_diamondcircles.svg	stimuli_distractor_diamondtriangles.svg	23	yes	53	1	953
6.6.1	win	2022-12-15	00:57:42	01:04:27	404256	5ae3a41d32ef52000131a531	356864729	1	main_slash	7	advance_on_keypress_SLASH	142	stimuli_target_diamondcircles.svg	stimuli_distractor_diamondtriangles.svg	23	yes	57	0	202
6.6.1	win	2022-12-15	00:57:42	01:04:29	405808	5ae3a41d32ef52000131a531	356864729	1	main_slash	7	main_slash	143	stimuli_target_diamondsquares.svg	stimuli_distractor_trianglediamonds.svg	20	yes	53	1	705
6.6.1	win	2022-12-15	00:57:42	01:04:29	405808	5ae3a41d32ef52000131a531	356864729	1	main_slash	7	advance_on_keypress_SLASH	144	stimuli_target_diamondsquares.svg	stimuli_distractor_trianglediamonds.svg	20	yes	57	0	244
6.6.1	win	2022-12-15	00:57:42	01:04:32	408687	5ae3a41d32ef52000131a531	356864729	1	main_slash	7	main_slash	145	stimuli_distractor_trianglediamonds.svg	stimuli_distractor_diamondtriangles.svg	35	no	0	1	2000
6.6.1	win	2022-12-15	00:57:42	01:04:32	408687	5ae3a41d32ef52000131a531	356864729	1	main_slash	7	advance_on_keypress_SLASH	146	stimuli_distractor_trianglediamonds.svg	stimuli_distractor_diamondtriangles.svg	35	no	57	0	369
6.6.1	win	2022-12-15	00:57:42	01:04:34	411000	5ae3a41d32ef52000131a531	356864729	1	main_slash	7	main_slash	147	stimuli_distractor_diamondtriangles.svg	stimuli_distractor_trianglediamonds.svg	38	no	53	0	1297
6.6.1	win	2022-12-15	00:57:42	01:04:34	411000	5ae3a41d32ef52000131a531	356864729	1	main_slash	7	advance_on_keypress_SLASH	148	stimuli_distractor_diamondtriangles.svg	stimuli_distractor_trianglediamonds.svg	38	no	57	0	557
6.6.1	win	2022-12-15	00:57:42	01:04:36	413152	5ae3a41d32ef52000131a531	356864729	1	main_slash	7	main_slash	149	stimuli_distractor_trianglediamonds.svg	stimuli_target_trianglesquares.svg	26	yes	53	1	965
6.6.1	win	2022-12-15	00:57:42	01:04:36	413152	5ae3a41d32ef52000131a531	356864729	1	main_slash	7	advance_on_keypress_SLASH	150	stimuli_distractor_trianglediamonds.svg	stimuli_target_trianglesquares.svg	26	yes	57	0	343
6.6.1	win	2022-12-15	00:57:42	01:04:39	416120	5ae3a41d32ef52000131a531	356864729	1	main_slash	7	main_slash	151	stimuli_distractor_trianglediamonds.svg	stimuli_distractor_trianglediamonds.svg	34	no	0	1	2000
6.6.1	win	2022-12-15	00:57:42	01:04:39	416120	5ae3a41d32ef52000131a531	356864729	1	main_slash	7	advance_on_keypress_SLASH	152	stimuli_distractor_trianglediamonds.svg	stimuli_distractor_trianglediamonds.svg	34	no	57	0	287
6.6.1	win	2022-12-15	00:57:42	01:04:41	418016	5ae3a41d32ef52000131a531	356864729	1	main_slash	7	main_slash	153	stimuli_target_squarediamonds.svg	stimuli_distractor_diamondtriangles.svg	8	yes	53	1	963
6.6.1	win	2022-12-15	00:57:42	01:04:41	418016	5ae3a41d32ef52000131a531	356864729	1	main_slash	7	advance_on_keypress_SLASH	154	stimuli_target_squarediamonds.svg	stimuli_distractor_diamondtriangles.svg	8	yes	57	0	420
6.6.1	win	2022-12-15	00:57:42	01:04:43	419960	5ae3a41d32ef52000131a531	356864729	1	main_slash	7	main_slash	155	stimuli_target_trianglesquares.svg	stimuli_distractor_trianglediamonds.svg	18	yes	53	1	890
6.6.1	win	2022-12-15	00:57:42	01:04:43	419960	5ae3a41d32ef52000131a531	356864729	1	main_slash	7	advance_on_keypress_SLASH	156	stimuli_target_trianglesquares.svg	stimuli_distractor_trianglediamonds.svg	18	yes	57	0	350
6.6.1	win	2022-12-15	00:57:42	01:04:45	421760	5ae3a41d32ef52000131a531	356864729	1	main_slash	7	main_slash	157	stimuli_target_circletriangles.svg	stimuli_distractor_diamondtriangles.svg	5	yes	53	1	806
6.6.1	win	2022-12-15	00:57:42	01:04:45	421760	5ae3a41d32ef52000131a531	356864729	1	main_slash	7	advance_on_keypress_SLASH	158	stimuli_target_circletriangles.svg	stimuli_distractor_diamondtriangles.svg	5	yes	57	0	382
6.6.1	win	2022-12-15	00:57:42	01:04:47	423608	5ae3a41d32ef52000131a531	356864729	1	main_slash	7	main_slash	159	stimuli_target_trianglesquares.svg	stimuli_distractor_diamondtriangles.svg	22	yes	53	1	838
6.6.1	win	2022-12-15	00:57:42	01:04:47	423608	5ae3a41d32ef52000131a531	356864729	1	main_slash	7	advance_on_keypress_SLASH	160	stimuli_target_trianglesquares.svg	stimuli_distractor_diamondtriangles.svg	22	yes	57	0	404
6.6.1	win	2022-12-15	00:57:42	01:06:31	528064	5ae3a41d32ef52000131a531	356864729	1	practice_z	9	practice_z	1	stimuli_distractor_diamondtriangles.svg	stimuli_target_trianglecircles.svg	9	yes	44	1	693
6.6.1	win	2022-12-15	00:57:42	01:06:31	528064	5ae3a41d32ef52000131a531	356864729	1	practice_z	9	advance_on_keypress_ZEE	2	stimuli_distractor_diamondtriangles.svg	stimuli_target_trianglecircles.svg	9	yes	57	0	609
6.6.1	win	2022-12-15	00:57:42	01:06:34	531008	5ae3a41d32ef52000131a531	356864729	1	practice_z	9	practice_z	3	stimuli_distractor_diamondtriangles.svg	stimuli_target_circletriangles.svg	7	yes	44	1	703
6.6.1	win	2022-12-15	00:57:42	01:06:34	531008	5ae3a41d32ef52000131a531	356864729	1	practice_z	9	advance_on_keypress_ZEE	4	stimuli_distractor_diamondtriangles.svg	stimuli_target_circletriangles.svg	7	yes	57	0	266
6.6.1	win	2022-12-15	00:57:42	01:06:37	533712	5ae3a41d32ef52000131a531	356864729	1	practice_z	9	practice_z	5	stimuli_distractor_trianglediamonds.svg	stimuli_target_circlediamonds.svg	10	yes	44	1	790
6.6.1	win	2022-12-15	00:57:42	01:06:37	533712	5ae3a41d32ef52000131a531	356864729	1	practice_z	9	advance_on_keypress_ZEE	6	stimuli_distractor_trianglediamonds.svg	stimuli_target_circlediamonds.svg	10	yes	57	0	254
6.6.1	win	2022-12-15	00:57:42	01:06:41	537605	5ae3a41d32ef52000131a531	356864729	1	practice_z	9	practice_z	7	stimuli_distractor_trianglediamonds.svg	stimuli_distractor_diamondtriangles.svg	16	no	0	1	2000
6.6.1	win	2022-12-15	00:57:42	01:06:41	537605	5ae3a41d32ef52000131a531	356864729	1	practice_z	9	advance_on_keypress_ZEE	8	stimuli_distractor_trianglediamonds.svg	stimuli_distractor_diamondtriangles.svg	16	no	57	0	258
6.6.1	win	2022-12-15	00:57:42	01:06:43	540336	5ae3a41d32ef52000131a531	356864729	1	practice_z	9	practice_z	9	stimuli_target_squarediamonds.svg	stimuli_distractor_trianglediamonds.svg	5	yes	44	1	831
6.6.1	win	2022-12-15	00:57:42	01:06:43	540336	5ae3a41d32ef52000131a531	356864729	1	practice_z	9	advance_on_keypress_ZEE	10	stimuli_target_squarediamonds.svg	stimuli_distractor_trianglediamonds.svg	5	yes	57	0	6
6.6.1	win	2022-12-15	00:57:42	01:06:46	542784	5ae3a41d32ef52000131a531	356864729	1	practice_z	9	practice_z	11	stimuli_target_squarediamonds.svg	stimuli_distractor_diamondtriangles.svg	2	yes	44	1	796
6.6.1	win	2022-12-15	00:57:42	01:06:46	542784	5ae3a41d32ef52000131a531	356864729	1	practice_z	9	advance_on_keypress_ZEE	12	stimuli_target_squarediamonds.svg	stimuli_distractor_diamondtriangles.svg	2	yes	57	0	108
6.6.1	win	2022-12-15	00:57:42	01:06:50	546522	5ae3a41d32ef52000131a531	356864729	1	practice_z	9	practice_z	13	stimuli_distractor_diamondtriangles.svg	stimuli_distractor_diamondtriangles.svg	13	no	0	1	2000
6.6.1	win	2022-12-15	00:57:42	01:06:50	546522	5ae3a41d32ef52000131a531	356864729	1	practice_z	9	advance_on_keypress_ZEE	14	stimuli_distractor_diamondtriangles.svg	stimuli_distractor_diamondtriangles.svg	13	no	57	0	302
6.6.1	win	2022-12-15	00:57:42	01:06:52	549368	5ae3a41d32ef52000131a531	356864729	1	practice_z	9	practice_z	15	stimuli_distractor_trianglediamonds.svg	stimuli_target_diamondcircles.svg	12	yes	44	1	896
6.6.1	win	2022-12-15	00:57:42	01:06:52	549368	5ae3a41d32ef52000131a531	356864729	1	practice_z	9	advance_on_keypress_ZEE	16	stimuli_distractor_trianglediamonds.svg	stimuli_target_diamondcircles.svg	12	yes	57	0	260
6.6.1	win	2022-12-15	00:57:42	01:06:55	552088	5ae3a41d32ef52000131a531	356864729	1	practice_z	9	practice_z	17	stimuli_distractor_diamondtriangles.svg	stimuli_target_diamondcircles.svg	8	yes	44	1	833
6.6.1	win	2022-12-15	00:57:42	01:06:55	552088	5ae3a41d32ef52000131a531	356864729	1	practice_z	9	advance_on_keypress_ZEE	18	stimuli_distractor_diamondtriangles.svg	stimuli_target_diamondcircles.svg	8	yes	57	0	263
6.6.1	win	2022-12-15	00:57:42	01:06:59	555989	5ae3a41d32ef52000131a531	356864729	1	practice_z	9	practice_z	19	stimuli_distractor_trianglediamonds.svg	stimuli_distractor_trianglediamonds.svg	15	no	0	1	2000
6.6.1	win	2022-12-15	00:57:42	01:06:59	555989	5ae3a41d32ef52000131a531	356864729	1	practice_z	9	advance_on_keypress_ZEE	20	stimuli_distractor_trianglediamonds.svg	stimuli_distractor_trianglediamonds.svg	15	no	57	0	531
6.6.1	win	2022-12-15	00:57:42	01:07:02	558977	5ae3a41d32ef52000131a531	356864729	1	practice_z	9	practice_z	21	stimuli_target_circlediamonds.svg	stimuli_distractor_diamondtriangles.svg	1	yes	44	1	821
6.6.1	win	2022-12-15	00:57:42	01:07:02	558977	5ae3a41d32ef52000131a531	356864729	1	practice_z	9	advance_on_keypress_ZEE	22	stimuli_target_circlediamonds.svg	stimuli_distractor_diamondtriangles.svg	1	yes	57	0	203
6.6.1	win	2022-12-15	00:57:42	01:07:05	561664	5ae3a41d32ef52000131a531	356864729	1	practice_z	9	practice_z	23	stimuli_target_circlediamonds.svg	stimuli_distractor_trianglediamonds.svg	4	yes	44	1	842
6.6.1	win	2022-12-15	00:57:42	01:07:05	561664	5ae3a41d32ef52000131a531	356864729	1	practice_z	9	advance_on_keypress_ZEE	24	stimuli_target_circlediamonds.svg	stimuli_distractor_trianglediamonds.svg	4	yes	57	0	464
6.6.1	win	2022-12-15	00:57:42	01:07:09	565756	5ae3a41d32ef52000131a531	356864729	1	practice_z	9	practice_z	25	stimuli_distractor_diamondtriangles.svg	stimuli_distractor_trianglediamonds.svg	14	no	0	1	2000
6.6.1	win	2022-12-15	00:57:42	01:07:09	565756	5ae3a41d32ef52000131a531	356864729	1	practice_z	9	advance_on_keypress_ZEE	26	stimuli_distractor_diamondtriangles.svg	stimuli_distractor_trianglediamonds.svg	14	no	57	0	340
6.6.1	win	2022-12-15	00:57:42	01:07:13	569739	5ae3a41d32ef52000131a531	356864729	1	practice_z	9	practice_z	27	stimuli_target_diamondsquares.svg	stimuli_distractor_trianglediamonds.svg	6	yes	0	0	2000
6.6.1	win	2022-12-15	00:57:42	01:07:13	569739	5ae3a41d32ef52000131a531	356864729	1	practice_z	9	advance_on_keypress_ZEE	28	stimuli_target_diamondsquares.svg	stimuli_distractor_trianglediamonds.svg	6	yes	57	0	309
6.6.1	win	2022-12-15	00:57:42	01:07:16	572528	5ae3a41d32ef52000131a531	356864729	1	practice_z	9	practice_z	29	stimuli_distractor_trianglediamonds.svg	stimuli_target_squarediamonds.svg	11	yes	44	1	839
6.6.1	win	2022-12-15	00:57:42	01:07:16	572528	5ae3a41d32ef52000131a531	356864729	1	practice_z	9	advance_on_keypress_ZEE	30	stimuli_distractor_trianglediamonds.svg	stimuli_target_squarediamonds.svg	11	yes	57	0	317
6.6.1	win	2022-12-15	00:57:42	01:07:18	575312	5ae3a41d32ef52000131a531	356864729	1	practice_z	9	practice_z	31	stimuli_target_diamondsquares.svg	stimuli_distractor_diamondtriangles.svg	3	yes	44	1	823
6.6.1	win	2022-12-15	00:57:42	01:07:18	575312	5ae3a41d32ef52000131a531	356864729	1	practice_z	9	advance_on_keypress_ZEE	32	stimuli_target_diamondsquares.svg	stimuli_distractor_diamondtriangles.svg	3	yes	57	0	302
6.6.1	win	2022-12-15	00:57:42	01:07:22	579072	5ae3a41d32ef52000131a531	356864729	1	main_z	11	main_z	1	stimuli_distractor_diamondtriangles.svg	stimuli_target_circletriangles.svg	13	yes	44	1	900
6.6.1	win	2022-12-15	00:57:42	01:07:22	579072	5ae3a41d32ef52000131a531	356864729	1	main_z	11	advance_on_keypress_ZEE	2	stimuli_distractor_diamondtriangles.svg	stimuli_target_circletriangles.svg	13	yes	57	0	567
6.6.1	win	2022-12-15	00:57:42	01:07:24	581208	5ae3a41d32ef52000131a531	356864729	1	main_z	11	main_z	3	stimuli_distractor_trianglediamonds.svg	stimuli_target_trianglesquares.svg	26	yes	44	1	919
6.6.1	win	2022-12-15	00:57:42	01:07:24	581208	5ae3a41d32ef52000131a531	356864729	1	main_z	11	advance_on_keypress_ZEE	4	stimuli_distractor_trianglediamonds.svg	stimuli_target_trianglesquares.svg	26	yes	57	0	402
6.6.1	win	2022-12-15	00:57:42	01:07:26	583024	5ae3a41d32ef52000131a531	356864729	1	main_z	11	main_z	5	stimuli_distractor_trianglediamonds.svg	stimuli_distractor_trianglediamonds.svg	34	no	44	0	769
6.6.1	win	2022-12-15	00:57:42	01:07:26	583024	5ae3a41d32ef52000131a531	356864729	1	main_z	11	advance_on_keypress_ZEE	6	stimuli_distractor_trianglediamonds.svg	stimuli_distractor_trianglediamonds.svg	34	no	57	0	297
6.6.1	win	2022-12-15	00:57:42	01:07:28	584720	5ae3a41d32ef52000131a531	356864729	1	main_z	11	main_z	7	stimuli_distractor_trianglediamonds.svg	stimuli_target_circletriangles.svg	9	yes	44	1	765
6.6.1	win	2022-12-15	00:57:42	01:07:28	584720	5ae3a41d32ef52000131a531	356864729	1	main_z	11	advance_on_keypress_ZEE	8	stimuli_distractor_trianglediamonds.svg	stimuli_target_circletriangles.svg	9	yes	57	0	222
6.6.1	win	2022-12-15	00:57:42	01:07:29	586256	5ae3a41d32ef52000131a531	356864729	1	main_z	11	main_z	9	stimuli_distractor_trianglediamonds.svg	stimuli_target_circlediamonds.svg	10	yes	44	1	684
6.6.1	win	2022-12-15	00:57:42	01:07:29	586256	5ae3a41d32ef52000131a531	356864729	1	main_z	11	advance_on_keypress_ZEE	10	stimuli_distractor_trianglediamonds.svg	stimuli_target_circlediamonds.svg	10	yes	57	0	448
6.6.1	win	2022-12-15	00:57:42	01:07:31	588032	5ae3a41d32ef52000131a531	356864729	1	main_z	11	main_z	11	stimuli_target_circletriangles.svg	stimuli_distractor_trianglediamonds.svg	1	yes	44	1	693
6.6.1	win	2022-12-15	00:57:42	01:07:31	588032	5ae3a41d32ef52000131a531	356864729	1	main_z	11	advance_on_keypress_ZEE	12	stimuli_target_circletriangles.svg	stimuli_distractor_trianglediamonds.svg	1	yes	57	0	297
6.6.1	win	2022-12-15	00:57:42	01:07:34	590956	5ae3a41d32ef52000131a531	356864729	1	main_z	11	main_z	13	stimuli_distractor_trianglediamonds.svg	stimuli_distractor_diamondtriangles.svg	36	no	0	1	2000
6.6.1	win	2022-12-15	00:57:42	01:07:34	590956	5ae3a41d32ef52000131a531	356864729	1	main_z	11	advance_on_keypress_ZEE	14	stimuli_distractor_trianglediamonds.svg	stimuli_distractor_diamondtriangles.svg	36	no	57	0	331
6.6.1	win	2022-12-15	00:57:42	01:07:36	592704	5ae3a41d32ef52000131a531	356864729	1	main_z	11	main_z	15	stimuli_distractor_diamondtriangles.svg	stimuli_target_circlediamonds.svg	14	yes	44	1	782
6.6.1	win	2022-12-15	00:57:42	01:07:36	592704	5ae3a41d32ef52000131a531	356864729	1	main_z	11	advance_on_keypress_ZEE	16	stimuli_distractor_diamondtriangles.svg	stimuli_target_circlediamonds.svg	14	yes	57	0	262
6.6.1	win	2022-12-15	00:57:42	01:07:37	594296	5ae3a41d32ef52000131a531	356864729	1	main_z	11	main_z	17	stimuli_target_squaretriangles.svg	stimuli_distractor_trianglediamonds.svg	3	yes	44	1	707
6.6.1	win	2022-12-15	00:57:42	01:07:37	594296	5ae3a41d32ef52000131a531	356864729	1	main_z	11	advance_on_keypress_ZEE	18	stimuli_target_squaretriangles.svg	stimuli_distractor_trianglediamonds.svg	3	yes	57	0	254
6.6.1	win	2022-12-15	00:57:42	01:07:40	597190	5ae3a41d32ef52000131a531	356864729	1	main_z	11	main_z	19	stimuli_distractor_trianglediamonds.svg	stimuli_distractor_diamondtriangles.svg	35	no	0	1	2000
6.6.1	win	2022-12-15	00:57:42	01:07:40	597190	5ae3a41d32ef52000131a531	356864729	1	main_z	11	advance_on_keypress_ZEE	20	stimuli_distractor_trianglediamonds.svg	stimuli_distractor_diamondtriangles.svg	35	no	57	0	362
6.6.1	win	2022-12-15	00:57:42	01:07:43	600189	5ae3a41d32ef52000131a531	356864729	1	main_z	11	main_z	21	stimuli_distractor_diamondtriangles.svg	stimuli_distractor_diamondtriangles.svg	40	no	0	1	2000
6.6.1	win	2022-12-15	00:57:42	01:07:43	600189	5ae3a41d32ef52000131a531	356864729	1	main_z	11	advance_on_keypress_ZEE	22	stimuli_distractor_diamondtriangles.svg	stimuli_distractor_diamondtriangles.svg	40	no	57	0	746
6.6.1	win	2022-12-15	00:57:42	01:07:46	602728	5ae3a41d32ef52000131a531	356864729	1	main_z	11	main_z	23	stimuli_distractor_diamondtriangles.svg	stimuli_target_diamondsquares.svg	32	yes	44	1	1156
6.6.1	win	2022-12-15	00:57:42	01:07:46	602728	5ae3a41d32ef52000131a531	356864729	1	main_z	11	advance_on_keypress_ZEE	24	stimuli_distractor_diamondtriangles.svg	stimuli_target_diamondsquares.svg	32	yes	57	0	533
6.6.1	win	2022-12-15	00:57:42	01:07:48	604728	5ae3a41d32ef52000131a531	356864729	1	main_z	11	main_z	25	stimuli_distractor_diamondtriangles.svg	stimuli_target_trianglecircles.svg	29	yes	44	1	822
6.6.1	win	2022-12-15	00:57:42	01:07:48	604728	5ae3a41d32ef52000131a531	356864729	1	main_z	11	advance_on_keypress_ZEE	26	stimuli_distractor_diamondtriangles.svg	stimuli_target_trianglecircles.svg	29	yes	57	0	389
6.6.1	win	2022-12-15	00:57:42	01:07:50	606624	5ae3a41d32ef52000131a531	356864729	1	main_z	11	main_z	27	stimuli_target_trianglecircles.svg	stimuli_distractor_trianglediamonds.svg	17	yes	44	1	868
6.6.1	win	2022-12-15	00:57:42	01:07:50	606624	5ae3a41d32ef52000131a531	356864729	1	main_z	11	advance_on_keypress_ZEE	28	stimuli_target_trianglecircles.svg	stimuli_distractor_trianglediamonds.svg	17	yes	57	0	233
6.6.1	win	2022-12-15	00:57:42	01:07:53	609506	5ae3a41d32ef52000131a531	356864729	1	main_z	11	main_z	29	stimuli_distractor_trianglediamonds.svg	stimuli_target_diamondcircles.svg	27	yes	0	0	2000
6.6.1	win	2022-12-15	00:57:42	01:07:53	609506	5ae3a41d32ef52000131a531	356864729	1	main_z	11	advance_on_keypress_ZEE	30	stimuli_distractor_trianglediamonds.svg	stimuli_target_diamondcircles.svg	27	yes	57	0	662
6.6.1	win	2022-12-15	00:57:42	01:07:55	611696	5ae3a41d32ef52000131a531	356864729	1	main_z	11	main_z	31	stimuli_distractor_trianglediamonds.svg	stimuli_target_squaretriangles.svg	11	yes	44	1	890
6.6.1	win	2022-12-15	00:57:42	01:07:55	611696	5ae3a41d32ef52000131a531	356864729	1	main_z	11	advance_on_keypress_ZEE	32	stimuli_distractor_trianglediamonds.svg	stimuli_target_squaretriangles.svg	11	yes	57	0	422
6.6.1	win	2022-12-15	00:57:42	01:07:57	613576	5ae3a41d32ef52000131a531	356864729	1	main_z	11	main_z	33	stimuli_target_circletriangles.svg	stimuli_distractor_diamondtriangles.svg	5	yes	44	1	820
6.6.1	win	2022-12-15	00:57:42	01:07:57	613576	5ae3a41d32ef52000131a531	356864729	1	main_z	11	advance_on_keypress_ZEE	34	stimuli_target_circletriangles.svg	stimuli_distractor_diamondtriangles.svg	5	yes	57	0	1155
6.6.1	win	2022-12-15	00:57:42	01:07:59	616152	5ae3a41d32ef52000131a531	356864729	1	main_z	11	main_z	35	stimuli_target_circlediamonds.svg	stimuli_distractor_diamondtriangles.svg	6	yes	44	1	779
6.6.1	win	2022-12-15	00:57:42	01:07:59	616152	5ae3a41d32ef52000131a531	356864729	1	main_z	11	advance_on_keypress_ZEE	36	stimuli_target_circlediamonds.svg	stimuli_distractor_diamondtriangles.svg	6	yes	57	0	276
6.6.1	win	2022-12-15	00:57:42	01:08:01	617840	5ae3a41d32ef52000131a531	356864729	1	main_z	11	main_z	37	stimuli_target_squarediamonds.svg	stimuli_distractor_trianglediamonds.svg	4	yes	44	1	784
6.6.1	win	2022-12-15	00:57:42	01:08:01	617840	5ae3a41d32ef52000131a531	356864729	1	main_z	11	advance_on_keypress_ZEE	38	stimuli_target_squarediamonds.svg	stimuli_distractor_trianglediamonds.svg	4	yes	57	0	264
6.6.1	win	2022-12-15	00:57:42	01:08:03	619632	5ae3a41d32ef52000131a531	356864729	1	main_z	11	main_z	39	stimuli_target_circlediamonds.svg	stimuli_distractor_trianglediamonds.svg	2	yes	44	1	893
6.6.1	win	2022-12-15	00:57:42	01:08:03	619632	5ae3a41d32ef52000131a531	356864729	1	main_z	11	advance_on_keypress_ZEE	40	stimuli_target_circlediamonds.svg	stimuli_distractor_trianglediamonds.svg	2	yes	57	0	249
6.6.1	win	2022-12-15	00:57:42	01:08:04	621304	5ae3a41d32ef52000131a531	356864729	1	main_z	11	main_z	41	stimuli_distractor_trianglediamonds.svg	stimuli_target_diamondsquares.svg	28	yes	44	1	798
6.6.1	win	2022-12-15	00:57:42	01:08:04	621304	5ae3a41d32ef52000131a531	356864729	1	main_z	11	advance_on_keypress_ZEE	42	stimuli_distractor_trianglediamonds.svg	stimuli_target_diamondsquares.svg	28	yes	57	0	286
6.6.1	win	2022-12-15	00:57:42	01:08:06	623008	5ae3a41d32ef52000131a531	356864729	1	main_z	11	main_z	43	stimuli_target_diamondcircles.svg	stimuli_distractor_trianglediamonds.svg	19	yes	44	1	785
6.6.1	win	2022-12-15	00:57:42	01:08:06	623008	5ae3a41d32ef52000131a531	356864729	1	main_z	11	advance_on_keypress_ZEE	44	stimuli_target_diamondcircles.svg	stimuli_distractor_trianglediamonds.svg	19	yes	57	0	545
6.6.1	win	2022-12-15	00:57:42	01:08:08	625080	5ae3a41d32ef52000131a531	356864729	1	main_z	11	main_z	45	stimuli_distractor_trianglediamonds.svg	stimuli_target_trianglecircles.svg	25	yes	44	1	891
6.6.1	win	2022-12-15	00:57:42	01:08:08	625080	5ae3a41d32ef52000131a531	356864729	1	main_z	11	advance_on_keypress_ZEE	46	stimuli_distractor_trianglediamonds.svg	stimuli_target_trianglecircles.svg	25	yes	57	0	167
6.6.1	win	2022-12-15	00:57:42	01:08:10	626728	5ae3a41d32ef52000131a531	356864729	1	main_z	11	main_z	47	stimuli_target_trianglesquares.svg	stimuli_distractor_diamondtriangles.svg	22	yes	44	1	839
6.6.1	win	2022-12-15	00:57:42	01:08:10	626728	5ae3a41d32ef52000131a531	356864729	1	main_z	11	advance_on_keypress_ZEE	48	stimuli_target_trianglesquares.svg	stimuli_distractor_diamondtriangles.svg	22	yes	57	0	125
6.6.1	win	2022-12-15	00:57:42	01:08:11	628312	5ae3a41d32ef52000131a531	356864729	1	main_z	11	main_z	49	stimuli_target_trianglesquares.svg	stimuli_distractor_trianglediamonds.svg	18	yes	44	1	823
6.6.1	win	2022-12-15	00:57:42	01:08:11	628312	5ae3a41d32ef52000131a531	356864729	1	main_z	11	advance_on_keypress_ZEE	50	stimuli_target_trianglesquares.svg	stimuli_distractor_trianglediamonds.svg	18	yes	57	0	109
6.6.1	win	2022-12-15	00:57:42	01:08:13	629840	5ae3a41d32ef52000131a531	356864729	1	main_z	11	main_z	51	stimuli_target_diamondcircles.svg	stimuli_distractor_diamondtriangles.svg	23	yes	44	1	784
6.6.1	win	2022-12-15	00:57:42	01:08:13	629840	5ae3a41d32ef52000131a531	356864729	1	main_z	11	advance_on_keypress_ZEE	52	stimuli_target_diamondcircles.svg	stimuli_distractor_diamondtriangles.svg	23	yes	57	0	104
6.6.1	win	2022-12-15	00:57:42	01:08:14	631392	5ae3a41d32ef52000131a531	356864729	1	main_z	11	main_z	53	stimuli_distractor_diamondtriangles.svg	stimuli_target_diamondcircles.svg	31	yes	44	1	803
6.6.1	win	2022-12-15	00:57:42	01:08:14	631392	5ae3a41d32ef52000131a531	356864729	1	main_z	11	advance_on_keypress_ZEE	54	stimuli_distractor_diamondtriangles.svg	stimuli_target_diamondcircles.svg	31	yes	57	0	106
6.6.1	win	2022-12-15	00:57:42	01:08:16	632936	5ae3a41d32ef52000131a531	356864729	1	main_z	11	main_z	55	stimuli_target_diamondsquares.svg	stimuli_distractor_diamondtriangles.svg	24	yes	44	1	797
6.6.1	win	2022-12-15	00:57:42	01:08:16	632936	5ae3a41d32ef52000131a531	356864729	1	main_z	11	advance_on_keypress_ZEE	56	stimuli_target_diamondsquares.svg	stimuli_distractor_diamondtriangles.svg	24	yes	57	0	109
6.6.1	win	2022-12-15	00:57:42	01:08:17	634400	5ae3a41d32ef52000131a531	356864729	1	main_z	11	main_z	57	stimuli_target_trianglecircles.svg	stimuli_distractor_diamondtriangles.svg	21	yes	44	1	727
6.6.1	win	2022-12-15	00:57:42	01:08:17	634400	5ae3a41d32ef52000131a531	356864729	1	main_z	11	advance_on_keypress_ZEE	58	stimuli_target_trianglecircles.svg	stimuli_distractor_diamondtriangles.svg	21	yes	57	0	122
6.6.1	win	2022-12-15	00:57:42	01:08:19	635912	5ae3a41d32ef52000131a531	356864729	1	main_z	11	main_z	59	stimuli_target_diamondsquares.svg	stimuli_distractor_trianglediamonds.svg	20	yes	44	1	756
6.6.1	win	2022-12-15	00:57:42	01:08:19	635912	5ae3a41d32ef52000131a531	356864729	1	main_z	11	advance_on_keypress_ZEE	60	stimuli_target_diamondsquares.svg	stimuli_distractor_trianglediamonds.svg	20	yes	57	0	93
6.6.1	win	2022-12-15	00:57:42	01:08:22	638640	5ae3a41d32ef52000131a531	356864729	1	main_z	11	main_z	61	stimuli_distractor_trianglediamonds.svg	stimuli_distractor_trianglediamonds.svg	33	no	0	1	2000
6.6.1	win	2022-12-15	00:57:42	01:08:22	638640	5ae3a41d32ef52000131a531	356864729	1	main_z	11	advance_on_keypress_ZEE	62	stimuli_distractor_trianglediamonds.svg	stimuli_distractor_trianglediamonds.svg	33	no	57	0	480
6.6.1	win	2022-12-15	00:57:42	01:08:25	641756	5ae3a41d32ef52000131a531	356864729	1	main_z	11	main_z	63	stimuli_distractor_diamondtriangles.svg	stimuli_distractor_diamondtriangles.svg	39	no	0	1	2000
6.6.1	win	2022-12-15	00:57:42	01:08:25	641756	5ae3a41d32ef52000131a531	356864729	1	main_z	11	advance_on_keypress_ZEE	64	stimuli_distractor_diamondtriangles.svg	stimuli_distractor_diamondtriangles.svg	39	no	57	0	283
6.6.1	win	2022-12-15	00:57:42	01:08:27	643608	5ae3a41d32ef52000131a531	356864729	1	main_z	11	main_z	65	stimuli_distractor_trianglediamonds.svg	stimuli_target_squarediamonds.svg	12	yes	44	1	918
6.6.1	win	2022-12-15	00:57:42	01:08:27	643608	5ae3a41d32ef52000131a531	356864729	1	main_z	11	advance_on_keypress_ZEE	66	stimuli_distractor_trianglediamonds.svg	stimuli_target_squarediamonds.svg	12	yes	57	0	89
6.6.1	win	2022-12-15	00:57:42	01:08:28	645144	5ae3a41d32ef52000131a531	356864729	1	main_z	11	main_z	67	stimuli_target_squarediamonds.svg	stimuli_distractor_diamondtriangles.svg	8	yes	44	1	804
6.6.1	win	2022-12-15	00:57:42	01:08:28	645144	5ae3a41d32ef52000131a531	356864729	1	main_z	11	advance_on_keypress_ZEE	68	stimuli_target_squarediamonds.svg	stimuli_distractor_diamondtriangles.svg	8	yes	57	0	76
6.6.1	win	2022-12-15	00:57:42	01:08:30	646704	5ae3a41d32ef52000131a531	356864729	1	main_z	11	main_z	69	stimuli_distractor_diamondtriangles.svg	stimuli_target_squarediamonds.svg	16	yes	44	1	848
6.6.1	win	2022-12-15	00:57:42	01:08:30	646704	5ae3a41d32ef52000131a531	356864729	1	main_z	11	advance_on_keypress_ZEE	70	stimuli_distractor_diamondtriangles.svg	stimuli_target_squarediamonds.svg	16	yes	57	0	110
6.6.1	win	2022-12-15	00:57:42	01:08:32	648504	5ae3a41d32ef52000131a531	356864729	1	main_z	11	main_z	71	stimuli_distractor_diamondtriangles.svg	stimuli_distractor_trianglediamonds.svg	38	no	44	0	1064
6.6.1	win	2022-12-15	00:57:42	01:08:32	648504	5ae3a41d32ef52000131a531	356864729	1	main_z	11	advance_on_keypress_ZEE	72	stimuli_distractor_diamondtriangles.svg	stimuli_distractor_trianglediamonds.svg	38	no	57	0	950
6.6.1	win	2022-12-15	00:57:42	01:08:34	650944	5ae3a41d32ef52000131a531	356864729	1	main_z	11	main_z	73	stimuli_target_squaretriangles.svg	stimuli_distractor_diamondtriangles.svg	7	yes	44	1	854
6.6.1	win	2022-12-15	00:57:42	01:08:34	650944	5ae3a41d32ef52000131a531	356864729	1	main_z	11	advance_on_keypress_ZEE	74	stimuli_target_squaretriangles.svg	stimuli_distractor_diamondtriangles.svg	7	yes	57	0	476
6.6.1	win	2022-12-15	00:57:42	01:08:36	652936	5ae3a41d32ef52000131a531	356864729	1	main_z	11	main_z	75	stimuli_distractor_diamondtriangles.svg	stimuli_target_squaretriangles.svg	15	yes	44	1	880
6.6.1	win	2022-12-15	00:57:42	01:08:36	652936	5ae3a41d32ef52000131a531	356864729	1	main_z	11	advance_on_keypress_ZEE	76	stimuli_distractor_diamondtriangles.svg	stimuli_target_squaretriangles.svg	15	yes	57	0	124
6.6.1	win	2022-12-15	00:57:42	01:08:38	654552	5ae3a41d32ef52000131a531	356864729	1	main_z	11	main_z	77	stimuli_distractor_diamondtriangles.svg	stimuli_target_trianglesquares.svg	30	yes	44	1	862
6.6.1	win	2022-12-15	00:57:42	01:08:38	654552	5ae3a41d32ef52000131a531	356864729	1	main_z	11	advance_on_keypress_ZEE	78	stimuli_distractor_diamondtriangles.svg	stimuli_target_trianglesquares.svg	30	yes	57	0	100
6.6.1	win	2022-12-15	00:57:42	01:08:40	657290	5ae3a41d32ef52000131a531	356864729	1	main_z	11	main_z	79	stimuli_distractor_diamondtriangles.svg	stimuli_distractor_trianglediamonds.svg	37	no	0	1	2000
6.6.1	win	2022-12-15	00:57:42	01:08:40	657290	5ae3a41d32ef52000131a531	356864729	1	main_z	11	advance_on_keypress_ZEE	80	stimuli_distractor_diamondtriangles.svg	stimuli_distractor_trianglediamonds.svg	37	no	57	0	750
6.6.1	win	2022-12-15	00:57:42	01:08:43	659608	5ae3a41d32ef52000131a531	356864729	1	main_z	11	main_z	81	stimuli_distractor_diamondtriangles.svg	stimuli_target_squarediamonds.svg	16	yes	44	1	885
6.6.1	win	2022-12-15	00:57:42	01:08:43	659608	5ae3a41d32ef52000131a531	356864729	1	main_z	11	advance_on_keypress_ZEE	82	stimuli_distractor_diamondtriangles.svg	stimuli_target_squarediamonds.svg	16	yes	57	0	97
6.6.1	win	2022-12-15	00:57:42	01:08:44	661136	5ae3a41d32ef52000131a531	356864729	1	main_z	11	main_z	83	stimuli_target_diamondcircles.svg	stimuli_distractor_trianglediamonds.svg	19	yes	44	1	796
6.6.1	win	2022-12-15	00:57:42	01:08:44	661136	5ae3a41d32ef52000131a531	356864729	1	main_z	11	advance_on_keypress_ZEE	84	stimuli_target_diamondcircles.svg	stimuli_distractor_trianglediamonds.svg	19	yes	57	0	100
6.6.1	win	2022-12-15	00:57:42	01:08:47	663873	5ae3a41d32ef52000131a531	356864729	1	main_z	11	main_z	85	stimuli_distractor_trianglediamonds.svg	stimuli_distractor_trianglediamonds.svg	33	no	0	1	2000
6.6.1	win	2022-12-15	00:57:42	01:08:47	663873	5ae3a41d32ef52000131a531	356864729	1	main_z	11	advance_on_keypress_ZEE	86	stimuli_distractor_trianglediamonds.svg	stimuli_distractor_trianglediamonds.svg	33	no	57	0	326
6.6.1	win	2022-12-15	00:57:42	01:08:49	665760	5ae3a41d32ef52000131a531	356864729	1	main_z	11	main_z	87	stimuli_target_diamondsquares.svg	stimuli_distractor_trianglediamonds.svg	20	yes	44	1	920
6.6.1	win	2022-12-15	00:57:42	01:08:49	665760	5ae3a41d32ef52000131a531	356864729	1	main_z	11	advance_on_keypress_ZEE	88	stimuli_target_diamondsquares.svg	stimuli_distractor_trianglediamonds.svg	20	yes	57	0	67
6.6.1	win	2022-12-15	00:57:42	01:08:50	667208	5ae3a41d32ef52000131a531	356864729	1	main_z	11	main_z	89	stimuli_target_diamondcircles.svg	stimuli_distractor_diamondtriangles.svg	23	yes	44	1	735
6.6.1	win	2022-12-15	00:57:42	01:08:50	667208	5ae3a41d32ef52000131a531	356864729	1	main_z	11	advance_on_keypress_ZEE	90	stimuli_target_diamondcircles.svg	stimuli_distractor_diamondtriangles.svg	23	yes	57	0	81
6.6.1	win	2022-12-15	00:57:42	01:08:53	669923	5ae3a41d32ef52000131a531	356864729	1	main_z	11	main_z	91	stimuli_distractor_diamondtriangles.svg	stimuli_distractor_trianglediamonds.svg	38	no	0	1	2000
6.6.1	win	2022-12-15	00:57:42	01:08:53	669923	5ae3a41d32ef52000131a531	356864729	1	main_z	11	advance_on_keypress_ZEE	92	stimuli_distractor_diamondtriangles.svg	stimuli_distractor_trianglediamonds.svg	38	no	57	0	532
6.6.1	win	2022-12-15	00:57:42	01:08:55	671928	5ae3a41d32ef52000131a531	356864729	1	main_z	11	main_z	93	stimuli_target_squaretriangles.svg	stimuli_distractor_trianglediamonds.svg	3	yes	44	1	838
6.6.1	win	2022-12-15	00:57:42	01:08:55	671928	5ae3a41d32ef52000131a531	356864729	1	main_z	11	advance_on_keypress_ZEE	94	stimuli_target_squaretriangles.svg	stimuli_distractor_trianglediamonds.svg	3	yes	57	0	68
6.6.1	win	2022-12-15	00:57:42	01:08:56	673400	5ae3a41d32ef52000131a531	356864729	1	main_z	11	main_z	95	stimuli_distractor_trianglediamonds.svg	stimuli_target_trianglecircles.svg	25	yes	44	1	760
6.6.1	win	2022-12-15	00:57:42	01:08:56	673400	5ae3a41d32ef52000131a531	356864729	1	main_z	11	advance_on_keypress_ZEE	96	stimuli_distractor_trianglediamonds.svg	stimuli_target_trianglecircles.svg	25	yes	57	0	65
6.6.1	win	2022-12-15	00:57:42	01:08:58	674960	5ae3a41d32ef52000131a531	356864729	1	main_z	11	main_z	97	stimuli_distractor_trianglediamonds.svg	stimuli_target_trianglesquares.svg	26	yes	44	1	870
6.6.1	win	2022-12-15	00:57:42	01:08:58	674960	5ae3a41d32ef52000131a531	356864729	1	main_z	11	advance_on_keypress_ZEE	98	stimuli_distractor_trianglediamonds.svg	stimuli_target_trianglesquares.svg	26	yes	57	0	59
6.6.1	win	2022-12-15	00:57:42	01:09:01	677657	5ae3a41d32ef52000131a531	356864729	1	main_z	11	main_z	99	stimuli_distractor_diamondtriangles.svg	stimuli_distractor_diamondtriangles.svg	40	no	0	1	2000
6.6.1	win	2022-12-15	00:57:42	01:09:01	677657	5ae3a41d32ef52000131a531	356864729	1	main_z	11	advance_on_keypress_ZEE	100	stimuli_distractor_diamondtriangles.svg	stimuli_distractor_diamondtriangles.svg	40	no	57	0	239
6.6.1	win	2022-12-15	00:57:42	01:09:02	679432	5ae3a41d32ef52000131a531	356864729	1	main_z	11	main_z	101	stimuli_target_circlediamonds.svg	stimuli_distractor_trianglediamonds.svg	2	yes	44	1	892
6.6.1	win	2022-12-15	00:57:42	01:09:02	679432	5ae3a41d32ef52000131a531	356864729	1	main_z	11	advance_on_keypress_ZEE	102	stimuli_target_circlediamonds.svg	stimuli_distractor_trianglediamonds.svg	2	yes	57	0	48
6.6.1	win	2022-12-15	00:57:42	01:09:05	682107	5ae3a41d32ef52000131a531	356864729	1	main_z	11	main_z	103	stimuli_distractor_trianglediamonds.svg	stimuli_distractor_diamondtriangles.svg	36	no	0	1	2000
6.6.1	win	2022-12-15	00:57:42	01:09:05	682107	5ae3a41d32ef52000131a531	356864729	1	main_z	11	advance_on_keypress_ZEE	104	stimuli_distractor_trianglediamonds.svg	stimuli_distractor_diamondtriangles.svg	36	no	57	0	293
6.6.1	win	2022-12-15	00:57:42	01:09:07	683928	5ae3a41d32ef52000131a531	356864729	1	main_z	11	main_z	105	stimuli_distractor_trianglediamonds.svg	stimuli_target_squaretriangles.svg	11	yes	44	1	888
6.6.1	win	2022-12-15	00:57:42	01:09:07	683928	5ae3a41d32ef52000131a531	356864729	1	main_z	11	advance_on_keypress_ZEE	106	stimuli_distractor_trianglediamonds.svg	stimuli_target_squaretriangles.svg	11	yes	57	0	52
6.6.1	win	2022-12-15	00:57:42	01:09:08	685392	5ae3a41d32ef52000131a531	356864729	1	main_z	11	main_z	107	stimuli_target_diamondsquares.svg	stimuli_distractor_diamondtriangles.svg	24	yes	44	1	769
6.6.1	win	2022-12-15	00:57:42	01:09:08	685392	5ae3a41d32ef52000131a531	356864729	1	main_z	11	advance_on_keypress_ZEE	108	stimuli_target_diamondsquares.svg	stimuli_distractor_diamondtriangles.svg	24	yes	57	0	73
6.6.1	win	2022-12-15	00:57:42	01:09:10	686864	5ae3a41d32ef52000131a531	356864729	1	main_z	11	main_z	109	stimuli_distractor_diamondtriangles.svg	stimuli_target_diamondcircles.svg	31	yes	44	1	757
6.6.1	win	2022-12-15	00:57:42	01:09:10	686864	5ae3a41d32ef52000131a531	356864729	1	main_z	11	advance_on_keypress_ZEE	110	stimuli_distractor_diamondtriangles.svg	stimuli_target_diamondcircles.svg	31	yes	57	0	47
6.6.1	win	2022-12-15	00:57:42	01:09:11	688344	5ae3a41d32ef52000131a531	356864729	1	main_z	11	main_z	111	stimuli_target_trianglecircles.svg	stimuli_distractor_diamondtriangles.svg	21	yes	44	1	804
6.6.1	win	2022-12-15	00:57:42	01:09:11	688344	5ae3a41d32ef52000131a531	356864729	1	main_z	11	advance_on_keypress_ZEE	112	stimuli_target_trianglecircles.svg	stimuli_distractor_diamondtriangles.svg	21	yes	57	0	58
6.6.1	win	2022-12-15	00:57:42	01:09:13	689808	5ae3a41d32ef52000131a531	356864729	1	main_z	11	main_z	113	stimuli_distractor_diamondtriangles.svg	stimuli_target_circlediamonds.svg	14	yes	44	1	767
6.6.1	win	2022-12-15	00:57:42	01:09:13	689808	5ae3a41d32ef52000131a531	356864729	1	main_z	11	advance_on_keypress_ZEE	114	stimuli_distractor_diamondtriangles.svg	stimuli_target_circlediamonds.svg	14	yes	57	0	57
6.6.1	win	2022-12-15	00:57:42	01:09:16	692507	5ae3a41d32ef52000131a531	356864729	1	main_z	11	main_z	115	stimuli_distractor_diamondtriangles.svg	stimuli_distractor_diamondtriangles.svg	39	no	0	1	2000
6.6.1	win	2022-12-15	00:57:42	01:09:16	692507	5ae3a41d32ef52000131a531	356864729	1	main_z	11	advance_on_keypress_ZEE	116	stimuli_distractor_diamondtriangles.svg	stimuli_distractor_diamondtriangles.svg	39	no	57	0	756
6.6.1	win	2022-12-15	00:57:42	01:09:18	694816	5ae3a41d32ef52000131a531	356864729	1	main_z	11	main_z	117	stimuli_target_circlediamonds.svg	stimuli_distractor_diamondtriangles.svg	6	yes	44	1	909
6.6.1	win	2022-12-15	00:57:42	01:09:18	694816	5ae3a41d32ef52000131a531	356864729	1	main_z	11	advance_on_keypress_ZEE	118	stimuli_target_circlediamonds.svg	stimuli_distractor_diamondtriangles.svg	6	yes	57	0	80
6.6.1	win	2022-12-15	00:57:42	01:09:19	696328	5ae3a41d32ef52000131a531	356864729	1	main_z	11	main_z	119	stimuli_target_trianglesquares.svg	stimuli_distractor_trianglediamonds.svg	18	yes	44	1	804
6.6.1	win	2022-12-15	00:57:42	01:09:19	696328	5ae3a41d32ef52000131a531	356864729	1	main_z	11	advance_on_keypress_ZEE	120	stimuli_target_trianglesquares.svg	stimuli_distractor_trianglediamonds.svg	18	yes	57	0	92
6.6.1	win	2022-12-15	00:57:42	01:09:21	697848	5ae3a41d32ef52000131a531	356864729	1	main_z	11	main_z	121	stimuli_distractor_diamondtriangles.svg	stimuli_target_trianglesquares.svg	30	yes	44	1	791
6.6.1	win	2022-12-15	00:57:42	01:09:21	697848	5ae3a41d32ef52000131a531	356864729	1	main_z	11	advance_on_keypress_ZEE	122	stimuli_distractor_diamondtriangles.svg	stimuli_target_trianglesquares.svg	30	yes	57	0	103
6.6.1	win	2022-12-15	00:57:42	01:09:22	699440	5ae3a41d32ef52000131a531	356864729	1	main_z	11	main_z	123	stimuli_target_trianglecircles.svg	stimuli_distractor_trianglediamonds.svg	17	yes	44	1	850
6.6.1	win	2022-12-15	00:57:42	01:09:22	699440	5ae3a41d32ef52000131a531	356864729	1	main_z	11	advance_on_keypress_ZEE	124	stimuli_target_trianglecircles.svg	stimuli_distractor_trianglediamonds.svg	17	yes	57	0	55
6.6.1	win	2022-12-15	00:57:42	01:09:24	700992	5ae3a41d32ef52000131a531	356864729	1	main_z	11	main_z	125	stimuli_distractor_diamondtriangles.svg	stimuli_target_squaretriangles.svg	15	yes	44	1	852
6.6.1	win	2022-12-15	00:57:42	01:09:24	700992	5ae3a41d32ef52000131a531	356864729	1	main_z	11	advance_on_keypress_ZEE	126	stimuli_distractor_diamondtriangles.svg	stimuli_target_squaretriangles.svg	15	yes	57	0	33
6.6.1	win	2022-12-15	00:57:42	01:09:26	702488	5ae3a41d32ef52000131a531	356864729	1	main_z	11	main_z	127	stimuli_target_squarediamonds.svg	stimuli_distractor_trianglediamonds.svg	4	yes	44	1	814
6.6.1	win	2022-12-15	00:57:42	01:09:26	702488	5ae3a41d32ef52000131a531	356864729	1	main_z	11	advance_on_keypress_ZEE	128	stimuli_target_squarediamonds.svg	stimuli_distractor_trianglediamonds.svg	4	yes	57	0	46
6.6.1	win	2022-12-15	00:57:42	01:09:27	703952	5ae3a41d32ef52000131a531	356864729	1	main_z	11	main_z	129	stimuli_distractor_diamondtriangles.svg	stimuli_distractor_trianglediamonds.svg	37	no	44	0	795
6.6.1	win	2022-12-15	00:57:42	01:09:27	703952	5ae3a41d32ef52000131a531	356864729	1	main_z	11	advance_on_keypress_ZEE	130	stimuli_distractor_diamondtriangles.svg	stimuli_distractor_trianglediamonds.svg	37	no	57	0	98
6.6.1	win	2022-12-15	00:57:42	01:09:29	705488	5ae3a41d32ef52000131a531	356864729	1	main_z	11	main_z	131	stimuli_target_circletriangles.svg	stimuli_distractor_diamondtriangles.svg	5	yes	44	1	814
6.6.1	win	2022-12-15	00:57:42	01:09:29	705488	5ae3a41d32ef52000131a531	356864729	1	main_z	11	advance_on_keypress_ZEE	132	stimuli_target_circletriangles.svg	stimuli_distractor_diamondtriangles.svg	5	yes	57	0	85
6.6.1	win	2022-12-15	00:57:42	01:09:30	707296	5ae3a41d32ef52000131a531	356864729	1	main_z	11	main_z	133	stimuli_distractor_trianglediamonds.svg	stimuli_target_diamondsquares.svg	28	yes	44	1	1089
6.6.1	win	2022-12-15	00:57:42	01:09:30	707296	5ae3a41d32ef52000131a531	356864729	1	main_z	11	advance_on_keypress_ZEE	134	stimuli_distractor_trianglediamonds.svg	stimuli_target_diamondsquares.svg	28	yes	57	0	61
6.6.1	win	2022-12-15	00:57:42	01:09:32	708808	5ae3a41d32ef52000131a531	356864729	1	main_z	11	main_z	135	stimuli_target_trianglesquares.svg	stimuli_distractor_diamondtriangles.svg	22	yes	44	1	818
6.6.1	win	2022-12-15	00:57:42	01:09:32	708808	5ae3a41d32ef52000131a531	356864729	1	main_z	11	advance_on_keypress_ZEE	136	stimuli_target_trianglesquares.svg	stimuli_distractor_diamondtriangles.svg	22	yes	57	0	40
6.6.1	win	2022-12-15	00:57:42	01:09:33	710288	5ae3a41d32ef52000131a531	356864729	1	main_z	11	main_z	137	stimuli_distractor_trianglediamonds.svg	stimuli_target_circletriangles.svg	9	yes	44	1	798
6.6.1	win	2022-12-15	00:57:42	01:09:33	710288	5ae3a41d32ef52000131a531	356864729	1	main_z	11	advance_on_keypress_ZEE	138	stimuli_distractor_trianglediamonds.svg	stimuli_target_circletriangles.svg	9	yes	57	0	70
6.6.1	win	2022-12-15	00:57:42	01:09:35	711832	5ae3a41d32ef52000131a531	356864729	1	main_z	11	main_z	139	stimuli_target_circletriangles.svg	stimuli_distractor_trianglediamonds.svg	1	yes	44	1	842
6.6.1	win	2022-12-15	00:57:42	01:09:35	711832	5ae3a41d32ef52000131a531	356864729	1	main_z	11	advance_on_keypress_ZEE	140	stimuli_target_circletriangles.svg	stimuli_distractor_trianglediamonds.svg	1	yes	57	0	48
6.6.1	win	2022-12-15	00:57:42	01:09:36	713360	5ae3a41d32ef52000131a531	356864729	1	main_z	11	main_z	141	stimuli_distractor_diamondtriangles.svg	stimuli_target_circletriangles.svg	13	yes	44	1	853
6.6.1	win	2022-12-15	00:57:42	01:09:36	713360	5ae3a41d32ef52000131a531	356864729	1	main_z	11	advance_on_keypress_ZEE	142	stimuli_distractor_diamondtriangles.svg	stimuli_target_circletriangles.svg	13	yes	57	0	66
6.6.1	win	2022-12-15	00:57:42	01:09:38	714880	5ae3a41d32ef52000131a531	356864729	1	main_z	11	main_z	143	stimuli_distractor_diamondtriangles.svg	stimuli_target_diamondsquares.svg	32	yes	44	1	806
6.6.1	win	2022-12-15	00:57:42	01:09:38	714880	5ae3a41d32ef52000131a531	356864729	1	main_z	11	advance_on_keypress_ZEE	144	stimuli_distractor_diamondtriangles.svg	stimuli_target_diamondsquares.svg	32	yes	57	0	69
6.6.1	win	2022-12-15	00:57:42	01:09:41	717591	5ae3a41d32ef52000131a531	356864729	1	main_z	11	main_z	145	stimuli_distractor_trianglediamonds.svg	stimuli_distractor_trianglediamonds.svg	34	no	0	1	2000
6.6.1	win	2022-12-15	00:57:42	01:09:41	717591	5ae3a41d32ef52000131a531	356864729	1	main_z	11	advance_on_keypress_ZEE	146	stimuli_distractor_trianglediamonds.svg	stimuli_distractor_trianglediamonds.svg	34	no	57	0	393
6.6.1	win	2022-12-15	00:57:42	01:09:44	720624	5ae3a41d32ef52000131a531	356864729	1	main_z	11	main_z	147	stimuli_distractor_trianglediamonds.svg	stimuli_distractor_diamondtriangles.svg	35	no	0	1	2000
6.6.1	win	2022-12-15	00:57:42	01:09:44	720624	5ae3a41d32ef52000131a531	356864729	1	main_z	11	advance_on_keypress_ZEE	148	stimuli_distractor_trianglediamonds.svg	stimuli_distractor_diamondtriangles.svg	35	no	57	0	311
6.6.1	win	2022-12-15	00:57:42	01:09:45	722432	5ae3a41d32ef52000131a531	356864729	1	main_z	11	main_z	149	stimuli_distractor_trianglediamonds.svg	stimuli_target_circlediamonds.svg	10	yes	44	1	858
6.6.1	win	2022-12-15	00:57:42	01:09:45	722432	5ae3a41d32ef52000131a531	356864729	1	main_z	11	advance_on_keypress_ZEE	150	stimuli_distractor_trianglediamonds.svg	stimuli_target_circlediamonds.svg	10	yes	57	0	47
6.6.1	win	2022-12-15	00:57:42	01:09:47	723888	5ae3a41d32ef52000131a531	356864729	1	main_z	11	main_z	151	stimuli_distractor_trianglediamonds.svg	stimuli_target_diamondcircles.svg	27	yes	44	1	781
6.6.1	win	2022-12-15	00:57:42	01:09:47	723888	5ae3a41d32ef52000131a531	356864729	1	main_z	11	advance_on_keypress_ZEE	152	stimuli_distractor_trianglediamonds.svg	stimuli_target_diamondcircles.svg	27	yes	57	0	68
6.6.1	win	2022-12-15	00:57:42	01:09:48	725368	5ae3a41d32ef52000131a531	356864729	1	main_z	11	main_z	153	stimuli_distractor_trianglediamonds.svg	stimuli_target_squarediamonds.svg	12	yes	44	1	777
6.6.1	win	2022-12-15	00:57:42	01:09:48	725368	5ae3a41d32ef52000131a531	356864729	1	main_z	11	advance_on_keypress_ZEE	154	stimuli_distractor_trianglediamonds.svg	stimuli_target_squarediamonds.svg	12	yes	57	0	42
6.6.1	win	2022-12-15	00:57:42	01:09:50	726840	5ae3a41d32ef52000131a531	356864729	1	main_z	11	main_z	155	stimuli_target_squaretriangles.svg	stimuli_distractor_diamondtriangles.svg	7	yes	44	1	798
6.6.1	win	2022-12-15	00:57:42	01:09:50	726840	5ae3a41d32ef52000131a531	356864729	1	main_z	11	advance_on_keypress_ZEE	156	stimuli_target_squaretriangles.svg	stimuli_distractor_diamondtriangles.svg	7	yes	57	0	54
6.6.1	win	2022-12-15	00:57:42	01:09:51	728288	5ae3a41d32ef52000131a531	356864729	1	main_z	11	main_z	157	stimuli_distractor_diamondtriangles.svg	stimuli_target_trianglecircles.svg	29	yes	44	1	746
6.6.1	win	2022-12-15	00:57:42	01:09:51	728288	5ae3a41d32ef52000131a531	356864729	1	main_z	11	advance_on_keypress_ZEE	158	stimuli_distractor_diamondtriangles.svg	stimuli_target_trianglecircles.svg	29	yes	57	0	61
6.6.1	win	2022-12-15	00:57:42	01:09:53	729752	5ae3a41d32ef52000131a531	356864729	1	main_z	11	main_z	159	stimuli_target_squarediamonds.svg	stimuli_distractor_diamondtriangles.svg	8	yes	44	1	778
6.6.1	win	2022-12-15	00:57:42	01:09:53	729752	5ae3a41d32ef52000131a531	356864729	1	main_z	11	advance_on_keypress_ZEE	160	stimuli_target_squarediamonds.svg	stimuli_distractor_diamondtriangles.svg	8	yes	57	0	51