build	computer.platform	date	time	timestamp	time_elapsed_ms	subject	group	session	blockcode	blocknum	trialcode	trialnum	stimulus_left	stimulus_right	stim_index	target_present	response	correct	latency
6.6.1	win	2022-12-16	10:28:50	10:31:21	148391	559cb12dfdf99b4989fb18ed	689766813	1	practice_slash	5	practice_slash	1	stimuli_target_squarediamonds.svg	stimuli_distractor_diamondtriangles.svg	2	yes	0	0	2000
6.6.1	win	2022-12-16	10:28:50	10:31:21	148391	559cb12dfdf99b4989fb18ed	689766813	1	practice_slash	5	advance_on_keypress_SLASH	2	stimuli_target_squarediamonds.svg	stimuli_distractor_diamondtriangles.svg	2	yes	57	0	2031
6.6.1	win	2022-12-16	10:28:50	10:31:26	153050	559cb12dfdf99b4989fb18ed	689766813	1	practice_slash	5	practice_slash	3	stimuli_distractor_trianglediamonds.svg	stimuli_target_squarediamonds.svg	11	yes	53	1	946
6.6.1	win	2022-12-16	10:28:50	10:31:26	153050	559cb12dfdf99b4989fb18ed	689766813	1	practice_slash	5	advance_on_keypress_SLASH	4	stimuli_distractor_trianglediamonds.svg	stimuli_target_squarediamonds.svg	11	yes	57	0	997
6.6.1	win	2022-12-16	10:28:50	10:31:30	157712	559cb12dfdf99b4989fb18ed	689766813	1	practice_slash	5	practice_slash	5	stimuli_target_diamondsquares.svg	stimuli_distractor_trianglediamonds.svg	6	yes	0	0	2000
6.6.1	win	2022-12-16	10:28:50	10:31:30	157712	559cb12dfdf99b4989fb18ed	689766813	1	practice_slash	5	advance_on_keypress_SLASH	6	stimuli_target_diamondsquares.svg	stimuli_distractor_trianglediamonds.svg	6	yes	57	0	583
6.6.1	win	2022-12-16	10:28:50	10:31:34	161961	559cb12dfdf99b4989fb18ed	689766813	1	practice_slash	5	practice_slash	7	stimuli_distractor_trianglediamonds.svg	stimuli_distractor_trianglediamonds.svg	15	no	0	1	2000
6.6.1	win	2022-12-16	10:28:50	10:31:34	161961	559cb12dfdf99b4989fb18ed	689766813	1	practice_slash	5	advance_on_keypress_SLASH	8	stimuli_distractor_trianglediamonds.svg	stimuli_distractor_trianglediamonds.svg	15	no	57	0	1230
6.6.1	win	2022-12-16	10:28:50	10:31:38	165602	559cb12dfdf99b4989fb18ed	689766813	1	practice_slash	5	practice_slash	9	stimuli_distractor_diamondtriangles.svg	stimuli_target_circletriangles.svg	7	yes	53	1	745
6.6.1	win	2022-12-16	10:28:50	10:31:38	165602	559cb12dfdf99b4989fb18ed	689766813	1	practice_slash	5	advance_on_keypress_SLASH	10	stimuli_distractor_diamondtriangles.svg	stimuli_target_circletriangles.svg	7	yes	57	0	958
6.6.1	win	2022-12-16	10:28:50	10:31:42	169266	559cb12dfdf99b4989fb18ed	689766813	1	practice_slash	5	practice_slash	11	stimuli_distractor_diamondtriangles.svg	stimuli_target_trianglecircles.svg	9	yes	53	1	1037
6.6.1	win	2022-12-16	10:28:50	10:31:42	169266	559cb12dfdf99b4989fb18ed	689766813	1	practice_slash	5	advance_on_keypress_SLASH	12	stimuli_distractor_diamondtriangles.svg	stimuli_target_trianglecircles.svg	9	yes	57	0	1550
6.6.1	win	2022-12-16	10:28:50	10:31:46	173234	559cb12dfdf99b4989fb18ed	689766813	1	practice_slash	5	practice_slash	13	stimuli_distractor_trianglediamonds.svg	stimuli_target_circlediamonds.svg	10	yes	53	1	756
6.6.1	win	2022-12-16	10:28:50	10:31:46	173234	559cb12dfdf99b4989fb18ed	689766813	1	practice_slash	5	advance_on_keypress_SLASH	14	stimuli_distractor_trianglediamonds.svg	stimuli_target_circlediamonds.svg	10	yes	57	0	917
6.6.1	win	2022-12-16	10:28:50	10:31:49	176994	559cb12dfdf99b4989fb18ed	689766813	1	practice_slash	5	practice_slash	15	stimuli_distractor_trianglediamonds.svg	stimuli_target_diamondcircles.svg	12	yes	53	1	1176
6.6.1	win	2022-12-16	10:28:50	10:31:49	176994	559cb12dfdf99b4989fb18ed	689766813	1	practice_slash	5	advance_on_keypress_SLASH	16	stimuli_distractor_trianglediamonds.svg	stimuli_target_diamondcircles.svg	12	yes	57	0	1133
6.6.1	win	2022-12-16	10:28:50	10:31:53	180738	559cb12dfdf99b4989fb18ed	689766813	1	practice_slash	5	practice_slash	17	stimuli_target_diamondsquares.svg	stimuli_distractor_diamondtriangles.svg	3	yes	53	1	945
6.6.1	win	2022-12-16	10:28:50	10:31:53	180738	559cb12dfdf99b4989fb18ed	689766813	1	practice_slash	5	advance_on_keypress_SLASH	18	stimuli_target_diamondsquares.svg	stimuli_distractor_diamondtriangles.svg	3	yes	57	0	691
6.6.1	win	2022-12-16	10:28:50	10:31:56	183842	559cb12dfdf99b4989fb18ed	689766813	1	practice_slash	5	practice_slash	19	stimuli_target_circlediamonds.svg	stimuli_distractor_diamondtriangles.svg	1	yes	53	1	753
6.6.1	win	2022-12-16	10:28:50	10:31:56	183842	559cb12dfdf99b4989fb18ed	689766813	1	practice_slash	5	advance_on_keypress_SLASH	20	stimuli_target_circlediamonds.svg	stimuli_distractor_diamondtriangles.svg	1	yes	57	0	702
6.6.1	win	2022-12-16	10:28:50	10:32:01	188209	559cb12dfdf99b4989fb18ed	689766813	1	practice_slash	5	practice_slash	21	stimuli_distractor_trianglediamonds.svg	stimuli_distractor_diamondtriangles.svg	16	no	0	1	2000
6.6.1	win	2022-12-16	10:28:50	10:32:01	188209	559cb12dfdf99b4989fb18ed	689766813	1	practice_slash	5	advance_on_keypress_SLASH	22	stimuli_distractor_trianglediamonds.svg	stimuli_distractor_diamondtriangles.svg	16	no	57	0	342
6.6.1	win	2022-12-16	10:28:50	10:32:05	192217	559cb12dfdf99b4989fb18ed	689766813	1	practice_slash	5	practice_slash	23	stimuli_distractor_diamondtriangles.svg	stimuli_distractor_diamondtriangles.svg	13	no	0	1	2000
6.6.1	win	2022-12-16	10:28:50	10:32:05	192217	559cb12dfdf99b4989fb18ed	689766813	1	practice_slash	5	advance_on_keypress_SLASH	24	stimuli_distractor_diamondtriangles.svg	stimuli_distractor_diamondtriangles.svg	13	no	57	0	446
6.6.1	win	2022-12-16	10:28:50	10:32:08	195346	559cb12dfdf99b4989fb18ed	689766813	1	practice_slash	5	practice_slash	25	stimuli_distractor_diamondtriangles.svg	stimuli_target_diamondcircles.svg	8	yes	53	1	1015
6.6.1	win	2022-12-16	10:28:50	10:32:08	195346	559cb12dfdf99b4989fb18ed	689766813	1	practice_slash	5	advance_on_keypress_SLASH	26	stimuli_distractor_diamondtriangles.svg	stimuli_target_diamondcircles.svg	8	yes	57	0	766
6.6.1	win	2022-12-16	10:28:50	10:32:11	198801	559cb12dfdf99b4989fb18ed	689766813	1	practice_slash	5	practice_slash	27	stimuli_target_circlediamonds.svg	stimuli_distractor_trianglediamonds.svg	4	yes	53	1	1025
6.6.1	win	2022-12-16	10:28:50	10:32:11	198801	559cb12dfdf99b4989fb18ed	689766813	1	practice_slash	5	advance_on_keypress_SLASH	28	stimuli_target_circlediamonds.svg	stimuli_distractor_trianglediamonds.svg	4	yes	57	0	851
6.6.1	win	2022-12-16	10:28:50	10:32:15	202501	559cb12dfdf99b4989fb18ed	689766813	1	practice_slash	5	practice_slash	29	stimuli_distractor_diamondtriangles.svg	stimuli_distractor_trianglediamonds.svg	14	no	53	0	1177
6.6.1	win	2022-12-16	10:28:50	10:32:15	202501	559cb12dfdf99b4989fb18ed	689766813	1	practice_slash	5	advance_on_keypress_SLASH	30	stimuli_distractor_diamondtriangles.svg	stimuli_distractor_trianglediamonds.svg	14	no	57	0	684
6.6.1	win	2022-12-16	10:28:50	10:32:18	205777	559cb12dfdf99b4989fb18ed	689766813	1	practice_slash	5	practice_slash	31	stimuli_target_squarediamonds.svg	stimuli_distractor_trianglediamonds.svg	5	yes	53	1	929
6.6.1	win	2022-12-16	10:28:50	10:32:18	205777	559cb12dfdf99b4989fb18ed	689766813	1	practice_slash	5	advance_on_keypress_SLASH	32	stimuli_target_squarediamonds.svg	stimuli_distractor_trianglediamonds.svg	5	yes	57	0	510
6.6.1	win	2022-12-16	10:28:50	10:32:26	213686	559cb12dfdf99b4989fb18ed	689766813	1	main_slash	7	main_slash	1	stimuli_distractor_trianglediamonds.svg	stimuli_target_squarediamonds.svg	12	yes	53	1	789
6.6.1	win	2022-12-16	10:28:50	10:32:26	213686	559cb12dfdf99b4989fb18ed	689766813	1	main_slash	7	advance_on_keypress_SLASH	2	stimuli_distractor_trianglediamonds.svg	stimuli_target_squarediamonds.svg	12	yes	57	0	962
6.6.1	win	2022-12-16	10:28:50	10:32:29	216254	559cb12dfdf99b4989fb18ed	689766813	1	main_slash	7	main_slash	3	stimuli_distractor_diamondtriangles.svg	stimuli_target_circletriangles.svg	13	yes	53	1	944
6.6.1	win	2022-12-16	10:28:50	10:32:29	216254	559cb12dfdf99b4989fb18ed	689766813	1	main_slash	7	advance_on_keypress_SLASH	4	stimuli_distractor_diamondtriangles.svg	stimuli_target_circletriangles.svg	13	yes	57	0	1754
6.6.1	win	2022-12-16	10:28:50	10:32:33	220669	559cb12dfdf99b4989fb18ed	689766813	1	main_slash	7	main_slash	5	stimuli_distractor_trianglediamonds.svg	stimuli_distractor_trianglediamonds.svg	34	no	0	1	2000
6.6.1	win	2022-12-16	10:28:50	10:32:33	220669	559cb12dfdf99b4989fb18ed	689766813	1	main_slash	7	advance_on_keypress_SLASH	6	stimuli_distractor_trianglediamonds.svg	stimuli_distractor_trianglediamonds.svg	34	no	57	0	578
6.6.1	win	2022-12-16	10:28:50	10:32:35	222654	559cb12dfdf99b4989fb18ed	689766813	1	main_slash	7	main_slash	7	stimuli_target_squaretriangles.svg	stimuli_distractor_trianglediamonds.svg	3	yes	53	1	745
6.6.1	win	2022-12-16	10:28:50	10:32:35	222654	559cb12dfdf99b4989fb18ed	689766813	1	main_slash	7	advance_on_keypress_SLASH	8	stimuli_target_squaretriangles.svg	stimuli_distractor_trianglediamonds.svg	3	yes	57	0	1274
6.6.1	win	2022-12-16	10:28:50	10:32:38	225646	559cb12dfdf99b4989fb18ed	689766813	1	main_slash	7	main_slash	9	stimuli_distractor_trianglediamonds.svg	stimuli_target_diamondcircles.svg	27	yes	53	1	1056
6.6.1	win	2022-12-16	10:28:50	10:32:38	225646	559cb12dfdf99b4989fb18ed	689766813	1	main_slash	7	advance_on_keypress_SLASH	10	stimuli_distractor_trianglediamonds.svg	stimuli_target_diamondcircles.svg	27	yes	57	0	1073
6.6.1	win	2022-12-16	10:28:50	10:32:41	228520	559cb12dfdf99b4989fb18ed	689766813	1	main_slash	7	main_slash	11	stimuli_distractor_trianglediamonds.svg	stimuli_target_trianglecircles.svg	25	yes	53	1	1137
6.6.1	win	2022-12-16	10:28:50	10:32:41	228520	559cb12dfdf99b4989fb18ed	689766813	1	main_slash	7	advance_on_keypress_SLASH	12	stimuli_distractor_trianglediamonds.svg	stimuli_target_trianglecircles.svg	25	yes	57	0	609
6.6.1	win	2022-12-16	10:28:50	10:32:44	231166	559cb12dfdf99b4989fb18ed	689766813	1	main_slash	7	main_slash	13	stimuli_target_trianglesquares.svg	stimuli_distractor_trianglediamonds.svg	18	yes	53	1	1377
6.6.1	win	2022-12-16	10:28:50	10:32:44	231166	559cb12dfdf99b4989fb18ed	689766813	1	main_slash	7	advance_on_keypress_SLASH	14	stimuli_target_trianglesquares.svg	stimuli_distractor_trianglediamonds.svg	18	yes	57	0	801
6.6.1	win	2022-12-16	10:28:50	10:32:47	234629	559cb12dfdf99b4989fb18ed	689766813	1	main_slash	7	main_slash	15	stimuli_distractor_diamondtriangles.svg	stimuli_distractor_diamondtriangles.svg	39	no	0	1	2000
6.6.1	win	2022-12-16	10:28:50	10:32:47	234629	559cb12dfdf99b4989fb18ed	689766813	1	main_slash	7	advance_on_keypress_SLASH	16	stimuli_distractor_diamondtriangles.svg	stimuli_distractor_diamondtriangles.svg	39	no	57	0	426
6.6.1	win	2022-12-16	10:28:50	10:32:49	236486	559cb12dfdf99b4989fb18ed	689766813	1	main_slash	7	main_slash	17	stimuli_distractor_trianglediamonds.svg	stimuli_distractor_diamondtriangles.svg	36	no	53	0	768
6.6.1	win	2022-12-16	10:28:50	10:32:49	236486	559cb12dfdf99b4989fb18ed	689766813	1	main_slash	7	advance_on_keypress_SLASH	18	stimuli_distractor_trianglediamonds.svg	stimuli_distractor_diamondtriangles.svg	36	no	57	0	1601
6.6.1	win	2022-12-16	10:28:50	10:32:52	239838	559cb12dfdf99b4989fb18ed	689766813	1	main_slash	7	main_slash	19	stimuli_distractor_trianglediamonds.svg	stimuli_target_circlediamonds.svg	10	yes	53	1	1089
6.6.1	win	2022-12-16	10:28:50	10:32:52	239838	559cb12dfdf99b4989fb18ed	689766813	1	main_slash	7	advance_on_keypress_SLASH	20	stimuli_distractor_trianglediamonds.svg	stimuli_target_circlediamonds.svg	10	yes	57	0	541
6.6.1	win	2022-12-16	10:28:50	10:32:54	241999	559cb12dfdf99b4989fb18ed	689766813	1	main_slash	7	main_slash	21	stimuli_distractor_trianglediamonds.svg	stimuli_target_diamondsquares.svg	28	yes	53	1	969
6.6.1	win	2022-12-16	10:28:50	10:32:54	241999	559cb12dfdf99b4989fb18ed	689766813	1	main_slash	7	advance_on_keypress_SLASH	22	stimuli_distractor_trianglediamonds.svg	stimuli_target_diamondsquares.svg	28	yes	57	0	345
6.6.1	win	2022-12-16	10:28:50	10:32:57	244190	559cb12dfdf99b4989fb18ed	689766813	1	main_slash	7	main_slash	23	stimuli_target_trianglesquares.svg	stimuli_distractor_diamondtriangles.svg	22	yes	53	1	1184
6.6.1	win	2022-12-16	10:28:50	10:32:57	244190	559cb12dfdf99b4989fb18ed	689766813	1	main_slash	7	advance_on_keypress_SLASH	24	stimuli_target_trianglesquares.svg	stimuli_distractor_diamondtriangles.svg	22	yes	57	0	345
6.6.1	win	2022-12-16	10:28:50	10:32:59	246142	559cb12dfdf99b4989fb18ed	689766813	1	main_slash	7	main_slash	25	stimuli_distractor_diamondtriangles.svg	stimuli_target_circlediamonds.svg	14	yes	53	1	945
6.6.1	win	2022-12-16	10:28:50	10:32:59	246142	559cb12dfdf99b4989fb18ed	689766813	1	main_slash	7	advance_on_keypress_SLASH	26	stimuli_distractor_diamondtriangles.svg	stimuli_target_circlediamonds.svg	14	yes	57	0	449
6.6.1	win	2022-12-16	10:28:50	10:33:01	248270	559cb12dfdf99b4989fb18ed	689766813	1	main_slash	7	main_slash	27	stimuli_distractor_diamondtriangles.svg	stimuli_target_squarediamonds.svg	16	yes	53	1	1017
6.6.1	win	2022-12-16	10:28:50	10:33:01	248270	559cb12dfdf99b4989fb18ed	689766813	1	main_slash	7	advance_on_keypress_SLASH	28	stimuli_distractor_diamondtriangles.svg	stimuli_target_squarediamonds.svg	16	yes	57	0	297
6.6.1	win	2022-12-16	10:28:50	10:33:02	250014	559cb12dfdf99b4989fb18ed	689766813	1	main_slash	7	main_slash	29	stimuli_target_diamondcircles.svg	stimuli_distractor_trianglediamonds.svg	19	yes	53	1	785
6.6.1	win	2022-12-16	10:28:50	10:33:02	250014	559cb12dfdf99b4989fb18ed	689766813	1	main_slash	7	advance_on_keypress_SLASH	30	stimuli_target_diamondcircles.svg	stimuli_distractor_trianglediamonds.svg	19	yes	57	0	362
6.6.1	win	2022-12-16	10:28:50	10:33:04	251822	559cb12dfdf99b4989fb18ed	689766813	1	main_slash	7	main_slash	31	stimuli_distractor_trianglediamonds.svg	stimuli_target_trianglesquares.svg	26	yes	53	1	784
6.6.1	win	2022-12-16	10:28:50	10:33:04	251822	559cb12dfdf99b4989fb18ed	689766813	1	main_slash	7	advance_on_keypress_SLASH	32	stimuli_distractor_trianglediamonds.svg	stimuli_target_trianglesquares.svg	26	yes	57	0	321
6.6.1	win	2022-12-16	10:28:50	10:33:06	253574	559cb12dfdf99b4989fb18ed	689766813	1	main_slash	7	main_slash	33	stimuli_target_diamondsquares.svg	stimuli_distractor_trianglediamonds.svg	20	yes	53	1	769
6.6.1	win	2022-12-16	10:28:50	10:33:06	253574	559cb12dfdf99b4989fb18ed	689766813	1	main_slash	7	advance_on_keypress_SLASH	34	stimuli_target_diamondsquares.svg	stimuli_distractor_trianglediamonds.svg	20	yes	57	0	338
6.6.1	win	2022-12-16	10:28:50	10:33:08	255334	559cb12dfdf99b4989fb18ed	689766813	1	main_slash	7	main_slash	35	stimuli_target_diamondcircles.svg	stimuli_distractor_diamondtriangles.svg	23	yes	53	1	761
6.6.1	win	2022-12-16	10:28:50	10:33:08	255334	559cb12dfdf99b4989fb18ed	689766813	1	main_slash	7	advance_on_keypress_SLASH	36	stimuli_target_diamondcircles.svg	stimuli_distractor_diamondtriangles.svg	23	yes	57	0	377
6.6.1	win	2022-12-16	10:28:50	10:33:10	257302	559cb12dfdf99b4989fb18ed	689766813	1	main_slash	7	main_slash	37	stimuli_target_diamondsquares.svg	stimuli_distractor_diamondtriangles.svg	24	yes	53	1	930
6.6.1	win	2022-12-16	10:28:50	10:33:10	257302	559cb12dfdf99b4989fb18ed	689766813	1	main_slash	7	advance_on_keypress_SLASH	38	stimuli_target_diamondsquares.svg	stimuli_distractor_diamondtriangles.svg	24	yes	57	0	401
6.6.1	win	2022-12-16	10:28:50	10:33:12	259166	559cb12dfdf99b4989fb18ed	689766813	1	main_slash	7	main_slash	39	stimuli_distractor_trianglediamonds.svg	stimuli_target_squaretriangles.svg	11	yes	53	1	801
6.6.1	win	2022-12-16	10:28:50	10:33:12	259166	559cb12dfdf99b4989fb18ed	689766813	1	main_slash	7	advance_on_keypress_SLASH	40	stimuli_distractor_trianglediamonds.svg	stimuli_target_squaretriangles.svg	11	yes	57	0	346
6.6.1	win	2022-12-16	10:28:50	10:33:14	261174	559cb12dfdf99b4989fb18ed	689766813	1	main_slash	7	main_slash	41	stimuli_distractor_diamondtriangles.svg	stimuli_target_diamondcircles.svg	31	yes	53	1	1001
6.6.1	win	2022-12-16	10:28:50	10:33:14	261174	559cb12dfdf99b4989fb18ed	689766813	1	main_slash	7	advance_on_keypress_SLASH	42	stimuli_distractor_diamondtriangles.svg	stimuli_target_diamondcircles.svg	31	yes	57	0	321
6.6.1	win	2022-12-16	10:28:50	10:33:16	263110	559cb12dfdf99b4989fb18ed	689766813	1	main_slash	7	main_slash	43	stimuli_distractor_trianglediamonds.svg	stimuli_target_circletriangles.svg	9	yes	53	1	953
6.6.1	win	2022-12-16	10:28:50	10:33:16	263110	559cb12dfdf99b4989fb18ed	689766813	1	main_slash	7	advance_on_keypress_SLASH	44	stimuli_distractor_trianglediamonds.svg	stimuli_target_circletriangles.svg	9	yes	57	0	330
6.6.1	win	2022-12-16	10:28:50	10:33:19	266101	559cb12dfdf99b4989fb18ed	689766813	1	main_slash	7	main_slash	45	stimuli_distractor_diamondtriangles.svg	stimuli_distractor_diamondtriangles.svg	40	no	0	1	2000
6.6.1	win	2022-12-16	10:28:50	10:33:19	266101	559cb12dfdf99b4989fb18ed	689766813	1	main_slash	7	advance_on_keypress_SLASH	46	stimuli_distractor_diamondtriangles.svg	stimuli_distractor_diamondtriangles.svg	40	no	57	0	418
6.6.1	win	2022-12-16	10:28:50	10:33:20	267934	559cb12dfdf99b4989fb18ed	689766813	1	main_slash	7	main_slash	47	stimuli_target_squarediamonds.svg	stimuli_distractor_trianglediamonds.svg	4	yes	53	1	753
6.6.1	win	2022-12-16	10:28:50	10:33:20	267934	559cb12dfdf99b4989fb18ed	689766813	1	main_slash	7	advance_on_keypress_SLASH	48	stimuli_target_squarediamonds.svg	stimuli_distractor_trianglediamonds.svg	4	yes	57	0	353
6.6.1	win	2022-12-16	10:28:50	10:33:22	269886	559cb12dfdf99b4989fb18ed	689766813	1	main_slash	7	main_slash	49	stimuli_target_trianglecircles.svg	stimuli_distractor_diamondtriangles.svg	21	yes	53	1	937
6.6.1	win	2022-12-16	10:28:50	10:33:22	269886	559cb12dfdf99b4989fb18ed	689766813	1	main_slash	7	advance_on_keypress_SLASH	50	stimuli_target_trianglecircles.svg	stimuli_distractor_diamondtriangles.svg	21	yes	57	0	281
6.6.1	win	2022-12-16	10:28:50	10:33:24	271657	559cb12dfdf99b4989fb18ed	689766813	1	main_slash	7	main_slash	51	stimuli_distractor_trianglediamonds.svg	stimuli_distractor_diamondtriangles.svg	35	no	53	0	824
6.6.1	win	2022-12-16	10:28:50	10:33:24	271657	559cb12dfdf99b4989fb18ed	689766813	1	main_slash	7	advance_on_keypress_SLASH	52	stimuli_distractor_trianglediamonds.svg	stimuli_distractor_diamondtriangles.svg	35	no	57	0	351
6.6.1	win	2022-12-16	10:28:50	10:33:26	273847	559cb12dfdf99b4989fb18ed	689766813	1	main_slash	7	main_slash	53	stimuli_target_circlediamonds.svg	stimuli_distractor_diamondtriangles.svg	6	yes	53	1	1176
6.6.1	win	2022-12-16	10:28:50	10:33:26	273847	559cb12dfdf99b4989fb18ed	689766813	1	main_slash	7	advance_on_keypress_SLASH	54	stimuli_target_circlediamonds.svg	stimuli_distractor_diamondtriangles.svg	6	yes	57	0	305
6.6.1	win	2022-12-16	10:28:50	10:33:28	275774	559cb12dfdf99b4989fb18ed	689766813	1	main_slash	7	main_slash	55	stimuli_target_squarediamonds.svg	stimuli_distractor_diamondtriangles.svg	8	yes	53	1	961
6.6.1	win	2022-12-16	10:28:50	10:33:28	275774	559cb12dfdf99b4989fb18ed	689766813	1	main_slash	7	advance_on_keypress_SLASH	56	stimuli_target_squarediamonds.svg	stimuli_distractor_diamondtriangles.svg	8	yes	57	0	322
6.6.1	win	2022-12-16	10:28:50	10:33:30	277598	559cb12dfdf99b4989fb18ed	689766813	1	main_slash	7	main_slash	57	stimuli_distractor_diamondtriangles.svg	stimuli_distractor_trianglediamonds.svg	37	no	53	0	840
6.6.1	win	2022-12-16	10:28:50	10:33:30	277598	559cb12dfdf99b4989fb18ed	689766813	1	main_slash	7	advance_on_keypress_SLASH	58	stimuli_distractor_diamondtriangles.svg	stimuli_distractor_trianglediamonds.svg	37	no	57	0	330
6.6.1	win	2022-12-16	10:28:50	10:33:33	280589	559cb12dfdf99b4989fb18ed	689766813	1	main_slash	7	main_slash	59	stimuli_distractor_diamondtriangles.svg	stimuli_distractor_trianglediamonds.svg	38	no	0	1	2000
6.6.1	win	2022-12-16	10:28:50	10:33:33	280589	559cb12dfdf99b4989fb18ed	689766813	1	main_slash	7	advance_on_keypress_SLASH	60	stimuli_distractor_diamondtriangles.svg	stimuli_distractor_trianglediamonds.svg	38	no	57	0	562
6.6.1	win	2022-12-16	10:28:50	10:33:35	282950	559cb12dfdf99b4989fb18ed	689766813	1	main_slash	7	main_slash	61	stimuli_distractor_trianglediamonds.svg	stimuli_distractor_trianglediamonds.svg	33	no	53	0	1137
6.6.1	win	2022-12-16	10:28:50	10:33:35	282950	559cb12dfdf99b4989fb18ed	689766813	1	main_slash	7	advance_on_keypress_SLASH	62	stimuli_distractor_trianglediamonds.svg	stimuli_distractor_trianglediamonds.svg	33	no	57	0	217
6.6.1	win	2022-12-16	10:28:50	10:33:37	284646	559cb12dfdf99b4989fb18ed	689766813	1	main_slash	7	main_slash	63	stimuli_distractor_diamondtriangles.svg	stimuli_target_squaretriangles.svg	15	yes	53	1	817
6.6.1	win	2022-12-16	10:28:50	10:33:37	284646	559cb12dfdf99b4989fb18ed	689766813	1	main_slash	7	advance_on_keypress_SLASH	64	stimuli_distractor_diamondtriangles.svg	stimuli_target_squaretriangles.svg	15	yes	57	0	306
6.6.1	win	2022-12-16	10:28:50	10:33:39	286366	559cb12dfdf99b4989fb18ed	689766813	1	main_slash	7	main_slash	65	stimuli_target_squaretriangles.svg	stimuli_distractor_diamondtriangles.svg	7	yes	53	1	752
6.6.1	win	2022-12-16	10:28:50	10:33:39	286366	559cb12dfdf99b4989fb18ed	689766813	1	main_slash	7	advance_on_keypress_SLASH	66	stimuli_target_squaretriangles.svg	stimuli_distractor_diamondtriangles.svg	7	yes	57	0	545
6.6.1	win	2022-12-16	10:28:50	10:33:41	288343	559cb12dfdf99b4989fb18ed	689766813	1	main_slash	7	main_slash	67	stimuli_target_circlediamonds.svg	stimuli_distractor_trianglediamonds.svg	2	yes	53	1	768
6.6.1	win	2022-12-16	10:28:50	10:33:41	288343	559cb12dfdf99b4989fb18ed	689766813	1	main_slash	7	advance_on_keypress_SLASH	68	stimuli_target_circlediamonds.svg	stimuli_distractor_trianglediamonds.svg	2	yes	57	0	402
6.6.1	win	2022-12-16	10:28:50	10:33:43	290406	559cb12dfdf99b4989fb18ed	689766813	1	main_slash	7	main_slash	69	stimuli_distractor_diamondtriangles.svg	stimuli_target_trianglesquares.svg	30	yes	53	1	989
6.6.1	win	2022-12-16	10:28:50	10:33:43	290406	559cb12dfdf99b4989fb18ed	689766813	1	main_slash	7	advance_on_keypress_SLASH	70	stimuli_distractor_diamondtriangles.svg	stimuli_target_trianglesquares.svg	30	yes	57	0	305
6.6.1	win	2022-12-16	10:28:50	10:33:45	292287	559cb12dfdf99b4989fb18ed	689766813	1	main_slash	7	main_slash	71	stimuli_target_circletriangles.svg	stimuli_distractor_diamondtriangles.svg	5	yes	53	1	915
6.6.1	win	2022-12-16	10:28:50	10:33:45	292287	559cb12dfdf99b4989fb18ed	689766813	1	main_slash	7	advance_on_keypress_SLASH	72	stimuli_target_circletriangles.svg	stimuli_distractor_diamondtriangles.svg	5	yes	57	0	329
6.6.1	win	2022-12-16	10:28:50	10:33:47	294238	559cb12dfdf99b4989fb18ed	689766813	1	main_slash	7	main_slash	73	stimuli_target_circletriangles.svg	stimuli_distractor_trianglediamonds.svg	1	yes	53	1	961
6.6.1	win	2022-12-16	10:28:50	10:33:47	294238	559cb12dfdf99b4989fb18ed	689766813	1	main_slash	7	advance_on_keypress_SLASH	74	stimuli_target_circletriangles.svg	stimuli_distractor_trianglediamonds.svg	1	yes	57	0	393
6.6.1	win	2022-12-16	10:28:50	10:33:49	296326	559cb12dfdf99b4989fb18ed	689766813	1	main_slash	7	main_slash	75	stimuli_target_trianglecircles.svg	stimuli_distractor_trianglediamonds.svg	17	yes	53	1	1033
6.6.1	win	2022-12-16	10:28:50	10:33:49	296326	559cb12dfdf99b4989fb18ed	689766813	1	main_slash	7	advance_on_keypress_SLASH	76	stimuli_target_trianglecircles.svg	stimuli_distractor_trianglediamonds.svg	17	yes	57	0	330
6.6.1	win	2022-12-16	10:28:50	10:33:51	298326	559cb12dfdf99b4989fb18ed	689766813	1	main_slash	7	main_slash	77	stimuli_distractor_diamondtriangles.svg	stimuli_target_diamondsquares.svg	32	yes	53	1	1004
6.6.1	win	2022-12-16	10:28:50	10:33:51	298326	559cb12dfdf99b4989fb18ed	689766813	1	main_slash	7	advance_on_keypress_SLASH	78	stimuli_distractor_diamondtriangles.svg	stimuli_target_diamondsquares.svg	32	yes	57	0	281
6.6.1	win	2022-12-16	10:28:50	10:33:53	300310	559cb12dfdf99b4989fb18ed	689766813	1	main_slash	7	main_slash	79	stimuli_distractor_diamondtriangles.svg	stimuli_target_trianglecircles.svg	29	yes	53	1	1041
6.6.1	win	2022-12-16	10:28:50	10:33:53	300310	559cb12dfdf99b4989fb18ed	689766813	1	main_slash	7	advance_on_keypress_SLASH	80	stimuli_distractor_diamondtriangles.svg	stimuli_target_trianglecircles.svg	29	yes	57	0	306
6.6.1	win	2022-12-16	10:28:50	10:33:55	302383	559cb12dfdf99b4989fb18ed	689766813	1	main_slash	7	main_slash	81	stimuli_distractor_trianglediamonds.svg	stimuli_target_circletriangles.svg	9	yes	53	1	1104
6.6.1	win	2022-12-16	10:28:50	10:33:55	302383	559cb12dfdf99b4989fb18ed	689766813	1	main_slash	7	advance_on_keypress_SLASH	82	stimuli_distractor_trianglediamonds.svg	stimuli_target_circletriangles.svg	9	yes	57	0	417
6.6.1	win	2022-12-16	10:28:50	10:33:57	304382	559cb12dfdf99b4989fb18ed	689766813	1	main_slash	7	main_slash	83	stimuli_distractor_diamondtriangles.svg	stimuli_target_circletriangles.svg	13	yes	53	1	924
6.6.1	win	2022-12-16	10:28:50	10:33:57	304382	559cb12dfdf99b4989fb18ed	689766813	1	main_slash	7	advance_on_keypress_SLASH	84	stimuli_distractor_diamondtriangles.svg	stimuli_target_circletriangles.svg	13	yes	57	0	329
6.6.1	win	2022-12-16	10:28:50	10:33:59	306286	559cb12dfdf99b4989fb18ed	689766813	1	main_slash	7	main_slash	85	stimuli_target_squarediamonds.svg	stimuli_distractor_diamondtriangles.svg	8	yes	53	1	910
6.6.1	win	2022-12-16	10:28:50	10:33:59	306286	559cb12dfdf99b4989fb18ed	689766813	1	main_slash	7	advance_on_keypress_SLASH	86	stimuli_target_squarediamonds.svg	stimuli_distractor_diamondtriangles.svg	8	yes	57	0	361
6.6.1	win	2022-12-16	10:28:50	10:34:02	309309	559cb12dfdf99b4989fb18ed	689766813	1	main_slash	7	main_slash	87	stimuli_distractor_trianglediamonds.svg	stimuli_target_squarediamonds.svg	12	yes	0	0	2000
6.6.1	win	2022-12-16	10:28:50	10:34:02	309309	559cb12dfdf99b4989fb18ed	689766813	1	main_slash	7	advance_on_keypress_SLASH	88	stimuli_distractor_trianglediamonds.svg	stimuli_target_squarediamonds.svg	12	yes	57	0	1698
6.6.1	win	2022-12-16	10:28:50	10:34:05	312646	559cb12dfdf99b4989fb18ed	689766813	1	main_slash	7	main_slash	89	stimuli_target_trianglecircles.svg	stimuli_distractor_trianglediamonds.svg	17	yes	53	1	977
6.6.1	win	2022-12-16	10:28:50	10:34:05	312646	559cb12dfdf99b4989fb18ed	689766813	1	main_slash	7	advance_on_keypress_SLASH	90	stimuli_target_trianglecircles.svg	stimuli_distractor_trianglediamonds.svg	17	yes	57	0	313
6.6.1	win	2022-12-16	10:28:50	10:34:07	314790	559cb12dfdf99b4989fb18ed	689766813	1	main_slash	7	main_slash	91	stimuli_distractor_diamondtriangles.svg	stimuli_target_trianglecircles.svg	29	yes	53	1	1169
6.6.1	win	2022-12-16	10:28:50	10:34:07	314790	559cb12dfdf99b4989fb18ed	689766813	1	main_slash	7	advance_on_keypress_SLASH	92	stimuli_distractor_diamondtriangles.svg	stimuli_target_trianglecircles.svg	29	yes	57	0	295
6.6.1	win	2022-12-16	10:28:50	10:34:09	316718	559cb12dfdf99b4989fb18ed	689766813	1	main_slash	7	main_slash	93	stimuli_target_diamondsquares.svg	stimuli_distractor_trianglediamonds.svg	20	yes	53	1	978
6.6.1	win	2022-12-16	10:28:50	10:34:09	316718	559cb12dfdf99b4989fb18ed	689766813	1	main_slash	7	advance_on_keypress_SLASH	94	stimuli_target_diamondsquares.svg	stimuli_distractor_trianglediamonds.svg	20	yes	57	0	243
6.6.1	win	2022-12-16	10:28:50	10:34:12	319621	559cb12dfdf99b4989fb18ed	689766813	1	main_slash	7	main_slash	95	stimuli_distractor_diamondtriangles.svg	stimuli_target_trianglesquares.svg	30	yes	0	0	2000
6.6.1	win	2022-12-16	10:28:50	10:34:12	319621	559cb12dfdf99b4989fb18ed	689766813	1	main_slash	7	advance_on_keypress_SLASH	96	stimuli_distractor_diamondtriangles.svg	stimuli_target_trianglesquares.svg	30	yes	57	0	939
6.6.1	win	2022-12-16	10:28:50	10:34:15	322214	559cb12dfdf99b4989fb18ed	689766813	1	main_slash	7	main_slash	97	stimuli_distractor_trianglediamonds.svg	stimuli_target_diamondcircles.svg	27	yes	53	1	992
6.6.1	win	2022-12-16	10:28:50	10:34:15	322214	559cb12dfdf99b4989fb18ed	689766813	1	main_slash	7	advance_on_keypress_SLASH	98	stimuli_distractor_trianglediamonds.svg	stimuli_target_diamondcircles.svg	27	yes	57	0	313
6.6.1	win	2022-12-16	10:28:50	10:34:16	324014	559cb12dfdf99b4989fb18ed	689766813	1	main_slash	7	main_slash	99	stimuli_distractor_diamondtriangles.svg	stimuli_target_squarediamonds.svg	16	yes	53	1	825
6.6.1	win	2022-12-16	10:28:50	10:34:16	324014	559cb12dfdf99b4989fb18ed	689766813	1	main_slash	7	advance_on_keypress_SLASH	100	stimuli_distractor_diamondtriangles.svg	stimuli_target_squarediamonds.svg	16	yes	57	0	385
6.6.1	win	2022-12-16	10:28:50	10:34:18	325790	559cb12dfdf99b4989fb18ed	689766813	1	main_slash	7	main_slash	101	stimuli_distractor_diamondtriangles.svg	stimuli_target_circlediamonds.svg	14	yes	53	1	729
6.6.1	win	2022-12-16	10:28:50	10:34:18	325790	559cb12dfdf99b4989fb18ed	689766813	1	main_slash	7	advance_on_keypress_SLASH	102	stimuli_distractor_diamondtriangles.svg	stimuli_target_circlediamonds.svg	14	yes	57	0	490
6.6.1	win	2022-12-16	10:28:50	10:34:20	327806	559cb12dfdf99b4989fb18ed	689766813	1	main_slash	7	main_slash	103	stimuli_target_circletriangles.svg	stimuli_distractor_diamondtriangles.svg	5	yes	53	1	864
6.6.1	win	2022-12-16	10:28:50	10:34:20	327806	559cb12dfdf99b4989fb18ed	689766813	1	main_slash	7	advance_on_keypress_SLASH	104	stimuli_target_circletriangles.svg	stimuli_distractor_diamondtriangles.svg	5	yes	57	0	385
6.6.1	win	2022-12-16	10:28:50	10:34:23	330853	559cb12dfdf99b4989fb18ed	689766813	1	main_slash	7	main_slash	105	stimuli_distractor_diamondtriangles.svg	stimuli_target_diamondsquares.svg	32	yes	0	0	2000
6.6.1	win	2022-12-16	10:28:50	10:34:23	330853	559cb12dfdf99b4989fb18ed	689766813	1	main_slash	7	advance_on_keypress_SLASH	106	stimuli_distractor_diamondtriangles.svg	stimuli_target_diamondsquares.svg	32	yes	57	0	757
6.6.1	win	2022-12-16	10:28:50	10:34:27	334269	559cb12dfdf99b4989fb18ed	689766813	1	main_slash	7	main_slash	107	stimuli_distractor_trianglediamonds.svg	stimuli_distractor_diamondtriangles.svg	36	no	0	1	2000
6.6.1	win	2022-12-16	10:28:50	10:34:27	334269	559cb12dfdf99b4989fb18ed	689766813	1	main_slash	7	advance_on_keypress_SLASH	108	stimuli_distractor_trianglediamonds.svg	stimuli_distractor_diamondtriangles.svg	36	no	57	0	627
6.6.1	win	2022-12-16	10:28:50	10:34:29	336590	559cb12dfdf99b4989fb18ed	689766813	1	main_slash	7	main_slash	109	stimuli_distractor_trianglediamonds.svg	stimuli_target_circlediamonds.svg	10	yes	53	1	1032
6.6.1	win	2022-12-16	10:28:50	10:34:29	336590	559cb12dfdf99b4989fb18ed	689766813	1	main_slash	7	advance_on_keypress_SLASH	110	stimuli_distractor_trianglediamonds.svg	stimuli_target_circlediamonds.svg	10	yes	57	0	289
6.6.1	win	2022-12-16	10:28:50	10:34:31	338398	559cb12dfdf99b4989fb18ed	689766813	1	main_slash	7	main_slash	111	stimuli_target_diamondcircles.svg	stimuli_distractor_diamondtriangles.svg	23	yes	53	1	857
6.6.1	win	2022-12-16	10:28:50	10:34:31	338398	559cb12dfdf99b4989fb18ed	689766813	1	main_slash	7	advance_on_keypress_SLASH	112	stimuli_target_diamondcircles.svg	stimuli_distractor_diamondtriangles.svg	23	yes	57	0	329
6.6.1	win	2022-12-16	10:28:50	10:34:34	341388	559cb12dfdf99b4989fb18ed	689766813	1	main_slash	7	main_slash	113	stimuli_target_trianglesquares.svg	stimuli_distractor_trianglediamonds.svg	18	yes	0	0	2000
6.6.1	win	2022-12-16	10:28:50	10:34:34	341388	559cb12dfdf99b4989fb18ed	689766813	1	main_slash	7	advance_on_keypress_SLASH	114	stimuli_target_trianglesquares.svg	stimuli_distractor_trianglediamonds.svg	18	yes	57	0	746
6.6.1	win	2022-12-16	10:28:50	10:34:37	344797	559cb12dfdf99b4989fb18ed	689766813	1	main_slash	7	main_slash	115	stimuli_distractor_trianglediamonds.svg	stimuli_distractor_diamondtriangles.svg	35	no	0	1	2000
6.6.1	win	2022-12-16	10:28:50	10:34:37	344797	559cb12dfdf99b4989fb18ed	689766813	1	main_slash	7	advance_on_keypress_SLASH	116	stimuli_distractor_trianglediamonds.svg	stimuli_distractor_diamondtriangles.svg	35	no	57	0	346
6.6.1	win	2022-12-16	10:28:50	10:34:39	346886	559cb12dfdf99b4989fb18ed	689766813	1	main_slash	7	main_slash	117	stimuli_distractor_trianglediamonds.svg	stimuli_target_trianglecircles.svg	25	yes	53	1	1081
6.6.1	win	2022-12-16	10:28:50	10:34:39	346886	559cb12dfdf99b4989fb18ed	689766813	1	main_slash	7	advance_on_keypress_SLASH	118	stimuli_distractor_trianglediamonds.svg	stimuli_target_trianglecircles.svg	25	yes	57	0	337
6.6.1	win	2022-12-16	10:28:50	10:34:41	348790	559cb12dfdf99b4989fb18ed	689766813	1	main_slash	7	main_slash	119	stimuli_distractor_diamondtriangles.svg	stimuli_target_diamondcircles.svg	31	yes	53	1	905
6.6.1	win	2022-12-16	10:28:50	10:34:41	348790	559cb12dfdf99b4989fb18ed	689766813	1	main_slash	7	advance_on_keypress_SLASH	120	stimuli_distractor_diamondtriangles.svg	stimuli_target_diamondcircles.svg	31	yes	57	0	345
6.6.1	win	2022-12-16	10:28:50	10:34:44	351078	559cb12dfdf99b4989fb18ed	689766813	1	main_slash	7	main_slash	121	stimuli_target_trianglesquares.svg	stimuli_distractor_diamondtriangles.svg	22	yes	53	1	1281
6.6.1	win	2022-12-16	10:28:50	10:34:44	351078	559cb12dfdf99b4989fb18ed	689766813	1	main_slash	7	advance_on_keypress_SLASH	122	stimuli_target_trianglesquares.svg	stimuli_distractor_diamondtriangles.svg	22	yes	57	0	262
6.6.1	win	2022-12-16	10:28:50	10:34:46	354005	559cb12dfdf99b4989fb18ed	689766813	1	main_slash	7	main_slash	123	stimuli_distractor_diamondtriangles.svg	stimuli_distractor_diamondtriangles.svg	40	no	0	1	2000
6.6.1	win	2022-12-16	10:28:50	10:34:46	354005	559cb12dfdf99b4989fb18ed	689766813	1	main_slash	7	advance_on_keypress_SLASH	124	stimuli_distractor_diamondtriangles.svg	stimuli_distractor_diamondtriangles.svg	40	no	57	0	834
6.6.1	win	2022-12-16	10:28:50	10:34:50	357506	559cb12dfdf99b4989fb18ed	689766813	1	main_slash	7	main_slash	125	stimuli_distractor_trianglediamonds.svg	stimuli_target_diamondsquares.svg	28	yes	0	0	2000
6.6.1	win	2022-12-16	10:28:50	10:34:50	357506	559cb12dfdf99b4989fb18ed	689766813	1	main_slash	7	advance_on_keypress_SLASH	126	stimuli_distractor_trianglediamonds.svg	stimuli_target_diamondsquares.svg	28	yes	57	0	677
6.6.1	win	2022-12-16	10:28:50	10:34:52	359838	559cb12dfdf99b4989fb18ed	689766813	1	main_slash	7	main_slash	127	stimuli_target_circlediamonds.svg	stimuli_distractor_trianglediamonds.svg	2	yes	53	1	993
6.6.1	win	2022-12-16	10:28:50	10:34:52	359838	559cb12dfdf99b4989fb18ed	689766813	1	main_slash	7	advance_on_keypress_SLASH	128	stimuli_target_circlediamonds.svg	stimuli_distractor_trianglediamonds.svg	2	yes	57	0	414
6.6.1	win	2022-12-16	10:28:50	10:34:55	362909	559cb12dfdf99b4989fb18ed	689766813	1	main_slash	7	main_slash	129	stimuli_distractor_trianglediamonds.svg	stimuli_distractor_trianglediamonds.svg	33	no	0	1	2000
6.6.1	win	2022-12-16	10:28:50	10:34:55	362909	559cb12dfdf99b4989fb18ed	689766813	1	main_slash	7	advance_on_keypress_SLASH	130	stimuli_distractor_trianglediamonds.svg	stimuli_distractor_trianglediamonds.svg	33	no	57	0	723
6.6.1	win	2022-12-16	10:28:50	10:34:59	366298	559cb12dfdf99b4989fb18ed	689766813	1	main_slash	7	main_slash	131	stimuli_distractor_trianglediamonds.svg	stimuli_distractor_trianglediamonds.svg	34	no	0	1	2000
6.6.1	win	2022-12-16	10:28:50	10:34:59	366298	559cb12dfdf99b4989fb18ed	689766813	1	main_slash	7	advance_on_keypress_SLASH	132	stimuli_distractor_trianglediamonds.svg	stimuli_distractor_trianglediamonds.svg	34	no	57	0	997
6.6.1	win	2022-12-16	10:28:50	10:35:02	369957	559cb12dfdf99b4989fb18ed	689766813	1	main_slash	7	main_slash	133	stimuli_distractor_trianglediamonds.svg	stimuli_target_trianglesquares.svg	26	yes	0	0	2000
6.6.1	win	2022-12-16	10:28:50	10:35:02	369957	559cb12dfdf99b4989fb18ed	689766813	1	main_slash	7	advance_on_keypress_SLASH	134	stimuli_distractor_trianglediamonds.svg	stimuli_target_trianglesquares.svg	26	yes	57	0	539
6.6.1	win	2022-12-16	10:28:50	10:35:05	372222	559cb12dfdf99b4989fb18ed	689766813	1	main_slash	7	main_slash	135	stimuli_target_squaretriangles.svg	stimuli_distractor_diamondtriangles.svg	7	yes	53	1	1065
6.6.1	win	2022-12-16	10:28:50	10:35:05	372222	559cb12dfdf99b4989fb18ed	689766813	1	main_slash	7	advance_on_keypress_SLASH	136	stimuli_target_squaretriangles.svg	stimuli_distractor_diamondtriangles.svg	7	yes	57	0	337
6.6.1	win	2022-12-16	10:28:50	10:35:07	374590	559cb12dfdf99b4989fb18ed	689766813	1	main_slash	7	main_slash	137	stimuli_target_squaretriangles.svg	stimuli_distractor_trianglediamonds.svg	3	yes	53	1	1370
6.6.1	win	2022-12-16	10:28:50	10:35:07	374590	559cb12dfdf99b4989fb18ed	689766813	1	main_slash	7	advance_on_keypress_SLASH	138	stimuli_target_squaretriangles.svg	stimuli_distractor_trianglediamonds.svg	3	yes	57	0	361
6.6.1	win	2022-12-16	10:28:50	10:35:09	376742	559cb12dfdf99b4989fb18ed	689766813	1	main_slash	7	main_slash	139	stimuli_target_diamondcircles.svg	stimuli_distractor_trianglediamonds.svg	19	yes	53	1	1129
6.6.1	win	2022-12-16	10:28:50	10:35:09	376742	559cb12dfdf99b4989fb18ed	689766813	1	main_slash	7	advance_on_keypress_SLASH	140	stimuli_target_diamondcircles.svg	stimuli_distractor_trianglediamonds.svg	19	yes	57	0	417
6.6.1	win	2022-12-16	10:28:50	10:35:12	379150	559cb12dfdf99b4989fb18ed	689766813	1	main_slash	7	main_slash	141	stimuli_target_circlediamonds.svg	stimuli_distractor_diamondtriangles.svg	6	yes	53	1	1329
6.6.1	win	2022-12-16	10:28:50	10:35:12	379150	559cb12dfdf99b4989fb18ed	689766813	1	main_slash	7	advance_on_keypress_SLASH	142	stimuli_target_circlediamonds.svg	stimuli_distractor_diamondtriangles.svg	6	yes	57	0	825
6.6.1	win	2022-12-16	10:28:50	10:35:15	382637	559cb12dfdf99b4989fb18ed	689766813	1	main_slash	7	main_slash	143	stimuli_distractor_diamondtriangles.svg	stimuli_distractor_diamondtriangles.svg	39	no	0	1	2000
6.6.1	win	2022-12-16	10:28:50	10:35:15	382637	559cb12dfdf99b4989fb18ed	689766813	1	main_slash	7	advance_on_keypress_SLASH	144	stimuli_distractor_diamondtriangles.svg	stimuli_distractor_diamondtriangles.svg	39	no	57	0	442
6.6.1	win	2022-12-16	10:28:50	10:35:17	384878	559cb12dfdf99b4989fb18ed	689766813	1	main_slash	7	main_slash	145	stimuli_distractor_diamondtriangles.svg	stimuli_target_squaretriangles.svg	15	yes	53	1	1138
6.6.1	win	2022-12-16	10:28:50	10:35:17	384878	559cb12dfdf99b4989fb18ed	689766813	1	main_slash	7	advance_on_keypress_SLASH	146	stimuli_distractor_diamondtriangles.svg	stimuli_target_squaretriangles.svg	15	yes	57	0	401
6.6.1	win	2022-12-16	10:28:50	10:35:19	386790	559cb12dfdf99b4989fb18ed	689766813	1	main_slash	7	main_slash	147	stimuli_target_circletriangles.svg	stimuli_distractor_trianglediamonds.svg	1	yes	53	1	849
6.6.1	win	2022-12-16	10:28:50	10:35:19	386790	559cb12dfdf99b4989fb18ed	689766813	1	main_slash	7	advance_on_keypress_SLASH	148	stimuli_target_circletriangles.svg	stimuli_distractor_trianglediamonds.svg	1	yes	57	0	401
6.6.1	win	2022-12-16	10:28:50	10:35:22	389852	559cb12dfdf99b4989fb18ed	689766813	1	main_slash	7	main_slash	149	stimuli_distractor_diamondtriangles.svg	stimuli_distractor_trianglediamonds.svg	38	no	0	1	2000
6.6.1	win	2022-12-16	10:28:50	10:35:22	389852	559cb12dfdf99b4989fb18ed	689766813	1	main_slash	7	advance_on_keypress_SLASH	150	stimuli_distractor_diamondtriangles.svg	stimuli_distractor_trianglediamonds.svg	38	no	57	0	437
6.6.1	win	2022-12-16	10:28:50	10:35:24	391822	559cb12dfdf99b4989fb18ed	689766813	1	main_slash	7	main_slash	151	stimuli_distractor_trianglediamonds.svg	stimuli_target_squaretriangles.svg	11	yes	53	1	880
6.6.1	win	2022-12-16	10:28:50	10:35:24	391822	559cb12dfdf99b4989fb18ed	689766813	1	main_slash	7	advance_on_keypress_SLASH	152	stimuli_distractor_trianglediamonds.svg	stimuli_target_squaretriangles.svg	11	yes	57	0	349
6.6.1	win	2022-12-16	10:28:50	10:35:26	393622	559cb12dfdf99b4989fb18ed	689766813	1	main_slash	7	main_slash	153	stimuli_target_squarediamonds.svg	stimuli_distractor_trianglediamonds.svg	4	yes	53	1	785
6.6.1	win	2022-12-16	10:28:50	10:35:26	393622	559cb12dfdf99b4989fb18ed	689766813	1	main_slash	7	advance_on_keypress_SLASH	154	stimuli_target_squarediamonds.svg	stimuli_distractor_trianglediamonds.svg	4	yes	57	0	521
6.6.1	win	2022-12-16	10:28:50	10:35:28	395710	559cb12dfdf99b4989fb18ed	689766813	1	main_slash	7	main_slash	155	stimuli_target_diamondsquares.svg	stimuli_distractor_diamondtriangles.svg	24	yes	53	1	906
6.6.1	win	2022-12-16	10:28:50	10:35:28	395710	559cb12dfdf99b4989fb18ed	689766813	1	main_slash	7	advance_on_keypress_SLASH	156	stimuli_target_diamondsquares.svg	stimuli_distractor_diamondtriangles.svg	24	yes	57	0	353
6.6.1	win	2022-12-16	10:28:50	10:35:30	397774	559cb12dfdf99b4989fb18ed	689766813	1	main_slash	7	main_slash	157	stimuli_distractor_diamondtriangles.svg	stimuli_distractor_trianglediamonds.svg	37	no	53	0	1049
6.6.1	win	2022-12-16	10:28:50	10:35:30	397774	559cb12dfdf99b4989fb18ed	689766813	1	main_slash	7	advance_on_keypress_SLASH	158	stimuli_distractor_diamondtriangles.svg	stimuli_distractor_trianglediamonds.svg	37	no	57	0	385
6.6.1	win	2022-12-16	10:28:50	10:35:32	399838	559cb12dfdf99b4989fb18ed	689766813	1	main_slash	7	main_slash	159	stimuli_target_trianglecircles.svg	stimuli_distractor_diamondtriangles.svg	21	yes	53	1	1018
6.6.1	win	2022-12-16	10:28:50	10:35:32	399838	559cb12dfdf99b4989fb18ed	689766813	1	main_slash	7	advance_on_keypress_SLASH	160	stimuli_target_trianglecircles.svg	stimuli_distractor_diamondtriangles.svg	21	yes	57	0	337
6.6.1	win	2022-12-16	10:28:50	10:35:54	421283	559cb12dfdf99b4989fb18ed	689766813	1	practice_z	9	practice_z	1	stimuli_distractor_trianglediamonds.svg	stimuli_distractor_trianglediamonds.svg	15	no	0	1	2000
6.6.1	win	2022-12-16	10:28:50	10:35:54	421283	559cb12dfdf99b4989fb18ed	689766813	1	practice_z	9	advance_on_keypress_ZEE	2	stimuli_distractor_trianglediamonds.svg	stimuli_distractor_trianglediamonds.svg	15	no	57	0	2244
6.6.1	win	2022-12-16	10:28:50	10:35:59	426082	559cb12dfdf99b4989fb18ed	689766813	1	practice_z	9	practice_z	3	stimuli_distractor_diamondtriangles.svg	stimuli_target_diamondcircles.svg	8	yes	44	1	889
6.6.1	win	2022-12-16	10:28:50	10:35:59	426082	559cb12dfdf99b4989fb18ed	689766813	1	practice_z	9	advance_on_keypress_ZEE	4	stimuli_distractor_diamondtriangles.svg	stimuli_target_diamondcircles.svg	8	yes	57	0	533
6.6.1	win	2022-12-16	10:28:50	10:36:02	429161	559cb12dfdf99b4989fb18ed	689766813	1	practice_z	9	practice_z	5	stimuli_target_diamondsquares.svg	stimuli_distractor_diamondtriangles.svg	3	yes	44	1	886
6.6.1	win	2022-12-16	10:28:50	10:36:02	429161	559cb12dfdf99b4989fb18ed	689766813	1	practice_z	9	advance_on_keypress_ZEE	6	stimuli_target_diamondsquares.svg	stimuli_distractor_diamondtriangles.svg	3	yes	57	0	646
6.6.1	win	2022-12-16	10:28:50	10:36:06	433474	559cb12dfdf99b4989fb18ed	689766813	1	practice_z	9	practice_z	7	stimuli_target_diamondsquares.svg	stimuli_distractor_trianglediamonds.svg	6	yes	0	0	2000
6.6.1	win	2022-12-16	10:28:50	10:36:06	433474	559cb12dfdf99b4989fb18ed	689766813	1	practice_z	9	advance_on_keypress_ZEE	8	stimuli_target_diamondsquares.svg	stimuli_distractor_trianglediamonds.svg	6	yes	57	0	325
6.6.1	win	2022-12-16	10:28:50	10:36:09	436266	559cb12dfdf99b4989fb18ed	689766813	1	practice_z	9	practice_z	9	stimuli_target_circlediamonds.svg	stimuli_distractor_diamondtriangles.svg	1	yes	44	1	801
6.6.1	win	2022-12-16	10:28:50	10:36:09	436266	559cb12dfdf99b4989fb18ed	689766813	1	practice_z	9	advance_on_keypress_ZEE	10	stimuli_target_circlediamonds.svg	stimuli_distractor_diamondtriangles.svg	1	yes	57	0	607
6.6.1	win	2022-12-16	10:28:50	10:36:12	439499	559cb12dfdf99b4989fb18ed	689766813	1	practice_z	9	practice_z	11	stimuli_distractor_trianglediamonds.svg	stimuli_target_circlediamonds.svg	10	yes	44	1	961
6.6.1	win	2022-12-16	10:28:50	10:36:12	439499	559cb12dfdf99b4989fb18ed	689766813	1	practice_z	9	advance_on_keypress_ZEE	12	stimuli_distractor_trianglediamonds.svg	stimuli_target_circlediamonds.svg	10	yes	57	0	588
6.6.1	win	2022-12-16	10:28:50	10:36:15	442922	559cb12dfdf99b4989fb18ed	689766813	1	practice_z	9	practice_z	13	stimuli_distractor_diamondtriangles.svg	stimuli_target_circletriangles.svg	7	yes	44	1	1169
6.6.1	win	2022-12-16	10:28:50	10:36:15	442922	559cb12dfdf99b4989fb18ed	689766813	1	practice_z	9	advance_on_keypress_ZEE	14	stimuli_distractor_diamondtriangles.svg	stimuli_target_circletriangles.svg	7	yes	57	0	517
6.6.1	win	2022-12-16	10:28:50	10:36:20	447105	559cb12dfdf99b4989fb18ed	689766813	1	practice_z	9	practice_z	15	stimuli_distractor_diamondtriangles.svg	stimuli_distractor_diamondtriangles.svg	13	no	0	1	2000
6.6.1	win	2022-12-16	10:28:50	10:36:20	447105	559cb12dfdf99b4989fb18ed	689766813	1	practice_z	9	advance_on_keypress_ZEE	16	stimuli_distractor_diamondtriangles.svg	stimuli_distractor_diamondtriangles.svg	13	no	57	0	294
6.6.1	win	2022-12-16	10:28:50	10:36:23	450154	559cb12dfdf99b4989fb18ed	689766813	1	practice_z	9	practice_z	17	stimuli_distractor_trianglediamonds.svg	stimuli_target_squarediamonds.svg	11	yes	44	1	1089
6.6.1	win	2022-12-16	10:28:50	10:36:23	450154	559cb12dfdf99b4989fb18ed	689766813	1	practice_z	9	advance_on_keypress_ZEE	18	stimuli_distractor_trianglediamonds.svg	stimuli_target_squarediamonds.svg	11	yes	57	0	493
6.6.1	win	2022-12-16	10:28:50	10:36:27	454306	559cb12dfdf99b4989fb18ed	689766813	1	practice_z	9	practice_z	19	stimuli_distractor_diamondtriangles.svg	stimuli_distractor_trianglediamonds.svg	14	no	0	1	2000
6.6.1	win	2022-12-16	10:28:50	10:36:27	454306	559cb12dfdf99b4989fb18ed	689766813	1	practice_z	9	advance_on_keypress_ZEE	20	stimuli_distractor_diamondtriangles.svg	stimuli_distractor_trianglediamonds.svg	14	no	57	0	637
6.6.1	win	2022-12-16	10:28:50	10:36:30	457690	559cb12dfdf99b4989fb18ed	689766813	1	practice_z	9	practice_z	21	stimuli_target_squarediamonds.svg	stimuli_distractor_trianglediamonds.svg	5	yes	44	1	1081
6.6.1	win	2022-12-16	10:28:50	10:36:30	457690	559cb12dfdf99b4989fb18ed	689766813	1	practice_z	9	advance_on_keypress_ZEE	22	stimuli_target_squarediamonds.svg	stimuli_distractor_trianglediamonds.svg	5	yes	57	0	558
6.6.1	win	2022-12-16	10:28:50	10:36:33	460842	559cb12dfdf99b4989fb18ed	689766813	1	practice_z	9	practice_z	23	stimuli_distractor_trianglediamonds.svg	stimuli_target_diamondcircles.svg	12	yes	44	1	929
6.6.1	win	2022-12-16	10:28:50	10:36:33	460842	559cb12dfdf99b4989fb18ed	689766813	1	practice_z	9	advance_on_keypress_ZEE	24	stimuli_distractor_trianglediamonds.svg	stimuli_target_diamondcircles.svg	12	yes	57	0	359
6.6.1	win	2022-12-16	10:28:50	10:36:36	464010	559cb12dfdf99b4989fb18ed	689766813	1	practice_z	9	practice_z	25	stimuli_target_squarediamonds.svg	stimuli_distractor_diamondtriangles.svg	2	yes	44	1	1153
6.6.1	win	2022-12-16	10:28:50	10:36:36	464010	559cb12dfdf99b4989fb18ed	689766813	1	practice_z	9	advance_on_keypress_ZEE	26	stimuli_target_squarediamonds.svg	stimuli_distractor_diamondtriangles.svg	2	yes	57	0	405
6.6.1	win	2022-12-16	10:28:50	10:36:40	467106	559cb12dfdf99b4989fb18ed	689766813	1	practice_z	9	practice_z	27	stimuli_target_circlediamonds.svg	stimuli_distractor_trianglediamonds.svg	4	yes	44	1	1011
6.6.1	win	2022-12-16	10:28:50	10:36:40	467106	559cb12dfdf99b4989fb18ed	689766813	1	practice_z	9	advance_on_keypress_ZEE	28	stimuli_target_circlediamonds.svg	stimuli_distractor_trianglediamonds.svg	4	yes	57	0	46
6.6.1	win	2022-12-16	10:28:50	10:36:43	470815	559cb12dfdf99b4989fb18ed	689766813	1	practice_z	9	practice_z	29	stimuli_distractor_trianglediamonds.svg	stimuli_distractor_diamondtriangles.svg	16	no	0	1	2000
6.6.1	win	2022-12-16	10:28:50	10:36:43	470815	559cb12dfdf99b4989fb18ed	689766813	1	practice_z	9	advance_on_keypress_ZEE	30	stimuli_distractor_trianglediamonds.svg	stimuli_distractor_diamondtriangles.svg	16	no	57	0	591
6.6.1	win	2022-12-16	10:28:50	10:36:47	474463	559cb12dfdf99b4989fb18ed	689766813	1	practice_z	9	practice_z	31	stimuli_distractor_diamondtriangles.svg	stimuli_target_trianglecircles.svg	9	yes	44	1	1384
6.6.1	win	2022-12-16	10:28:50	10:36:47	474463	559cb12dfdf99b4989fb18ed	689766813	1	practice_z	9	advance_on_keypress_ZEE	32	stimuli_distractor_diamondtriangles.svg	stimuli_target_trianglecircles.svg	9	yes	57	0	497
6.6.1	win	2022-12-16	10:28:50	10:36:51	479006	559cb12dfdf99b4989fb18ed	689766813	1	main_z	11	main_z	1	stimuli_target_diamondcircles.svg	stimuli_distractor_diamondtriangles.svg	23	yes	44	1	749
6.6.1	win	2022-12-16	10:28:50	10:36:51	479006	559cb12dfdf99b4989fb18ed	689766813	1	main_z	11	advance_on_keypress_ZEE	2	stimuli_target_diamondcircles.svg	stimuli_distractor_diamondtriangles.svg	23	yes	57	0	777
6.6.1	win	2022-12-16	10:28:50	10:36:55	482453	559cb12dfdf99b4989fb18ed	689766813	1	main_z	11	main_z	3	stimuli_distractor_trianglediamonds.svg	stimuli_distractor_diamondtriangles.svg	35	no	0	1	2000
6.6.1	win	2022-12-16	10:28:50	10:36:55	482453	559cb12dfdf99b4989fb18ed	689766813	1	main_z	11	advance_on_keypress_ZEE	4	stimuli_distractor_trianglediamonds.svg	stimuli_distractor_diamondtriangles.svg	35	no	57	0	316
6.6.1	win	2022-12-16	10:28:50	10:36:58	485429	559cb12dfdf99b4989fb18ed	689766813	1	main_z	11	main_z	5	stimuli_distractor_diamondtriangles.svg	stimuli_distractor_diamondtriangles.svg	39	no	0	1	2000
6.6.1	win	2022-12-16	10:28:50	10:36:58	485429	559cb12dfdf99b4989fb18ed	689766813	1	main_z	11	advance_on_keypress_ZEE	6	stimuli_distractor_diamondtriangles.svg	stimuli_distractor_diamondtriangles.svg	39	no	57	0	586
6.6.1	win	2022-12-16	10:28:50	10:37:00	487750	559cb12dfdf99b4989fb18ed	689766813	1	main_z	11	main_z	7	stimuli_target_squaretriangles.svg	stimuli_distractor_diamondtriangles.svg	7	yes	44	1	1072
6.6.1	win	2022-12-16	10:28:50	10:37:00	487750	559cb12dfdf99b4989fb18ed	689766813	1	main_z	11	advance_on_keypress_ZEE	8	stimuli_target_squaretriangles.svg	stimuli_distractor_diamondtriangles.svg	7	yes	57	0	425
6.6.1	win	2022-12-16	10:28:50	10:37:03	490837	559cb12dfdf99b4989fb18ed	689766813	1	main_z	11	main_z	9	stimuli_distractor_trianglediamonds.svg	stimuli_distractor_trianglediamonds.svg	33	no	0	1	2000
6.6.1	win	2022-12-16	10:28:50	10:37:03	490837	559cb12dfdf99b4989fb18ed	689766813	1	main_z	11	advance_on_keypress_ZEE	10	stimuli_distractor_trianglediamonds.svg	stimuli_distractor_trianglediamonds.svg	33	no	57	0	791
6.6.1	win	2022-12-16	10:28:50	10:37:07	494293	559cb12dfdf99b4989fb18ed	689766813	1	main_z	11	main_z	11	stimuli_distractor_trianglediamonds.svg	stimuli_target_trianglesquares.svg	26	yes	0	0	2000
6.6.1	win	2022-12-16	10:28:50	10:37:07	494293	559cb12dfdf99b4989fb18ed	689766813	1	main_z	11	advance_on_keypress_ZEE	12	stimuli_distractor_trianglediamonds.svg	stimuli_target_trianglesquares.svg	26	yes	57	0	644
6.6.1	win	2022-12-16	10:28:50	10:37:09	496632	559cb12dfdf99b4989fb18ed	689766813	1	main_z	11	main_z	13	stimuli_target_circlediamonds.svg	stimuli_distractor_diamondtriangles.svg	6	yes	44	1	1033
6.6.1	win	2022-12-16	10:28:50	10:37:09	496632	559cb12dfdf99b4989fb18ed	689766813	1	main_z	11	advance_on_keypress_ZEE	14	stimuli_target_circlediamonds.svg	stimuli_distractor_diamondtriangles.svg	6	yes	57	0	312
6.6.1	win	2022-12-16	10:28:50	10:37:12	499605	559cb12dfdf99b4989fb18ed	689766813	1	main_z	11	main_z	15	stimuli_target_trianglecircles.svg	stimuli_distractor_diamondtriangles.svg	21	yes	0	0	2000
6.6.1	win	2022-12-16	10:28:50	10:37:12	499605	559cb12dfdf99b4989fb18ed	689766813	1	main_z	11	advance_on_keypress_ZEE	16	stimuli_target_trianglecircles.svg	stimuli_distractor_diamondtriangles.svg	21	yes	57	0	338
6.6.1	win	2022-12-16	10:28:50	10:37:14	501870	559cb12dfdf99b4989fb18ed	689766813	1	main_z	11	main_z	17	stimuli_target_trianglesquares.svg	stimuli_distractor_trianglediamonds.svg	18	yes	44	1	1265
6.6.1	win	2022-12-16	10:28:50	10:37:14	501870	559cb12dfdf99b4989fb18ed	689766813	1	main_z	11	advance_on_keypress_ZEE	18	stimuli_target_trianglesquares.svg	stimuli_distractor_trianglediamonds.svg	18	yes	57	0	313
6.6.1	win	2022-12-16	10:28:50	10:37:17	504190	559cb12dfdf99b4989fb18ed	689766813	1	main_z	11	main_z	19	stimuli_distractor_trianglediamonds.svg	stimuli_target_diamondsquares.svg	28	yes	44	1	1345
6.6.1	win	2022-12-16	10:28:50	10:37:17	504190	559cb12dfdf99b4989fb18ed	689766813	1	main_z	11	advance_on_keypress_ZEE	20	stimuli_distractor_trianglediamonds.svg	stimuli_target_diamondsquares.svg	28	yes	57	0	289
6.6.1	win	2022-12-16	10:28:50	10:37:20	507141	559cb12dfdf99b4989fb18ed	689766813	1	main_z	11	main_z	21	stimuli_distractor_diamondtriangles.svg	stimuli_distractor_trianglediamonds.svg	37	no	0	1	2000
6.6.1	win	2022-12-16	10:28:50	10:37:20	507141	559cb12dfdf99b4989fb18ed	689766813	1	main_z	11	advance_on_keypress_ZEE	22	stimuli_distractor_diamondtriangles.svg	stimuli_distractor_trianglediamonds.svg	37	no	57	0	323
6.6.1	win	2022-12-16	10:28:50	10:37:23	510127	559cb12dfdf99b4989fb18ed	689766813	1	main_z	11	main_z	23	stimuli_distractor_trianglediamonds.svg	stimuli_distractor_trianglediamonds.svg	34	no	0	1	2000
6.6.1	win	2022-12-16	10:28:50	10:37:23	510127	559cb12dfdf99b4989fb18ed	689766813	1	main_z	11	advance_on_keypress_ZEE	24	stimuli_distractor_trianglediamonds.svg	stimuli_distractor_trianglediamonds.svg	34	no	57	0	329
6.6.1	win	2022-12-16	10:28:50	10:37:25	512062	559cb12dfdf99b4989fb18ed	689766813	1	main_z	11	main_z	25	stimuli_distractor_diamondtriangles.svg	stimuli_target_diamondcircles.svg	31	yes	44	1	944
6.6.1	win	2022-12-16	10:28:50	10:37:25	512062	559cb12dfdf99b4989fb18ed	689766813	1	main_z	11	advance_on_keypress_ZEE	26	stimuli_distractor_diamondtriangles.svg	stimuli_target_diamondcircles.svg	31	yes	57	0	313
6.6.1	win	2022-12-16	10:28:50	10:37:28	515037	559cb12dfdf99b4989fb18ed	689766813	1	main_z	11	main_z	27	stimuli_distractor_diamondtriangles.svg	stimuli_distractor_trianglediamonds.svg	38	no	0	1	2000
6.6.1	win	2022-12-16	10:28:50	10:37:28	515037	559cb12dfdf99b4989fb18ed	689766813	1	main_z	11	advance_on_keypress_ZEE	28	stimuli_distractor_diamondtriangles.svg	stimuli_distractor_trianglediamonds.svg	38	no	57	0	659
6.6.1	win	2022-12-16	10:28:50	10:37:30	517431	559cb12dfdf99b4989fb18ed	689766813	1	main_z	11	main_z	29	stimuli_distractor_trianglediamonds.svg	stimuli_target_squarediamonds.svg	12	yes	44	1	1082
6.6.1	win	2022-12-16	10:28:50	10:37:30	517431	559cb12dfdf99b4989fb18ed	689766813	1	main_z	11	advance_on_keypress_ZEE	30	stimuli_distractor_trianglediamonds.svg	stimuli_target_squarediamonds.svg	12	yes	57	0	305
6.6.1	win	2022-12-16	10:28:50	10:37:32	519454	559cb12dfdf99b4989fb18ed	689766813	1	main_z	11	main_z	31	stimuli_distractor_trianglediamonds.svg	stimuli_target_squaretriangles.svg	11	yes	44	1	1060
6.6.1	win	2022-12-16	10:28:50	10:37:32	519454	559cb12dfdf99b4989fb18ed	689766813	1	main_z	11	advance_on_keypress_ZEE	32	stimuli_distractor_trianglediamonds.svg	stimuli_target_squaretriangles.svg	11	yes	57	0	348
6.6.1	win	2022-12-16	10:28:50	10:37:34	521463	559cb12dfdf99b4989fb18ed	689766813	1	main_z	11	main_z	33	stimuli_target_squarediamonds.svg	stimuli_distractor_diamondtriangles.svg	8	yes	44	1	1002
6.6.1	win	2022-12-16	10:28:50	10:37:34	521463	559cb12dfdf99b4989fb18ed	689766813	1	main_z	11	advance_on_keypress_ZEE	34	stimuli_target_squarediamonds.svg	stimuli_distractor_diamondtriangles.svg	8	yes	57	0	312
6.6.1	win	2022-12-16	10:28:50	10:37:36	523422	559cb12dfdf99b4989fb18ed	689766813	1	main_z	11	main_z	35	stimuli_target_circletriangles.svg	stimuli_distractor_trianglediamonds.svg	1	yes	44	1	985
6.6.1	win	2022-12-16	10:28:50	10:37:36	523422	559cb12dfdf99b4989fb18ed	689766813	1	main_z	11	advance_on_keypress_ZEE	36	stimuli_target_circletriangles.svg	stimuli_distractor_trianglediamonds.svg	1	yes	57	0	457
6.6.1	win	2022-12-16	10:28:50	10:37:38	525526	559cb12dfdf99b4989fb18ed	689766813	1	main_z	11	main_z	37	stimuli_distractor_diamondtriangles.svg	stimuli_target_trianglecircles.svg	29	yes	44	1	985
6.6.1	win	2022-12-16	10:28:50	10:37:38	525526	559cb12dfdf99b4989fb18ed	689766813	1	main_z	11	advance_on_keypress_ZEE	38	stimuli_distractor_diamondtriangles.svg	stimuli_target_trianglecircles.svg	29	yes	57	0	305
6.6.1	win	2022-12-16	10:28:50	10:37:41	528406	559cb12dfdf99b4989fb18ed	689766813	1	main_z	11	main_z	39	stimuli_target_squarediamonds.svg	stimuli_distractor_trianglediamonds.svg	4	yes	44	1	1913
6.6.1	win	2022-12-16	10:28:50	10:37:41	528406	559cb12dfdf99b4989fb18ed	689766813	1	main_z	11	advance_on_keypress_ZEE	40	stimuli_target_squarediamonds.svg	stimuli_distractor_trianglediamonds.svg	4	yes	57	0	313
6.6.1	win	2022-12-16	10:28:50	10:37:43	530463	559cb12dfdf99b4989fb18ed	689766813	1	main_z	11	main_z	41	stimuli_target_diamondsquares.svg	stimuli_distractor_trianglediamonds.svg	20	yes	44	1	1082
6.6.1	win	2022-12-16	10:28:50	10:37:43	530463	559cb12dfdf99b4989fb18ed	689766813	1	main_z	11	advance_on_keypress_ZEE	42	stimuli_target_diamondsquares.svg	stimuli_distractor_trianglediamonds.svg	20	yes	57	0	297
6.6.1	win	2022-12-16	10:28:50	10:37:45	532470	559cb12dfdf99b4989fb18ed	689766813	1	main_z	11	main_z	43	stimuli_distractor_diamondtriangles.svg	stimuli_target_circletriangles.svg	13	yes	44	1	1050
6.6.1	win	2022-12-16	10:28:50	10:37:45	532470	559cb12dfdf99b4989fb18ed	689766813	1	main_z	11	advance_on_keypress_ZEE	44	stimuli_distractor_diamondtriangles.svg	stimuli_target_circletriangles.svg	13	yes	57	0	329
6.6.1	win	2022-12-16	10:28:50	10:37:48	535038	559cb12dfdf99b4989fb18ed	689766813	1	main_z	11	main_z	45	stimuli_distractor_diamondtriangles.svg	stimuli_target_diamondsquares.svg	32	yes	44	1	1577
6.6.1	win	2022-12-16	10:28:50	10:37:48	535038	559cb12dfdf99b4989fb18ed	689766813	1	main_z	11	advance_on_keypress_ZEE	46	stimuli_distractor_diamondtriangles.svg	stimuli_target_diamondsquares.svg	32	yes	57	0	193
6.6.1	win	2022-12-16	10:28:50	10:37:49	536934	559cb12dfdf99b4989fb18ed	689766813	1	main_z	11	main_z	47	stimuli_distractor_trianglediamonds.svg	stimuli_target_circletriangles.svg	9	yes	44	1	1040
6.6.1	win	2022-12-16	10:28:50	10:37:49	536934	559cb12dfdf99b4989fb18ed	689766813	1	main_z	11	advance_on_keypress_ZEE	48	stimuli_distractor_trianglediamonds.svg	stimuli_target_circletriangles.svg	9	yes	57	0	337
6.6.1	win	2022-12-16	10:28:50	10:37:51	538702	559cb12dfdf99b4989fb18ed	689766813	1	main_z	11	main_z	49	stimuli_target_circlediamonds.svg	stimuli_distractor_trianglediamonds.svg	2	yes	44	1	769
6.6.1	win	2022-12-16	10:28:50	10:37:51	538702	559cb12dfdf99b4989fb18ed	689766813	1	main_z	11	advance_on_keypress_ZEE	50	stimuli_target_circlediamonds.svg	stimuli_distractor_trianglediamonds.svg	2	yes	57	0	562
6.6.1	win	2022-12-16	10:28:50	10:37:53	540886	559cb12dfdf99b4989fb18ed	689766813	1	main_z	11	main_z	51	stimuli_target_circletriangles.svg	stimuli_distractor_diamondtriangles.svg	5	yes	44	1	968
6.6.1	win	2022-12-16	10:28:50	10:37:53	540886	559cb12dfdf99b4989fb18ed	689766813	1	main_z	11	advance_on_keypress_ZEE	52	stimuli_target_circletriangles.svg	stimuli_distractor_diamondtriangles.svg	5	yes	57	0	833
6.6.1	win	2022-12-16	10:28:50	10:37:57	544377	559cb12dfdf99b4989fb18ed	689766813	1	main_z	11	main_z	53	stimuli_distractor_trianglediamonds.svg	stimuli_distractor_diamondtriangles.svg	36	no	0	1	2000
6.6.1	win	2022-12-16	10:28:50	10:37:57	544377	559cb12dfdf99b4989fb18ed	689766813	1	main_z	11	advance_on_keypress_ZEE	54	stimuli_distractor_trianglediamonds.svg	stimuli_distractor_diamondtriangles.svg	36	no	57	0	1254
6.6.1	win	2022-12-16	10:28:50	10:38:00	547502	559cb12dfdf99b4989fb18ed	689766813	1	main_z	11	main_z	55	stimuli_distractor_trianglediamonds.svg	stimuli_target_circlediamonds.svg	10	yes	44	1	1209
6.6.1	win	2022-12-16	10:28:50	10:38:00	547502	559cb12dfdf99b4989fb18ed	689766813	1	main_z	11	advance_on_keypress_ZEE	56	stimuli_distractor_trianglediamonds.svg	stimuli_target_circlediamonds.svg	10	yes	57	0	265
6.6.1	win	2022-12-16	10:28:50	10:38:02	549638	559cb12dfdf99b4989fb18ed	689766813	1	main_z	11	main_z	57	stimuli_distractor_diamondtriangles.svg	stimuli_target_squarediamonds.svg	16	yes	44	1	1209
6.6.1	win	2022-12-16	10:28:50	10:38:02	549638	559cb12dfdf99b4989fb18ed	689766813	1	main_z	11	advance_on_keypress_ZEE	58	stimuli_distractor_diamondtriangles.svg	stimuli_target_squarediamonds.svg	16	yes	57	0	257
6.6.1	win	2022-12-16	10:28:50	10:38:04	551798	559cb12dfdf99b4989fb18ed	689766813	1	main_z	11	main_z	59	stimuli_distractor_diamondtriangles.svg	stimuli_target_trianglesquares.svg	30	yes	44	1	1241
6.6.1	win	2022-12-16	10:28:50	10:38:04	551798	559cb12dfdf99b4989fb18ed	689766813	1	main_z	11	advance_on_keypress_ZEE	60	stimuli_distractor_diamondtriangles.svg	stimuli_target_trianglesquares.svg	30	yes	57	0	233
6.6.1	win	2022-12-16	10:28:50	10:38:07	554070	559cb12dfdf99b4989fb18ed	689766813	1	main_z	11	main_z	61	stimuli_target_diamondsquares.svg	stimuli_distractor_diamondtriangles.svg	24	yes	44	1	1385
6.6.1	win	2022-12-16	10:28:50	10:38:07	554070	559cb12dfdf99b4989fb18ed	689766813	1	main_z	11	advance_on_keypress_ZEE	62	stimuli_target_diamondsquares.svg	stimuli_distractor_diamondtriangles.svg	24	yes	57	0	329
6.6.1	win	2022-12-16	10:28:50	10:38:09	556134	559cb12dfdf99b4989fb18ed	689766813	1	main_z	11	main_z	63	stimuli_target_squaretriangles.svg	stimuli_distractor_trianglediamonds.svg	3	yes	44	1	1074
6.6.1	win	2022-12-16	10:28:50	10:38:09	556134	559cb12dfdf99b4989fb18ed	689766813	1	main_z	11	advance_on_keypress_ZEE	64	stimuli_target_squaretriangles.svg	stimuli_distractor_trianglediamonds.svg	3	yes	57	0	1473
6.6.1	win	2022-12-16	10:28:50	10:38:12	559414	559cb12dfdf99b4989fb18ed	689766813	1	main_z	11	main_z	65	stimuli_distractor_trianglediamonds.svg	stimuli_target_trianglecircles.svg	25	yes	44	1	1144
6.6.1	win	2022-12-16	10:28:50	10:38:12	559414	559cb12dfdf99b4989fb18ed	689766813	1	main_z	11	advance_on_keypress_ZEE	66	stimuli_distractor_trianglediamonds.svg	stimuli_target_trianglecircles.svg	25	yes	57	0	449
6.6.1	win	2022-12-16	10:28:50	10:38:15	562070	559cb12dfdf99b4989fb18ed	689766813	1	main_z	11	main_z	67	stimuli_target_trianglecircles.svg	stimuli_distractor_trianglediamonds.svg	17	yes	44	1	1556
6.6.1	win	2022-12-16	10:28:50	10:38:15	562070	559cb12dfdf99b4989fb18ed	689766813	1	main_z	11	advance_on_keypress_ZEE	68	stimuli_target_trianglecircles.svg	stimuli_distractor_trianglediamonds.svg	17	yes	57	0	337
6.6.1	win	2022-12-16	10:28:50	10:38:17	564158	559cb12dfdf99b4989fb18ed	689766813	1	main_z	11	main_z	69	stimuli_target_trianglesquares.svg	stimuli_distractor_diamondtriangles.svg	22	yes	44	1	1088
6.6.1	win	2022-12-16	10:28:50	10:38:17	564158	559cb12dfdf99b4989fb18ed	689766813	1	main_z	11	advance_on_keypress_ZEE	70	stimuli_target_trianglesquares.svg	stimuli_distractor_diamondtriangles.svg	22	yes	57	0	698
6.6.1	win	2022-12-16	10:28:50	10:38:19	566567	559cb12dfdf99b4989fb18ed	689766813	1	main_z	11	main_z	71	stimuli_distractor_trianglediamonds.svg	stimuli_target_diamondcircles.svg	27	yes	44	1	1048
6.6.1	win	2022-12-16	10:28:50	10:38:19	566567	559cb12dfdf99b4989fb18ed	689766813	1	main_z	11	advance_on_keypress_ZEE	72	stimuli_distractor_trianglediamonds.svg	stimuli_target_diamondcircles.svg	27	yes	57	0	360
6.6.1	win	2022-12-16	10:28:50	10:38:21	568687	559cb12dfdf99b4989fb18ed	689766813	1	main_z	11	main_z	73	stimuli_target_diamondcircles.svg	stimuli_distractor_trianglediamonds.svg	19	yes	44	1	1098
6.6.1	win	2022-12-16	10:28:50	10:38:21	568687	559cb12dfdf99b4989fb18ed	689766813	1	main_z	11	advance_on_keypress_ZEE	74	stimuli_target_diamondcircles.svg	stimuli_distractor_trianglediamonds.svg	19	yes	57	0	329
6.6.1	win	2022-12-16	10:28:50	10:38:23	570654	559cb12dfdf99b4989fb18ed	689766813	1	main_z	11	main_z	75	stimuli_distractor_diamondtriangles.svg	stimuli_target_circlediamonds.svg	14	yes	44	1	977
6.6.1	win	2022-12-16	10:28:50	10:38:23	570654	559cb12dfdf99b4989fb18ed	689766813	1	main_z	11	advance_on_keypress_ZEE	76	stimuli_distractor_diamondtriangles.svg	stimuli_target_circlediamonds.svg	14	yes	57	0	369
6.6.1	win	2022-12-16	10:28:50	10:38:26	573687	559cb12dfdf99b4989fb18ed	689766813	1	main_z	11	main_z	77	stimuli_distractor_diamondtriangles.svg	stimuli_distractor_diamondtriangles.svg	40	no	0	1	2000
6.6.1	win	2022-12-16	10:28:50	10:38:26	573687	559cb12dfdf99b4989fb18ed	689766813	1	main_z	11	advance_on_keypress_ZEE	78	stimuli_distractor_diamondtriangles.svg	stimuli_distractor_diamondtriangles.svg	40	no	57	0	979
6.6.1	win	2022-12-16	10:28:50	10:38:30	577334	559cb12dfdf99b4989fb18ed	689766813	1	main_z	11	main_z	79	stimuli_distractor_diamondtriangles.svg	stimuli_target_squaretriangles.svg	15	yes	0	0	2000
6.6.1	win	2022-12-16	10:28:50	10:38:30	577334	559cb12dfdf99b4989fb18ed	689766813	1	main_z	11	advance_on_keypress_ZEE	80	stimuli_distractor_diamondtriangles.svg	stimuli_target_squaretriangles.svg	15	yes	57	0	530
6.6.1	win	2022-12-16	10:28:50	10:38:32	579583	559cb12dfdf99b4989fb18ed	689766813	1	main_z	11	main_z	81	stimuli_target_squarediamonds.svg	stimuli_distractor_trianglediamonds.svg	4	yes	44	1	1058
6.6.1	win	2022-12-16	10:28:50	10:38:32	579583	559cb12dfdf99b4989fb18ed	689766813	1	main_z	11	advance_on_keypress_ZEE	82	stimuli_target_squarediamonds.svg	stimuli_distractor_trianglediamonds.svg	4	yes	57	0	289
6.6.1	win	2022-12-16	10:28:50	10:38:34	581374	559cb12dfdf99b4989fb18ed	689766813	1	main_z	11	main_z	83	stimuli_target_squaretriangles.svg	stimuli_distractor_diamondtriangles.svg	7	yes	44	1	841
6.6.1	win	2022-12-16	10:28:50	10:38:34	581374	559cb12dfdf99b4989fb18ed	689766813	1	main_z	11	advance_on_keypress_ZEE	84	stimuli_target_squaretriangles.svg	stimuli_distractor_diamondtriangles.svg	7	yes	57	0	393
6.6.1	win	2022-12-16	10:28:50	10:38:36	583366	559cb12dfdf99b4989fb18ed	689766813	1	main_z	11	main_z	85	stimuli_target_trianglecircles.svg	stimuli_distractor_trianglediamonds.svg	17	yes	44	1	945
6.6.1	win	2022-12-16	10:28:50	10:38:36	583366	559cb12dfdf99b4989fb18ed	689766813	1	main_z	11	advance_on_keypress_ZEE	86	stimuli_target_trianglecircles.svg	stimuli_distractor_trianglediamonds.svg	17	yes	57	0	345
6.6.1	win	2022-12-16	10:28:50	10:38:38	585198	559cb12dfdf99b4989fb18ed	689766813	1	main_z	11	main_z	87	stimuli_target_circletriangles.svg	stimuli_distractor_diamondtriangles.svg	5	yes	44	1	823
6.6.1	win	2022-12-16	10:28:50	10:38:38	585198	559cb12dfdf99b4989fb18ed	689766813	1	main_z	11	advance_on_keypress_ZEE	88	stimuli_target_circletriangles.svg	stimuli_distractor_diamondtriangles.svg	5	yes	57	0	434
6.6.1	win	2022-12-16	10:28:50	10:38:40	587142	559cb12dfdf99b4989fb18ed	689766813	1	main_z	11	main_z	89	stimuli_target_squarediamonds.svg	stimuli_distractor_diamondtriangles.svg	8	yes	44	1	849
6.6.1	win	2022-12-16	10:28:50	10:38:40	587142	559cb12dfdf99b4989fb18ed	689766813	1	main_z	11	advance_on_keypress_ZEE	90	stimuli_target_squarediamonds.svg	stimuli_distractor_diamondtriangles.svg	8	yes	57	0	337
6.6.1	win	2022-12-16	10:28:50	10:38:42	589142	559cb12dfdf99b4989fb18ed	689766813	1	main_z	11	main_z	91	stimuli_distractor_trianglediamonds.svg	stimuli_target_trianglecircles.svg	25	yes	44	1	1001
6.6.1	win	2022-12-16	10:28:50	10:38:42	589142	559cb12dfdf99b4989fb18ed	689766813	1	main_z	11	advance_on_keypress_ZEE	92	stimuli_distractor_trianglediamonds.svg	stimuli_target_trianglecircles.svg	25	yes	57	0	321
6.6.1	win	2022-12-16	10:28:50	10:38:44	591512	559cb12dfdf99b4989fb18ed	689766813	1	main_z	11	main_z	93	stimuli_distractor_diamondtriangles.svg	stimuli_target_circletriangles.svg	13	yes	44	1	1381
6.6.1	win	2022-12-16	10:28:50	10:38:44	591512	559cb12dfdf99b4989fb18ed	689766813	1	main_z	11	advance_on_keypress_ZEE	94	stimuli_distractor_diamondtriangles.svg	stimuli_target_circletriangles.svg	13	yes	57	0	287
6.6.1	win	2022-12-16	10:28:50	10:38:46	593862	559cb12dfdf99b4989fb18ed	689766813	1	main_z	11	main_z	95	stimuli_target_trianglesquares.svg	stimuli_distractor_diamondtriangles.svg	22	yes	44	1	1401
6.6.1	win	2022-12-16	10:28:50	10:38:46	593862	559cb12dfdf99b4989fb18ed	689766813	1	main_z	11	advance_on_keypress_ZEE	96	stimuli_target_trianglesquares.svg	stimuli_distractor_diamondtriangles.svg	22	yes	57	0	287
6.6.1	win	2022-12-16	10:28:50	10:38:49	596350	559cb12dfdf99b4989fb18ed	689766813	1	main_z	11	main_z	97	stimuli_distractor_trianglediamonds.svg	stimuli_target_diamondsquares.svg	28	yes	44	1	1537
6.6.1	win	2022-12-16	10:28:50	10:38:49	596350	559cb12dfdf99b4989fb18ed	689766813	1	main_z	11	advance_on_keypress_ZEE	98	stimuli_distractor_trianglediamonds.svg	stimuli_target_diamondsquares.svg	28	yes	57	0	321
6.6.1	win	2022-12-16	10:28:50	10:38:51	598490	559cb12dfdf99b4989fb18ed	689766813	1	main_z	11	main_z	99	stimuli_distractor_trianglediamonds.svg	stimuli_target_circletriangles.svg	9	yes	44	1	1154
6.6.1	win	2022-12-16	10:28:50	10:38:51	598490	559cb12dfdf99b4989fb18ed	689766813	1	main_z	11	advance_on_keypress_ZEE	100	stimuli_distractor_trianglediamonds.svg	stimuli_target_circletriangles.svg	9	yes	57	0	334
6.6.1	win	2022-12-16	10:28:50	10:38:53	600519	559cb12dfdf99b4989fb18ed	689766813	1	main_z	11	main_z	101	stimuli_target_diamondsquares.svg	stimuli_distractor_diamondtriangles.svg	24	yes	44	1	1034
6.6.1	win	2022-12-16	10:28:50	10:38:53	600519	559cb12dfdf99b4989fb18ed	689766813	1	main_z	11	advance_on_keypress_ZEE	102	stimuli_target_diamondsquares.svg	stimuli_distractor_diamondtriangles.svg	24	yes	57	0	305
6.6.1	win	2022-12-16	10:28:50	10:38:55	602526	559cb12dfdf99b4989fb18ed	689766813	1	main_z	11	main_z	103	stimuli_target_diamondcircles.svg	stimuli_distractor_diamondtriangles.svg	23	yes	44	1	1040
6.6.1	win	2022-12-16	10:28:50	10:38:55	602526	559cb12dfdf99b4989fb18ed	689766813	1	main_z	11	advance_on_keypress_ZEE	104	stimuli_target_diamondcircles.svg	stimuli_distractor_diamondtriangles.svg	23	yes	57	0	329
6.6.1	win	2022-12-16	10:28:50	10:38:57	604539	559cb12dfdf99b4989fb18ed	689766813	1	main_z	11	main_z	105	stimuli_distractor_trianglediamonds.svg	stimuli_target_trianglesquares.svg	26	yes	44	1	1018
6.6.1	win	2022-12-16	10:28:50	10:38:57	604539	559cb12dfdf99b4989fb18ed	689766813	1	main_z	11	advance_on_keypress_ZEE	106	stimuli_distractor_trianglediamonds.svg	stimuli_target_trianglesquares.svg	26	yes	57	0	309
6.6.1	win	2022-12-16	10:28:50	10:38:59	606559	559cb12dfdf99b4989fb18ed	689766813	1	main_z	11	main_z	107	stimuli_distractor_diamondtriangles.svg	stimuli_target_trianglesquares.svg	30	yes	44	1	1049
6.6.1	win	2022-12-16	10:28:50	10:38:59	606559	559cb12dfdf99b4989fb18ed	689766813	1	main_z	11	advance_on_keypress_ZEE	108	stimuli_distractor_diamondtriangles.svg	stimuli_target_trianglesquares.svg	30	yes	57	0	281
6.6.1	win	2022-12-16	10:28:50	10:39:02	609501	559cb12dfdf99b4989fb18ed	689766813	1	main_z	11	main_z	109	stimuli_distractor_trianglediamonds.svg	stimuli_distractor_diamondtriangles.svg	36	no	0	1	2000
6.6.1	win	2022-12-16	10:28:50	10:39:02	609501	559cb12dfdf99b4989fb18ed	689766813	1	main_z	11	advance_on_keypress_ZEE	110	stimuli_distractor_trianglediamonds.svg	stimuli_distractor_diamondtriangles.svg	36	no	57	0	315
6.6.1	win	2022-12-16	10:28:50	10:39:04	611502	559cb12dfdf99b4989fb18ed	689766813	1	main_z	11	main_z	111	stimuli_distractor_diamondtriangles.svg	stimuli_distractor_trianglediamonds.svg	37	no	44	0	1025
6.6.1	win	2022-12-16	10:28:50	10:39:04	611502	559cb12dfdf99b4989fb18ed	689766813	1	main_z	11	advance_on_keypress_ZEE	112	stimuli_distractor_diamondtriangles.svg	stimuli_distractor_trianglediamonds.svg	37	no	57	0	290
6.6.1	win	2022-12-16	10:28:50	10:39:06	613599	559cb12dfdf99b4989fb18ed	689766813	1	main_z	11	main_z	113	stimuli_target_circlediamonds.svg	stimuli_distractor_trianglediamonds.svg	2	yes	44	1	1145
6.6.1	win	2022-12-16	10:28:50	10:39:06	613599	559cb12dfdf99b4989fb18ed	689766813	1	main_z	11	advance_on_keypress_ZEE	114	stimuli_target_circlediamonds.svg	stimuli_distractor_trianglediamonds.svg	2	yes	57	0	361
6.6.1	win	2022-12-16	10:28:50	10:39:08	615694	559cb12dfdf99b4989fb18ed	689766813	1	main_z	11	main_z	115	stimuli_distractor_trianglediamonds.svg	stimuli_target_squaretriangles.svg	11	yes	44	1	1073
6.6.1	win	2022-12-16	10:28:50	10:39:08	615694	559cb12dfdf99b4989fb18ed	689766813	1	main_z	11	advance_on_keypress_ZEE	116	stimuli_distractor_trianglediamonds.svg	stimuli_target_squaretriangles.svg	11	yes	57	0	332
6.6.1	win	2022-12-16	10:28:50	10:39:10	617798	559cb12dfdf99b4989fb18ed	689766813	1	main_z	11	main_z	117	stimuli_distractor_diamondtriangles.svg	stimuli_target_squarediamonds.svg	16	yes	44	1	1121
6.6.1	win	2022-12-16	10:28:50	10:39:10	617798	559cb12dfdf99b4989fb18ed	689766813	1	main_z	11	advance_on_keypress_ZEE	118	stimuli_distractor_diamondtriangles.svg	stimuli_target_squarediamonds.svg	16	yes	57	0	366
6.6.1	win	2022-12-16	10:28:50	10:39:12	619974	559cb12dfdf99b4989fb18ed	689766813	1	main_z	11	main_z	119	stimuli_distractor_diamondtriangles.svg	stimuli_target_diamondcircles.svg	31	yes	44	1	1153
6.6.1	win	2022-12-16	10:28:50	10:39:12	619974	559cb12dfdf99b4989fb18ed	689766813	1	main_z	11	advance_on_keypress_ZEE	120	stimuli_distractor_diamondtriangles.svg	stimuli_target_diamondcircles.svg	31	yes	57	0	305
6.6.1	win	2022-12-16	10:28:50	10:39:15	622126	559cb12dfdf99b4989fb18ed	689766813	1	main_z	11	main_z	121	stimuli_distractor_trianglediamonds.svg	stimuli_target_diamondcircles.svg	27	yes	44	1	1185
6.6.1	win	2022-12-16	10:28:50	10:39:15	622126	559cb12dfdf99b4989fb18ed	689766813	1	main_z	11	advance_on_keypress_ZEE	122	stimuli_distractor_trianglediamonds.svg	stimuli_target_diamondcircles.svg	27	yes	57	0	289
6.6.1	win	2022-12-16	10:28:50	10:39:17	624134	559cb12dfdf99b4989fb18ed	689766813	1	main_z	11	main_z	123	stimuli_distractor_trianglediamonds.svg	stimuli_target_squarediamonds.svg	12	yes	44	1	1057
6.6.1	win	2022-12-16	10:28:50	10:39:17	624134	559cb12dfdf99b4989fb18ed	689766813	1	main_z	11	advance_on_keypress_ZEE	124	stimuli_distractor_trianglediamonds.svg	stimuli_target_squarediamonds.svg	12	yes	57	0	297
6.6.1	win	2022-12-16	10:28:50	10:39:19	626439	559cb12dfdf99b4989fb18ed	689766813	1	main_z	11	main_z	125	stimuli_distractor_diamondtriangles.svg	stimuli_target_squaretriangles.svg	15	yes	44	1	1345
6.6.1	win	2022-12-16	10:28:50	10:39:19	626439	559cb12dfdf99b4989fb18ed	689766813	1	main_z	11	advance_on_keypress_ZEE	126	stimuli_distractor_diamondtriangles.svg	stimuli_target_squaretriangles.svg	15	yes	57	0	249
6.6.1	win	2022-12-16	10:28:50	10:39:21	628438	559cb12dfdf99b4989fb18ed	689766813	1	main_z	11	main_z	127	stimuli_distractor_trianglediamonds.svg	stimuli_distractor_trianglediamonds.svg	34	no	44	0	1089
6.6.1	win	2022-12-16	10:28:50	10:39:21	628438	559cb12dfdf99b4989fb18ed	689766813	1	main_z	11	advance_on_keypress_ZEE	128	stimuli_distractor_trianglediamonds.svg	stimuli_distractor_trianglediamonds.svg	34	no	57	0	265
6.6.1	win	2022-12-16	10:28:50	10:39:23	630302	559cb12dfdf99b4989fb18ed	689766813	1	main_z	11	main_z	129	stimuli_target_trianglesquares.svg	stimuli_distractor_trianglediamonds.svg	18	yes	44	1	937
6.6.1	win	2022-12-16	10:28:50	10:39:23	630302	559cb12dfdf99b4989fb18ed	689766813	1	main_z	11	advance_on_keypress_ZEE	130	stimuli_target_trianglesquares.svg	stimuli_distractor_trianglediamonds.svg	18	yes	57	0	330
6.6.1	win	2022-12-16	10:28:50	10:39:26	633294	559cb12dfdf99b4989fb18ed	689766813	1	main_z	11	main_z	131	stimuli_distractor_diamondtriangles.svg	stimuli_distractor_trianglediamonds.svg	38	no	0	1	2000
6.6.1	win	2022-12-16	10:28:50	10:39:26	633294	559cb12dfdf99b4989fb18ed	689766813	1	main_z	11	advance_on_keypress_ZEE	132	stimuli_distractor_diamondtriangles.svg	stimuli_distractor_trianglediamonds.svg	38	no	57	0	313
6.6.1	win	2022-12-16	10:28:50	10:39:28	635070	559cb12dfdf99b4989fb18ed	689766813	1	main_z	11	main_z	133	stimuli_target_circletriangles.svg	stimuli_distractor_trianglediamonds.svg	1	yes	44	1	802
6.6.1	win	2022-12-16	10:28:50	10:39:28	635070	559cb12dfdf99b4989fb18ed	689766813	1	main_z	11	advance_on_keypress_ZEE	134	stimuli_target_circletriangles.svg	stimuli_distractor_trianglediamonds.svg	1	yes	57	0	337
6.6.1	win	2022-12-16	10:28:50	10:39:29	636918	559cb12dfdf99b4989fb18ed	689766813	1	main_z	11	main_z	135	stimuli_target_diamondcircles.svg	stimuli_distractor_trianglediamonds.svg	19	yes	44	1	849
6.6.1	win	2022-12-16	10:28:50	10:39:29	636918	559cb12dfdf99b4989fb18ed	689766813	1	main_z	11	advance_on_keypress_ZEE	136	stimuli_target_diamondcircles.svg	stimuli_distractor_trianglediamonds.svg	19	yes	57	0	386
6.6.1	win	2022-12-16	10:28:50	10:39:31	638886	559cb12dfdf99b4989fb18ed	689766813	1	main_z	11	main_z	137	stimuli_target_trianglecircles.svg	stimuli_distractor_diamondtriangles.svg	21	yes	44	1	920
6.6.1	win	2022-12-16	10:28:50	10:39:31	638886	559cb12dfdf99b4989fb18ed	689766813	1	main_z	11	advance_on_keypress_ZEE	138	stimuli_target_trianglecircles.svg	stimuli_distractor_diamondtriangles.svg	21	yes	57	0	337
6.6.1	win	2022-12-16	10:28:50	10:39:34	641884	559cb12dfdf99b4989fb18ed	689766813	1	main_z	11	main_z	139	stimuli_distractor_diamondtriangles.svg	stimuli_distractor_diamondtriangles.svg	39	no	0	1	2000
6.6.1	win	2022-12-16	10:28:50	10:39:34	641884	559cb12dfdf99b4989fb18ed	689766813	1	main_z	11	advance_on_keypress_ZEE	140	stimuli_distractor_diamondtriangles.svg	stimuli_distractor_diamondtriangles.svg	39	no	57	0	312
6.6.1	win	2022-12-16	10:28:50	10:39:37	644846	559cb12dfdf99b4989fb18ed	689766813	1	main_z	11	main_z	141	stimuli_distractor_diamondtriangles.svg	stimuli_distractor_diamondtriangles.svg	40	no	0	1	2000
6.6.1	win	2022-12-16	10:28:50	10:39:37	644846	559cb12dfdf99b4989fb18ed	689766813	1	main_z	11	advance_on_keypress_ZEE	142	stimuli_distractor_diamondtriangles.svg	stimuli_distractor_diamondtriangles.svg	40	no	57	0	281
6.6.1	win	2022-12-16	10:28:50	10:39:39	646822	559cb12dfdf99b4989fb18ed	689766813	1	main_z	11	main_z	143	stimuli_distractor_diamondtriangles.svg	stimuli_target_trianglecircles.svg	29	yes	44	1	1032
6.6.1	win	2022-12-16	10:28:50	10:39:39	646822	559cb12dfdf99b4989fb18ed	689766813	1	main_z	11	advance_on_keypress_ZEE	144	stimuli_distractor_diamondtriangles.svg	stimuli_target_trianglecircles.svg	29	yes	57	0	433
6.6.1	win	2022-12-16	10:28:50	10:39:41	648718	559cb12dfdf99b4989fb18ed	689766813	1	main_z	11	main_z	145	stimuli_target_squaretriangles.svg	stimuli_distractor_trianglediamonds.svg	3	yes	44	1	801
6.6.1	win	2022-12-16	10:28:50	10:39:41	648718	559cb12dfdf99b4989fb18ed	689766813	1	main_z	11	advance_on_keypress_ZEE	146	stimuli_target_squaretriangles.svg	stimuli_distractor_trianglediamonds.svg	3	yes	57	0	418
6.6.1	win	2022-12-16	10:28:50	10:39:44	651796	559cb12dfdf99b4989fb18ed	689766813	1	main_z	11	main_z	147	stimuli_distractor_diamondtriangles.svg	stimuli_target_diamondsquares.svg	32	yes	0	0	2000
6.6.1	win	2022-12-16	10:28:50	10:39:44	651796	559cb12dfdf99b4989fb18ed	689766813	1	main_z	11	advance_on_keypress_ZEE	148	stimuli_distractor_diamondtriangles.svg	stimuli_target_diamondsquares.svg	32	yes	57	0	2240
6.6.1	win	2022-12-16	10:28:50	10:39:49	656719	559cb12dfdf99b4989fb18ed	689766813	1	main_z	11	main_z	149	stimuli_distractor_trianglediamonds.svg	stimuli_distractor_diamondtriangles.svg	35	no	0	1	2000
6.6.1	win	2022-12-16	10:28:50	10:39:49	656719	559cb12dfdf99b4989fb18ed	689766813	1	main_z	11	advance_on_keypress_ZEE	150	stimuli_distractor_trianglediamonds.svg	stimuli_distractor_diamondtriangles.svg	35	no	57	0	377
6.6.1	win	2022-12-16	10:28:50	10:39:51	658782	559cb12dfdf99b4989fb18ed	689766813	1	main_z	11	main_z	151	stimuli_target_circlediamonds.svg	stimuli_distractor_diamondtriangles.svg	6	yes	44	1	1025
6.6.1	win	2022-12-16	10:28:50	10:39:51	658782	559cb12dfdf99b4989fb18ed	689766813	1	main_z	11	advance_on_keypress_ZEE	152	stimuli_target_circlediamonds.svg	stimuli_distractor_diamondtriangles.svg	6	yes	57	0	313
6.6.1	win	2022-12-16	10:28:50	10:39:53	660894	559cb12dfdf99b4989fb18ed	689766813	1	main_z	11	main_z	153	stimuli_distractor_diamondtriangles.svg	stimuli_target_circlediamonds.svg	14	yes	44	1	1137
6.6.1	win	2022-12-16	10:28:50	10:39:53	660894	559cb12dfdf99b4989fb18ed	689766813	1	main_z	11	advance_on_keypress_ZEE	154	stimuli_distractor_diamondtriangles.svg	stimuli_target_circlediamonds.svg	14	yes	57	0	321
6.6.1	win	2022-12-16	10:28:50	10:39:56	663087	559cb12dfdf99b4989fb18ed	689766813	1	main_z	11	main_z	155	stimuli_target_diamondsquares.svg	stimuli_distractor_trianglediamonds.svg	20	yes	44	1	1210
6.6.1	win	2022-12-16	10:28:50	10:39:56	663087	559cb12dfdf99b4989fb18ed	689766813	1	main_z	11	advance_on_keypress_ZEE	156	stimuli_target_diamondsquares.svg	stimuli_distractor_trianglediamonds.svg	20	yes	57	0	289
6.6.1	win	2022-12-16	10:28:50	10:39:58	665118	559cb12dfdf99b4989fb18ed	689766813	1	main_z	11	main_z	157	stimuli_distractor_trianglediamonds.svg	stimuli_target_circlediamonds.svg	10	yes	44	1	1081
6.6.1	win	2022-12-16	10:28:50	10:39:58	665118	559cb12dfdf99b4989fb18ed	689766813	1	main_z	11	advance_on_keypress_ZEE	158	stimuli_distractor_trianglediamonds.svg	stimuli_target_circlediamonds.svg	10	yes	57	0	305
6.6.1	win	2022-12-16	10:28:50	10:40:00	667078	559cb12dfdf99b4989fb18ed	689766813	1	main_z	11	main_z	159	stimuli_distractor_trianglediamonds.svg	stimuli_distractor_trianglediamonds.svg	33	no	44	0	979
6.6.1	win	2022-12-16	10:28:50	10:40:00	667078	559cb12dfdf99b4989fb18ed	689766813	1	main_z	11	advance_on_keypress_ZEE	160	stimuli_distractor_trianglediamonds.svg	stimuli_distractor_trianglediamonds.svg	33	no	57	0	305