build	computer.platform	date	time	timestamp	time_elapsed_ms	subject	group	session	blockcode	blocknum	trialcode	trialnum	stimulus_left	stimulus_right	stim_index	target_present	response	correct	latency
6.6.1	win	2022-12-14	18:00:25	18:08:36	486906	5cd3ff1ac99584000199dd15	54531383	1	practice_slash	5	practice_slash	1	stimuli_target_circlediamonds.svg	stimuli_distractor_trianglediamonds.svg	4	yes	53	1	1882
6.6.1	win	2022-12-14	18:00:25	18:08:36	486906	5cd3ff1ac99584000199dd15	54531383	1	practice_slash	5	advance_on_keypress_SLASH	2	stimuli_target_circlediamonds.svg	stimuli_distractor_trianglediamonds.svg	4	yes	57	0	1831
6.6.1	win	2022-12-14	18:00:25	18:08:40	491227	5cd3ff1ac99584000199dd15	54531383	1	practice_slash	5	practice_slash	3	stimuli_distractor_diamondtriangles.svg	stimuli_target_diamondcircles.svg	8	yes	53	1	829
6.6.1	win	2022-12-14	18:00:25	18:08:40	491227	5cd3ff1ac99584000199dd15	54531383	1	practice_slash	5	advance_on_keypress_SLASH	4	stimuli_distractor_diamondtriangles.svg	stimuli_target_diamondcircles.svg	8	yes	57	0	628
6.6.1	win	2022-12-14	18:00:25	18:08:44	494384	5cd3ff1ac99584000199dd15	54531383	1	practice_slash	5	practice_slash	5	stimuli_distractor_trianglediamonds.svg	stimuli_target_squarediamonds.svg	11	yes	53	1	882
6.6.1	win	2022-12-14	18:00:25	18:08:44	494384	5cd3ff1ac99584000199dd15	54531383	1	practice_slash	5	advance_on_keypress_SLASH	6	stimuli_distractor_trianglediamonds.svg	stimuli_target_squarediamonds.svg	11	yes	57	0	527
6.6.1	win	2022-12-14	18:00:25	18:08:46	497249	5cd3ff1ac99584000199dd15	54531383	1	practice_slash	5	practice_slash	7	stimuli_target_squarediamonds.svg	stimuli_distractor_diamondtriangles.svg	2	yes	53	1	680
6.6.1	win	2022-12-14	18:00:25	18:08:46	497249	5cd3ff1ac99584000199dd15	54531383	1	practice_slash	5	advance_on_keypress_SLASH	8	stimuli_target_squarediamonds.svg	stimuli_distractor_diamondtriangles.svg	2	yes	57	0	573
6.6.1	win	2022-12-14	18:00:25	18:08:51	501468	5cd3ff1ac99584000199dd15	54531383	1	practice_slash	5	practice_slash	9	stimuli_distractor_diamondtriangles.svg	stimuli_distractor_trianglediamonds.svg	14	no	0	1	2000
6.6.1	win	2022-12-14	18:00:25	18:08:51	501468	5cd3ff1ac99584000199dd15	54531383	1	practice_slash	5	advance_on_keypress_SLASH	10	stimuli_distractor_diamondtriangles.svg	stimuli_distractor_trianglediamonds.svg	14	no	57	0	606
6.6.1	win	2022-12-14	18:00:25	18:08:54	504600	5cd3ff1ac99584000199dd15	54531383	1	practice_slash	5	practice_slash	11	stimuli_distractor_trianglediamonds.svg	stimuli_target_circlediamonds.svg	10	yes	53	1	884
6.6.1	win	2022-12-14	18:00:25	18:08:54	504600	5cd3ff1ac99584000199dd15	54531383	1	practice_slash	5	advance_on_keypress_SLASH	12	stimuli_distractor_trianglediamonds.svg	stimuli_target_circlediamonds.svg	10	yes	57	0	1153
6.6.1	win	2022-12-14	18:00:25	18:08:58	508393	5cd3ff1ac99584000199dd15	54531383	1	practice_slash	5	practice_slash	13	stimuli_target_squarediamonds.svg	stimuli_distractor_trianglediamonds.svg	5	yes	53	1	994
6.6.1	win	2022-12-14	18:00:25	18:08:58	508393	5cd3ff1ac99584000199dd15	54531383	1	practice_slash	5	advance_on_keypress_SLASH	14	stimuli_target_squarediamonds.svg	stimuli_distractor_trianglediamonds.svg	5	yes	57	0	651
6.6.1	win	2022-12-14	18:00:25	18:09:01	512000	5cd3ff1ac99584000199dd15	54531383	1	practice_slash	5	practice_slash	15	stimuli_distractor_trianglediamonds.svg	stimuli_target_diamondcircles.svg	12	yes	53	1	1304
6.6.1	win	2022-12-14	18:00:25	18:09:01	512000	5cd3ff1ac99584000199dd15	54531383	1	practice_slash	5	advance_on_keypress_SLASH	16	stimuli_distractor_trianglediamonds.svg	stimuli_target_diamondcircles.svg	12	yes	57	0	764
6.6.1	win	2022-12-14	18:00:25	18:09:05	515417	5cd3ff1ac99584000199dd15	54531383	1	practice_slash	5	practice_slash	17	stimuli_distractor_diamondtriangles.svg	stimuli_target_circletriangles.svg	7	yes	53	1	1004
6.6.1	win	2022-12-14	18:00:25	18:09:05	515417	5cd3ff1ac99584000199dd15	54531383	1	practice_slash	5	advance_on_keypress_SLASH	18	stimuli_distractor_diamondtriangles.svg	stimuli_target_circletriangles.svg	7	yes	57	0	628
6.6.1	win	2022-12-14	18:00:25	18:09:08	518729	5cd3ff1ac99584000199dd15	54531383	1	practice_slash	5	practice_slash	19	stimuli_distractor_diamondtriangles.svg	stimuli_target_trianglecircles.svg	9	yes	53	1	1034
6.6.1	win	2022-12-14	18:00:25	18:09:08	518729	5cd3ff1ac99584000199dd15	54531383	1	practice_slash	5	advance_on_keypress_SLASH	20	stimuli_distractor_diamondtriangles.svg	stimuli_target_trianglecircles.svg	9	yes	57	0	649
6.6.1	win	2022-12-14	18:00:25	18:09:12	522512	5cd3ff1ac99584000199dd15	54531383	1	practice_slash	5	practice_slash	21	stimuli_target_diamondsquares.svg	stimuli_distractor_diamondtriangles.svg	3	yes	53	1	1486
6.6.1	win	2022-12-14	18:00:25	18:09:12	522512	5cd3ff1ac99584000199dd15	54531383	1	practice_slash	5	advance_on_keypress_SLASH	22	stimuli_target_diamondsquares.svg	stimuli_distractor_diamondtriangles.svg	3	yes	57	0	715
6.6.1	win	2022-12-14	18:00:25	18:09:16	526876	5cd3ff1ac99584000199dd15	54531383	1	practice_slash	5	practice_slash	23	stimuli_distractor_trianglediamonds.svg	stimuli_distractor_diamondtriangles.svg	16	no	0	1	2000
6.6.1	win	2022-12-14	18:00:25	18:09:16	526876	5cd3ff1ac99584000199dd15	54531383	1	practice_slash	5	advance_on_keypress_SLASH	24	stimuli_distractor_trianglediamonds.svg	stimuli_distractor_diamondtriangles.svg	16	no	57	0	614
6.6.1	win	2022-12-14	18:00:25	18:09:21	531140	5cd3ff1ac99584000199dd15	54531383	1	practice_slash	5	practice_slash	25	stimuli_distractor_diamondtriangles.svg	stimuli_distractor_diamondtriangles.svg	13	no	0	1	2000
6.6.1	win	2022-12-14	18:00:25	18:09:21	531140	5cd3ff1ac99584000199dd15	54531383	1	practice_slash	5	advance_on_keypress_SLASH	26	stimuli_distractor_diamondtriangles.svg	stimuli_distractor_diamondtriangles.svg	13	no	57	0	644
6.6.1	win	2022-12-14	18:00:25	18:09:24	534793	5cd3ff1ac99584000199dd15	54531383	1	practice_slash	5	practice_slash	27	stimuli_target_diamondsquares.svg	stimuli_distractor_trianglediamonds.svg	6	yes	53	1	1353
6.6.1	win	2022-12-14	18:00:25	18:09:24	534793	5cd3ff1ac99584000199dd15	54531383	1	practice_slash	5	advance_on_keypress_SLASH	28	stimuli_target_diamondsquares.svg	stimuli_distractor_trianglediamonds.svg	6	yes	57	0	732
6.6.1	win	2022-12-14	18:00:25	18:09:29	539171	5cd3ff1ac99584000199dd15	54531383	1	practice_slash	5	practice_slash	29	stimuli_distractor_trianglediamonds.svg	stimuli_distractor_trianglediamonds.svg	15	no	0	1	2000
6.6.1	win	2022-12-14	18:00:25	18:09:29	539171	5cd3ff1ac99584000199dd15	54531383	1	practice_slash	5	advance_on_keypress_SLASH	30	stimuli_distractor_trianglediamonds.svg	stimuli_distractor_trianglediamonds.svg	15	no	57	0	670
6.6.1	win	2022-12-14	18:00:25	18:09:32	542593	5cd3ff1ac99584000199dd15	54531383	1	practice_slash	5	practice_slash	31	stimuli_target_circlediamonds.svg	stimuli_distractor_diamondtriangles.svg	1	yes	53	1	1106
6.6.1	win	2022-12-14	18:00:25	18:09:32	542593	5cd3ff1ac99584000199dd15	54531383	1	practice_slash	5	advance_on_keypress_SLASH	32	stimuli_target_circlediamonds.svg	stimuli_distractor_diamondtriangles.svg	1	yes	57	0	686
6.6.1	win	2022-12-14	18:00:25	18:09:46	556324	5cd3ff1ac99584000199dd15	54531383	1	main_slash	7	main_slash	1	stimuli_distractor_trianglediamonds.svg	stimuli_distractor_diamondtriangles.svg	36	no	0	1	2000
6.6.1	win	2022-12-14	18:00:25	18:09:46	556324	5cd3ff1ac99584000199dd15	54531383	1	main_slash	7	advance_on_keypress_SLASH	2	stimuli_distractor_trianglediamonds.svg	stimuli_distractor_diamondtriangles.svg	36	no	57	0	1342
6.6.1	win	2022-12-14	18:00:25	18:09:48	558959	5cd3ff1ac99584000199dd15	54531383	1	main_slash	7	main_slash	3	stimuli_target_diamondcircles.svg	stimuli_distractor_diamondtriangles.svg	23	yes	53	1	663
6.6.1	win	2022-12-14	18:00:25	18:09:48	558959	5cd3ff1ac99584000199dd15	54531383	1	main_slash	7	advance_on_keypress_SLASH	4	stimuli_target_diamondcircles.svg	stimuli_distractor_diamondtriangles.svg	23	yes	57	0	1189
6.6.1	win	2022-12-14	18:00:25	18:09:51	561847	5cd3ff1ac99584000199dd15	54531383	1	main_slash	7	main_slash	5	stimuli_target_trianglesquares.svg	stimuli_distractor_trianglediamonds.svg	18	yes	53	1	1052
6.6.1	win	2022-12-14	18:00:25	18:09:51	561847	5cd3ff1ac99584000199dd15	54531383	1	main_slash	7	advance_on_keypress_SLASH	6	stimuli_target_trianglesquares.svg	stimuli_distractor_trianglediamonds.svg	18	yes	57	0	802
6.6.1	win	2022-12-14	18:00:25	18:09:54	564103	5cd3ff1ac99584000199dd15	54531383	1	main_slash	7	main_slash	7	stimuli_target_diamondcircles.svg	stimuli_distractor_trianglediamonds.svg	19	yes	53	1	809
6.6.1	win	2022-12-14	18:00:25	18:09:54	564103	5cd3ff1ac99584000199dd15	54531383	1	main_slash	7	advance_on_keypress_SLASH	8	stimuli_target_diamondcircles.svg	stimuli_distractor_trianglediamonds.svg	19	yes	57	0	793
6.6.1	win	2022-12-14	18:00:25	18:09:56	566639	5cd3ff1ac99584000199dd15	54531383	1	main_slash	7	main_slash	9	stimuli_target_squarediamonds.svg	stimuli_distractor_diamondtriangles.svg	8	yes	53	1	1113
6.6.1	win	2022-12-14	18:00:25	18:09:56	566639	5cd3ff1ac99584000199dd15	54531383	1	main_slash	7	advance_on_keypress_SLASH	10	stimuli_target_squarediamonds.svg	stimuli_distractor_diamondtriangles.svg	8	yes	57	0	836
6.6.1	win	2022-12-14	18:00:25	18:09:59	569159	5cd3ff1ac99584000199dd15	54531383	1	main_slash	7	main_slash	11	stimuli_target_circlediamonds.svg	stimuli_distractor_diamondtriangles.svg	6	yes	53	1	1050
6.6.1	win	2022-12-14	18:00:25	18:09:59	569159	5cd3ff1ac99584000199dd15	54531383	1	main_slash	7	advance_on_keypress_SLASH	12	stimuli_target_circlediamonds.svg	stimuli_distractor_diamondtriangles.svg	6	yes	57	0	648
6.6.1	win	2022-12-14	18:00:25	18:10:01	571543	5cd3ff1ac99584000199dd15	54531383	1	main_slash	7	main_slash	13	stimuli_distractor_diamondtriangles.svg	stimuli_target_squaretriangles.svg	15	yes	53	1	1085
6.6.1	win	2022-12-14	18:00:25	18:10:01	571543	5cd3ff1ac99584000199dd15	54531383	1	main_slash	7	advance_on_keypress_SLASH	14	stimuli_distractor_diamondtriangles.svg	stimuli_target_squaretriangles.svg	15	yes	57	0	761
6.6.1	win	2022-12-14	18:00:25	18:10:04	574018	5cd3ff1ac99584000199dd15	54531383	1	main_slash	7	main_slash	15	stimuli_distractor_diamondtriangles.svg	stimuli_target_trianglecircles.svg	29	yes	53	1	1066
6.6.1	win	2022-12-14	18:00:25	18:10:04	574018	5cd3ff1ac99584000199dd15	54531383	1	main_slash	7	advance_on_keypress_SLASH	16	stimuli_distractor_diamondtriangles.svg	stimuli_target_trianglecircles.svg	29	yes	57	0	632
6.6.1	win	2022-12-14	18:00:25	18:10:07	577290	5cd3ff1ac99584000199dd15	54531383	1	main_slash	7	main_slash	17	stimuli_distractor_trianglediamonds.svg	stimuli_target_diamondsquares.svg	28	yes	0	0	2000
6.6.1	win	2022-12-14	18:00:25	18:10:07	577290	5cd3ff1ac99584000199dd15	54531383	1	main_slash	7	advance_on_keypress_SLASH	18	stimuli_distractor_trianglediamonds.svg	stimuli_target_diamondsquares.svg	28	yes	57	0	917
6.6.1	win	2022-12-14	18:00:25	18:10:09	579823	5cd3ff1ac99584000199dd15	54531383	1	main_slash	7	main_slash	19	stimuli_distractor_diamondtriangles.svg	stimuli_target_trianglesquares.svg	30	yes	53	1	968
6.6.1	win	2022-12-14	18:00:25	18:10:09	579823	5cd3ff1ac99584000199dd15	54531383	1	main_slash	7	advance_on_keypress_SLASH	20	stimuli_distractor_diamondtriangles.svg	stimuli_target_trianglesquares.svg	30	yes	57	0	913
6.6.1	win	2022-12-14	18:00:25	18:10:12	582455	5cd3ff1ac99584000199dd15	54531383	1	main_slash	7	main_slash	21	stimuli_target_diamondsquares.svg	stimuli_distractor_diamondtriangles.svg	24	yes	53	1	1067
6.6.1	win	2022-12-14	18:00:25	18:10:12	582455	5cd3ff1ac99584000199dd15	54531383	1	main_slash	7	advance_on_keypress_SLASH	22	stimuli_target_diamondsquares.svg	stimuli_distractor_diamondtriangles.svg	24	yes	57	0	929
6.6.1	win	2022-12-14	18:00:25	18:10:15	585047	5cd3ff1ac99584000199dd15	54531383	1	main_slash	7	main_slash	23	stimuli_target_circletriangles.svg	stimuli_distractor_trianglediamonds.svg	1	yes	53	1	1027
6.6.1	win	2022-12-14	18:00:25	18:10:15	585047	5cd3ff1ac99584000199dd15	54531383	1	main_slash	7	advance_on_keypress_SLASH	24	stimuli_target_circletriangles.svg	stimuli_distractor_trianglediamonds.svg	1	yes	57	0	874
6.6.1	win	2022-12-14	18:00:25	18:10:17	587575	5cd3ff1ac99584000199dd15	54531383	1	main_slash	7	main_slash	25	stimuli_distractor_diamondtriangles.svg	stimuli_target_diamondsquares.svg	32	yes	53	1	1022
6.6.1	win	2022-12-14	18:00:25	18:10:17	587575	5cd3ff1ac99584000199dd15	54531383	1	main_slash	7	advance_on_keypress_SLASH	26	stimuli_distractor_diamondtriangles.svg	stimuli_target_diamondsquares.svg	32	yes	57	0	686
6.6.1	win	2022-12-14	18:00:25	18:10:20	589967	5cd3ff1ac99584000199dd15	54531383	1	main_slash	7	main_slash	27	stimuli_target_squaretriangles.svg	stimuli_distractor_diamondtriangles.svg	7	yes	53	1	1065
6.6.1	win	2022-12-14	18:00:25	18:10:20	589967	5cd3ff1ac99584000199dd15	54531383	1	main_slash	7	advance_on_keypress_SLASH	28	stimuli_target_squaretriangles.svg	stimuli_distractor_diamondtriangles.svg	7	yes	57	0	710
6.6.1	win	2022-12-14	18:00:25	18:10:22	592367	5cd3ff1ac99584000199dd15	54531383	1	main_slash	7	main_slash	29	stimuli_distractor_diamondtriangles.svg	stimuli_target_squarediamonds.svg	16	yes	53	1	1049
6.6.1	win	2022-12-14	18:00:25	18:10:22	592367	5cd3ff1ac99584000199dd15	54531383	1	main_slash	7	advance_on_keypress_SLASH	30	stimuli_distractor_diamondtriangles.svg	stimuli_target_squarediamonds.svg	16	yes	57	0	703
6.6.1	win	2022-12-14	18:00:25	18:10:25	595717	5cd3ff1ac99584000199dd15	54531383	1	main_slash	7	main_slash	31	stimuli_distractor_trianglediamonds.svg	stimuli_distractor_trianglediamonds.svg	34	no	0	1	2000
6.6.1	win	2022-12-14	18:00:25	18:10:25	595717	5cd3ff1ac99584000199dd15	54531383	1	main_slash	7	advance_on_keypress_SLASH	32	stimuli_distractor_trianglediamonds.svg	stimuli_distractor_trianglediamonds.svg	34	no	57	0	674
6.6.1	win	2022-12-14	18:00:25	18:10:28	597943	5cd3ff1ac99584000199dd15	54531383	1	main_slash	7	main_slash	33	stimuli_target_diamondsquares.svg	stimuli_distractor_trianglediamonds.svg	20	yes	53	1	911
6.6.1	win	2022-12-14	18:00:25	18:10:28	597943	5cd3ff1ac99584000199dd15	54531383	1	main_slash	7	advance_on_keypress_SLASH	34	stimuli_target_diamondsquares.svg	stimuli_distractor_trianglediamonds.svg	20	yes	57	0	706
6.6.1	win	2022-12-14	18:00:25	18:10:30	600343	5cd3ff1ac99584000199dd15	54531383	1	main_slash	7	main_slash	35	stimuli_distractor_trianglediamonds.svg	stimuli_target_squarediamonds.svg	12	yes	53	1	1061
6.6.1	win	2022-12-14	18:00:25	18:10:30	600343	5cd3ff1ac99584000199dd15	54531383	1	main_slash	7	advance_on_keypress_SLASH	36	stimuli_distractor_trianglediamonds.svg	stimuli_target_squarediamonds.svg	12	yes	57	0	955
6.6.1	win	2022-12-14	18:00:25	18:10:33	603007	5cd3ff1ac99584000199dd15	54531383	1	main_slash	7	main_slash	37	stimuli_target_squaretriangles.svg	stimuli_distractor_trianglediamonds.svg	3	yes	53	1	1076
6.6.1	win	2022-12-14	18:00:25	18:10:33	603007	5cd3ff1ac99584000199dd15	54531383	1	main_slash	7	advance_on_keypress_SLASH	38	stimuli_target_squaretriangles.svg	stimuli_distractor_trianglediamonds.svg	3	yes	57	0	762
6.6.1	win	2022-12-14	18:00:25	18:10:35	605471	5cd3ff1ac99584000199dd15	54531383	1	main_slash	7	main_slash	39	stimuli_distractor_diamondtriangles.svg	stimuli_target_circletriangles.svg	13	yes	53	1	1074
6.6.1	win	2022-12-14	18:00:25	18:10:35	605471	5cd3ff1ac99584000199dd15	54531383	1	main_slash	7	advance_on_keypress_SLASH	40	stimuli_distractor_diamondtriangles.svg	stimuli_target_circletriangles.svg	13	yes	57	0	768
6.6.1	win	2022-12-14	18:00:25	18:10:39	608879	5cd3ff1ac99584000199dd15	54531383	1	main_slash	7	main_slash	41	stimuli_distractor_diamondtriangles.svg	stimuli_distractor_diamondtriangles.svg	39	no	0	1	2000
6.6.1	win	2022-12-14	18:00:25	18:10:39	608879	5cd3ff1ac99584000199dd15	54531383	1	main_slash	7	advance_on_keypress_SLASH	42	stimuli_distractor_diamondtriangles.svg	stimuli_distractor_diamondtriangles.svg	39	no	57	0	720
6.6.1	win	2022-12-14	18:00:25	18:10:41	611175	5cd3ff1ac99584000199dd15	54531383	1	main_slash	7	main_slash	43	stimuli_target_circletriangles.svg	stimuli_distractor_diamondtriangles.svg	5	yes	53	1	930
6.6.1	win	2022-12-14	18:00:25	18:10:41	611175	5cd3ff1ac99584000199dd15	54531383	1	main_slash	7	advance_on_keypress_SLASH	44	stimuli_target_circletriangles.svg	stimuli_distractor_diamondtriangles.svg	5	yes	57	0	845
6.6.1	win	2022-12-14	18:00:25	18:10:44	613655	5cd3ff1ac99584000199dd15	54531383	1	main_slash	7	main_slash	45	stimuli_distractor_diamondtriangles.svg	stimuli_target_circlediamonds.svg	14	yes	53	1	995
6.6.1	win	2022-12-14	18:00:25	18:10:44	613655	5cd3ff1ac99584000199dd15	54531383	1	main_slash	7	advance_on_keypress_SLASH	46	stimuli_distractor_diamondtriangles.svg	stimuli_target_circlediamonds.svg	14	yes	57	0	771
6.6.1	win	2022-12-14	18:00:25	18:10:46	616135	5cd3ff1ac99584000199dd15	54531383	1	main_slash	7	main_slash	47	stimuli_distractor_trianglediamonds.svg	stimuli_target_circlediamonds.svg	10	yes	53	1	1075
6.6.1	win	2022-12-14	18:00:25	18:10:46	616135	5cd3ff1ac99584000199dd15	54531383	1	main_slash	7	advance_on_keypress_SLASH	48	stimuli_distractor_trianglediamonds.svg	stimuli_target_circlediamonds.svg	10	yes	57	0	697
6.6.1	win	2022-12-14	18:00:25	18:10:49	619475	5cd3ff1ac99584000199dd15	54531383	1	main_slash	7	main_slash	49	stimuli_distractor_diamondtriangles.svg	stimuli_distractor_diamondtriangles.svg	40	no	0	1	2000
6.6.1	win	2022-12-14	18:00:25	18:10:49	619475	5cd3ff1ac99584000199dd15	54531383	1	main_slash	7	advance_on_keypress_SLASH	50	stimuli_distractor_diamondtriangles.svg	stimuli_distractor_diamondtriangles.svg	40	no	57	0	636
6.6.1	win	2022-12-14	18:00:25	18:10:53	622758	5cd3ff1ac99584000199dd15	54531383	1	main_slash	7	main_slash	51	stimuli_distractor_diamondtriangles.svg	stimuli_distractor_trianglediamonds.svg	37	no	0	1	2000
6.6.1	win	2022-12-14	18:00:25	18:10:53	622758	5cd3ff1ac99584000199dd15	54531383	1	main_slash	7	advance_on_keypress_SLASH	52	stimuli_distractor_diamondtriangles.svg	stimuli_distractor_trianglediamonds.svg	37	no	57	0	530
6.6.1	win	2022-12-14	18:00:25	18:10:55	624895	5cd3ff1ac99584000199dd15	54531383	1	main_slash	7	main_slash	53	stimuli_distractor_trianglediamonds.svg	stimuli_target_diamondcircles.svg	27	yes	53	1	972
6.6.1	win	2022-12-14	18:00:25	18:10:55	624895	5cd3ff1ac99584000199dd15	54531383	1	main_slash	7	advance_on_keypress_SLASH	54	stimuli_distractor_trianglediamonds.svg	stimuli_target_diamondcircles.svg	27	yes	57	0	677
6.6.1	win	2022-12-14	18:00:25	18:10:57	627231	5cd3ff1ac99584000199dd15	54531383	1	main_slash	7	main_slash	55	stimuli_distractor_trianglediamonds.svg	stimuli_target_trianglesquares.svg	26	yes	53	1	1025
6.6.1	win	2022-12-14	18:00:25	18:10:57	627231	5cd3ff1ac99584000199dd15	54531383	1	main_slash	7	advance_on_keypress_SLASH	56	stimuli_distractor_trianglediamonds.svg	stimuli_target_trianglesquares.svg	26	yes	57	0	728
6.6.1	win	2022-12-14	18:00:25	18:11:00	629615	5cd3ff1ac99584000199dd15	54531383	1	main_slash	7	main_slash	57	stimuli_distractor_trianglediamonds.svg	stimuli_target_trianglecircles.svg	25	yes	53	1	1027
6.6.1	win	2022-12-14	18:00:25	18:11:00	629615	5cd3ff1ac99584000199dd15	54531383	1	main_slash	7	advance_on_keypress_SLASH	58	stimuli_distractor_trianglediamonds.svg	stimuli_target_trianglecircles.svg	25	yes	57	0	690
6.6.1	win	2022-12-14	18:00:25	18:11:02	631943	5cd3ff1ac99584000199dd15	54531383	1	main_slash	7	main_slash	59	stimuli_target_trianglesquares.svg	stimuli_distractor_diamondtriangles.svg	22	yes	53	1	1005
6.6.1	win	2022-12-14	18:00:25	18:11:02	631943	5cd3ff1ac99584000199dd15	54531383	1	main_slash	7	advance_on_keypress_SLASH	60	stimuli_target_trianglesquares.svg	stimuli_distractor_diamondtriangles.svg	22	yes	57	0	725
6.6.1	win	2022-12-14	18:00:25	18:11:04	634279	5cd3ff1ac99584000199dd15	54531383	1	main_slash	7	main_slash	61	stimuli_distractor_trianglediamonds.svg	stimuli_target_squaretriangles.svg	11	yes	53	1	976
6.6.1	win	2022-12-14	18:00:25	18:11:04	634279	5cd3ff1ac99584000199dd15	54531383	1	main_slash	7	advance_on_keypress_SLASH	62	stimuli_distractor_trianglediamonds.svg	stimuli_target_squaretriangles.svg	11	yes	57	0	761
6.6.1	win	2022-12-14	18:00:25	18:11:07	636775	5cd3ff1ac99584000199dd15	54531383	1	main_slash	7	main_slash	63	stimuli_distractor_trianglediamonds.svg	stimuli_target_circletriangles.svg	9	yes	53	1	1106
6.6.1	win	2022-12-14	18:00:25	18:11:07	636775	5cd3ff1ac99584000199dd15	54531383	1	main_slash	7	advance_on_keypress_SLASH	64	stimuli_distractor_trianglediamonds.svg	stimuli_target_circletriangles.svg	9	yes	57	0	790
6.6.1	win	2022-12-14	18:00:25	18:11:10	640202	5cd3ff1ac99584000199dd15	54531383	1	main_slash	7	main_slash	65	stimuli_distractor_trianglediamonds.svg	stimuli_distractor_diamondtriangles.svg	35	no	0	1	2000
6.6.1	win	2022-12-14	18:00:25	18:11:10	640202	5cd3ff1ac99584000199dd15	54531383	1	main_slash	7	advance_on_keypress_SLASH	66	stimuli_distractor_trianglediamonds.svg	stimuli_distractor_diamondtriangles.svg	35	no	57	0	541
6.6.1	win	2022-12-14	18:00:25	18:11:12	642215	5cd3ff1ac99584000199dd15	54531383	1	main_slash	7	main_slash	67	stimuli_distractor_diamondtriangles.svg	stimuli_target_diamondcircles.svg	31	yes	53	1	831
6.6.1	win	2022-12-14	18:00:25	18:11:12	642215	5cd3ff1ac99584000199dd15	54531383	1	main_slash	7	advance_on_keypress_SLASH	68	stimuli_distractor_diamondtriangles.svg	stimuli_target_diamondcircles.svg	31	yes	57	0	590
6.6.1	win	2022-12-14	18:00:25	18:11:15	644423	5cd3ff1ac99584000199dd15	54531383	1	main_slash	7	main_slash	69	stimuli_target_squarediamonds.svg	stimuli_distractor_trianglediamonds.svg	4	yes	53	1	973
6.6.1	win	2022-12-14	18:00:25	18:11:15	644423	5cd3ff1ac99584000199dd15	54531383	1	main_slash	7	advance_on_keypress_SLASH	70	stimuli_target_squarediamonds.svg	stimuli_distractor_trianglediamonds.svg	4	yes	57	0	630
6.6.1	win	2022-12-14	18:00:25	18:11:18	647699	5cd3ff1ac99584000199dd15	54531383	1	main_slash	7	main_slash	71	stimuli_distractor_diamondtriangles.svg	stimuli_distractor_trianglediamonds.svg	38	no	0	1	2000
6.6.1	win	2022-12-14	18:00:25	18:11:18	647699	5cd3ff1ac99584000199dd15	54531383	1	main_slash	7	advance_on_keypress_SLASH	72	stimuli_distractor_diamondtriangles.svg	stimuli_distractor_trianglediamonds.svg	38	no	57	0	612
6.6.1	win	2022-12-14	18:00:25	18:11:21	650948	5cd3ff1ac99584000199dd15	54531383	1	main_slash	7	main_slash	73	stimuli_distractor_trianglediamonds.svg	stimuli_distractor_trianglediamonds.svg	33	no	0	1	2000
6.6.1	win	2022-12-14	18:00:25	18:11:21	650948	5cd3ff1ac99584000199dd15	54531383	1	main_slash	7	advance_on_keypress_SLASH	74	stimuli_distractor_trianglediamonds.svg	stimuli_distractor_trianglediamonds.svg	33	no	57	0	555
6.6.1	win	2022-12-14	18:00:25	18:11:23	653039	5cd3ff1ac99584000199dd15	54531383	1	main_slash	7	main_slash	75	stimuli_target_trianglecircles.svg	stimuli_distractor_trianglediamonds.svg	17	yes	53	1	892
6.6.1	win	2022-12-14	18:00:25	18:11:23	653039	5cd3ff1ac99584000199dd15	54531383	1	main_slash	7	advance_on_keypress_SLASH	76	stimuli_target_trianglecircles.svg	stimuli_distractor_trianglediamonds.svg	17	yes	57	0	665
6.6.1	win	2022-12-14	18:00:25	18:11:26	655319	5cd3ff1ac99584000199dd15	54531383	1	main_slash	7	main_slash	77	stimuli_target_trianglecircles.svg	stimuli_distractor_diamondtriangles.svg	21	yes	53	1	973
6.6.1	win	2022-12-14	18:00:25	18:11:26	655319	5cd3ff1ac99584000199dd15	54531383	1	main_slash	7	advance_on_keypress_SLASH	78	stimuli_target_trianglecircles.svg	stimuli_distractor_diamondtriangles.svg	21	yes	57	0	582
6.6.1	win	2022-12-14	18:00:25	18:11:28	657543	5cd3ff1ac99584000199dd15	54531383	1	main_slash	7	main_slash	79	stimuli_target_circlediamonds.svg	stimuli_distractor_trianglediamonds.svg	2	yes	53	1	997
6.6.1	win	2022-12-14	18:00:25	18:11:28	657543	5cd3ff1ac99584000199dd15	54531383	1	main_slash	7	advance_on_keypress_SLASH	80	stimuli_target_circlediamonds.svg	stimuli_distractor_trianglediamonds.svg	2	yes	57	0	717
6.6.1	win	2022-12-14	18:00:25	18:11:30	659871	5cd3ff1ac99584000199dd15	54531383	1	main_slash	7	main_slash	81	stimuli_target_squarediamonds.svg	stimuli_distractor_diamondtriangles.svg	8	yes	53	1	960
6.6.1	win	2022-12-14	18:00:25	18:11:30	659871	5cd3ff1ac99584000199dd15	54531383	1	main_slash	7	advance_on_keypress_SLASH	82	stimuli_target_squarediamonds.svg	stimuli_distractor_diamondtriangles.svg	8	yes	57	0	626
6.6.1	win	2022-12-14	18:00:25	18:11:32	662063	5cd3ff1ac99584000199dd15	54531383	1	main_slash	7	main_slash	83	stimuli_target_diamondcircles.svg	stimuli_distractor_trianglediamonds.svg	19	yes	53	1	936
6.6.1	win	2022-12-14	18:00:25	18:11:32	662063	5cd3ff1ac99584000199dd15	54531383	1	main_slash	7	advance_on_keypress_SLASH	84	stimuli_target_diamondcircles.svg	stimuli_distractor_trianglediamonds.svg	19	yes	57	0	586
6.6.1	win	2022-12-14	18:00:25	18:11:35	664335	5cd3ff1ac99584000199dd15	54531383	1	main_slash	7	main_slash	85	stimuli_distractor_trianglediamonds.svg	stimuli_target_squaretriangles.svg	11	yes	53	1	1042
6.6.1	win	2022-12-14	18:00:25	18:11:35	664335	5cd3ff1ac99584000199dd15	54531383	1	main_slash	7	advance_on_keypress_SLASH	86	stimuli_distractor_trianglediamonds.svg	stimuli_target_squaretriangles.svg	11	yes	57	0	568
6.6.1	win	2022-12-14	18:00:25	18:11:37	666543	5cd3ff1ac99584000199dd15	54531383	1	main_slash	7	main_slash	87	stimuli_target_circlediamonds.svg	stimuli_distractor_diamondtriangles.svg	6	yes	53	1	1001
6.6.1	win	2022-12-14	18:00:25	18:11:37	666543	5cd3ff1ac99584000199dd15	54531383	1	main_slash	7	advance_on_keypress_SLASH	88	stimuli_target_circlediamonds.svg	stimuli_distractor_diamondtriangles.svg	6	yes	57	0	552
6.6.1	win	2022-12-14	18:00:25	18:11:40	669742	5cd3ff1ac99584000199dd15	54531383	1	main_slash	7	main_slash	89	stimuli_distractor_diamondtriangles.svg	stimuli_distractor_trianglediamonds.svg	38	no	0	1	2000
6.6.1	win	2022-12-14	18:00:25	18:11:40	669742	5cd3ff1ac99584000199dd15	54531383	1	main_slash	7	advance_on_keypress_SLASH	90	stimuli_distractor_diamondtriangles.svg	stimuli_distractor_trianglediamonds.svg	38	no	57	0	498
6.6.1	win	2022-12-14	18:00:25	18:11:43	672890	5cd3ff1ac99584000199dd15	54531383	1	main_slash	7	main_slash	91	stimuli_distractor_trianglediamonds.svg	stimuli_distractor_trianglediamonds.svg	33	no	0	1	2000
6.6.1	win	2022-12-14	18:00:25	18:11:43	672890	5cd3ff1ac99584000199dd15	54531383	1	main_slash	7	advance_on_keypress_SLASH	92	stimuli_distractor_trianglediamonds.svg	stimuli_distractor_trianglediamonds.svg	33	no	57	0	493
6.6.1	win	2022-12-14	18:00:25	18:11:45	674927	5cd3ff1ac99584000199dd15	54531383	1	main_slash	7	main_slash	93	stimuli_target_squarediamonds.svg	stimuli_distractor_trianglediamonds.svg	4	yes	53	1	904
6.6.1	win	2022-12-14	18:00:25	18:11:45	674927	5cd3ff1ac99584000199dd15	54531383	1	main_slash	7	advance_on_keypress_SLASH	94	stimuli_target_squarediamonds.svg	stimuli_distractor_trianglediamonds.svg	4	yes	57	0	604
6.6.1	win	2022-12-14	18:00:25	18:11:48	677223	5cd3ff1ac99584000199dd15	54531383	1	main_slash	7	main_slash	95	stimuli_distractor_diamondtriangles.svg	stimuli_target_diamondsquares.svg	32	yes	53	1	1051
6.6.1	win	2022-12-14	18:00:25	18:11:48	677223	5cd3ff1ac99584000199dd15	54531383	1	main_slash	7	advance_on_keypress_SLASH	96	stimuli_distractor_diamondtriangles.svg	stimuli_target_diamondsquares.svg	32	yes	57	0	577
6.6.1	win	2022-12-14	18:00:25	18:11:50	679423	5cd3ff1ac99584000199dd15	54531383	1	main_slash	7	main_slash	97	stimuli_distractor_diamondtriangles.svg	stimuli_target_trianglecircles.svg	29	yes	53	1	985
6.6.1	win	2022-12-14	18:00:25	18:11:50	679423	5cd3ff1ac99584000199dd15	54531383	1	main_slash	7	advance_on_keypress_SLASH	98	stimuli_distractor_diamondtriangles.svg	stimuli_target_trianglecircles.svg	29	yes	57	0	538
6.6.1	win	2022-12-14	18:00:25	18:11:52	681592	5cd3ff1ac99584000199dd15	54531383	1	main_slash	7	main_slash	99	stimuli_target_trianglecircles.svg	stimuli_distractor_diamondtriangles.svg	21	yes	53	1	987
6.6.1	win	2022-12-14	18:00:25	18:11:52	681592	5cd3ff1ac99584000199dd15	54531383	1	main_slash	7	advance_on_keypress_SLASH	100	stimuli_target_trianglecircles.svg	stimuli_distractor_diamondtriangles.svg	21	yes	57	0	588
6.6.1	win	2022-12-14	18:00:25	18:11:54	683815	5cd3ff1ac99584000199dd15	54531383	1	main_slash	7	main_slash	101	stimuli_target_circletriangles.svg	stimuli_distractor_trianglediamonds.svg	1	yes	53	1	995
6.6.1	win	2022-12-14	18:00:25	18:11:54	683815	5cd3ff1ac99584000199dd15	54531383	1	main_slash	7	advance_on_keypress_SLASH	102	stimuli_target_circletriangles.svg	stimuli_distractor_trianglediamonds.svg	1	yes	57	0	580
6.6.1	win	2022-12-14	18:00:25	18:11:56	685999	5cd3ff1ac99584000199dd15	54531383	1	main_slash	7	main_slash	103	stimuli_distractor_trianglediamonds.svg	stimuli_target_circlediamonds.svg	10	yes	53	1	963
6.6.1	win	2022-12-14	18:00:25	18:11:56	685999	5cd3ff1ac99584000199dd15	54531383	1	main_slash	7	advance_on_keypress_SLASH	104	stimuli_distractor_trianglediamonds.svg	stimuli_target_circlediamonds.svg	10	yes	57	0	516
6.6.1	win	2022-12-14	18:00:25	18:11:59	688287	5cd3ff1ac99584000199dd15	54531383	1	main_slash	7	main_slash	105	stimuli_target_circlediamonds.svg	stimuli_distractor_trianglediamonds.svg	2	yes	53	1	1119
6.6.1	win	2022-12-14	18:00:25	18:11:59	688287	5cd3ff1ac99584000199dd15	54531383	1	main_slash	7	advance_on_keypress_SLASH	106	stimuli_target_circlediamonds.svg	stimuli_distractor_trianglediamonds.svg	2	yes	57	0	530
6.6.1	win	2022-12-14	18:00:25	18:12:02	691468	5cd3ff1ac99584000199dd15	54531383	1	main_slash	7	main_slash	107	stimuli_distractor_trianglediamonds.svg	stimuli_distractor_trianglediamonds.svg	34	no	0	1	2000
6.6.1	win	2022-12-14	18:00:25	18:12:02	691468	5cd3ff1ac99584000199dd15	54531383	1	main_slash	7	advance_on_keypress_SLASH	108	stimuli_distractor_trianglediamonds.svg	stimuli_distractor_trianglediamonds.svg	34	no	57	0	588
6.6.1	win	2022-12-14	18:00:25	18:12:04	693711	5cd3ff1ac99584000199dd15	54531383	1	main_slash	7	main_slash	109	stimuli_target_squaretriangles.svg	stimuli_distractor_diamondtriangles.svg	7	yes	53	1	1011
6.6.1	win	2022-12-14	18:00:25	18:12:04	693711	5cd3ff1ac99584000199dd15	54531383	1	main_slash	7	advance_on_keypress_SLASH	110	stimuli_target_squaretriangles.svg	stimuli_distractor_diamondtriangles.svg	7	yes	57	0	563
6.6.1	win	2022-12-14	18:00:25	18:12:07	695927	5cd3ff1ac99584000199dd15	54531383	1	main_slash	7	main_slash	111	stimuli_target_diamondsquares.svg	stimuli_distractor_trianglediamonds.svg	20	yes	53	1	1011
6.6.1	win	2022-12-14	18:00:25	18:12:07	695927	5cd3ff1ac99584000199dd15	54531383	1	main_slash	7	advance_on_keypress_SLASH	112	stimuli_target_diamondsquares.svg	stimuli_distractor_trianglediamonds.svg	20	yes	57	0	491
6.6.1	win	2022-12-14	18:00:25	18:12:09	698119	5cd3ff1ac99584000199dd15	54531383	1	main_slash	7	main_slash	113	stimuli_target_squaretriangles.svg	stimuli_distractor_trianglediamonds.svg	3	yes	53	1	1071
6.6.1	win	2022-12-14	18:00:25	18:12:09	698119	5cd3ff1ac99584000199dd15	54531383	1	main_slash	7	advance_on_keypress_SLASH	114	stimuli_target_squaretriangles.svg	stimuli_distractor_trianglediamonds.svg	3	yes	57	0	484
6.6.1	win	2022-12-14	18:00:25	18:12:12	701247	5cd3ff1ac99584000199dd15	54531383	1	main_slash	7	main_slash	115	stimuli_distractor_trianglediamonds.svg	stimuli_distractor_diamondtriangles.svg	35	no	0	1	2000
6.6.1	win	2022-12-14	18:00:25	18:12:12	701247	5cd3ff1ac99584000199dd15	54531383	1	main_slash	7	advance_on_keypress_SLASH	116	stimuli_distractor_trianglediamonds.svg	stimuli_distractor_diamondtriangles.svg	35	no	57	0	760
6.6.1	win	2022-12-14	18:00:25	18:12:14	703591	5cd3ff1ac99584000199dd15	54531383	1	main_slash	7	main_slash	117	stimuli_distractor_trianglediamonds.svg	stimuli_target_diamondcircles.svg	27	yes	53	1	944
6.6.1	win	2022-12-14	18:00:25	18:12:14	703591	5cd3ff1ac99584000199dd15	54531383	1	main_slash	7	advance_on_keypress_SLASH	118	stimuli_distractor_trianglediamonds.svg	stimuli_target_diamondcircles.svg	27	yes	57	0	499
6.6.1	win	2022-12-14	18:00:25	18:12:16	705727	5cd3ff1ac99584000199dd15	54531383	1	main_slash	7	main_slash	119	stimuli_distractor_diamondtriangles.svg	stimuli_target_circletriangles.svg	13	yes	53	1	998
6.6.1	win	2022-12-14	18:00:25	18:12:16	705727	5cd3ff1ac99584000199dd15	54531383	1	main_slash	7	advance_on_keypress_SLASH	120	stimuli_distractor_diamondtriangles.svg	stimuli_target_circletriangles.svg	13	yes	57	0	486
6.6.1	win	2022-12-14	18:00:25	18:12:19	707919	5cd3ff1ac99584000199dd15	54531383	1	main_slash	7	main_slash	121	stimuli_target_trianglecircles.svg	stimuli_distractor_trianglediamonds.svg	17	yes	53	1	1057
6.6.1	win	2022-12-14	18:00:25	18:12:19	707919	5cd3ff1ac99584000199dd15	54531383	1	main_slash	7	advance_on_keypress_SLASH	122	stimuli_target_trianglecircles.svg	stimuli_distractor_trianglediamonds.svg	17	yes	57	0	471
6.6.1	win	2022-12-14	18:00:25	18:12:22	711027	5cd3ff1ac99584000199dd15	54531383	1	main_slash	7	main_slash	123	stimuli_distractor_diamondtriangles.svg	stimuli_distractor_trianglediamonds.svg	37	no	0	1	2000
6.6.1	win	2022-12-14	18:00:25	18:12:22	711027	5cd3ff1ac99584000199dd15	54531383	1	main_slash	7	advance_on_keypress_SLASH	124	stimuli_distractor_diamondtriangles.svg	stimuli_distractor_trianglediamonds.svg	37	no	57	0	588
6.6.1	win	2022-12-14	18:00:25	18:12:25	714260	5cd3ff1ac99584000199dd15	54531383	1	main_slash	7	main_slash	125	stimuli_distractor_trianglediamonds.svg	stimuli_distractor_diamondtriangles.svg	36	no	0	1	2000
6.6.1	win	2022-12-14	18:00:25	18:12:25	714260	5cd3ff1ac99584000199dd15	54531383	1	main_slash	7	advance_on_keypress_SLASH	126	stimuli_distractor_trianglediamonds.svg	stimuli_distractor_diamondtriangles.svg	36	no	57	0	555
6.6.1	win	2022-12-14	18:00:25	18:12:27	716471	5cd3ff1ac99584000199dd15	54531383	1	main_slash	7	main_slash	127	stimuli_distractor_diamondtriangles.svg	stimuli_target_trianglesquares.svg	30	yes	53	1	1012
6.6.1	win	2022-12-14	18:00:25	18:12:27	716471	5cd3ff1ac99584000199dd15	54531383	1	main_slash	7	advance_on_keypress_SLASH	128	stimuli_distractor_diamondtriangles.svg	stimuli_target_trianglesquares.svg	30	yes	57	0	580
6.6.1	win	2022-12-14	18:00:25	18:12:30	718711	5cd3ff1ac99584000199dd15	54531383	1	main_slash	7	main_slash	129	stimuli_distractor_diamondtriangles.svg	stimuli_target_squaretriangles.svg	15	yes	53	1	1020
6.6.1	win	2022-12-14	18:00:25	18:12:30	718711	5cd3ff1ac99584000199dd15	54531383	1	main_slash	7	advance_on_keypress_SLASH	130	stimuli_distractor_diamondtriangles.svg	stimuli_target_squaretriangles.svg	15	yes	57	0	459
6.6.1	win	2022-12-14	18:00:25	18:12:32	720815	5cd3ff1ac99584000199dd15	54531383	1	main_slash	7	main_slash	131	stimuli_target_trianglesquares.svg	stimuli_distractor_diamondtriangles.svg	22	yes	53	1	1008
6.6.1	win	2022-12-14	18:00:25	18:12:32	720815	5cd3ff1ac99584000199dd15	54531383	1	main_slash	7	advance_on_keypress_SLASH	132	stimuli_target_trianglesquares.svg	stimuli_distractor_diamondtriangles.svg	22	yes	57	0	472
6.6.1	win	2022-12-14	18:00:25	18:12:34	722887	5cd3ff1ac99584000199dd15	54531383	1	main_slash	7	main_slash	133	stimuli_target_diamondcircles.svg	stimuli_distractor_diamondtriangles.svg	23	yes	53	1	964
6.6.1	win	2022-12-14	18:00:25	18:12:34	722887	5cd3ff1ac99584000199dd15	54531383	1	main_slash	7	advance_on_keypress_SLASH	134	stimuli_target_diamondcircles.svg	stimuli_distractor_diamondtriangles.svg	23	yes	57	0	485
6.6.1	win	2022-12-14	18:00:25	18:12:36	724999	5cd3ff1ac99584000199dd15	54531383	1	main_slash	7	main_slash	135	stimuli_target_trianglesquares.svg	stimuli_distractor_trianglediamonds.svg	18	yes	53	1	976
6.6.1	win	2022-12-14	18:00:25	18:12:36	724999	5cd3ff1ac99584000199dd15	54531383	1	main_slash	7	advance_on_keypress_SLASH	136	stimuli_target_trianglesquares.svg	stimuli_distractor_trianglediamonds.svg	18	yes	57	0	474
6.6.1	win	2022-12-14	18:00:25	18:12:38	727079	5cd3ff1ac99584000199dd15	54531383	1	main_slash	7	main_slash	137	stimuli_distractor_diamondtriangles.svg	stimuli_target_squarediamonds.svg	16	yes	53	1	974
6.6.1	win	2022-12-14	18:00:25	18:12:38	727079	5cd3ff1ac99584000199dd15	54531383	1	main_slash	7	advance_on_keypress_SLASH	138	stimuli_distractor_diamondtriangles.svg	stimuli_target_squarediamonds.svg	16	yes	57	0	455
6.6.1	win	2022-12-14	18:00:25	18:12:41	730171	5cd3ff1ac99584000199dd15	54531383	1	main_slash	7	main_slash	139	stimuli_distractor_diamondtriangles.svg	stimuli_distractor_diamondtriangles.svg	40	no	0	1	2000
6.6.1	win	2022-12-14	18:00:25	18:12:41	730171	5cd3ff1ac99584000199dd15	54531383	1	main_slash	7	advance_on_keypress_SLASH	140	stimuli_distractor_diamondtriangles.svg	stimuli_distractor_diamondtriangles.svg	40	no	57	0	508
6.6.1	win	2022-12-14	18:00:25	18:12:43	732335	5cd3ff1ac99584000199dd15	54531383	1	main_slash	7	main_slash	141	stimuli_target_diamondsquares.svg	stimuli_distractor_diamondtriangles.svg	24	yes	53	1	1015
6.6.1	win	2022-12-14	18:00:25	18:12:43	732335	5cd3ff1ac99584000199dd15	54531383	1	main_slash	7	advance_on_keypress_SLASH	142	stimuli_target_diamondsquares.svg	stimuli_distractor_diamondtriangles.svg	24	yes	57	0	486
6.6.1	win	2022-12-14	18:00:25	18:12:45	734479	5cd3ff1ac99584000199dd15	54531383	1	main_slash	7	main_slash	143	stimuli_distractor_trianglediamonds.svg	stimuli_target_squarediamonds.svg	12	yes	53	1	1010
6.6.1	win	2022-12-14	18:00:25	18:12:45	734479	5cd3ff1ac99584000199dd15	54531383	1	main_slash	7	advance_on_keypress_SLASH	144	stimuli_distractor_trianglediamonds.svg	stimuli_target_squarediamonds.svg	12	yes	57	0	490
6.6.1	win	2022-12-14	18:00:25	18:12:48	736639	5cd3ff1ac99584000199dd15	54531383	1	main_slash	7	main_slash	145	stimuli_distractor_trianglediamonds.svg	stimuli_target_diamondsquares.svg	28	yes	53	1	1037
6.6.1	win	2022-12-14	18:00:25	18:12:48	736639	5cd3ff1ac99584000199dd15	54531383	1	main_slash	7	advance_on_keypress_SLASH	146	stimuli_distractor_trianglediamonds.svg	stimuli_target_diamondsquares.svg	28	yes	57	0	500
6.6.1	win	2022-12-14	18:00:25	18:12:51	739784	5cd3ff1ac99584000199dd15	54531383	1	main_slash	7	main_slash	147	stimuli_distractor_diamondtriangles.svg	stimuli_distractor_diamondtriangles.svg	39	no	0	1	2000
6.6.1	win	2022-12-14	18:00:25	18:12:51	739784	5cd3ff1ac99584000199dd15	54531383	1	main_slash	7	advance_on_keypress_SLASH	148	stimuli_distractor_diamondtriangles.svg	stimuli_distractor_diamondtriangles.svg	39	no	57	0	671
6.6.1	win	2022-12-14	18:00:25	18:12:53	742119	5cd3ff1ac99584000199dd15	54531383	1	main_slash	7	main_slash	149	stimuli_distractor_trianglediamonds.svg	stimuli_target_circletriangles.svg	9	yes	53	1	1019
6.6.1	win	2022-12-14	18:00:25	18:12:53	742119	5cd3ff1ac99584000199dd15	54531383	1	main_slash	7	advance_on_keypress_SLASH	150	stimuli_distractor_trianglediamonds.svg	stimuli_target_circletriangles.svg	9	yes	57	0	450
6.6.1	win	2022-12-14	18:00:25	18:12:55	744175	5cd3ff1ac99584000199dd15	54531383	1	main_slash	7	main_slash	151	stimuli_target_circletriangles.svg	stimuli_distractor_diamondtriangles.svg	5	yes	53	1	959
6.6.1	win	2022-12-14	18:00:25	18:12:55	744175	5cd3ff1ac99584000199dd15	54531383	1	main_slash	7	advance_on_keypress_SLASH	152	stimuli_target_circletriangles.svg	stimuli_distractor_diamondtriangles.svg	5	yes	57	0	481
6.6.1	win	2022-12-14	18:00:25	18:12:57	746375	5cd3ff1ac99584000199dd15	54531383	1	main_slash	7	main_slash	153	stimuli_distractor_diamondtriangles.svg	stimuli_target_diamondcircles.svg	31	yes	53	1	1076
6.6.1	win	2022-12-14	18:00:25	18:12:57	746375	5cd3ff1ac99584000199dd15	54531383	1	main_slash	7	advance_on_keypress_SLASH	154	stimuli_distractor_diamondtriangles.svg	stimuli_target_diamondcircles.svg	31	yes	57	0	490
6.6.1	win	2022-12-14	18:00:25	18:13:00	748559	5cd3ff1ac99584000199dd15	54531383	1	main_slash	7	main_slash	155	stimuli_distractor_trianglediamonds.svg	stimuli_target_trianglecircles.svg	25	yes	53	1	1061
6.6.1	win	2022-12-14	18:00:25	18:13:00	748559	5cd3ff1ac99584000199dd15	54531383	1	main_slash	7	advance_on_keypress_SLASH	156	stimuli_distractor_trianglediamonds.svg	stimuli_target_trianglecircles.svg	25	yes	57	0	475
6.6.1	win	2022-12-14	18:00:25	18:13:02	750663	5cd3ff1ac99584000199dd15	54531383	1	main_slash	7	main_slash	157	stimuli_distractor_diamondtriangles.svg	stimuli_target_circlediamonds.svg	14	yes	53	1	999
6.6.1	win	2022-12-14	18:00:25	18:13:02	750663	5cd3ff1ac99584000199dd15	54531383	1	main_slash	7	advance_on_keypress_SLASH	158	stimuli_distractor_diamondtriangles.svg	stimuli_target_circlediamonds.svg	14	yes	57	0	471
6.6.1	win	2022-12-14	18:00:25	18:13:04	752823	5cd3ff1ac99584000199dd15	54531383	1	main_slash	7	main_slash	159	stimuli_distractor_trianglediamonds.svg	stimuli_target_trianglesquares.svg	26	yes	53	1	1043
6.6.1	win	2022-12-14	18:00:25	18:13:04	752823	5cd3ff1ac99584000199dd15	54531383	1	main_slash	7	advance_on_keypress_SLASH	160	stimuli_distractor_trianglediamonds.svg	stimuli_target_trianglesquares.svg	26	yes	57	0	538
6.6.1	win	2022-12-14	18:00:25	18:13:50	798770	5cd3ff1ac99584000199dd15	54531383	1	practice_z	9	practice_z	1	stimuli_target_diamondsquares.svg	stimuli_distractor_trianglediamonds.svg	6	yes	44	1	1002
6.6.1	win	2022-12-14	18:00:25	18:13:50	798770	5cd3ff1ac99584000199dd15	54531383	1	practice_z	9	advance_on_keypress_ZEE	2	stimuli_target_diamondsquares.svg	stimuli_distractor_trianglediamonds.svg	6	yes	57	0	563
6.6.1	win	2022-12-14	18:00:25	18:13:54	801842	5cd3ff1ac99584000199dd15	54531383	1	practice_z	9	practice_z	3	stimuli_distractor_trianglediamonds.svg	stimuli_target_diamondcircles.svg	12	yes	44	1	859
6.6.1	win	2022-12-14	18:00:25	18:13:54	801842	5cd3ff1ac99584000199dd15	54531383	1	practice_z	9	advance_on_keypress_ZEE	4	stimuli_distractor_trianglediamonds.svg	stimuli_target_diamondcircles.svg	12	yes	57	0	449
6.6.1	win	2022-12-14	18:00:25	18:13:56	804785	5cd3ff1ac99584000199dd15	54531383	1	practice_z	9	practice_z	5	stimuli_distractor_diamondtriangles.svg	stimuli_target_circletriangles.svg	7	yes	44	1	854
6.6.1	win	2022-12-14	18:00:25	18:13:56	804785	5cd3ff1ac99584000199dd15	54531383	1	practice_z	9	advance_on_keypress_ZEE	6	stimuli_distractor_diamondtriangles.svg	stimuli_target_circletriangles.svg	7	yes	57	0	476
6.6.1	win	2022-12-14	18:00:25	18:13:59	807721	5cd3ff1ac99584000199dd15	54531383	1	practice_z	9	practice_z	7	stimuli_target_circlediamonds.svg	stimuli_distractor_diamondtriangles.svg	1	yes	44	1	824
6.6.1	win	2022-12-14	18:00:25	18:13:59	807721	5cd3ff1ac99584000199dd15	54531383	1	practice_z	9	advance_on_keypress_ZEE	8	stimuli_target_circlediamonds.svg	stimuli_distractor_diamondtriangles.svg	1	yes	57	0	440
6.6.1	win	2022-12-14	18:00:25	18:12:55	811796	5cd3ff1ac99584000199dd15	54531383	1	practice_z	9	practice_z	9	stimuli_distractor_trianglediamonds.svg	stimuli_distractor_diamondtriangles.svg	16	no	0	1	2000
6.6.1	win	2022-12-14	18:00:25	18:12:55	811796	5cd3ff1ac99584000199dd15	54531383	1	practice_z	9	advance_on_keypress_ZEE	10	stimuli_distractor_trianglediamonds.svg	stimuli_distractor_diamondtriangles.svg	16	no	57	0	462
6.6.1	win	2022-12-14	18:00:25	18:12:58	814880	5cd3ff1ac99584000199dd15	54531383	1	practice_z	9	practice_z	11	stimuli_target_squarediamonds.svg	stimuli_distractor_diamondtriangles.svg	2	yes	44	1	987
6.6.1	win	2022-12-14	18:00:25	18:12:58	814880	5cd3ff1ac99584000199dd15	54531383	1	practice_z	9	advance_on_keypress_ZEE	12	stimuli_target_squarediamonds.svg	stimuli_distractor_diamondtriangles.svg	2	yes	57	0	516
6.6.1	win	2022-12-14	18:00:25	18:13:01	818112	5cd3ff1ac99584000199dd15	54531383	1	practice_z	9	practice_z	13	stimuli_target_squarediamonds.svg	stimuli_distractor_trianglediamonds.svg	5	yes	44	1	1070
6.6.1	win	2022-12-14	18:00:25	18:13:01	818112	5cd3ff1ac99584000199dd15	54531383	1	practice_z	9	advance_on_keypress_ZEE	14	stimuli_target_squarediamonds.svg	stimuli_distractor_trianglediamonds.svg	5	yes	57	0	499
6.6.1	win	2022-12-14	18:00:25	18:13:04	821281	5cd3ff1ac99584000199dd15	54531383	1	practice_z	9	practice_z	15	stimuli_distractor_trianglediamonds.svg	stimuli_target_circlediamonds.svg	10	yes	44	1	1022
6.6.1	win	2022-12-14	18:00:25	18:13:04	821281	5cd3ff1ac99584000199dd15	54531383	1	practice_z	9	advance_on_keypress_ZEE	16	stimuli_distractor_trianglediamonds.svg	stimuli_target_circlediamonds.svg	10	yes	57	0	662
6.6.1	win	2022-12-14	18:00:25	18:13:08	825574	5cd3ff1ac99584000199dd15	54531383	1	practice_z	9	practice_z	17	stimuli_distractor_diamondtriangles.svg	stimuli_distractor_diamondtriangles.svg	13	no	0	1	2000
6.6.1	win	2022-12-14	18:00:25	18:13:08	825574	5cd3ff1ac99584000199dd15	54531383	1	practice_z	9	advance_on_keypress_ZEE	18	stimuli_distractor_diamondtriangles.svg	stimuli_distractor_diamondtriangles.svg	13	no	57	0	395
6.6.1	win	2022-12-14	18:00:25	18:13:13	829606	5cd3ff1ac99584000199dd15	54531383	1	practice_z	9	practice_z	19	stimuli_distractor_diamondtriangles.svg	stimuli_distractor_trianglediamonds.svg	14	no	0	1	2000
6.6.1	win	2022-12-14	18:00:25	18:13:13	829606	5cd3ff1ac99584000199dd15	54531383	1	practice_z	9	advance_on_keypress_ZEE	20	stimuli_distractor_diamondtriangles.svg	stimuli_distractor_trianglediamonds.svg	14	no	57	0	411
6.6.1	win	2022-12-14	18:00:25	18:13:16	832713	5cd3ff1ac99584000199dd15	54531383	1	practice_z	9	practice_z	21	stimuli_target_diamondsquares.svg	stimuli_distractor_diamondtriangles.svg	3	yes	44	1	1058
6.6.1	win	2022-12-14	18:00:25	18:13:16	832713	5cd3ff1ac99584000199dd15	54531383	1	practice_z	9	advance_on_keypress_ZEE	22	stimuli_target_diamondsquares.svg	stimuli_distractor_diamondtriangles.svg	3	yes	57	0	488
6.6.1	win	2022-12-14	18:00:25	18:13:19	835856	5cd3ff1ac99584000199dd15	54531383	1	practice_z	9	practice_z	23	stimuli_distractor_diamondtriangles.svg	stimuli_target_diamondcircles.svg	8	yes	44	1	1020
6.6.1	win	2022-12-14	18:00:25	18:13:19	835856	5cd3ff1ac99584000199dd15	54531383	1	practice_z	9	advance_on_keypress_ZEE	24	stimuli_distractor_diamondtriangles.svg	stimuli_target_diamondcircles.svg	8	yes	57	0	515
6.6.1	win	2022-12-14	18:00:25	18:13:22	838968	5cd3ff1ac99584000199dd15	54531383	1	practice_z	9	practice_z	25	stimuli_target_circlediamonds.svg	stimuli_distractor_trianglediamonds.svg	4	yes	44	1	950
6.6.1	win	2022-12-14	18:00:25	18:13:22	838968	5cd3ff1ac99584000199dd15	54531383	1	practice_z	9	advance_on_keypress_ZEE	26	stimuli_target_circlediamonds.svg	stimuli_distractor_trianglediamonds.svg	4	yes	57	0	512
6.6.1	win	2022-12-14	18:00:25	18:13:25	842112	5cd3ff1ac99584000199dd15	54531383	1	practice_z	9	practice_z	27	stimuli_distractor_trianglediamonds.svg	stimuli_target_squarediamonds.svg	11	yes	44	1	995
6.6.1	win	2022-12-14	18:00:25	18:13:25	842112	5cd3ff1ac99584000199dd15	54531383	1	practice_z	9	advance_on_keypress_ZEE	28	stimuli_distractor_trianglediamonds.svg	stimuli_target_squarediamonds.svg	11	yes	57	0	499
6.6.1	win	2022-12-14	18:00:25	18:13:28	845192	5cd3ff1ac99584000199dd15	54531383	1	practice_z	9	practice_z	29	stimuli_distractor_diamondtriangles.svg	stimuli_target_trianglecircles.svg	9	yes	44	1	926
6.6.1	win	2022-12-14	18:00:25	18:13:28	845192	5cd3ff1ac99584000199dd15	54531383	1	practice_z	9	advance_on_keypress_ZEE	30	stimuli_distractor_diamondtriangles.svg	stimuli_target_trianglecircles.svg	9	yes	57	0	497
6.6.1	win	2022-12-14	18:00:25	18:13:32	849333	5cd3ff1ac99584000199dd15	54531383	1	practice_z	9	practice_z	31	stimuli_distractor_trianglediamonds.svg	stimuli_distractor_trianglediamonds.svg	15	no	0	1	2000
6.6.1	win	2022-12-14	18:00:25	18:13:32	849333	5cd3ff1ac99584000199dd15	54531383	1	practice_z	9	advance_on_keypress_ZEE	32	stimuli_distractor_trianglediamonds.svg	stimuli_distractor_trianglediamonds.svg	15	no	57	0	477
6.6.1	win	2022-12-14	18:00:25	18:13:43	859663	5cd3ff1ac99584000199dd15	54531383	1	main_z	11	main_z	1	stimuli_target_circlediamonds.svg	stimuli_distractor_diamondtriangles.svg	6	yes	44	1	920
6.6.1	win	2022-12-14	18:00:25	18:13:43	859663	5cd3ff1ac99584000199dd15	54531383	1	main_z	11	advance_on_keypress_ZEE	2	stimuli_target_circlediamonds.svg	stimuli_distractor_diamondtriangles.svg	6	yes	57	0	547
6.6.1	win	2022-12-14	18:00:25	18:13:45	861551	5cd3ff1ac99584000199dd15	54531383	1	main_z	11	main_z	3	stimuli_distractor_diamondtriangles.svg	stimuli_target_trianglesquares.svg	30	yes	44	1	692
6.6.1	win	2022-12-14	18:00:25	18:13:45	861551	5cd3ff1ac99584000199dd15	54531383	1	main_z	11	advance_on_keypress_ZEE	4	stimuli_distractor_diamondtriangles.svg	stimuli_target_trianglesquares.svg	30	yes	57	0	456
6.6.1	win	2022-12-14	18:00:25	18:13:47	863463	5cd3ff1ac99584000199dd15	54531383	1	main_z	11	main_z	5	stimuli_distractor_diamondtriangles.svg	stimuli_target_squaretriangles.svg	15	yes	44	1	821
6.6.1	win	2022-12-14	18:00:25	18:13:47	863463	5cd3ff1ac99584000199dd15	54531383	1	main_z	11	advance_on_keypress_ZEE	6	stimuli_distractor_diamondtriangles.svg	stimuli_target_squaretriangles.svg	15	yes	57	0	412
6.6.1	win	2022-12-14	18:00:25	18:13:48	865215	5cd3ff1ac99584000199dd15	54531383	1	main_z	11	main_z	7	stimuli_target_circlediamonds.svg	stimuli_distractor_trianglediamonds.svg	2	yes	44	1	707
6.6.1	win	2022-12-14	18:00:25	18:13:48	865215	5cd3ff1ac99584000199dd15	54531383	1	main_z	11	advance_on_keypress_ZEE	8	stimuli_target_circlediamonds.svg	stimuli_distractor_trianglediamonds.svg	2	yes	57	0	479
6.6.1	win	2022-12-14	18:00:25	18:13:52	868324	5cd3ff1ac99584000199dd15	54531383	1	main_z	11	main_z	9	stimuli_distractor_trianglediamonds.svg	stimuli_distractor_diamondtriangles.svg	36	no	0	1	2000
6.6.1	win	2022-12-14	18:00:25	18:13:52	868324	5cd3ff1ac99584000199dd15	54531383	1	main_z	11	advance_on_keypress_ZEE	10	stimuli_distractor_trianglediamonds.svg	stimuli_distractor_diamondtriangles.svg	36	no	57	0	443
6.6.1	win	2022-12-14	18:00:25	18:13:54	870303	5cd3ff1ac99584000199dd15	54531383	1	main_z	11	main_z	11	stimuli_target_circletriangles.svg	stimuli_distractor_diamondtriangles.svg	5	yes	44	1	896
6.6.1	win	2022-12-14	18:00:25	18:13:54	870303	5cd3ff1ac99584000199dd15	54531383	1	main_z	11	advance_on_keypress_ZEE	12	stimuli_target_circletriangles.svg	stimuli_distractor_diamondtriangles.svg	5	yes	57	0	548
6.6.1	win	2022-12-14	18:00:25	18:13:56	872479	5cd3ff1ac99584000199dd15	54531383	1	main_z	11	main_z	13	stimuli_distractor_trianglediamonds.svg	stimuli_target_trianglesquares.svg	26	yes	44	1	973
6.6.1	win	2022-12-14	18:00:25	18:13:56	872479	5cd3ff1ac99584000199dd15	54531383	1	main_z	11	advance_on_keypress_ZEE	14	stimuli_distractor_trianglediamonds.svg	stimuli_target_trianglesquares.svg	26	yes	57	0	438
6.6.1	win	2022-12-14	18:00:25	18:13:58	874495	5cd3ff1ac99584000199dd15	54531383	1	main_z	11	main_z	15	stimuli_target_squaretriangles.svg	stimuli_distractor_diamondtriangles.svg	7	yes	44	1	940
6.6.1	win	2022-12-14	18:00:25	18:13:58	874495	5cd3ff1ac99584000199dd15	54531383	1	main_z	11	advance_on_keypress_ZEE	16	stimuli_target_squaretriangles.svg	stimuli_distractor_diamondtriangles.svg	7	yes	57	0	351
6.6.1	win	2022-12-14	18:00:25	18:14:00	876543	5cd3ff1ac99584000199dd15	54531383	1	main_z	11	main_z	17	stimuli_target_diamondcircles.svg	stimuli_distractor_diamondtriangles.svg	23	yes	44	1	1055
6.6.1	win	2022-12-14	18:00:25	18:14:00	876543	5cd3ff1ac99584000199dd15	54531383	1	main_z	11	advance_on_keypress_ZEE	18	stimuli_target_diamondcircles.svg	stimuli_distractor_diamondtriangles.svg	23	yes	57	0	349
6.6.1	win	2022-12-14	18:00:25	18:14:02	878511	5cd3ff1ac99584000199dd15	54531383	1	main_z	11	main_z	19	stimuli_target_squarediamonds.svg	stimuli_distractor_trianglediamonds.svg	4	yes	44	1	974
6.6.1	win	2022-12-14	18:00:25	18:14:02	878511	5cd3ff1ac99584000199dd15	54531383	1	main_z	11	advance_on_keypress_ZEE	20	stimuli_target_squarediamonds.svg	stimuli_distractor_trianglediamonds.svg	4	yes	57	0	303
6.6.1	win	2022-12-14	18:00:25	18:14:04	880425	5cd3ff1ac99584000199dd15	54531383	1	main_z	11	main_z	21	stimuli_distractor_diamondtriangles.svg	stimuli_target_squarediamonds.svg	16	yes	44	1	962
6.6.1	win	2022-12-14	18:00:25	18:14:04	880425	5cd3ff1ac99584000199dd15	54531383	1	main_z	11	advance_on_keypress_ZEE	22	stimuli_distractor_diamondtriangles.svg	stimuli_target_squarediamonds.svg	16	yes	57	0	275
6.6.1	win	2022-12-14	18:00:25	18:14:06	882279	5cd3ff1ac99584000199dd15	54531383	1	main_z	11	main_z	23	stimuli_distractor_trianglediamonds.svg	stimuli_target_diamondcircles.svg	27	yes	44	1	943
6.6.1	win	2022-12-14	18:00:25	18:14:06	882279	5cd3ff1ac99584000199dd15	54531383	1	main_z	11	advance_on_keypress_ZEE	24	stimuli_distractor_trianglediamonds.svg	stimuli_target_diamondcircles.svg	27	yes	57	0	282
6.6.1	win	2022-12-14	18:00:25	18:14:07	884063	5cd3ff1ac99584000199dd15	54531383	1	main_z	11	main_z	25	stimuli_target_diamondcircles.svg	stimuli_distractor_trianglediamonds.svg	19	yes	44	1	861
6.6.1	win	2022-12-14	18:00:25	18:14:07	884063	5cd3ff1ac99584000199dd15	54531383	1	main_z	11	advance_on_keypress_ZEE	26	stimuli_target_diamondcircles.svg	stimuli_distractor_trianglediamonds.svg	19	yes	57	0	299
6.6.1	win	2022-12-14	18:00:25	18:14:09	885847	5cd3ff1ac99584000199dd15	54531383	1	main_z	11	main_z	27	stimuli_target_diamondsquares.svg	stimuli_distractor_diamondtriangles.svg	24	yes	44	1	846
6.6.1	win	2022-12-14	18:00:25	18:14:09	885847	5cd3ff1ac99584000199dd15	54531383	1	main_z	11	advance_on_keypress_ZEE	28	stimuli_target_diamondsquares.svg	stimuli_distractor_diamondtriangles.svg	24	yes	57	0	260
6.6.1	win	2022-12-14	18:00:25	18:14:11	887639	5cd3ff1ac99584000199dd15	54531383	1	main_z	11	main_z	29	stimuli_target_squarediamonds.svg	stimuli_distractor_diamondtriangles.svg	8	yes	44	1	888
6.6.1	win	2022-12-14	18:00:25	18:14:11	887639	5cd3ff1ac99584000199dd15	54531383	1	main_z	11	advance_on_keypress_ZEE	30	stimuli_target_squarediamonds.svg	stimuli_distractor_diamondtriangles.svg	8	yes	57	0	277
6.6.1	win	2022-12-14	18:00:25	18:14:14	890550	5cd3ff1ac99584000199dd15	54531383	1	main_z	11	main_z	31	stimuli_distractor_trianglediamonds.svg	stimuli_distractor_trianglediamonds.svg	34	no	0	1	2000
6.6.1	win	2022-12-14	18:00:25	18:14:14	890550	5cd3ff1ac99584000199dd15	54531383	1	main_z	11	advance_on_keypress_ZEE	32	stimuli_distractor_trianglediamonds.svg	stimuli_distractor_trianglediamonds.svg	34	no	57	0	537
6.6.1	win	2022-12-14	18:00:25	18:14:17	893732	5cd3ff1ac99584000199dd15	54531383	1	main_z	11	main_z	33	stimuli_distractor_diamondtriangles.svg	stimuli_distractor_diamondtriangles.svg	40	no	0	1	2000
6.6.1	win	2022-12-14	18:00:25	18:14:17	893732	5cd3ff1ac99584000199dd15	54531383	1	main_z	11	advance_on_keypress_ZEE	34	stimuli_distractor_diamondtriangles.svg	stimuli_distractor_diamondtriangles.svg	40	no	57	0	443
6.6.1	win	2022-12-14	18:00:25	18:14:20	896814	5cd3ff1ac99584000199dd15	54531383	1	main_z	11	main_z	35	stimuli_distractor_diamondtriangles.svg	stimuli_distractor_diamondtriangles.svg	39	no	0	1	2000
6.6.1	win	2022-12-14	18:00:25	18:14:20	896814	5cd3ff1ac99584000199dd15	54531383	1	main_z	11	advance_on_keypress_ZEE	36	stimuli_distractor_diamondtriangles.svg	stimuli_distractor_diamondtriangles.svg	39	no	57	0	273
6.6.1	win	2022-12-14	18:00:25	18:14:22	898751	5cd3ff1ac99584000199dd15	54531383	1	main_z	11	main_z	37	stimuli_target_trianglecircles.svg	stimuli_distractor_trianglediamonds.svg	17	yes	44	1	1021
6.6.1	win	2022-12-14	18:00:25	18:14:22	898751	5cd3ff1ac99584000199dd15	54531383	1	main_z	11	advance_on_keypress_ZEE	38	stimuli_target_trianglecircles.svg	stimuli_distractor_trianglediamonds.svg	17	yes	57	0	308
6.6.1	win	2022-12-14	18:00:25	18:14:24	900679	5cd3ff1ac99584000199dd15	54531383	1	main_z	11	main_z	39	stimuli_target_circletriangles.svg	stimuli_distractor_trianglediamonds.svg	1	yes	44	1	983
6.6.1	win	2022-12-14	18:00:25	18:14:24	900679	5cd3ff1ac99584000199dd15	54531383	1	main_z	11	advance_on_keypress_ZEE	40	stimuli_target_circletriangles.svg	stimuli_distractor_trianglediamonds.svg	1	yes	57	0	279
6.6.1	win	2022-12-14	18:00:25	18:14:26	902591	5cd3ff1ac99584000199dd15	54531383	1	main_z	11	main_z	41	stimuli_distractor_diamondtriangles.svg	stimuli_target_diamondsquares.svg	32	yes	44	1	995
6.6.1	win	2022-12-14	18:00:25	18:14:26	902591	5cd3ff1ac99584000199dd15	54531383	1	main_z	11	advance_on_keypress_ZEE	42	stimuli_distractor_diamondtriangles.svg	stimuli_target_diamondsquares.svg	32	yes	57	0	260
6.6.1	win	2022-12-14	18:00:25	18:14:29	905478	5cd3ff1ac99584000199dd15	54531383	1	main_z	11	main_z	43	stimuli_distractor_diamondtriangles.svg	stimuli_distractor_trianglediamonds.svg	38	no	0	1	2000
6.6.1	win	2022-12-14	18:00:25	18:14:29	905478	5cd3ff1ac99584000199dd15	54531383	1	main_z	11	advance_on_keypress_ZEE	44	stimuli_distractor_diamondtriangles.svg	stimuli_distractor_trianglediamonds.svg	38	no	57	0	449
6.6.1	win	2022-12-14	18:00:25	18:14:31	907479	5cd3ff1ac99584000199dd15	54531383	1	main_z	11	main_z	45	stimuli_target_trianglecircles.svg	stimuli_distractor_diamondtriangles.svg	21	yes	44	1	902
6.6.1	win	2022-12-14	18:00:25	18:14:31	907479	5cd3ff1ac99584000199dd15	54531383	1	main_z	11	advance_on_keypress_ZEE	46	stimuli_target_trianglecircles.svg	stimuli_distractor_diamondtriangles.svg	21	yes	57	0	266
6.6.1	win	2022-12-14	18:00:25	18:14:33	909415	5cd3ff1ac99584000199dd15	54531383	1	main_z	11	main_z	47	stimuli_distractor_trianglediamonds.svg	stimuli_target_squarediamonds.svg	12	yes	44	1	1022
6.6.1	win	2022-12-14	18:00:25	18:14:33	909415	5cd3ff1ac99584000199dd15	54531383	1	main_z	11	advance_on_keypress_ZEE	48	stimuli_distractor_trianglediamonds.svg	stimuli_target_squarediamonds.svg	12	yes	57	0	277
6.6.1	win	2022-12-14	18:00:25	18:14:35	911239	5cd3ff1ac99584000199dd15	54531383	1	main_z	11	main_z	49	stimuli_distractor_diamondtriangles.svg	stimuli_target_diamondcircles.svg	31	yes	44	1	913
6.6.1	win	2022-12-14	18:00:25	18:14:35	911239	5cd3ff1ac99584000199dd15	54531383	1	main_z	11	advance_on_keypress_ZEE	50	stimuli_distractor_diamondtriangles.svg	stimuli_target_diamondcircles.svg	31	yes	57	0	268
6.6.1	win	2022-12-14	18:00:25	18:14:37	913039	5cd3ff1ac99584000199dd15	54531383	1	main_z	11	main_z	51	stimuli_distractor_trianglediamonds.svg	stimuli_target_circletriangles.svg	9	yes	44	1	880
6.6.1	win	2022-12-14	18:00:25	18:14:37	913039	5cd3ff1ac99584000199dd15	54531383	1	main_z	11	advance_on_keypress_ZEE	52	stimuli_distractor_trianglediamonds.svg	stimuli_target_circletriangles.svg	9	yes	57	0	261
6.6.1	win	2022-12-14	18:00:25	18:14:38	914863	5cd3ff1ac99584000199dd15	54531383	1	main_z	11	main_z	53	stimuli_target_trianglesquares.svg	stimuli_distractor_trianglediamonds.svg	18	yes	44	1	922
6.6.1	win	2022-12-14	18:00:25	18:14:38	914863	5cd3ff1ac99584000199dd15	54531383	1	main_z	11	advance_on_keypress_ZEE	54	stimuli_target_trianglesquares.svg	stimuli_distractor_trianglediamonds.svg	18	yes	57	0	269
6.6.1	win	2022-12-14	18:00:25	18:14:40	916735	5cd3ff1ac99584000199dd15	54531383	1	main_z	11	main_z	55	stimuli_distractor_trianglediamonds.svg	stimuli_target_trianglecircles.svg	25	yes	44	1	961
6.6.1	win	2022-12-14	18:00:25	18:14:40	916735	5cd3ff1ac99584000199dd15	54531383	1	main_z	11	advance_on_keypress_ZEE	56	stimuli_distractor_trianglediamonds.svg	stimuli_target_trianglecircles.svg	25	yes	57	0	291
6.6.1	win	2022-12-14	18:00:25	18:14:42	918567	5cd3ff1ac99584000199dd15	54531383	1	main_z	11	main_z	57	stimuli_distractor_trianglediamonds.svg	stimuli_target_circlediamonds.svg	10	yes	44	1	910
6.6.1	win	2022-12-14	18:00:25	18:14:42	918567	5cd3ff1ac99584000199dd15	54531383	1	main_z	11	advance_on_keypress_ZEE	58	stimuli_distractor_trianglediamonds.svg	stimuli_target_circlediamonds.svg	10	yes	57	0	306
6.6.1	win	2022-12-14	18:00:25	18:14:45	921506	5cd3ff1ac99584000199dd15	54531383	1	main_z	11	main_z	59	stimuli_distractor_trianglediamonds.svg	stimuli_distractor_diamondtriangles.svg	35	no	0	1	2000
6.6.1	win	2022-12-14	18:00:25	18:14:45	921506	5cd3ff1ac99584000199dd15	54531383	1	main_z	11	advance_on_keypress_ZEE	60	stimuli_distractor_trianglediamonds.svg	stimuli_distractor_diamondtriangles.svg	35	no	57	0	525
6.6.1	win	2022-12-14	18:00:25	18:14:47	923495	5cd3ff1ac99584000199dd15	54531383	1	main_z	11	main_z	61	stimuli_distractor_diamondtriangles.svg	stimuli_target_circletriangles.svg	13	yes	44	1	823
6.6.1	win	2022-12-14	18:00:25	18:14:47	923495	5cd3ff1ac99584000199dd15	54531383	1	main_z	11	advance_on_keypress_ZEE	62	stimuli_distractor_diamondtriangles.svg	stimuli_target_circletriangles.svg	13	yes	57	0	295
6.6.1	win	2022-12-14	18:00:25	18:14:50	926421	5cd3ff1ac99584000199dd15	54531383	1	main_z	11	main_z	63	stimuli_distractor_trianglediamonds.svg	stimuli_distractor_trianglediamonds.svg	33	no	0	1	2000
6.6.1	win	2022-12-14	18:00:25	18:14:50	926421	5cd3ff1ac99584000199dd15	54531383	1	main_z	11	advance_on_keypress_ZEE	64	stimuli_distractor_trianglediamonds.svg	stimuli_distractor_trianglediamonds.svg	33	no	57	0	354
6.6.1	win	2022-12-14	18:00:25	18:14:52	928319	5cd3ff1ac99584000199dd15	54531383	1	main_z	11	main_z	65	stimuli_distractor_trianglediamonds.svg	stimuli_target_squaretriangles.svg	11	yes	44	1	899
6.6.1	win	2022-12-14	18:00:25	18:14:52	928319	5cd3ff1ac99584000199dd15	54531383	1	main_z	11	advance_on_keypress_ZEE	66	stimuli_distractor_trianglediamonds.svg	stimuli_target_squaretriangles.svg	11	yes	57	0	263
6.6.1	win	2022-12-14	18:00:25	18:14:54	930143	5cd3ff1ac99584000199dd15	54531383	1	main_z	11	main_z	67	stimuli_target_diamondsquares.svg	stimuli_distractor_trianglediamonds.svg	20	yes	44	1	924
6.6.1	win	2022-12-14	18:00:25	18:14:54	930143	5cd3ff1ac99584000199dd15	54531383	1	main_z	11	advance_on_keypress_ZEE	68	stimuli_target_diamondsquares.svg	stimuli_distractor_trianglediamonds.svg	20	yes	57	0	271
6.6.1	win	2022-12-14	18:00:25	18:14:55	931943	5cd3ff1ac99584000199dd15	54531383	1	main_z	11	main_z	69	stimuli_distractor_diamondtriangles.svg	stimuli_target_trianglecircles.svg	29	yes	44	1	891
6.6.1	win	2022-12-14	18:00:25	18:14:55	931943	5cd3ff1ac99584000199dd15	54531383	1	main_z	11	advance_on_keypress_ZEE	70	stimuli_distractor_diamondtriangles.svg	stimuli_target_trianglecircles.svg	29	yes	57	0	255
6.6.1	win	2022-12-14	18:00:25	18:14:57	933815	5cd3ff1ac99584000199dd15	54531383	1	main_z	11	main_z	71	stimuli_target_squaretriangles.svg	stimuli_distractor_trianglediamonds.svg	3	yes	44	1	980
6.6.1	win	2022-12-14	18:00:25	18:14:57	933815	5cd3ff1ac99584000199dd15	54531383	1	main_z	11	advance_on_keypress_ZEE	72	stimuli_target_squaretriangles.svg	stimuli_distractor_trianglediamonds.svg	3	yes	57	0	245
6.6.1	win	2022-12-14	18:00:25	18:15:00	936701	5cd3ff1ac99584000199dd15	54531383	1	main_z	11	main_z	73	stimuli_distractor_trianglediamonds.svg	stimuli_target_diamondsquares.svg	28	yes	0	0	2000
6.6.1	win	2022-12-14	18:00:25	18:15:00	936701	5cd3ff1ac99584000199dd15	54531383	1	main_z	11	advance_on_keypress_ZEE	74	stimuli_distractor_trianglediamonds.svg	stimuli_target_diamondsquares.svg	28	yes	57	0	466
6.6.1	win	2022-12-14	18:00:25	18:15:02	938511	5cd3ff1ac99584000199dd15	54531383	1	main_z	11	main_z	75	stimuli_target_trianglesquares.svg	stimuli_distractor_diamondtriangles.svg	22	yes	44	1	694
6.6.1	win	2022-12-14	18:00:25	18:15:02	938511	5cd3ff1ac99584000199dd15	54531383	1	main_z	11	advance_on_keypress_ZEE	76	stimuli_target_trianglesquares.svg	stimuli_distractor_diamondtriangles.svg	22	yes	57	0	283
6.6.1	win	2022-12-14	18:00:25	18:15:05	941433	5cd3ff1ac99584000199dd15	54531383	1	main_z	11	main_z	77	stimuli_distractor_diamondtriangles.svg	stimuli_distractor_trianglediamonds.svg	37	no	0	1	2000
6.6.1	win	2022-12-14	18:00:25	18:15:05	941433	5cd3ff1ac99584000199dd15	54531383	1	main_z	11	advance_on_keypress_ZEE	78	stimuli_distractor_diamondtriangles.svg	stimuli_distractor_trianglediamonds.svg	37	no	57	0	487
6.6.1	win	2022-12-14	18:00:25	18:15:07	943527	5cd3ff1ac99584000199dd15	54531383	1	main_z	11	main_z	79	stimuli_distractor_diamondtriangles.svg	stimuli_target_circlediamonds.svg	14	yes	44	1	962
6.6.1	win	2022-12-14	18:00:25	18:15:07	943527	5cd3ff1ac99584000199dd15	54531383	1	main_z	11	advance_on_keypress_ZEE	80	stimuli_distractor_diamondtriangles.svg	stimuli_target_circlediamonds.svg	14	yes	57	0	276
6.6.1	win	2022-12-14	18:00:25	18:15:09	945183	5cd3ff1ac99584000199dd15	54531383	1	main_z	11	main_z	81	stimuli_target_squarediamonds.svg	stimuli_distractor_trianglediamonds.svg	4	yes	44	1	752
6.6.1	win	2022-12-14	18:00:25	18:15:09	945183	5cd3ff1ac99584000199dd15	54531383	1	main_z	11	advance_on_keypress_ZEE	82	stimuli_target_squarediamonds.svg	stimuli_distractor_trianglediamonds.svg	4	yes	57	0	290
6.6.1	win	2022-12-14	18:00:25	18:15:10	946895	5cd3ff1ac99584000199dd15	54531383	1	main_z	11	main_z	83	stimuli_target_trianglecircles.svg	stimuli_distractor_trianglediamonds.svg	17	yes	44	1	781
6.6.1	win	2022-12-14	18:00:25	18:15:10	946895	5cd3ff1ac99584000199dd15	54531383	1	main_z	11	advance_on_keypress_ZEE	84	stimuli_target_trianglecircles.svg	stimuli_distractor_trianglediamonds.svg	17	yes	57	0	246
6.6.1	win	2022-12-14	18:00:25	18:15:12	948631	5cd3ff1ac99584000199dd15	54531383	1	main_z	11	main_z	85	stimuli_target_circlediamonds.svg	stimuli_distractor_diamondtriangles.svg	6	yes	44	1	851
6.6.1	win	2022-12-14	18:00:25	18:15:12	948631	5cd3ff1ac99584000199dd15	54531383	1	main_z	11	advance_on_keypress_ZEE	86	stimuli_target_circlediamonds.svg	stimuli_distractor_diamondtriangles.svg	6	yes	57	0	241
6.6.1	win	2022-12-14	18:00:25	18:15:15	951512	5cd3ff1ac99584000199dd15	54531383	1	main_z	11	main_z	87	stimuli_distractor_trianglediamonds.svg	stimuli_distractor_trianglediamonds.svg	33	no	0	1	2000
6.6.1	win	2022-12-14	18:00:25	18:15:15	951512	5cd3ff1ac99584000199dd15	54531383	1	main_z	11	advance_on_keypress_ZEE	88	stimuli_distractor_trianglediamonds.svg	stimuli_distractor_trianglediamonds.svg	33	no	57	0	415
6.6.1	win	2022-12-14	18:00:25	18:15:18	954578	5cd3ff1ac99584000199dd15	54531383	1	main_z	11	main_z	89	stimuli_distractor_trianglediamonds.svg	stimuli_distractor_diamondtriangles.svg	36	no	0	1	2000
6.6.1	win	2022-12-14	18:00:25	18:15:18	954578	5cd3ff1ac99584000199dd15	54531383	1	main_z	11	advance_on_keypress_ZEE	90	stimuli_distractor_trianglediamonds.svg	stimuli_distractor_diamondtriangles.svg	36	no	57	0	429
6.6.1	win	2022-12-14	18:00:25	18:15:21	957644	5cd3ff1ac99584000199dd15	54531383	1	main_z	11	main_z	91	stimuli_distractor_trianglediamonds.svg	stimuli_distractor_diamondtriangles.svg	35	no	0	1	2000
6.6.1	win	2022-12-14	18:00:25	18:15:21	957644	5cd3ff1ac99584000199dd15	54531383	1	main_z	11	advance_on_keypress_ZEE	92	stimuli_distractor_trianglediamonds.svg	stimuli_distractor_diamondtriangles.svg	35	no	57	0	275
6.6.1	win	2022-12-14	18:00:25	18:15:23	959519	5cd3ff1ac99584000199dd15	54531383	1	main_z	11	main_z	93	stimuli_target_diamondcircles.svg	stimuli_distractor_diamondtriangles.svg	23	yes	44	1	960
6.6.1	win	2022-12-14	18:00:25	18:15:23	959519	5cd3ff1ac99584000199dd15	54531383	1	main_z	11	advance_on_keypress_ZEE	94	stimuli_target_diamondcircles.svg	stimuli_distractor_diamondtriangles.svg	23	yes	57	0	265
6.6.1	win	2022-12-14	18:00:25	18:15:26	962425	5cd3ff1ac99584000199dd15	54531383	1	main_z	11	main_z	95	stimuli_distractor_trianglediamonds.svg	stimuli_target_diamondsquares.svg	28	yes	0	0	2000
6.6.1	win	2022-12-14	18:00:25	18:15:26	962425	5cd3ff1ac99584000199dd15	54531383	1	main_z	11	advance_on_keypress_ZEE	96	stimuli_distractor_trianglediamonds.svg	stimuli_target_diamondsquares.svg	28	yes	57	0	430
6.6.1	win	2022-12-14	18:00:25	18:15:28	964463	5cd3ff1ac99584000199dd15	54531383	1	main_z	11	main_z	97	stimuli_target_squaretriangles.svg	stimuli_distractor_diamondtriangles.svg	7	yes	44	1	955
6.6.1	win	2022-12-14	18:00:25	18:15:28	964463	5cd3ff1ac99584000199dd15	54531383	1	main_z	11	advance_on_keypress_ZEE	98	stimuli_target_squaretriangles.svg	stimuli_distractor_diamondtriangles.svg	7	yes	57	0	277
6.6.1	win	2022-12-14	18:00:25	18:15:30	966263	5cd3ff1ac99584000199dd15	54531383	1	main_z	11	main_z	99	stimuli_distractor_diamondtriangles.svg	stimuli_target_trianglesquares.svg	30	yes	44	1	889
6.6.1	win	2022-12-14	18:00:25	18:15:30	966263	5cd3ff1ac99584000199dd15	54531383	1	main_z	11	advance_on_keypress_ZEE	100	stimuli_distractor_diamondtriangles.svg	stimuli_target_trianglesquares.svg	30	yes	57	0	318
6.6.1	win	2022-12-14	18:00:25	18:15:32	968191	5cd3ff1ac99584000199dd15	54531383	1	main_z	11	main_z	101	stimuli_target_trianglesquares.svg	stimuli_distractor_trianglediamonds.svg	18	yes	44	1	968
6.6.1	win	2022-12-14	18:00:25	18:15:32	968191	5cd3ff1ac99584000199dd15	54531383	1	main_z	11	advance_on_keypress_ZEE	102	stimuli_target_trianglesquares.svg	stimuli_distractor_trianglediamonds.svg	18	yes	57	0	249
6.6.1	win	2022-12-14	18:00:25	18:15:34	970463	5cd3ff1ac99584000199dd15	54531383	1	main_z	11	main_z	103	stimuli_distractor_diamondtriangles.svg	stimuli_target_circlediamonds.svg	14	yes	44	1	1374
6.6.1	win	2022-12-14	18:00:25	18:15:34	970463	5cd3ff1ac99584000199dd15	54531383	1	main_z	11	advance_on_keypress_ZEE	104	stimuli_distractor_diamondtriangles.svg	stimuli_target_circlediamonds.svg	14	yes	57	0	271
6.6.1	win	2022-12-14	18:00:25	18:15:36	972487	5cd3ff1ac99584000199dd15	54531383	1	main_z	11	main_z	105	stimuli_distractor_trianglediamonds.svg	stimuli_target_trianglesquares.svg	26	yes	44	1	1115
6.6.1	win	2022-12-14	18:00:25	18:15:36	972487	5cd3ff1ac99584000199dd15	54531383	1	main_z	11	advance_on_keypress_ZEE	106	stimuli_distractor_trianglediamonds.svg	stimuli_target_trianglesquares.svg	26	yes	57	0	247
6.6.1	win	2022-12-14	18:00:25	18:15:38	974359	5cd3ff1ac99584000199dd15	54531383	1	main_z	11	main_z	107	stimuli_distractor_diamondtriangles.svg	stimuli_target_trianglecircles.svg	29	yes	44	1	971
6.6.1	win	2022-12-14	18:00:25	18:15:38	974359	5cd3ff1ac99584000199dd15	54531383	1	main_z	11	advance_on_keypress_ZEE	108	stimuli_distractor_diamondtriangles.svg	stimuli_target_trianglecircles.svg	29	yes	57	0	284
6.6.1	win	2022-12-14	18:00:25	18:15:40	976095	5cd3ff1ac99584000199dd15	54531383	1	main_z	11	main_z	109	stimuli_target_trianglecircles.svg	stimuli_distractor_diamondtriangles.svg	21	yes	44	1	808
6.6.1	win	2022-12-14	18:00:25	18:15:40	976095	5cd3ff1ac99584000199dd15	54531383	1	main_z	11	advance_on_keypress_ZEE	110	stimuli_target_trianglecircles.svg	stimuli_distractor_diamondtriangles.svg	21	yes	57	0	240
6.6.1	win	2022-12-14	18:00:25	18:15:42	977879	5cd3ff1ac99584000199dd15	54531383	1	main_z	11	main_z	111	stimuli_distractor_trianglediamonds.svg	stimuli_target_circlediamonds.svg	10	yes	44	1	909
6.6.1	win	2022-12-14	18:00:25	18:15:42	977879	5cd3ff1ac99584000199dd15	54531383	1	main_z	11	advance_on_keypress_ZEE	112	stimuli_distractor_trianglediamonds.svg	stimuli_target_circlediamonds.svg	10	yes	57	0	313
6.6.1	win	2022-12-14	18:00:25	18:15:44	979807	5cd3ff1ac99584000199dd15	54531383	1	main_z	11	main_z	113	stimuli_target_diamondsquares.svg	stimuli_distractor_diamondtriangles.svg	24	yes	44	1	988
6.6.1	win	2022-12-14	18:00:25	18:15:44	979807	5cd3ff1ac99584000199dd15	54531383	1	main_z	11	advance_on_keypress_ZEE	114	stimuli_target_diamondsquares.svg	stimuli_distractor_diamondtriangles.svg	24	yes	57	0	260
6.6.1	win	2022-12-14	18:00:25	18:15:45	981679	5cd3ff1ac99584000199dd15	54531383	1	main_z	11	main_z	115	stimuli_distractor_trianglediamonds.svg	stimuli_target_trianglecircles.svg	25	yes	44	1	977
6.6.1	win	2022-12-14	18:00:25	18:15:45	981679	5cd3ff1ac99584000199dd15	54531383	1	main_z	11	advance_on_keypress_ZEE	116	stimuli_distractor_trianglediamonds.svg	stimuli_target_trianglecircles.svg	25	yes	57	0	242
6.6.1	win	2022-12-14	18:00:25	18:15:47	983519	5cd3ff1ac99584000199dd15	54531383	1	main_z	11	main_z	117	stimuli_target_trianglesquares.svg	stimuli_distractor_diamondtriangles.svg	22	yes	44	1	968
6.6.1	win	2022-12-14	18:00:25	18:15:47	983519	5cd3ff1ac99584000199dd15	54531383	1	main_z	11	advance_on_keypress_ZEE	118	stimuli_target_trianglesquares.svg	stimuli_distractor_diamondtriangles.svg	22	yes	57	0	241
6.6.1	win	2022-12-14	18:00:25	18:15:49	985335	5cd3ff1ac99584000199dd15	54531383	1	main_z	11	main_z	119	stimuli_target_diamondcircles.svg	stimuli_distractor_trianglediamonds.svg	19	yes	44	1	934
6.6.1	win	2022-12-14	18:00:25	18:15:49	985335	5cd3ff1ac99584000199dd15	54531383	1	main_z	11	advance_on_keypress_ZEE	120	stimuli_target_diamondcircles.svg	stimuli_distractor_trianglediamonds.svg	19	yes	57	0	249
6.6.1	win	2022-12-14	18:00:25	18:15:52	988233	5cd3ff1ac99584000199dd15	54531383	1	main_z	11	main_z	121	stimuli_distractor_trianglediamonds.svg	stimuli_distractor_trianglediamonds.svg	34	no	0	1	2000
6.6.1	win	2022-12-14	18:00:25	18:15:52	988233	5cd3ff1ac99584000199dd15	54531383	1	main_z	11	advance_on_keypress_ZEE	122	stimuli_distractor_trianglediamonds.svg	stimuli_distractor_trianglediamonds.svg	34	no	57	0	278
6.6.1	win	2022-12-14	18:00:25	18:15:54	990175	5cd3ff1ac99584000199dd15	54531383	1	main_z	11	main_z	123	stimuli_distractor_trianglediamonds.svg	stimuli_target_circletriangles.svg	9	yes	44	1	1026
6.6.1	win	2022-12-14	18:00:25	18:15:54	990175	5cd3ff1ac99584000199dd15	54531383	1	main_z	11	advance_on_keypress_ZEE	124	stimuli_distractor_trianglediamonds.svg	stimuli_target_circletriangles.svg	9	yes	57	0	241
6.6.1	win	2022-12-14	18:00:25	18:15:56	991983	5cd3ff1ac99584000199dd15	54531383	1	main_z	11	main_z	125	stimuli_distractor_diamondtriangles.svg	stimuli_target_squarediamonds.svg	16	yes	44	1	935
6.6.1	win	2022-12-14	18:00:25	18:15:56	991983	5cd3ff1ac99584000199dd15	54531383	1	main_z	11	advance_on_keypress_ZEE	126	stimuli_distractor_diamondtriangles.svg	stimuli_target_squarediamonds.svg	16	yes	57	0	217
6.6.1	win	2022-12-14	18:00:25	18:15:58	994047	5cd3ff1ac99584000199dd15	54531383	1	main_z	11	main_z	127	stimuli_distractor_trianglediamonds.svg	stimuli_target_squaretriangles.svg	11	yes	44	1	1199
6.6.1	win	2022-12-14	18:00:25	18:15:58	994047	5cd3ff1ac99584000199dd15	54531383	1	main_z	11	advance_on_keypress_ZEE	128	stimuli_distractor_trianglediamonds.svg	stimuli_target_squaretriangles.svg	11	yes	57	0	199
6.6.1	win	2022-12-14	18:00:25	18:16:01	996897	5cd3ff1ac99584000199dd15	54531383	1	main_z	11	main_z	129	stimuli_distractor_diamondtriangles.svg	stimuli_distractor_trianglediamonds.svg	38	no	0	1	2000
6.6.1	win	2022-12-14	18:00:25	18:16:01	996897	5cd3ff1ac99584000199dd15	54531383	1	main_z	11	advance_on_keypress_ZEE	130	stimuli_distractor_diamondtriangles.svg	stimuli_distractor_trianglediamonds.svg	38	no	57	0	574
6.6.1	win	2022-12-14	18:00:25	18:16:03	999151	5cd3ff1ac99584000199dd15	54531383	1	main_z	11	main_z	131	stimuli_target_circletriangles.svg	stimuli_distractor_diamondtriangles.svg	5	yes	44	1	1038
6.6.1	win	2022-12-14	18:00:25	18:16:03	999151	5cd3ff1ac99584000199dd15	54531383	1	main_z	11	advance_on_keypress_ZEE	132	stimuli_target_circletriangles.svg	stimuli_distractor_diamondtriangles.svg	5	yes	57	0	309
6.6.1	win	2022-12-14	18:00:25	18:16:05	1001167	5cd3ff1ac99584000199dd15	54531383	1	main_z	11	main_z	133	stimuli_distractor_trianglediamonds.svg	stimuli_target_diamondcircles.svg	27	yes	44	1	1072
6.6.1	win	2022-12-14	18:00:25	18:16:05	1001167	5cd3ff1ac99584000199dd15	54531383	1	main_z	11	advance_on_keypress_ZEE	134	stimuli_distractor_trianglediamonds.svg	stimuli_target_diamondcircles.svg	27	yes	57	0	317
6.6.1	win	2022-12-14	18:00:25	18:16:07	1003143	5cd3ff1ac99584000199dd15	54531383	1	main_z	11	main_z	135	stimuli_target_squarediamonds.svg	stimuli_distractor_diamondtriangles.svg	8	yes	44	1	1015
6.6.1	win	2022-12-14	18:00:25	18:16:07	1003143	5cd3ff1ac99584000199dd15	54531383	1	main_z	11	advance_on_keypress_ZEE	136	stimuli_target_squarediamonds.svg	stimuli_distractor_diamondtriangles.svg	8	yes	57	0	318
6.6.1	win	2022-12-14	18:00:25	18:16:09	1005111	5cd3ff1ac99584000199dd15	54531383	1	main_z	11	main_z	137	stimuli_distractor_diamondtriangles.svg	stimuli_target_diamondsquares.svg	32	yes	44	1	1000
6.6.1	win	2022-12-14	18:00:25	18:16:09	1005111	5cd3ff1ac99584000199dd15	54531383	1	main_z	11	advance_on_keypress_ZEE	138	stimuli_distractor_diamondtriangles.svg	stimuli_target_diamondsquares.svg	32	yes	57	0	248
6.6.1	win	2022-12-14	18:00:25	18:16:12	1008010	5cd3ff1ac99584000199dd15	54531383	1	main_z	11	main_z	139	stimuli_distractor_diamondtriangles.svg	stimuli_distractor_diamondtriangles.svg	40	no	0	1	2000
6.6.1	win	2022-12-14	18:00:25	18:16:12	1008010	5cd3ff1ac99584000199dd15	54531383	1	main_z	11	advance_on_keypress_ZEE	140	stimuli_distractor_diamondtriangles.svg	stimuli_distractor_diamondtriangles.svg	40	no	57	0	421
6.6.1	win	2022-12-14	18:00:25	18:16:14	1010063	5cd3ff1ac99584000199dd15	54531383	1	main_z	11	main_z	141	stimuli_distractor_diamondtriangles.svg	stimuli_target_diamondcircles.svg	31	yes	44	1	987
6.6.1	win	2022-12-14	18:00:25	18:16:14	1010063	5cd3ff1ac99584000199dd15	54531383	1	main_z	11	advance_on_keypress_ZEE	142	stimuli_distractor_diamondtriangles.svg	stimuli_target_diamondcircles.svg	31	yes	57	0	276
6.6.1	win	2022-12-14	18:00:25	18:16:16	1011927	5cd3ff1ac99584000199dd15	54531383	1	main_z	11	main_z	143	stimuli_target_squaretriangles.svg	stimuli_distractor_trianglediamonds.svg	3	yes	44	1	952
6.6.1	win	2022-12-14	18:00:25	18:16:16	1011927	5cd3ff1ac99584000199dd15	54531383	1	main_z	11	advance_on_keypress_ZEE	144	stimuli_target_squaretriangles.svg	stimuli_distractor_trianglediamonds.svg	3	yes	57	0	242
6.6.1	win	2022-12-14	18:00:25	18:16:18	1013799	5cd3ff1ac99584000199dd15	54531383	1	main_z	11	main_z	145	stimuli_distractor_trianglediamonds.svg	stimuli_target_squarediamonds.svg	12	yes	44	1	991
6.6.1	win	2022-12-14	18:00:25	18:16:18	1013799	5cd3ff1ac99584000199dd15	54531383	1	main_z	11	advance_on_keypress_ZEE	146	stimuli_distractor_trianglediamonds.svg	stimuli_target_squarediamonds.svg	12	yes	57	0	280
6.6.1	win	2022-12-14	18:00:25	18:16:21	1016723	5cd3ff1ac99584000199dd15	54531383	1	main_z	11	main_z	147	stimuli_distractor_diamondtriangles.svg	stimuli_distractor_diamondtriangles.svg	39	no	0	1	2000
6.6.1	win	2022-12-14	18:00:25	18:16:21	1016723	5cd3ff1ac99584000199dd15	54531383	1	main_z	11	advance_on_keypress_ZEE	148	stimuli_distractor_diamondtriangles.svg	stimuli_distractor_diamondtriangles.svg	39	no	57	0	596
6.6.1	win	2022-12-14	18:00:25	18:16:24	1019956	5cd3ff1ac99584000199dd15	54531383	1	main_z	11	main_z	149	stimuli_distractor_diamondtriangles.svg	stimuli_distractor_trianglediamonds.svg	37	no	0	1	2000
6.6.1	win	2022-12-14	18:00:25	18:16:24	1019956	5cd3ff1ac99584000199dd15	54531383	1	main_z	11	advance_on_keypress_ZEE	150	stimuli_distractor_diamondtriangles.svg	stimuli_distractor_trianglediamonds.svg	37	no	57	0	539
6.6.1	win	2022-12-14	18:00:25	18:16:26	1022191	5cd3ff1ac99584000199dd15	54531383	1	main_z	11	main_z	151	stimuli_distractor_diamondtriangles.svg	stimuli_target_circletriangles.svg	13	yes	44	1	1053
6.6.1	win	2022-12-14	18:00:25	18:16:26	1022191	5cd3ff1ac99584000199dd15	54531383	1	main_z	11	advance_on_keypress_ZEE	152	stimuli_distractor_diamondtriangles.svg	stimuli_target_circletriangles.svg	13	yes	57	0	227
6.6.1	win	2022-12-14	18:00:25	18:16:28	1024047	5cd3ff1ac99584000199dd15	54531383	1	main_z	11	main_z	153	stimuli_distractor_diamondtriangles.svg	stimuli_target_squaretriangles.svg	15	yes	44	1	993
6.6.1	win	2022-12-14	18:00:25	18:16:28	1024047	5cd3ff1ac99584000199dd15	54531383	1	main_z	11	advance_on_keypress_ZEE	154	stimuli_distractor_diamondtriangles.svg	stimuli_target_squaretriangles.svg	15	yes	57	0	249
6.6.1	win	2022-12-14	18:00:25	18:16:30	1025887	5cd3ff1ac99584000199dd15	54531383	1	main_z	11	main_z	155	stimuli_target_circletriangles.svg	stimuli_distractor_trianglediamonds.svg	1	yes	44	1	950
6.6.1	win	2022-12-14	18:00:25	18:16:30	1025887	5cd3ff1ac99584000199dd15	54531383	1	main_z	11	advance_on_keypress_ZEE	156	stimuli_target_circletriangles.svg	stimuli_distractor_trianglediamonds.svg	1	yes	57	0	288
6.6.1	win	2022-12-14	18:00:25	18:16:32	1027751	5cd3ff1ac99584000199dd15	54531383	1	main_z	11	main_z	157	stimuli_target_circlediamonds.svg	stimuli_distractor_trianglediamonds.svg	2	yes	44	1	931
6.6.1	win	2022-12-14	18:00:25	18:16:32	1027751	5cd3ff1ac99584000199dd15	54531383	1	main_z	11	advance_on_keypress_ZEE	158	stimuli_target_circlediamonds.svg	stimuli_distractor_trianglediamonds.svg	2	yes	57	0	246
6.6.1	win	2022-12-14	18:00:25	18:16:34	1029679	5cd3ff1ac99584000199dd15	54531383	1	main_z	11	main_z	159	stimuli_target_diamondsquares.svg	stimuli_distractor_trianglediamonds.svg	20	yes	44	1	1043
6.6.1	win	2022-12-14	18:00:25	18:16:34	1029679	5cd3ff1ac99584000199dd15	54531383	1	main_z	11	advance_on_keypress_ZEE	160	stimuli_target_diamondsquares.svg	stimuli_distractor_trianglediamonds.svg	20	yes	57	0	218