build	computer.platform	date	time	timestamp	time_elapsed_ms	subject	group	session	blockcode	blocknum	trialcode	trialnum	stimulus_left	stimulus_right	stim_index	target_present	response	correct	latency
6.6.1	win	2023-01-01	16:09:44	16:12:18	152409	610056c4a96ee61f6c0136da	512636848	1	practice_z	5	practice_z	1	stimuli_distractor_diamondtriangles.svg	stimuli_target_trianglecircles.svg	9	yes	0	0	2000
6.6.1	win	2023-01-01	16:09:44	16:12:18	152409	610056c4a96ee61f6c0136da	512636848	1	practice_z	5	advance_on_keypress_ZEE	2	stimuli_distractor_diamondtriangles.svg	stimuli_target_trianglecircles.svg	9	yes	57	0	1225
6.6.1	win	2023-01-01	16:09:44	16:12:22	155887	610056c4a96ee61f6c0136da	512636848	1	practice_z	5	practice_z	3	stimuli_target_squarediamonds.svg	stimuli_distractor_diamondtriangles.svg	2	yes	44	1	593
6.6.1	win	2023-01-01	16:09:44	16:12:22	155887	610056c4a96ee61f6c0136da	512636848	1	practice_z	5	advance_on_keypress_ZEE	4	stimuli_target_squarediamonds.svg	stimuli_distractor_diamondtriangles.svg	2	yes	57	0	1024
6.6.1	win	2023-01-01	16:09:44	16:12:25	159242	610056c4a96ee61f6c0136da	512636848	1	practice_z	5	practice_z	5	stimuli_distractor_trianglediamonds.svg	stimuli_target_diamondcircles.svg	12	yes	44	1	680
6.6.1	win	2023-01-01	16:09:44	16:12:25	159242	610056c4a96ee61f6c0136da	512636848	1	practice_z	5	advance_on_keypress_ZEE	6	stimuli_distractor_trianglediamonds.svg	stimuli_target_diamondcircles.svg	12	yes	57	0	987
6.6.1	win	2023-01-01	16:09:44	16:12:29	162972	610056c4a96ee61f6c0136da	512636848	1	practice_z	5	practice_z	7	stimuli_target_circlediamonds.svg	stimuli_distractor_diamondtriangles.svg	1	yes	44	1	1091
6.6.1	win	2023-01-01	16:09:44	16:12:29	162972	610056c4a96ee61f6c0136da	512636848	1	practice_z	5	advance_on_keypress_ZEE	8	stimuli_target_circlediamonds.svg	stimuli_distractor_diamondtriangles.svg	1	yes	57	0	521
6.6.1	win	2023-01-01	16:09:44	16:12:33	167132	610056c4a96ee61f6c0136da	512636848	1	practice_z	5	practice_z	9	stimuli_distractor_diamondtriangles.svg	stimuli_distractor_diamondtriangles.svg	13	no	0	1	2000
6.6.1	win	2023-01-01	16:09:44	16:12:33	167132	610056c4a96ee61f6c0136da	512636848	1	practice_z	5	advance_on_keypress_ZEE	10	stimuli_distractor_diamondtriangles.svg	stimuli_distractor_diamondtriangles.svg	13	no	57	0	1032
6.6.1	win	2023-01-01	16:09:44	16:12:38	171817	610056c4a96ee61f6c0136da	512636848	1	practice_z	5	practice_z	11	stimuli_distractor_trianglediamonds.svg	stimuli_distractor_diamondtriangles.svg	16	no	0	1	2000
6.6.1	win	2023-01-01	16:09:44	16:12:38	171817	610056c4a96ee61f6c0136da	512636848	1	practice_z	5	advance_on_keypress_ZEE	12	stimuli_distractor_trianglediamonds.svg	stimuli_distractor_diamondtriangles.svg	16	no	57	0	566
6.6.1	win	2023-01-01	16:09:44	16:12:41	174973	610056c4a96ee61f6c0136da	512636848	1	practice_z	5	practice_z	13	stimuli_target_circlediamonds.svg	stimuli_distractor_trianglediamonds.svg	4	yes	44	1	938
6.6.1	win	2023-01-01	16:09:44	16:12:41	174973	610056c4a96ee61f6c0136da	512636848	1	practice_z	5	advance_on_keypress_ZEE	14	stimuli_target_circlediamonds.svg	stimuli_distractor_trianglediamonds.svg	4	yes	57	0	729
6.6.1	win	2023-01-01	16:09:44	16:12:44	178243	610056c4a96ee61f6c0136da	512636848	1	practice_z	5	practice_z	15	stimuli_distractor_diamondtriangles.svg	stimuli_target_circletriangles.svg	7	yes	44	1	889
6.6.1	win	2023-01-01	16:09:44	16:12:44	178243	610056c4a96ee61f6c0136da	512636848	1	practice_z	5	advance_on_keypress_ZEE	16	stimuli_distractor_diamondtriangles.svg	stimuli_target_circletriangles.svg	7	yes	57	0	532
6.6.1	win	2023-01-01	16:09:44	16:12:48	181707	610056c4a96ee61f6c0136da	512636848	1	practice_z	5	practice_z	17	stimuli_target_squarediamonds.svg	stimuli_distractor_trianglediamonds.svg	5	yes	44	1	1285
6.6.1	win	2023-01-01	16:09:44	16:12:48	181707	610056c4a96ee61f6c0136da	512636848	1	practice_z	5	advance_on_keypress_ZEE	18	stimuli_target_squarediamonds.svg	stimuli_distractor_trianglediamonds.svg	5	yes	57	0	597
6.6.1	win	2023-01-01	16:09:44	16:12:52	185955	610056c4a96ee61f6c0136da	512636848	1	practice_z	5	practice_z	19	stimuli_distractor_trianglediamonds.svg	stimuli_distractor_trianglediamonds.svg	15	no	0	1	2000
6.6.1	win	2023-01-01	16:09:44	16:12:52	185955	610056c4a96ee61f6c0136da	512636848	1	practice_z	5	advance_on_keypress_ZEE	20	stimuli_distractor_trianglediamonds.svg	stimuli_distractor_trianglediamonds.svg	15	no	57	0	829
6.6.1	win	2023-01-01	16:09:44	16:12:56	190424	610056c4a96ee61f6c0136da	512636848	1	practice_z	5	practice_z	21	stimuli_distractor_diamondtriangles.svg	stimuli_distractor_trianglediamonds.svg	14	no	0	1	2000
6.6.1	win	2023-01-01	16:09:44	16:12:56	190424	610056c4a96ee61f6c0136da	512636848	1	practice_z	5	advance_on_keypress_ZEE	22	stimuli_distractor_diamondtriangles.svg	stimuli_distractor_trianglediamonds.svg	14	no	57	0	733
6.6.1	win	2023-01-01	16:09:44	16:13:00	193792	610056c4a96ee61f6c0136da	512636848	1	practice_z	5	practice_z	23	stimuli_distractor_trianglediamonds.svg	stimuli_target_circlediamonds.svg	10	yes	44	1	983
6.6.1	win	2023-01-01	16:09:44	16:13:00	193792	610056c4a96ee61f6c0136da	512636848	1	practice_z	5	advance_on_keypress_ZEE	24	stimuli_distractor_trianglediamonds.svg	stimuli_target_circlediamonds.svg	10	yes	57	0	669
6.6.1	win	2023-01-01	16:09:44	16:13:03	197329	610056c4a96ee61f6c0136da	512636848	1	practice_z	5	practice_z	25	stimuli_target_diamondsquares.svg	stimuli_distractor_diamondtriangles.svg	3	yes	44	1	1218
6.6.1	win	2023-01-01	16:09:44	16:13:03	197329	610056c4a96ee61f6c0136da	512636848	1	practice_z	5	advance_on_keypress_ZEE	26	stimuli_target_diamondsquares.svg	stimuli_distractor_diamondtriangles.svg	3	yes	57	0	753
6.6.1	win	2023-01-01	16:09:44	16:13:08	201729	610056c4a96ee61f6c0136da	512636848	1	practice_z	5	practice_z	27	stimuli_target_diamondsquares.svg	stimuli_distractor_trianglediamonds.svg	6	yes	0	0	2000
6.6.1	win	2023-01-01	16:09:44	16:13:08	201729	610056c4a96ee61f6c0136da	512636848	1	practice_z	5	advance_on_keypress_ZEE	28	stimuli_target_diamondsquares.svg	stimuli_distractor_trianglediamonds.svg	6	yes	57	0	815
6.6.1	win	2023-01-01	16:09:44	16:13:11	205072	610056c4a96ee61f6c0136da	512636848	1	practice_z	5	practice_z	29	stimuli_distractor_diamondtriangles.svg	stimuli_target_diamondcircles.svg	8	yes	44	1	875
6.6.1	win	2023-01-01	16:09:44	16:13:11	205072	610056c4a96ee61f6c0136da	512636848	1	practice_z	5	advance_on_keypress_ZEE	30	stimuli_distractor_diamondtriangles.svg	stimuli_target_diamondcircles.svg	8	yes	57	0	1584
6.6.1	win	2023-01-01	16:09:44	16:13:15	209309	610056c4a96ee61f6c0136da	512636848	1	practice_z	5	practice_z	31	stimuli_distractor_trianglediamonds.svg	stimuli_target_squarediamonds.svg	11	yes	44	1	1011
6.6.1	win	2023-01-01	16:09:44	16:13:15	209309	610056c4a96ee61f6c0136da	512636848	1	practice_z	5	advance_on_keypress_ZEE	32	stimuli_distractor_trianglediamonds.svg	stimuli_target_squarediamonds.svg	11	yes	57	0	777
6.6.1	win	2023-01-01	16:09:44	16:13:26	219665	610056c4a96ee61f6c0136da	512636848	1	main_z	7	main_z	1	stimuli_target_trianglesquares.svg	stimuli_distractor_trianglediamonds.svg	18	yes	44	1	1248
6.6.1	win	2023-01-01	16:09:44	16:13:26	219665	610056c4a96ee61f6c0136da	512636848	1	main_z	7	advance_on_keypress_ZEE	2	stimuli_target_trianglesquares.svg	stimuli_distractor_trianglediamonds.svg	18	yes	57	0	908
6.6.1	win	2023-01-01	16:09:44	16:13:29	223218	610056c4a96ee61f6c0136da	512636848	1	main_z	7	main_z	3	stimuli_distractor_diamondtriangles.svg	stimuli_distractor_trianglediamonds.svg	37	no	0	1	2000
6.6.1	win	2023-01-01	16:09:44	16:13:29	223218	610056c4a96ee61f6c0136da	512636848	1	main_z	7	advance_on_keypress_ZEE	4	stimuli_distractor_diamondtriangles.svg	stimuli_distractor_trianglediamonds.svg	37	no	57	0	649
6.6.1	win	2023-01-01	16:09:44	16:13:31	225213	610056c4a96ee61f6c0136da	512636848	1	main_z	7	main_z	5	stimuli_distractor_diamondtriangles.svg	stimuli_target_squarediamonds.svg	16	yes	44	1	694
6.6.1	win	2023-01-01	16:09:44	16:13:31	225213	610056c4a96ee61f6c0136da	512636848	1	main_z	7	advance_on_keypress_ZEE	6	stimuli_distractor_diamondtriangles.svg	stimuli_target_squarediamonds.svg	16	yes	57	0	2140
6.6.1	win	2023-01-01	16:09:44	16:13:36	229987	610056c4a96ee61f6c0136da	512636848	1	main_z	7	main_z	7	stimuli_distractor_diamondtriangles.svg	stimuli_distractor_diamondtriangles.svg	40	no	0	1	2000
6.6.1	win	2023-01-01	16:09:44	16:13:36	229987	610056c4a96ee61f6c0136da	512636848	1	main_z	7	advance_on_keypress_ZEE	8	stimuli_distractor_diamondtriangles.svg	stimuli_distractor_diamondtriangles.svg	40	no	57	0	750
6.6.1	win	2023-01-01	16:09:44	16:13:39	233388	610056c4a96ee61f6c0136da	512636848	1	main_z	7	main_z	9	stimuli_target_trianglesquares.svg	stimuli_distractor_diamondtriangles.svg	22	yes	0	0	2000
6.6.1	win	2023-01-01	16:09:44	16:13:39	233388	610056c4a96ee61f6c0136da	512636848	1	main_z	7	advance_on_keypress_ZEE	10	stimuli_target_trianglesquares.svg	stimuli_distractor_diamondtriangles.svg	22	yes	57	0	440
6.6.1	win	2023-01-01	16:09:44	16:13:41	235385	610056c4a96ee61f6c0136da	512636848	1	main_z	7	main_z	11	stimuli_target_trianglecircles.svg	stimuli_distractor_trianglediamonds.svg	17	yes	44	1	912
6.6.1	win	2023-01-01	16:09:44	16:13:41	235385	610056c4a96ee61f6c0136da	512636848	1	main_z	7	advance_on_keypress_ZEE	12	stimuli_target_trianglecircles.svg	stimuli_distractor_trianglediamonds.svg	17	yes	57	0	1101
6.6.1	win	2023-01-01	16:09:44	16:13:44	238152	610056c4a96ee61f6c0136da	512636848	1	main_z	7	main_z	13	stimuli_distractor_diamondtriangles.svg	stimuli_target_squaretriangles.svg	15	yes	44	1	1028
6.6.1	win	2023-01-01	16:09:44	16:13:44	238152	610056c4a96ee61f6c0136da	512636848	1	main_z	7	advance_on_keypress_ZEE	14	stimuli_distractor_diamondtriangles.svg	stimuli_target_squaretriangles.svg	15	yes	57	0	797
6.6.1	win	2023-01-01	16:09:44	16:13:47	240641	610056c4a96ee61f6c0136da	512636848	1	main_z	7	main_z	15	stimuli_distractor_trianglediamonds.svg	stimuli_distractor_diamondtriangles.svg	36	no	44	0	1049
6.6.1	win	2023-01-01	16:09:44	16:13:47	240641	610056c4a96ee61f6c0136da	512636848	1	main_z	7	advance_on_keypress_ZEE	16	stimuli_distractor_trianglediamonds.svg	stimuli_distractor_diamondtriangles.svg	36	no	57	0	833
6.6.1	win	2023-01-01	16:09:44	16:13:49	243053	610056c4a96ee61f6c0136da	512636848	1	main_z	7	main_z	17	stimuli_distractor_diamondtriangles.svg	stimuli_target_diamondsquares.svg	32	yes	44	1	927
6.6.1	win	2023-01-01	16:09:44	16:13:49	243053	610056c4a96ee61f6c0136da	512636848	1	main_z	7	advance_on_keypress_ZEE	18	stimuli_distractor_diamondtriangles.svg	stimuli_target_diamondsquares.svg	32	yes	57	0	699
6.6.1	win	2023-01-01	16:09:44	16:13:51	245402	610056c4a96ee61f6c0136da	512636848	1	main_z	7	main_z	19	stimuli_distractor_trianglediamonds.svg	stimuli_target_diamondsquares.svg	28	yes	44	1	1008
6.6.1	win	2023-01-01	16:09:44	16:13:51	245402	610056c4a96ee61f6c0136da	512636848	1	main_z	7	advance_on_keypress_ZEE	20	stimuli_distractor_trianglediamonds.svg	stimuli_target_diamondsquares.svg	28	yes	57	0	567
6.6.1	win	2023-01-01	16:09:44	16:13:53	247545	610056c4a96ee61f6c0136da	512636848	1	main_z	7	main_z	21	stimuli_distractor_trianglediamonds.svg	stimuli_target_circletriangles.svg	9	yes	44	1	934
6.6.1	win	2023-01-01	16:09:44	16:13:53	247545	610056c4a96ee61f6c0136da	512636848	1	main_z	7	advance_on_keypress_ZEE	22	stimuli_distractor_trianglediamonds.svg	stimuli_target_circletriangles.svg	9	yes	57	0	442
6.6.1	win	2023-01-01	16:09:44	16:13:56	249918	610056c4a96ee61f6c0136da	512636848	1	main_z	7	main_z	23	stimuli_distractor_diamondtriangles.svg	stimuli_target_circlediamonds.svg	14	yes	44	1	1290
6.6.1	win	2023-01-01	16:09:44	16:13:56	249918	610056c4a96ee61f6c0136da	512636848	1	main_z	7	advance_on_keypress_ZEE	24	stimuli_distractor_diamondtriangles.svg	stimuli_target_circlediamonds.svg	14	yes	57	0	377
6.6.1	win	2023-01-01	16:09:44	16:13:58	251938	610056c4a96ee61f6c0136da	512636848	1	main_z	7	main_z	25	stimuli_target_squarediamonds.svg	stimuli_distractor_trianglediamonds.svg	4	yes	44	1	1009
6.6.1	win	2023-01-01	16:09:44	16:13:58	251938	610056c4a96ee61f6c0136da	512636848	1	main_z	7	advance_on_keypress_ZEE	26	stimuli_target_squarediamonds.svg	stimuli_distractor_trianglediamonds.svg	4	yes	57	0	412
6.6.1	win	2023-01-01	16:09:44	16:14:01	254980	610056c4a96ee61f6c0136da	512636848	1	main_z	7	main_z	27	stimuli_target_diamondsquares.svg	stimuli_distractor_diamondtriangles.svg	24	yes	0	0	2000
6.6.1	win	2023-01-01	16:09:44	16:14:01	254980	610056c4a96ee61f6c0136da	512636848	1	main_z	7	advance_on_keypress_ZEE	28	stimuli_target_diamondsquares.svg	stimuli_distractor_diamondtriangles.svg	24	yes	57	0	401
6.6.1	win	2023-01-01	16:09:44	16:14:04	258031	610056c4a96ee61f6c0136da	512636848	1	main_z	7	main_z	29	stimuli_distractor_diamondtriangles.svg	stimuli_distractor_diamondtriangles.svg	39	no	0	1	2000
6.6.1	win	2023-01-01	16:09:44	16:14:04	258031	610056c4a96ee61f6c0136da	512636848	1	main_z	7	advance_on_keypress_ZEE	30	stimuli_distractor_diamondtriangles.svg	stimuli_distractor_diamondtriangles.svg	39	no	57	0	399
6.6.1	win	2023-01-01	16:09:44	16:14:06	259913	610056c4a96ee61f6c0136da	512636848	1	main_z	7	main_z	31	stimuli_distractor_trianglediamonds.svg	stimuli_target_squaretriangles.svg	11	yes	44	1	831
6.6.1	win	2023-01-01	16:09:44	16:14:06	259913	610056c4a96ee61f6c0136da	512636848	1	main_z	7	advance_on_keypress_ZEE	32	stimuli_distractor_trianglediamonds.svg	stimuli_target_squaretriangles.svg	11	yes	57	0	429
6.6.1	win	2023-01-01	16:09:44	16:14:08	261868	610056c4a96ee61f6c0136da	512636848	1	main_z	7	main_z	33	stimuli_distractor_trianglediamonds.svg	stimuli_target_trianglesquares.svg	26	yes	44	1	868
6.6.1	win	2023-01-01	16:09:44	16:14:08	261868	610056c4a96ee61f6c0136da	512636848	1	main_z	7	advance_on_keypress_ZEE	34	stimuli_distractor_trianglediamonds.svg	stimuli_target_trianglesquares.svg	26	yes	57	0	388
6.6.1	win	2023-01-01	16:09:44	16:14:10	263904	610056c4a96ee61f6c0136da	512636848	1	main_z	7	main_z	35	stimuli_target_squarediamonds.svg	stimuli_distractor_diamondtriangles.svg	8	yes	44	1	1005
6.6.1	win	2023-01-01	16:09:44	16:14:10	263904	610056c4a96ee61f6c0136da	512636848	1	main_z	7	advance_on_keypress_ZEE	36	stimuli_target_squarediamonds.svg	stimuli_distractor_diamondtriangles.svg	8	yes	57	0	340
6.6.1	win	2023-01-01	16:09:44	16:14:12	265614	610056c4a96ee61f6c0136da	512636848	1	main_z	7	main_z	37	stimuli_target_circlediamonds.svg	stimuli_distractor_trianglediamonds.svg	2	yes	44	1	729
6.6.1	win	2023-01-01	16:09:44	16:14:12	265614	610056c4a96ee61f6c0136da	512636848	1	main_z	7	advance_on_keypress_ZEE	38	stimuli_target_circlediamonds.svg	stimuli_distractor_trianglediamonds.svg	2	yes	57	0	302
6.6.1	win	2023-01-01	16:09:44	16:14:13	267455	610056c4a96ee61f6c0136da	512636848	1	main_z	7	main_z	39	stimuli_target_squaretriangles.svg	stimuli_distractor_diamondtriangles.svg	7	yes	44	1	903
6.6.1	win	2023-01-01	16:09:44	16:14:13	267455	610056c4a96ee61f6c0136da	512636848	1	main_z	7	advance_on_keypress_ZEE	40	stimuli_target_squaretriangles.svg	stimuli_distractor_diamondtriangles.svg	7	yes	57	0	268
6.6.1	win	2023-01-01	16:09:44	16:14:15	269243	610056c4a96ee61f6c0136da	512636848	1	main_z	7	main_z	41	stimuli_target_circletriangles.svg	stimuli_distractor_diamondtriangles.svg	5	yes	44	1	875
6.6.1	win	2023-01-01	16:09:44	16:14:15	269243	610056c4a96ee61f6c0136da	512636848	1	main_z	7	advance_on_keypress_ZEE	42	stimuli_target_circletriangles.svg	stimuli_distractor_diamondtriangles.svg	5	yes	57	0	227
6.6.1	win	2023-01-01	16:09:44	16:14:18	272103	610056c4a96ee61f6c0136da	512636848	1	main_z	7	main_z	43	stimuli_distractor_trianglediamonds.svg	stimuli_distractor_diamondtriangles.svg	35	no	0	1	2000
6.6.1	win	2023-01-01	16:09:44	16:14:18	272103	610056c4a96ee61f6c0136da	512636848	1	main_z	7	advance_on_keypress_ZEE	44	stimuli_distractor_trianglediamonds.svg	stimuli_distractor_diamondtriangles.svg	35	no	57	0	581
6.6.1	win	2023-01-01	16:09:44	16:14:20	273947	610056c4a96ee61f6c0136da	512636848	1	main_z	7	main_z	45	stimuli_target_circletriangles.svg	stimuli_distractor_trianglediamonds.svg	1	yes	44	1	609
6.6.1	win	2023-01-01	16:09:44	16:14:20	273947	610056c4a96ee61f6c0136da	512636848	1	main_z	7	advance_on_keypress_ZEE	46	stimuli_target_circletriangles.svg	stimuli_distractor_trianglediamonds.svg	1	yes	57	0	275
6.6.1	win	2023-01-01	16:09:44	16:14:22	275738	610056c4a96ee61f6c0136da	512636848	1	main_z	7	main_z	47	stimuli_distractor_diamondtriangles.svg	stimuli_target_diamondcircles.svg	31	yes	44	1	883
6.6.1	win	2023-01-01	16:09:44	16:14:22	275738	610056c4a96ee61f6c0136da	512636848	1	main_z	7	advance_on_keypress_ZEE	48	stimuli_distractor_diamondtriangles.svg	stimuli_target_diamondcircles.svg	31	yes	57	0	258
6.6.1	win	2023-01-01	16:09:44	16:14:24	277829	610056c4a96ee61f6c0136da	512636848	1	main_z	7	main_z	49	stimuli_distractor_diamondtriangles.svg	stimuli_target_trianglecircles.svg	29	yes	44	1	1190
6.6.1	win	2023-01-01	16:09:44	16:14:24	277829	610056c4a96ee61f6c0136da	512636848	1	main_z	7	advance_on_keypress_ZEE	50	stimuli_distractor_diamondtriangles.svg	stimuli_target_trianglecircles.svg	29	yes	57	0	229
6.6.1	win	2023-01-01	16:09:44	16:14:26	279578	610056c4a96ee61f6c0136da	512636848	1	main_z	7	main_z	51	stimuli_target_diamondcircles.svg	stimuli_distractor_trianglediamonds.svg	19	yes	44	1	889
6.6.1	win	2023-01-01	16:09:44	16:14:26	279578	610056c4a96ee61f6c0136da	512636848	1	main_z	7	advance_on_keypress_ZEE	52	stimuli_target_diamondcircles.svg	stimuli_distractor_trianglediamonds.svg	19	yes	57	0	221
6.6.1	win	2023-01-01	16:09:44	16:14:28	282440	610056c4a96ee61f6c0136da	512636848	1	main_z	7	main_z	53	stimuli_target_diamondsquares.svg	stimuli_distractor_trianglediamonds.svg	20	yes	0	0	2000
6.6.1	win	2023-01-01	16:09:44	16:14:28	282440	610056c4a96ee61f6c0136da	512636848	1	main_z	7	advance_on_keypress_ZEE	54	stimuli_target_diamondsquares.svg	stimuli_distractor_trianglediamonds.svg	20	yes	57	0	570
6.6.1	win	2023-01-01	16:09:44	16:14:30	284482	610056c4a96ee61f6c0136da	512636848	1	main_z	7	main_z	55	stimuli_distractor_diamondtriangles.svg	stimuli_target_trianglesquares.svg	30	yes	44	1	824
6.6.1	win	2023-01-01	16:09:44	16:14:30	284482	610056c4a96ee61f6c0136da	512636848	1	main_z	7	advance_on_keypress_ZEE	56	stimuli_distractor_diamondtriangles.svg	stimuli_target_trianglesquares.svg	30	yes	57	0	231
6.6.1	win	2023-01-01	16:09:44	16:14:32	286303	610056c4a96ee61f6c0136da	512636848	1	main_z	7	main_z	57	stimuli_target_squaretriangles.svg	stimuli_distractor_trianglediamonds.svg	3	yes	44	1	944
6.6.1	win	2023-01-01	16:09:44	16:14:32	286303	610056c4a96ee61f6c0136da	512636848	1	main_z	7	advance_on_keypress_ZEE	58	stimuli_target_squaretriangles.svg	stimuli_distractor_trianglediamonds.svg	3	yes	57	0	216
6.6.1	win	2023-01-01	16:09:44	16:14:34	288081	610056c4a96ee61f6c0136da	512636848	1	main_z	7	main_z	59	stimuli_target_diamondcircles.svg	stimuli_distractor_diamondtriangles.svg	23	yes	44	1	921
6.6.1	win	2023-01-01	16:09:44	16:14:34	288081	610056c4a96ee61f6c0136da	512636848	1	main_z	7	advance_on_keypress_ZEE	60	stimuli_target_diamondcircles.svg	stimuli_distractor_diamondtriangles.svg	23	yes	57	0	242
6.6.1	win	2023-01-01	16:09:44	16:14:36	289950	610056c4a96ee61f6c0136da	512636848	1	main_z	7	main_z	61	stimuli_distractor_diamondtriangles.svg	stimuli_target_circletriangles.svg	13	yes	44	1	990
6.6.1	win	2023-01-01	16:09:44	16:14:36	289950	610056c4a96ee61f6c0136da	512636848	1	main_z	7	advance_on_keypress_ZEE	62	stimuli_distractor_diamondtriangles.svg	stimuli_target_circletriangles.svg	13	yes	57	0	238
6.6.1	win	2023-01-01	16:09:44	16:14:39	292828	610056c4a96ee61f6c0136da	512636848	1	main_z	7	main_z	63	stimuli_distractor_diamondtriangles.svg	stimuli_distractor_trianglediamonds.svg	38	no	0	1	2000
6.6.1	win	2023-01-01	16:09:44	16:14:39	292828	610056c4a96ee61f6c0136da	512636848	1	main_z	7	advance_on_keypress_ZEE	64	stimuli_distractor_diamondtriangles.svg	stimuli_distractor_trianglediamonds.svg	38	no	57	0	726
6.6.1	win	2023-01-01	16:09:44	16:14:41	294862	610056c4a96ee61f6c0136da	512636848	1	main_z	7	main_z	65	stimuli_distractor_trianglediamonds.svg	stimuli_target_circlediamonds.svg	10	yes	44	1	666
6.6.1	win	2023-01-01	16:09:44	16:14:41	294862	610056c4a96ee61f6c0136da	512636848	1	main_z	7	advance_on_keypress_ZEE	66	stimuli_distractor_trianglediamonds.svg	stimuli_target_circlediamonds.svg	10	yes	57	0	212
6.6.1	win	2023-01-01	16:09:44	16:14:43	296578	610056c4a96ee61f6c0136da	512636848	1	main_z	7	main_z	67	stimuli_distractor_trianglediamonds.svg	stimuli_target_diamondcircles.svg	27	yes	44	1	866
6.6.1	win	2023-01-01	16:09:44	16:14:43	296578	610056c4a96ee61f6c0136da	512636848	1	main_z	7	advance_on_keypress_ZEE	68	stimuli_distractor_trianglediamonds.svg	stimuli_target_diamondcircles.svg	27	yes	57	0	255
6.6.1	win	2023-01-01	16:09:44	16:14:44	298263	610056c4a96ee61f6c0136da	512636848	1	main_z	7	main_z	69	stimuli_target_circlediamonds.svg	stimuli_distractor_diamondtriangles.svg	6	yes	44	1	783
6.6.1	win	2023-01-01	16:09:44	16:14:44	298263	610056c4a96ee61f6c0136da	512636848	1	main_z	7	advance_on_keypress_ZEE	70	stimuli_target_circlediamonds.svg	stimuli_distractor_diamondtriangles.svg	6	yes	57	0	265
6.6.1	win	2023-01-01	16:09:44	16:14:47	301182	610056c4a96ee61f6c0136da	512636848	1	main_z	7	main_z	71	stimuli_distractor_trianglediamonds.svg	stimuli_distractor_trianglediamonds.svg	33	no	0	1	2000
6.6.1	win	2023-01-01	16:09:44	16:14:47	301182	610056c4a96ee61f6c0136da	512636848	1	main_z	7	advance_on_keypress_ZEE	72	stimuli_distractor_trianglediamonds.svg	stimuli_distractor_trianglediamonds.svg	33	no	57	0	517
6.6.1	win	2023-01-01	16:09:44	16:14:49	303102	610056c4a96ee61f6c0136da	512636848	1	main_z	7	main_z	73	stimuli_distractor_trianglediamonds.svg	stimuli_target_trianglecircles.svg	25	yes	44	1	753
6.6.1	win	2023-01-01	16:09:44	16:14:49	303102	610056c4a96ee61f6c0136da	512636848	1	main_z	7	advance_on_keypress_ZEE	74	stimuli_distractor_trianglediamonds.svg	stimuli_target_trianglecircles.svg	25	yes	57	0	210
6.6.1	win	2023-01-01	16:09:44	16:14:51	304912	610056c4a96ee61f6c0136da	512636848	1	main_z	7	main_z	75	stimuli_target_trianglecircles.svg	stimuli_distractor_diamondtriangles.svg	21	yes	44	1	963
6.6.1	win	2023-01-01	16:09:44	16:14:51	304912	610056c4a96ee61f6c0136da	512636848	1	main_z	7	advance_on_keypress_ZEE	76	stimuli_target_trianglecircles.svg	stimuli_distractor_diamondtriangles.svg	21	yes	57	0	299
6.6.1	win	2023-01-01	16:09:44	16:14:53	306772	610056c4a96ee61f6c0136da	512636848	1	main_z	7	main_z	77	stimuli_distractor_trianglediamonds.svg	stimuli_target_squarediamonds.svg	12	yes	44	1	923
6.6.1	win	2023-01-01	16:09:44	16:14:53	306772	610056c4a96ee61f6c0136da	512636848	1	main_z	7	advance_on_keypress_ZEE	78	stimuli_distractor_trianglediamonds.svg	stimuli_target_squarediamonds.svg	12	yes	57	0	237
6.6.1	win	2023-01-01	16:09:44	16:14:56	309651	610056c4a96ee61f6c0136da	512636848	1	main_z	7	main_z	79	stimuli_distractor_trianglediamonds.svg	stimuli_distractor_trianglediamonds.svg	34	no	0	1	2000
6.6.1	win	2023-01-01	16:09:44	16:14:56	309651	610056c4a96ee61f6c0136da	512636848	1	main_z	7	advance_on_keypress_ZEE	80	stimuli_distractor_trianglediamonds.svg	stimuli_distractor_trianglediamonds.svg	34	no	57	0	690
6.6.1	win	2023-01-01	16:09:44	16:14:58	311742	610056c4a96ee61f6c0136da	512636848	1	main_z	7	main_z	81	stimuli_distractor_trianglediamonds.svg	stimuli_target_trianglesquares.svg	26	yes	44	1	757
6.6.1	win	2023-01-01	16:09:44	16:14:58	311742	610056c4a96ee61f6c0136da	512636848	1	main_z	7	advance_on_keypress_ZEE	82	stimuli_distractor_trianglediamonds.svg	stimuli_target_trianglesquares.svg	26	yes	57	0	260
6.6.1	win	2023-01-01	16:09:44	16:15:00	313626	610056c4a96ee61f6c0136da	512636848	1	main_z	7	main_z	83	stimuli_distractor_diamondtriangles.svg	stimuli_target_diamondsquares.svg	32	yes	44	1	990
6.6.1	win	2023-01-01	16:09:44	16:15:00	313626	610056c4a96ee61f6c0136da	512636848	1	main_z	7	advance_on_keypress_ZEE	84	stimuli_distractor_diamondtriangles.svg	stimuli_target_diamondsquares.svg	32	yes	57	0	239
6.6.1	win	2023-01-01	16:09:44	16:15:01	315373	610056c4a96ee61f6c0136da	512636848	1	main_z	7	main_z	85	stimuli_distractor_trianglediamonds.svg	stimuli_target_circlediamonds.svg	10	yes	44	1	870
6.6.1	win	2023-01-01	16:09:44	16:15:01	315373	610056c4a96ee61f6c0136da	512636848	1	main_z	7	advance_on_keypress_ZEE	86	stimuli_distractor_trianglediamonds.svg	stimuli_target_circlediamonds.svg	10	yes	57	0	219
6.6.1	win	2023-01-01	16:09:44	16:15:04	318237	610056c4a96ee61f6c0136da	512636848	1	main_z	7	main_z	87	stimuli_distractor_trianglediamonds.svg	stimuli_target_diamondsquares.svg	28	yes	0	0	2000
6.6.1	win	2023-01-01	16:09:44	16:15:04	318237	610056c4a96ee61f6c0136da	512636848	1	main_z	7	advance_on_keypress_ZEE	88	stimuli_distractor_trianglediamonds.svg	stimuli_target_diamondsquares.svg	28	yes	57	0	585
6.6.1	win	2023-01-01	16:09:44	16:15:06	320166	610056c4a96ee61f6c0136da	512636848	1	main_z	7	main_z	89	stimuli_distractor_diamondtriangles.svg	stimuli_target_trianglecircles.svg	29	yes	44	1	694
6.6.1	win	2023-01-01	16:09:44	16:15:06	320166	610056c4a96ee61f6c0136da	512636848	1	main_z	7	advance_on_keypress_ZEE	90	stimuli_distractor_diamondtriangles.svg	stimuli_target_trianglecircles.svg	29	yes	57	0	225
6.6.1	win	2023-01-01	16:09:44	16:15:08	321943	610056c4a96ee61f6c0136da	512636848	1	main_z	7	main_z	91	stimuli_target_trianglesquares.svg	stimuli_distractor_trianglediamonds.svg	18	yes	44	1	921
6.6.1	win	2023-01-01	16:09:44	16:15:08	321943	610056c4a96ee61f6c0136da	512636848	1	main_z	7	advance_on_keypress_ZEE	92	stimuli_target_trianglesquares.svg	stimuli_distractor_trianglediamonds.svg	18	yes	57	0	202
6.6.1	win	2023-01-01	16:09:44	16:15:10	323861	610056c4a96ee61f6c0136da	512636848	1	main_z	7	main_z	93	stimuli_target_squarediamonds.svg	stimuli_distractor_diamondtriangles.svg	8	yes	44	1	1071
6.6.1	win	2023-01-01	16:09:44	16:15:10	323861	610056c4a96ee61f6c0136da	512636848	1	main_z	7	advance_on_keypress_ZEE	94	stimuli_target_squarediamonds.svg	stimuli_distractor_diamondtriangles.svg	8	yes	57	0	179
6.6.1	win	2023-01-01	16:09:44	16:15:12	325769	610056c4a96ee61f6c0136da	512636848	1	main_z	7	main_z	95	stimuli_target_trianglesquares.svg	stimuli_distractor_diamondtriangles.svg	22	yes	44	1	1095
6.6.1	win	2023-01-01	16:09:44	16:15:12	325769	610056c4a96ee61f6c0136da	512636848	1	main_z	7	advance_on_keypress_ZEE	96	stimuli_target_trianglesquares.svg	stimuli_distractor_diamondtriangles.svg	22	yes	57	0	168
6.6.1	win	2023-01-01	16:09:44	16:15:15	328575	610056c4a96ee61f6c0136da	512636848	1	main_z	7	main_z	97	stimuli_distractor_trianglediamonds.svg	stimuli_distractor_diamondtriangles.svg	35	no	0	1	2000
6.6.1	win	2023-01-01	16:09:44	16:15:15	328575	610056c4a96ee61f6c0136da	512636848	1	main_z	7	advance_on_keypress_ZEE	98	stimuli_distractor_trianglediamonds.svg	stimuli_distractor_diamondtriangles.svg	35	no	57	0	737
6.6.1	win	2023-01-01	16:09:44	16:15:17	330956	610056c4a96ee61f6c0136da	512636848	1	main_z	7	main_z	99	stimuli_target_trianglecircles.svg	stimuli_distractor_diamondtriangles.svg	21	yes	44	1	997
6.6.1	win	2023-01-01	16:09:44	16:15:17	330956	610056c4a96ee61f6c0136da	512636848	1	main_z	7	advance_on_keypress_ZEE	100	stimuli_target_trianglecircles.svg	stimuli_distractor_diamondtriangles.svg	21	yes	57	0	248
6.6.1	win	2023-01-01	16:09:44	16:15:19	332820	610056c4a96ee61f6c0136da	512636848	1	main_z	7	main_z	101	stimuli_distractor_diamondtriangles.svg	stimuli_target_circletriangles.svg	13	yes	44	1	960
6.6.1	win	2023-01-01	16:09:44	16:15:19	332820	610056c4a96ee61f6c0136da	512636848	1	main_z	7	advance_on_keypress_ZEE	102	stimuli_distractor_diamondtriangles.svg	stimuli_target_circletriangles.svg	13	yes	57	0	253
6.6.1	win	2023-01-01	16:09:44	16:15:22	335712	610056c4a96ee61f6c0136da	512636848	1	main_z	7	main_z	103	stimuli_distractor_trianglediamonds.svg	stimuli_distractor_trianglediamonds.svg	34	no	0	1	2000
6.6.1	win	2023-01-01	16:09:44	16:15:22	335712	610056c4a96ee61f6c0136da	512636848	1	main_z	7	advance_on_keypress_ZEE	104	stimuli_distractor_trianglediamonds.svg	stimuli_distractor_trianglediamonds.svg	34	no	57	0	551
6.6.1	win	2023-01-01	16:09:44	16:15:24	337613	610056c4a96ee61f6c0136da	512636848	1	main_z	7	main_z	105	stimuli_target_circletriangles.svg	stimuli_distractor_trianglediamonds.svg	1	yes	44	1	701
6.6.1	win	2023-01-01	16:09:44	16:15:24	337613	610056c4a96ee61f6c0136da	512636848	1	main_z	7	advance_on_keypress_ZEE	106	stimuli_target_circletriangles.svg	stimuli_distractor_trianglediamonds.svg	1	yes	57	0	273
6.6.1	win	2023-01-01	16:09:44	16:15:25	339203	610056c4a96ee61f6c0136da	512636848	1	main_z	7	main_z	107	stimuli_target_circlediamonds.svg	stimuli_distractor_diamondtriangles.svg	6	yes	44	1	675
6.6.1	win	2023-01-01	16:09:44	16:15:25	339203	610056c4a96ee61f6c0136da	512636848	1	main_z	7	advance_on_keypress_ZEE	108	stimuli_target_circlediamonds.svg	stimuli_distractor_diamondtriangles.svg	6	yes	57	0	302
6.6.1	win	2023-01-01	16:09:44	16:15:27	340854	610056c4a96ee61f6c0136da	512636848	1	main_z	7	main_z	109	stimuli_target_circlediamonds.svg	stimuli_distractor_trianglediamonds.svg	2	yes	44	1	707
6.6.1	win	2023-01-01	16:09:44	16:15:27	340854	610056c4a96ee61f6c0136da	512636848	1	main_z	7	advance_on_keypress_ZEE	110	stimuli_target_circlediamonds.svg	stimuli_distractor_trianglediamonds.svg	2	yes	57	0	238
6.6.1	win	2023-01-01	16:09:44	16:15:30	343730	610056c4a96ee61f6c0136da	512636848	1	main_z	7	main_z	111	stimuli_target_diamondsquares.svg	stimuli_distractor_trianglediamonds.svg	20	yes	0	0	2000
6.6.1	win	2023-01-01	16:09:44	16:15:30	343730	610056c4a96ee61f6c0136da	512636848	1	main_z	7	advance_on_keypress_ZEE	112	stimuli_target_diamondsquares.svg	stimuli_distractor_trianglediamonds.svg	20	yes	57	0	487
6.6.1	win	2023-01-01	16:09:44	16:15:32	345580	610056c4a96ee61f6c0136da	512636848	1	main_z	7	main_z	113	stimuli_target_diamondsquares.svg	stimuli_distractor_diamondtriangles.svg	24	yes	44	1	716
6.6.1	win	2023-01-01	16:09:44	16:15:32	345580	610056c4a96ee61f6c0136da	512636848	1	main_z	7	advance_on_keypress_ZEE	114	stimuli_target_diamondsquares.svg	stimuli_distractor_diamondtriangles.svg	24	yes	57	0	242
6.6.1	win	2023-01-01	16:09:44	16:15:34	347848	610056c4a96ee61f6c0136da	512636848	1	main_z	7	main_z	115	stimuli_distractor_trianglediamonds.svg	stimuli_target_squaretriangles.svg	11	yes	44	1	1382
6.6.1	win	2023-01-01	16:09:44	16:15:34	347848	610056c4a96ee61f6c0136da	512636848	1	main_z	7	advance_on_keypress_ZEE	116	stimuli_distractor_trianglediamonds.svg	stimuli_target_squaretriangles.svg	11	yes	57	0	302
6.6.1	win	2023-01-01	16:09:44	16:15:36	349801	610056c4a96ee61f6c0136da	512636848	1	main_z	7	main_z	117	stimuli_distractor_diamondtriangles.svg	stimuli_target_squaretriangles.svg	15	yes	44	1	1000
6.6.1	win	2023-01-01	16:09:44	16:15:36	349801	610056c4a96ee61f6c0136da	512636848	1	main_z	7	advance_on_keypress_ZEE	118	stimuli_distractor_diamondtriangles.svg	stimuli_target_squaretriangles.svg	15	yes	57	0	287
6.6.1	win	2023-01-01	16:09:44	16:15:39	352734	610056c4a96ee61f6c0136da	512636848	1	main_z	7	main_z	119	stimuli_distractor_trianglediamonds.svg	stimuli_distractor_diamondtriangles.svg	36	no	0	1	2000
6.6.1	win	2023-01-01	16:09:44	16:15:39	352734	610056c4a96ee61f6c0136da	512636848	1	main_z	7	advance_on_keypress_ZEE	120	stimuli_distractor_trianglediamonds.svg	stimuli_distractor_diamondtriangles.svg	36	no	57	0	521
6.6.1	win	2023-01-01	16:09:44	16:15:41	354744	610056c4a96ee61f6c0136da	512636848	1	main_z	7	main_z	121	stimuli_distractor_trianglediamonds.svg	stimuli_target_squarediamonds.svg	12	yes	44	1	843
6.6.1	win	2023-01-01	16:09:44	16:15:41	354744	610056c4a96ee61f6c0136da	512636848	1	main_z	7	advance_on_keypress_ZEE	122	stimuli_distractor_trianglediamonds.svg	stimuli_target_squarediamonds.svg	12	yes	57	0	272
6.6.1	win	2023-01-01	16:09:44	16:15:43	356615	610056c4a96ee61f6c0136da	512636848	1	main_z	7	main_z	123	stimuli_target_squaretriangles.svg	stimuli_distractor_trianglediamonds.svg	3	yes	44	1	962
6.6.1	win	2023-01-01	16:09:44	16:15:43	356615	610056c4a96ee61f6c0136da	512636848	1	main_z	7	advance_on_keypress_ZEE	124	stimuli_target_squaretriangles.svg	stimuli_distractor_trianglediamonds.svg	3	yes	57	0	246
6.6.1	win	2023-01-01	16:09:44	16:15:44	358410	610056c4a96ee61f6c0136da	512636848	1	main_z	7	main_z	125	stimuli_distractor_diamondtriangles.svg	stimuli_target_circlediamonds.svg	14	yes	44	1	907
6.6.1	win	2023-01-01	16:09:44	16:15:44	358410	610056c4a96ee61f6c0136da	512636848	1	main_z	7	advance_on_keypress_ZEE	126	stimuli_distractor_diamondtriangles.svg	stimuli_target_circlediamonds.svg	14	yes	57	0	296
6.6.1	win	2023-01-01	16:09:44	16:15:46	360222	610056c4a96ee61f6c0136da	512636848	1	main_z	7	main_z	127	stimuli_distractor_trianglediamonds.svg	stimuli_target_trianglecircles.svg	25	yes	44	1	885
6.6.1	win	2023-01-01	16:09:44	16:15:46	360222	610056c4a96ee61f6c0136da	512636848	1	main_z	7	advance_on_keypress_ZEE	128	stimuli_distractor_trianglediamonds.svg	stimuli_target_trianglecircles.svg	25	yes	57	0	219
6.6.1	win	2023-01-01	16:09:44	16:15:48	361992	610056c4a96ee61f6c0136da	512636848	1	main_z	7	main_z	129	stimuli_target_diamondcircles.svg	stimuli_distractor_diamondtriangles.svg	23	yes	44	1	903
6.6.1	win	2023-01-01	16:09:44	16:15:48	361992	610056c4a96ee61f6c0136da	512636848	1	main_z	7	advance_on_keypress_ZEE	130	stimuli_target_diamondcircles.svg	stimuli_distractor_diamondtriangles.svg	23	yes	57	0	200
6.6.1	win	2023-01-01	16:09:44	16:15:50	363729	610056c4a96ee61f6c0136da	512636848	1	main_z	7	main_z	131	stimuli_target_diamondcircles.svg	stimuli_distractor_trianglediamonds.svg	19	yes	44	1	890
6.6.1	win	2023-01-01	16:09:44	16:15:50	363729	610056c4a96ee61f6c0136da	512636848	1	main_z	7	advance_on_keypress_ZEE	132	stimuli_target_diamondcircles.svg	stimuli_distractor_trianglediamonds.svg	19	yes	57	0	211
6.6.1	win	2023-01-01	16:09:44	16:15:53	366572	610056c4a96ee61f6c0136da	512636848	1	main_z	7	main_z	133	stimuli_distractor_diamondtriangles.svg	stimuli_distractor_diamondtriangles.svg	40	no	0	1	2000
6.6.1	win	2023-01-01	16:09:44	16:15:53	366572	610056c4a96ee61f6c0136da	512636848	1	main_z	7	advance_on_keypress_ZEE	134	stimuli_distractor_diamondtriangles.svg	stimuli_distractor_diamondtriangles.svg	40	no	57	0	832
6.6.1	win	2023-01-01	16:09:44	16:15:55	368922	610056c4a96ee61f6c0136da	512636848	1	main_z	7	main_z	135	stimuli_distractor_diamondtriangles.svg	stimuli_target_trianglesquares.svg	30	yes	44	1	866
6.6.1	win	2023-01-01	16:09:44	16:15:55	368922	610056c4a96ee61f6c0136da	512636848	1	main_z	7	advance_on_keypress_ZEE	136	stimuli_distractor_diamondtriangles.svg	stimuli_target_trianglesquares.svg	30	yes	57	0	240
6.6.1	win	2023-01-01	16:09:44	16:15:58	371808	610056c4a96ee61f6c0136da	512636848	1	main_z	7	main_z	137	stimuli_distractor_diamondtriangles.svg	stimuli_distractor_trianglediamonds.svg	38	no	0	1	2000
6.6.1	win	2023-01-01	16:09:44	16:15:58	371808	610056c4a96ee61f6c0136da	512636848	1	main_z	7	advance_on_keypress_ZEE	138	stimuli_distractor_diamondtriangles.svg	stimuli_distractor_trianglediamonds.svg	38	no	57	0	1015
6.6.1	win	2023-01-01	16:09:44	16:16:00	374392	610056c4a96ee61f6c0136da	512636848	1	main_z	7	main_z	139	stimuli_distractor_diamondtriangles.svg	stimuli_target_squarediamonds.svg	16	yes	44	1	916
6.6.1	win	2023-01-01	16:09:44	16:16:00	374392	610056c4a96ee61f6c0136da	512636848	1	main_z	7	advance_on_keypress_ZEE	140	stimuli_distractor_diamondtriangles.svg	stimuli_target_squarediamonds.svg	16	yes	57	0	148
6.6.1	win	2023-01-01	16:09:44	16:16:03	377193	610056c4a96ee61f6c0136da	512636848	1	main_z	7	main_z	141	stimuli_distractor_diamondtriangles.svg	stimuli_distractor_trianglediamonds.svg	37	no	0	1	2000
6.6.1	win	2023-01-01	16:09:44	16:16:03	377193	610056c4a96ee61f6c0136da	512636848	1	main_z	7	advance_on_keypress_ZEE	142	stimuli_distractor_diamondtriangles.svg	stimuli_distractor_trianglediamonds.svg	37	no	57	0	831
6.6.1	win	2023-01-01	16:09:44	16:16:05	379409	610056c4a96ee61f6c0136da	512636848	1	main_z	7	main_z	143	stimuli_distractor_diamondtriangles.svg	stimuli_target_diamondcircles.svg	31	yes	44	1	731
6.6.1	win	2023-01-01	16:09:44	16:16:05	379409	610056c4a96ee61f6c0136da	512636848	1	main_z	7	advance_on_keypress_ZEE	144	stimuli_distractor_diamondtriangles.svg	stimuli_target_diamondcircles.svg	31	yes	57	0	226
6.6.1	win	2023-01-01	16:09:44	16:16:08	382279	610056c4a96ee61f6c0136da	512636848	1	main_z	7	main_z	145	stimuli_distractor_trianglediamonds.svg	stimuli_distractor_trianglediamonds.svg	33	no	0	1	2000
6.6.1	win	2023-01-01	16:09:44	16:16:08	382279	610056c4a96ee61f6c0136da	512636848	1	main_z	7	advance_on_keypress_ZEE	146	stimuli_distractor_trianglediamonds.svg	stimuli_distractor_trianglediamonds.svg	33	no	57	0	652
6.6.1	win	2023-01-01	16:09:44	16:16:12	385580	610056c4a96ee61f6c0136da	512636848	1	main_z	7	main_z	147	stimuli_distractor_diamondtriangles.svg	stimuli_distractor_diamondtriangles.svg	39	no	0	1	2000
6.6.1	win	2023-01-01	16:09:44	16:16:12	385580	610056c4a96ee61f6c0136da	512636848	1	main_z	7	advance_on_keypress_ZEE	148	stimuli_distractor_diamondtriangles.svg	stimuli_distractor_diamondtriangles.svg	39	no	57	0	626
6.6.1	win	2023-01-01	16:09:44	16:16:14	387668	610056c4a96ee61f6c0136da	512636848	1	main_z	7	main_z	149	stimuli_target_circletriangles.svg	stimuli_distractor_diamondtriangles.svg	5	yes	44	1	820
6.6.1	win	2023-01-01	16:09:44	16:16:14	387668	610056c4a96ee61f6c0136da	512636848	1	main_z	7	advance_on_keypress_ZEE	150	stimuli_target_circletriangles.svg	stimuli_distractor_diamondtriangles.svg	5	yes	57	0	227
6.6.1	win	2023-01-01	16:09:44	16:16:16	389712	610056c4a96ee61f6c0136da	512636848	1	main_z	7	main_z	151	stimuli_distractor_trianglediamonds.svg	stimuli_target_circletriangles.svg	9	yes	44	1	1181
6.6.1	win	2023-01-01	16:09:44	16:16:16	389712	610056c4a96ee61f6c0136da	512636848	1	main_z	7	advance_on_keypress_ZEE	152	stimuli_distractor_trianglediamonds.svg	stimuli_target_circletriangles.svg	9	yes	57	0	134
6.6.1	win	2023-01-01	16:09:44	16:16:18	391599	610056c4a96ee61f6c0136da	512636848	1	main_z	7	main_z	153	stimuli_target_trianglecircles.svg	stimuli_distractor_trianglediamonds.svg	17	yes	44	1	1100
6.6.1	win	2023-01-01	16:09:44	16:16:18	391599	610056c4a96ee61f6c0136da	512636848	1	main_z	7	advance_on_keypress_ZEE	154	stimuli_target_trianglecircles.svg	stimuli_distractor_trianglediamonds.svg	17	yes	57	0	95
6.6.1	win	2023-01-01	16:09:44	16:16:19	393255	610056c4a96ee61f6c0136da	512636848	1	main_z	7	main_z	155	stimuli_distractor_trianglediamonds.svg	stimuli_target_diamondcircles.svg	27	yes	44	1	905
6.6.1	win	2023-01-01	16:09:44	16:16:19	393255	610056c4a96ee61f6c0136da	512636848	1	main_z	7	advance_on_keypress_ZEE	156	stimuli_distractor_trianglediamonds.svg	stimuli_target_diamondcircles.svg	27	yes	57	0	144
6.6.1	win	2023-01-01	16:09:44	16:16:21	394921	610056c4a96ee61f6c0136da	512636848	1	main_z	7	main_z	157	stimuli_target_squaretriangles.svg	stimuli_distractor_diamondtriangles.svg	7	yes	44	1	887
6.6.1	win	2023-01-01	16:09:44	16:16:21	394921	610056c4a96ee61f6c0136da	512636848	1	main_z	7	advance_on_keypress_ZEE	158	stimuli_target_squaretriangles.svg	stimuli_distractor_diamondtriangles.svg	7	yes	57	0	133
6.6.1	win	2023-01-01	16:09:44	16:16:22	396495	610056c4a96ee61f6c0136da	512636848	1	main_z	7	main_z	159	stimuli_target_squarediamonds.svg	stimuli_distractor_trianglediamonds.svg	4	yes	44	1	794
6.6.1	win	2023-01-01	16:09:44	16:16:22	396495	610056c4a96ee61f6c0136da	512636848	1	main_z	7	advance_on_keypress_ZEE	160	stimuli_target_squarediamonds.svg	stimuli_distractor_trianglediamonds.svg	4	yes	57	0	202
6.6.1	win	2023-01-01	16:09:44	16:16:49	422713	610056c4a96ee61f6c0136da	512636848	1	practice_slash	9	practice_slash	1	stimuli_distractor_trianglediamonds.svg	stimuli_distractor_trianglediamonds.svg	15	no	0	1	2000
6.6.1	win	2023-01-01	16:09:44	16:16:49	422713	610056c4a96ee61f6c0136da	512636848	1	practice_slash	9	advance_on_keypress_SLASH	2	stimuli_distractor_trianglediamonds.svg	stimuli_distractor_trianglediamonds.svg	15	no	57	0	507
6.6.1	win	2023-01-01	16:09:44	16:16:52	425715	610056c4a96ee61f6c0136da	512636848	1	practice_slash	9	practice_slash	3	stimuli_distractor_trianglediamonds.svg	stimuli_target_diamondcircles.svg	12	yes	53	1	851
6.6.1	win	2023-01-01	16:09:44	16:16:52	425715	610056c4a96ee61f6c0136da	512636848	1	practice_slash	9	advance_on_keypress_SLASH	4	stimuli_distractor_trianglediamonds.svg	stimuli_target_diamondcircles.svg	12	yes	57	0	479
6.6.1	win	2023-01-01	16:09:44	16:16:55	429037	610056c4a96ee61f6c0136da	512636848	1	practice_slash	9	practice_slash	5	stimuli_target_diamondsquares.svg	stimuli_distractor_trianglediamonds.svg	6	yes	53	1	1189
6.6.1	win	2023-01-01	16:09:44	16:16:55	429037	610056c4a96ee61f6c0136da	512636848	1	practice_slash	9	advance_on_keypress_SLASH	6	stimuli_target_diamondsquares.svg	stimuli_distractor_trianglediamonds.svg	6	yes	57	0	354
6.6.1	win	2023-01-01	16:09:44	16:16:58	431889	610056c4a96ee61f6c0136da	512636848	1	practice_slash	9	practice_slash	7	stimuli_distractor_trianglediamonds.svg	stimuli_target_circlediamonds.svg	10	yes	53	1	856
6.6.1	win	2023-01-01	16:09:44	16:16:58	431889	610056c4a96ee61f6c0136da	512636848	1	practice_slash	9	advance_on_keypress_SLASH	8	stimuli_distractor_trianglediamonds.svg	stimuli_target_circlediamonds.svg	10	yes	57	0	454
6.6.1	win	2023-01-01	16:09:44	16:17:01	434823	610056c4a96ee61f6c0136da	512636848	1	practice_slash	9	practice_slash	9	stimuli_target_squarediamonds.svg	stimuli_distractor_diamondtriangles.svg	2	yes	53	1	839
6.6.1	win	2023-01-01	16:09:44	16:17:01	434823	610056c4a96ee61f6c0136da	512636848	1	practice_slash	9	advance_on_keypress_SLASH	10	stimuli_target_squarediamonds.svg	stimuli_distractor_diamondtriangles.svg	2	yes	57	0	448
6.6.1	win	2023-01-01	16:09:44	16:17:05	438918	610056c4a96ee61f6c0136da	512636848	1	practice_slash	9	practice_slash	11	stimuli_distractor_diamondtriangles.svg	stimuli_distractor_trianglediamonds.svg	14	no	0	1	2000
6.6.1	win	2023-01-01	16:09:44	16:17:05	438918	610056c4a96ee61f6c0136da	512636848	1	practice_slash	9	advance_on_keypress_SLASH	12	stimuli_distractor_diamondtriangles.svg	stimuli_distractor_trianglediamonds.svg	14	no	57	0	507
6.6.1	win	2023-01-01	16:09:44	16:17:08	442064	610056c4a96ee61f6c0136da	512636848	1	practice_slash	9	practice_slash	13	stimuli_distractor_diamondtriangles.svg	stimuli_target_circletriangles.svg	7	yes	53	1	994
6.6.1	win	2023-01-01	16:09:44	16:17:08	442064	610056c4a96ee61f6c0136da	512636848	1	practice_slash	9	advance_on_keypress_SLASH	14	stimuli_distractor_diamondtriangles.svg	stimuli_target_circletriangles.svg	7	yes	57	0	351
6.6.1	win	2023-01-01	16:09:44	16:17:11	445150	610056c4a96ee61f6c0136da	512636848	1	practice_slash	9	practice_slash	15	stimuli_distractor_diamondtriangles.svg	stimuli_target_diamondcircles.svg	8	yes	53	1	1094
6.6.1	win	2023-01-01	16:09:44	16:17:11	445150	610056c4a96ee61f6c0136da	512636848	1	practice_slash	9	advance_on_keypress_SLASH	16	stimuli_distractor_diamondtriangles.svg	stimuli_target_diamondcircles.svg	8	yes	57	0	417
6.6.1	win	2023-01-01	16:09:44	16:17:14	448121	610056c4a96ee61f6c0136da	512636848	1	practice_slash	9	practice_slash	17	stimuli_distractor_trianglediamonds.svg	stimuli_target_squarediamonds.svg	11	yes	53	1	898
6.6.1	win	2023-01-01	16:09:44	16:17:14	448121	610056c4a96ee61f6c0136da	512636848	1	practice_slash	9	advance_on_keypress_SLASH	18	stimuli_distractor_trianglediamonds.svg	stimuli_target_squarediamonds.svg	11	yes	57	0	291
6.6.1	win	2023-01-01	16:09:44	16:17:17	450951	610056c4a96ee61f6c0136da	512636848	1	practice_slash	9	practice_slash	19	stimuli_target_circlediamonds.svg	stimuli_distractor_trianglediamonds.svg	4	yes	53	1	894
6.6.1	win	2023-01-01	16:09:44	16:17:17	450951	610056c4a96ee61f6c0136da	512636848	1	practice_slash	9	advance_on_keypress_SLASH	20	stimuli_target_circlediamonds.svg	stimuli_distractor_trianglediamonds.svg	4	yes	57	0	224
6.6.1	win	2023-01-01	16:09:44	16:17:20	453648	610056c4a96ee61f6c0136da	512636848	1	practice_slash	9	practice_slash	21	stimuli_target_circlediamonds.svg	stimuli_distractor_diamondtriangles.svg	1	yes	53	1	823
6.6.1	win	2023-01-01	16:09:44	16:17:20	453648	610056c4a96ee61f6c0136da	512636848	1	practice_slash	9	advance_on_keypress_SLASH	22	stimuli_target_circlediamonds.svg	stimuli_distractor_diamondtriangles.svg	1	yes	57	0	437
6.6.1	win	2023-01-01	16:09:44	16:17:24	457726	610056c4a96ee61f6c0136da	512636848	1	practice_slash	9	practice_slash	23	stimuli_target_diamondsquares.svg	stimuli_distractor_diamondtriangles.svg	3	yes	0	0	2000
6.6.1	win	2023-01-01	16:09:44	16:17:24	457726	610056c4a96ee61f6c0136da	512636848	1	practice_slash	9	advance_on_keypress_SLASH	24	stimuli_target_diamondsquares.svg	stimuli_distractor_diamondtriangles.svg	3	yes	57	0	964
6.6.1	win	2023-01-01	16:09:44	16:17:27	461179	610056c4a96ee61f6c0136da	512636848	1	practice_slash	9	practice_slash	25	stimuli_distractor_trianglediamonds.svg	stimuli_distractor_diamondtriangles.svg	16	no	53	0	835
6.6.1	win	2023-01-01	16:09:44	16:17:27	461179	610056c4a96ee61f6c0136da	512636848	1	practice_slash	9	advance_on_keypress_SLASH	26	stimuli_distractor_trianglediamonds.svg	stimuli_distractor_diamondtriangles.svg	16	no	57	0	721
6.6.1	win	2023-01-01	16:09:44	16:17:31	465545	610056c4a96ee61f6c0136da	512636848	1	practice_slash	9	practice_slash	27	stimuli_distractor_diamondtriangles.svg	stimuli_distractor_diamondtriangles.svg	13	no	0	1	2000
6.6.1	win	2023-01-01	16:09:44	16:17:31	465545	610056c4a96ee61f6c0136da	512636848	1	practice_slash	9	advance_on_keypress_SLASH	28	stimuli_distractor_diamondtriangles.svg	stimuli_distractor_diamondtriangles.svg	13	no	57	0	536
6.6.1	win	2023-01-01	16:09:44	16:17:35	468611	610056c4a96ee61f6c0136da	512636848	1	practice_slash	9	practice_slash	29	stimuli_distractor_diamondtriangles.svg	stimuli_target_trianglecircles.svg	9	yes	53	1	880
6.6.1	win	2023-01-01	16:09:44	16:17:35	468611	610056c4a96ee61f6c0136da	512636848	1	practice_slash	9	advance_on_keypress_SLASH	30	stimuli_distractor_diamondtriangles.svg	stimuli_target_trianglecircles.svg	9	yes	57	0	378
6.6.1	win	2023-01-01	16:09:44	16:17:38	471927	610056c4a96ee61f6c0136da	512636848	1	practice_slash	9	practice_slash	31	stimuli_target_squarediamonds.svg	stimuli_distractor_trianglediamonds.svg	5	yes	53	1	1279
6.6.1	win	2023-01-01	16:09:44	16:17:38	471927	610056c4a96ee61f6c0136da	512636848	1	practice_slash	9	advance_on_keypress_SLASH	32	stimuli_target_squarediamonds.svg	stimuli_distractor_trianglediamonds.svg	5	yes	57	0	391
6.6.1	win	2023-01-01	16:09:44	16:17:44	478472	610056c4a96ee61f6c0136da	512636848	1	main_slash	11	main_slash	1	stimuli_target_trianglesquares.svg	stimuli_distractor_diamondtriangles.svg	22	yes	53	1	1239
6.6.1	win	2023-01-01	16:09:44	16:17:44	478472	610056c4a96ee61f6c0136da	512636848	1	main_slash	11	advance_on_keypress_SLASH	2	stimuli_target_trianglesquares.svg	stimuli_distractor_diamondtriangles.svg	22	yes	57	0	432
6.6.1	win	2023-01-01	16:09:44	16:17:46	480414	610056c4a96ee61f6c0136da	512636848	1	main_slash	11	main_slash	3	stimuli_target_trianglecircles.svg	stimuli_distractor_diamondtriangles.svg	21	yes	53	1	864
6.6.1	win	2023-01-01	16:09:44	16:17:46	480414	610056c4a96ee61f6c0136da	512636848	1	main_slash	11	advance_on_keypress_SLASH	4	stimuli_target_trianglecircles.svg	stimuli_distractor_diamondtriangles.svg	21	yes	57	0	247
6.6.1	win	2023-01-01	16:09:44	16:17:48	482466	610056c4a96ee61f6c0136da	512636848	1	main_slash	11	main_slash	5	stimuli_distractor_diamondtriangles.svg	stimuli_target_diamondsquares.svg	32	yes	53	1	1149
6.6.1	win	2023-01-01	16:09:44	16:17:48	482466	610056c4a96ee61f6c0136da	512636848	1	main_slash	11	advance_on_keypress_SLASH	6	stimuli_distractor_diamondtriangles.svg	stimuli_target_diamondsquares.svg	32	yes	57	0	135
6.6.1	win	2023-01-01	16:09:44	16:17:50	484084	610056c4a96ee61f6c0136da	512636848	1	main_slash	11	main_slash	7	stimuli_target_squarediamonds.svg	stimuli_distractor_diamondtriangles.svg	8	yes	53	1	834
6.6.1	win	2023-01-01	16:09:44	16:17:50	484084	610056c4a96ee61f6c0136da	512636848	1	main_slash	11	advance_on_keypress_SLASH	8	stimuli_target_squarediamonds.svg	stimuli_distractor_diamondtriangles.svg	8	yes	57	0	130
6.6.1	win	2023-01-01	16:09:44	16:17:53	486868	610056c4a96ee61f6c0136da	512636848	1	main_slash	11	main_slash	9	stimuli_distractor_diamondtriangles.svg	stimuli_distractor_trianglediamonds.svg	37	no	0	1	2000
6.6.1	win	2023-01-01	16:09:44	16:17:53	486868	610056c4a96ee61f6c0136da	512636848	1	main_slash	11	advance_on_keypress_SLASH	10	stimuli_distractor_diamondtriangles.svg	stimuli_distractor_trianglediamonds.svg	37	no	57	0	390
6.6.1	win	2023-01-01	16:09:44	16:17:55	488790	610056c4a96ee61f6c0136da	512636848	1	main_slash	11	main_slash	11	stimuli_distractor_trianglediamonds.svg	stimuli_target_diamondcircles.svg	27	yes	53	1	888
6.6.1	win	2023-01-01	16:09:44	16:17:55	488790	610056c4a96ee61f6c0136da	512636848	1	main_slash	11	advance_on_keypress_SLASH	12	stimuli_distractor_trianglediamonds.svg	stimuli_target_diamondcircles.svg	27	yes	57	0	185
6.6.1	win	2023-01-01	16:09:44	16:17:56	490479	610056c4a96ee61f6c0136da	512636848	1	main_slash	11	main_slash	13	stimuli_distractor_diamondtriangles.svg	stimuli_target_trianglecircles.svg	29	yes	53	1	859
6.6.1	win	2023-01-01	16:09:44	16:17:56	490479	610056c4a96ee61f6c0136da	512636848	1	main_slash	11	advance_on_keypress_SLASH	14	stimuli_distractor_diamondtriangles.svg	stimuli_target_trianglecircles.svg	29	yes	57	0	190
6.6.1	win	2023-01-01	16:09:44	16:17:58	492064	610056c4a96ee61f6c0136da	512636848	1	main_slash	11	main_slash	15	stimuli_target_squaretriangles.svg	stimuli_distractor_trianglediamonds.svg	3	yes	53	1	761
6.6.1	win	2023-01-01	16:09:44	16:17:58	492064	610056c4a96ee61f6c0136da	512636848	1	main_slash	11	advance_on_keypress_SLASH	16	stimuli_target_squaretriangles.svg	stimuli_distractor_trianglediamonds.svg	3	yes	57	0	166
6.6.1	win	2023-01-01	16:09:44	16:18:00	493687	610056c4a96ee61f6c0136da	512636848	1	main_slash	11	main_slash	17	stimuli_target_squaretriangles.svg	stimuli_distractor_diamondtriangles.svg	7	yes	53	1	815
6.6.1	win	2023-01-01	16:09:44	16:18:00	493687	610056c4a96ee61f6c0136da	512636848	1	main_slash	11	advance_on_keypress_SLASH	18	stimuli_target_squaretriangles.svg	stimuli_distractor_diamondtriangles.svg	7	yes	57	0	196
6.6.1	win	2023-01-01	16:09:44	16:18:01	495447	610056c4a96ee61f6c0136da	512636848	1	main_slash	11	main_slash	19	stimuli_target_circlediamonds.svg	stimuli_distractor_trianglediamonds.svg	2	yes	53	1	925
6.6.1	win	2023-01-01	16:09:44	16:18:01	495447	610056c4a96ee61f6c0136da	512636848	1	main_slash	11	advance_on_keypress_SLASH	20	stimuli_target_circlediamonds.svg	stimuli_distractor_trianglediamonds.svg	2	yes	57	0	128
6.6.1	win	2023-01-01	16:09:44	16:18:04	498207	610056c4a96ee61f6c0136da	512636848	1	main_slash	11	main_slash	21	stimuli_distractor_trianglediamonds.svg	stimuli_distractor_trianglediamonds.svg	33	no	0	1	2000
6.6.1	win	2023-01-01	16:09:44	16:18:04	498207	610056c4a96ee61f6c0136da	512636848	1	main_slash	11	advance_on_keypress_SLASH	22	stimuli_distractor_trianglediamonds.svg	stimuli_distractor_trianglediamonds.svg	33	no	57	0	579
6.6.1	win	2023-01-01	16:09:44	16:18:07	501424	610056c4a96ee61f6c0136da	512636848	1	main_slash	11	main_slash	23	stimuli_distractor_diamondtriangles.svg	stimuli_distractor_diamondtriangles.svg	39	no	0	1	2000
6.6.1	win	2023-01-01	16:09:44	16:18:07	501424	610056c4a96ee61f6c0136da	512636848	1	main_slash	11	advance_on_keypress_SLASH	24	stimuli_distractor_diamondtriangles.svg	stimuli_distractor_diamondtriangles.svg	39	no	57	0	290
6.6.1	win	2023-01-01	16:09:44	16:18:09	503024	610056c4a96ee61f6c0136da	512636848	1	main_slash	11	main_slash	25	stimuli_target_squarediamonds.svg	stimuli_distractor_trianglediamonds.svg	4	yes	53	1	665
6.6.1	win	2023-01-01	16:09:44	16:18:09	503024	610056c4a96ee61f6c0136da	512636848	1	main_slash	11	advance_on_keypress_SLASH	26	stimuli_target_squarediamonds.svg	stimuli_distractor_trianglediamonds.svg	4	yes	57	0	132
6.6.1	win	2023-01-01	16:09:44	16:18:11	504591	610056c4a96ee61f6c0136da	512636848	1	main_slash	11	main_slash	27	stimuli_distractor_diamondtriangles.svg	stimuli_target_diamondcircles.svg	31	yes	53	1	782
6.6.1	win	2023-01-01	16:09:44	16:18:11	504591	610056c4a96ee61f6c0136da	512636848	1	main_slash	11	advance_on_keypress_SLASH	28	stimuli_distractor_diamondtriangles.svg	stimuli_target_diamondcircles.svg	31	yes	57	0	153
6.6.1	win	2023-01-01	16:09:44	16:18:13	506604	610056c4a96ee61f6c0136da	512636848	1	main_slash	11	main_slash	29	stimuli_distractor_diamondtriangles.svg	stimuli_target_trianglesquares.svg	30	yes	53	1	1211
6.6.1	win	2023-01-01	16:09:44	16:18:13	506604	610056c4a96ee61f6c0136da	512636848	1	main_slash	11	advance_on_keypress_SLASH	30	stimuli_distractor_diamondtriangles.svg	stimuli_target_trianglesquares.svg	30	yes	57	0	102
6.6.1	win	2023-01-01	16:09:44	16:18:14	508204	610056c4a96ee61f6c0136da	512636848	1	main_slash	11	main_slash	31	stimuli_target_circletriangles.svg	stimuli_distractor_diamondtriangles.svg	5	yes	53	1	861
6.6.1	win	2023-01-01	16:09:44	16:18:14	508204	610056c4a96ee61f6c0136da	512636848	1	main_slash	11	advance_on_keypress_SLASH	32	stimuli_target_circletriangles.svg	stimuli_distractor_diamondtriangles.svg	5	yes	57	0	147
6.6.1	win	2023-01-01	16:09:44	16:18:16	509952	610056c4a96ee61f6c0136da	512636848	1	main_slash	11	main_slash	33	stimuli_distractor_trianglediamonds.svg	stimuli_target_diamondsquares.svg	28	yes	53	1	958
6.6.1	win	2023-01-01	16:09:44	16:18:16	509952	610056c4a96ee61f6c0136da	512636848	1	main_slash	11	advance_on_keypress_SLASH	34	stimuli_distractor_trianglediamonds.svg	stimuli_target_diamondsquares.svg	28	yes	57	0	131
6.6.1	win	2023-01-01	16:09:44	16:18:19	512728	610056c4a96ee61f6c0136da	512636848	1	main_slash	11	main_slash	35	stimuli_distractor_trianglediamonds.svg	stimuli_target_circletriangles.svg	9	yes	0	0	2000
6.6.1	win	2023-01-01	16:09:44	16:18:19	512728	610056c4a96ee61f6c0136da	512636848	1	main_slash	11	advance_on_keypress_SLASH	36	stimuli_distractor_trianglediamonds.svg	stimuli_target_circletriangles.svg	9	yes	57	0	457
6.6.1	win	2023-01-01	16:09:44	16:18:20	514490	610056c4a96ee61f6c0136da	512636848	1	main_slash	11	main_slash	37	stimuli_target_diamondcircles.svg	stimuli_distractor_diamondtriangles.svg	23	yes	53	1	660
6.6.1	win	2023-01-01	16:09:44	16:18:20	514490	610056c4a96ee61f6c0136da	512636848	1	main_slash	11	advance_on_keypress_SLASH	38	stimuli_target_diamondcircles.svg	stimuli_distractor_diamondtriangles.svg	23	yes	57	0	133
6.6.1	win	2023-01-01	16:09:44	16:18:22	516180	610056c4a96ee61f6c0136da	512636848	1	main_slash	11	main_slash	39	stimuli_target_circletriangles.svg	stimuli_distractor_trianglediamonds.svg	1	yes	53	1	917
6.6.1	win	2023-01-01	16:09:44	16:18:22	516180	610056c4a96ee61f6c0136da	512636848	1	main_slash	11	advance_on_keypress_SLASH	40	stimuli_target_circletriangles.svg	stimuli_distractor_trianglediamonds.svg	1	yes	57	0	122
6.6.1	win	2023-01-01	16:09:44	16:18:24	517754	610056c4a96ee61f6c0136da	512636848	1	main_slash	11	main_slash	41	stimuli_target_diamondsquares.svg	stimuli_distractor_diamondtriangles.svg	24	yes	53	1	807
6.6.1	win	2023-01-01	16:09:44	16:18:24	517754	610056c4a96ee61f6c0136da	512636848	1	main_slash	11	advance_on_keypress_SLASH	42	stimuli_target_diamondsquares.svg	stimuli_distractor_diamondtriangles.svg	24	yes	57	0	115
6.6.1	win	2023-01-01	16:09:44	16:18:25	519375	610056c4a96ee61f6c0136da	512636848	1	main_slash	11	main_slash	43	stimuli_distractor_trianglediamonds.svg	stimuli_target_squaretriangles.svg	11	yes	53	1	861
6.6.1	win	2023-01-01	16:09:44	16:18:25	519375	610056c4a96ee61f6c0136da	512636848	1	main_slash	11	advance_on_keypress_SLASH	44	stimuli_distractor_trianglediamonds.svg	stimuli_target_squaretriangles.svg	11	yes	57	0	106
6.6.1	win	2023-01-01	16:09:44	16:18:27	520895	610056c4a96ee61f6c0136da	512636848	1	main_slash	11	main_slash	45	stimuli_distractor_trianglediamonds.svg	stimuli_target_squarediamonds.svg	12	yes	53	1	778
6.6.1	win	2023-01-01	16:09:44	16:18:27	520895	610056c4a96ee61f6c0136da	512636848	1	main_slash	11	advance_on_keypress_SLASH	46	stimuli_distractor_trianglediamonds.svg	stimuli_target_squarediamonds.svg	12	yes	57	0	57
6.6.1	win	2023-01-01	16:09:44	16:18:30	523599	610056c4a96ee61f6c0136da	512636848	1	main_slash	11	main_slash	47	stimuli_distractor_diamondtriangles.svg	stimuli_target_squaretriangles.svg	15	yes	0	0	2000
6.6.1	win	2023-01-01	16:09:44	16:18:30	523599	610056c4a96ee61f6c0136da	512636848	1	main_slash	11	advance_on_keypress_SLASH	48	stimuli_distractor_diamondtriangles.svg	stimuli_target_squaretriangles.svg	15	yes	57	0	465
6.6.1	win	2023-01-01	16:09:44	16:18:31	525349	610056c4a96ee61f6c0136da	512636848	1	main_slash	11	main_slash	49	stimuli_distractor_trianglediamonds.svg	stimuli_target_trianglecircles.svg	25	yes	53	1	632
6.6.1	win	2023-01-01	16:09:44	16:18:31	525349	610056c4a96ee61f6c0136da	512636848	1	main_slash	11	advance_on_keypress_SLASH	50	stimuli_distractor_trianglediamonds.svg	stimuli_target_trianglecircles.svg	25	yes	57	0	98
6.6.1	win	2023-01-01	16:09:44	16:18:33	526819	610056c4a96ee61f6c0136da	512636848	1	main_slash	11	main_slash	51	stimuli_distractor_diamondtriangles.svg	stimuli_target_circletriangles.svg	13	yes	53	1	718
6.6.1	win	2023-01-01	16:09:44	16:18:33	526819	610056c4a96ee61f6c0136da	512636848	1	main_slash	11	advance_on_keypress_SLASH	52	stimuli_distractor_diamondtriangles.svg	stimuli_target_circletriangles.svg	13	yes	57	0	68
6.6.1	win	2023-01-01	16:09:44	16:18:34	528209	610056c4a96ee61f6c0136da	512636848	1	main_slash	11	main_slash	53	stimuli_distractor_diamondtriangles.svg	stimuli_target_circlediamonds.svg	14	yes	53	1	674
6.6.1	win	2023-01-01	16:09:44	16:18:34	528209	610056c4a96ee61f6c0136da	512636848	1	main_slash	11	advance_on_keypress_SLASH	54	stimuli_distractor_diamondtriangles.svg	stimuli_target_circlediamonds.svg	14	yes	57	0	66
6.6.1	win	2023-01-01	16:09:44	16:18:37	530919	610056c4a96ee61f6c0136da	512636848	1	main_slash	11	main_slash	55	stimuli_distractor_diamondtriangles.svg	stimuli_distractor_diamondtriangles.svg	40	no	0	1	2000
6.6.1	win	2023-01-01	16:09:44	16:18:37	530919	610056c4a96ee61f6c0136da	512636848	1	main_slash	11	advance_on_keypress_SLASH	56	stimuli_distractor_diamondtriangles.svg	stimuli_distractor_diamondtriangles.svg	40	no	57	0	417
6.6.1	win	2023-01-01	16:09:44	16:18:40	533987	610056c4a96ee61f6c0136da	512636848	1	main_slash	11	main_slash	57	stimuli_distractor_trianglediamonds.svg	stimuli_distractor_diamondtriangles.svg	36	no	0	1	2000
6.6.1	win	2023-01-01	16:09:44	16:18:40	533987	610056c4a96ee61f6c0136da	512636848	1	main_slash	11	advance_on_keypress_SLASH	58	stimuli_distractor_trianglediamonds.svg	stimuli_distractor_diamondtriangles.svg	36	no	57	0	292
6.6.1	win	2023-01-01	16:09:44	16:18:42	535591	610056c4a96ee61f6c0136da	512636848	1	main_slash	11	main_slash	59	stimuli_distractor_diamondtriangles.svg	stimuli_target_squarediamonds.svg	16	yes	53	1	670
6.6.1	win	2023-01-01	16:09:44	16:18:42	535591	610056c4a96ee61f6c0136da	512636848	1	main_slash	11	advance_on_keypress_SLASH	60	stimuli_distractor_diamondtriangles.svg	stimuli_target_squarediamonds.svg	16	yes	57	0	36
6.6.1	win	2023-01-01	16:09:44	16:18:44	538272	610056c4a96ee61f6c0136da	512636848	1	main_slash	11	main_slash	61	stimuli_distractor_trianglediamonds.svg	stimuli_distractor_diamondtriangles.svg	35	no	0	1	2000
6.6.1	win	2023-01-01	16:09:44	16:18:44	538272	610056c4a96ee61f6c0136da	512636848	1	main_slash	11	advance_on_keypress_SLASH	62	stimuli_distractor_trianglediamonds.svg	stimuli_distractor_diamondtriangles.svg	35	no	57	0	433
6.6.1	win	2023-01-01	16:09:44	16:18:46	540040	610056c4a96ee61f6c0136da	512636848	1	main_slash	11	main_slash	63	stimuli_target_trianglecircles.svg	stimuli_distractor_trianglediamonds.svg	17	yes	53	1	684
6.6.1	win	2023-01-01	16:09:44	16:18:46	540040	610056c4a96ee61f6c0136da	512636848	1	main_slash	11	advance_on_keypress_SLASH	64	stimuli_target_trianglecircles.svg	stimuli_distractor_trianglediamonds.svg	17	yes	57	0	43
6.6.1	win	2023-01-01	16:09:44	16:18:48	541852	610056c4a96ee61f6c0136da	512636848	1	main_slash	11	main_slash	65	stimuli_target_diamondcircles.svg	stimuli_distractor_trianglediamonds.svg	19	yes	53	1	1129
6.6.1	win	2023-01-01	16:09:44	16:18:48	541852	610056c4a96ee61f6c0136da	512636848	1	main_slash	11	advance_on_keypress_SLASH	66	stimuli_target_diamondcircles.svg	stimuli_distractor_trianglediamonds.svg	19	yes	57	0	113
6.6.1	win	2023-01-01	16:09:44	16:18:51	544607	610056c4a96ee61f6c0136da	512636848	1	main_slash	11	main_slash	67	stimuli_distractor_trianglediamonds.svg	stimuli_distractor_trianglediamonds.svg	34	no	0	1	2000
6.6.1	win	2023-01-01	16:09:44	16:18:51	544607	610056c4a96ee61f6c0136da	512636848	1	main_slash	11	advance_on_keypress_SLASH	68	stimuli_distractor_trianglediamonds.svg	stimuli_distractor_trianglediamonds.svg	34	no	57	0	370
6.6.1	win	2023-01-01	16:09:44	16:18:52	546336	610056c4a96ee61f6c0136da	512636848	1	main_slash	11	main_slash	69	stimuli_distractor_trianglediamonds.svg	stimuli_target_trianglesquares.svg	26	yes	53	1	711
6.6.1	win	2023-01-01	16:09:44	16:18:52	546336	610056c4a96ee61f6c0136da	512636848	1	main_slash	11	advance_on_keypress_SLASH	70	stimuli_distractor_trianglediamonds.svg	stimuli_target_trianglesquares.svg	26	yes	57	0	57
6.6.1	win	2023-01-01	16:09:44	16:18:54	547875	610056c4a96ee61f6c0136da	512636848	1	main_slash	11	main_slash	71	stimuli_target_circlediamonds.svg	stimuli_distractor_diamondtriangles.svg	6	yes	53	1	848
6.6.1	win	2023-01-01	16:09:44	16:18:54	547875	610056c4a96ee61f6c0136da	512636848	1	main_slash	11	advance_on_keypress_SLASH	72	stimuli_target_circlediamonds.svg	stimuli_distractor_diamondtriangles.svg	6	yes	57	0	68
6.6.1	win	2023-01-01	16:09:44	16:18:55	549301	610056c4a96ee61f6c0136da	512636848	1	main_slash	11	main_slash	73	stimuli_distractor_trianglediamonds.svg	stimuli_target_circlediamonds.svg	10	yes	53	1	708
6.6.1	win	2023-01-01	16:09:44	16:18:55	549301	610056c4a96ee61f6c0136da	512636848	1	main_slash	11	advance_on_keypress_SLASH	74	stimuli_distractor_trianglediamonds.svg	stimuli_target_circlediamonds.svg	10	yes	57	0	52
6.6.1	win	2023-01-01	16:09:44	16:18:57	550865	610056c4a96ee61f6c0136da	512636848	1	main_slash	11	main_slash	75	stimuli_target_diamondsquares.svg	stimuli_distractor_trianglediamonds.svg	20	yes	53	1	872
6.6.1	win	2023-01-01	16:09:44	16:18:57	550865	610056c4a96ee61f6c0136da	512636848	1	main_slash	11	advance_on_keypress_SLASH	76	stimuli_target_diamondsquares.svg	stimuli_distractor_trianglediamonds.svg	20	yes	57	0	45
6.6.1	win	2023-01-01	16:09:44	16:18:59	553544	610056c4a96ee61f6c0136da	512636848	1	main_slash	11	main_slash	77	stimuli_distractor_diamondtriangles.svg	stimuli_distractor_trianglediamonds.svg	38	no	0	1	2000
6.6.1	win	2023-01-01	16:09:44	16:18:59	553544	610056c4a96ee61f6c0136da	512636848	1	main_slash	11	advance_on_keypress_SLASH	78	stimuli_distractor_diamondtriangles.svg	stimuli_distractor_trianglediamonds.svg	38	no	57	0	465
6.6.1	win	2023-01-01	16:09:44	16:19:01	555397	610056c4a96ee61f6c0136da	512636848	1	main_slash	11	main_slash	79	stimuli_target_trianglesquares.svg	stimuli_distractor_trianglediamonds.svg	18	yes	53	1	735
6.6.1	win	2023-01-01	16:09:44	16:19:01	555397	610056c4a96ee61f6c0136da	512636848	1	main_slash	11	advance_on_keypress_SLASH	80	stimuli_target_trianglesquares.svg	stimuli_distractor_trianglediamonds.svg	18	yes	57	0	51
6.6.1	win	2023-01-01	16:09:44	16:19:03	556905	610056c4a96ee61f6c0136da	512636848	1	main_slash	11	main_slash	81	stimuli_target_diamondcircles.svg	stimuli_distractor_diamondtriangles.svg	23	yes	53	1	809
6.6.1	win	2023-01-01	16:09:44	16:19:03	556905	610056c4a96ee61f6c0136da	512636848	1	main_slash	11	advance_on_keypress_SLASH	82	stimuli_target_diamondcircles.svg	stimuli_distractor_diamondtriangles.svg	23	yes	57	0	101
6.6.1	win	2023-01-01	16:09:44	16:19:04	558419	610056c4a96ee61f6c0136da	512636848	1	main_slash	11	main_slash	83	stimuli_distractor_diamondtriangles.svg	stimuli_target_trianglesquares.svg	30	yes	53	1	773
6.6.1	win	2023-01-01	16:09:44	16:19:04	558419	610056c4a96ee61f6c0136da	512636848	1	main_slash	11	advance_on_keypress_SLASH	84	stimuli_distractor_diamondtriangles.svg	stimuli_target_trianglesquares.svg	30	yes	57	0	85
6.6.1	win	2023-01-01	16:09:44	16:19:06	559875	610056c4a96ee61f6c0136da	512636848	1	main_slash	11	main_slash	85	stimuli_target_circletriangles.svg	stimuli_distractor_diamondtriangles.svg	5	yes	53	1	728
6.6.1	win	2023-01-01	16:09:44	16:19:06	559875	610056c4a96ee61f6c0136da	512636848	1	main_slash	11	advance_on_keypress_SLASH	86	stimuli_target_circletriangles.svg	stimuli_distractor_diamondtriangles.svg	5	yes	57	0	70
6.6.1	win	2023-01-01	16:09:44	16:19:07	561352	610056c4a96ee61f6c0136da	512636848	1	main_slash	11	main_slash	87	stimuli_target_circlediamonds.svg	stimuli_distractor_trianglediamonds.svg	2	yes	53	1	771
6.6.1	win	2023-01-01	16:09:44	16:19:07	561352	610056c4a96ee61f6c0136da	512636848	1	main_slash	11	advance_on_keypress_SLASH	88	stimuli_target_circlediamonds.svg	stimuli_distractor_trianglediamonds.svg	2	yes	57	0	65
6.6.1	win	2023-01-01	16:09:44	16:19:10	564065	610056c4a96ee61f6c0136da	512636848	1	main_slash	11	main_slash	89	stimuli_distractor_trianglediamonds.svg	stimuli_distractor_trianglediamonds.svg	34	no	0	1	2000
6.6.1	win	2023-01-01	16:09:44	16:19:10	564065	610056c4a96ee61f6c0136da	512636848	1	main_slash	11	advance_on_keypress_SLASH	90	stimuli_distractor_trianglediamonds.svg	stimuli_distractor_trianglediamonds.svg	34	no	57	0	380
6.6.1	win	2023-01-01	16:09:44	16:19:12	565780	610056c4a96ee61f6c0136da	512636848	1	main_slash	11	main_slash	91	stimuli_target_trianglesquares.svg	stimuli_distractor_trianglediamonds.svg	18	yes	53	1	699
6.6.1	win	2023-01-01	16:09:44	16:19:12	565780	610056c4a96ee61f6c0136da	512636848	1	main_slash	11	advance_on_keypress_SLASH	92	stimuli_target_trianglesquares.svg	stimuli_distractor_trianglediamonds.svg	18	yes	57	0	98
6.6.1	win	2023-01-01	16:09:44	16:19:13	567313	610056c4a96ee61f6c0136da	512636848	1	main_slash	11	main_slash	93	stimuli_target_trianglecircles.svg	stimuli_distractor_trianglediamonds.svg	17	yes	53	1	780
6.6.1	win	2023-01-01	16:09:44	16:19:13	567313	610056c4a96ee61f6c0136da	512636848	1	main_slash	11	advance_on_keypress_SLASH	94	stimuli_target_trianglecircles.svg	stimuli_distractor_trianglediamonds.svg	17	yes	57	0	53
6.6.1	win	2023-01-01	16:09:44	16:19:15	568756	610056c4a96ee61f6c0136da	512636848	1	main_slash	11	main_slash	95	stimuli_distractor_trianglediamonds.svg	stimuli_target_diamondsquares.svg	28	yes	53	1	740
6.6.1	win	2023-01-01	16:09:44	16:19:15	568756	610056c4a96ee61f6c0136da	512636848	1	main_slash	11	advance_on_keypress_SLASH	96	stimuli_distractor_trianglediamonds.svg	stimuli_target_diamondsquares.svg	28	yes	57	0	46
6.6.1	win	2023-01-01	16:09:44	16:19:16	570327	610056c4a96ee61f6c0136da	512636848	1	main_slash	11	main_slash	97	stimuli_target_diamondcircles.svg	stimuli_distractor_trianglediamonds.svg	19	yes	53	1	876
6.6.1	win	2023-01-01	16:09:44	16:19:16	570327	610056c4a96ee61f6c0136da	512636848	1	main_slash	11	advance_on_keypress_SLASH	98	stimuli_target_diamondcircles.svg	stimuli_distractor_trianglediamonds.svg	19	yes	57	0	75
6.6.1	win	2023-01-01	16:09:44	16:19:18	571805	610056c4a96ee61f6c0136da	512636848	1	main_slash	11	main_slash	99	stimuli_target_diamondsquares.svg	stimuli_distractor_diamondtriangles.svg	24	yes	53	1	770
6.6.1	win	2023-01-01	16:09:44	16:19:18	571805	610056c4a96ee61f6c0136da	512636848	1	main_slash	11	advance_on_keypress_SLASH	100	stimuli_target_diamondsquares.svg	stimuli_distractor_diamondtriangles.svg	24	yes	57	0	53
6.6.1	win	2023-01-01	16:09:44	16:19:19	573358	610056c4a96ee61f6c0136da	512636848	1	main_slash	11	main_slash	101	stimuli_distractor_diamondtriangles.svg	stimuli_target_diamondsquares.svg	32	yes	53	1	857
6.6.1	win	2023-01-01	16:09:44	16:19:19	573358	610056c4a96ee61f6c0136da	512636848	1	main_slash	11	advance_on_keypress_SLASH	102	stimuli_distractor_diamondtriangles.svg	stimuli_target_diamondsquares.svg	32	yes	57	0	56
6.6.1	win	2023-01-01	16:09:44	16:19:21	575289	610056c4a96ee61f6c0136da	512636848	1	main_slash	11	main_slash	103	stimuli_target_squaretriangles.svg	stimuli_distractor_trianglediamonds.svg	3	yes	53	1	1235
6.6.1	win	2023-01-01	16:09:44	16:19:21	575289	610056c4a96ee61f6c0136da	512636848	1	main_slash	11	advance_on_keypress_SLASH	104	stimuli_target_squaretriangles.svg	stimuli_distractor_trianglediamonds.svg	3	yes	57	0	90
6.6.1	win	2023-01-01	16:09:44	16:19:24	578020	610056c4a96ee61f6c0136da	512636848	1	main_slash	11	main_slash	105	stimuli_distractor_diamondtriangles.svg	stimuli_distractor_diamondtriangles.svg	40	no	0	1	2000
6.6.1	win	2023-01-01	16:09:44	16:19:24	578020	610056c4a96ee61f6c0136da	512636848	1	main_slash	11	advance_on_keypress_SLASH	106	stimuli_distractor_diamondtriangles.svg	stimuli_distractor_diamondtriangles.svg	40	no	57	0	383
6.6.1	win	2023-01-01	16:09:44	16:19:26	579784	610056c4a96ee61f6c0136da	512636848	1	main_slash	11	main_slash	107	stimuli_target_circlediamonds.svg	stimuli_distractor_diamondtriangles.svg	6	yes	53	1	730
6.6.1	win	2023-01-01	16:09:44	16:19:26	579784	610056c4a96ee61f6c0136da	512636848	1	main_slash	11	advance_on_keypress_SLASH	108	stimuli_target_circlediamonds.svg	stimuli_distractor_diamondtriangles.svg	6	yes	57	0	106
6.6.1	win	2023-01-01	16:09:44	16:19:27	581554	610056c4a96ee61f6c0136da	512636848	1	main_slash	11	main_slash	109	stimuli_distractor_diamondtriangles.svg	stimuli_target_trianglecircles.svg	29	yes	53	1	1032
6.6.1	win	2023-01-01	16:09:44	16:19:27	581554	610056c4a96ee61f6c0136da	512636848	1	main_slash	11	advance_on_keypress_SLASH	110	stimuli_distractor_diamondtriangles.svg	stimuli_target_trianglecircles.svg	29	yes	57	0	1305
6.6.1	win	2023-01-01	16:09:44	16:19:31	585506	610056c4a96ee61f6c0136da	512636848	1	main_slash	11	main_slash	111	stimuli_distractor_diamondtriangles.svg	stimuli_distractor_trianglediamonds.svg	38	no	0	1	2000
6.6.1	win	2023-01-01	16:09:44	16:19:31	585506	610056c4a96ee61f6c0136da	512636848	1	main_slash	11	advance_on_keypress_SLASH	112	stimuli_distractor_diamondtriangles.svg	stimuli_distractor_trianglediamonds.svg	38	no	57	0	329
6.6.1	win	2023-01-01	16:09:44	16:19:33	587138	610056c4a96ee61f6c0136da	512636848	1	main_slash	11	main_slash	113	stimuli_distractor_trianglediamonds.svg	stimuli_target_squarediamonds.svg	12	yes	53	1	664
6.6.1	win	2023-01-01	16:09:44	16:19:33	587138	610056c4a96ee61f6c0136da	512636848	1	main_slash	11	advance_on_keypress_SLASH	114	stimuli_distractor_trianglediamonds.svg	stimuli_target_squarediamonds.svg	12	yes	57	0	89
6.6.1	win	2023-01-01	16:09:44	16:19:35	588767	610056c4a96ee61f6c0136da	512636848	1	main_slash	11	main_slash	115	stimuli_distractor_trianglediamonds.svg	stimuli_distractor_diamondtriangles.svg	36	no	53	0	893
6.6.1	win	2023-01-01	16:09:44	16:19:35	588767	610056c4a96ee61f6c0136da	512636848	1	main_slash	11	advance_on_keypress_SLASH	116	stimuli_distractor_trianglediamonds.svg	stimuli_distractor_diamondtriangles.svg	36	no	57	0	107
6.6.1	win	2023-01-01	16:09:44	16:19:36	590301	610056c4a96ee61f6c0136da	512636848	1	main_slash	11	main_slash	117	stimuli_distractor_diamondtriangles.svg	stimuli_target_squaretriangles.svg	15	yes	53	1	793
6.6.1	win	2023-01-01	16:09:44	16:19:36	590301	610056c4a96ee61f6c0136da	512636848	1	main_slash	11	advance_on_keypress_SLASH	118	stimuli_distractor_diamondtriangles.svg	stimuli_target_squaretriangles.svg	15	yes	57	0	113
6.6.1	win	2023-01-01	16:09:44	16:19:38	591851	610056c4a96ee61f6c0136da	512636848	1	main_slash	11	main_slash	119	stimuli_distractor_diamondtriangles.svg	stimuli_target_diamondcircles.svg	31	yes	53	1	793
6.6.1	win	2023-01-01	16:09:44	16:19:38	591851	610056c4a96ee61f6c0136da	512636848	1	main_slash	11	advance_on_keypress_SLASH	120	stimuli_distractor_diamondtriangles.svg	stimuli_target_diamondcircles.svg	31	yes	57	0	109
6.6.1	win	2023-01-01	16:09:44	16:19:39	593309	610056c4a96ee61f6c0136da	512636848	1	main_slash	11	main_slash	121	stimuli_distractor_trianglediamonds.svg	stimuli_target_trianglesquares.svg	26	yes	53	1	717
6.6.1	win	2023-01-01	16:09:44	16:19:39	593309	610056c4a96ee61f6c0136da	512636848	1	main_slash	11	advance_on_keypress_SLASH	122	stimuli_distractor_trianglediamonds.svg	stimuli_target_trianglesquares.svg	26	yes	57	0	106
6.6.1	win	2023-01-01	16:09:44	16:19:41	594735	610056c4a96ee61f6c0136da	512636848	1	main_slash	11	main_slash	123	stimuli_distractor_trianglediamonds.svg	stimuli_target_diamondcircles.svg	27	yes	53	1	676
6.6.1	win	2023-01-01	16:09:44	16:19:41	594735	610056c4a96ee61f6c0136da	512636848	1	main_slash	11	advance_on_keypress_SLASH	124	stimuli_distractor_trianglediamonds.svg	stimuli_target_diamondcircles.svg	27	yes	57	0	128
6.6.1	win	2023-01-01	16:09:44	16:19:42	596190	610056c4a96ee61f6c0136da	512636848	1	main_slash	11	main_slash	125	stimuli_target_circletriangles.svg	stimuli_distractor_trianglediamonds.svg	1	yes	53	1	696
6.6.1	win	2023-01-01	16:09:44	16:19:42	596190	610056c4a96ee61f6c0136da	512636848	1	main_slash	11	advance_on_keypress_SLASH	126	stimuli_target_circletriangles.svg	stimuli_distractor_trianglediamonds.svg	1	yes	57	0	92
6.6.1	win	2023-01-01	16:09:44	16:19:45	598911	610056c4a96ee61f6c0136da	512636848	1	main_slash	11	main_slash	127	stimuli_target_diamondsquares.svg	stimuli_distractor_trianglediamonds.svg	20	yes	0	0	2000
6.6.1	win	2023-01-01	16:09:44	16:19:45	598911	610056c4a96ee61f6c0136da	512636848	1	main_slash	11	advance_on_keypress_SLASH	128	stimuli_target_diamondsquares.svg	stimuli_distractor_trianglediamonds.svg	20	yes	57	0	500
6.6.1	win	2023-01-01	16:09:44	16:19:47	600807	610056c4a96ee61f6c0136da	512636848	1	main_slash	11	main_slash	129	stimuli_distractor_diamondtriangles.svg	stimuli_target_circlediamonds.svg	14	yes	53	1	746
6.6.1	win	2023-01-01	16:09:44	16:19:47	600807	610056c4a96ee61f6c0136da	512636848	1	main_slash	11	advance_on_keypress_SLASH	130	stimuli_distractor_diamondtriangles.svg	stimuli_target_circlediamonds.svg	14	yes	57	0	72
6.6.1	win	2023-01-01	16:09:44	16:19:48	602538	610056c4a96ee61f6c0136da	512636848	1	main_slash	11	main_slash	131	stimuli_target_squarediamonds.svg	stimuli_distractor_trianglediamonds.svg	4	yes	53	1	1026
6.6.1	win	2023-01-01	16:09:44	16:19:48	602538	610056c4a96ee61f6c0136da	512636848	1	main_slash	11	advance_on_keypress_SLASH	132	stimuli_target_squarediamonds.svg	stimuli_distractor_trianglediamonds.svg	4	yes	57	0	5
6.6.1	win	2023-01-01	16:09:44	16:19:50	604069	610056c4a96ee61f6c0136da	512636848	1	main_slash	11	main_slash	133	stimuli_distractor_diamondtriangles.svg	stimuli_distractor_trianglediamonds.svg	37	no	53	0	872
6.6.1	win	2023-01-01	16:09:44	16:19:50	604069	610056c4a96ee61f6c0136da	512636848	1	main_slash	11	advance_on_keypress_SLASH	134	stimuli_distractor_diamondtriangles.svg	stimuli_distractor_trianglediamonds.svg	37	no	57	0	41
6.6.1	win	2023-01-01	16:09:44	16:19:51	605419	610056c4a96ee61f6c0136da	512636848	1	main_slash	11	main_slash	135	stimuli_distractor_trianglediamonds.svg	stimuli_target_squaretriangles.svg	11	yes	53	1	671
6.6.1	win	2023-01-01	16:09:44	16:19:51	605419	610056c4a96ee61f6c0136da	512636848	1	main_slash	11	advance_on_keypress_SLASH	136	stimuli_distractor_trianglediamonds.svg	stimuli_target_squaretriangles.svg	11	yes	57	0	97
6.6.1	win	2023-01-01	16:09:44	16:19:53	606909	610056c4a96ee61f6c0136da	512636848	1	main_slash	11	main_slash	137	stimuli_distractor_diamondtriangles.svg	stimuli_target_squarediamonds.svg	16	yes	53	1	744
6.6.1	win	2023-01-01	16:09:44	16:19:53	606909	610056c4a96ee61f6c0136da	512636848	1	main_slash	11	advance_on_keypress_SLASH	138	stimuli_distractor_diamondtriangles.svg	stimuli_target_squarediamonds.svg	16	yes	57	0	93
6.6.1	win	2023-01-01	16:09:44	16:19:54	608499	610056c4a96ee61f6c0136da	512636848	1	main_slash	11	main_slash	139	stimuli_distractor_trianglediamonds.svg	stimuli_target_circlediamonds.svg	10	yes	53	1	867
6.6.1	win	2023-01-01	16:09:44	16:19:54	608499	610056c4a96ee61f6c0136da	512636848	1	main_slash	11	advance_on_keypress_SLASH	140	stimuli_distractor_trianglediamonds.svg	stimuli_target_circlediamonds.svg	10	yes	57	0	88
6.6.1	win	2023-01-01	16:09:44	16:19:56	609974	610056c4a96ee61f6c0136da	512636848	1	main_slash	11	main_slash	141	stimuli_target_trianglecircles.svg	stimuli_distractor_diamondtriangles.svg	21	yes	53	1	741
6.6.1	win	2023-01-01	16:09:44	16:19:56	609974	610056c4a96ee61f6c0136da	512636848	1	main_slash	11	advance_on_keypress_SLASH	142	stimuli_target_trianglecircles.svg	stimuli_distractor_diamondtriangles.svg	21	yes	57	0	91
6.6.1	win	2023-01-01	16:09:44	16:19:57	611522	610056c4a96ee61f6c0136da	512636848	1	main_slash	11	main_slash	143	stimuli_distractor_trianglediamonds.svg	stimuli_target_trianglecircles.svg	25	yes	53	1	823
6.6.1	win	2023-01-01	16:09:44	16:19:57	611522	610056c4a96ee61f6c0136da	512636848	1	main_slash	11	advance_on_keypress_SLASH	144	stimuli_distractor_trianglediamonds.svg	stimuli_target_trianglecircles.svg	25	yes	57	0	71
6.6.1	win	2023-01-01	16:09:44	16:20:00	614234	610056c4a96ee61f6c0136da	512636848	1	main_slash	11	main_slash	145	stimuli_distractor_diamondtriangles.svg	stimuli_distractor_diamondtriangles.svg	39	no	0	1	2000
6.6.1	win	2023-01-01	16:09:44	16:20:00	614234	610056c4a96ee61f6c0136da	512636848	1	main_slash	11	advance_on_keypress_SLASH	146	stimuli_distractor_diamondtriangles.svg	stimuli_distractor_diamondtriangles.svg	39	no	57	0	635
6.6.1	win	2023-01-01	16:09:44	16:20:02	616201	610056c4a96ee61f6c0136da	512636848	1	main_slash	11	main_slash	147	stimuli_target_squaretriangles.svg	stimuli_distractor_diamondtriangles.svg	7	yes	53	1	684
6.6.1	win	2023-01-01	16:09:44	16:20:02	616201	610056c4a96ee61f6c0136da	512636848	1	main_slash	11	advance_on_keypress_SLASH	148	stimuli_target_squaretriangles.svg	stimuli_distractor_diamondtriangles.svg	7	yes	57	0	98
6.6.1	win	2023-01-01	16:09:44	16:20:04	617684	610056c4a96ee61f6c0136da	512636848	1	main_slash	11	main_slash	149	stimuli_target_squarediamonds.svg	stimuli_distractor_diamondtriangles.svg	8	yes	53	1	733
6.6.1	win	2023-01-01	16:09:44	16:20:04	617684	610056c4a96ee61f6c0136da	512636848	1	main_slash	11	advance_on_keypress_SLASH	150	stimuli_target_squarediamonds.svg	stimuli_distractor_diamondtriangles.svg	8	yes	57	0	87
6.6.1	win	2023-01-01	16:09:44	16:20:05	619091	610056c4a96ee61f6c0136da	512636848	1	main_slash	11	main_slash	151	stimuli_distractor_trianglediamonds.svg	stimuli_target_circletriangles.svg	9	yes	53	1	672
6.6.1	win	2023-01-01	16:09:44	16:20:05	619091	610056c4a96ee61f6c0136da	512636848	1	main_slash	11	advance_on_keypress_SLASH	152	stimuli_distractor_trianglediamonds.svg	stimuli_target_circletriangles.svg	9	yes	57	0	110
6.6.1	win	2023-01-01	16:09:44	16:20:08	621837	610056c4a96ee61f6c0136da	512636848	1	main_slash	11	main_slash	153	stimuli_distractor_trianglediamonds.svg	stimuli_distractor_trianglediamonds.svg	33	no	0	1	2000
6.6.1	win	2023-01-01	16:09:44	16:20:08	621837	610056c4a96ee61f6c0136da	512636848	1	main_slash	11	advance_on_keypress_SLASH	154	stimuli_distractor_trianglediamonds.svg	stimuli_distractor_trianglediamonds.svg	33	no	57	0	507
6.6.1	win	2023-01-01	16:09:44	16:20:10	623870	610056c4a96ee61f6c0136da	512636848	1	main_slash	11	main_slash	155	stimuli_distractor_trianglediamonds.svg	stimuli_distractor_diamondtriangles.svg	35	no	53	0	883
6.6.1	win	2023-01-01	16:09:44	16:20:10	623870	610056c4a96ee61f6c0136da	512636848	1	main_slash	11	advance_on_keypress_SLASH	156	stimuli_distractor_trianglediamonds.svg	stimuli_distractor_diamondtriangles.svg	35	no	57	0	78
6.6.1	win	2023-01-01	16:09:44	16:20:11	625400	610056c4a96ee61f6c0136da	512636848	1	main_slash	11	main_slash	157	stimuli_distractor_diamondtriangles.svg	stimuli_target_circletriangles.svg	13	yes	53	1	811
6.6.1	win	2023-01-01	16:09:44	16:20:11	625400	610056c4a96ee61f6c0136da	512636848	1	main_slash	11	advance_on_keypress_SLASH	158	stimuli_distractor_diamondtriangles.svg	stimuli_target_circletriangles.svg	13	yes	57	0	100
6.6.1	win	2023-01-01	16:09:44	16:20:14	628139	610056c4a96ee61f6c0136da	512636848	1	main_slash	11	main_slash	159	stimuli_target_trianglesquares.svg	stimuli_distractor_diamondtriangles.svg	22	yes	0	0	2000
6.6.1	win	2023-01-01	16:09:44	16:20:14	628139	610056c4a96ee61f6c0136da	512636848	1	main_slash	11	advance_on_keypress_SLASH	160	stimuli_target_trianglesquares.svg	stimuli_distractor_diamondtriangles.svg	22	yes	57	0	428