build	computer.platform	date	time	timestamp	time_elapsed_ms	subject	group	session	blockcode	blocknum	trialcode	trialnum	stimulus_left	stimulus_right	stim_index	target_present	response	correct	latency
6.6.1	win	2022-12-14	14:08:09	14:10:23	132714	6369dd3bd6a643dc7b42ce62	254539631	1	practice_slash	5	practice_slash	1	stimuli_distractor_trianglediamonds.svg	stimuli_distractor_diamondtriangles.svg	16	no	0	1	2003
6.6.1	win	2022-12-14	14:08:09	14:10:23	132714	6369dd3bd6a643dc7b42ce62	254539631	1	practice_slash	5	advance_on_keypress_SLASH	2	stimuli_distractor_trianglediamonds.svg	stimuli_distractor_diamondtriangles.svg	16	no	57	0	1472
6.6.1	win	2022-12-14	14:08:09	14:10:26	136444	6369dd3bd6a643dc7b42ce62	254539631	1	practice_slash	5	practice_slash	3	stimuli_distractor_trianglediamonds.svg	stimuli_target_squarediamonds.svg	11	yes	53	1	633
6.6.1	win	2022-12-14	14:08:09	14:10:26	136444	6369dd3bd6a643dc7b42ce62	254539631	1	practice_slash	5	advance_on_keypress_SLASH	4	stimuli_distractor_trianglediamonds.svg	stimuli_target_squarediamonds.svg	11	yes	57	0	897
6.6.1	win	2022-12-14	14:08:09	14:10:30	139677	6369dd3bd6a643dc7b42ce62	254539631	1	practice_slash	5	practice_slash	5	stimuli_distractor_trianglediamonds.svg	stimuli_target_circlediamonds.svg	10	yes	53	1	676
6.6.1	win	2022-12-14	14:08:09	14:10:30	139677	6369dd3bd6a643dc7b42ce62	254539631	1	practice_slash	5	advance_on_keypress_SLASH	6	stimuli_distractor_trianglediamonds.svg	stimuli_target_circlediamonds.svg	10	yes	57	0	893
6.6.1	win	2022-12-14	14:08:09	14:10:34	144220	6369dd3bd6a643dc7b42ce62	254539631	1	practice_slash	5	practice_slash	7	stimuli_distractor_diamondtriangles.svg	stimuli_distractor_diamondtriangles.svg	13	no	0	1	2003
6.6.1	win	2022-12-14	14:08:09	14:10:34	144220	6369dd3bd6a643dc7b42ce62	254539631	1	practice_slash	5	advance_on_keypress_SLASH	8	stimuli_distractor_diamondtriangles.svg	stimuli_distractor_diamondtriangles.svg	13	no	57	0	730
6.6.1	win	2022-12-14	14:08:09	14:10:37	147359	6369dd3bd6a643dc7b42ce62	254539631	1	practice_slash	5	practice_slash	9	stimuli_target_squarediamonds.svg	stimuli_distractor_trianglediamonds.svg	5	yes	53	1	750
6.6.1	win	2022-12-14	14:08:09	14:10:37	147359	6369dd3bd6a643dc7b42ce62	254539631	1	practice_slash	5	advance_on_keypress_SLASH	10	stimuli_target_squarediamonds.svg	stimuli_distractor_trianglediamonds.svg	5	yes	57	0	653
6.6.1	win	2022-12-14	14:08:09	14:10:40	150628	6369dd3bd6a643dc7b42ce62	254539631	1	practice_slash	5	practice_slash	11	stimuli_distractor_diamondtriangles.svg	stimuli_target_circletriangles.svg	7	yes	53	1	970
6.6.1	win	2022-12-14	14:08:09	14:10:40	150628	6369dd3bd6a643dc7b42ce62	254539631	1	practice_slash	5	advance_on_keypress_SLASH	12	stimuli_distractor_diamondtriangles.svg	stimuli_target_circletriangles.svg	7	yes	57	0	588
6.6.1	win	2022-12-14	14:08:09	14:10:44	153713	6369dd3bd6a643dc7b42ce62	254539631	1	practice_slash	5	practice_slash	13	stimuli_distractor_trianglediamonds.svg	stimuli_target_diamondcircles.svg	12	yes	53	1	849
6.6.1	win	2022-12-14	14:08:09	14:10:44	153713	6369dd3bd6a643dc7b42ce62	254539631	1	practice_slash	5	advance_on_keypress_SLASH	14	stimuli_distractor_trianglediamonds.svg	stimuli_target_diamondcircles.svg	12	yes	57	0	352
6.6.1	win	2022-12-14	14:08:09	14:10:48	157730	6369dd3bd6a643dc7b42ce62	254539631	1	practice_slash	5	practice_slash	15	stimuli_distractor_diamondtriangles.svg	stimuli_target_trianglecircles.svg	9	yes	0	0	2003
6.6.1	win	2022-12-14	14:08:09	14:10:48	157730	6369dd3bd6a643dc7b42ce62	254539631	1	practice_slash	5	advance_on_keypress_SLASH	16	stimuli_distractor_diamondtriangles.svg	stimuli_target_trianglecircles.svg	9	yes	57	0	466
6.6.1	win	2022-12-14	14:08:09	14:10:51	160897	6369dd3bd6a643dc7b42ce62	254539631	1	practice_slash	5	practice_slash	17	stimuli_distractor_diamondtriangles.svg	stimuli_target_diamondcircles.svg	8	yes	53	1	1057
6.6.1	win	2022-12-14	14:08:09	14:10:51	160897	6369dd3bd6a643dc7b42ce62	254539631	1	practice_slash	5	advance_on_keypress_SLASH	18	stimuli_distractor_diamondtriangles.svg	stimuli_target_diamondcircles.svg	8	yes	57	0	376
6.6.1	win	2022-12-14	14:08:09	14:10:55	164921	6369dd3bd6a643dc7b42ce62	254539631	1	practice_slash	5	practice_slash	19	stimuli_distractor_diamondtriangles.svg	stimuli_distractor_trianglediamonds.svg	14	no	0	1	2003
6.6.1	win	2022-12-14	14:08:09	14:10:55	164921	6369dd3bd6a643dc7b42ce62	254539631	1	practice_slash	5	advance_on_keypress_SLASH	20	stimuli_distractor_diamondtriangles.svg	stimuli_distractor_trianglediamonds.svg	14	no	57	0	463
6.6.1	win	2022-12-14	14:08:09	14:10:58	168491	6369dd3bd6a643dc7b42ce62	254539631	1	practice_slash	5	practice_slash	21	stimuli_target_squarediamonds.svg	stimuli_distractor_diamondtriangles.svg	2	yes	53	1	1481
6.6.1	win	2022-12-14	14:08:09	14:10:58	168491	6369dd3bd6a643dc7b42ce62	254539631	1	practice_slash	5	advance_on_keypress_SLASH	22	stimuli_target_squarediamonds.svg	stimuli_distractor_diamondtriangles.svg	2	yes	57	0	684
6.6.1	win	2022-12-14	14:08:09	14:11:02	171839	6369dd3bd6a643dc7b42ce62	254539631	1	practice_slash	5	practice_slash	23	stimuli_target_diamondsquares.svg	stimuli_distractor_diamondtriangles.svg	3	yes	53	1	1038
6.6.1	win	2022-12-14	14:08:09	14:11:02	171839	6369dd3bd6a643dc7b42ce62	254539631	1	practice_slash	5	advance_on_keypress_SLASH	24	stimuli_target_diamondsquares.svg	stimuli_distractor_diamondtriangles.svg	3	yes	57	0	579
6.6.1	win	2022-12-14	14:08:09	14:11:05	175198	6369dd3bd6a643dc7b42ce62	254539631	1	practice_slash	5	practice_slash	25	stimuli_target_circlediamonds.svg	stimuli_distractor_diamondtriangles.svg	1	yes	53	1	1134
6.6.1	win	2022-12-14	14:08:09	14:11:05	175198	6369dd3bd6a643dc7b42ce62	254539631	1	practice_slash	5	advance_on_keypress_SLASH	26	stimuli_target_circlediamonds.svg	stimuli_distractor_diamondtriangles.svg	1	yes	57	0	373
6.6.1	win	2022-12-14	14:08:09	14:11:09	179211	6369dd3bd6a643dc7b42ce62	254539631	1	practice_slash	5	practice_slash	27	stimuli_target_diamondsquares.svg	stimuli_distractor_trianglediamonds.svg	6	yes	0	0	2003
6.6.1	win	2022-12-14	14:08:09	14:11:09	179211	6369dd3bd6a643dc7b42ce62	254539631	1	practice_slash	5	advance_on_keypress_SLASH	28	stimuli_target_diamondsquares.svg	stimuli_distractor_trianglediamonds.svg	6	yes	57	0	309
6.6.1	win	2022-12-14	14:08:09	14:11:12	182443	6369dd3bd6a643dc7b42ce62	254539631	1	practice_slash	5	practice_slash	29	stimuli_distractor_trianglediamonds.svg	stimuli_distractor_trianglediamonds.svg	15	no	53	0	1280
6.6.1	win	2022-12-14	14:08:09	14:11:12	182443	6369dd3bd6a643dc7b42ce62	254539631	1	practice_slash	5	advance_on_keypress_SLASH	30	stimuli_distractor_trianglediamonds.svg	stimuli_distractor_trianglediamonds.svg	15	no	57	0	450
6.6.1	win	2022-12-14	14:08:09	14:11:15	185536	6369dd3bd6a643dc7b42ce62	254539631	1	practice_slash	5	practice_slash	31	stimuli_target_circlediamonds.svg	stimuli_distractor_trianglediamonds.svg	4	yes	53	1	994
6.6.1	win	2022-12-14	14:08:09	14:11:15	185536	6369dd3bd6a643dc7b42ce62	254539631	1	practice_slash	5	advance_on_keypress_SLASH	32	stimuli_target_circlediamonds.svg	stimuli_distractor_trianglediamonds.svg	4	yes	57	0	565
6.6.1	win	2022-12-14	14:08:09	14:11:22	191760	6369dd3bd6a643dc7b42ce62	254539631	1	main_slash	7	main_slash	1	stimuli_distractor_diamondtriangles.svg	stimuli_target_squaretriangles.svg	15	yes	53	1	756
6.6.1	win	2022-12-14	14:08:09	14:11:22	191760	6369dd3bd6a643dc7b42ce62	254539631	1	main_slash	7	advance_on_keypress_SLASH	2	stimuli_distractor_diamondtriangles.svg	stimuli_target_squaretriangles.svg	15	yes	57	0	747
6.6.1	win	2022-12-14	14:08:09	14:11:24	194177	6369dd3bd6a643dc7b42ce62	254539631	1	main_slash	7	main_slash	3	stimuli_distractor_diamondtriangles.svg	stimuli_target_trianglecircles.svg	29	yes	53	1	1034
6.6.1	win	2022-12-14	14:08:09	14:11:24	194177	6369dd3bd6a643dc7b42ce62	254539631	1	main_slash	7	advance_on_keypress_SLASH	4	stimuli_distractor_diamondtriangles.svg	stimuli_target_trianglecircles.svg	29	yes	57	0	770
6.6.1	win	2022-12-14	14:08:09	14:11:26	196555	6369dd3bd6a643dc7b42ce62	254539631	1	main_slash	7	main_slash	5	stimuli_target_diamondcircles.svg	stimuli_distractor_trianglediamonds.svg	19	yes	53	1	982
6.6.1	win	2022-12-14	14:08:09	14:11:26	196555	6369dd3bd6a643dc7b42ce62	254539631	1	main_slash	7	advance_on_keypress_SLASH	6	stimuli_target_diamondcircles.svg	stimuli_distractor_trianglediamonds.svg	19	yes	57	0	719
6.6.1	win	2022-12-14	14:08:09	14:11:30	199901	6369dd3bd6a643dc7b42ce62	254539631	1	main_slash	7	main_slash	7	stimuli_distractor_diamondtriangles.svg	stimuli_distractor_trianglediamonds.svg	37	no	0	1	2003
6.6.1	win	2022-12-14	14:08:09	14:11:30	199901	6369dd3bd6a643dc7b42ce62	254539631	1	main_slash	7	advance_on_keypress_SLASH	8	stimuli_distractor_diamondtriangles.svg	stimuli_distractor_trianglediamonds.svg	37	no	57	0	591
6.6.1	win	2022-12-14	14:08:09	14:11:33	203134	6369dd3bd6a643dc7b42ce62	254539631	1	main_slash	7	main_slash	9	stimuli_distractor_diamondtriangles.svg	stimuli_distractor_diamondtriangles.svg	40	no	0	1	2003
6.6.1	win	2022-12-14	14:08:09	14:11:33	203134	6369dd3bd6a643dc7b42ce62	254539631	1	main_slash	7	advance_on_keypress_SLASH	10	stimuli_distractor_diamondtriangles.svg	stimuli_distractor_diamondtriangles.svg	40	no	57	0	416
6.6.1	win	2022-12-14	14:08:09	14:11:35	205000	6369dd3bd6a643dc7b42ce62	254539631	1	main_slash	7	main_slash	11	stimuli_distractor_trianglediamonds.svg	stimuli_target_trianglesquares.svg	26	yes	53	1	819
6.6.1	win	2022-12-14	14:08:09	14:11:35	205000	6369dd3bd6a643dc7b42ce62	254539631	1	main_slash	7	advance_on_keypress_SLASH	12	stimuli_distractor_trianglediamonds.svg	stimuli_target_trianglesquares.svg	26	yes	57	0	1732
6.6.1	win	2022-12-14	14:08:09	14:11:38	208540	6369dd3bd6a643dc7b42ce62	254539631	1	main_slash	7	main_slash	13	stimuli_distractor_trianglediamonds.svg	stimuli_distractor_diamondtriangles.svg	36	no	53	0	1188
6.6.1	win	2022-12-14	14:08:09	14:11:38	208540	6369dd3bd6a643dc7b42ce62	254539631	1	main_slash	7	advance_on_keypress_SLASH	14	stimuli_distractor_trianglediamonds.svg	stimuli_distractor_diamondtriangles.svg	36	no	57	0	666
6.6.1	win	2022-12-14	14:08:09	14:11:40	210658	6369dd3bd6a643dc7b42ce62	254539631	1	main_slash	7	main_slash	15	stimuli_target_trianglesquares.svg	stimuli_distractor_trianglediamonds.svg	18	yes	53	1	824
6.6.1	win	2022-12-14	14:08:09	14:11:40	210658	6369dd3bd6a643dc7b42ce62	254539631	1	main_slash	7	advance_on_keypress_SLASH	16	stimuli_target_trianglesquares.svg	stimuli_distractor_trianglediamonds.svg	18	yes	57	0	595
6.6.1	win	2022-12-14	14:08:09	14:11:43	212860	6369dd3bd6a643dc7b42ce62	254539631	1	main_slash	7	main_slash	17	stimuli_distractor_trianglediamonds.svg	stimuli_target_diamondcircles.svg	27	yes	53	1	982
6.6.1	win	2022-12-14	14:08:09	14:11:43	212860	6369dd3bd6a643dc7b42ce62	254539631	1	main_slash	7	advance_on_keypress_SLASH	18	stimuli_distractor_trianglediamonds.svg	stimuli_target_diamondcircles.svg	27	yes	57	0	554
6.6.1	win	2022-12-14	14:08:09	14:11:45	215106	6369dd3bd6a643dc7b42ce62	254539631	1	main_slash	7	main_slash	19	stimuli_distractor_trianglediamonds.svg	stimuli_target_diamondsquares.svg	28	yes	53	1	1054
6.6.1	win	2022-12-14	14:08:09	14:11:45	215106	6369dd3bd6a643dc7b42ce62	254539631	1	main_slash	7	advance_on_keypress_SLASH	20	stimuli_distractor_trianglediamonds.svg	stimuli_target_diamondsquares.svg	28	yes	57	0	665
6.6.1	win	2022-12-14	14:08:09	14:11:47	217424	6369dd3bd6a643dc7b42ce62	254539631	1	main_slash	7	main_slash	21	stimuli_distractor_diamondtriangles.svg	stimuli_target_circlediamonds.svg	14	yes	53	1	1006
6.6.1	win	2022-12-14	14:08:09	14:11:47	217424	6369dd3bd6a643dc7b42ce62	254539631	1	main_slash	7	advance_on_keypress_SLASH	22	stimuli_distractor_diamondtriangles.svg	stimuli_target_circlediamonds.svg	14	yes	57	0	793
6.6.1	win	2022-12-14	14:08:09	14:11:50	219858	6369dd3bd6a643dc7b42ce62	254539631	1	main_slash	7	main_slash	23	stimuli_distractor_diamondtriangles.svg	stimuli_target_diamondsquares.svg	32	yes	53	1	999
6.6.1	win	2022-12-14	14:08:09	14:11:50	219858	6369dd3bd6a643dc7b42ce62	254539631	1	main_slash	7	advance_on_keypress_SLASH	24	stimuli_distractor_diamondtriangles.svg	stimuli_target_diamondsquares.svg	32	yes	57	0	594
6.6.1	win	2022-12-14	14:08:09	14:11:52	222164	6369dd3bd6a643dc7b42ce62	254539631	1	main_slash	7	main_slash	25	stimuli_distractor_diamondtriangles.svg	stimuli_target_trianglesquares.svg	30	yes	53	1	1082
6.6.1	win	2022-12-14	14:08:09	14:11:52	222164	6369dd3bd6a643dc7b42ce62	254539631	1	main_slash	7	advance_on_keypress_SLASH	26	stimuli_distractor_diamondtriangles.svg	stimuli_target_trianglesquares.svg	30	yes	57	0	764
6.6.1	win	2022-12-14	14:08:09	14:11:55	225554	6369dd3bd6a643dc7b42ce62	254539631	1	main_slash	7	main_slash	27	stimuli_distractor_diamondtriangles.svg	stimuli_distractor_diamondtriangles.svg	39	no	0	1	2003
6.6.1	win	2022-12-14	14:08:09	14:11:55	225554	6369dd3bd6a643dc7b42ce62	254539631	1	main_slash	7	advance_on_keypress_SLASH	28	stimuli_distractor_diamondtriangles.svg	stimuli_distractor_diamondtriangles.svg	39	no	57	0	367
6.6.1	win	2022-12-14	14:08:09	14:11:57	227184	6369dd3bd6a643dc7b42ce62	254539631	1	main_slash	7	main_slash	29	stimuli_target_circletriangles.svg	stimuli_distractor_trianglediamonds.svg	1	yes	53	1	637
6.6.1	win	2022-12-14	14:08:09	14:11:57	227184	6369dd3bd6a643dc7b42ce62	254539631	1	main_slash	7	advance_on_keypress_SLASH	30	stimuli_target_circletriangles.svg	stimuli_distractor_trianglediamonds.svg	1	yes	57	0	767
6.6.1	win	2022-12-14	14:08:09	14:11:59	229462	6369dd3bd6a643dc7b42ce62	254539631	1	main_slash	7	main_slash	31	stimuli_target_squaretriangles.svg	stimuli_distractor_trianglediamonds.svg	3	yes	53	1	888
6.6.1	win	2022-12-14	14:08:09	14:11:59	229462	6369dd3bd6a643dc7b42ce62	254539631	1	main_slash	7	advance_on_keypress_SLASH	32	stimuli_target_squaretriangles.svg	stimuli_distractor_trianglediamonds.svg	3	yes	57	0	478
6.6.1	win	2022-12-14	14:08:09	14:12:01	231478	6369dd3bd6a643dc7b42ce62	254539631	1	main_slash	7	main_slash	33	stimuli_distractor_trianglediamonds.svg	stimuli_target_circlediamonds.svg	10	yes	53	1	905
6.6.1	win	2022-12-14	14:08:09	14:12:01	231478	6369dd3bd6a643dc7b42ce62	254539631	1	main_slash	7	advance_on_keypress_SLASH	34	stimuli_distractor_trianglediamonds.svg	stimuli_target_circlediamonds.svg	10	yes	57	0	526
6.6.1	win	2022-12-14	14:08:09	14:12:03	233454	6369dd3bd6a643dc7b42ce62	254539631	1	main_slash	7	main_slash	35	stimuli_target_diamondcircles.svg	stimuli_distractor_diamondtriangles.svg	23	yes	53	1	826
6.6.1	win	2022-12-14	14:08:09	14:12:03	233454	6369dd3bd6a643dc7b42ce62	254539631	1	main_slash	7	advance_on_keypress_SLASH	36	stimuli_target_diamondcircles.svg	stimuli_distractor_diamondtriangles.svg	23	yes	57	0	1109
6.6.1	win	2022-12-14	14:08:09	14:12:07	237200	6369dd3bd6a643dc7b42ce62	254539631	1	main_slash	7	main_slash	37	stimuli_distractor_trianglediamonds.svg	stimuli_distractor_trianglediamonds.svg	33	no	0	1	2003
6.6.1	win	2022-12-14	14:08:09	14:12:07	237200	6369dd3bd6a643dc7b42ce62	254539631	1	main_slash	7	advance_on_keypress_SLASH	38	stimuli_distractor_trianglediamonds.svg	stimuli_distractor_trianglediamonds.svg	33	no	57	0	307
6.6.1	win	2022-12-14	14:08:09	14:12:09	239117	6369dd3bd6a643dc7b42ce62	254539631	1	main_slash	7	main_slash	39	stimuli_target_circletriangles.svg	stimuli_distractor_diamondtriangles.svg	5	yes	53	1	978
6.6.1	win	2022-12-14	14:08:09	14:12:09	239117	6369dd3bd6a643dc7b42ce62	254539631	1	main_slash	7	advance_on_keypress_SLASH	40	stimuli_target_circletriangles.svg	stimuli_distractor_diamondtriangles.svg	5	yes	57	0	409
6.6.1	win	2022-12-14	14:08:09	14:12:11	241209	6369dd3bd6a643dc7b42ce62	254539631	1	main_slash	7	main_slash	41	stimuli_distractor_trianglediamonds.svg	stimuli_target_squaretriangles.svg	11	yes	53	1	1021
6.6.1	win	2022-12-14	14:08:09	14:12:11	241209	6369dd3bd6a643dc7b42ce62	254539631	1	main_slash	7	advance_on_keypress_SLASH	42	stimuli_distractor_trianglediamonds.svg	stimuli_target_squaretriangles.svg	11	yes	57	0	394
6.6.1	win	2022-12-14	14:08:09	14:12:13	243356	6369dd3bd6a643dc7b42ce62	254539631	1	main_slash	7	main_slash	43	stimuli_target_squaretriangles.svg	stimuli_distractor_diamondtriangles.svg	7	yes	53	1	1118
6.6.1	win	2022-12-14	14:08:09	14:12:13	243356	6369dd3bd6a643dc7b42ce62	254539631	1	main_slash	7	advance_on_keypress_SLASH	44	stimuli_target_squaretriangles.svg	stimuli_distractor_diamondtriangles.svg	7	yes	57	0	508
6.6.1	win	2022-12-14	14:08:09	14:12:15	245418	6369dd3bd6a643dc7b42ce62	254539631	1	main_slash	7	main_slash	45	stimuli_target_squarediamonds.svg	stimuli_distractor_diamondtriangles.svg	8	yes	53	1	921
6.6.1	win	2022-12-14	14:08:09	14:12:15	245418	6369dd3bd6a643dc7b42ce62	254539631	1	main_slash	7	advance_on_keypress_SLASH	46	stimuli_target_squarediamonds.svg	stimuli_distractor_diamondtriangles.svg	8	yes	57	0	363
6.6.1	win	2022-12-14	14:08:09	14:12:17	247463	6369dd3bd6a643dc7b42ce62	254539631	1	main_slash	7	main_slash	47	stimuli_distractor_diamondtriangles.svg	stimuli_target_squarediamonds.svg	16	yes	53	1	1035
6.6.1	win	2022-12-14	14:08:09	14:12:17	247463	6369dd3bd6a643dc7b42ce62	254539631	1	main_slash	7	advance_on_keypress_SLASH	48	stimuli_distractor_diamondtriangles.svg	stimuli_target_squarediamonds.svg	16	yes	57	0	353
6.6.1	win	2022-12-14	14:08:09	14:12:19	249411	6369dd3bd6a643dc7b42ce62	254539631	1	main_slash	7	main_slash	49	stimuli_target_circlediamonds.svg	stimuli_distractor_trianglediamonds.svg	2	yes	53	1	968
6.6.1	win	2022-12-14	14:08:09	14:12:19	249411	6369dd3bd6a643dc7b42ce62	254539631	1	main_slash	7	advance_on_keypress_SLASH	50	stimuli_target_circlediamonds.svg	stimuli_distractor_trianglediamonds.svg	2	yes	57	0	563
6.6.1	win	2022-12-14	14:08:09	14:12:22	251855	6369dd3bd6a643dc7b42ce62	254539631	1	main_slash	7	main_slash	51	stimuli_target_circlediamonds.svg	stimuli_distractor_diamondtriangles.svg	6	yes	53	1	1244
6.6.1	win	2022-12-14	14:08:09	14:12:22	251855	6369dd3bd6a643dc7b42ce62	254539631	1	main_slash	7	advance_on_keypress_SLASH	52	stimuli_target_circlediamonds.svg	stimuli_distractor_diamondtriangles.svg	6	yes	57	0	479
6.6.1	win	2022-12-14	14:08:09	14:12:24	253942	6369dd3bd6a643dc7b42ce62	254539631	1	main_slash	7	main_slash	53	stimuli_distractor_diamondtriangles.svg	stimuli_target_circletriangles.svg	13	yes	53	1	990
6.6.1	win	2022-12-14	14:08:09	14:12:24	253942	6369dd3bd6a643dc7b42ce62	254539631	1	main_slash	7	advance_on_keypress_SLASH	54	stimuli_distractor_diamondtriangles.svg	stimuli_target_circletriangles.svg	13	yes	57	0	1823
6.6.1	win	2022-12-14	14:08:09	14:12:28	258403	6369dd3bd6a643dc7b42ce62	254539631	1	main_slash	7	main_slash	55	stimuli_distractor_diamondtriangles.svg	stimuli_distractor_trianglediamonds.svg	38	no	0	1	2003
6.6.1	win	2022-12-14	14:08:09	14:12:28	258403	6369dd3bd6a643dc7b42ce62	254539631	1	main_slash	7	advance_on_keypress_SLASH	56	stimuli_distractor_diamondtriangles.svg	stimuli_distractor_trianglediamonds.svg	38	no	57	0	341
6.6.1	win	2022-12-14	14:08:09	14:12:30	260424	6369dd3bd6a643dc7b42ce62	254539631	1	main_slash	7	main_slash	57	stimuli_target_diamondsquares.svg	stimuli_distractor_diamondtriangles.svg	24	yes	53	1	1049
6.6.1	win	2022-12-14	14:08:09	14:12:30	260424	6369dd3bd6a643dc7b42ce62	254539631	1	main_slash	7	advance_on_keypress_SLASH	58	stimuli_target_diamondsquares.svg	stimuli_distractor_diamondtriangles.svg	24	yes	57	0	424
6.6.1	win	2022-12-14	14:08:09	14:12:32	262524	6369dd3bd6a643dc7b42ce62	254539631	1	main_slash	7	main_slash	59	stimuli_distractor_trianglediamonds.svg	stimuli_target_squarediamonds.svg	12	yes	53	1	1024
6.6.1	win	2022-12-14	14:08:09	14:12:32	262524	6369dd3bd6a643dc7b42ce62	254539631	1	main_slash	7	advance_on_keypress_SLASH	60	stimuli_distractor_trianglediamonds.svg	stimuli_target_squarediamonds.svg	12	yes	57	0	380
6.6.1	win	2022-12-14	14:08:09	14:12:34	264442	6369dd3bd6a643dc7b42ce62	254539631	1	main_slash	7	main_slash	61	stimuli_target_trianglesquares.svg	stimuli_distractor_diamondtriangles.svg	22	yes	53	1	896
6.6.1	win	2022-12-14	14:08:09	14:12:34	264442	6369dd3bd6a643dc7b42ce62	254539631	1	main_slash	7	advance_on_keypress_SLASH	62	stimuli_target_trianglesquares.svg	stimuli_distractor_diamondtriangles.svg	22	yes	57	0	352
6.6.1	win	2022-12-14	14:08:09	14:12:36	266406	6369dd3bd6a643dc7b42ce62	254539631	1	main_slash	7	main_slash	63	stimuli_target_trianglecircles.svg	stimuli_distractor_trianglediamonds.svg	17	yes	53	1	983
6.6.1	win	2022-12-14	14:08:09	14:12:36	266406	6369dd3bd6a643dc7b42ce62	254539631	1	main_slash	7	advance_on_keypress_SLASH	64	stimuli_target_trianglecircles.svg	stimuli_distractor_trianglediamonds.svg	17	yes	57	0	376
6.6.1	win	2022-12-14	14:08:09	14:12:38	268465	6369dd3bd6a643dc7b42ce62	254539631	1	main_slash	7	main_slash	65	stimuli_target_squarediamonds.svg	stimuli_distractor_trianglediamonds.svg	4	yes	53	1	1036
6.6.1	win	2022-12-14	14:08:09	14:12:38	268465	6369dd3bd6a643dc7b42ce62	254539631	1	main_slash	7	advance_on_keypress_SLASH	66	stimuli_target_squarediamonds.svg	stimuli_distractor_trianglediamonds.svg	4	yes	57	0	453
6.6.1	win	2022-12-14	14:08:09	14:12:40	270461	6369dd3bd6a643dc7b42ce62	254539631	1	main_slash	7	main_slash	67	stimuli_target_trianglecircles.svg	stimuli_distractor_diamondtriangles.svg	21	yes	53	1	914
6.6.1	win	2022-12-14	14:08:09	14:12:40	270461	6369dd3bd6a643dc7b42ce62	254539631	1	main_slash	7	advance_on_keypress_SLASH	68	stimuli_target_trianglecircles.svg	stimuli_distractor_diamondtriangles.svg	21	yes	57	0	371
6.6.1	win	2022-12-14	14:08:09	14:12:42	272502	6369dd3bd6a643dc7b42ce62	254539631	1	main_slash	7	main_slash	69	stimuli_distractor_trianglediamonds.svg	stimuli_target_trianglecircles.svg	25	yes	53	1	1029
6.6.1	win	2022-12-14	14:08:09	14:12:42	272502	6369dd3bd6a643dc7b42ce62	254539631	1	main_slash	7	advance_on_keypress_SLASH	70	stimuli_distractor_trianglediamonds.svg	stimuli_target_trianglecircles.svg	25	yes	57	0	354
6.6.1	win	2022-12-14	14:08:09	14:12:44	274389	6369dd3bd6a643dc7b42ce62	254539631	1	main_slash	7	main_slash	71	stimuli_distractor_trianglediamonds.svg	stimuli_target_circletriangles.svg	9	yes	53	1	898
6.6.1	win	2022-12-14	14:08:09	14:12:44	274389	6369dd3bd6a643dc7b42ce62	254539631	1	main_slash	7	advance_on_keypress_SLASH	72	stimuli_distractor_trianglediamonds.svg	stimuli_target_circletriangles.svg	9	yes	57	0	2014
6.6.1	win	2022-12-14	14:08:09	14:12:49	279045	6369dd3bd6a643dc7b42ce62	254539631	1	main_slash	7	main_slash	73	stimuli_distractor_trianglediamonds.svg	stimuli_distractor_trianglediamonds.svg	34	no	0	1	2003
6.6.1	win	2022-12-14	14:08:09	14:12:49	279045	6369dd3bd6a643dc7b42ce62	254539631	1	main_slash	7	advance_on_keypress_SLASH	74	stimuli_distractor_trianglediamonds.svg	stimuli_distractor_trianglediamonds.svg	34	no	57	0	1103
6.6.1	win	2022-12-14	14:08:09	14:12:52	281672	6369dd3bd6a643dc7b42ce62	254539631	1	main_slash	7	main_slash	75	stimuli_target_diamondsquares.svg	stimuli_distractor_trianglediamonds.svg	20	yes	53	1	890
6.6.1	win	2022-12-14	14:08:09	14:12:52	281672	6369dd3bd6a643dc7b42ce62	254539631	1	main_slash	7	advance_on_keypress_SLASH	76	stimuli_target_diamondsquares.svg	stimuli_distractor_trianglediamonds.svg	20	yes	57	0	353
6.6.1	win	2022-12-14	14:08:09	14:12:54	283976	6369dd3bd6a643dc7b42ce62	254539631	1	main_slash	7	main_slash	77	stimuli_distractor_trianglediamonds.svg	stimuli_distractor_diamondtriangles.svg	35	no	53	0	1304
6.6.1	win	2022-12-14	14:08:09	14:12:54	283976	6369dd3bd6a643dc7b42ce62	254539631	1	main_slash	7	advance_on_keypress_SLASH	78	stimuli_distractor_trianglediamonds.svg	stimuli_distractor_diamondtriangles.svg	35	no	57	0	822
6.6.1	win	2022-12-14	14:08:09	14:12:56	286339	6369dd3bd6a643dc7b42ce62	254539631	1	main_slash	7	main_slash	79	stimuli_distractor_diamondtriangles.svg	stimuli_target_diamondcircles.svg	31	yes	53	1	899
6.6.1	win	2022-12-14	14:08:09	14:12:56	286339	6369dd3bd6a643dc7b42ce62	254539631	1	main_slash	7	advance_on_keypress_SLASH	80	stimuli_distractor_diamondtriangles.svg	stimuli_target_diamondcircles.svg	31	yes	57	0	408
6.6.1	win	2022-12-14	14:08:09	14:12:58	288217	6369dd3bd6a643dc7b42ce62	254539631	1	main_slash	7	main_slash	81	stimuli_target_squarediamonds.svg	stimuli_distractor_diamondtriangles.svg	8	yes	53	1	840
6.6.1	win	2022-12-14	14:08:09	14:12:58	288217	6369dd3bd6a643dc7b42ce62	254539631	1	main_slash	7	advance_on_keypress_SLASH	82	stimuli_target_squarediamonds.svg	stimuli_distractor_diamondtriangles.svg	8	yes	57	0	357
6.6.1	win	2022-12-14	14:08:09	14:13:01	291226	6369dd3bd6a643dc7b42ce62	254539631	1	main_slash	7	main_slash	83	stimuli_distractor_diamondtriangles.svg	stimuli_distractor_diamondtriangles.svg	40	no	0	1	2003
6.6.1	win	2022-12-14	14:08:09	14:13:01	291226	6369dd3bd6a643dc7b42ce62	254539631	1	main_slash	7	advance_on_keypress_SLASH	84	stimuli_distractor_diamondtriangles.svg	stimuli_distractor_diamondtriangles.svg	40	no	57	0	1057
6.6.1	win	2022-12-14	14:08:09	14:13:04	293796	6369dd3bd6a643dc7b42ce62	254539631	1	main_slash	7	main_slash	85	stimuli_target_circlediamonds.svg	stimuli_distractor_trianglediamonds.svg	2	yes	53	1	877
6.6.1	win	2022-12-14	14:08:09	14:13:04	293796	6369dd3bd6a643dc7b42ce62	254539631	1	main_slash	7	advance_on_keypress_SLASH	86	stimuli_target_circlediamonds.svg	stimuli_distractor_trianglediamonds.svg	2	yes	57	0	404
6.6.1	win	2022-12-14	14:08:09	14:13:07	296831	6369dd3bd6a643dc7b42ce62	254539631	1	main_slash	7	main_slash	87	stimuli_distractor_diamondtriangles.svg	stimuli_distractor_trianglediamonds.svg	37	no	0	1	2003
6.6.1	win	2022-12-14	14:08:09	14:13:07	296831	6369dd3bd6a643dc7b42ce62	254539631	1	main_slash	7	advance_on_keypress_SLASH	88	stimuli_distractor_diamondtriangles.svg	stimuli_distractor_trianglediamonds.svg	37	no	57	0	503
6.6.1	win	2022-12-14	14:08:09	14:13:10	299965	6369dd3bd6a643dc7b42ce62	254539631	1	main_slash	7	main_slash	89	stimuli_distractor_trianglediamonds.svg	stimuli_distractor_trianglediamonds.svg	33	no	0	1	2003
6.6.1	win	2022-12-14	14:08:09	14:13:10	299965	6369dd3bd6a643dc7b42ce62	254539631	1	main_slash	7	advance_on_keypress_SLASH	90	stimuli_distractor_trianglediamonds.svg	stimuli_distractor_trianglediamonds.svg	33	no	57	0	356
6.6.1	win	2022-12-14	14:08:09	14:13:11	301658	6369dd3bd6a643dc7b42ce62	254539631	1	main_slash	7	main_slash	91	stimuli_target_trianglecircles.svg	stimuli_distractor_trianglediamonds.svg	17	yes	53	1	699
6.6.1	win	2022-12-14	14:08:09	14:13:11	301658	6369dd3bd6a643dc7b42ce62	254539631	1	main_slash	7	advance_on_keypress_SLASH	92	stimuli_target_trianglecircles.svg	stimuli_distractor_trianglediamonds.svg	17	yes	57	0	485
6.6.1	win	2022-12-14	14:08:09	14:13:13	303451	6369dd3bd6a643dc7b42ce62	254539631	1	main_slash	7	main_slash	93	stimuli_distractor_diamondtriangles.svg	stimuli_target_trianglesquares.svg	30	yes	53	1	669
6.6.1	win	2022-12-14	14:08:09	14:13:13	303451	6369dd3bd6a643dc7b42ce62	254539631	1	main_slash	7	advance_on_keypress_SLASH	94	stimuli_distractor_diamondtriangles.svg	stimuli_target_trianglesquares.svg	30	yes	57	0	432
6.6.1	win	2022-12-14	14:08:09	14:13:16	306529	6369dd3bd6a643dc7b42ce62	254539631	1	main_slash	7	main_slash	95	stimuli_distractor_diamondtriangles.svg	stimuli_distractor_trianglediamonds.svg	38	no	0	1	2003
6.6.1	win	2022-12-14	14:08:09	14:13:16	306529	6369dd3bd6a643dc7b42ce62	254539631	1	main_slash	7	advance_on_keypress_SLASH	96	stimuli_distractor_diamondtriangles.svg	stimuli_distractor_trianglediamonds.svg	38	no	57	0	976
6.6.1	win	2022-12-14	14:08:09	14:13:19	308801	6369dd3bd6a643dc7b42ce62	254539631	1	main_slash	7	main_slash	97	stimuli_distractor_trianglediamonds.svg	stimuli_target_squaretriangles.svg	11	yes	53	1	663
6.6.1	win	2022-12-14	14:08:09	14:13:19	308801	6369dd3bd6a643dc7b42ce62	254539631	1	main_slash	7	advance_on_keypress_SLASH	98	stimuli_distractor_trianglediamonds.svg	stimuli_target_squaretriangles.svg	11	yes	57	0	451
6.6.1	win	2022-12-14	14:08:09	14:13:21	310668	6369dd3bd6a643dc7b42ce62	254539631	1	main_slash	7	main_slash	99	stimuli_target_diamondcircles.svg	stimuli_distractor_trianglediamonds.svg	19	yes	53	1	772
6.6.1	win	2022-12-14	14:08:09	14:13:21	310668	6369dd3bd6a643dc7b42ce62	254539631	1	main_slash	7	advance_on_keypress_SLASH	100	stimuli_target_diamondcircles.svg	stimuli_distractor_trianglediamonds.svg	19	yes	57	0	458
6.6.1	win	2022-12-14	14:08:09	14:13:23	312857	6369dd3bd6a643dc7b42ce62	254539631	1	main_slash	7	main_slash	101	stimuli_distractor_diamondtriangles.svg	stimuli_target_circlediamonds.svg	14	yes	53	1	1091
6.6.1	win	2022-12-14	14:08:09	14:13:23	312857	6369dd3bd6a643dc7b42ce62	254539631	1	main_slash	7	advance_on_keypress_SLASH	102	stimuli_distractor_diamondtriangles.svg	stimuli_target_circlediamonds.svg	14	yes	57	0	631
6.6.1	win	2022-12-14	14:08:09	14:13:25	314823	6369dd3bd6a643dc7b42ce62	254539631	1	main_slash	7	main_slash	103	stimuli_target_squaretriangles.svg	stimuli_distractor_trianglediamonds.svg	3	yes	53	1	719
6.6.1	win	2022-12-14	14:08:09	14:13:25	314823	6369dd3bd6a643dc7b42ce62	254539631	1	main_slash	7	advance_on_keypress_SLASH	104	stimuli_target_squaretriangles.svg	stimuli_distractor_trianglediamonds.svg	3	yes	57	0	355
6.6.1	win	2022-12-14	14:08:09	14:13:26	316512	6369dd3bd6a643dc7b42ce62	254539631	1	main_slash	7	main_slash	105	stimuli_distractor_diamondtriangles.svg	stimuli_target_diamondcircles.svg	31	yes	53	1	716
6.6.1	win	2022-12-14	14:08:09	14:13:26	316512	6369dd3bd6a643dc7b42ce62	254539631	1	main_slash	7	advance_on_keypress_SLASH	106	stimuli_distractor_diamondtriangles.svg	stimuli_target_diamondcircles.svg	31	yes	57	0	335
6.6.1	win	2022-12-14	14:08:09	14:13:28	318077	6369dd3bd6a643dc7b42ce62	254539631	1	main_slash	7	main_slash	107	stimuli_distractor_diamondtriangles.svg	stimuli_target_squarediamonds.svg	16	yes	53	1	599
6.6.1	win	2022-12-14	14:08:09	14:13:28	318077	6369dd3bd6a643dc7b42ce62	254539631	1	main_slash	7	advance_on_keypress_SLASH	108	stimuli_distractor_diamondtriangles.svg	stimuli_target_squarediamonds.svg	16	yes	57	0	330
6.6.1	win	2022-12-14	14:08:09	14:13:29	319531	6369dd3bd6a643dc7b42ce62	254539631	1	main_slash	7	main_slash	109	stimuli_target_trianglecircles.svg	stimuli_distractor_diamondtriangles.svg	21	yes	53	1	489
6.6.1	win	2022-12-14	14:08:09	14:13:29	319531	6369dd3bd6a643dc7b42ce62	254539631	1	main_slash	7	advance_on_keypress_SLASH	110	stimuli_target_trianglecircles.svg	stimuli_distractor_diamondtriangles.svg	21	yes	57	0	368
6.6.1	win	2022-12-14	14:08:09	14:13:32	322526	6369dd3bd6a643dc7b42ce62	254539631	1	main_slash	7	main_slash	111	stimuli_distractor_trianglediamonds.svg	stimuli_distractor_trianglediamonds.svg	34	no	0	1	2003
6.6.1	win	2022-12-14	14:08:09	14:13:32	322526	6369dd3bd6a643dc7b42ce62	254539631	1	main_slash	7	advance_on_keypress_SLASH	112	stimuli_distractor_trianglediamonds.svg	stimuli_distractor_trianglediamonds.svg	34	no	57	0	429
6.6.1	win	2022-12-14	14:08:09	14:13:34	324094	6369dd3bd6a643dc7b42ce62	254539631	1	main_slash	7	main_slash	113	stimuli_target_squarediamonds.svg	stimuli_distractor_trianglediamonds.svg	4	yes	53	1	504
6.6.1	win	2022-12-14	14:08:09	14:13:34	324094	6369dd3bd6a643dc7b42ce62	254539631	1	main_slash	7	advance_on_keypress_SLASH	114	stimuli_target_squarediamonds.svg	stimuli_distractor_trianglediamonds.svg	4	yes	57	0	426
6.6.1	win	2022-12-14	14:08:09	14:13:36	325827	6369dd3bd6a643dc7b42ce62	254539631	1	main_slash	7	main_slash	115	stimuli_target_squaretriangles.svg	stimuli_distractor_diamondtriangles.svg	7	yes	53	1	686
6.6.1	win	2022-12-14	14:08:09	14:13:36	325827	6369dd3bd6a643dc7b42ce62	254539631	1	main_slash	7	advance_on_keypress_SLASH	116	stimuli_target_squaretriangles.svg	stimuli_distractor_diamondtriangles.svg	7	yes	57	0	378
6.6.1	win	2022-12-14	14:08:09	14:13:39	328847	6369dd3bd6a643dc7b42ce62	254539631	1	main_slash	7	main_slash	117	stimuli_distractor_diamondtriangles.svg	stimuli_distractor_diamondtriangles.svg	39	no	0	1	2003
6.6.1	win	2022-12-14	14:08:09	14:13:39	328847	6369dd3bd6a643dc7b42ce62	254539631	1	main_slash	7	advance_on_keypress_SLASH	118	stimuli_distractor_diamondtriangles.svg	stimuli_distractor_diamondtriangles.svg	39	no	57	0	319
6.6.1	win	2022-12-14	14:08:09	14:13:41	330891	6369dd3bd6a643dc7b42ce62	254539631	1	main_slash	7	main_slash	119	stimuli_distractor_diamondtriangles.svg	stimuli_target_circletriangles.svg	13	yes	53	1	1097
6.6.1	win	2022-12-14	14:08:09	14:13:41	330891	6369dd3bd6a643dc7b42ce62	254539631	1	main_slash	7	advance_on_keypress_SLASH	120	stimuli_distractor_diamondtriangles.svg	stimuli_target_circletriangles.svg	13	yes	57	0	1283
6.6.1	win	2022-12-14	14:08:09	14:13:43	333396	6369dd3bd6a643dc7b42ce62	254539631	1	main_slash	7	main_slash	121	stimuli_target_circlediamonds.svg	stimuli_distractor_diamondtriangles.svg	6	yes	53	1	596
6.6.1	win	2022-12-14	14:08:09	14:13:43	333396	6369dd3bd6a643dc7b42ce62	254539631	1	main_slash	7	advance_on_keypress_SLASH	122	stimuli_target_circlediamonds.svg	stimuli_distractor_diamondtriangles.svg	6	yes	57	0	579
6.6.1	win	2022-12-14	14:08:09	14:13:45	335257	6369dd3bd6a643dc7b42ce62	254539631	1	main_slash	7	main_slash	123	stimuli_distractor_trianglediamonds.svg	stimuli_target_diamondsquares.svg	28	yes	53	1	652
6.6.1	win	2022-12-14	14:08:09	14:13:45	335257	6369dd3bd6a643dc7b42ce62	254539631	1	main_slash	7	advance_on_keypress_SLASH	124	stimuli_distractor_trianglediamonds.svg	stimuli_target_diamondsquares.svg	28	yes	57	0	507
6.6.1	win	2022-12-14	14:08:09	14:13:47	337174	6369dd3bd6a643dc7b42ce62	254539631	1	main_slash	7	main_slash	125	stimuli_target_diamondsquares.svg	stimuli_distractor_diamondtriangles.svg	24	yes	53	1	776
6.6.1	win	2022-12-14	14:08:09	14:13:47	337174	6369dd3bd6a643dc7b42ce62	254539631	1	main_slash	7	advance_on_keypress_SLASH	126	stimuli_target_diamondsquares.svg	stimuli_distractor_diamondtriangles.svg	24	yes	57	0	536
6.6.1	win	2022-12-14	14:08:09	14:13:49	339153	6369dd3bd6a643dc7b42ce62	254539631	1	main_slash	7	main_slash	127	stimuli_distractor_trianglediamonds.svg	stimuli_target_trianglecircles.svg	25	yes	53	1	806
6.6.1	win	2022-12-14	14:08:09	14:13:49	339153	6369dd3bd6a643dc7b42ce62	254539631	1	main_slash	7	advance_on_keypress_SLASH	128	stimuli_distractor_trianglediamonds.svg	stimuli_target_trianglecircles.svg	25	yes	57	0	1219
6.6.1	win	2022-12-14	14:08:09	14:13:51	341598	6369dd3bd6a643dc7b42ce62	254539631	1	main_slash	7	main_slash	129	stimuli_distractor_trianglediamonds.svg	stimuli_target_diamondcircles.svg	27	yes	53	1	584
6.6.1	win	2022-12-14	14:08:09	14:13:51	341598	6369dd3bd6a643dc7b42ce62	254539631	1	main_slash	7	advance_on_keypress_SLASH	130	stimuli_distractor_trianglediamonds.svg	stimuli_target_diamondcircles.svg	27	yes	57	0	435
6.6.1	win	2022-12-14	14:08:09	14:13:53	343418	6369dd3bd6a643dc7b42ce62	254539631	1	main_slash	7	main_slash	131	stimuli_distractor_diamondtriangles.svg	stimuli_target_squaretriangles.svg	15	yes	53	1	759
6.6.1	win	2022-12-14	14:08:09	14:13:53	343418	6369dd3bd6a643dc7b42ce62	254539631	1	main_slash	7	advance_on_keypress_SLASH	132	stimuli_distractor_diamondtriangles.svg	stimuli_target_squaretriangles.svg	15	yes	57	0	375
6.6.1	win	2022-12-14	14:08:09	14:13:55	345141	6369dd3bd6a643dc7b42ce62	254539631	1	main_slash	7	main_slash	133	stimuli_target_trianglesquares.svg	stimuli_distractor_diamondtriangles.svg	22	yes	53	1	727
6.6.1	win	2022-12-14	14:08:09	14:13:55	345141	6369dd3bd6a643dc7b42ce62	254539631	1	main_slash	7	advance_on_keypress_SLASH	134	stimuli_target_trianglesquares.svg	stimuli_distractor_diamondtriangles.svg	22	yes	57	0	349
6.6.1	win	2022-12-14	14:08:09	14:13:57	346898	6369dd3bd6a643dc7b42ce62	254539631	1	main_slash	7	main_slash	135	stimuli_target_circletriangles.svg	stimuli_distractor_trianglediamonds.svg	1	yes	53	1	769
6.6.1	win	2022-12-14	14:08:09	14:13:57	346898	6369dd3bd6a643dc7b42ce62	254539631	1	main_slash	7	advance_on_keypress_SLASH	136	stimuli_target_circletriangles.svg	stimuli_distractor_trianglediamonds.svg	1	yes	57	0	368
6.6.1	win	2022-12-14	14:08:09	14:13:59	348720	6369dd3bd6a643dc7b42ce62	254539631	1	main_slash	7	main_slash	137	stimuli_distractor_trianglediamonds.svg	stimuli_target_circletriangles.svg	9	yes	53	1	811
6.6.1	win	2022-12-14	14:08:09	14:13:59	348720	6369dd3bd6a643dc7b42ce62	254539631	1	main_slash	7	advance_on_keypress_SLASH	138	stimuli_distractor_trianglediamonds.svg	stimuli_target_circletriangles.svg	9	yes	57	0	336
6.6.1	win	2022-12-14	14:08:09	14:14:00	350353	6369dd3bd6a643dc7b42ce62	254539631	1	main_slash	7	main_slash	139	stimuli_distractor_trianglediamonds.svg	stimuli_target_circlediamonds.svg	10	yes	53	1	647
6.6.1	win	2022-12-14	14:08:09	14:14:00	350353	6369dd3bd6a643dc7b42ce62	254539631	1	main_slash	7	advance_on_keypress_SLASH	140	stimuli_distractor_trianglediamonds.svg	stimuli_target_circlediamonds.svg	10	yes	57	0	421
6.6.1	win	2022-12-14	14:08:09	14:14:02	352096	6369dd3bd6a643dc7b42ce62	254539631	1	main_slash	7	main_slash	141	stimuli_target_diamondcircles.svg	stimuli_distractor_diamondtriangles.svg	23	yes	53	1	696
6.6.1	win	2022-12-14	14:08:09	14:14:02	352096	6369dd3bd6a643dc7b42ce62	254539631	1	main_slash	7	advance_on_keypress_SLASH	142	stimuli_target_diamondcircles.svg	stimuli_distractor_diamondtriangles.svg	23	yes	57	0	382
6.6.1	win	2022-12-14	14:08:09	14:14:04	353728	6369dd3bd6a643dc7b42ce62	254539631	1	main_slash	7	main_slash	143	stimuli_distractor_trianglediamonds.svg	stimuli_target_squarediamonds.svg	12	yes	53	1	621
6.6.1	win	2022-12-14	14:08:09	14:14:04	353728	6369dd3bd6a643dc7b42ce62	254539631	1	main_slash	7	advance_on_keypress_SLASH	144	stimuli_distractor_trianglediamonds.svg	stimuli_target_squarediamonds.svg	12	yes	57	0	352
6.6.1	win	2022-12-14	14:08:09	14:14:07	356714	6369dd3bd6a643dc7b42ce62	254539631	1	main_slash	7	main_slash	145	stimuli_distractor_trianglediamonds.svg	stimuli_distractor_diamondtriangles.svg	35	no	0	1	2003
6.6.1	win	2022-12-14	14:08:09	14:14:07	356714	6369dd3bd6a643dc7b42ce62	254539631	1	main_slash	7	advance_on_keypress_SLASH	146	stimuli_distractor_trianglediamonds.svg	stimuli_distractor_diamondtriangles.svg	35	no	57	0	1187
6.6.1	win	2022-12-14	14:08:09	14:14:09	359362	6369dd3bd6a643dc7b42ce62	254539631	1	main_slash	7	main_slash	147	stimuli_distractor_diamondtriangles.svg	stimuli_target_trianglecircles.svg	29	yes	53	1	831
6.6.1	win	2022-12-14	14:08:09	14:14:09	359362	6369dd3bd6a643dc7b42ce62	254539631	1	main_slash	7	advance_on_keypress_SLASH	148	stimuli_distractor_diamondtriangles.svg	stimuli_target_trianglecircles.svg	29	yes	57	0	481
6.6.1	win	2022-12-14	14:08:09	14:14:11	361120	6369dd3bd6a643dc7b42ce62	254539631	1	main_slash	7	main_slash	149	stimuli_distractor_diamondtriangles.svg	stimuli_target_diamondsquares.svg	32	yes	53	1	642
6.6.1	win	2022-12-14	14:08:09	14:14:11	361120	6369dd3bd6a643dc7b42ce62	254539631	1	main_slash	7	advance_on_keypress_SLASH	150	stimuli_distractor_diamondtriangles.svg	stimuli_target_diamondsquares.svg	32	yes	57	0	413
6.6.1	win	2022-12-14	14:08:09	14:14:13	363487	6369dd3bd6a643dc7b42ce62	254539631	1	main_slash	7	main_slash	151	stimuli_target_diamondsquares.svg	stimuli_distractor_trianglediamonds.svg	20	yes	53	1	1324
6.6.1	win	2022-12-14	14:08:09	14:14:13	363487	6369dd3bd6a643dc7b42ce62	254539631	1	main_slash	7	advance_on_keypress_SLASH	152	stimuli_target_diamondsquares.svg	stimuli_distractor_trianglediamonds.svg	20	yes	57	0	821
6.6.1	win	2022-12-14	14:08:09	14:14:16	365791	6369dd3bd6a643dc7b42ce62	254539631	1	main_slash	7	main_slash	153	stimuli_distractor_trianglediamonds.svg	stimuli_target_trianglesquares.svg	26	yes	53	1	851
6.6.1	win	2022-12-14	14:08:09	14:14:16	365791	6369dd3bd6a643dc7b42ce62	254539631	1	main_slash	7	advance_on_keypress_SLASH	154	stimuli_distractor_trianglediamonds.svg	stimuli_target_trianglesquares.svg	26	yes	57	0	383
6.6.1	win	2022-12-14	14:08:09	14:14:18	367787	6369dd3bd6a643dc7b42ce62	254539631	1	main_slash	7	main_slash	155	stimuli_target_circletriangles.svg	stimuli_distractor_diamondtriangles.svg	5	yes	53	1	977
6.6.1	win	2022-12-14	14:08:09	14:14:18	367787	6369dd3bd6a643dc7b42ce62	254539631	1	main_slash	7	advance_on_keypress_SLASH	156	stimuli_target_circletriangles.svg	stimuli_distractor_diamondtriangles.svg	5	yes	57	0	372
6.6.1	win	2022-12-14	14:08:09	14:14:21	370793	6369dd3bd6a643dc7b42ce62	254539631	1	main_slash	7	main_slash	157	stimuli_distractor_trianglediamonds.svg	stimuli_distractor_diamondtriangles.svg	36	no	0	1	2003
6.6.1	win	2022-12-14	14:08:09	14:14:21	370793	6369dd3bd6a643dc7b42ce62	254539631	1	main_slash	7	advance_on_keypress_SLASH	158	stimuli_distractor_trianglediamonds.svg	stimuli_distractor_diamondtriangles.svg	36	no	57	0	928
6.6.1	win	2022-12-14	14:08:09	14:14:23	373171	6369dd3bd6a643dc7b42ce62	254539631	1	main_slash	7	main_slash	159	stimuli_target_trianglesquares.svg	stimuli_distractor_trianglediamonds.svg	18	yes	53	1	815
6.6.1	win	2022-12-14	14:08:09	14:14:23	373171	6369dd3bd6a643dc7b42ce62	254539631	1	main_slash	7	advance_on_keypress_SLASH	160	stimuli_target_trianglesquares.svg	stimuli_distractor_trianglediamonds.svg	18	yes	57	0	485
6.6.1	win	2022-12-14	14:08:09	14:14:45	394724	6369dd3bd6a643dc7b42ce62	254539631	1	practice_z	9	practice_z	1	stimuli_distractor_trianglediamonds.svg	stimuli_distractor_trianglediamonds.svg	15	no	0	1	2003
6.6.1	win	2022-12-14	14:08:09	14:14:45	394724	6369dd3bd6a643dc7b42ce62	254539631	1	practice_z	9	advance_on_keypress_ZEE	2	stimuli_distractor_trianglediamonds.svg	stimuli_distractor_trianglediamonds.svg	15	no	57	0	301
6.6.1	win	2022-12-14	14:08:09	14:14:47	397268	6369dd3bd6a643dc7b42ce62	254539631	1	practice_z	9	practice_z	3	stimuli_distractor_diamondtriangles.svg	stimuli_target_trianglecircles.svg	9	yes	44	1	614
6.6.1	win	2022-12-14	14:08:09	14:14:47	397268	6369dd3bd6a643dc7b42ce62	254539631	1	practice_z	9	advance_on_keypress_ZEE	4	stimuli_distractor_diamondtriangles.svg	stimuli_target_trianglecircles.svg	9	yes	57	0	422
6.6.1	win	2022-12-14	14:08:09	14:14:50	400046	6369dd3bd6a643dc7b42ce62	254539631	1	practice_z	9	practice_z	5	stimuli_target_circlediamonds.svg	stimuli_distractor_trianglediamonds.svg	4	yes	44	1	717
6.6.1	win	2022-12-14	14:08:09	14:14:50	400046	6369dd3bd6a643dc7b42ce62	254539631	1	practice_z	9	advance_on_keypress_ZEE	6	stimuli_target_circlediamonds.svg	stimuli_distractor_trianglediamonds.svg	4	yes	57	0	434
6.6.1	win	2022-12-14	14:08:09	14:14:53	402713	6369dd3bd6a643dc7b42ce62	254539631	1	practice_z	9	practice_z	7	stimuli_distractor_diamondtriangles.svg	stimuli_target_circletriangles.svg	7	yes	44	1	585
6.6.1	win	2022-12-14	14:08:09	14:14:53	402713	6369dd3bd6a643dc7b42ce62	254539631	1	practice_z	9	advance_on_keypress_ZEE	8	stimuli_distractor_diamondtriangles.svg	stimuli_target_circletriangles.svg	7	yes	57	0	687
6.6.1	win	2022-12-14	14:08:09	14:14:56	405877	6369dd3bd6a643dc7b42ce62	254539631	1	practice_z	9	practice_z	9	stimuli_target_squarediamonds.svg	stimuli_distractor_diamondtriangles.svg	2	yes	44	1	835
6.6.1	win	2022-12-14	14:08:09	14:14:56	405877	6369dd3bd6a643dc7b42ce62	254539631	1	practice_z	9	advance_on_keypress_ZEE	10	stimuli_target_squarediamonds.svg	stimuli_distractor_diamondtriangles.svg	2	yes	57	0	632
6.6.1	win	2022-12-14	14:08:09	14:15:00	410136	6369dd3bd6a643dc7b42ce62	254539631	1	practice_z	9	practice_z	11	stimuli_distractor_diamondtriangles.svg	stimuli_distractor_diamondtriangles.svg	13	no	0	1	2003
6.6.1	win	2022-12-14	14:08:09	14:15:00	410136	6369dd3bd6a643dc7b42ce62	254539631	1	practice_z	9	advance_on_keypress_ZEE	12	stimuli_distractor_diamondtriangles.svg	stimuli_distractor_diamondtriangles.svg	13	no	57	0	247
6.6.1	win	2022-12-14	14:08:09	14:15:02	412609	6369dd3bd6a643dc7b42ce62	254539631	1	practice_z	9	practice_z	13	stimuli_distractor_trianglediamonds.svg	stimuli_target_circlediamonds.svg	10	yes	44	1	562
6.6.1	win	2022-12-14	14:08:09	14:15:02	412609	6369dd3bd6a643dc7b42ce62	254539631	1	practice_z	9	advance_on_keypress_ZEE	14	stimuli_distractor_trianglediamonds.svg	stimuli_target_circlediamonds.svg	10	yes	57	0	879
6.6.1	win	2022-12-14	14:08:09	14:15:06	415974	6369dd3bd6a643dc7b42ce62	254539631	1	practice_z	9	practice_z	15	stimuli_distractor_trianglediamonds.svg	stimuli_target_squarediamonds.svg	11	yes	44	1	831
6.6.1	win	2022-12-14	14:08:09	14:15:06	415974	6369dd3bd6a643dc7b42ce62	254539631	1	practice_z	9	advance_on_keypress_ZEE	16	stimuli_distractor_trianglediamonds.svg	stimuli_target_squarediamonds.svg	11	yes	57	0	580
6.6.1	win	2022-12-14	14:08:09	14:15:09	419545	6369dd3bd6a643dc7b42ce62	254539631	1	practice_z	9	practice_z	17	stimuli_target_diamondsquares.svg	stimuli_distractor_trianglediamonds.svg	6	yes	44	1	1335
6.6.1	win	2022-12-14	14:08:09	14:15:09	419545	6369dd3bd6a643dc7b42ce62	254539631	1	practice_z	9	advance_on_keypress_ZEE	18	stimuli_target_diamondsquares.svg	stimuli_distractor_trianglediamonds.svg	6	yes	57	0	379
6.6.1	win	2022-12-14	14:08:09	14:15:13	423556	6369dd3bd6a643dc7b42ce62	254539631	1	practice_z	9	practice_z	19	stimuli_distractor_trianglediamonds.svg	stimuli_distractor_diamondtriangles.svg	16	no	0	1	2003
6.6.1	win	2022-12-14	14:08:09	14:15:13	423556	6369dd3bd6a643dc7b42ce62	254539631	1	practice_z	9	advance_on_keypress_ZEE	20	stimuli_distractor_trianglediamonds.svg	stimuli_distractor_diamondtriangles.svg	16	no	57	0	1065
6.6.1	win	2022-12-14	14:08:09	14:15:17	426845	6369dd3bd6a643dc7b42ce62	254539631	1	practice_z	9	practice_z	21	stimuli_distractor_diamondtriangles.svg	stimuli_target_diamondcircles.svg	8	yes	44	1	594
6.6.1	win	2022-12-14	14:08:09	14:15:17	426845	6369dd3bd6a643dc7b42ce62	254539631	1	practice_z	9	advance_on_keypress_ZEE	22	stimuli_distractor_diamondtriangles.svg	stimuli_target_diamondcircles.svg	8	yes	57	0	421
6.6.1	win	2022-12-14	14:08:09	14:15:20	429898	6369dd3bd6a643dc7b42ce62	254539631	1	practice_z	9	practice_z	23	stimuli_target_circlediamonds.svg	stimuli_distractor_diamondtriangles.svg	1	yes	44	1	989
6.6.1	win	2022-12-14	14:08:09	14:15:20	429898	6369dd3bd6a643dc7b42ce62	254539631	1	practice_z	9	advance_on_keypress_ZEE	24	stimuli_target_circlediamonds.svg	stimuli_distractor_diamondtriangles.svg	1	yes	57	0	628
6.6.1	win	2022-12-14	14:08:09	14:15:23	432667	6369dd3bd6a643dc7b42ce62	254539631	1	practice_z	9	practice_z	25	stimuli_target_squarediamonds.svg	stimuli_distractor_trianglediamonds.svg	5	yes	44	1	501
6.6.1	win	2022-12-14	14:08:09	14:15:23	432667	6369dd3bd6a643dc7b42ce62	254539631	1	practice_z	9	advance_on_keypress_ZEE	26	stimuli_target_squarediamonds.svg	stimuli_distractor_trianglediamonds.svg	5	yes	57	0	619
6.6.1	win	2022-12-14	14:08:09	14:15:26	435741	6369dd3bd6a643dc7b42ce62	254539631	1	practice_z	9	practice_z	27	stimuli_distractor_trianglediamonds.svg	stimuli_target_diamondcircles.svg	12	yes	44	1	811
6.6.1	win	2022-12-14	14:08:09	14:15:26	435741	6369dd3bd6a643dc7b42ce62	254539631	1	practice_z	9	advance_on_keypress_ZEE	28	stimuli_distractor_trianglediamonds.svg	stimuli_target_diamondcircles.svg	12	yes	57	0	454
6.6.1	win	2022-12-14	14:08:09	14:15:28	438448	6369dd3bd6a643dc7b42ce62	254539631	1	practice_z	9	practice_z	29	stimuli_target_diamondsquares.svg	stimuli_distractor_diamondtriangles.svg	3	yes	44	1	634
6.6.1	win	2022-12-14	14:08:09	14:15:28	438448	6369dd3bd6a643dc7b42ce62	254539631	1	practice_z	9	advance_on_keypress_ZEE	30	stimuli_target_diamondsquares.svg	stimuli_distractor_diamondtriangles.svg	3	yes	57	0	479
6.6.1	win	2022-12-14	14:08:09	14:15:32	442582	6369dd3bd6a643dc7b42ce62	254539631	1	practice_z	9	practice_z	31	stimuli_distractor_diamondtriangles.svg	stimuli_distractor_trianglediamonds.svg	14	no	0	1	2003
6.6.1	win	2022-12-14	14:08:09	14:15:32	442582	6369dd3bd6a643dc7b42ce62	254539631	1	practice_z	9	advance_on_keypress_ZEE	32	stimuli_distractor_diamondtriangles.svg	stimuli_distractor_trianglediamonds.svg	14	no	57	0	641
6.6.1	win	2022-12-14	14:08:09	14:15:45	455321	6369dd3bd6a643dc7b42ce62	254539631	1	main_z	11	main_z	1	stimuli_distractor_diamondtriangles.svg	stimuli_target_trianglecircles.svg	29	yes	44	1	898
6.6.1	win	2022-12-14	14:08:09	14:15:45	455321	6369dd3bd6a643dc7b42ce62	254539631	1	main_z	11	advance_on_keypress_ZEE	2	stimuli_distractor_diamondtriangles.svg	stimuli_target_trianglecircles.svg	29	yes	57	0	873
6.6.1	win	2022-12-14	14:08:09	14:15:47	457634	6369dd3bd6a643dc7b42ce62	254539631	1	main_z	11	main_z	3	stimuli_distractor_trianglediamonds.svg	stimuli_target_squarediamonds.svg	12	yes	44	1	793
6.6.1	win	2022-12-14	14:08:09	14:15:47	457634	6369dd3bd6a643dc7b42ce62	254539631	1	main_z	11	advance_on_keypress_ZEE	4	stimuli_distractor_trianglediamonds.svg	stimuli_target_squarediamonds.svg	12	yes	57	0	778
6.6.1	win	2022-12-14	14:08:09	14:15:49	459575	6369dd3bd6a643dc7b42ce62	254539631	1	main_z	11	main_z	5	stimuli_target_diamondcircles.svg	stimuli_distractor_trianglediamonds.svg	19	yes	44	1	533
6.6.1	win	2022-12-14	14:08:09	14:15:49	459575	6369dd3bd6a643dc7b42ce62	254539631	1	main_z	11	advance_on_keypress_ZEE	6	stimuli_target_diamondcircles.svg	stimuli_distractor_trianglediamonds.svg	19	yes	57	0	978
6.6.1	win	2022-12-14	14:08:09	14:15:52	461893	6369dd3bd6a643dc7b42ce62	254539631	1	main_z	11	main_z	7	stimuli_target_diamondcircles.svg	stimuli_distractor_diamondtriangles.svg	23	yes	44	1	712
6.6.1	win	2022-12-14	14:08:09	14:15:52	461893	6369dd3bd6a643dc7b42ce62	254539631	1	main_z	11	advance_on_keypress_ZEE	8	stimuli_target_diamondcircles.svg	stimuli_distractor_diamondtriangles.svg	23	yes	57	0	627
6.6.1	win	2022-12-14	14:08:09	14:15:54	463839	6369dd3bd6a643dc7b42ce62	254539631	1	main_z	11	main_z	9	stimuli_distractor_trianglediamonds.svg	stimuli_target_diamondsquares.svg	28	yes	44	1	685
6.6.1	win	2022-12-14	14:08:09	14:15:54	463839	6369dd3bd6a643dc7b42ce62	254539631	1	main_z	11	advance_on_keypress_ZEE	10	stimuli_distractor_trianglediamonds.svg	stimuli_target_diamondsquares.svg	28	yes	57	0	607
6.6.1	win	2022-12-14	14:08:09	14:15:56	465797	6369dd3bd6a643dc7b42ce62	254539631	1	main_z	11	main_z	11	stimuli_target_squarediamonds.svg	stimuli_distractor_diamondtriangles.svg	8	yes	44	1	716
6.6.1	win	2022-12-14	14:08:09	14:15:56	465797	6369dd3bd6a643dc7b42ce62	254539631	1	main_z	11	advance_on_keypress_ZEE	12	stimuli_target_squarediamonds.svg	stimuli_distractor_diamondtriangles.svg	8	yes	57	0	523
6.6.1	win	2022-12-14	14:08:09	14:15:57	467445	6369dd3bd6a643dc7b42ce62	254539631	1	main_z	11	main_z	13	stimuli_distractor_trianglediamonds.svg	stimuli_target_circletriangles.svg	9	yes	44	1	494
6.6.1	win	2022-12-14	14:08:09	14:15:57	467445	6369dd3bd6a643dc7b42ce62	254539631	1	main_z	11	advance_on_keypress_ZEE	14	stimuli_distractor_trianglediamonds.svg	stimuli_target_circletriangles.svg	9	yes	57	0	466
6.6.1	win	2022-12-14	14:08:09	14:15:59	468978	6369dd3bd6a643dc7b42ce62	254539631	1	main_z	11	main_z	15	stimuli_distractor_diamondtriangles.svg	stimuli_target_circletriangles.svg	13	yes	44	1	442
6.6.1	win	2022-12-14	14:08:09	14:15:59	468978	6369dd3bd6a643dc7b42ce62	254539631	1	main_z	11	advance_on_keypress_ZEE	16	stimuli_distractor_diamondtriangles.svg	stimuli_target_circletriangles.svg	13	yes	57	0	406
6.6.1	win	2022-12-14	14:08:09	14:16:01	470892	6369dd3bd6a643dc7b42ce62	254539631	1	main_z	11	main_z	17	stimuli_target_diamondsquares.svg	stimuli_distractor_diamondtriangles.svg	24	yes	44	1	887
6.6.1	win	2022-12-14	14:08:09	14:16:01	470892	6369dd3bd6a643dc7b42ce62	254539631	1	main_z	11	advance_on_keypress_ZEE	18	stimuli_target_diamondsquares.svg	stimuli_distractor_diamondtriangles.svg	24	yes	57	0	392
6.6.1	win	2022-12-14	14:08:09	14:16:03	472855	6369dd3bd6a643dc7b42ce62	254539631	1	main_z	11	main_z	19	stimuli_distractor_trianglediamonds.svg	stimuli_target_squaretriangles.svg	11	yes	44	1	937
6.6.1	win	2022-12-14	14:08:09	14:16:03	472855	6369dd3bd6a643dc7b42ce62	254539631	1	main_z	11	advance_on_keypress_ZEE	20	stimuli_distractor_trianglediamonds.svg	stimuli_target_squaretriangles.svg	11	yes	57	0	294
6.6.1	win	2022-12-14	14:08:09	14:16:04	474373	6369dd3bd6a643dc7b42ce62	254539631	1	main_z	11	main_z	21	stimuli_target_circlediamonds.svg	stimuli_distractor_trianglediamonds.svg	2	yes	44	1	587
6.6.1	win	2022-12-14	14:08:09	14:16:04	474373	6369dd3bd6a643dc7b42ce62	254539631	1	main_z	11	advance_on_keypress_ZEE	22	stimuli_target_circlediamonds.svg	stimuli_distractor_trianglediamonds.svg	2	yes	57	0	447
6.6.1	win	2022-12-14	14:08:09	14:16:07	477450	6369dd3bd6a643dc7b42ce62	254539631	1	main_z	11	main_z	23	stimuli_distractor_diamondtriangles.svg	stimuli_distractor_trianglediamonds.svg	38	no	0	1	2003
6.6.1	win	2022-12-14	14:08:09	14:16:07	477450	6369dd3bd6a643dc7b42ce62	254539631	1	main_z	11	advance_on_keypress_ZEE	24	stimuli_distractor_diamondtriangles.svg	stimuli_distractor_trianglediamonds.svg	38	no	57	0	934
6.6.1	win	2022-12-14	14:08:09	14:16:09	479511	6369dd3bd6a643dc7b42ce62	254539631	1	main_z	11	main_z	25	stimuli_distractor_diamondtriangles.svg	stimuli_target_squaretriangles.svg	15	yes	44	1	501
6.6.1	win	2022-12-14	14:08:09	14:16:09	479511	6369dd3bd6a643dc7b42ce62	254539631	1	main_z	11	advance_on_keypress_ZEE	26	stimuli_distractor_diamondtriangles.svg	stimuli_target_squaretriangles.svg	15	yes	57	0	747
6.6.1	win	2022-12-14	14:08:09	14:16:11	481459	6369dd3bd6a643dc7b42ce62	254539631	1	main_z	11	main_z	27	stimuli_distractor_diamondtriangles.svg	stimuli_target_trianglesquares.svg	30	yes	44	1	566
6.6.1	win	2022-12-14	14:08:09	14:16:11	481459	6369dd3bd6a643dc7b42ce62	254539631	1	main_z	11	advance_on_keypress_ZEE	28	stimuli_distractor_diamondtriangles.svg	stimuli_target_trianglesquares.svg	30	yes	57	0	548
6.6.1	win	2022-12-14	14:08:09	14:16:13	483243	6369dd3bd6a643dc7b42ce62	254539631	1	main_z	11	main_z	29	stimuli_target_diamondsquares.svg	stimuli_distractor_trianglediamonds.svg	20	yes	44	1	587
6.6.1	win	2022-12-14	14:08:09	14:16:13	483243	6369dd3bd6a643dc7b42ce62	254539631	1	main_z	11	advance_on_keypress_ZEE	30	stimuli_target_diamondsquares.svg	stimuli_distractor_trianglediamonds.svg	20	yes	57	0	496
6.6.1	win	2022-12-14	14:08:09	14:16:15	484973	6369dd3bd6a643dc7b42ce62	254539631	1	main_z	11	main_z	31	stimuli_distractor_trianglediamonds.svg	stimuli_target_trianglesquares.svg	26	yes	44	1	614
6.6.1	win	2022-12-14	14:08:09	14:16:15	484973	6369dd3bd6a643dc7b42ce62	254539631	1	main_z	11	advance_on_keypress_ZEE	32	stimuli_distractor_trianglediamonds.svg	stimuli_target_trianglesquares.svg	26	yes	57	0	498
6.6.1	win	2022-12-14	14:08:09	14:16:18	488121	6369dd3bd6a643dc7b42ce62	254539631	1	main_z	11	main_z	33	stimuli_distractor_trianglediamonds.svg	stimuli_distractor_trianglediamonds.svg	33	no	0	1	2003
6.6.1	win	2022-12-14	14:08:09	14:16:18	488121	6369dd3bd6a643dc7b42ce62	254539631	1	main_z	11	advance_on_keypress_ZEE	34	stimuli_distractor_trianglediamonds.svg	stimuli_distractor_trianglediamonds.svg	33	no	57	0	1208
6.6.1	win	2022-12-14	14:08:09	14:16:21	490789	6369dd3bd6a643dc7b42ce62	254539631	1	main_z	11	main_z	35	stimuli_target_trianglesquares.svg	stimuli_distractor_diamondtriangles.svg	22	yes	44	1	827
6.6.1	win	2022-12-14	14:08:09	14:16:21	490789	6369dd3bd6a643dc7b42ce62	254539631	1	main_z	11	advance_on_keypress_ZEE	36	stimuli_target_trianglesquares.svg	stimuli_distractor_diamondtriangles.svg	22	yes	57	0	445
6.6.1	win	2022-12-14	14:08:09	14:16:23	492678	6369dd3bd6a643dc7b42ce62	254539631	1	main_z	11	main_z	37	stimuli_distractor_trianglediamonds.svg	stimuli_target_circlediamonds.svg	10	yes	44	1	804
6.6.1	win	2022-12-14	14:08:09	14:16:23	492678	6369dd3bd6a643dc7b42ce62	254539631	1	main_z	11	advance_on_keypress_ZEE	38	stimuli_distractor_trianglediamonds.svg	stimuli_target_circlediamonds.svg	10	yes	57	0	659
6.6.1	win	2022-12-14	14:08:09	14:16:26	495958	6369dd3bd6a643dc7b42ce62	254539631	1	main_z	11	main_z	39	stimuli_distractor_trianglediamonds.svg	stimuli_distractor_diamondtriangles.svg	35	no	0	1	2003
6.6.1	win	2022-12-14	14:08:09	14:16:26	495958	6369dd3bd6a643dc7b42ce62	254539631	1	main_z	11	advance_on_keypress_ZEE	40	stimuli_distractor_trianglediamonds.svg	stimuli_distractor_diamondtriangles.svg	35	no	57	0	515
6.6.1	win	2022-12-14	14:08:09	14:16:29	499100	6369dd3bd6a643dc7b42ce62	254539631	1	main_z	11	main_z	41	stimuli_distractor_trianglediamonds.svg	stimuli_distractor_diamondtriangles.svg	36	no	0	1	2003
6.6.1	win	2022-12-14	14:08:09	14:16:29	499100	6369dd3bd6a643dc7b42ce62	254539631	1	main_z	11	advance_on_keypress_ZEE	42	stimuli_distractor_trianglediamonds.svg	stimuli_distractor_diamondtriangles.svg	36	no	57	0	418
6.6.1	win	2022-12-14	14:08:09	14:16:32	502145	6369dd3bd6a643dc7b42ce62	254539631	1	main_z	11	main_z	43	stimuli_distractor_diamondtriangles.svg	stimuli_distractor_diamondtriangles.svg	39	no	0	1	2003
6.6.1	win	2022-12-14	14:08:09	14:16:32	502145	6369dd3bd6a643dc7b42ce62	254539631	1	main_z	11	advance_on_keypress_ZEE	44	stimuli_distractor_diamondtriangles.svg	stimuli_distractor_diamondtriangles.svg	39	no	57	0	352
6.6.1	win	2022-12-14	14:08:09	14:16:33	503609	6369dd3bd6a643dc7b42ce62	254539631	1	main_z	11	main_z	45	stimuli_distractor_diamondtriangles.svg	stimuli_target_circlediamonds.svg	14	yes	44	1	486
6.6.1	win	2022-12-14	14:08:09	14:16:33	503609	6369dd3bd6a643dc7b42ce62	254539631	1	main_z	11	advance_on_keypress_ZEE	46	stimuli_distractor_diamondtriangles.svg	stimuli_target_circlediamonds.svg	14	yes	57	0	404
6.6.1	win	2022-12-14	14:08:09	14:16:35	505337	6369dd3bd6a643dc7b42ce62	254539631	1	main_z	11	main_z	47	stimuli_target_circlediamonds.svg	stimuli_distractor_diamondtriangles.svg	6	yes	44	1	700
6.6.1	win	2022-12-14	14:08:09	14:16:35	505337	6369dd3bd6a643dc7b42ce62	254539631	1	main_z	11	advance_on_keypress_ZEE	48	stimuli_target_circlediamonds.svg	stimuli_distractor_diamondtriangles.svg	6	yes	57	0	735
6.6.1	win	2022-12-14	14:08:09	14:16:37	507482	6369dd3bd6a643dc7b42ce62	254539631	1	main_z	11	main_z	49	stimuli_distractor_diamondtriangles.svg	stimuli_target_squarediamonds.svg	16	yes	44	1	777
6.6.1	win	2022-12-14	14:08:09	14:16:37	507482	6369dd3bd6a643dc7b42ce62	254539631	1	main_z	11	advance_on_keypress_ZEE	50	stimuli_distractor_diamondtriangles.svg	stimuli_target_squarediamonds.svg	16	yes	57	0	392
6.6.1	win	2022-12-14	14:08:09	14:16:39	509119	6369dd3bd6a643dc7b42ce62	254539631	1	main_z	11	main_z	51	stimuli_target_squarediamonds.svg	stimuli_distractor_trianglediamonds.svg	4	yes	44	1	623
6.6.1	win	2022-12-14	14:08:09	14:16:39	509119	6369dd3bd6a643dc7b42ce62	254539631	1	main_z	11	advance_on_keypress_ZEE	52	stimuli_target_squarediamonds.svg	stimuli_distractor_trianglediamonds.svg	4	yes	57	0	400
6.6.1	win	2022-12-14	14:08:09	14:16:41	510723	6369dd3bd6a643dc7b42ce62	254539631	1	main_z	11	main_z	53	stimuli_distractor_trianglediamonds.svg	stimuli_target_trianglecircles.svg	25	yes	44	1	574
6.6.1	win	2022-12-14	14:08:09	14:16:41	510723	6369dd3bd6a643dc7b42ce62	254539631	1	main_z	11	advance_on_keypress_ZEE	54	stimuli_distractor_trianglediamonds.svg	stimuli_target_trianglecircles.svg	25	yes	57	0	485
6.6.1	win	2022-12-14	14:08:09	14:16:42	512406	6369dd3bd6a643dc7b42ce62	254539631	1	main_z	11	main_z	55	stimuli_distractor_trianglediamonds.svg	stimuli_target_diamondcircles.svg	27	yes	44	1	562
6.6.1	win	2022-12-14	14:08:09	14:16:42	512406	6369dd3bd6a643dc7b42ce62	254539631	1	main_z	11	advance_on_keypress_ZEE	56	stimuli_distractor_trianglediamonds.svg	stimuli_target_diamondcircles.svg	27	yes	57	0	364
6.6.1	win	2022-12-14	14:08:09	14:16:44	513906	6369dd3bd6a643dc7b42ce62	254539631	1	main_z	11	main_z	57	stimuli_target_trianglecircles.svg	stimuli_distractor_diamondtriangles.svg	21	yes	44	1	515
6.6.1	win	2022-12-14	14:08:09	14:16:44	513906	6369dd3bd6a643dc7b42ce62	254539631	1	main_z	11	advance_on_keypress_ZEE	58	stimuli_target_trianglecircles.svg	stimuli_distractor_diamondtriangles.svg	21	yes	57	0	366
6.6.1	win	2022-12-14	14:08:09	14:16:45	515470	6369dd3bd6a643dc7b42ce62	254539631	1	main_z	11	main_z	59	stimuli_target_trianglesquares.svg	stimuli_distractor_trianglediamonds.svg	18	yes	44	1	566
6.6.1	win	2022-12-14	14:08:09	14:16:45	515470	6369dd3bd6a643dc7b42ce62	254539631	1	main_z	11	advance_on_keypress_ZEE	60	stimuli_target_trianglesquares.svg	stimuli_distractor_trianglediamonds.svg	18	yes	57	0	807
6.6.1	win	2022-12-14	14:08:09	14:16:47	517414	6369dd3bd6a643dc7b42ce62	254539631	1	main_z	11	main_z	61	stimuli_target_circletriangles.svg	stimuli_distractor_diamondtriangles.svg	5	yes	44	1	493
6.6.1	win	2022-12-14	14:08:09	14:16:47	517414	6369dd3bd6a643dc7b42ce62	254539631	1	main_z	11	advance_on_keypress_ZEE	62	stimuli_target_circletriangles.svg	stimuli_distractor_diamondtriangles.svg	5	yes	57	0	380
6.6.1	win	2022-12-14	14:08:09	14:16:49	518984	6369dd3bd6a643dc7b42ce62	254539631	1	main_z	11	main_z	63	stimuli_distractor_diamondtriangles.svg	stimuli_target_diamondsquares.svg	32	yes	44	1	567
6.6.1	win	2022-12-14	14:08:09	14:16:49	518984	6369dd3bd6a643dc7b42ce62	254539631	1	main_z	11	advance_on_keypress_ZEE	64	stimuli_distractor_diamondtriangles.svg	stimuli_target_diamondsquares.svg	32	yes	57	0	355
6.6.1	win	2022-12-14	14:08:09	14:16:52	521969	6369dd3bd6a643dc7b42ce62	254539631	1	main_z	11	main_z	65	stimuli_distractor_trianglediamonds.svg	stimuli_distractor_trianglediamonds.svg	34	no	0	1	2003
6.6.1	win	2022-12-14	14:08:09	14:16:52	521969	6369dd3bd6a643dc7b42ce62	254539631	1	main_z	11	advance_on_keypress_ZEE	66	stimuli_distractor_trianglediamonds.svg	stimuli_distractor_trianglediamonds.svg	34	no	57	0	517
6.6.1	win	2022-12-14	14:08:09	14:16:54	523850	6369dd3bd6a643dc7b42ce62	254539631	1	main_z	11	main_z	67	stimuli_target_squaretriangles.svg	stimuli_distractor_trianglediamonds.svg	3	yes	44	1	731
6.6.1	win	2022-12-14	14:08:09	14:16:54	523850	6369dd3bd6a643dc7b42ce62	254539631	1	main_z	11	advance_on_keypress_ZEE	68	stimuli_target_squaretriangles.svg	stimuli_distractor_trianglediamonds.svg	3	yes	57	0	409
6.6.1	win	2022-12-14	14:08:09	14:16:57	526896	6369dd3bd6a643dc7b42ce62	254539631	1	main_z	11	main_z	69	stimuli_distractor_diamondtriangles.svg	stimuli_distractor_diamondtriangles.svg	40	no	0	1	2003
6.6.1	win	2022-12-14	14:08:09	14:16:57	526896	6369dd3bd6a643dc7b42ce62	254539631	1	main_z	11	advance_on_keypress_ZEE	70	stimuli_distractor_diamondtriangles.svg	stimuli_distractor_diamondtriangles.svg	40	no	57	0	580
6.6.1	win	2022-12-14	14:08:09	14:16:58	528651	6369dd3bd6a643dc7b42ce62	254539631	1	main_z	11	main_z	71	stimuli_target_trianglecircles.svg	stimuli_distractor_trianglediamonds.svg	17	yes	44	1	539
6.6.1	win	2022-12-14	14:08:09	14:16:58	528651	6369dd3bd6a643dc7b42ce62	254539631	1	main_z	11	advance_on_keypress_ZEE	72	stimuli_target_trianglecircles.svg	stimuli_distractor_trianglediamonds.svg	17	yes	57	0	311
6.6.1	win	2022-12-14	14:08:09	14:17:01	531617	6369dd3bd6a643dc7b42ce62	254539631	1	main_z	11	main_z	73	stimuli_distractor_diamondtriangles.svg	stimuli_distractor_trianglediamonds.svg	37	no	0	1	2003
6.6.1	win	2022-12-14	14:08:09	14:17:01	531617	6369dd3bd6a643dc7b42ce62	254539631	1	main_z	11	advance_on_keypress_ZEE	74	stimuli_distractor_diamondtriangles.svg	stimuli_distractor_trianglediamonds.svg	37	no	57	0	335
6.6.1	win	2022-12-14	14:08:09	14:17:03	533162	6369dd3bd6a643dc7b42ce62	254539631	1	main_z	11	main_z	75	stimuli_target_squaretriangles.svg	stimuli_distractor_diamondtriangles.svg	7	yes	44	1	572
6.6.1	win	2022-12-14	14:08:09	14:17:03	533162	6369dd3bd6a643dc7b42ce62	254539631	1	main_z	11	advance_on_keypress_ZEE	76	stimuli_target_squaretriangles.svg	stimuli_distractor_diamondtriangles.svg	7	yes	57	0	325
6.6.1	win	2022-12-14	14:08:09	14:17:05	534709	6369dd3bd6a643dc7b42ce62	254539631	1	main_z	11	main_z	77	stimuli_distractor_diamondtriangles.svg	stimuli_target_diamondcircles.svg	31	yes	44	1	597
6.6.1	win	2022-12-14	14:08:09	14:17:05	534709	6369dd3bd6a643dc7b42ce62	254539631	1	main_z	11	advance_on_keypress_ZEE	78	stimuli_distractor_diamondtriangles.svg	stimuli_target_diamondcircles.svg	31	yes	57	0	336
6.6.1	win	2022-12-14	14:08:09	14:17:06	536270	6369dd3bd6a643dc7b42ce62	254539631	1	main_z	11	main_z	79	stimuli_target_circletriangles.svg	stimuli_distractor_trianglediamonds.svg	1	yes	44	1	582
6.6.1	win	2022-12-14	14:08:09	14:17:06	536270	6369dd3bd6a643dc7b42ce62	254539631	1	main_z	11	advance_on_keypress_ZEE	80	stimuli_target_circletriangles.svg	stimuli_distractor_trianglediamonds.svg	1	yes	57	0	276
6.6.1	win	2022-12-14	14:08:09	14:17:08	538422	6369dd3bd6a643dc7b42ce62	254539631	1	main_z	11	main_z	81	stimuli_distractor_trianglediamonds.svg	stimuli_target_circlediamonds.svg	10	yes	44	1	1237
6.6.1	win	2022-12-14	14:08:09	14:17:08	538422	6369dd3bd6a643dc7b42ce62	254539631	1	main_z	11	advance_on_keypress_ZEE	82	stimuli_distractor_trianglediamonds.svg	stimuli_target_circlediamonds.svg	10	yes	57	0	598
6.6.1	win	2022-12-14	14:08:09	14:17:10	540257	6369dd3bd6a643dc7b42ce62	254539631	1	main_z	11	main_z	83	stimuli_target_diamondcircles.svg	stimuli_distractor_diamondtriangles.svg	23	yes	44	1	592
6.6.1	win	2022-12-14	14:08:09	14:17:10	540257	6369dd3bd6a643dc7b42ce62	254539631	1	main_z	11	advance_on_keypress_ZEE	84	stimuli_target_diamondcircles.svg	stimuli_distractor_diamondtriangles.svg	23	yes	57	0	511
6.6.1	win	2022-12-14	14:08:09	14:17:12	541947	6369dd3bd6a643dc7b42ce62	254539631	1	main_z	11	main_z	85	stimuli_target_diamondsquares.svg	stimuli_distractor_diamondtriangles.svg	24	yes	44	1	527
6.6.1	win	2022-12-14	14:08:09	14:17:12	541947	6369dd3bd6a643dc7b42ce62	254539631	1	main_z	11	advance_on_keypress_ZEE	86	stimuli_target_diamondsquares.svg	stimuli_distractor_diamondtriangles.svg	24	yes	57	0	383
6.6.1	win	2022-12-14	14:08:09	14:17:14	543734	6369dd3bd6a643dc7b42ce62	254539631	1	main_z	11	main_z	87	stimuli_distractor_trianglediamonds.svg	stimuli_target_trianglesquares.svg	26	yes	44	1	764
6.6.1	win	2022-12-14	14:08:09	14:17:14	543734	6369dd3bd6a643dc7b42ce62	254539631	1	main_z	11	advance_on_keypress_ZEE	88	stimuli_distractor_trianglediamonds.svg	stimuli_target_trianglesquares.svg	26	yes	57	0	680
6.6.1	win	2022-12-14	14:08:09	14:17:16	545749	6369dd3bd6a643dc7b42ce62	254539631	1	main_z	11	main_z	89	stimuli_target_squaretriangles.svg	stimuli_distractor_diamondtriangles.svg	7	yes	44	1	691
6.6.1	win	2022-12-14	14:08:09	14:17:16	545749	6369dd3bd6a643dc7b42ce62	254539631	1	main_z	11	advance_on_keypress_ZEE	90	stimuli_target_squaretriangles.svg	stimuli_distractor_diamondtriangles.svg	7	yes	57	0	454
6.6.1	win	2022-12-14	14:08:09	14:17:18	547830	6369dd3bd6a643dc7b42ce62	254539631	1	main_z	11	main_z	91	stimuli_target_diamondsquares.svg	stimuli_distractor_trianglediamonds.svg	20	yes	44	1	1001
6.6.1	win	2022-12-14	14:08:09	14:17:18	547830	6369dd3bd6a643dc7b42ce62	254539631	1	main_z	11	advance_on_keypress_ZEE	92	stimuli_target_diamondsquares.svg	stimuli_distractor_trianglediamonds.svg	20	yes	57	0	474
6.6.1	win	2022-12-14	14:08:09	14:17:21	550941	6369dd3bd6a643dc7b42ce62	254539631	1	main_z	11	main_z	93	stimuli_distractor_trianglediamonds.svg	stimuli_distractor_trianglediamonds.svg	34	no	0	1	2003
6.6.1	win	2022-12-14	14:08:09	14:17:21	550941	6369dd3bd6a643dc7b42ce62	254539631	1	main_z	11	advance_on_keypress_ZEE	94	stimuli_distractor_trianglediamonds.svg	stimuli_distractor_trianglediamonds.svg	34	no	57	0	382
6.6.1	win	2022-12-14	14:08:09	14:17:22	552443	6369dd3bd6a643dc7b42ce62	254539631	1	main_z	11	main_z	95	stimuli_target_squarediamonds.svg	stimuli_distractor_diamondtriangles.svg	8	yes	44	1	484
6.6.1	win	2022-12-14	14:08:09	14:17:22	552443	6369dd3bd6a643dc7b42ce62	254539631	1	main_z	11	advance_on_keypress_ZEE	96	stimuli_target_squarediamonds.svg	stimuli_distractor_diamondtriangles.svg	8	yes	57	0	2102
6.6.1	win	2022-12-14	14:08:09	14:17:26	555850	6369dd3bd6a643dc7b42ce62	254539631	1	main_z	11	main_z	97	stimuli_target_circlediamonds.svg	stimuli_distractor_trianglediamonds.svg	2	yes	44	1	674
6.6.1	win	2022-12-14	14:08:09	14:17:26	555850	6369dd3bd6a643dc7b42ce62	254539631	1	main_z	11	advance_on_keypress_ZEE	98	stimuli_target_circlediamonds.svg	stimuli_distractor_trianglediamonds.svg	2	yes	57	0	338
6.6.1	win	2022-12-14	14:08:09	14:17:27	557299	6369dd3bd6a643dc7b42ce62	254539631	1	main_z	11	main_z	99	stimuli_target_circletriangles.svg	stimuli_distractor_diamondtriangles.svg	5	yes	44	1	489
6.6.1	win	2022-12-14	14:08:09	14:17:27	557299	6369dd3bd6a643dc7b42ce62	254539631	1	main_z	11	advance_on_keypress_ZEE	100	stimuli_target_circletriangles.svg	stimuli_distractor_diamondtriangles.svg	5	yes	57	0	439
6.6.1	win	2022-12-14	14:08:09	14:17:29	558828	6369dd3bd6a643dc7b42ce62	254539631	1	main_z	11	main_z	101	stimuli_target_circlediamonds.svg	stimuli_distractor_diamondtriangles.svg	6	yes	44	1	463
6.6.1	win	2022-12-14	14:08:09	14:17:29	558828	6369dd3bd6a643dc7b42ce62	254539631	1	main_z	11	advance_on_keypress_ZEE	102	stimuli_target_circlediamonds.svg	stimuli_distractor_diamondtriangles.svg	6	yes	57	0	449
6.6.1	win	2022-12-14	14:08:09	14:17:30	560541	6369dd3bd6a643dc7b42ce62	254539631	1	main_z	11	main_z	103	stimuli_target_trianglesquares.svg	stimuli_distractor_trianglediamonds.svg	18	yes	44	1	631
6.6.1	win	2022-12-14	14:08:09	14:17:30	560541	6369dd3bd6a643dc7b42ce62	254539631	1	main_z	11	advance_on_keypress_ZEE	104	stimuli_target_trianglesquares.svg	stimuli_distractor_trianglediamonds.svg	18	yes	57	0	445
6.6.1	win	2022-12-14	14:08:09	14:17:32	562137	6369dd3bd6a643dc7b42ce62	254539631	1	main_z	11	main_z	105	stimuli_distractor_trianglediamonds.svg	stimuli_target_diamondsquares.svg	28	yes	44	1	494
6.6.1	win	2022-12-14	14:08:09	14:17:32	562137	6369dd3bd6a643dc7b42ce62	254539631	1	main_z	11	advance_on_keypress_ZEE	106	stimuli_distractor_trianglediamonds.svg	stimuli_target_diamondsquares.svg	28	yes	57	0	407
6.6.1	win	2022-12-14	14:08:09	14:17:33	563653	6369dd3bd6a643dc7b42ce62	254539631	1	main_z	11	main_z	107	stimuli_distractor_diamondtriangles.svg	stimuli_target_circlediamonds.svg	14	yes	44	1	474
6.6.1	win	2022-12-14	14:08:09	14:17:33	563653	6369dd3bd6a643dc7b42ce62	254539631	1	main_z	11	advance_on_keypress_ZEE	108	stimuli_distractor_diamondtriangles.svg	stimuli_target_circlediamonds.svg	14	yes	57	0	367
6.6.1	win	2022-12-14	14:08:09	14:17:35	565105	6369dd3bd6a643dc7b42ce62	254539631	1	main_z	11	main_z	109	stimuli_target_trianglecircles.svg	stimuli_distractor_diamondtriangles.svg	21	yes	44	1	455
6.6.1	win	2022-12-14	14:08:09	14:17:35	565105	6369dd3bd6a643dc7b42ce62	254539631	1	main_z	11	advance_on_keypress_ZEE	110	stimuli_target_trianglecircles.svg	stimuli_distractor_diamondtriangles.svg	21	yes	57	0	390
6.6.1	win	2022-12-14	14:08:09	14:17:38	568121	6369dd3bd6a643dc7b42ce62	254539631	1	main_z	11	main_z	111	stimuli_distractor_trianglediamonds.svg	stimuli_distractor_trianglediamonds.svg	33	no	0	1	2003
6.6.1	win	2022-12-14	14:08:09	14:17:38	568121	6369dd3bd6a643dc7b42ce62	254539631	1	main_z	11	advance_on_keypress_ZEE	112	stimuli_distractor_trianglediamonds.svg	stimuli_distractor_trianglediamonds.svg	33	no	57	0	318
6.6.1	win	2022-12-14	14:08:09	14:17:39	569618	6369dd3bd6a643dc7b42ce62	254539631	1	main_z	11	main_z	113	stimuli_distractor_diamondtriangles.svg	stimuli_target_trianglecircles.svg	29	yes	44	1	529
6.6.1	win	2022-12-14	14:08:09	14:17:39	569618	6369dd3bd6a643dc7b42ce62	254539631	1	main_z	11	advance_on_keypress_ZEE	114	stimuli_distractor_diamondtriangles.svg	stimuli_target_trianglecircles.svg	29	yes	57	0	398
6.6.1	win	2022-12-14	14:08:09	14:17:42	572654	6369dd3bd6a643dc7b42ce62	254539631	1	main_z	11	main_z	115	stimuli_distractor_diamondtriangles.svg	stimuli_distractor_diamondtriangles.svg	39	no	0	1	2003
6.6.1	win	2022-12-14	14:08:09	14:17:42	572654	6369dd3bd6a643dc7b42ce62	254539631	1	main_z	11	advance_on_keypress_ZEE	116	stimuli_distractor_diamondtriangles.svg	stimuli_distractor_diamondtriangles.svg	39	no	57	0	576
6.6.1	win	2022-12-14	14:08:09	14:17:45	574812	6369dd3bd6a643dc7b42ce62	254539631	1	main_z	11	main_z	117	stimuli_target_trianglesquares.svg	stimuli_distractor_diamondtriangles.svg	22	yes	44	1	947
6.6.1	win	2022-12-14	14:08:09	14:17:45	574812	6369dd3bd6a643dc7b42ce62	254539631	1	main_z	11	advance_on_keypress_ZEE	118	stimuli_target_trianglesquares.svg	stimuli_distractor_diamondtriangles.svg	22	yes	57	0	7909
6.6.1	win	2022-12-14	14:08:09	14:17:55	585346	6369dd3bd6a643dc7b42ce62	254539631	1	main_z	11	main_z	119	stimuli_distractor_diamondtriangles.svg	stimuli_distractor_trianglediamonds.svg	38	no	0	1	2003
6.6.1	win	2022-12-14	14:08:09	14:17:55	585346	6369dd3bd6a643dc7b42ce62	254539631	1	main_z	11	advance_on_keypress_ZEE	120	stimuli_distractor_diamondtriangles.svg	stimuli_distractor_trianglediamonds.svg	38	no	57	0	1817
6.6.1	win	2022-12-14	14:08:09	14:18:00	589801	6369dd3bd6a643dc7b42ce62	254539631	1	main_z	11	main_z	121	stimuli_distractor_trianglediamonds.svg	stimuli_distractor_diamondtriangles.svg	36	no	0	1	2003
6.6.1	win	2022-12-14	14:08:09	14:18:00	589801	6369dd3bd6a643dc7b42ce62	254539631	1	main_z	11	advance_on_keypress_ZEE	122	stimuli_distractor_trianglediamonds.svg	stimuli_distractor_diamondtriangles.svg	36	no	57	0	400
6.6.1	win	2022-12-14	14:08:09	14:18:01	591323	6369dd3bd6a643dc7b42ce62	254539631	1	main_z	11	main_z	123	stimuli_distractor_diamondtriangles.svg	stimuli_target_diamondsquares.svg	32	yes	44	1	496
6.6.1	win	2022-12-14	14:08:09	14:18:01	591323	6369dd3bd6a643dc7b42ce62	254539631	1	main_z	11	advance_on_keypress_ZEE	124	stimuli_distractor_diamondtriangles.svg	stimuli_target_diamondsquares.svg	32	yes	57	0	1069
6.6.1	win	2022-12-14	14:08:09	14:18:03	593416	6369dd3bd6a643dc7b42ce62	254539631	1	main_z	11	main_z	125	stimuli_target_squaretriangles.svg	stimuli_distractor_trianglediamonds.svg	3	yes	44	1	404
6.6.1	win	2022-12-14	14:08:09	14:18:03	593416	6369dd3bd6a643dc7b42ce62	254539631	1	main_z	11	advance_on_keypress_ZEE	126	stimuli_target_squaretriangles.svg	stimuli_distractor_trianglediamonds.svg	3	yes	57	0	1117
6.6.1	win	2022-12-14	14:08:09	14:18:06	595687	6369dd3bd6a643dc7b42ce62	254539631	1	main_z	11	main_z	127	stimuli_distractor_diamondtriangles.svg	stimuli_target_squaretriangles.svg	15	yes	44	1	518
6.6.1	win	2022-12-14	14:08:09	14:18:06	595687	6369dd3bd6a643dc7b42ce62	254539631	1	main_z	11	advance_on_keypress_ZEE	128	stimuli_distractor_diamondtriangles.svg	stimuli_target_squaretriangles.svg	15	yes	57	0	635
6.6.1	win	2022-12-14	14:08:09	14:18:09	598954	6369dd3bd6a643dc7b42ce62	254539631	1	main_z	11	main_z	129	stimuli_distractor_diamondtriangles.svg	stimuli_distractor_trianglediamonds.svg	37	no	0	1	2003
6.6.1	win	2022-12-14	14:08:09	14:18:09	598954	6369dd3bd6a643dc7b42ce62	254539631	1	main_z	11	advance_on_keypress_ZEE	130	stimuli_distractor_diamondtriangles.svg	stimuli_distractor_trianglediamonds.svg	37	no	57	0	418
6.6.1	win	2022-12-14	14:08:09	14:18:10	600495	6369dd3bd6a643dc7b42ce62	254539631	1	main_z	11	main_z	131	stimuli_target_circletriangles.svg	stimuli_distractor_trianglediamonds.svg	1	yes	44	1	506
6.6.1	win	2022-12-14	14:08:09	14:18:10	600495	6369dd3bd6a643dc7b42ce62	254539631	1	main_z	11	advance_on_keypress_ZEE	132	stimuli_target_circletriangles.svg	stimuli_distractor_trianglediamonds.svg	1	yes	57	0	408
6.6.1	win	2022-12-14	14:08:09	14:18:12	602010	6369dd3bd6a643dc7b42ce62	254539631	1	main_z	11	main_z	133	stimuli_distractor_diamondtriangles.svg	stimuli_target_trianglesquares.svg	30	yes	44	1	473
6.6.1	win	2022-12-14	14:08:09	14:18:12	602010	6369dd3bd6a643dc7b42ce62	254539631	1	main_z	11	advance_on_keypress_ZEE	134	stimuli_distractor_diamondtriangles.svg	stimuli_target_trianglesquares.svg	30	yes	57	0	340
6.6.1	win	2022-12-14	14:08:09	14:18:13	603447	6369dd3bd6a643dc7b42ce62	254539631	1	main_z	11	main_z	135	stimuli_target_squarediamonds.svg	stimuli_distractor_trianglediamonds.svg	4	yes	44	1	468
6.6.1	win	2022-12-14	14:08:09	14:18:13	603447	6369dd3bd6a643dc7b42ce62	254539631	1	main_z	11	advance_on_keypress_ZEE	136	stimuli_target_squarediamonds.svg	stimuli_distractor_trianglediamonds.svg	4	yes	57	0	348
6.6.1	win	2022-12-14	14:08:09	14:18:16	606426	6369dd3bd6a643dc7b42ce62	254539631	1	main_z	11	main_z	137	stimuli_distractor_trianglediamonds.svg	stimuli_distractor_diamondtriangles.svg	35	no	0	1	2003
6.6.1	win	2022-12-14	14:08:09	14:18:16	606426	6369dd3bd6a643dc7b42ce62	254539631	1	main_z	11	advance_on_keypress_ZEE	138	stimuli_distractor_trianglediamonds.svg	stimuli_distractor_diamondtriangles.svg	35	no	57	0	503
6.6.1	win	2022-12-14	14:08:09	14:18:18	608021	6369dd3bd6a643dc7b42ce62	254539631	1	main_z	11	main_z	139	stimuli_distractor_trianglediamonds.svg	stimuli_target_squaretriangles.svg	11	yes	44	1	465
6.6.1	win	2022-12-14	14:08:09	14:18:18	608021	6369dd3bd6a643dc7b42ce62	254539631	1	main_z	11	advance_on_keypress_ZEE	140	stimuli_distractor_trianglediamonds.svg	stimuli_target_squaretriangles.svg	11	yes	57	0	380
6.6.1	win	2022-12-14	14:08:09	14:18:19	609551	6369dd3bd6a643dc7b42ce62	254539631	1	main_z	11	main_z	141	stimuli_distractor_diamondtriangles.svg	stimuli_target_diamondcircles.svg	31	yes	44	1	532
6.6.1	win	2022-12-14	14:08:09	14:18:19	609551	6369dd3bd6a643dc7b42ce62	254539631	1	main_z	11	advance_on_keypress_ZEE	142	stimuli_distractor_diamondtriangles.svg	stimuli_target_diamondcircles.svg	31	yes	57	0	369
6.6.1	win	2022-12-14	14:08:09	14:18:21	611076	6369dd3bd6a643dc7b42ce62	254539631	1	main_z	11	main_z	143	stimuli_distractor_trianglediamonds.svg	stimuli_target_squarediamonds.svg	12	yes	44	1	533
6.6.1	win	2022-12-14	14:08:09	14:18:21	611076	6369dd3bd6a643dc7b42ce62	254539631	1	main_z	11	advance_on_keypress_ZEE	144	stimuli_distractor_trianglediamonds.svg	stimuli_target_squarediamonds.svg	12	yes	57	0	388
6.6.1	win	2022-12-14	14:08:09	14:18:22	612579	6369dd3bd6a643dc7b42ce62	254539631	1	main_z	11	main_z	145	stimuli_target_diamondcircles.svg	stimuli_distractor_trianglediamonds.svg	19	yes	44	1	483
6.6.1	win	2022-12-14	14:08:09	14:18:22	612579	6369dd3bd6a643dc7b42ce62	254539631	1	main_z	11	advance_on_keypress_ZEE	146	stimuli_target_diamondcircles.svg	stimuli_distractor_trianglediamonds.svg	19	yes	57	0	362
6.6.1	win	2022-12-14	14:08:09	14:18:24	613967	6369dd3bd6a643dc7b42ce62	254539631	1	main_z	11	main_z	147	stimuli_distractor_trianglediamonds.svg	stimuli_target_diamondcircles.svg	27	yes	44	1	405
6.6.1	win	2022-12-14	14:08:09	14:18:24	613967	6369dd3bd6a643dc7b42ce62	254539631	1	main_z	11	advance_on_keypress_ZEE	148	stimuli_distractor_trianglediamonds.svg	stimuli_target_diamondcircles.svg	27	yes	57	0	332
6.6.1	win	2022-12-14	14:08:09	14:18:25	615324	6369dd3bd6a643dc7b42ce62	254539631	1	main_z	11	main_z	149	stimuli_distractor_trianglediamonds.svg	stimuli_target_trianglecircles.svg	25	yes	44	1	392
6.6.1	win	2022-12-14	14:08:09	14:18:25	615324	6369dd3bd6a643dc7b42ce62	254539631	1	main_z	11	advance_on_keypress_ZEE	150	stimuli_distractor_trianglediamonds.svg	stimuli_target_trianglecircles.svg	25	yes	57	0	345
6.6.1	win	2022-12-14	14:08:09	14:18:27	616758	6369dd3bd6a643dc7b42ce62	254539631	1	main_z	11	main_z	151	stimuli_distractor_diamondtriangles.svg	stimuli_target_circletriangles.svg	13	yes	44	1	454
6.6.1	win	2022-12-14	14:08:09	14:18:27	616758	6369dd3bd6a643dc7b42ce62	254539631	1	main_z	11	advance_on_keypress_ZEE	152	stimuli_distractor_diamondtriangles.svg	stimuli_target_circletriangles.svg	13	yes	57	0	318
6.6.1	win	2022-12-14	14:08:09	14:18:28	618274	6369dd3bd6a643dc7b42ce62	254539631	1	main_z	11	main_z	153	stimuli_distractor_diamondtriangles.svg	stimuli_target_squarediamonds.svg	16	yes	44	1	552
6.6.1	win	2022-12-14	14:08:09	14:18:28	618274	6369dd3bd6a643dc7b42ce62	254539631	1	main_z	11	advance_on_keypress_ZEE	154	stimuli_distractor_diamondtriangles.svg	stimuli_target_squarediamonds.svg	16	yes	57	0	357
6.6.1	win	2022-12-14	14:08:09	14:18:31	621258	6369dd3bd6a643dc7b42ce62	254539631	1	main_z	11	main_z	155	stimuli_distractor_diamondtriangles.svg	stimuli_distractor_diamondtriangles.svg	40	no	0	1	2003
6.6.1	win	2022-12-14	14:08:09	14:18:31	621258	6369dd3bd6a643dc7b42ce62	254539631	1	main_z	11	advance_on_keypress_ZEE	156	stimuli_distractor_diamondtriangles.svg	stimuli_distractor_diamondtriangles.svg	40	no	57	0	324
6.6.1	win	2022-12-14	14:08:09	14:18:33	622683	6369dd3bd6a643dc7b42ce62	254539631	1	main_z	11	main_z	157	stimuli_target_trianglecircles.svg	stimuli_distractor_trianglediamonds.svg	17	yes	44	1	466
6.6.1	win	2022-12-14	14:08:09	14:18:33	622683	6369dd3bd6a643dc7b42ce62	254539631	1	main_z	11	advance_on_keypress_ZEE	158	stimuli_target_trianglecircles.svg	stimuli_distractor_trianglediamonds.svg	17	yes	57	0	310
6.6.1	win	2022-12-14	14:08:09	14:18:34	624075	6369dd3bd6a643dc7b42ce62	254539631	1	main_z	11	main_z	159	stimuli_distractor_trianglediamonds.svg	stimuli_target_circletriangles.svg	9	yes	44	1	450
6.6.1	win	2022-12-14	14:08:09	14:18:34	624075	6369dd3bd6a643dc7b42ce62	254539631	1	main_z	11	advance_on_keypress_ZEE	160	stimuli_distractor_trianglediamonds.svg	stimuli_target_circletriangles.svg	9	yes	57	0	324