build	computer.platform	date	time	timestamp	time_elapsed_ms	subject	group	session	blockcode	blocknum	trialcode	trialnum	stimulus_left	stimulus_right	stim_index	target_present	response	correct	latency
6.6.1	win	2022-12-19	14:51:36	14:53:26	108658	5ee7f5443496da0e8d2203b9	441967289	1	practice_slash	5	practice_slash	1	stimuli_distractor_trianglediamonds.svg	stimuli_distractor_diamondtriangles.svg	16	no	0	1	2000
6.6.1	win	2022-12-19	14:51:36	14:53:26	108658	5ee7f5443496da0e8d2203b9	441967289	1	practice_slash	5	advance_on_keypress_SLASH	2	stimuli_distractor_trianglediamonds.svg	stimuli_distractor_diamondtriangles.svg	16	no	57	0	1072
6.6.1	win	2022-12-19	14:51:36	14:53:31	113357	5ee7f5443496da0e8d2203b9	441967289	1	practice_slash	5	practice_slash	3	stimuli_distractor_trianglediamonds.svg	stimuli_target_diamondcircles.svg	12	yes	53	1	1967
6.6.1	win	2022-12-19	14:51:36	14:53:31	113357	5ee7f5443496da0e8d2203b9	441967289	1	practice_slash	5	advance_on_keypress_SLASH	4	stimuli_distractor_trianglediamonds.svg	stimuli_target_diamondcircles.svg	12	yes	57	0	975
6.6.1	win	2022-12-19	14:51:36	14:53:36	117989	5ee7f5443496da0e8d2203b9	441967289	1	practice_slash	5	practice_slash	5	stimuli_target_diamondsquares.svg	stimuli_distractor_trianglediamonds.svg	6	yes	0	0	2000
6.6.1	win	2022-12-19	14:51:36	14:53:36	117989	5ee7f5443496da0e8d2203b9	441967289	1	practice_slash	5	advance_on_keypress_SLASH	6	stimuli_target_diamondsquares.svg	stimuli_distractor_trianglediamonds.svg	6	yes	57	0	741
6.6.1	win	2022-12-19	14:51:36	14:53:40	122371	5ee7f5443496da0e8d2203b9	441967289	1	practice_slash	5	practice_slash	7	stimuli_distractor_diamondtriangles.svg	stimuli_distractor_diamondtriangles.svg	13	no	0	1	2000
6.6.1	win	2022-12-19	14:51:36	14:53:40	122371	5ee7f5443496da0e8d2203b9	441967289	1	practice_slash	5	advance_on_keypress_SLASH	8	stimuli_distractor_diamondtriangles.svg	stimuli_distractor_diamondtriangles.svg	13	no	57	0	987
6.6.1	win	2022-12-19	14:51:36	14:53:44	126160	5ee7f5443496da0e8d2203b9	441967289	1	practice_slash	5	practice_slash	9	stimuli_distractor_diamondtriangles.svg	stimuli_target_trianglecircles.svg	9	yes	53	1	1156
6.6.1	win	2022-12-19	14:51:36	14:53:44	126160	5ee7f5443496da0e8d2203b9	441967289	1	practice_slash	5	advance_on_keypress_SLASH	10	stimuli_distractor_diamondtriangles.svg	stimuli_target_trianglecircles.svg	9	yes	57	0	554
6.6.1	win	2022-12-19	14:51:36	14:53:48	130353	5ee7f5443496da0e8d2203b9	441967289	1	practice_slash	5	practice_slash	11	stimuli_distractor_trianglediamonds.svg	stimuli_target_squarediamonds.svg	11	yes	0	0	2000
6.6.1	win	2022-12-19	14:51:36	14:53:48	130353	5ee7f5443496da0e8d2203b9	441967289	1	practice_slash	5	advance_on_keypress_SLASH	12	stimuli_distractor_trianglediamonds.svg	stimuli_target_squarediamonds.svg	11	yes	57	0	560
6.6.1	win	2022-12-19	14:51:36	14:53:52	134569	5ee7f5443496da0e8d2203b9	441967289	1	practice_slash	5	practice_slash	13	stimuli_distractor_diamondtriangles.svg	stimuli_distractor_trianglediamonds.svg	14	no	0	1	2000
6.6.1	win	2022-12-19	14:51:36	14:53:52	134569	5ee7f5443496da0e8d2203b9	441967289	1	practice_slash	5	advance_on_keypress_SLASH	14	stimuli_distractor_diamondtriangles.svg	stimuli_distractor_trianglediamonds.svg	14	no	57	0	776
6.6.1	win	2022-12-19	14:51:36	14:53:56	138290	5ee7f5443496da0e8d2203b9	441967289	1	practice_slash	5	practice_slash	15	stimuli_target_circlediamonds.svg	stimuli_distractor_trianglediamonds.svg	4	yes	53	1	1289
6.6.1	win	2022-12-19	14:51:36	14:53:56	138290	5ee7f5443496da0e8d2203b9	441967289	1	practice_slash	5	advance_on_keypress_SLASH	16	stimuli_target_circlediamonds.svg	stimuli_distractor_trianglediamonds.svg	4	yes	57	0	1413
6.6.1	win	2022-12-19	14:51:36	14:54:00	142269	5ee7f5443496da0e8d2203b9	441967289	1	practice_slash	5	practice_slash	17	stimuli_target_squarediamonds.svg	stimuli_distractor_diamondtriangles.svg	2	yes	53	1	919
6.6.1	win	2022-12-19	14:51:36	14:54:00	142269	5ee7f5443496da0e8d2203b9	441967289	1	practice_slash	5	advance_on_keypress_SLASH	18	stimuli_target_squarediamonds.svg	stimuli_distractor_diamondtriangles.svg	2	yes	57	0	794
6.6.1	win	2022-12-19	14:51:36	14:54:04	146716	5ee7f5443496da0e8d2203b9	441967289	1	practice_slash	5	practice_slash	19	stimuli_distractor_trianglediamonds.svg	stimuli_distractor_trianglediamonds.svg	15	no	0	1	2000
6.6.1	win	2022-12-19	14:51:36	14:54:04	146716	5ee7f5443496da0e8d2203b9	441967289	1	practice_slash	5	advance_on_keypress_SLASH	20	stimuli_distractor_trianglediamonds.svg	stimuli_distractor_trianglediamonds.svg	15	no	57	0	483
6.6.1	win	2022-12-19	14:51:36	14:54:07	149775	5ee7f5443496da0e8d2203b9	441967289	1	practice_slash	5	practice_slash	21	stimuli_distractor_trianglediamonds.svg	stimuli_target_circlediamonds.svg	10	yes	53	1	926
6.6.1	win	2022-12-19	14:51:36	14:54:07	149775	5ee7f5443496da0e8d2203b9	441967289	1	practice_slash	5	advance_on_keypress_SLASH	22	stimuli_distractor_trianglediamonds.svg	stimuli_target_circlediamonds.svg	10	yes	57	0	745
6.6.1	win	2022-12-19	14:51:36	14:54:11	153077	5ee7f5443496da0e8d2203b9	441967289	1	practice_slash	5	practice_slash	23	stimuli_target_squarediamonds.svg	stimuli_distractor_trianglediamonds.svg	5	yes	53	1	896
6.6.1	win	2022-12-19	14:51:36	14:54:11	153077	5ee7f5443496da0e8d2203b9	441967289	1	practice_slash	5	advance_on_keypress_SLASH	24	stimuli_target_squarediamonds.svg	stimuli_distractor_trianglediamonds.svg	5	yes	57	0	1029
6.6.1	win	2022-12-19	14:51:36	14:54:14	156721	5ee7f5443496da0e8d2203b9	441967289	1	practice_slash	5	practice_slash	25	stimuli_target_circlediamonds.svg	stimuli_distractor_diamondtriangles.svg	1	yes	53	1	958
6.6.1	win	2022-12-19	14:51:36	14:54:14	156721	5ee7f5443496da0e8d2203b9	441967289	1	practice_slash	5	advance_on_keypress_SLASH	26	stimuli_target_circlediamonds.svg	stimuli_distractor_diamondtriangles.svg	1	yes	57	0	654
6.6.1	win	2022-12-19	14:51:36	14:54:19	161012	5ee7f5443496da0e8d2203b9	441967289	1	practice_slash	5	practice_slash	27	stimuli_target_diamondsquares.svg	stimuli_distractor_diamondtriangles.svg	3	yes	0	0	2000
6.6.1	win	2022-12-19	14:51:36	14:54:19	161012	5ee7f5443496da0e8d2203b9	441967289	1	practice_slash	5	advance_on_keypress_SLASH	28	stimuli_target_diamondsquares.svg	stimuli_distractor_diamondtriangles.svg	3	yes	57	0	450
6.6.1	win	2022-12-19	14:51:36	14:54:22	164014	5ee7f5443496da0e8d2203b9	441967289	1	practice_slash	5	practice_slash	29	stimuli_distractor_diamondtriangles.svg	stimuli_target_diamondcircles.svg	8	yes	53	1	903
6.6.1	win	2022-12-19	14:51:36	14:54:22	164014	5ee7f5443496da0e8d2203b9	441967289	1	practice_slash	5	advance_on_keypress_SLASH	30	stimuli_distractor_diamondtriangles.svg	stimuli_target_diamondcircles.svg	8	yes	57	0	562
6.6.1	win	2022-12-19	14:51:36	14:54:26	168227	5ee7f5443496da0e8d2203b9	441967289	1	practice_slash	5	practice_slash	31	stimuli_distractor_diamondtriangles.svg	stimuli_target_circletriangles.svg	7	yes	0	0	2000
6.6.1	win	2022-12-19	14:51:36	14:54:26	168227	5ee7f5443496da0e8d2203b9	441967289	1	practice_slash	5	advance_on_keypress_SLASH	32	stimuli_distractor_diamondtriangles.svg	stimuli_target_circletriangles.svg	7	yes	57	0	511
6.6.1	win	2022-12-19	14:51:36	14:54:36	178689	5ee7f5443496da0e8d2203b9	441967289	1	main_slash	7	main_slash	1	stimuli_target_diamondsquares.svg	stimuli_distractor_trianglediamonds.svg	20	yes	0	0	2000
6.6.1	win	2022-12-19	14:51:36	14:54:36	178689	5ee7f5443496da0e8d2203b9	441967289	1	main_slash	7	advance_on_keypress_SLASH	2	stimuli_target_diamondsquares.svg	stimuli_distractor_trianglediamonds.svg	20	yes	57	0	663
6.6.1	win	2022-12-19	14:51:36	14:54:38	180739	5ee7f5443496da0e8d2203b9	441967289	1	main_slash	7	main_slash	3	stimuli_distractor_trianglediamonds.svg	stimuli_target_squaretriangles.svg	11	yes	53	1	735
6.6.1	win	2022-12-19	14:51:36	14:54:38	180739	5ee7f5443496da0e8d2203b9	441967289	1	main_slash	7	advance_on_keypress_SLASH	4	stimuli_distractor_trianglediamonds.svg	stimuli_target_squaretriangles.svg	11	yes	57	0	894
6.6.1	win	2022-12-19	14:51:36	14:54:42	184271	5ee7f5443496da0e8d2203b9	441967289	1	main_slash	7	main_slash	5	stimuli_distractor_trianglediamonds.svg	stimuli_target_trianglesquares.svg	26	yes	0	0	2000
6.6.1	win	2022-12-19	14:51:36	14:54:42	184271	5ee7f5443496da0e8d2203b9	441967289	1	main_slash	7	advance_on_keypress_SLASH	6	stimuli_distractor_trianglediamonds.svg	stimuli_target_trianglesquares.svg	26	yes	57	0	385
6.6.1	win	2022-12-19	14:51:36	14:54:44	186082	5ee7f5443496da0e8d2203b9	441967289	1	main_slash	7	main_slash	7	stimuli_distractor_diamondtriangles.svg	stimuli_distractor_diamondtriangles.svg	39	no	53	0	778
6.6.1	win	2022-12-19	14:51:36	14:54:44	186082	5ee7f5443496da0e8d2203b9	441967289	1	main_slash	7	advance_on_keypress_SLASH	8	stimuli_distractor_diamondtriangles.svg	stimuli_distractor_diamondtriangles.svg	39	no	57	0	650
6.6.1	win	2022-12-19	14:51:36	14:54:46	188342	5ee7f5443496da0e8d2203b9	441967289	1	main_slash	7	main_slash	9	stimuli_target_trianglecircles.svg	stimuli_distractor_diamondtriangles.svg	21	yes	53	1	972
6.6.1	win	2022-12-19	14:51:36	14:54:46	188342	5ee7f5443496da0e8d2203b9	441967289	1	main_slash	7	advance_on_keypress_SLASH	10	stimuli_target_trianglecircles.svg	stimuli_distractor_diamondtriangles.svg	21	yes	57	0	638
6.6.1	win	2022-12-19	14:51:36	14:54:49	190876	5ee7f5443496da0e8d2203b9	441967289	1	main_slash	7	main_slash	11	stimuli_distractor_diamondtriangles.svg	stimuli_target_circletriangles.svg	13	yes	53	1	1256
6.6.1	win	2022-12-19	14:51:36	14:54:49	190876	5ee7f5443496da0e8d2203b9	441967289	1	main_slash	7	advance_on_keypress_SLASH	12	stimuli_distractor_diamondtriangles.svg	stimuli_target_circletriangles.svg	13	yes	57	0	372
6.6.1	win	2022-12-19	14:51:36	14:54:52	193885	5ee7f5443496da0e8d2203b9	441967289	1	main_slash	7	main_slash	13	stimuli_distractor_diamondtriangles.svg	stimuli_distractor_trianglediamonds.svg	38	no	0	1	2000
6.6.1	win	2022-12-19	14:51:36	14:54:52	193885	5ee7f5443496da0e8d2203b9	441967289	1	main_slash	7	advance_on_keypress_SLASH	14	stimuli_distractor_diamondtriangles.svg	stimuli_distractor_trianglediamonds.svg	38	no	57	0	589
6.6.1	win	2022-12-19	14:51:36	14:54:54	195816	5ee7f5443496da0e8d2203b9	441967289	1	main_slash	7	main_slash	15	stimuli_distractor_trianglediamonds.svg	stimuli_target_circletriangles.svg	9	yes	53	1	698
6.6.1	win	2022-12-19	14:51:36	14:54:54	195816	5ee7f5443496da0e8d2203b9	441967289	1	main_slash	7	advance_on_keypress_SLASH	16	stimuli_distractor_trianglediamonds.svg	stimuli_target_circletriangles.svg	9	yes	57	0	242
6.6.1	win	2022-12-19	14:51:36	14:54:55	197410	5ee7f5443496da0e8d2203b9	441967289	1	main_slash	7	main_slash	17	stimuli_target_circletriangles.svg	stimuli_distractor_diamondtriangles.svg	5	yes	53	1	709
6.6.1	win	2022-12-19	14:51:36	14:54:55	197410	5ee7f5443496da0e8d2203b9	441967289	1	main_slash	7	advance_on_keypress_SLASH	18	stimuli_target_circletriangles.svg	stimuli_distractor_diamondtriangles.svg	5	yes	57	0	151
6.6.1	win	2022-12-19	14:51:36	14:54:57	198909	5ee7f5443496da0e8d2203b9	441967289	1	main_slash	7	main_slash	19	stimuli_distractor_diamondtriangles.svg	stimuli_target_trianglecircles.svg	29	yes	53	1	709
6.6.1	win	2022-12-19	14:51:36	14:54:57	198909	5ee7f5443496da0e8d2203b9	441967289	1	main_slash	7	advance_on_keypress_SLASH	20	stimuli_distractor_diamondtriangles.svg	stimuli_target_trianglecircles.svg	29	yes	57	0	156
6.6.1	win	2022-12-19	14:51:36	14:54:58	200714	5ee7f5443496da0e8d2203b9	441967289	1	main_slash	7	main_slash	21	stimuli_target_circletriangles.svg	stimuli_distractor_trianglediamonds.svg	1	yes	53	1	1015
6.6.1	win	2022-12-19	14:51:36	14:54:58	200714	5ee7f5443496da0e8d2203b9	441967289	1	main_slash	7	advance_on_keypress_SLASH	22	stimuli_target_circletriangles.svg	stimuli_distractor_trianglediamonds.svg	1	yes	57	0	112
6.6.1	win	2022-12-19	14:51:36	14:55:00	202605	5ee7f5443496da0e8d2203b9	441967289	1	main_slash	7	main_slash	23	stimuli_target_diamondsquares.svg	stimuli_distractor_diamondtriangles.svg	24	yes	53	1	1122
6.6.1	win	2022-12-19	14:51:36	14:55:00	202605	5ee7f5443496da0e8d2203b9	441967289	1	main_slash	7	advance_on_keypress_SLASH	24	stimuli_target_diamondsquares.svg	stimuli_distractor_diamondtriangles.svg	24	yes	57	0	93
6.6.1	win	2022-12-19	14:51:36	14:55:03	205332	5ee7f5443496da0e8d2203b9	441967289	1	main_slash	7	main_slash	25	stimuli_distractor_trianglediamonds.svg	stimuli_distractor_trianglediamonds.svg	34	no	0	1	2000
6.6.1	win	2022-12-19	14:51:36	14:55:03	205332	5ee7f5443496da0e8d2203b9	441967289	1	main_slash	7	advance_on_keypress_SLASH	26	stimuli_distractor_trianglediamonds.svg	stimuli_distractor_trianglediamonds.svg	34	no	57	0	325
6.6.1	win	2022-12-19	14:51:36	14:55:05	207072	5ee7f5443496da0e8d2203b9	441967289	1	main_slash	7	main_slash	27	stimuli_target_diamondcircles.svg	stimuli_distractor_diamondtriangles.svg	23	yes	53	1	773
6.6.1	win	2022-12-19	14:51:36	14:55:05	207072	5ee7f5443496da0e8d2203b9	441967289	1	main_slash	7	advance_on_keypress_SLASH	28	stimuli_target_diamondcircles.svg	stimuli_distractor_diamondtriangles.svg	23	yes	57	0	124
6.6.1	win	2022-12-19	14:51:36	14:55:08	209831	5ee7f5443496da0e8d2203b9	441967289	1	main_slash	7	main_slash	29	stimuli_distractor_diamondtriangles.svg	stimuli_target_trianglesquares.svg	30	yes	0	0	2000
6.6.1	win	2022-12-19	14:51:36	14:55:08	209831	5ee7f5443496da0e8d2203b9	441967289	1	main_slash	7	advance_on_keypress_SLASH	30	stimuli_distractor_diamondtriangles.svg	stimuli_target_trianglesquares.svg	30	yes	57	0	261
6.6.1	win	2022-12-19	14:51:36	14:55:09	211520	5ee7f5443496da0e8d2203b9	441967289	1	main_slash	7	main_slash	31	stimuli_target_trianglesquares.svg	stimuli_distractor_trianglediamonds.svg	18	yes	53	1	773
6.6.1	win	2022-12-19	14:51:36	14:55:09	211520	5ee7f5443496da0e8d2203b9	441967289	1	main_slash	7	advance_on_keypress_SLASH	32	stimuli_target_trianglesquares.svg	stimuli_distractor_trianglediamonds.svg	18	yes	57	0	89
6.6.1	win	2022-12-19	14:51:36	14:55:12	214247	5ee7f5443496da0e8d2203b9	441967289	1	main_slash	7	main_slash	33	stimuli_distractor_diamondtriangles.svg	stimuli_distractor_diamondtriangles.svg	40	no	0	1	2000
6.6.1	win	2022-12-19	14:51:36	14:55:12	214247	5ee7f5443496da0e8d2203b9	441967289	1	main_slash	7	advance_on_keypress_SLASH	34	stimuli_distractor_diamondtriangles.svg	stimuli_distractor_diamondtriangles.svg	40	no	57	0	428
6.6.1	win	2022-12-19	14:51:36	14:55:15	217329	5ee7f5443496da0e8d2203b9	441967289	1	main_slash	7	main_slash	35	stimuli_distractor_diamondtriangles.svg	stimuli_distractor_trianglediamonds.svg	37	no	0	1	2000
6.6.1	win	2022-12-19	14:51:36	14:55:15	217329	5ee7f5443496da0e8d2203b9	441967289	1	main_slash	7	advance_on_keypress_SLASH	36	stimuli_distractor_diamondtriangles.svg	stimuli_distractor_trianglediamonds.svg	37	no	57	0	780
6.6.1	win	2022-12-19	14:51:36	14:55:18	220762	5ee7f5443496da0e8d2203b9	441967289	1	main_slash	7	main_slash	37	stimuli_distractor_trianglediamonds.svg	stimuli_distractor_trianglediamonds.svg	33	no	0	1	2000
6.6.1	win	2022-12-19	14:51:36	14:55:18	220762	5ee7f5443496da0e8d2203b9	441967289	1	main_slash	7	advance_on_keypress_SLASH	38	stimuli_distractor_trianglediamonds.svg	stimuli_distractor_trianglediamonds.svg	33	no	57	0	291
6.6.1	win	2022-12-19	14:51:36	14:55:20	222536	5ee7f5443496da0e8d2203b9	441967289	1	main_slash	7	main_slash	39	stimuli_target_squarediamonds.svg	stimuli_distractor_trianglediamonds.svg	4	yes	53	1	842
6.6.1	win	2022-12-19	14:51:36	14:55:20	222536	5ee7f5443496da0e8d2203b9	441967289	1	main_slash	7	advance_on_keypress_SLASH	40	stimuli_target_squarediamonds.svg	stimuli_distractor_trianglediamonds.svg	4	yes	57	0	99
6.6.1	win	2022-12-19	14:51:36	14:55:22	224159	5ee7f5443496da0e8d2203b9	441967289	1	main_slash	7	main_slash	41	stimuli_distractor_trianglediamonds.svg	stimuli_target_squarediamonds.svg	12	yes	53	1	882
6.6.1	win	2022-12-19	14:51:36	14:55:22	224159	5ee7f5443496da0e8d2203b9	441967289	1	main_slash	7	advance_on_keypress_SLASH	42	stimuli_distractor_trianglediamonds.svg	stimuli_target_squarediamonds.svg	12	yes	57	0	89
6.6.1	win	2022-12-19	14:51:36	14:55:24	225843	5ee7f5443496da0e8d2203b9	441967289	1	main_slash	7	main_slash	43	stimuli_distractor_diamondtriangles.svg	stimuli_target_squaretriangles.svg	15	yes	53	1	950
6.6.1	win	2022-12-19	14:51:36	14:55:24	225843	5ee7f5443496da0e8d2203b9	441967289	1	main_slash	7	advance_on_keypress_SLASH	44	stimuli_distractor_diamondtriangles.svg	stimuli_target_squaretriangles.svg	15	yes	57	0	75
6.6.1	win	2022-12-19	14:51:36	14:55:26	228560	5ee7f5443496da0e8d2203b9	441967289	1	main_slash	7	main_slash	45	stimuli_distractor_trianglediamonds.svg	stimuli_target_diamondsquares.svg	28	yes	0	0	2000
6.6.1	win	2022-12-19	14:51:36	14:55:26	228560	5ee7f5443496da0e8d2203b9	441967289	1	main_slash	7	advance_on_keypress_SLASH	46	stimuli_distractor_trianglediamonds.svg	stimuli_target_diamondsquares.svg	28	yes	57	0	546
6.6.1	win	2022-12-19	14:51:36	14:55:29	231759	5ee7f5443496da0e8d2203b9	441967289	1	main_slash	7	main_slash	47	stimuli_distractor_diamondtriangles.svg	stimuli_target_diamondsquares.svg	32	yes	0	0	2000
6.6.1	win	2022-12-19	14:51:36	14:55:29	231759	5ee7f5443496da0e8d2203b9	441967289	1	main_slash	7	advance_on_keypress_SLASH	48	stimuli_distractor_diamondtriangles.svg	stimuli_target_diamondsquares.svg	32	yes	57	0	376
6.6.1	win	2022-12-19	14:51:36	14:55:31	233544	5ee7f5443496da0e8d2203b9	441967289	1	main_slash	7	main_slash	49	stimuli_target_circlediamonds.svg	stimuli_distractor_trianglediamonds.svg	2	yes	53	1	769
6.6.1	win	2022-12-19	14:51:36	14:55:31	233544	5ee7f5443496da0e8d2203b9	441967289	1	main_slash	7	advance_on_keypress_SLASH	50	stimuli_target_circlediamonds.svg	stimuli_distractor_trianglediamonds.svg	2	yes	57	0	65
6.6.1	win	2022-12-19	14:51:36	14:55:33	235495	5ee7f5443496da0e8d2203b9	441967289	1	main_slash	7	main_slash	51	stimuli_distractor_diamondtriangles.svg	stimuli_target_squarediamonds.svg	16	yes	53	1	1237
6.6.1	win	2022-12-19	14:51:36	14:55:33	235495	5ee7f5443496da0e8d2203b9	441967289	1	main_slash	7	advance_on_keypress_SLASH	52	stimuli_distractor_diamondtriangles.svg	stimuli_target_squarediamonds.svg	16	yes	57	0	100
6.6.1	win	2022-12-19	14:51:36	14:55:35	236927	5ee7f5443496da0e8d2203b9	441967289	1	main_slash	7	main_slash	53	stimuli_distractor_diamondtriangles.svg	stimuli_target_circlediamonds.svg	14	yes	53	1	686
6.6.1	win	2022-12-19	14:51:36	14:55:35	236927	5ee7f5443496da0e8d2203b9	441967289	1	main_slash	7	advance_on_keypress_SLASH	54	stimuli_distractor_diamondtriangles.svg	stimuli_target_circlediamonds.svg	14	yes	57	0	66
6.6.1	win	2022-12-19	14:51:36	14:55:36	238400	5ee7f5443496da0e8d2203b9	441967289	1	main_slash	7	main_slash	55	stimuli_target_squaretriangles.svg	stimuli_distractor_trianglediamonds.svg	3	yes	53	1	760
6.6.1	win	2022-12-19	14:51:36	14:55:36	238400	5ee7f5443496da0e8d2203b9	441967289	1	main_slash	7	advance_on_keypress_SLASH	56	stimuli_target_squaretriangles.svg	stimuli_distractor_trianglediamonds.svg	3	yes	57	0	87
6.6.1	win	2022-12-19	14:51:36	14:55:38	240353	5ee7f5443496da0e8d2203b9	441967289	1	main_slash	7	main_slash	57	stimuli_distractor_diamondtriangles.svg	stimuli_target_diamondcircles.svg	31	yes	53	1	1230
6.6.1	win	2022-12-19	14:51:36	14:55:38	240353	5ee7f5443496da0e8d2203b9	441967289	1	main_slash	7	advance_on_keypress_SLASH	58	stimuli_distractor_diamondtriangles.svg	stimuli_target_diamondcircles.svg	31	yes	57	0	82
6.6.1	win	2022-12-19	14:51:36	14:55:41	243090	5ee7f5443496da0e8d2203b9	441967289	1	main_slash	7	main_slash	59	stimuli_distractor_trianglediamonds.svg	stimuli_distractor_diamondtriangles.svg	35	no	0	1	2000
6.6.1	win	2022-12-19	14:51:36	14:55:41	243090	5ee7f5443496da0e8d2203b9	441967289	1	main_slash	7	advance_on_keypress_SLASH	60	stimuli_distractor_trianglediamonds.svg	stimuli_distractor_diamondtriangles.svg	35	no	57	0	310
6.6.1	win	2022-12-19	14:51:36	14:55:43	244929	5ee7f5443496da0e8d2203b9	441967289	1	main_slash	7	main_slash	61	stimuli_target_squaretriangles.svg	stimuli_distractor_diamondtriangles.svg	7	yes	53	1	890
6.6.1	win	2022-12-19	14:51:36	14:55:43	244929	5ee7f5443496da0e8d2203b9	441967289	1	main_slash	7	advance_on_keypress_SLASH	62	stimuli_target_squaretriangles.svg	stimuli_distractor_diamondtriangles.svg	7	yes	57	0	67
6.6.1	win	2022-12-19	14:51:36	14:55:44	246540	5ee7f5443496da0e8d2203b9	441967289	1	main_slash	7	main_slash	63	stimuli_target_diamondcircles.svg	stimuli_distractor_trianglediamonds.svg	19	yes	53	1	901
6.6.1	win	2022-12-19	14:51:36	14:55:44	246540	5ee7f5443496da0e8d2203b9	441967289	1	main_slash	7	advance_on_keypress_SLASH	64	stimuli_target_diamondcircles.svg	stimuli_distractor_trianglediamonds.svg	19	yes	57	0	55
6.6.1	win	2022-12-19	14:51:36	14:55:47	248890	5ee7f5443496da0e8d2203b9	441967289	1	main_slash	7	main_slash	65	stimuli_target_circlediamonds.svg	stimuli_distractor_diamondtriangles.svg	6	yes	53	1	1651
6.6.1	win	2022-12-19	14:51:36	14:55:47	248890	5ee7f5443496da0e8d2203b9	441967289	1	main_slash	7	advance_on_keypress_SLASH	66	stimuli_target_circlediamonds.svg	stimuli_distractor_diamondtriangles.svg	6	yes	57	0	80
6.6.1	win	2022-12-19	14:51:36	14:55:48	250467	5ee7f5443496da0e8d2203b9	441967289	1	main_slash	7	main_slash	67	stimuli_distractor_trianglediamonds.svg	stimuli_target_trianglecircles.svg	25	yes	53	1	846
6.6.1	win	2022-12-19	14:51:36	14:55:48	250467	5ee7f5443496da0e8d2203b9	441967289	1	main_slash	7	advance_on_keypress_SLASH	68	stimuli_distractor_trianglediamonds.svg	stimuli_target_trianglecircles.svg	25	yes	57	0	74
6.6.1	win	2022-12-19	14:51:36	14:55:50	252452	5ee7f5443496da0e8d2203b9	441967289	1	main_slash	7	main_slash	69	stimuli_distractor_trianglediamonds.svg	stimuli_target_circlediamonds.svg	10	yes	53	1	1264
6.6.1	win	2022-12-19	14:51:36	14:55:50	252452	5ee7f5443496da0e8d2203b9	441967289	1	main_slash	7	advance_on_keypress_SLASH	70	stimuli_distractor_trianglediamonds.svg	stimuli_target_circlediamonds.svg	10	yes	57	0	108
6.6.1	win	2022-12-19	14:51:36	14:55:52	253983	5ee7f5443496da0e8d2203b9	441967289	1	main_slash	7	main_slash	71	stimuli_target_trianglecircles.svg	stimuli_distractor_trianglediamonds.svg	17	yes	53	1	780
6.6.1	win	2022-12-19	14:51:36	14:55:52	253983	5ee7f5443496da0e8d2203b9	441967289	1	main_slash	7	advance_on_keypress_SLASH	72	stimuli_target_trianglecircles.svg	stimuli_distractor_trianglediamonds.svg	17	yes	57	0	61
6.6.1	win	2022-12-19	14:51:36	14:55:53	255549	5ee7f5443496da0e8d2203b9	441967289	1	main_slash	7	main_slash	73	stimuli_distractor_trianglediamonds.svg	stimuli_target_diamondcircles.svg	27	yes	53	1	846
6.6.1	win	2022-12-19	14:51:36	14:55:53	255549	5ee7f5443496da0e8d2203b9	441967289	1	main_slash	7	advance_on_keypress_SLASH	74	stimuli_distractor_trianglediamonds.svg	stimuli_target_diamondcircles.svg	27	yes	57	0	95
6.6.1	win	2022-12-19	14:51:36	14:55:56	258286	5ee7f5443496da0e8d2203b9	441967289	1	main_slash	7	main_slash	75	stimuli_distractor_trianglediamonds.svg	stimuli_distractor_diamondtriangles.svg	36	no	0	1	2000
6.6.1	win	2022-12-19	14:51:36	14:55:56	258286	5ee7f5443496da0e8d2203b9	441967289	1	main_slash	7	advance_on_keypress_SLASH	76	stimuli_distractor_trianglediamonds.svg	stimuli_distractor_diamondtriangles.svg	36	no	57	0	759
6.6.1	win	2022-12-19	14:51:36	14:55:59	260976	5ee7f5443496da0e8d2203b9	441967289	1	main_slash	7	main_slash	77	stimuli_target_trianglesquares.svg	stimuli_distractor_diamondtriangles.svg	22	yes	53	1	1291
6.6.1	win	2022-12-19	14:51:36	14:55:59	260976	5ee7f5443496da0e8d2203b9	441967289	1	main_slash	7	advance_on_keypress_SLASH	78	stimuli_target_trianglesquares.svg	stimuli_distractor_diamondtriangles.svg	22	yes	57	0	90
6.6.1	win	2022-12-19	14:51:36	14:56:00	262725	5ee7f5443496da0e8d2203b9	441967289	1	main_slash	7	main_slash	79	stimuli_target_squarediamonds.svg	stimuli_distractor_diamondtriangles.svg	8	yes	53	1	1024
6.6.1	win	2022-12-19	14:51:36	14:56:00	262725	5ee7f5443496da0e8d2203b9	441967289	1	main_slash	7	advance_on_keypress_SLASH	80	stimuli_target_squarediamonds.svg	stimuli_distractor_diamondtriangles.svg	8	yes	57	0	96
6.6.1	win	2022-12-19	14:51:36	14:56:03	264953	5ee7f5443496da0e8d2203b9	441967289	1	main_slash	7	main_slash	81	stimuli_target_diamondsquares.svg	stimuli_distractor_diamondtriangles.svg	24	yes	53	1	1485
6.6.1	win	2022-12-19	14:51:36	14:56:03	264953	5ee7f5443496da0e8d2203b9	441967289	1	main_slash	7	advance_on_keypress_SLASH	82	stimuli_target_diamondsquares.svg	stimuli_distractor_diamondtriangles.svg	24	yes	57	0	83
6.6.1	win	2022-12-19	14:51:36	14:56:05	267242	5ee7f5443496da0e8d2203b9	441967289	1	main_slash	7	main_slash	83	stimuli_target_squarediamonds.svg	stimuli_distractor_diamondtriangles.svg	8	yes	53	1	1558
6.6.1	win	2022-12-19	14:51:36	14:56:05	267242	5ee7f5443496da0e8d2203b9	441967289	1	main_slash	7	advance_on_keypress_SLASH	84	stimuli_target_squarediamonds.svg	stimuli_distractor_diamondtriangles.svg	8	yes	57	0	83
6.6.1	win	2022-12-19	14:51:36	14:56:08	269967	5ee7f5443496da0e8d2203b9	441967289	1	main_slash	7	main_slash	85	stimuli_distractor_trianglediamonds.svg	stimuli_distractor_diamondtriangles.svg	35	no	0	1	2000
6.6.1	win	2022-12-19	14:51:36	14:56:08	269967	5ee7f5443496da0e8d2203b9	441967289	1	main_slash	7	advance_on_keypress_SLASH	86	stimuli_distractor_trianglediamonds.svg	stimuli_distractor_diamondtriangles.svg	35	no	57	0	263
6.6.1	win	2022-12-19	14:51:36	14:56:11	272882	5ee7f5443496da0e8d2203b9	441967289	1	main_slash	7	main_slash	87	stimuli_distractor_diamondtriangles.svg	stimuli_distractor_diamondtriangles.svg	40	no	0	1	2000
6.6.1	win	2022-12-19	14:51:36	14:56:11	272882	5ee7f5443496da0e8d2203b9	441967289	1	main_slash	7	advance_on_keypress_SLASH	88	stimuli_distractor_diamondtriangles.svg	stimuli_distractor_diamondtriangles.svg	40	no	57	0	266
6.6.1	win	2022-12-19	14:51:36	14:56:12	274592	5ee7f5443496da0e8d2203b9	441967289	1	main_slash	7	main_slash	89	stimuli_distractor_diamondtriangles.svg	stimuli_target_squaretriangles.svg	15	yes	53	1	794
6.6.1	win	2022-12-19	14:51:36	14:56:12	274592	5ee7f5443496da0e8d2203b9	441967289	1	main_slash	7	advance_on_keypress_SLASH	90	stimuli_distractor_diamondtriangles.svg	stimuli_target_squaretriangles.svg	15	yes	57	0	120
6.6.1	win	2022-12-19	14:51:36	14:56:15	277348	5ee7f5443496da0e8d2203b9	441967289	1	main_slash	7	main_slash	91	stimuli_distractor_diamondtriangles.svg	stimuli_distractor_trianglediamonds.svg	38	no	0	1	2000
6.6.1	win	2022-12-19	14:51:36	14:56:15	277348	5ee7f5443496da0e8d2203b9	441967289	1	main_slash	7	advance_on_keypress_SLASH	92	stimuli_distractor_diamondtriangles.svg	stimuli_distractor_trianglediamonds.svg	38	no	57	0	298
6.6.1	win	2022-12-19	14:51:36	14:56:17	279075	5ee7f5443496da0e8d2203b9	441967289	1	main_slash	7	main_slash	93	stimuli_distractor_diamondtriangles.svg	stimuli_target_trianglesquares.svg	30	yes	53	1	778
6.6.1	win	2022-12-19	14:51:36	14:56:17	279075	5ee7f5443496da0e8d2203b9	441967289	1	main_slash	7	advance_on_keypress_SLASH	94	stimuli_distractor_diamondtriangles.svg	stimuli_target_trianglesquares.svg	30	yes	57	0	90
6.6.1	win	2022-12-19	14:51:36	14:56:18	280510	5ee7f5443496da0e8d2203b9	441967289	1	main_slash	7	main_slash	95	stimuli_distractor_trianglediamonds.svg	stimuli_target_circlediamonds.svg	10	yes	53	1	713
6.6.1	win	2022-12-19	14:51:36	14:56:18	280510	5ee7f5443496da0e8d2203b9	441967289	1	main_slash	7	advance_on_keypress_SLASH	96	stimuli_distractor_trianglediamonds.svg	stimuli_target_circlediamonds.svg	10	yes	57	0	122
6.6.1	win	2022-12-19	14:51:36	14:56:20	281966	5ee7f5443496da0e8d2203b9	441967289	1	main_slash	7	main_slash	97	stimuli_target_circletriangles.svg	stimuli_distractor_diamondtriangles.svg	5	yes	53	1	686
6.6.1	win	2022-12-19	14:51:36	14:56:20	281966	5ee7f5443496da0e8d2203b9	441967289	1	main_slash	7	advance_on_keypress_SLASH	98	stimuli_target_circletriangles.svg	stimuli_distractor_diamondtriangles.svg	5	yes	57	0	121
6.6.1	win	2022-12-19	14:51:36	14:56:21	283624	5ee7f5443496da0e8d2203b9	441967289	1	main_slash	7	main_slash	99	stimuli_distractor_trianglediamonds.svg	stimuli_target_diamondsquares.svg	28	yes	53	1	894
6.6.1	win	2022-12-19	14:51:36	14:56:21	283624	5ee7f5443496da0e8d2203b9	441967289	1	main_slash	7	advance_on_keypress_SLASH	100	stimuli_distractor_trianglediamonds.svg	stimuli_target_diamondsquares.svg	28	yes	57	0	145
6.6.1	win	2022-12-19	14:51:36	14:56:23	285305	5ee7f5443496da0e8d2203b9	441967289	1	main_slash	7	main_slash	101	stimuli_distractor_trianglediamonds.svg	stimuli_target_diamondcircles.svg	27	yes	53	1	893
6.6.1	win	2022-12-19	14:51:36	14:56:23	285305	5ee7f5443496da0e8d2203b9	441967289	1	main_slash	7	advance_on_keypress_SLASH	102	stimuli_distractor_trianglediamonds.svg	stimuli_target_diamondcircles.svg	27	yes	57	0	150
6.6.1	win	2022-12-19	14:51:36	14:56:25	286917	5ee7f5443496da0e8d2203b9	441967289	1	main_slash	7	main_slash	103	stimuli_target_diamondcircles.svg	stimuli_distractor_diamondtriangles.svg	23	yes	53	1	822
6.6.1	win	2022-12-19	14:51:36	14:56:25	286917	5ee7f5443496da0e8d2203b9	441967289	1	main_slash	7	advance_on_keypress_SLASH	104	stimuli_target_diamondcircles.svg	stimuli_distractor_diamondtriangles.svg	23	yes	57	0	134
6.6.1	win	2022-12-19	14:51:36	14:56:27	289695	5ee7f5443496da0e8d2203b9	441967289	1	main_slash	7	main_slash	105	stimuli_distractor_diamondtriangles.svg	stimuli_distractor_diamondtriangles.svg	39	no	0	1	2000
6.6.1	win	2022-12-19	14:51:36	14:56:27	289695	5ee7f5443496da0e8d2203b9	441967289	1	main_slash	7	advance_on_keypress_SLASH	106	stimuli_distractor_diamondtriangles.svg	stimuli_distractor_diamondtriangles.svg	39	no	57	0	92
6.6.1	win	2022-12-19	14:51:36	14:56:29	291065	5ee7f5443496da0e8d2203b9	441967289	1	main_slash	7	main_slash	107	stimuli_distractor_diamondtriangles.svg	stimuli_target_diamondcircles.svg	31	yes	53	1	638
6.6.1	win	2022-12-19	14:51:36	14:56:29	291065	5ee7f5443496da0e8d2203b9	441967289	1	main_slash	7	advance_on_keypress_SLASH	108	stimuli_distractor_diamondtriangles.svg	stimuli_target_diamondcircles.svg	31	yes	57	0	547
6.6.1	win	2022-12-19	14:51:36	14:56:32	294260	5ee7f5443496da0e8d2203b9	441967289	1	main_slash	7	main_slash	109	stimuli_distractor_trianglediamonds.svg	stimuli_distractor_diamondtriangles.svg	36	no	0	1	2000
6.6.1	win	2022-12-19	14:51:36	14:56:32	294260	5ee7f5443496da0e8d2203b9	441967289	1	main_slash	7	advance_on_keypress_SLASH	110	stimuli_distractor_trianglediamonds.svg	stimuli_distractor_diamondtriangles.svg	36	no	57	0	76
6.6.1	win	2022-12-19	14:51:36	14:56:34	295968	5ee7f5443496da0e8d2203b9	441967289	1	main_slash	7	main_slash	111	stimuli_distractor_diamondtriangles.svg	stimuli_target_diamondsquares.svg	32	yes	53	1	992
6.6.1	win	2022-12-19	14:51:36	14:56:34	295968	5ee7f5443496da0e8d2203b9	441967289	1	main_slash	7	advance_on_keypress_SLASH	112	stimuli_distractor_diamondtriangles.svg	stimuli_target_diamondsquares.svg	32	yes	57	0	73
6.6.1	win	2022-12-19	14:51:36	14:56:35	297537	5ee7f5443496da0e8d2203b9	441967289	1	main_slash	7	main_slash	113	stimuli_target_trianglesquares.svg	stimuli_distractor_diamondtriangles.svg	22	yes	53	1	861
6.6.1	win	2022-12-19	14:51:36	14:56:35	297537	5ee7f5443496da0e8d2203b9	441967289	1	main_slash	7	advance_on_keypress_SLASH	114	stimuli_target_trianglesquares.svg	stimuli_distractor_diamondtriangles.svg	22	yes	57	0	79
6.6.1	win	2022-12-19	14:51:36	14:56:37	299000	5ee7f5443496da0e8d2203b9	441967289	1	main_slash	7	main_slash	115	stimuli_target_trianglecircles.svg	stimuli_distractor_trianglediamonds.svg	17	yes	53	1	741
6.6.1	win	2022-12-19	14:51:36	14:56:37	299000	5ee7f5443496da0e8d2203b9	441967289	1	main_slash	7	advance_on_keypress_SLASH	116	stimuli_target_trianglecircles.svg	stimuli_distractor_trianglediamonds.svg	17	yes	57	0	72
6.6.1	win	2022-12-19	14:51:36	14:56:38	300417	5ee7f5443496da0e8d2203b9	441967289	1	main_slash	7	main_slash	117	stimuli_distractor_trianglediamonds.svg	stimuli_target_squarediamonds.svg	12	yes	53	1	709
6.6.1	win	2022-12-19	14:51:36	14:56:38	300417	5ee7f5443496da0e8d2203b9	441967289	1	main_slash	7	advance_on_keypress_SLASH	118	stimuli_distractor_trianglediamonds.svg	stimuli_target_squarediamonds.svg	12	yes	57	0	119
6.6.1	win	2022-12-19	14:51:36	14:56:39	301762	5ee7f5443496da0e8d2203b9	441967289	1	main_slash	7	main_slash	119	stimuli_distractor_trianglediamonds.svg	stimuli_target_squaretriangles.svg	11	yes	53	1	587
6.6.1	win	2022-12-19	14:51:36	14:56:39	301762	5ee7f5443496da0e8d2203b9	441967289	1	main_slash	7	advance_on_keypress_SLASH	120	stimuli_distractor_trianglediamonds.svg	stimuli_target_squaretriangles.svg	11	yes	57	0	105
6.6.1	win	2022-12-19	14:51:36	14:56:41	303421	5ee7f5443496da0e8d2203b9	441967289	1	main_slash	7	main_slash	121	stimuli_distractor_diamondtriangles.svg	stimuli_target_squarediamonds.svg	16	yes	53	1	913
6.6.1	win	2022-12-19	14:51:36	14:56:41	303421	5ee7f5443496da0e8d2203b9	441967289	1	main_slash	7	advance_on_keypress_SLASH	122	stimuli_distractor_diamondtriangles.svg	stimuli_target_squarediamonds.svg	16	yes	57	0	103
6.6.1	win	2022-12-19	14:51:36	14:56:44	306174	5ee7f5443496da0e8d2203b9	441967289	1	main_slash	7	main_slash	123	stimuli_target_diamondsquares.svg	stimuli_distractor_trianglediamonds.svg	20	yes	0	0	2000
6.6.1	win	2022-12-19	14:51:36	14:56:44	306174	5ee7f5443496da0e8d2203b9	441967289	1	main_slash	7	advance_on_keypress_SLASH	124	stimuli_target_diamondsquares.svg	stimuli_distractor_trianglediamonds.svg	20	yes	57	0	288
6.6.1	win	2022-12-19	14:51:36	14:56:45	307781	5ee7f5443496da0e8d2203b9	441967289	1	main_slash	7	main_slash	125	stimuli_distractor_trianglediamonds.svg	stimuli_target_trianglecircles.svg	25	yes	53	1	674
6.6.1	win	2022-12-19	14:51:36	14:56:45	307781	5ee7f5443496da0e8d2203b9	441967289	1	main_slash	7	advance_on_keypress_SLASH	126	stimuli_distractor_trianglediamonds.svg	stimuli_target_trianglecircles.svg	25	yes	57	0	108
6.6.1	win	2022-12-19	14:51:36	14:56:47	309223	5ee7f5443496da0e8d2203b9	441967289	1	main_slash	7	main_slash	127	stimuli_target_circlediamonds.svg	stimuli_distractor_diamondtriangles.svg	6	yes	53	1	699
6.6.1	win	2022-12-19	14:51:36	14:56:47	309223	5ee7f5443496da0e8d2203b9	441967289	1	main_slash	7	advance_on_keypress_SLASH	128	stimuli_target_circlediamonds.svg	stimuli_distractor_diamondtriangles.svg	6	yes	57	0	113
6.6.1	win	2022-12-19	14:51:36	14:56:48	310553	5ee7f5443496da0e8d2203b9	441967289	1	main_slash	7	main_slash	129	stimuli_target_circletriangles.svg	stimuli_distractor_trianglediamonds.svg	1	yes	53	1	563
6.6.1	win	2022-12-19	14:51:36	14:56:48	310553	5ee7f5443496da0e8d2203b9	441967289	1	main_slash	7	advance_on_keypress_SLASH	130	stimuli_target_circletriangles.svg	stimuli_distractor_trianglediamonds.svg	1	yes	57	0	91
6.6.1	win	2022-12-19	14:51:36	14:56:50	312526	5ee7f5443496da0e8d2203b9	441967289	1	main_slash	7	main_slash	131	stimuli_target_trianglecircles.svg	stimuli_distractor_diamondtriangles.svg	21	yes	53	1	1237
6.6.1	win	2022-12-19	14:51:36	14:56:50	312526	5ee7f5443496da0e8d2203b9	441967289	1	main_slash	7	advance_on_keypress_SLASH	132	stimuli_target_trianglecircles.svg	stimuli_distractor_diamondtriangles.svg	21	yes	57	0	89
6.6.1	win	2022-12-19	14:51:36	14:56:53	315255	5ee7f5443496da0e8d2203b9	441967289	1	main_slash	7	main_slash	133	stimuli_distractor_trianglediamonds.svg	stimuli_distractor_trianglediamonds.svg	33	no	0	1	2000
6.6.1	win	2022-12-19	14:51:36	14:56:53	315255	5ee7f5443496da0e8d2203b9	441967289	1	main_slash	7	advance_on_keypress_SLASH	134	stimuli_distractor_trianglediamonds.svg	stimuli_distractor_trianglediamonds.svg	33	no	57	0	289
6.6.1	win	2022-12-19	14:51:36	14:56:55	316892	5ee7f5443496da0e8d2203b9	441967289	1	main_slash	7	main_slash	135	stimuli_target_trianglesquares.svg	stimuli_distractor_trianglediamonds.svg	18	yes	53	1	704
6.6.1	win	2022-12-19	14:51:36	14:56:55	316892	5ee7f5443496da0e8d2203b9	441967289	1	main_slash	7	advance_on_keypress_SLASH	136	stimuli_target_trianglesquares.svg	stimuli_distractor_trianglediamonds.svg	18	yes	57	0	104
6.6.1	win	2022-12-19	14:51:36	14:56:56	318509	5ee7f5443496da0e8d2203b9	441967289	1	main_slash	7	main_slash	137	stimuli_target_squaretriangles.svg	stimuli_distractor_trianglediamonds.svg	3	yes	53	1	871
6.6.1	win	2022-12-19	14:51:36	14:56:56	318509	5ee7f5443496da0e8d2203b9	441967289	1	main_slash	7	advance_on_keypress_SLASH	138	stimuli_target_squaretriangles.svg	stimuli_distractor_trianglediamonds.svg	3	yes	57	0	119
6.6.1	win	2022-12-19	14:51:36	14:56:59	321271	5ee7f5443496da0e8d2203b9	441967289	1	main_slash	7	main_slash	139	stimuli_distractor_diamondtriangles.svg	stimuli_distractor_trianglediamonds.svg	37	no	0	1	2000
6.6.1	win	2022-12-19	14:51:36	14:56:59	321271	5ee7f5443496da0e8d2203b9	441967289	1	main_slash	7	advance_on_keypress_SLASH	140	stimuli_distractor_diamondtriangles.svg	stimuli_distractor_trianglediamonds.svg	37	no	57	0	229
6.6.1	win	2022-12-19	14:51:36	14:57:00	322695	5ee7f5443496da0e8d2203b9	441967289	1	main_slash	7	main_slash	141	stimuli_target_diamondcircles.svg	stimuli_distractor_trianglediamonds.svg	19	yes	53	1	559
6.6.1	win	2022-12-19	14:51:36	14:57:00	322695	5ee7f5443496da0e8d2203b9	441967289	1	main_slash	7	advance_on_keypress_SLASH	142	stimuli_target_diamondcircles.svg	stimuli_distractor_trianglediamonds.svg	19	yes	57	0	81
6.6.1	win	2022-12-19	14:51:36	14:57:02	324464	5ee7f5443496da0e8d2203b9	441967289	1	main_slash	7	main_slash	143	stimuli_distractor_diamondtriangles.svg	stimuli_target_circletriangles.svg	13	yes	53	1	1044
6.6.1	win	2022-12-19	14:51:36	14:57:02	324464	5ee7f5443496da0e8d2203b9	441967289	1	main_slash	7	advance_on_keypress_SLASH	144	stimuli_distractor_diamondtriangles.svg	stimuli_target_circletriangles.svg	13	yes	57	0	99
6.6.1	win	2022-12-19	14:51:36	14:57:04	325999	5ee7f5443496da0e8d2203b9	441967289	1	main_slash	7	main_slash	145	stimuli_target_circlediamonds.svg	stimuli_distractor_trianglediamonds.svg	2	yes	53	1	797
6.6.1	win	2022-12-19	14:51:36	14:57:04	325999	5ee7f5443496da0e8d2203b9	441967289	1	main_slash	7	advance_on_keypress_SLASH	146	stimuli_target_circlediamonds.svg	stimuli_distractor_trianglediamonds.svg	2	yes	57	0	85
6.6.1	win	2022-12-19	14:51:36	14:57:05	327657	5ee7f5443496da0e8d2203b9	441967289	1	main_slash	7	main_slash	147	stimuli_target_squarediamonds.svg	stimuli_distractor_trianglediamonds.svg	4	yes	53	1	922
6.6.1	win	2022-12-19	14:51:36	14:57:05	327657	5ee7f5443496da0e8d2203b9	441967289	1	main_slash	7	advance_on_keypress_SLASH	148	stimuli_target_squarediamonds.svg	stimuli_distractor_trianglediamonds.svg	4	yes	57	0	91
6.6.1	win	2022-12-19	14:51:36	14:57:07	329041	5ee7f5443496da0e8d2203b9	441967289	1	main_slash	7	main_slash	149	stimuli_distractor_diamondtriangles.svg	stimuli_target_circlediamonds.svg	14	yes	53	1	656
6.6.1	win	2022-12-19	14:51:36	14:57:07	329041	5ee7f5443496da0e8d2203b9	441967289	1	main_slash	7	advance_on_keypress_SLASH	150	stimuli_distractor_diamondtriangles.svg	stimuli_target_circlediamonds.svg	14	yes	57	0	83
6.6.1	win	2022-12-19	14:51:36	14:57:08	330583	5ee7f5443496da0e8d2203b9	441967289	1	main_slash	7	main_slash	151	stimuli_distractor_diamondtriangles.svg	stimuli_target_trianglecircles.svg	29	yes	53	1	815
6.6.1	win	2022-12-19	14:51:36	14:57:08	330583	5ee7f5443496da0e8d2203b9	441967289	1	main_slash	7	advance_on_keypress_SLASH	152	stimuli_distractor_diamondtriangles.svg	stimuli_target_trianglecircles.svg	29	yes	57	0	108
6.6.1	win	2022-12-19	14:51:36	14:57:10	331997	5ee7f5443496da0e8d2203b9	441967289	1	main_slash	7	main_slash	153	stimuli_distractor_trianglediamonds.svg	stimuli_target_circletriangles.svg	9	yes	53	1	663
6.6.1	win	2022-12-19	14:51:36	14:57:10	331997	5ee7f5443496da0e8d2203b9	441967289	1	main_slash	7	advance_on_keypress_SLASH	154	stimuli_distractor_trianglediamonds.svg	stimuli_target_circletriangles.svg	9	yes	57	0	87
6.6.1	win	2022-12-19	14:51:36	14:57:11	333620	5ee7f5443496da0e8d2203b9	441967289	1	main_slash	7	main_slash	155	stimuli_target_squaretriangles.svg	stimuli_distractor_diamondtriangles.svg	7	yes	53	1	886
6.6.1	win	2022-12-19	14:51:36	14:57:11	333620	5ee7f5443496da0e8d2203b9	441967289	1	main_slash	7	advance_on_keypress_SLASH	156	stimuli_target_squaretriangles.svg	stimuli_distractor_diamondtriangles.svg	7	yes	57	0	110
6.6.1	win	2022-12-19	14:51:36	14:57:13	335253	5ee7f5443496da0e8d2203b9	441967289	1	main_slash	7	main_slash	157	stimuli_distractor_trianglediamonds.svg	stimuli_target_trianglesquares.svg	26	yes	53	1	886
6.6.1	win	2022-12-19	14:51:36	14:57:13	335253	5ee7f5443496da0e8d2203b9	441967289	1	main_slash	7	advance_on_keypress_SLASH	158	stimuli_distractor_trianglediamonds.svg	stimuli_target_trianglesquares.svg	26	yes	57	0	122
6.6.1	win	2022-12-19	14:51:36	14:57:16	338017	5ee7f5443496da0e8d2203b9	441967289	1	main_slash	7	main_slash	159	stimuli_distractor_trianglediamonds.svg	stimuli_distractor_trianglediamonds.svg	34	no	0	1	2000
6.6.1	win	2022-12-19	14:51:36	14:57:16	338017	5ee7f5443496da0e8d2203b9	441967289	1	main_slash	7	advance_on_keypress_SLASH	160	stimuli_distractor_trianglediamonds.svg	stimuli_distractor_trianglediamonds.svg	34	no	57	0	286
6.6.1	win	2022-12-19	14:51:36	14:57:34	356767	5ee7f5443496da0e8d2203b9	441967289	1	practice_z	9	practice_z	1	stimuli_distractor_trianglediamonds.svg	stimuli_target_diamondcircles.svg	12	yes	44	1	870
6.6.1	win	2022-12-19	14:51:36	14:57:34	356767	5ee7f5443496da0e8d2203b9	441967289	1	practice_z	9	advance_on_keypress_ZEE	2	stimuli_distractor_trianglediamonds.svg	stimuli_target_diamondcircles.svg	12	yes	57	0	562
6.6.1	win	2022-12-19	14:51:36	14:57:38	360111	5ee7f5443496da0e8d2203b9	441967289	1	practice_z	9	practice_z	3	stimuli_distractor_diamondtriangles.svg	stimuli_distractor_trianglediamonds.svg	14	no	44	0	1132
6.6.1	win	2022-12-19	14:51:36	14:57:38	360111	5ee7f5443496da0e8d2203b9	441967289	1	practice_z	9	advance_on_keypress_ZEE	4	stimuli_distractor_diamondtriangles.svg	stimuli_distractor_trianglediamonds.svg	14	no	57	0	461
6.6.1	win	2022-12-19	14:51:36	14:57:42	364229	5ee7f5443496da0e8d2203b9	441967289	1	practice_z	9	practice_z	5	stimuli_distractor_trianglediamonds.svg	stimuli_distractor_trianglediamonds.svg	15	no	0	1	2000
6.6.1	win	2022-12-19	14:51:36	14:57:42	364229	5ee7f5443496da0e8d2203b9	441967289	1	practice_z	9	advance_on_keypress_ZEE	6	stimuli_distractor_trianglediamonds.svg	stimuli_distractor_trianglediamonds.svg	15	no	57	0	502
6.6.1	win	2022-12-19	14:51:36	14:57:45	367044	5ee7f5443496da0e8d2203b9	441967289	1	practice_z	9	practice_z	7	stimuli_distractor_diamondtriangles.svg	stimuli_target_diamondcircles.svg	8	yes	44	1	666
6.6.1	win	2022-12-19	14:51:36	14:57:45	367044	5ee7f5443496da0e8d2203b9	441967289	1	practice_z	9	advance_on_keypress_ZEE	8	stimuli_distractor_diamondtriangles.svg	stimuli_target_diamondcircles.svg	8	yes	57	0	510
6.6.1	win	2022-12-19	14:51:36	14:57:48	369962	5ee7f5443496da0e8d2203b9	441967289	1	practice_z	9	practice_z	9	stimuli_target_diamondsquares.svg	stimuli_distractor_diamondtriangles.svg	3	yes	44	1	768
6.6.1	win	2022-12-19	14:51:36	14:57:48	369962	5ee7f5443496da0e8d2203b9	441967289	1	practice_z	9	advance_on_keypress_ZEE	10	stimuli_target_diamondsquares.svg	stimuli_distractor_diamondtriangles.svg	3	yes	57	0	507
6.6.1	win	2022-12-19	14:51:36	14:57:50	372749	5ee7f5443496da0e8d2203b9	441967289	1	practice_z	9	practice_z	11	stimuli_target_circlediamonds.svg	stimuli_distractor_diamondtriangles.svg	1	yes	44	1	640
6.6.1	win	2022-12-19	14:51:36	14:57:50	372749	5ee7f5443496da0e8d2203b9	441967289	1	practice_z	9	advance_on_keypress_ZEE	12	stimuli_target_circlediamonds.svg	stimuli_distractor_diamondtriangles.svg	1	yes	57	0	351
6.6.1	win	2022-12-19	14:51:36	14:57:53	375344	5ee7f5443496da0e8d2203b9	441967289	1	practice_z	9	practice_z	13	stimuli_target_squarediamonds.svg	stimuli_distractor_diamondtriangles.svg	2	yes	44	1	601
6.6.1	win	2022-12-19	14:51:36	14:57:53	375344	5ee7f5443496da0e8d2203b9	441967289	1	practice_z	9	advance_on_keypress_ZEE	14	stimuli_target_squarediamonds.svg	stimuli_distractor_diamondtriangles.svg	2	yes	57	0	364
6.6.1	win	2022-12-19	14:51:36	14:57:56	378006	5ee7f5443496da0e8d2203b9	441967289	1	practice_z	9	practice_z	15	stimuli_distractor_trianglediamonds.svg	stimuli_target_squarediamonds.svg	11	yes	44	1	647
6.6.1	win	2022-12-19	14:51:36	14:57:56	378006	5ee7f5443496da0e8d2203b9	441967289	1	practice_z	9	advance_on_keypress_ZEE	16	stimuli_distractor_trianglediamonds.svg	stimuli_target_squarediamonds.svg	11	yes	57	0	356
6.6.1	win	2022-12-19	14:51:36	14:58:00	382008	5ee7f5443496da0e8d2203b9	441967289	1	practice_z	9	practice_z	17	stimuli_distractor_trianglediamonds.svg	stimuli_distractor_diamondtriangles.svg	16	no	0	1	2000
6.6.1	win	2022-12-19	14:51:36	14:58:00	382008	5ee7f5443496da0e8d2203b9	441967289	1	practice_z	9	advance_on_keypress_ZEE	18	stimuli_distractor_trianglediamonds.svg	stimuli_distractor_diamondtriangles.svg	16	no	57	0	624
6.6.1	win	2022-12-19	14:51:36	14:58:03	384849	5ee7f5443496da0e8d2203b9	441967289	1	practice_z	9	practice_z	19	stimuli_distractor_diamondtriangles.svg	stimuli_target_trianglecircles.svg	9	yes	44	1	576
6.6.1	win	2022-12-19	14:51:36	14:58:03	384849	5ee7f5443496da0e8d2203b9	441967289	1	practice_z	9	advance_on_keypress_ZEE	20	stimuli_distractor_diamondtriangles.svg	stimuli_target_trianglecircles.svg	9	yes	57	0	329
6.6.1	win	2022-12-19	14:51:36	14:58:07	388823	5ee7f5443496da0e8d2203b9	441967289	1	practice_z	9	practice_z	21	stimuli_target_diamondsquares.svg	stimuli_distractor_trianglediamonds.svg	6	yes	0	0	2000
6.6.1	win	2022-12-19	14:51:36	14:58:07	388823	5ee7f5443496da0e8d2203b9	441967289	1	practice_z	9	advance_on_keypress_ZEE	22	stimuli_target_diamondsquares.svg	stimuli_distractor_trianglediamonds.svg	6	yes	57	0	741
6.6.1	win	2022-12-19	14:51:36	14:58:09	391790	5ee7f5443496da0e8d2203b9	441967289	1	practice_z	9	practice_z	23	stimuli_target_circlediamonds.svg	stimuli_distractor_trianglediamonds.svg	4	yes	44	1	584
6.6.1	win	2022-12-19	14:51:36	14:58:09	391790	5ee7f5443496da0e8d2203b9	441967289	1	practice_z	9	advance_on_keypress_ZEE	24	stimuli_target_circlediamonds.svg	stimuli_distractor_trianglediamonds.svg	4	yes	57	0	263
6.6.1	win	2022-12-19	14:51:36	14:58:13	394865	5ee7f5443496da0e8d2203b9	441967289	1	practice_z	9	practice_z	25	stimuli_distractor_diamondtriangles.svg	stimuli_target_circletriangles.svg	7	yes	44	1	1160
6.6.1	win	2022-12-19	14:51:36	14:58:13	394865	5ee7f5443496da0e8d2203b9	441967289	1	practice_z	9	advance_on_keypress_ZEE	26	stimuli_distractor_diamondtriangles.svg	stimuli_target_circletriangles.svg	7	yes	57	0	396
6.6.1	win	2022-12-19	14:51:36	14:58:17	398920	5ee7f5443496da0e8d2203b9	441967289	1	practice_z	9	practice_z	27	stimuli_distractor_diamondtriangles.svg	stimuli_distractor_diamondtriangles.svg	13	no	0	1	2000
6.6.1	win	2022-12-19	14:51:36	14:58:17	398920	5ee7f5443496da0e8d2203b9	441967289	1	practice_z	9	advance_on_keypress_ZEE	28	stimuli_distractor_diamondtriangles.svg	stimuli_distractor_diamondtriangles.svg	13	no	57	0	522
6.6.1	win	2022-12-19	14:51:36	14:58:19	401794	5ee7f5443496da0e8d2203b9	441967289	1	practice_z	9	practice_z	29	stimuli_distractor_trianglediamonds.svg	stimuli_target_circlediamonds.svg	10	yes	44	1	707
6.6.1	win	2022-12-19	14:51:36	14:58:19	401794	5ee7f5443496da0e8d2203b9	441967289	1	practice_z	9	advance_on_keypress_ZEE	30	stimuli_distractor_trianglediamonds.svg	stimuli_target_circlediamonds.svg	10	yes	57	0	548
6.6.1	win	2022-12-19	14:51:36	14:58:23	405280	5ee7f5443496da0e8d2203b9	441967289	1	practice_z	9	practice_z	31	stimuli_target_squarediamonds.svg	stimuli_distractor_trianglediamonds.svg	5	yes	44	1	1294
6.6.1	win	2022-12-19	14:51:36	14:58:23	405280	5ee7f5443496da0e8d2203b9	441967289	1	practice_z	9	advance_on_keypress_ZEE	32	stimuli_target_squarediamonds.svg	stimuli_distractor_trianglediamonds.svg	5	yes	57	0	285
6.6.1	win	2022-12-19	14:51:36	14:58:30	412065	5ee7f5443496da0e8d2203b9	441967289	1	main_z	11	main_z	1	stimuli_distractor_diamondtriangles.svg	stimuli_distractor_diamondtriangles.svg	39	no	0	1	2000
6.6.1	win	2022-12-19	14:51:36	14:58:30	412065	5ee7f5443496da0e8d2203b9	441967289	1	main_z	11	advance_on_keypress_ZEE	2	stimuli_distractor_diamondtriangles.svg	stimuli_distractor_diamondtriangles.svg	39	no	57	0	474
6.6.1	win	2022-12-19	14:51:36	14:58:32	414214	5ee7f5443496da0e8d2203b9	441967289	1	main_z	11	main_z	3	stimuli_distractor_diamondtriangles.svg	stimuli_target_trianglesquares.svg	30	yes	44	1	1034
6.6.1	win	2022-12-19	14:51:36	14:58:32	414214	5ee7f5443496da0e8d2203b9	441967289	1	main_z	11	advance_on_keypress_ZEE	4	stimuli_distractor_diamondtriangles.svg	stimuli_target_trianglesquares.svg	30	yes	57	0	694
6.6.1	win	2022-12-19	14:51:36	14:58:34	416262	5ee7f5443496da0e8d2203b9	441967289	1	main_z	11	main_z	5	stimuli_target_diamondsquares.svg	stimuli_distractor_diamondtriangles.svg	24	yes	44	1	714
6.6.1	win	2022-12-19	14:51:36	14:58:34	416262	5ee7f5443496da0e8d2203b9	441967289	1	main_z	11	advance_on_keypress_ZEE	6	stimuli_target_diamondsquares.svg	stimuli_distractor_diamondtriangles.svg	24	yes	57	0	171
6.6.1	win	2022-12-19	14:51:36	14:58:35	417697	5ee7f5443496da0e8d2203b9	441967289	1	main_z	11	main_z	7	stimuli_target_trianglesquares.svg	stimuli_distractor_diamondtriangles.svg	22	yes	44	1	618
6.6.1	win	2022-12-19	14:51:36	14:58:35	417697	5ee7f5443496da0e8d2203b9	441967289	1	main_z	11	advance_on_keypress_ZEE	8	stimuli_target_trianglesquares.svg	stimuli_distractor_diamondtriangles.svg	22	yes	57	0	163
6.6.1	win	2022-12-19	14:51:36	14:58:37	419780	5ee7f5443496da0e8d2203b9	441967289	1	main_z	11	main_z	9	stimuli_target_squaretriangles.svg	stimuli_distractor_diamondtriangles.svg	7	yes	44	1	1267
6.6.1	win	2022-12-19	14:51:36	14:58:37	419780	5ee7f5443496da0e8d2203b9	441967289	1	main_z	11	advance_on_keypress_ZEE	10	stimuli_target_squaretriangles.svg	stimuli_distractor_diamondtriangles.svg	7	yes	57	0	173
6.6.1	win	2022-12-19	14:51:36	14:58:39	421119	5ee7f5443496da0e8d2203b9	441967289	1	main_z	11	main_z	11	stimuli_target_circletriangles.svg	stimuli_distractor_trianglediamonds.svg	1	yes	44	1	524
6.6.1	win	2022-12-19	14:51:36	14:58:39	421119	5ee7f5443496da0e8d2203b9	441967289	1	main_z	11	advance_on_keypress_ZEE	12	stimuli_target_circletriangles.svg	stimuli_distractor_trianglediamonds.svg	1	yes	57	0	188
6.6.1	win	2022-12-19	14:51:36	14:58:40	422330	5ee7f5443496da0e8d2203b9	441967289	1	main_z	11	main_z	13	stimuli_target_circlediamonds.svg	stimuli_distractor_diamondtriangles.svg	6	yes	44	1	384
6.6.1	win	2022-12-19	14:51:36	14:58:40	422330	5ee7f5443496da0e8d2203b9	441967289	1	main_z	11	advance_on_keypress_ZEE	14	stimuli_target_circlediamonds.svg	stimuli_distractor_diamondtriangles.svg	6	yes	57	0	163
6.6.1	win	2022-12-19	14:51:36	14:58:42	424030	5ee7f5443496da0e8d2203b9	441967289	1	main_z	11	main_z	15	stimuli_target_diamondcircles.svg	stimuli_distractor_diamondtriangles.svg	23	yes	44	1	885
6.6.1	win	2022-12-19	14:51:36	14:58:42	424030	5ee7f5443496da0e8d2203b9	441967289	1	main_z	11	advance_on_keypress_ZEE	16	stimuli_target_diamondcircles.svg	stimuli_distractor_diamondtriangles.svg	23	yes	57	0	131
6.6.1	win	2022-12-19	14:51:36	14:58:43	425231	5ee7f5443496da0e8d2203b9	441967289	1	main_z	11	main_z	17	stimuli_target_circletriangles.svg	stimuli_distractor_diamondtriangles.svg	5	yes	44	1	420
6.6.1	win	2022-12-19	14:51:36	14:58:43	425231	5ee7f5443496da0e8d2203b9	441967289	1	main_z	11	advance_on_keypress_ZEE	18	stimuli_target_circletriangles.svg	stimuli_distractor_diamondtriangles.svg	5	yes	57	0	542
6.6.1	win	2022-12-19	14:51:36	14:58:45	427538	5ee7f5443496da0e8d2203b9	441967289	1	main_z	11	main_z	19	stimuli_target_trianglesquares.svg	stimuli_distractor_trianglediamonds.svg	18	yes	44	1	1127
6.6.1	win	2022-12-19	14:51:36	14:58:45	427538	5ee7f5443496da0e8d2203b9	441967289	1	main_z	11	advance_on_keypress_ZEE	20	stimuli_target_trianglesquares.svg	stimuli_distractor_trianglediamonds.svg	18	yes	57	0	181
6.6.1	win	2022-12-19	14:51:36	14:58:47	429060	5ee7f5443496da0e8d2203b9	441967289	1	main_z	11	main_z	21	stimuli_distractor_trianglediamonds.svg	stimuli_target_circletriangles.svg	9	yes	44	1	699
6.6.1	win	2022-12-19	14:51:36	14:58:47	429060	5ee7f5443496da0e8d2203b9	441967289	1	main_z	11	advance_on_keypress_ZEE	22	stimuli_distractor_trianglediamonds.svg	stimuli_target_circletriangles.svg	9	yes	57	0	229
6.6.1	win	2022-12-19	14:51:36	14:58:49	431610	5ee7f5443496da0e8d2203b9	441967289	1	main_z	11	main_z	23	stimuli_target_diamondcircles.svg	stimuli_distractor_trianglediamonds.svg	19	yes	44	1	1666
6.6.1	win	2022-12-19	14:51:36	14:58:49	431610	5ee7f5443496da0e8d2203b9	441967289	1	main_z	11	advance_on_keypress_ZEE	24	stimuli_target_diamondcircles.svg	stimuli_distractor_trianglediamonds.svg	19	yes	57	0	189
6.6.1	win	2022-12-19	14:51:36	14:58:51	433027	5ee7f5443496da0e8d2203b9	441967289	1	main_z	11	main_z	25	stimuli_target_squarediamonds.svg	stimuli_distractor_trianglediamonds.svg	4	yes	44	1	585
6.6.1	win	2022-12-19	14:51:36	14:58:51	433027	5ee7f5443496da0e8d2203b9	441967289	1	main_z	11	advance_on_keypress_ZEE	26	stimuli_target_squarediamonds.svg	stimuli_distractor_trianglediamonds.svg	4	yes	57	0	164
6.6.1	win	2022-12-19	14:51:36	14:58:52	434398	5ee7f5443496da0e8d2203b9	441967289	1	main_z	11	main_z	27	stimuli_distractor_trianglediamonds.svg	stimuli_target_squarediamonds.svg	12	yes	44	1	556
6.6.1	win	2022-12-19	14:51:36	14:58:52	434398	5ee7f5443496da0e8d2203b9	441967289	1	main_z	11	advance_on_keypress_ZEE	28	stimuli_distractor_trianglediamonds.svg	stimuli_target_squarediamonds.svg	12	yes	57	0	137
6.6.1	win	2022-12-19	14:51:36	14:58:54	435836	5ee7f5443496da0e8d2203b9	441967289	1	main_z	11	main_z	29	stimuli_target_trianglecircles.svg	stimuli_distractor_trianglediamonds.svg	17	yes	44	1	661
6.6.1	win	2022-12-19	14:51:36	14:58:54	435836	5ee7f5443496da0e8d2203b9	441967289	1	main_z	11	advance_on_keypress_ZEE	30	stimuli_target_trianglecircles.svg	stimuli_distractor_trianglediamonds.svg	17	yes	57	0	172
6.6.1	win	2022-12-19	14:51:36	14:58:55	437605	5ee7f5443496da0e8d2203b9	441967289	1	main_z	11	main_z	31	stimuli_distractor_diamondtriangles.svg	stimuli_target_squarediamonds.svg	16	yes	44	1	963
6.6.1	win	2022-12-19	14:51:36	14:58:55	437605	5ee7f5443496da0e8d2203b9	441967289	1	main_z	11	advance_on_keypress_ZEE	32	stimuli_distractor_diamondtriangles.svg	stimuli_target_squarediamonds.svg	16	yes	57	0	136
6.6.1	win	2022-12-19	14:51:36	14:58:57	438953	5ee7f5443496da0e8d2203b9	441967289	1	main_z	11	main_z	33	stimuli_target_trianglecircles.svg	stimuli_distractor_diamondtriangles.svg	21	yes	44	1	562
6.6.1	win	2022-12-19	14:51:36	14:58:57	438953	5ee7f5443496da0e8d2203b9	441967289	1	main_z	11	advance_on_keypress_ZEE	34	stimuli_target_trianglecircles.svg	stimuli_distractor_diamondtriangles.svg	21	yes	57	0	134
6.6.1	win	2022-12-19	14:51:36	14:58:59	440828	5ee7f5443496da0e8d2203b9	441967289	1	main_z	11	main_z	35	stimuli_target_circlediamonds.svg	stimuli_distractor_trianglediamonds.svg	2	yes	44	1	1087
6.6.1	win	2022-12-19	14:51:36	14:58:59	440828	5ee7f5443496da0e8d2203b9	441967289	1	main_z	11	advance_on_keypress_ZEE	36	stimuli_target_circlediamonds.svg	stimuli_distractor_trianglediamonds.svg	2	yes	57	0	177
6.6.1	win	2022-12-19	14:51:36	14:59:01	443641	5ee7f5443496da0e8d2203b9	441967289	1	main_z	11	main_z	37	stimuli_distractor_diamondtriangles.svg	stimuli_distractor_trianglediamonds.svg	38	no	0	1	2000
6.6.1	win	2022-12-19	14:51:36	14:59:01	443641	5ee7f5443496da0e8d2203b9	441967289	1	main_z	11	advance_on_keypress_ZEE	38	stimuli_distractor_diamondtriangles.svg	stimuli_distractor_trianglediamonds.svg	38	no	57	0	451
6.6.1	win	2022-12-19	14:51:36	14:59:03	445342	5ee7f5443496da0e8d2203b9	441967289	1	main_z	11	main_z	39	stimuli_distractor_diamondtriangles.svg	stimuli_target_circlediamonds.svg	14	yes	44	1	602
6.6.1	win	2022-12-19	14:51:36	14:59:03	445342	5ee7f5443496da0e8d2203b9	441967289	1	main_z	11	advance_on_keypress_ZEE	40	stimuli_distractor_diamondtriangles.svg	stimuli_target_circlediamonds.svg	14	yes	57	0	125
6.6.1	win	2022-12-19	14:51:36	14:59:06	448106	5ee7f5443496da0e8d2203b9	441967289	1	main_z	11	main_z	41	stimuli_distractor_diamondtriangles.svg	stimuli_distractor_diamondtriangles.svg	40	no	0	1	2000
6.6.1	win	2022-12-19	14:51:36	14:59:06	448106	5ee7f5443496da0e8d2203b9	441967289	1	main_z	11	advance_on_keypress_ZEE	42	stimuli_distractor_diamondtriangles.svg	stimuli_distractor_diamondtriangles.svg	40	no	57	0	599
6.6.1	win	2022-12-19	14:51:36	14:59:08	450770	5ee7f5443496da0e8d2203b9	441967289	1	main_z	11	main_z	43	stimuli_distractor_trianglediamonds.svg	stimuli_target_diamondsquares.svg	28	yes	44	1	1415
6.6.1	win	2022-12-19	14:51:36	14:59:08	450770	5ee7f5443496da0e8d2203b9	441967289	1	main_z	11	advance_on_keypress_ZEE	44	stimuli_distractor_trianglediamonds.svg	stimuli_target_diamondsquares.svg	28	yes	57	0	156
6.6.1	win	2022-12-19	14:51:36	14:59:11	453572	5ee7f5443496da0e8d2203b9	441967289	1	main_z	11	main_z	45	stimuli_distractor_trianglediamonds.svg	stimuli_distractor_diamondtriangles.svg	36	no	0	1	2000
6.6.1	win	2022-12-19	14:51:36	14:59:11	453572	5ee7f5443496da0e8d2203b9	441967289	1	main_z	11	advance_on_keypress_ZEE	46	stimuli_distractor_trianglediamonds.svg	stimuli_distractor_diamondtriangles.svg	36	no	57	0	557
6.6.1	win	2022-12-19	14:51:36	14:59:13	455325	5ee7f5443496da0e8d2203b9	441967289	1	main_z	11	main_z	47	stimuli_target_squaretriangles.svg	stimuli_distractor_trianglediamonds.svg	3	yes	44	1	555
6.6.1	win	2022-12-19	14:51:36	14:59:13	455325	5ee7f5443496da0e8d2203b9	441967289	1	main_z	11	advance_on_keypress_ZEE	48	stimuli_target_squaretriangles.svg	stimuli_distractor_trianglediamonds.svg	3	yes	57	0	124
6.6.1	win	2022-12-19	14:51:36	14:59:16	458087	5ee7f5443496da0e8d2203b9	441967289	1	main_z	11	main_z	49	stimuli_distractor_diamondtriangles.svg	stimuli_distractor_trianglediamonds.svg	37	no	0	1	2000
6.6.1	win	2022-12-19	14:51:36	14:59:16	458087	5ee7f5443496da0e8d2203b9	441967289	1	main_z	11	advance_on_keypress_ZEE	50	stimuli_distractor_diamondtriangles.svg	stimuli_distractor_trianglediamonds.svg	37	no	57	0	532
6.6.1	win	2022-12-19	14:51:36	14:59:18	460005	5ee7f5443496da0e8d2203b9	441967289	1	main_z	11	main_z	51	stimuli_distractor_diamondtriangles.svg	stimuli_target_circletriangles.svg	13	yes	44	1	736
6.6.1	win	2022-12-19	14:51:36	14:59:18	460005	5ee7f5443496da0e8d2203b9	441967289	1	main_z	11	advance_on_keypress_ZEE	52	stimuli_distractor_diamondtriangles.svg	stimuli_target_circletriangles.svg	13	yes	57	0	120
6.6.1	win	2022-12-19	14:51:36	14:59:19	461385	5ee7f5443496da0e8d2203b9	441967289	1	main_z	11	main_z	53	stimuli_distractor_diamondtriangles.svg	stimuli_target_diamondcircles.svg	31	yes	44	1	615
6.6.1	win	2022-12-19	14:51:36	14:59:19	461385	5ee7f5443496da0e8d2203b9	441967289	1	main_z	11	advance_on_keypress_ZEE	54	stimuli_distractor_diamondtriangles.svg	stimuli_target_diamondcircles.svg	31	yes	57	0	113
6.6.1	win	2022-12-19	14:51:36	14:59:21	462900	5ee7f5443496da0e8d2203b9	441967289	1	main_z	11	main_z	55	stimuli_target_squarediamonds.svg	stimuli_distractor_diamondtriangles.svg	8	yes	44	1	747
6.6.1	win	2022-12-19	14:51:36	14:59:21	462900	5ee7f5443496da0e8d2203b9	441967289	1	main_z	11	advance_on_keypress_ZEE	56	stimuli_target_squarediamonds.svg	stimuli_distractor_diamondtriangles.svg	8	yes	57	0	120
6.6.1	win	2022-12-19	14:51:36	14:59:22	464735	5ee7f5443496da0e8d2203b9	441967289	1	main_z	11	main_z	57	stimuli_target_diamondsquares.svg	stimuli_distractor_trianglediamonds.svg	20	yes	44	1	1067
6.6.1	win	2022-12-19	14:51:36	14:59:22	464735	5ee7f5443496da0e8d2203b9	441967289	1	main_z	11	advance_on_keypress_ZEE	58	stimuli_target_diamondsquares.svg	stimuli_distractor_trianglediamonds.svg	20	yes	57	0	136
6.6.1	win	2022-12-19	14:51:36	14:59:24	466344	5ee7f5443496da0e8d2203b9	441967289	1	main_z	11	main_z	59	stimuli_distractor_trianglediamonds.svg	stimuli_distractor_trianglediamonds.svg	34	no	44	0	826
6.6.1	win	2022-12-19	14:51:36	14:59:24	466344	5ee7f5443496da0e8d2203b9	441967289	1	main_z	11	advance_on_keypress_ZEE	60	stimuli_distractor_trianglediamonds.svg	stimuli_distractor_trianglediamonds.svg	34	no	57	0	850
6.6.1	win	2022-12-19	14:51:36	14:59:28	469834	5ee7f5443496da0e8d2203b9	441967289	1	main_z	11	main_z	61	stimuli_distractor_trianglediamonds.svg	stimuli_distractor_diamondtriangles.svg	35	no	0	1	2000
6.6.1	win	2022-12-19	14:51:36	14:59:28	469834	5ee7f5443496da0e8d2203b9	441967289	1	main_z	11	advance_on_keypress_ZEE	62	stimuli_distractor_trianglediamonds.svg	stimuli_distractor_diamondtriangles.svg	35	no	57	0	437
6.6.1	win	2022-12-19	14:51:36	14:59:31	472916	5ee7f5443496da0e8d2203b9	441967289	1	main_z	11	main_z	63	stimuli_distractor_trianglediamonds.svg	stimuli_distractor_trianglediamonds.svg	33	no	0	1	2000
6.6.1	win	2022-12-19	14:51:36	14:59:31	472916	5ee7f5443496da0e8d2203b9	441967289	1	main_z	11	advance_on_keypress_ZEE	64	stimuli_distractor_trianglediamonds.svg	stimuli_distractor_trianglediamonds.svg	33	no	57	0	268
6.6.1	win	2022-12-19	14:51:36	14:59:32	474468	5ee7f5443496da0e8d2203b9	441967289	1	main_z	11	main_z	65	stimuli_distractor_trianglediamonds.svg	stimuli_target_trianglesquares.svg	26	yes	44	1	636
6.6.1	win	2022-12-19	14:51:36	14:59:32	474468	5ee7f5443496da0e8d2203b9	441967289	1	main_z	11	advance_on_keypress_ZEE	66	stimuli_distractor_trianglediamonds.svg	stimuli_target_trianglesquares.svg	26	yes	57	0	153
6.6.1	win	2022-12-19	14:51:36	14:59:34	475908	5ee7f5443496da0e8d2203b9	441967289	1	main_z	11	main_z	67	stimuli_distractor_trianglediamonds.svg	stimuli_target_circlediamonds.svg	10	yes	44	1	643
6.6.1	win	2022-12-19	14:51:36	14:59:34	475908	5ee7f5443496da0e8d2203b9	441967289	1	main_z	11	advance_on_keypress_ZEE	68	stimuli_distractor_trianglediamonds.svg	stimuli_target_circlediamonds.svg	10	yes	57	0	148
6.6.1	win	2022-12-19	14:51:36	14:59:35	477324	5ee7f5443496da0e8d2203b9	441967289	1	main_z	11	main_z	69	stimuli_distractor_trianglediamonds.svg	stimuli_target_trianglecircles.svg	25	yes	44	1	625
6.6.1	win	2022-12-19	14:51:36	14:59:35	477324	5ee7f5443496da0e8d2203b9	441967289	1	main_z	11	advance_on_keypress_ZEE	70	stimuli_distractor_trianglediamonds.svg	stimuli_target_trianglecircles.svg	25	yes	57	0	134
6.6.1	win	2022-12-19	14:51:36	14:59:37	478860	5ee7f5443496da0e8d2203b9	441967289	1	main_z	11	main_z	71	stimuli_distractor_trianglediamonds.svg	stimuli_target_squaretriangles.svg	11	yes	44	1	762
6.6.1	win	2022-12-19	14:51:36	14:59:37	478860	5ee7f5443496da0e8d2203b9	441967289	1	main_z	11	advance_on_keypress_ZEE	72	stimuli_distractor_trianglediamonds.svg	stimuli_target_squaretriangles.svg	11	yes	57	0	123
6.6.1	win	2022-12-19	14:51:36	14:59:38	480624	5ee7f5443496da0e8d2203b9	441967289	1	main_z	11	main_z	73	stimuli_distractor_diamondtriangles.svg	stimuli_target_squaretriangles.svg	15	yes	44	1	993
6.6.1	win	2022-12-19	14:51:36	14:59:38	480624	5ee7f5443496da0e8d2203b9	441967289	1	main_z	11	advance_on_keypress_ZEE	74	stimuli_distractor_diamondtriangles.svg	stimuli_target_squaretriangles.svg	15	yes	57	0	113
6.6.1	win	2022-12-19	14:51:36	14:59:40	481923	5ee7f5443496da0e8d2203b9	441967289	1	main_z	11	main_z	75	stimuli_distractor_diamondtriangles.svg	stimuli_target_trianglecircles.svg	29	yes	44	1	542
6.6.1	win	2022-12-19	14:51:36	14:59:40	481923	5ee7f5443496da0e8d2203b9	441967289	1	main_z	11	advance_on_keypress_ZEE	76	stimuli_distractor_diamondtriangles.svg	stimuli_target_trianglecircles.svg	29	yes	57	0	112
6.6.1	win	2022-12-19	14:51:36	14:59:41	483313	5ee7f5443496da0e8d2203b9	441967289	1	main_z	11	main_z	77	stimuli_distractor_trianglediamonds.svg	stimuli_target_diamondcircles.svg	27	yes	44	1	633
6.6.1	win	2022-12-19	14:51:36	14:59:41	483313	5ee7f5443496da0e8d2203b9	441967289	1	main_z	11	advance_on_keypress_ZEE	78	stimuli_distractor_trianglediamonds.svg	stimuli_target_diamondcircles.svg	27	yes	57	0	130
6.6.1	win	2022-12-19	14:51:36	14:59:42	484776	5ee7f5443496da0e8d2203b9	441967289	1	main_z	11	main_z	79	stimuli_distractor_diamondtriangles.svg	stimuli_target_diamondsquares.svg	32	yes	44	1	679
6.6.1	win	2022-12-19	14:51:36	14:59:42	484776	5ee7f5443496da0e8d2203b9	441967289	1	main_z	11	advance_on_keypress_ZEE	80	stimuli_distractor_diamondtriangles.svg	stimuli_target_diamondsquares.svg	32	yes	57	0	139
6.6.1	win	2022-12-19	14:51:36	14:59:44	486139	5ee7f5443496da0e8d2203b9	441967289	1	main_z	11	main_z	81	stimuli_target_circletriangles.svg	stimuli_distractor_trianglediamonds.svg	1	yes	44	1	576
6.6.1	win	2022-12-19	14:51:36	14:59:44	486139	5ee7f5443496da0e8d2203b9	441967289	1	main_z	11	advance_on_keypress_ZEE	82	stimuli_target_circletriangles.svg	stimuli_distractor_trianglediamonds.svg	1	yes	57	0	145
6.6.1	win	2022-12-19	14:51:36	14:59:45	487364	5ee7f5443496da0e8d2203b9	441967289	1	main_z	11	main_z	83	stimuli_distractor_diamondtriangles.svg	stimuli_target_circletriangles.svg	13	yes	44	1	435
6.6.1	win	2022-12-19	14:51:36	14:59:45	487364	5ee7f5443496da0e8d2203b9	441967289	1	main_z	11	advance_on_keypress_ZEE	84	stimuli_distractor_diamondtriangles.svg	stimuli_target_circletriangles.svg	13	yes	57	0	137
6.6.1	win	2022-12-19	14:51:36	14:59:46	488606	5ee7f5443496da0e8d2203b9	441967289	1	main_z	11	main_z	85	stimuli_target_squarediamonds.svg	stimuli_distractor_diamondtriangles.svg	8	yes	44	1	459
6.6.1	win	2022-12-19	14:51:36	14:59:46	488606	5ee7f5443496da0e8d2203b9	441967289	1	main_z	11	advance_on_keypress_ZEE	86	stimuli_target_squarediamonds.svg	stimuli_distractor_diamondtriangles.svg	8	yes	57	0	242
6.6.1	win	2022-12-19	14:51:36	14:59:48	490543	5ee7f5443496da0e8d2203b9	441967289	1	main_z	11	main_z	87	stimuli_target_trianglesquares.svg	stimuli_distractor_diamondtriangles.svg	22	yes	44	1	1064
6.6.1	win	2022-12-19	14:51:36	14:59:48	490543	5ee7f5443496da0e8d2203b9	441967289	1	main_z	11	advance_on_keypress_ZEE	88	stimuli_target_trianglesquares.svg	stimuli_distractor_diamondtriangles.svg	22	yes	57	0	264
6.6.1	win	2022-12-19	14:51:36	14:59:50	491996	5ee7f5443496da0e8d2203b9	441967289	1	main_z	11	main_z	89	stimuli_target_squaretriangles.svg	stimuli_distractor_trianglediamonds.svg	3	yes	44	1	535
6.6.1	win	2022-12-19	14:51:36	14:59:50	491996	5ee7f5443496da0e8d2203b9	441967289	1	main_z	11	advance_on_keypress_ZEE	90	stimuli_target_squaretriangles.svg	stimuli_distractor_trianglediamonds.svg	3	yes	57	0	124
6.6.1	win	2022-12-19	14:51:36	14:59:51	493237	5ee7f5443496da0e8d2203b9	441967289	1	main_z	11	main_z	91	stimuli_target_circletriangles.svg	stimuli_distractor_diamondtriangles.svg	5	yes	44	1	475
6.6.1	win	2022-12-19	14:51:36	14:59:51	493237	5ee7f5443496da0e8d2203b9	441967289	1	main_z	11	advance_on_keypress_ZEE	92	stimuli_target_circletriangles.svg	stimuli_distractor_diamondtriangles.svg	5	yes	57	0	140
6.6.1	win	2022-12-19	14:51:36	14:59:54	496011	5ee7f5443496da0e8d2203b9	441967289	1	main_z	11	main_z	93	stimuli_distractor_trianglediamonds.svg	stimuli_distractor_trianglediamonds.svg	34	no	0	1	2000
6.6.1	win	2022-12-19	14:51:36	14:59:54	496011	5ee7f5443496da0e8d2203b9	441967289	1	main_z	11	advance_on_keypress_ZEE	94	stimuli_distractor_trianglediamonds.svg	stimuli_distractor_trianglediamonds.svg	34	no	57	0	733
6.6.1	win	2022-12-19	14:51:36	14:59:56	497958	5ee7f5443496da0e8d2203b9	441967289	1	main_z	11	main_z	95	stimuli_distractor_trianglediamonds.svg	stimuli_target_squarediamonds.svg	12	yes	44	1	564
6.6.1	win	2022-12-19	14:51:36	14:59:56	497958	5ee7f5443496da0e8d2203b9	441967289	1	main_z	11	advance_on_keypress_ZEE	96	stimuli_distractor_trianglediamonds.svg	stimuli_target_squarediamonds.svg	12	yes	57	0	133
6.6.1	win	2022-12-19	14:51:36	14:59:57	499176	5ee7f5443496da0e8d2203b9	441967289	1	main_z	11	main_z	97	stimuli_target_circlediamonds.svg	stimuli_distractor_trianglediamonds.svg	2	yes	44	1	432
6.6.1	win	2022-12-19	14:51:36	14:59:57	499176	5ee7f5443496da0e8d2203b9	441967289	1	main_z	11	advance_on_keypress_ZEE	98	stimuli_target_circlediamonds.svg	stimuli_distractor_trianglediamonds.svg	2	yes	57	0	116
6.6.1	win	2022-12-19	14:51:36	14:59:58	500653	5ee7f5443496da0e8d2203b9	441967289	1	main_z	11	main_z	99	stimuli_target_trianglecircles.svg	stimuli_distractor_trianglediamonds.svg	17	yes	44	1	711
6.6.1	win	2022-12-19	14:51:36	14:59:58	500653	5ee7f5443496da0e8d2203b9	441967289	1	main_z	11	advance_on_keypress_ZEE	100	stimuli_target_trianglecircles.svg	stimuli_distractor_trianglediamonds.svg	17	yes	57	0	131
6.6.1	win	2022-12-19	14:51:36	15:00:00	502037	5ee7f5443496da0e8d2203b9	441967289	1	main_z	11	main_z	101	stimuli_distractor_diamondtriangles.svg	stimuli_target_diamondsquares.svg	32	yes	44	1	611
6.6.1	win	2022-12-19	14:51:36	15:00:00	502037	5ee7f5443496da0e8d2203b9	441967289	1	main_z	11	advance_on_keypress_ZEE	102	stimuli_distractor_diamondtriangles.svg	stimuli_target_diamondsquares.svg	32	yes	57	0	107
6.6.1	win	2022-12-19	14:51:36	15:00:02	504776	5ee7f5443496da0e8d2203b9	441967289	1	main_z	11	main_z	103	stimuli_distractor_diamondtriangles.svg	stimuli_distractor_trianglediamonds.svg	38	no	0	1	2000
6.6.1	win	2022-12-19	14:51:36	15:00:02	504776	5ee7f5443496da0e8d2203b9	441967289	1	main_z	11	advance_on_keypress_ZEE	104	stimuli_distractor_diamondtriangles.svg	stimuli_distractor_trianglediamonds.svg	38	no	57	0	747
6.6.1	win	2022-12-19	14:51:36	15:00:06	508175	5ee7f5443496da0e8d2203b9	441967289	1	main_z	11	main_z	105	stimuli_distractor_trianglediamonds.svg	stimuli_distractor_diamondtriangles.svg	35	no	0	1	2000
6.6.1	win	2022-12-19	14:51:36	15:00:06	508175	5ee7f5443496da0e8d2203b9	441967289	1	main_z	11	advance_on_keypress_ZEE	106	stimuli_distractor_trianglediamonds.svg	stimuli_distractor_diamondtriangles.svg	35	no	57	0	1544
6.6.1	win	2022-12-19	14:51:36	15:00:10	512357	5ee7f5443496da0e8d2203b9	441967289	1	main_z	11	main_z	107	stimuli_distractor_trianglediamonds.svg	stimuli_distractor_trianglediamonds.svg	33	no	0	1	2000
6.6.1	win	2022-12-19	14:51:36	15:00:10	512357	5ee7f5443496da0e8d2203b9	441967289	1	main_z	11	advance_on_keypress_ZEE	108	stimuli_distractor_trianglediamonds.svg	stimuli_distractor_trianglediamonds.svg	33	no	57	0	319
6.6.1	win	2022-12-19	14:51:36	15:00:12	513843	5ee7f5443496da0e8d2203b9	441967289	1	main_z	11	main_z	109	stimuli_target_diamondcircles.svg	stimuli_distractor_trianglediamonds.svg	19	yes	44	1	520
6.6.1	win	2022-12-19	14:51:36	15:00:12	513843	5ee7f5443496da0e8d2203b9	441967289	1	main_z	11	advance_on_keypress_ZEE	110	stimuli_target_diamondcircles.svg	stimuli_distractor_trianglediamonds.svg	19	yes	57	0	125
6.6.1	win	2022-12-19	14:51:36	15:00:13	515160	5ee7f5443496da0e8d2203b9	441967289	1	main_z	11	main_z	111	stimuli_distractor_trianglediamonds.svg	stimuli_target_squaretriangles.svg	11	yes	44	1	554
6.6.1	win	2022-12-19	14:51:36	15:00:13	515160	5ee7f5443496da0e8d2203b9	441967289	1	main_z	11	advance_on_keypress_ZEE	112	stimuli_distractor_trianglediamonds.svg	stimuli_target_squaretriangles.svg	11	yes	57	0	113
6.6.1	win	2022-12-19	14:51:36	15:00:14	516634	5ee7f5443496da0e8d2203b9	441967289	1	main_z	11	main_z	113	stimuli_target_trianglesquares.svg	stimuli_distractor_trianglediamonds.svg	18	yes	44	1	712
6.6.1	win	2022-12-19	14:51:36	15:00:14	516634	5ee7f5443496da0e8d2203b9	441967289	1	main_z	11	advance_on_keypress_ZEE	114	stimuli_target_trianglesquares.svg	stimuli_distractor_trianglediamonds.svg	18	yes	57	0	169
6.6.1	win	2022-12-19	14:51:36	15:00:16	517872	5ee7f5443496da0e8d2203b9	441967289	1	main_z	11	main_z	115	stimuli_target_diamondcircles.svg	stimuli_distractor_diamondtriangles.svg	23	yes	44	1	434
6.6.1	win	2022-12-19	14:51:36	15:00:16	517872	5ee7f5443496da0e8d2203b9	441967289	1	main_z	11	advance_on_keypress_ZEE	116	stimuli_target_diamondcircles.svg	stimuli_distractor_diamondtriangles.svg	23	yes	57	0	145
6.6.1	win	2022-12-19	14:51:36	15:00:17	519198	5ee7f5443496da0e8d2203b9	441967289	1	main_z	11	main_z	117	stimuli_distractor_trianglediamonds.svg	stimuli_target_diamondsquares.svg	28	yes	44	1	527
6.6.1	win	2022-12-19	14:51:36	15:00:17	519198	5ee7f5443496da0e8d2203b9	441967289	1	main_z	11	advance_on_keypress_ZEE	118	stimuli_distractor_trianglediamonds.svg	stimuli_target_diamondsquares.svg	28	yes	57	0	250
6.6.1	win	2022-12-19	14:51:36	15:00:18	520619	5ee7f5443496da0e8d2203b9	441967289	1	main_z	11	main_z	119	stimuli_distractor_trianglediamonds.svg	stimuli_target_trianglecircles.svg	25	yes	44	1	530
6.6.1	win	2022-12-19	14:51:36	15:00:18	520619	5ee7f5443496da0e8d2203b9	441967289	1	main_z	11	advance_on_keypress_ZEE	120	stimuli_distractor_trianglediamonds.svg	stimuli_target_trianglecircles.svg	25	yes	57	0	118
6.6.1	win	2022-12-19	14:51:36	15:00:21	523388	5ee7f5443496da0e8d2203b9	441967289	1	main_z	11	main_z	121	stimuli_distractor_diamondtriangles.svg	stimuli_distractor_diamondtriangles.svg	39	no	0	1	2000
6.6.1	win	2022-12-19	14:51:36	15:00:21	523388	5ee7f5443496da0e8d2203b9	441967289	1	main_z	11	advance_on_keypress_ZEE	122	stimuli_distractor_diamondtriangles.svg	stimuli_distractor_diamondtriangles.svg	39	no	57	0	646
6.6.1	win	2022-12-19	14:51:36	15:00:23	525235	5ee7f5443496da0e8d2203b9	441967289	1	main_z	11	main_z	123	stimuli_target_squaretriangles.svg	stimuli_distractor_diamondtriangles.svg	7	yes	44	1	548
6.6.1	win	2022-12-19	14:51:36	15:00:23	525235	5ee7f5443496da0e8d2203b9	441967289	1	main_z	11	advance_on_keypress_ZEE	124	stimuli_target_squaretriangles.svg	stimuli_distractor_diamondtriangles.svg	7	yes	57	0	115
6.6.1	win	2022-12-19	14:51:36	15:00:24	526495	5ee7f5443496da0e8d2203b9	441967289	1	main_z	11	main_z	125	stimuli_distractor_diamondtriangles.svg	stimuli_target_circlediamonds.svg	14	yes	44	1	492
6.6.1	win	2022-12-19	14:51:36	15:00:24	526495	5ee7f5443496da0e8d2203b9	441967289	1	main_z	11	advance_on_keypress_ZEE	126	stimuli_distractor_diamondtriangles.svg	stimuli_target_circlediamonds.svg	14	yes	57	0	210
6.6.1	win	2022-12-19	14:51:36	15:00:26	527872	5ee7f5443496da0e8d2203b9	441967289	1	main_z	11	main_z	127	stimuli_distractor_diamondtriangles.svg	stimuli_target_squaretriangles.svg	15	yes	44	1	535
6.6.1	win	2022-12-19	14:51:36	15:00:26	527872	5ee7f5443496da0e8d2203b9	441967289	1	main_z	11	advance_on_keypress_ZEE	128	stimuli_distractor_diamondtriangles.svg	stimuli_target_squaretriangles.svg	15	yes	57	0	115
6.6.1	win	2022-12-19	14:51:36	15:00:28	530189	5ee7f5443496da0e8d2203b9	441967289	1	main_z	11	main_z	129	stimuli_target_diamondsquares.svg	stimuli_distractor_diamondtriangles.svg	24	yes	44	1	1554
6.6.1	win	2022-12-19	14:51:36	15:00:28	530189	5ee7f5443496da0e8d2203b9	441967289	1	main_z	11	advance_on_keypress_ZEE	130	stimuli_target_diamondsquares.svg	stimuli_distractor_diamondtriangles.svg	24	yes	57	0	74
6.6.1	win	2022-12-19	14:51:36	15:00:31	532902	5ee7f5443496da0e8d2203b9	441967289	1	main_z	11	main_z	131	stimuli_distractor_diamondtriangles.svg	stimuli_distractor_diamondtriangles.svg	40	no	0	1	2000
6.6.1	win	2022-12-19	14:51:36	15:00:31	532902	5ee7f5443496da0e8d2203b9	441967289	1	main_z	11	advance_on_keypress_ZEE	132	stimuli_distractor_diamondtriangles.svg	stimuli_distractor_diamondtriangles.svg	40	no	57	0	535
6.6.1	win	2022-12-19	14:51:36	15:00:32	534751	5ee7f5443496da0e8d2203b9	441967289	1	main_z	11	main_z	133	stimuli_distractor_diamondtriangles.svg	stimuli_target_trianglesquares.svg	30	yes	44	1	667
6.6.1	win	2022-12-19	14:51:36	15:00:32	534751	5ee7f5443496da0e8d2203b9	441967289	1	main_z	11	advance_on_keypress_ZEE	134	stimuli_distractor_diamondtriangles.svg	stimuli_target_trianglesquares.svg	30	yes	57	0	73
6.6.1	win	2022-12-19	14:51:36	15:00:35	537467	5ee7f5443496da0e8d2203b9	441967289	1	main_z	11	main_z	135	stimuli_distractor_trianglediamonds.svg	stimuli_distractor_diamondtriangles.svg	36	no	0	1	2000
6.6.1	win	2022-12-19	14:51:36	15:00:35	537467	5ee7f5443496da0e8d2203b9	441967289	1	main_z	11	advance_on_keypress_ZEE	136	stimuli_distractor_trianglediamonds.svg	stimuli_distractor_diamondtriangles.svg	36	no	57	0	423
6.6.1	win	2022-12-19	14:51:36	15:00:37	538967	5ee7f5443496da0e8d2203b9	441967289	1	main_z	11	main_z	137	stimuli_distractor_trianglediamonds.svg	stimuli_target_circlediamonds.svg	10	yes	44	1	433
6.6.1	win	2022-12-19	14:51:36	15:00:37	538967	5ee7f5443496da0e8d2203b9	441967289	1	main_z	11	advance_on_keypress_ZEE	138	stimuli_distractor_trianglediamonds.svg	stimuli_target_circlediamonds.svg	10	yes	57	0	120
6.6.1	win	2022-12-19	14:51:36	15:00:39	541733	5ee7f5443496da0e8d2203b9	441967289	1	main_z	11	main_z	139	stimuli_target_diamondsquares.svg	stimuli_distractor_trianglediamonds.svg	20	yes	0	0	2000
6.6.1	win	2022-12-19	14:51:36	15:00:39	541733	5ee7f5443496da0e8d2203b9	441967289	1	main_z	11	advance_on_keypress_ZEE	140	stimuli_target_diamondsquares.svg	stimuli_distractor_trianglediamonds.svg	20	yes	57	0	581
6.6.1	win	2022-12-19	14:51:36	15:00:41	543426	5ee7f5443496da0e8d2203b9	441967289	1	main_z	11	main_z	141	stimuli_target_trianglecircles.svg	stimuli_distractor_diamondtriangles.svg	21	yes	44	1	461
6.6.1	win	2022-12-19	14:51:36	15:00:41	543426	5ee7f5443496da0e8d2203b9	441967289	1	main_z	11	advance_on_keypress_ZEE	142	stimuli_target_trianglecircles.svg	stimuli_distractor_diamondtriangles.svg	21	yes	57	0	122
6.6.1	win	2022-12-19	14:51:36	15:00:42	544747	5ee7f5443496da0e8d2203b9	441967289	1	main_z	11	main_z	143	stimuli_target_circlediamonds.svg	stimuli_distractor_diamondtriangles.svg	6	yes	44	1	565
6.6.1	win	2022-12-19	14:51:36	15:00:42	544747	5ee7f5443496da0e8d2203b9	441967289	1	main_z	11	advance_on_keypress_ZEE	144	stimuli_target_circlediamonds.svg	stimuli_distractor_diamondtriangles.svg	6	yes	57	0	107
6.6.1	win	2022-12-19	14:51:36	15:00:45	547498	5ee7f5443496da0e8d2203b9	441967289	1	main_z	11	main_z	145	stimuli_distractor_diamondtriangles.svg	stimuli_distractor_trianglediamonds.svg	37	no	0	1	2000
6.6.1	win	2022-12-19	14:51:36	15:00:45	547498	5ee7f5443496da0e8d2203b9	441967289	1	main_z	11	advance_on_keypress_ZEE	146	stimuli_distractor_diamondtriangles.svg	stimuli_distractor_trianglediamonds.svg	37	no	57	0	544
6.6.1	win	2022-12-19	14:51:36	15:00:47	549148	5ee7f5443496da0e8d2203b9	441967289	1	main_z	11	main_z	147	stimuli_target_squarediamonds.svg	stimuli_distractor_trianglediamonds.svg	4	yes	44	1	467
6.6.1	win	2022-12-19	14:51:36	15:00:47	549148	5ee7f5443496da0e8d2203b9	441967289	1	main_z	11	advance_on_keypress_ZEE	148	stimuli_target_squarediamonds.svg	stimuli_distractor_trianglediamonds.svg	4	yes	57	0	112
6.6.1	win	2022-12-19	14:51:36	15:00:48	550600	5ee7f5443496da0e8d2203b9	441967289	1	main_z	11	main_z	149	stimuli_distractor_diamondtriangles.svg	stimuli_target_trianglecircles.svg	29	yes	44	1	686
6.6.1	win	2022-12-19	14:51:36	15:00:48	550600	5ee7f5443496da0e8d2203b9	441967289	1	main_z	11	advance_on_keypress_ZEE	150	stimuli_distractor_diamondtriangles.svg	stimuli_target_trianglecircles.svg	29	yes	57	0	111
6.6.1	win	2022-12-19	14:51:36	15:00:49	551798	5ee7f5443496da0e8d2203b9	441967289	1	main_z	11	main_z	151	stimuli_distractor_trianglediamonds.svg	stimuli_target_diamondcircles.svg	27	yes	44	1	451
6.6.1	win	2022-12-19	14:51:36	15:00:49	551798	5ee7f5443496da0e8d2203b9	441967289	1	main_z	11	advance_on_keypress_ZEE	152	stimuli_distractor_trianglediamonds.svg	stimuli_target_diamondcircles.svg	27	yes	57	0	118
6.6.1	win	2022-12-19	14:51:36	15:00:51	553034	5ee7f5443496da0e8d2203b9	441967289	1	main_z	11	main_z	153	stimuli_distractor_trianglediamonds.svg	stimuli_target_circletriangles.svg	9	yes	44	1	471
6.6.1	win	2022-12-19	14:51:36	15:00:51	553034	5ee7f5443496da0e8d2203b9	441967289	1	main_z	11	advance_on_keypress_ZEE	154	stimuli_distractor_trianglediamonds.svg	stimuli_target_circletriangles.svg	9	yes	57	0	123
6.6.1	win	2022-12-19	14:51:36	15:00:52	554460	5ee7f5443496da0e8d2203b9	441967289	1	main_z	11	main_z	155	stimuli_distractor_diamondtriangles.svg	stimuli_target_squarediamonds.svg	16	yes	44	1	664
6.6.1	win	2022-12-19	14:51:36	15:00:52	554460	5ee7f5443496da0e8d2203b9	441967289	1	main_z	11	advance_on_keypress_ZEE	156	stimuli_distractor_diamondtriangles.svg	stimuli_target_squarediamonds.svg	16	yes	57	0	114
6.6.1	win	2022-12-19	14:51:36	15:00:53	555687	5ee7f5443496da0e8d2203b9	441967289	1	main_z	11	main_z	157	stimuli_distractor_trianglediamonds.svg	stimuli_target_trianglesquares.svg	26	yes	44	1	458
6.6.1	win	2022-12-19	14:51:36	15:00:53	555687	5ee7f5443496da0e8d2203b9	441967289	1	main_z	11	advance_on_keypress_ZEE	158	stimuli_distractor_trianglediamonds.svg	stimuli_target_trianglesquares.svg	26	yes	57	0	404
6.6.1	win	2022-12-19	14:51:36	15:00:55	557264	5ee7f5443496da0e8d2203b9	441967289	1	main_z	11	main_z	159	stimuli_distractor_diamondtriangles.svg	stimuli_target_diamondcircles.svg	31	yes	44	1	535
6.6.1	win	2022-12-19	14:51:36	15:00:55	557264	5ee7f5443496da0e8d2203b9	441967289	1	main_z	11	advance_on_keypress_ZEE	160	stimuli_distractor_diamondtriangles.svg	stimuli_target_diamondcircles.svg	31	yes	57	0	94