build	computer.platform	date	time	timestamp	time_elapsed_ms	subject	group	session	blockcode	blocknum	trialcode	trialnum	stimulus_left	stimulus_right	stim_index	target_present	response	correct	latency
6.6.1	win	2022-12-14	14:44:41	14:47:07	144068	5d1ba5653788ac0019ced548	958539463	1	practice_slash	5	practice_slash	1	stimuli_target_circlediamonds.svg	stimuli_distractor_diamondtriangles.svg	1	yes	0	0	2000
6.6.1	win	2022-12-14	14:44:41	14:47:07	144068	5d1ba5653788ac0019ced548	958539463	1	practice_slash	5	advance_on_keypress_SLASH	2	stimuli_target_circlediamonds.svg	stimuli_distractor_diamondtriangles.svg	1	yes	57	0	1869
6.6.1	win	2022-12-14	14:44:41	14:47:11	148414	5d1ba5653788ac0019ced548	958539463	1	practice_slash	5	practice_slash	3	stimuli_target_diamondsquares.svg	stimuli_distractor_trianglediamonds.svg	6	yes	53	1	812
6.6.1	win	2022-12-14	14:44:41	14:47:11	148414	5d1ba5653788ac0019ced548	958539463	1	practice_slash	5	advance_on_keypress_SLASH	4	stimuli_target_diamondsquares.svg	stimuli_distractor_trianglediamonds.svg	6	yes	57	0	3892
6.6.1	win	2022-12-14	14:44:41	14:47:18	154619	5d1ba5653788ac0019ced548	958539463	1	practice_slash	5	practice_slash	5	stimuli_distractor_diamondtriangles.svg	stimuli_target_trianglecircles.svg	9	yes	53	1	683
6.6.1	win	2022-12-14	14:44:41	14:47:18	154619	5d1ba5653788ac0019ced548	958539463	1	practice_slash	5	advance_on_keypress_SLASH	6	stimuli_distractor_diamondtriangles.svg	stimuli_target_trianglecircles.svg	9	yes	57	0	2740
6.6.1	win	2022-12-14	14:44:41	14:47:24	161002	5d1ba5653788ac0019ced548	958539463	1	practice_slash	5	practice_slash	7	stimuli_distractor_diamondtriangles.svg	stimuli_distractor_diamondtriangles.svg	13	no	0	1	2000
6.6.1	win	2022-12-14	14:44:41	14:47:24	161002	5d1ba5653788ac0019ced548	958539463	1	practice_slash	5	advance_on_keypress_SLASH	8	stimuli_distractor_diamondtriangles.svg	stimuli_distractor_diamondtriangles.svg	13	no	57	0	535
6.6.1	win	2022-12-14	14:44:41	14:47:27	164154	5d1ba5653788ac0019ced548	958539463	1	practice_slash	5	practice_slash	9	stimuli_distractor_trianglediamonds.svg	stimuli_target_squarediamonds.svg	11	yes	53	1	968
6.6.1	win	2022-12-14	14:44:41	14:47:27	164154	5d1ba5653788ac0019ced548	958539463	1	practice_slash	5	advance_on_keypress_SLASH	10	stimuli_distractor_trianglediamonds.svg	stimuli_target_squarediamonds.svg	11	yes	57	0	633
6.6.1	win	2022-12-14	14:44:41	14:47:30	167460	5d1ba5653788ac0019ced548	958539463	1	practice_slash	5	practice_slash	11	stimuli_target_circlediamonds.svg	stimuli_distractor_trianglediamonds.svg	4	yes	53	1	1022
6.6.1	win	2022-12-14	14:44:41	14:47:30	167460	5d1ba5653788ac0019ced548	958539463	1	practice_slash	5	advance_on_keypress_SLASH	12	stimuli_target_circlediamonds.svg	stimuli_distractor_trianglediamonds.svg	4	yes	57	0	809
6.6.1	win	2022-12-14	14:44:41	14:47:34	171030	5d1ba5653788ac0019ced548	958539463	1	practice_slash	5	practice_slash	13	stimuli_target_squarediamonds.svg	stimuli_distractor_diamondtriangles.svg	2	yes	53	1	1126
6.6.1	win	2022-12-14	14:44:41	14:47:34	171030	5d1ba5653788ac0019ced548	958539463	1	practice_slash	5	advance_on_keypress_SLASH	14	stimuli_target_squarediamonds.svg	stimuli_distractor_diamondtriangles.svg	2	yes	57	0	678
6.6.1	win	2022-12-14	14:44:41	14:47:38	175336	5d1ba5653788ac0019ced548	958539463	1	practice_slash	5	practice_slash	15	stimuli_distractor_diamondtriangles.svg	stimuli_distractor_trianglediamonds.svg	14	no	0	1	2000
6.6.1	win	2022-12-14	14:44:41	14:47:38	175336	5d1ba5653788ac0019ced548	958539463	1	practice_slash	5	advance_on_keypress_SLASH	16	stimuli_distractor_diamondtriangles.svg	stimuli_distractor_trianglediamonds.svg	14	no	57	0	2034
6.6.1	win	2022-12-14	14:44:41	14:47:44	181020	5d1ba5653788ac0019ced548	958539463	1	practice_slash	5	practice_slash	17	stimuli_distractor_trianglediamonds.svg	stimuli_distractor_diamondtriangles.svg	16	no	0	1	2000
6.6.1	win	2022-12-14	14:44:41	14:47:44	181020	5d1ba5653788ac0019ced548	958539463	1	practice_slash	5	advance_on_keypress_SLASH	18	stimuli_distractor_trianglediamonds.svg	stimuli_distractor_diamondtriangles.svg	16	no	57	0	471
6.6.1	win	2022-12-14	14:44:41	14:47:47	183856	5d1ba5653788ac0019ced548	958539463	1	practice_slash	5	practice_slash	19	stimuli_distractor_trianglediamonds.svg	stimuli_target_circlediamonds.svg	10	yes	53	1	718
6.6.1	win	2022-12-14	14:44:41	14:47:47	183856	5d1ba5653788ac0019ced548	958539463	1	practice_slash	5	advance_on_keypress_SLASH	20	stimuli_distractor_trianglediamonds.svg	stimuli_target_circlediamonds.svg	10	yes	57	0	744
6.6.1	win	2022-12-14	14:44:41	14:47:50	186920	5d1ba5653788ac0019ced548	958539463	1	practice_slash	5	practice_slash	21	stimuli_distractor_diamondtriangles.svg	stimuli_target_circletriangles.svg	7	yes	53	1	666
6.6.1	win	2022-12-14	14:44:41	14:47:50	186920	5d1ba5653788ac0019ced548	958539463	1	practice_slash	5	advance_on_keypress_SLASH	22	stimuli_distractor_diamondtriangles.svg	stimuli_target_circletriangles.svg	7	yes	57	0	738
6.6.1	win	2022-12-14	14:44:41	14:47:54	191304	5d1ba5653788ac0019ced548	958539463	1	practice_slash	5	practice_slash	23	stimuli_distractor_trianglediamonds.svg	stimuli_distractor_trianglediamonds.svg	15	no	0	1	2000
6.6.1	win	2022-12-14	14:44:41	14:47:54	191304	5d1ba5653788ac0019ced548	958539463	1	practice_slash	5	advance_on_keypress_SLASH	24	stimuli_distractor_trianglediamonds.svg	stimuli_distractor_trianglediamonds.svg	15	no	57	0	1021
6.6.1	win	2022-12-14	14:44:41	14:47:59	195972	5d1ba5653788ac0019ced548	958539463	1	practice_slash	5	practice_slash	25	stimuli_distractor_diamondtriangles.svg	stimuli_target_diamondcircles.svg	8	yes	0	0	2000
6.6.1	win	2022-12-14	14:44:41	14:47:59	195972	5d1ba5653788ac0019ced548	958539463	1	practice_slash	5	advance_on_keypress_SLASH	26	stimuli_distractor_diamondtriangles.svg	stimuli_target_diamondcircles.svg	8	yes	57	0	763
6.6.1	win	2022-12-14	14:44:41	14:48:02	199554	5d1ba5653788ac0019ced548	958539463	1	practice_slash	5	practice_slash	27	stimuli_distractor_trianglediamonds.svg	stimuli_target_diamondcircles.svg	12	yes	53	1	1166
6.6.1	win	2022-12-14	14:44:41	14:48:02	199554	5d1ba5653788ac0019ced548	958539463	1	practice_slash	5	advance_on_keypress_SLASH	28	stimuli_distractor_trianglediamonds.svg	stimuli_target_diamondcircles.svg	12	yes	57	0	661
6.6.1	win	2022-12-14	14:44:41	14:48:06	202680	5d1ba5653788ac0019ced548	958539463	1	practice_slash	5	practice_slash	29	stimuli_target_squarediamonds.svg	stimuli_distractor_trianglediamonds.svg	5	yes	53	1	825
6.6.1	win	2022-12-14	14:44:41	14:48:06	202680	5d1ba5653788ac0019ced548	958539463	1	practice_slash	5	advance_on_keypress_SLASH	30	stimuli_target_squarediamonds.svg	stimuli_distractor_trianglediamonds.svg	5	yes	57	0	1175
6.6.1	win	2022-12-14	14:44:41	14:48:10	206972	5d1ba5653788ac0019ced548	958539463	1	practice_slash	5	practice_slash	31	stimuli_target_diamondsquares.svg	stimuli_distractor_diamondtriangles.svg	3	yes	53	1	1484
6.6.1	win	2022-12-14	14:44:41	14:48:10	206972	5d1ba5653788ac0019ced548	958539463	1	practice_slash	5	advance_on_keypress_SLASH	32	stimuli_target_diamondsquares.svg	stimuli_distractor_diamondtriangles.svg	3	yes	57	0	651
6.6.1	win	2022-12-14	14:44:41	14:48:19	216281	5d1ba5653788ac0019ced548	958539463	1	main_slash	7	main_slash	1	stimuli_distractor_trianglediamonds.svg	stimuli_target_squaretriangles.svg	11	yes	53	1	1010
6.6.1	win	2022-12-14	14:44:41	14:48:19	216281	5d1ba5653788ac0019ced548	958539463	1	main_slash	7	advance_on_keypress_SLASH	2	stimuli_distractor_trianglediamonds.svg	stimuli_target_squaretriangles.svg	11	yes	57	0	1705
6.6.1	win	2022-12-14	14:44:41	14:48:24	220622	5d1ba5653788ac0019ced548	958539463	1	main_slash	7	main_slash	3	stimuli_distractor_diamondtriangles.svg	stimuli_distractor_diamondtriangles.svg	39	no	0	1	2000
6.6.1	win	2022-12-14	14:44:41	14:48:24	220622	5d1ba5653788ac0019ced548	958539463	1	main_slash	7	advance_on_keypress_SLASH	4	stimuli_distractor_diamondtriangles.svg	stimuli_distractor_diamondtriangles.svg	39	no	57	0	981
6.6.1	win	2022-12-14	14:44:41	14:48:26	222934	5d1ba5653788ac0019ced548	958539463	1	main_slash	7	main_slash	5	stimuli_target_trianglecircles.svg	stimuli_distractor_diamondtriangles.svg	21	yes	53	1	679
6.6.1	win	2022-12-14	14:44:41	14:48:26	222934	5d1ba5653788ac0019ced548	958539463	1	main_slash	7	advance_on_keypress_SLASH	6	stimuli_target_trianglecircles.svg	stimuli_distractor_diamondtriangles.svg	21	yes	57	0	1073
6.6.1	win	2022-12-14	14:44:41	14:48:28	225534	5d1ba5653788ac0019ced548	958539463	1	main_slash	7	main_slash	7	stimuli_target_diamondsquares.svg	stimuli_distractor_diamondtriangles.svg	24	yes	53	1	895
6.6.1	win	2022-12-14	14:44:41	14:48:28	225534	5d1ba5653788ac0019ced548	958539463	1	main_slash	7	advance_on_keypress_SLASH	8	stimuli_target_diamondsquares.svg	stimuli_distractor_diamondtriangles.svg	24	yes	57	0	614
6.6.1	win	2022-12-14	14:44:41	14:48:31	227652	5d1ba5653788ac0019ced548	958539463	1	main_slash	7	main_slash	9	stimuli_target_circlediamonds.svg	stimuli_distractor_trianglediamonds.svg	2	yes	53	1	864
6.6.1	win	2022-12-14	14:44:41	14:48:31	227652	5d1ba5653788ac0019ced548	958539463	1	main_slash	7	advance_on_keypress_SLASH	10	stimuli_target_circlediamonds.svg	stimuli_distractor_trianglediamonds.svg	2	yes	57	0	600
6.6.1	win	2022-12-14	14:44:41	14:48:33	229613	5d1ba5653788ac0019ced548	958539463	1	main_slash	7	main_slash	11	stimuli_target_trianglecircles.svg	stimuli_distractor_trianglediamonds.svg	17	yes	53	1	708
6.6.1	win	2022-12-14	14:44:41	14:48:33	229613	5d1ba5653788ac0019ced548	958539463	1	main_slash	7	advance_on_keypress_SLASH	12	stimuli_target_trianglecircles.svg	stimuli_distractor_trianglediamonds.svg	17	yes	57	0	528
6.6.1	win	2022-12-14	14:44:41	14:48:36	232773	5d1ba5653788ac0019ced548	958539463	1	main_slash	7	main_slash	13	stimuli_distractor_diamondtriangles.svg	stimuli_distractor_trianglediamonds.svg	37	no	0	1	2000
6.6.1	win	2022-12-14	14:44:41	14:48:36	232773	5d1ba5653788ac0019ced548	958539463	1	main_slash	7	advance_on_keypress_SLASH	14	stimuli_distractor_diamondtriangles.svg	stimuli_distractor_trianglediamonds.svg	37	no	57	0	426
6.6.1	win	2022-12-14	14:44:41	14:48:39	235839	5d1ba5653788ac0019ced548	958539463	1	main_slash	7	main_slash	15	stimuli_distractor_diamondtriangles.svg	stimuli_target_squaretriangles.svg	15	yes	0	0	2000
6.6.1	win	2022-12-14	14:44:41	14:48:39	235839	5d1ba5653788ac0019ced548	958539463	1	main_slash	7	advance_on_keypress_SLASH	16	stimuli_distractor_diamondtriangles.svg	stimuli_target_squaretriangles.svg	15	yes	57	0	675
6.6.1	win	2022-12-14	14:44:41	14:48:41	237724	5d1ba5653788ac0019ced548	958539463	1	main_slash	7	main_slash	17	stimuli_target_squarediamonds.svg	stimuli_distractor_diamondtriangles.svg	8	yes	53	1	568
6.6.1	win	2022-12-14	14:44:41	14:48:41	237724	5d1ba5653788ac0019ced548	958539463	1	main_slash	7	advance_on_keypress_SLASH	18	stimuli_target_squarediamonds.svg	stimuli_distractor_diamondtriangles.svg	8	yes	57	0	841
6.6.1	win	2022-12-14	14:44:41	14:48:44	241206	5d1ba5653788ac0019ced548	958539463	1	main_slash	7	main_slash	19	stimuli_distractor_diamondtriangles.svg	stimuli_distractor_trianglediamonds.svg	38	no	0	1	2000
6.6.1	win	2022-12-14	14:44:41	14:48:44	241206	5d1ba5653788ac0019ced548	958539463	1	main_slash	7	advance_on_keypress_SLASH	20	stimuli_distractor_diamondtriangles.svg	stimuli_distractor_trianglediamonds.svg	38	no	57	0	1319
6.6.1	win	2022-12-14	14:44:41	14:48:48	245173	5d1ba5653788ac0019ced548	958539463	1	main_slash	7	main_slash	21	stimuli_distractor_trianglediamonds.svg	stimuli_distractor_diamondtriangles.svg	35	no	0	1	2000
6.6.1	win	2022-12-14	14:44:41	14:48:48	245173	5d1ba5653788ac0019ced548	958539463	1	main_slash	7	advance_on_keypress_SLASH	22	stimuli_distractor_trianglediamonds.svg	stimuli_distractor_diamondtriangles.svg	35	no	57	0	1749
6.6.1	win	2022-12-14	14:44:41	14:48:51	248163	5d1ba5653788ac0019ced548	958539463	1	main_slash	7	main_slash	23	stimuli_distractor_diamondtriangles.svg	stimuli_target_diamondcircles.svg	31	yes	53	1	590
6.6.1	win	2022-12-14	14:44:41	14:48:51	248163	5d1ba5653788ac0019ced548	958539463	1	main_slash	7	advance_on_keypress_SLASH	24	stimuli_distractor_diamondtriangles.svg	stimuli_target_diamondcircles.svg	31	yes	57	0	1150
6.6.1	win	2022-12-14	14:44:41	14:48:55	251957	5d1ba5653788ac0019ced548	958539463	1	main_slash	7	main_slash	25	stimuli_target_trianglesquares.svg	stimuli_distractor_trianglediamonds.svg	18	yes	0	0	2000
6.6.1	win	2022-12-14	14:44:41	14:48:55	251957	5d1ba5653788ac0019ced548	958539463	1	main_slash	7	advance_on_keypress_SLASH	26	stimuli_target_trianglesquares.svg	stimuli_distractor_trianglediamonds.svg	18	yes	57	0	1120
6.6.1	win	2022-12-14	14:44:41	14:48:58	254740	5d1ba5653788ac0019ced548	958539463	1	main_slash	7	main_slash	27	stimuli_distractor_diamondtriangles.svg	stimuli_target_squarediamonds.svg	16	yes	53	1	1016
6.6.1	win	2022-12-14	14:44:41	14:48:58	254740	5d1ba5653788ac0019ced548	958539463	1	main_slash	7	advance_on_keypress_SLASH	28	stimuli_distractor_diamondtriangles.svg	stimuli_target_squarediamonds.svg	16	yes	57	0	1212
6.6.1	win	2022-12-14	14:44:41	14:49:00	257147	5d1ba5653788ac0019ced548	958539463	1	main_slash	7	main_slash	29	stimuli_distractor_trianglediamonds.svg	stimuli_target_diamondcircles.svg	27	yes	53	1	540
6.6.1	win	2022-12-14	14:44:41	14:49:00	257147	5d1ba5653788ac0019ced548	958539463	1	main_slash	7	advance_on_keypress_SLASH	30	stimuli_distractor_trianglediamonds.svg	stimuli_target_diamondcircles.svg	27	yes	57	0	1912
6.6.1	win	2022-12-14	14:44:41	14:49:05	261691	5d1ba5653788ac0019ced548	958539463	1	main_slash	7	main_slash	31	stimuli_distractor_trianglediamonds.svg	stimuli_distractor_diamondtriangles.svg	36	no	0	1	2000
6.6.1	win	2022-12-14	14:44:41	14:49:05	261691	5d1ba5653788ac0019ced548	958539463	1	main_slash	7	advance_on_keypress_SLASH	32	stimuli_distractor_trianglediamonds.svg	stimuli_distractor_diamondtriangles.svg	36	no	57	0	470
6.6.1	win	2022-12-14	14:44:41	14:49:06	263443	5d1ba5653788ac0019ced548	958539463	1	main_slash	7	main_slash	33	stimuli_distractor_diamondtriangles.svg	stimuli_target_circlediamonds.svg	14	yes	53	1	635
6.6.1	win	2022-12-14	14:44:41	14:49:06	263443	5d1ba5653788ac0019ced548	958539463	1	main_slash	7	advance_on_keypress_SLASH	34	stimuli_distractor_diamondtriangles.svg	stimuli_target_circlediamonds.svg	14	yes	57	0	690
6.6.1	win	2022-12-14	14:44:41	14:49:08	265357	5d1ba5653788ac0019ced548	958539463	1	main_slash	7	main_slash	35	stimuli_target_circlediamonds.svg	stimuli_distractor_diamondtriangles.svg	6	yes	53	1	582
6.6.1	win	2022-12-14	14:44:41	14:49:08	265357	5d1ba5653788ac0019ced548	958539463	1	main_slash	7	advance_on_keypress_SLASH	36	stimuli_target_circlediamonds.svg	stimuli_distractor_diamondtriangles.svg	6	yes	57	0	804
6.6.1	win	2022-12-14	14:44:41	14:49:10	267418	5d1ba5653788ac0019ced548	958539463	1	main_slash	7	main_slash	37	stimuli_target_diamondcircles.svg	stimuli_distractor_trianglediamonds.svg	19	yes	53	1	611
6.6.1	win	2022-12-14	14:44:41	14:49:10	267418	5d1ba5653788ac0019ced548	958539463	1	main_slash	7	advance_on_keypress_SLASH	38	stimuli_target_diamondcircles.svg	stimuli_distractor_trianglediamonds.svg	19	yes	57	0	748
6.6.1	win	2022-12-14	14:44:41	14:49:12	269435	5d1ba5653788ac0019ced548	958539463	1	main_slash	7	main_slash	39	stimuli_distractor_diamondtriangles.svg	stimuli_target_trianglecircles.svg	29	yes	53	1	628
6.6.1	win	2022-12-14	14:44:41	14:49:12	269435	5d1ba5653788ac0019ced548	958539463	1	main_slash	7	advance_on_keypress_SLASH	40	stimuli_distractor_diamondtriangles.svg	stimuli_target_trianglecircles.svg	29	yes	57	0	1699
6.6.1	win	2022-12-14	14:44:41	14:49:16	273238	5d1ba5653788ac0019ced548	958539463	1	main_slash	7	main_slash	41	stimuli_distractor_diamondtriangles.svg	stimuli_target_trianglesquares.svg	30	yes	53	1	1464
6.6.1	win	2022-12-14	14:44:41	14:49:16	273238	5d1ba5653788ac0019ced548	958539463	1	main_slash	7	advance_on_keypress_SLASH	42	stimuli_distractor_diamondtriangles.svg	stimuli_target_trianglesquares.svg	30	yes	57	0	1170
6.6.1	win	2022-12-14	14:44:41	14:49:20	277058	5d1ba5653788ac0019ced548	958539463	1	main_slash	7	main_slash	43	stimuli_distractor_diamondtriangles.svg	stimuli_target_diamondsquares.svg	32	yes	0	0	2000
6.6.1	win	2022-12-14	14:44:41	14:49:20	277058	5d1ba5653788ac0019ced548	958539463	1	main_slash	7	advance_on_keypress_SLASH	44	stimuli_distractor_diamondtriangles.svg	stimuli_target_diamondsquares.svg	32	yes	57	0	1630
6.6.1	win	2022-12-14	14:44:41	14:49:23	280008	5d1ba5653788ac0019ced548	958539463	1	main_slash	7	main_slash	45	stimuli_distractor_trianglediamonds.svg	stimuli_target_circlediamonds.svg	10	yes	53	1	666
6.6.1	win	2022-12-14	14:44:41	14:49:23	280008	5d1ba5653788ac0019ced548	958539463	1	main_slash	7	advance_on_keypress_SLASH	46	stimuli_distractor_trianglediamonds.svg	stimuli_target_circlediamonds.svg	10	yes	57	0	1293
6.6.1	win	2022-12-14	14:44:41	14:49:26	282683	5d1ba5653788ac0019ced548	958539463	1	main_slash	7	main_slash	47	stimuli_distractor_trianglediamonds.svg	stimuli_target_squarediamonds.svg	12	yes	53	1	742
6.6.1	win	2022-12-14	14:44:41	14:49:26	282683	5d1ba5653788ac0019ced548	958539463	1	main_slash	7	advance_on_keypress_SLASH	48	stimuli_distractor_trianglediamonds.svg	stimuli_target_squarediamonds.svg	12	yes	57	0	1787
6.6.1	win	2022-12-14	14:44:41	14:49:29	285723	5d1ba5653788ac0019ced548	958539463	1	main_slash	7	main_slash	49	stimuli_distractor_trianglediamonds.svg	stimuli_target_circletriangles.svg	9	yes	53	1	615
6.6.1	win	2022-12-14	14:44:41	14:49:29	285723	5d1ba5653788ac0019ced548	958539463	1	main_slash	7	advance_on_keypress_SLASH	50	stimuli_distractor_trianglediamonds.svg	stimuli_target_circletriangles.svg	9	yes	57	0	1433
6.6.1	win	2022-12-14	14:44:41	14:49:31	288452	5d1ba5653788ac0019ced548	958539463	1	main_slash	7	main_slash	51	stimuli_target_circletriangles.svg	stimuli_distractor_diamondtriangles.svg	5	yes	53	1	643
6.6.1	win	2022-12-14	14:44:41	14:49:31	288452	5d1ba5653788ac0019ced548	958539463	1	main_slash	7	advance_on_keypress_SLASH	52	stimuli_target_circletriangles.svg	stimuli_distractor_diamondtriangles.svg	5	yes	57	0	658
6.6.1	win	2022-12-14	14:44:41	14:49:35	291742	5d1ba5653788ac0019ced548	958539463	1	main_slash	7	main_slash	53	stimuli_distractor_trianglediamonds.svg	stimuli_target_trianglesquares.svg	26	yes	0	0	2000
6.6.1	win	2022-12-14	14:44:41	14:49:35	291742	5d1ba5653788ac0019ced548	958539463	1	main_slash	7	advance_on_keypress_SLASH	54	stimuli_distractor_trianglediamonds.svg	stimuli_target_trianglesquares.svg	26	yes	57	0	734
6.6.1	win	2022-12-14	14:44:41	14:49:37	293864	5d1ba5653788ac0019ced548	958539463	1	main_slash	7	main_slash	55	stimuli_target_squaretriangles.svg	stimuli_distractor_trianglediamonds.svg	3	yes	53	1	739
6.6.1	win	2022-12-14	14:44:41	14:49:37	293864	5d1ba5653788ac0019ced548	958539463	1	main_slash	7	advance_on_keypress_SLASH	56	stimuli_target_squaretriangles.svg	stimuli_distractor_trianglediamonds.svg	3	yes	57	0	860
6.6.1	win	2022-12-14	14:44:41	14:49:40	297359	5d1ba5653788ac0019ced548	958539463	1	main_slash	7	main_slash	57	stimuli_distractor_trianglediamonds.svg	stimuli_distractor_trianglediamonds.svg	33	no	0	1	2000
6.6.1	win	2022-12-14	14:44:41	14:49:40	297359	5d1ba5653788ac0019ced548	958539463	1	main_slash	7	advance_on_keypress_SLASH	58	stimuli_distractor_trianglediamonds.svg	stimuli_distractor_trianglediamonds.svg	33	no	57	0	418
6.6.1	win	2022-12-14	14:44:41	14:49:42	299010	5d1ba5653788ac0019ced548	958539463	1	main_slash	7	main_slash	59	stimuli_distractor_trianglediamonds.svg	stimuli_target_trianglecircles.svg	25	yes	53	1	584
6.6.1	win	2022-12-14	14:44:41	14:49:42	299010	5d1ba5653788ac0019ced548	958539463	1	main_slash	7	advance_on_keypress_SLASH	60	stimuli_distractor_trianglediamonds.svg	stimuli_target_trianglecircles.svg	25	yes	57	0	3830
6.6.1	win	2022-12-14	14:44:41	14:49:47	304203	5d1ba5653788ac0019ced548	958539463	1	main_slash	7	main_slash	61	stimuli_target_squarediamonds.svg	stimuli_distractor_trianglediamonds.svg	4	yes	53	1	711
6.6.1	win	2022-12-14	14:44:41	14:49:47	304203	5d1ba5653788ac0019ced548	958539463	1	main_slash	7	advance_on_keypress_SLASH	62	stimuli_target_squarediamonds.svg	stimuli_distractor_trianglediamonds.svg	4	yes	57	0	1013
6.6.1	win	2022-12-14	14:44:41	14:49:49	306431	5d1ba5653788ac0019ced548	958539463	1	main_slash	7	main_slash	63	stimuli_target_circletriangles.svg	stimuli_distractor_trianglediamonds.svg	1	yes	53	1	572
6.6.1	win	2022-12-14	14:44:41	14:49:49	306431	5d1ba5653788ac0019ced548	958539463	1	main_slash	7	advance_on_keypress_SLASH	64	stimuli_target_circletriangles.svg	stimuli_distractor_trianglediamonds.svg	1	yes	57	0	1284
6.6.1	win	2022-12-14	14:44:41	14:49:53	310360	5d1ba5653788ac0019ced548	958539463	1	main_slash	7	main_slash	65	stimuli_distractor_diamondtriangles.svg	stimuli_distractor_diamondtriangles.svg	40	no	0	1	2000
6.6.1	win	2022-12-14	14:44:41	14:49:53	310360	5d1ba5653788ac0019ced548	958539463	1	main_slash	7	advance_on_keypress_SLASH	66	stimuli_distractor_diamondtriangles.svg	stimuli_distractor_diamondtriangles.svg	40	no	57	0	505
6.6.1	win	2022-12-14	14:44:41	14:49:56	313510	5d1ba5653788ac0019ced548	958539463	1	main_slash	7	main_slash	67	stimuli_target_diamondsquares.svg	stimuli_distractor_trianglediamonds.svg	20	yes	0	0	2000
6.6.1	win	2022-12-14	14:44:41	14:49:56	313510	5d1ba5653788ac0019ced548	958539463	1	main_slash	7	advance_on_keypress_SLASH	68	stimuli_target_diamondsquares.svg	stimuli_distractor_trianglediamonds.svg	20	yes	57	0	631
6.6.1	win	2022-12-14	14:44:41	14:49:59	315637	5d1ba5653788ac0019ced548	958539463	1	main_slash	7	main_slash	69	stimuli_distractor_trianglediamonds.svg	stimuli_target_diamondsquares.svg	28	yes	53	1	844
6.6.1	win	2022-12-14	14:44:41	14:49:59	315637	5d1ba5653788ac0019ced548	958539463	1	main_slash	7	advance_on_keypress_SLASH	70	stimuli_distractor_trianglediamonds.svg	stimuli_target_diamondsquares.svg	28	yes	57	0	766
6.6.1	win	2022-12-14	14:44:41	14:50:01	318002	5d1ba5653788ac0019ced548	958539463	1	main_slash	7	main_slash	71	stimuli_distractor_diamondtriangles.svg	stimuli_target_circletriangles.svg	13	yes	53	1	959
6.6.1	win	2022-12-14	14:44:41	14:50:01	318002	5d1ba5653788ac0019ced548	958539463	1	main_slash	7	advance_on_keypress_SLASH	72	stimuli_distractor_diamondtriangles.svg	stimuli_target_circletriangles.svg	13	yes	57	0	547
6.6.1	win	2022-12-14	14:44:41	14:50:03	320060	5d1ba5653788ac0019ced548	958539463	1	main_slash	7	main_slash	73	stimuli_target_squaretriangles.svg	stimuli_distractor_diamondtriangles.svg	7	yes	53	1	867
6.6.1	win	2022-12-14	14:44:41	14:50:03	320060	5d1ba5653788ac0019ced548	958539463	1	main_slash	7	advance_on_keypress_SLASH	74	stimuli_target_squaretriangles.svg	stimuli_distractor_diamondtriangles.svg	7	yes	57	0	557
6.6.1	win	2022-12-14	14:44:41	14:50:06	323279	5d1ba5653788ac0019ced548	958539463	1	main_slash	7	main_slash	75	stimuli_target_trianglesquares.svg	stimuli_distractor_diamondtriangles.svg	22	yes	0	0	2000
6.6.1	win	2022-12-14	14:44:41	14:50:06	323279	5d1ba5653788ac0019ced548	958539463	1	main_slash	7	advance_on_keypress_SLASH	76	stimuli_target_trianglesquares.svg	stimuli_distractor_diamondtriangles.svg	22	yes	57	0	502
6.6.1	win	2022-12-14	14:44:41	14:50:08	325077	5d1ba5653788ac0019ced548	958539463	1	main_slash	7	main_slash	77	stimuli_target_diamondcircles.svg	stimuli_distractor_diamondtriangles.svg	23	yes	53	1	650
6.6.1	win	2022-12-14	14:44:41	14:50:08	325077	5d1ba5653788ac0019ced548	958539463	1	main_slash	7	advance_on_keypress_SLASH	78	stimuli_target_diamondcircles.svg	stimuli_distractor_diamondtriangles.svg	23	yes	57	0	985
6.6.1	win	2022-12-14	14:44:41	14:50:11	327882	5d1ba5653788ac0019ced548	958539463	1	main_slash	7	main_slash	79	stimuli_distractor_trianglediamonds.svg	stimuli_distractor_trianglediamonds.svg	34	no	53	0	1171
6.6.1	win	2022-12-14	14:44:41	14:50:11	327882	5d1ba5653788ac0019ced548	958539463	1	main_slash	7	advance_on_keypress_SLASH	80	stimuli_distractor_trianglediamonds.svg	stimuli_distractor_trianglediamonds.svg	34	no	57	0	571
6.6.1	win	2022-12-14	14:44:41	14:50:14	331094	5d1ba5653788ac0019ced548	958539463	1	main_slash	7	main_slash	81	stimuli_distractor_trianglediamonds.svg	stimuli_distractor_trianglediamonds.svg	33	no	0	1	2000
6.6.1	win	2022-12-14	14:44:41	14:50:14	331094	5d1ba5653788ac0019ced548	958539463	1	main_slash	7	advance_on_keypress_SLASH	82	stimuli_distractor_trianglediamonds.svg	stimuli_distractor_trianglediamonds.svg	33	no	57	0	474
6.6.1	win	2022-12-14	14:44:41	14:50:16	332790	5d1ba5653788ac0019ced548	958539463	1	main_slash	7	main_slash	83	stimuli_distractor_diamondtriangles.svg	stimuli_target_diamondcircles.svg	31	yes	53	1	579
6.6.1	win	2022-12-14	14:44:41	14:50:16	332790	5d1ba5653788ac0019ced548	958539463	1	main_slash	7	advance_on_keypress_SLASH	84	stimuli_distractor_diamondtriangles.svg	stimuli_target_diamondcircles.svg	31	yes	57	0	770
6.6.1	win	2022-12-14	14:44:41	14:50:18	335081	5d1ba5653788ac0019ced548	958539463	1	main_slash	7	main_slash	85	stimuli_target_diamondsquares.svg	stimuli_distractor_trianglediamonds.svg	20	yes	53	1	886
6.6.1	win	2022-12-14	14:44:41	14:50:18	335081	5d1ba5653788ac0019ced548	958539463	1	main_slash	7	advance_on_keypress_SLASH	86	stimuli_target_diamondsquares.svg	stimuli_distractor_trianglediamonds.svg	20	yes	57	0	526
6.6.1	win	2022-12-14	14:44:41	14:50:21	338245	5d1ba5653788ac0019ced548	958539463	1	main_slash	7	main_slash	87	stimuli_distractor_diamondtriangles.svg	stimuli_distractor_trianglediamonds.svg	37	no	0	1	2000
6.6.1	win	2022-12-14	14:44:41	14:50:21	338245	5d1ba5653788ac0019ced548	958539463	1	main_slash	7	advance_on_keypress_SLASH	88	stimuli_distractor_diamondtriangles.svg	stimuli_distractor_trianglediamonds.svg	37	no	57	0	454
6.6.1	win	2022-12-14	14:44:41	14:50:23	340179	5d1ba5653788ac0019ced548	958539463	1	main_slash	7	main_slash	89	stimuli_target_diamondcircles.svg	stimuli_distractor_trianglediamonds.svg	19	yes	53	1	834
6.6.1	win	2022-12-14	14:44:41	14:50:23	340179	5d1ba5653788ac0019ced548	958539463	1	main_slash	7	advance_on_keypress_SLASH	90	stimuli_target_diamondcircles.svg	stimuli_distractor_trianglediamonds.svg	19	yes	57	0	432
6.6.1	win	2022-12-14	14:44:41	14:50:25	342009	5d1ba5653788ac0019ced548	958539463	1	main_slash	7	main_slash	91	stimuli_target_trianglecircles.svg	stimuli_distractor_trianglediamonds.svg	17	yes	53	1	746
6.6.1	win	2022-12-14	14:44:41	14:50:25	342009	5d1ba5653788ac0019ced548	958539463	1	main_slash	7	advance_on_keypress_SLASH	92	stimuli_target_trianglecircles.svg	stimuli_distractor_trianglediamonds.svg	17	yes	57	0	400
6.6.1	win	2022-12-14	14:44:41	14:50:27	344014	5d1ba5653788ac0019ced548	958539463	1	main_slash	7	main_slash	93	stimuli_target_circlediamonds.svg	stimuli_distractor_diamondtriangles.svg	6	yes	53	1	952
6.6.1	win	2022-12-14	14:44:41	14:50:27	344014	5d1ba5653788ac0019ced548	958539463	1	main_slash	7	advance_on_keypress_SLASH	94	stimuli_target_circlediamonds.svg	stimuli_distractor_diamondtriangles.svg	6	yes	57	0	527
6.6.1	win	2022-12-14	14:44:41	14:50:29	346216	5d1ba5653788ac0019ced548	958539463	1	main_slash	7	main_slash	95	stimuli_distractor_trianglediamonds.svg	stimuli_target_squarediamonds.svg	12	yes	53	1	1038
6.6.1	win	2022-12-14	14:44:41	14:50:29	346216	5d1ba5653788ac0019ced548	958539463	1	main_slash	7	advance_on_keypress_SLASH	96	stimuli_distractor_trianglediamonds.svg	stimuli_target_squarediamonds.svg	12	yes	57	0	1092
6.6.1	win	2022-12-14	14:44:41	14:50:32	348788	5d1ba5653788ac0019ced548	958539463	1	main_slash	7	main_slash	97	stimuli_distractor_trianglediamonds.svg	stimuli_target_diamondsquares.svg	28	yes	53	1	842
6.6.1	win	2022-12-14	14:44:41	14:50:32	348788	5d1ba5653788ac0019ced548	958539463	1	main_slash	7	advance_on_keypress_SLASH	98	stimuli_distractor_trianglediamonds.svg	stimuli_target_diamondsquares.svg	28	yes	57	0	702
6.6.1	win	2022-12-14	14:44:41	14:50:35	352129	5d1ba5653788ac0019ced548	958539463	1	main_slash	7	main_slash	99	stimuli_distractor_trianglediamonds.svg	stimuli_distractor_diamondtriangles.svg	36	no	0	1	2000
6.6.1	win	2022-12-14	14:44:41	14:50:35	352129	5d1ba5653788ac0019ced548	958539463	1	main_slash	7	advance_on_keypress_SLASH	100	stimuli_distractor_trianglediamonds.svg	stimuli_distractor_diamondtriangles.svg	36	no	57	0	350
6.6.1	win	2022-12-14	14:44:41	14:50:38	355129	5d1ba5653788ac0019ced548	958539463	1	main_slash	7	main_slash	101	stimuli_distractor_trianglediamonds.svg	stimuli_target_trianglesquares.svg	26	yes	0	0	2000
6.6.1	win	2022-12-14	14:44:41	14:50:38	355129	5d1ba5653788ac0019ced548	958539463	1	main_slash	7	advance_on_keypress_SLASH	102	stimuli_distractor_trianglediamonds.svg	stimuli_target_trianglesquares.svg	26	yes	57	0	705
6.6.1	win	2022-12-14	14:44:41	14:50:40	357248	5d1ba5653788ac0019ced548	958539463	1	main_slash	7	main_slash	103	stimuli_target_trianglesquares.svg	stimuli_distractor_diamondtriangles.svg	22	yes	53	1	769
6.6.1	win	2022-12-14	14:44:41	14:50:40	357248	5d1ba5653788ac0019ced548	958539463	1	main_slash	7	advance_on_keypress_SLASH	104	stimuli_target_trianglesquares.svg	stimuli_distractor_diamondtriangles.svg	22	yes	57	0	558
6.6.1	win	2022-12-14	14:44:41	14:50:42	359238	5d1ba5653788ac0019ced548	958539463	1	main_slash	7	main_slash	105	stimuli_target_diamondsquares.svg	stimuli_distractor_diamondtriangles.svg	24	yes	53	1	792
6.6.1	win	2022-12-14	14:44:41	14:50:42	359238	5d1ba5653788ac0019ced548	958539463	1	main_slash	7	advance_on_keypress_SLASH	106	stimuli_target_diamondsquares.svg	stimuli_distractor_diamondtriangles.svg	24	yes	57	0	447
6.6.1	win	2022-12-14	14:44:41	14:50:44	360769	5d1ba5653788ac0019ced548	958539463	1	main_slash	7	main_slash	107	stimuli_target_trianglecircles.svg	stimuli_distractor_diamondtriangles.svg	21	yes	53	1	439
6.6.1	win	2022-12-14	14:44:41	14:50:44	360769	5d1ba5653788ac0019ced548	958539463	1	main_slash	7	advance_on_keypress_SLASH	108	stimuli_target_trianglecircles.svg	stimuli_distractor_diamondtriangles.svg	21	yes	57	0	616
6.6.1	win	2022-12-14	14:44:41	14:50:46	362604	5d1ba5653788ac0019ced548	958539463	1	main_slash	7	main_slash	109	stimuli_distractor_diamondtriangles.svg	stimuli_target_circletriangles.svg	13	yes	53	1	575
6.6.1	win	2022-12-14	14:44:41	14:50:46	362604	5d1ba5653788ac0019ced548	958539463	1	main_slash	7	advance_on_keypress_SLASH	110	stimuli_distractor_diamondtriangles.svg	stimuli_target_circletriangles.svg	13	yes	57	0	428
6.6.1	win	2022-12-14	14:44:41	14:50:47	364400	5d1ba5653788ac0019ced548	958539463	1	main_slash	7	main_slash	111	stimuli_distractor_diamondtriangles.svg	stimuli_target_diamondsquares.svg	32	yes	53	1	737
6.6.1	win	2022-12-14	14:44:41	14:50:47	364400	5d1ba5653788ac0019ced548	958539463	1	main_slash	7	advance_on_keypress_SLASH	112	stimuli_distractor_diamondtriangles.svg	stimuli_target_diamondsquares.svg	32	yes	57	0	414
6.6.1	win	2022-12-14	14:44:41	14:50:49	366339	5d1ba5653788ac0019ced548	958539463	1	main_slash	7	main_slash	113	stimuli_distractor_trianglediamonds.svg	stimuli_target_squaretriangles.svg	11	yes	53	1	876
6.6.1	win	2022-12-14	14:44:41	14:50:49	366339	5d1ba5653788ac0019ced548	958539463	1	main_slash	7	advance_on_keypress_SLASH	114	stimuli_distractor_trianglediamonds.svg	stimuli_target_squaretriangles.svg	11	yes	57	0	265
6.6.1	win	2022-12-14	14:44:41	14:50:51	368364	5d1ba5653788ac0019ced548	958539463	1	main_slash	7	main_slash	115	stimuli_distractor_diamondtriangles.svg	stimuli_target_trianglecircles.svg	29	yes	53	1	1118
6.6.1	win	2022-12-14	14:44:41	14:50:51	368364	5d1ba5653788ac0019ced548	958539463	1	main_slash	7	advance_on_keypress_SLASH	116	stimuli_distractor_diamondtriangles.svg	stimuli_target_trianglecircles.svg	29	yes	57	0	606
6.6.1	win	2022-12-14	14:44:41	14:50:53	370063	5d1ba5653788ac0019ced548	958539463	1	main_slash	7	main_slash	117	stimuli_distractor_diamondtriangles.svg	stimuli_distractor_trianglediamonds.svg	38	no	53	0	450
6.6.1	win	2022-12-14	14:44:41	14:50:53	370063	5d1ba5653788ac0019ced548	958539463	1	main_slash	7	advance_on_keypress_SLASH	118	stimuli_distractor_diamondtriangles.svg	stimuli_distractor_trianglediamonds.svg	38	no	57	0	658
6.6.1	win	2022-12-14	14:44:41	14:50:56	373363	5d1ba5653788ac0019ced548	958539463	1	main_slash	7	main_slash	119	stimuli_distractor_diamondtriangles.svg	stimuli_distractor_diamondtriangles.svg	39	no	0	1	2000
6.6.1	win	2022-12-14	14:44:41	14:50:56	373363	5d1ba5653788ac0019ced548	958539463	1	main_slash	7	advance_on_keypress_SLASH	120	stimuli_distractor_diamondtriangles.svg	stimuli_distractor_diamondtriangles.svg	39	no	57	0	323
6.6.1	win	2022-12-14	14:44:41	14:50:59	376036	5d1ba5653788ac0019ced548	958539463	1	main_slash	7	main_slash	121	stimuli_distractor_diamondtriangles.svg	stimuli_target_squarediamonds.svg	16	yes	53	1	1706
6.6.1	win	2022-12-14	14:44:41	14:50:59	376036	5d1ba5653788ac0019ced548	958539463	1	main_slash	7	advance_on_keypress_SLASH	122	stimuli_distractor_diamondtriangles.svg	stimuli_target_squarediamonds.svg	16	yes	57	0	720
6.6.1	win	2022-12-14	14:44:41	14:51:01	378047	5d1ba5653788ac0019ced548	958539463	1	main_slash	7	main_slash	123	stimuli_distractor_trianglediamonds.svg	stimuli_target_diamondcircles.svg	27	yes	53	1	649
6.6.1	win	2022-12-14	14:44:41	14:51:01	378047	5d1ba5653788ac0019ced548	958539463	1	main_slash	7	advance_on_keypress_SLASH	124	stimuli_distractor_trianglediamonds.svg	stimuli_target_diamondcircles.svg	27	yes	57	0	467
6.6.1	win	2022-12-14	14:44:41	14:51:03	379931	5d1ba5653788ac0019ced548	958539463	1	main_slash	7	main_slash	125	stimuli_target_circletriangles.svg	stimuli_distractor_trianglediamonds.svg	1	yes	53	1	766
6.6.1	win	2022-12-14	14:44:41	14:51:03	379931	5d1ba5653788ac0019ced548	958539463	1	main_slash	7	advance_on_keypress_SLASH	126	stimuli_target_circletriangles.svg	stimuli_distractor_trianglediamonds.svg	1	yes	57	0	673
6.6.1	win	2022-12-14	14:44:41	14:51:05	382377	5d1ba5653788ac0019ced548	958539463	1	main_slash	7	main_slash	127	stimuli_target_trianglesquares.svg	stimuli_distractor_trianglediamonds.svg	18	yes	53	1	1130
6.6.1	win	2022-12-14	14:44:41	14:51:05	382377	5d1ba5653788ac0019ced548	958539463	1	main_slash	7	advance_on_keypress_SLASH	128	stimuli_target_trianglesquares.svg	stimuli_distractor_trianglediamonds.svg	18	yes	57	0	335
6.6.1	win	2022-12-14	14:44:41	14:51:07	383998	5d1ba5653788ac0019ced548	958539463	1	main_slash	7	main_slash	129	stimuli_target_squarediamonds.svg	stimuli_distractor_trianglediamonds.svg	4	yes	53	1	633
6.6.1	win	2022-12-14	14:44:41	14:51:07	383998	5d1ba5653788ac0019ced548	958539463	1	main_slash	7	advance_on_keypress_SLASH	130	stimuli_target_squarediamonds.svg	stimuli_distractor_trianglediamonds.svg	4	yes	57	0	349
6.6.1	win	2022-12-14	14:44:41	14:51:09	385787	5d1ba5653788ac0019ced548	958539463	1	main_slash	7	main_slash	131	stimuli_target_squaretriangles.svg	stimuli_distractor_diamondtriangles.svg	7	yes	53	1	789
6.6.1	win	2022-12-14	14:44:41	14:51:09	385787	5d1ba5653788ac0019ced548	958539463	1	main_slash	7	advance_on_keypress_SLASH	132	stimuli_target_squaretriangles.svg	stimuli_distractor_diamondtriangles.svg	7	yes	57	0	315
6.6.1	win	2022-12-14	14:44:41	14:51:10	387320	5d1ba5653788ac0019ced548	958539463	1	main_slash	7	main_slash	133	stimuli_target_circlediamonds.svg	stimuli_distractor_trianglediamonds.svg	2	yes	53	1	573
6.6.1	win	2022-12-14	14:44:41	14:51:10	387320	5d1ba5653788ac0019ced548	958539463	1	main_slash	7	advance_on_keypress_SLASH	134	stimuli_target_circlediamonds.svg	stimuli_distractor_trianglediamonds.svg	2	yes	57	0	294
6.6.1	win	2022-12-14	14:44:41	14:51:13	390248	5d1ba5653788ac0019ced548	958539463	1	main_slash	7	main_slash	135	stimuli_distractor_trianglediamonds.svg	stimuli_distractor_trianglediamonds.svg	34	no	0	1	2000
6.6.1	win	2022-12-14	14:44:41	14:51:13	390248	5d1ba5653788ac0019ced548	958539463	1	main_slash	7	advance_on_keypress_SLASH	136	stimuli_distractor_trianglediamonds.svg	stimuli_distractor_trianglediamonds.svg	34	no	57	0	165
6.6.1	win	2022-12-14	14:44:41	14:51:14	391236	5d1ba5653788ac0019ced548	958539463	1	main_slash	7	main_slash	137	stimuli_target_circletriangles.svg	stimuli_distractor_diamondtriangles.svg	5	yes	53	1	172
6.6.1	win	2022-12-14	14:44:41	14:51:14	391236	5d1ba5653788ac0019ced548	958539463	1	main_slash	7	advance_on_keypress_SLASH	138	stimuli_target_circletriangles.svg	stimuli_distractor_diamondtriangles.svg	5	yes	57	0	1123
6.6.1	win	2022-12-14	14:44:41	14:51:16	393386	5d1ba5653788ac0019ced548	958539463	1	main_slash	7	main_slash	139	stimuli_distractor_trianglediamonds.svg	stimuli_target_circlediamonds.svg	10	yes	53	1	389
6.6.1	win	2022-12-14	14:44:41	14:51:16	393386	5d1ba5653788ac0019ced548	958539463	1	main_slash	7	advance_on_keypress_SLASH	140	stimuli_distractor_trianglediamonds.svg	stimuli_target_circlediamonds.svg	10	yes	57	0	463
6.6.1	win	2022-12-14	14:44:41	14:51:18	395029	5d1ba5653788ac0019ced548	958539463	1	main_slash	7	main_slash	141	stimuli_target_squarediamonds.svg	stimuli_distractor_diamondtriangles.svg	8	yes	53	1	531
6.6.1	win	2022-12-14	14:44:41	14:51:18	395029	5d1ba5653788ac0019ced548	958539463	1	main_slash	7	advance_on_keypress_SLASH	142	stimuli_target_squarediamonds.svg	stimuli_distractor_diamondtriangles.svg	8	yes	57	0	341
6.6.1	win	2022-12-14	14:44:41	14:51:20	396603	5d1ba5653788ac0019ced548	958539463	1	main_slash	7	main_slash	143	stimuli_target_squaretriangles.svg	stimuli_distractor_trianglediamonds.svg	3	yes	53	1	587
6.6.1	win	2022-12-14	14:44:41	14:51:20	396603	5d1ba5653788ac0019ced548	958539463	1	main_slash	7	advance_on_keypress_SLASH	144	stimuli_target_squaretriangles.svg	stimuli_distractor_trianglediamonds.svg	3	yes	57	0	306
6.6.1	win	2022-12-14	14:44:41	14:51:21	398109	5d1ba5653788ac0019ced548	958539463	1	main_slash	7	main_slash	145	stimuli_distractor_trianglediamonds.svg	stimuli_target_trianglecircles.svg	25	yes	53	1	561
6.6.1	win	2022-12-14	14:44:41	14:51:21	398109	5d1ba5653788ac0019ced548	958539463	1	main_slash	7	advance_on_keypress_SLASH	146	stimuli_distractor_trianglediamonds.svg	stimuli_target_trianglecircles.svg	25	yes	57	0	266
6.6.1	win	2022-12-14	14:44:41	14:51:23	399630	5d1ba5653788ac0019ced548	958539463	1	main_slash	7	main_slash	147	stimuli_target_diamondcircles.svg	stimuli_distractor_diamondtriangles.svg	23	yes	53	1	614
6.6.1	win	2022-12-14	14:44:41	14:51:23	399630	5d1ba5653788ac0019ced548	958539463	1	main_slash	7	advance_on_keypress_SLASH	148	stimuli_target_diamondcircles.svg	stimuli_distractor_diamondtriangles.svg	23	yes	57	0	230
6.6.1	win	2022-12-14	14:44:41	14:51:24	401121	5d1ba5653788ac0019ced548	958539463	1	main_slash	7	main_slash	149	stimuli_distractor_trianglediamonds.svg	stimuli_target_circletriangles.svg	9	yes	53	1	606
6.6.1	win	2022-12-14	14:44:41	14:51:24	401121	5d1ba5653788ac0019ced548	958539463	1	main_slash	7	advance_on_keypress_SLASH	150	stimuli_distractor_trianglediamonds.svg	stimuli_target_circletriangles.svg	9	yes	57	0	290
6.6.1	win	2022-12-14	14:44:41	14:51:27	404048	5d1ba5653788ac0019ced548	958539463	1	main_slash	7	main_slash	151	stimuli_distractor_trianglediamonds.svg	stimuli_distractor_diamondtriangles.svg	35	no	0	1	2000
6.6.1	win	2022-12-14	14:44:41	14:51:27	404048	5d1ba5653788ac0019ced548	958539463	1	main_slash	7	advance_on_keypress_SLASH	152	stimuli_distractor_trianglediamonds.svg	stimuli_distractor_diamondtriangles.svg	35	no	57	0	356
6.6.1	win	2022-12-14	14:44:41	14:51:30	407049	5d1ba5653788ac0019ced548	958539463	1	main_slash	7	main_slash	153	stimuli_distractor_diamondtriangles.svg	stimuli_distractor_diamondtriangles.svg	40	no	0	1	2000
6.6.1	win	2022-12-14	14:44:41	14:51:30	407049	5d1ba5653788ac0019ced548	958539463	1	main_slash	7	advance_on_keypress_SLASH	154	stimuli_distractor_diamondtriangles.svg	stimuli_distractor_diamondtriangles.svg	40	no	57	0	1145
6.6.1	win	2022-12-14	14:44:41	14:51:32	409577	5d1ba5653788ac0019ced548	958539463	1	main_slash	7	main_slash	155	stimuli_distractor_diamondtriangles.svg	stimuli_target_squaretriangles.svg	15	yes	53	1	743
6.6.1	win	2022-12-14	14:44:41	14:51:32	409577	5d1ba5653788ac0019ced548	958539463	1	main_slash	7	advance_on_keypress_SLASH	156	stimuli_distractor_diamondtriangles.svg	stimuli_target_squaretriangles.svg	15	yes	57	0	378
6.6.1	win	2022-12-14	14:44:41	14:51:34	411535	5d1ba5653788ac0019ced548	958539463	1	main_slash	7	main_slash	157	stimuli_distractor_diamondtriangles.svg	stimuli_target_trianglesquares.svg	30	yes	53	1	953
6.6.1	win	2022-12-14	14:44:41	14:51:34	411535	5d1ba5653788ac0019ced548	958539463	1	main_slash	7	advance_on_keypress_SLASH	158	stimuli_distractor_diamondtriangles.svg	stimuli_target_trianglesquares.svg	30	yes	57	0	430
6.6.1	win	2022-12-14	14:44:41	14:51:36	413149	5d1ba5653788ac0019ced548	958539463	1	main_slash	7	main_slash	159	stimuli_distractor_diamondtriangles.svg	stimuli_target_circlediamonds.svg	14	yes	53	1	534
6.6.1	win	2022-12-14	14:44:41	14:51:36	413149	5d1ba5653788ac0019ced548	958539463	1	main_slash	7	advance_on_keypress_SLASH	160	stimuli_distractor_diamondtriangles.svg	stimuli_target_circlediamonds.svg	14	yes	57	0	322
6.6.1	win	2022-12-14	14:44:41	14:51:56	433219	5d1ba5653788ac0019ced548	958539463	1	practice_z	9	practice_z	1	stimuli_target_squarediamonds.svg	stimuli_distractor_diamondtriangles.svg	2	yes	44	1	600
6.6.1	win	2022-12-14	14:44:41	14:51:56	433219	5d1ba5653788ac0019ced548	958539463	1	practice_z	9	advance_on_keypress_ZEE	2	stimuli_target_squarediamonds.svg	stimuli_distractor_diamondtriangles.svg	2	yes	57	0	351
6.6.1	win	2022-12-14	14:44:41	14:51:59	435679	5d1ba5653788ac0019ced548	958539463	1	practice_z	9	practice_z	3	stimuli_distractor_trianglediamonds.svg	stimuli_target_squarediamonds.svg	11	yes	44	1	461
6.6.1	win	2022-12-14	14:44:41	14:51:59	435679	5d1ba5653788ac0019ced548	958539463	1	practice_z	9	advance_on_keypress_ZEE	4	stimuli_distractor_trianglediamonds.svg	stimuli_target_squarediamonds.svg	11	yes	57	0	390
6.6.1	win	2022-12-14	14:44:41	14:52:01	438305	5d1ba5653788ac0019ced548	958539463	1	practice_z	9	practice_z	5	stimuli_target_squarediamonds.svg	stimuli_distractor_trianglediamonds.svg	5	yes	44	1	603
6.6.1	win	2022-12-14	14:44:41	14:52:01	438305	5d1ba5653788ac0019ced548	958539463	1	practice_z	9	advance_on_keypress_ZEE	6	stimuli_target_squarediamonds.svg	stimuli_distractor_trianglediamonds.svg	5	yes	57	0	588
6.6.1	win	2022-12-14	14:44:41	14:52:05	442536	5d1ba5653788ac0019ced548	958539463	1	practice_z	9	practice_z	7	stimuli_distractor_diamondtriangles.svg	stimuli_distractor_diamondtriangles.svg	13	no	0	1	2000
6.6.1	win	2022-12-14	14:44:41	14:52:05	442536	5d1ba5653788ac0019ced548	958539463	1	practice_z	9	advance_on_keypress_ZEE	8	stimuli_distractor_diamondtriangles.svg	stimuli_distractor_diamondtriangles.svg	13	no	57	0	542
6.6.1	win	2022-12-14	14:44:41	14:52:08	445137	5d1ba5653788ac0019ced548	958539463	1	practice_z	9	practice_z	9	stimuli_distractor_trianglediamonds.svg	stimuli_target_diamondcircles.svg	12	yes	44	1	419
6.6.1	win	2022-12-14	14:44:41	14:52:08	445137	5d1ba5653788ac0019ced548	958539463	1	practice_z	9	advance_on_keypress_ZEE	10	stimuli_distractor_trianglediamonds.svg	stimuli_target_diamondcircles.svg	12	yes	57	0	692
6.6.1	win	2022-12-14	14:44:41	14:52:11	447883	5d1ba5653788ac0019ced548	958539463	1	practice_z	9	practice_z	11	stimuli_distractor_diamondtriangles.svg	stimuli_target_circletriangles.svg	7	yes	44	1	414
6.6.1	win	2022-12-14	14:44:41	14:52:11	447883	5d1ba5653788ac0019ced548	958539463	1	practice_z	9	advance_on_keypress_ZEE	12	stimuli_distractor_diamondtriangles.svg	stimuli_target_circletriangles.svg	7	yes	57	0	443
6.6.1	win	2022-12-14	14:44:41	14:52:15	451969	5d1ba5653788ac0019ced548	958539463	1	practice_z	9	practice_z	13	stimuli_distractor_trianglediamonds.svg	stimuli_distractor_diamondtriangles.svg	16	no	0	1	2000
6.6.1	win	2022-12-14	14:44:41	14:52:15	451969	5d1ba5653788ac0019ced548	958539463	1	practice_z	9	advance_on_keypress_ZEE	14	stimuli_distractor_trianglediamonds.svg	stimuli_distractor_diamondtriangles.svg	16	no	57	0	531
6.6.1	win	2022-12-14	14:44:41	14:52:18	455151	5d1ba5653788ac0019ced548	958539463	1	practice_z	9	practice_z	15	stimuli_target_diamondsquares.svg	stimuli_distractor_trianglediamonds.svg	6	yes	44	1	999
6.6.1	win	2022-12-14	14:44:41	14:52:18	455151	5d1ba5653788ac0019ced548	958539463	1	practice_z	9	advance_on_keypress_ZEE	16	stimuli_target_diamondsquares.svg	stimuli_distractor_trianglediamonds.svg	6	yes	57	0	446
6.6.1	win	2022-12-14	14:44:41	14:52:21	457732	5d1ba5653788ac0019ced548	958539463	1	practice_z	9	practice_z	17	stimuli_distractor_trianglediamonds.svg	stimuli_target_circlediamonds.svg	10	yes	44	1	479
6.6.1	win	2022-12-14	14:44:41	14:52:21	457732	5d1ba5653788ac0019ced548	958539463	1	practice_z	9	advance_on_keypress_ZEE	18	stimuli_distractor_trianglediamonds.svg	stimuli_target_circlediamonds.svg	10	yes	57	0	561
6.6.1	win	2022-12-14	14:44:41	14:52:23	460525	5d1ba5653788ac0019ced548	958539463	1	practice_z	9	practice_z	19	stimuli_target_circlediamonds.svg	stimuli_distractor_trianglediamonds.svg	4	yes	44	1	590
6.6.1	win	2022-12-14	14:44:41	14:52:23	460525	5d1ba5653788ac0019ced548	958539463	1	practice_z	9	advance_on_keypress_ZEE	20	stimuli_target_circlediamonds.svg	stimuli_distractor_trianglediamonds.svg	4	yes	57	0	610
6.6.1	win	2022-12-14	14:44:41	14:52:26	463184	5d1ba5653788ac0019ced548	958539463	1	practice_z	9	practice_z	21	stimuli_target_circlediamonds.svg	stimuli_distractor_diamondtriangles.svg	1	yes	44	1	415
6.6.1	win	2022-12-14	14:44:41	14:52:26	463184	5d1ba5653788ac0019ced548	958539463	1	practice_z	9	advance_on_keypress_ZEE	22	stimuli_target_circlediamonds.svg	stimuli_distractor_diamondtriangles.svg	1	yes	57	0	498
6.6.1	win	2022-12-14	14:44:41	14:52:29	465966	5d1ba5653788ac0019ced548	958539463	1	practice_z	9	practice_z	23	stimuli_distractor_diamondtriangles.svg	stimuli_target_trianglecircles.svg	9	yes	44	1	629
6.6.1	win	2022-12-14	14:44:41	14:52:29	465966	5d1ba5653788ac0019ced548	958539463	1	practice_z	9	advance_on_keypress_ZEE	24	stimuli_distractor_diamondtriangles.svg	stimuli_target_trianglecircles.svg	9	yes	57	0	480
6.6.1	win	2022-12-14	14:44:41	14:52:33	470103	5d1ba5653788ac0019ced548	958539463	1	practice_z	9	practice_z	25	stimuli_distractor_trianglediamonds.svg	stimuli_distractor_trianglediamonds.svg	15	no	0	1	2000
6.6.1	win	2022-12-14	14:44:41	14:52:33	470103	5d1ba5653788ac0019ced548	958539463	1	practice_z	9	advance_on_keypress_ZEE	26	stimuli_distractor_trianglediamonds.svg	stimuli_distractor_trianglediamonds.svg	15	no	57	0	526
6.6.1	win	2022-12-14	14:44:41	14:52:36	472735	5d1ba5653788ac0019ced548	958539463	1	practice_z	9	practice_z	27	stimuli_distractor_diamondtriangles.svg	stimuli_target_diamondcircles.svg	8	yes	44	1	464
6.6.1	win	2022-12-14	14:44:41	14:52:36	472735	5d1ba5653788ac0019ced548	958539463	1	practice_z	9	advance_on_keypress_ZEE	28	stimuli_distractor_diamondtriangles.svg	stimuli_target_diamondcircles.svg	8	yes	57	0	467
6.6.1	win	2022-12-14	14:44:41	14:52:39	475805	5d1ba5653788ac0019ced548	958539463	1	practice_z	9	practice_z	29	stimuli_target_diamondsquares.svg	stimuli_distractor_diamondtriangles.svg	3	yes	44	1	951
6.6.1	win	2022-12-14	14:44:41	14:52:39	475805	5d1ba5653788ac0019ced548	958539463	1	practice_z	9	advance_on_keypress_ZEE	30	stimuli_target_diamondsquares.svg	stimuli_distractor_diamondtriangles.svg	3	yes	57	0	622
6.6.1	win	2022-12-14	14:44:41	14:52:43	480070	5d1ba5653788ac0019ced548	958539463	1	practice_z	9	practice_z	31	stimuli_distractor_diamondtriangles.svg	stimuli_distractor_trianglediamonds.svg	14	no	0	1	2000
6.6.1	win	2022-12-14	14:44:41	14:52:43	480070	5d1ba5653788ac0019ced548	958539463	1	practice_z	9	advance_on_keypress_ZEE	32	stimuli_distractor_diamondtriangles.svg	stimuli_distractor_trianglediamonds.svg	14	no	57	0	438
6.6.1	win	2022-12-14	14:44:41	14:52:50	486903	5d1ba5653788ac0019ced548	958539463	1	main_z	11	main_z	1	stimuli_distractor_diamondtriangles.svg	stimuli_target_squaretriangles.svg	15	yes	0	0	2000
6.6.1	win	2022-12-14	14:44:41	14:52:50	486903	5d1ba5653788ac0019ced548	958539463	1	main_z	11	advance_on_keypress_ZEE	2	stimuli_distractor_diamondtriangles.svg	stimuli_target_squaretriangles.svg	15	yes	57	0	360
6.6.1	win	2022-12-14	14:44:41	14:52:51	488371	5d1ba5653788ac0019ced548	958539463	1	main_z	11	main_z	3	stimuli_target_circlediamonds.svg	stimuli_distractor_diamondtriangles.svg	6	yes	44	1	468
6.6.1	win	2022-12-14	14:44:41	14:52:51	488371	5d1ba5653788ac0019ced548	958539463	1	main_z	11	advance_on_keypress_ZEE	4	stimuli_target_circlediamonds.svg	stimuli_distractor_diamondtriangles.svg	6	yes	57	0	334
6.6.1	win	2022-12-14	14:44:41	14:52:54	491354	5d1ba5653788ac0019ced548	958539463	1	main_z	11	main_z	5	stimuli_distractor_diamondtriangles.svg	stimuli_distractor_trianglediamonds.svg	38	no	0	1	2000
6.6.1	win	2022-12-14	14:44:41	14:52:54	491354	5d1ba5653788ac0019ced548	958539463	1	main_z	11	advance_on_keypress_ZEE	6	stimuli_distractor_diamondtriangles.svg	stimuli_distractor_trianglediamonds.svg	38	no	57	0	285
6.6.1	win	2022-12-14	14:44:41	14:52:56	492725	5d1ba5653788ac0019ced548	958539463	1	main_z	11	main_z	7	stimuli_distractor_diamondtriangles.svg	stimuli_target_diamondcircles.svg	31	yes	44	1	439
6.6.1	win	2022-12-14	14:44:41	14:52:56	492725	5d1ba5653788ac0019ced548	958539463	1	main_z	11	advance_on_keypress_ZEE	8	stimuli_distractor_diamondtriangles.svg	stimuli_target_diamondcircles.svg	31	yes	57	0	354
6.6.1	win	2022-12-14	14:44:41	14:52:57	494375	5d1ba5653788ac0019ced548	958539463	1	main_z	11	main_z	9	stimuli_distractor_diamondtriangles.svg	stimuli_target_circletriangles.svg	13	yes	44	1	653
6.6.1	win	2022-12-14	14:44:41	14:52:57	494375	5d1ba5653788ac0019ced548	958539463	1	main_z	11	advance_on_keypress_ZEE	10	stimuli_distractor_diamondtriangles.svg	stimuli_target_circletriangles.svg	13	yes	57	0	297
6.6.1	win	2022-12-14	14:44:41	14:53:00	497320	5d1ba5653788ac0019ced548	958539463	1	main_z	11	main_z	11	stimuli_distractor_trianglediamonds.svg	stimuli_distractor_diamondtriangles.svg	36	no	0	1	2000
6.6.1	win	2022-12-14	14:44:41	14:53:00	497320	5d1ba5653788ac0019ced548	958539463	1	main_z	11	advance_on_keypress_ZEE	12	stimuli_distractor_trianglediamonds.svg	stimuli_distractor_diamondtriangles.svg	36	no	57	0	291
6.6.1	win	2022-12-14	14:44:41	14:53:02	498887	5d1ba5653788ac0019ced548	958539463	1	main_z	11	main_z	13	stimuli_distractor_diamondtriangles.svg	stimuli_target_squarediamonds.svg	16	yes	44	1	634
6.6.1	win	2022-12-14	14:44:41	14:53:02	498887	5d1ba5653788ac0019ced548	958539463	1	main_z	11	advance_on_keypress_ZEE	14	stimuli_distractor_diamondtriangles.svg	stimuli_target_squarediamonds.svg	16	yes	57	0	313
6.6.1	win	2022-12-14	14:44:41	14:53:03	500561	5d1ba5653788ac0019ced548	958539463	1	main_z	11	main_z	15	stimuli_target_diamondcircles.svg	stimuli_distractor_trianglediamonds.svg	19	yes	44	1	708
6.6.1	win	2022-12-14	14:44:41	14:53:03	500561	5d1ba5653788ac0019ced548	958539463	1	main_z	11	advance_on_keypress_ZEE	16	stimuli_target_diamondcircles.svg	stimuli_distractor_trianglediamonds.svg	19	yes	57	0	335
6.6.1	win	2022-12-14	14:44:41	14:53:05	502366	5d1ba5653788ac0019ced548	958539463	1	main_z	11	main_z	17	stimuli_distractor_diamondtriangles.svg	stimuli_target_trianglesquares.svg	30	yes	44	1	828
6.6.1	win	2022-12-14	14:44:41	14:53:05	502366	5d1ba5653788ac0019ced548	958539463	1	main_z	11	advance_on_keypress_ZEE	18	stimuli_distractor_diamondtriangles.svg	stimuli_target_trianglesquares.svg	30	yes	57	0	274
6.6.1	win	2022-12-14	14:44:41	14:53:08	505271	5d1ba5653788ac0019ced548	958539463	1	main_z	11	main_z	19	stimuli_distractor_diamondtriangles.svg	stimuli_distractor_diamondtriangles.svg	40	no	0	1	2000
6.6.1	win	2022-12-14	14:44:41	14:53:08	505271	5d1ba5653788ac0019ced548	958539463	1	main_z	11	advance_on_keypress_ZEE	20	stimuli_distractor_diamondtriangles.svg	stimuli_distractor_diamondtriangles.svg	40	no	57	0	516
6.6.1	win	2022-12-14	14:44:41	14:53:10	506990	5d1ba5653788ac0019ced548	958539463	1	main_z	11	main_z	21	stimuli_distractor_trianglediamonds.svg	stimuli_distractor_diamondtriangles.svg	35	no	44	0	553
6.6.1	win	2022-12-14	14:44:41	14:53:10	506990	5d1ba5653788ac0019ced548	958539463	1	main_z	11	advance_on_keypress_ZEE	22	stimuli_distractor_trianglediamonds.svg	stimuli_distractor_diamondtriangles.svg	35	no	57	0	642
6.6.1	win	2022-12-14	14:44:41	14:53:12	508907	5d1ba5653788ac0019ced548	958539463	1	main_z	11	main_z	23	stimuli_target_circlediamonds.svg	stimuli_distractor_trianglediamonds.svg	2	yes	44	1	636
6.6.1	win	2022-12-14	14:44:41	14:53:12	508907	5d1ba5653788ac0019ced548	958539463	1	main_z	11	advance_on_keypress_ZEE	24	stimuli_target_circlediamonds.svg	stimuli_distractor_trianglediamonds.svg	2	yes	57	0	373
6.6.1	win	2022-12-14	14:44:41	14:53:13	510572	5d1ba5653788ac0019ced548	958539463	1	main_z	11	main_z	25	stimuli_distractor_trianglediamonds.svg	stimuli_target_diamondcircles.svg	27	yes	44	1	651
6.6.1	win	2022-12-14	14:44:41	14:53:13	510572	5d1ba5653788ac0019ced548	958539463	1	main_z	11	advance_on_keypress_ZEE	26	stimuli_distractor_trianglediamonds.svg	stimuli_target_diamondcircles.svg	27	yes	57	0	372
6.6.1	win	2022-12-14	14:44:41	14:53:15	512339	5d1ba5653788ac0019ced548	958539463	1	main_z	11	main_z	27	stimuli_distractor_trianglediamonds.svg	stimuli_target_squaretriangles.svg	11	yes	44	1	752
6.6.1	win	2022-12-14	14:44:41	14:53:15	512339	5d1ba5653788ac0019ced548	958539463	1	main_z	11	advance_on_keypress_ZEE	28	stimuli_distractor_trianglediamonds.svg	stimuli_target_squaretriangles.svg	11	yes	57	0	294
6.6.1	win	2022-12-14	14:44:41	14:53:17	513837	5d1ba5653788ac0019ced548	958539463	1	main_z	11	main_z	29	stimuli_target_squaretriangles.svg	stimuli_distractor_diamondtriangles.svg	7	yes	44	1	566
6.6.1	win	2022-12-14	14:44:41	14:53:17	513837	5d1ba5653788ac0019ced548	958539463	1	main_z	11	advance_on_keypress_ZEE	30	stimuli_target_squaretriangles.svg	stimuli_distractor_diamondtriangles.svg	7	yes	57	0	363
6.6.1	win	2022-12-14	14:44:41	14:53:19	515682	5d1ba5653788ac0019ced548	958539463	1	main_z	11	main_z	31	stimuli_distractor_trianglediamonds.svg	stimuli_target_trianglesquares.svg	26	yes	44	1	827
6.6.1	win	2022-12-14	14:44:41	14:53:19	515682	5d1ba5653788ac0019ced548	958539463	1	main_z	11	advance_on_keypress_ZEE	32	stimuli_distractor_trianglediamonds.svg	stimuli_target_trianglesquares.svg	26	yes	57	0	354
6.6.1	win	2022-12-14	14:44:41	14:53:20	517098	5d1ba5653788ac0019ced548	958539463	1	main_z	11	main_z	33	stimuli_target_trianglecircles.svg	stimuli_distractor_trianglediamonds.svg	17	yes	44	1	427
6.6.1	win	2022-12-14	14:44:41	14:53:20	517098	5d1ba5653788ac0019ced548	958539463	1	main_z	11	advance_on_keypress_ZEE	34	stimuli_target_trianglecircles.svg	stimuli_distractor_trianglediamonds.svg	17	yes	57	0	321
6.6.1	win	2022-12-14	14:44:41	14:53:21	518545	5d1ba5653788ac0019ced548	958539463	1	main_z	11	main_z	35	stimuli_target_circletriangles.svg	stimuli_distractor_trianglediamonds.svg	1	yes	44	1	490
6.6.1	win	2022-12-14	14:44:41	14:53:21	518545	5d1ba5653788ac0019ced548	958539463	1	main_z	11	advance_on_keypress_ZEE	36	stimuli_target_circletriangles.svg	stimuli_distractor_trianglediamonds.svg	1	yes	57	0	310
6.6.1	win	2022-12-14	14:44:41	14:53:23	519946	5d1ba5653788ac0019ced548	958539463	1	main_z	11	main_z	37	stimuli_distractor_trianglediamonds.svg	stimuli_target_circlediamonds.svg	10	yes	44	1	458
6.6.1	win	2022-12-14	14:44:41	14:53:23	519946	5d1ba5653788ac0019ced548	958539463	1	main_z	11	advance_on_keypress_ZEE	38	stimuli_distractor_trianglediamonds.svg	stimuli_target_circlediamonds.svg	10	yes	57	0	264
6.6.1	win	2022-12-14	14:44:41	14:53:24	521289	5d1ba5653788ac0019ced548	958539463	1	main_z	11	main_z	39	stimuli_distractor_trianglediamonds.svg	stimuli_target_squarediamonds.svg	12	yes	44	1	434
6.6.1	win	2022-12-14	14:44:41	14:53:24	521289	5d1ba5653788ac0019ced548	958539463	1	main_z	11	advance_on_keypress_ZEE	40	stimuli_distractor_trianglediamonds.svg	stimuli_target_squarediamonds.svg	12	yes	57	0	252
6.6.1	win	2022-12-14	14:44:41	14:53:27	524188	5d1ba5653788ac0019ced548	958539463	1	main_z	11	main_z	41	stimuli_distractor_trianglediamonds.svg	stimuli_distractor_trianglediamonds.svg	33	no	0	1	2000
6.6.1	win	2022-12-14	14:44:41	14:53:27	524188	5d1ba5653788ac0019ced548	958539463	1	main_z	11	advance_on_keypress_ZEE	42	stimuli_distractor_trianglediamonds.svg	stimuli_distractor_trianglediamonds.svg	33	no	57	0	324
6.6.1	win	2022-12-14	14:44:41	14:53:30	527155	5d1ba5653788ac0019ced548	958539463	1	main_z	11	main_z	43	stimuli_distractor_trianglediamonds.svg	stimuli_distractor_trianglediamonds.svg	34	no	0	1	2000
6.6.1	win	2022-12-14	14:44:41	14:53:30	527155	5d1ba5653788ac0019ced548	958539463	1	main_z	11	advance_on_keypress_ZEE	44	stimuli_distractor_trianglediamonds.svg	stimuli_distractor_trianglediamonds.svg	34	no	57	0	496
6.6.1	win	2022-12-14	14:44:41	14:53:32	528749	5d1ba5653788ac0019ced548	958539463	1	main_z	11	main_z	45	stimuli_target_diamondcircles.svg	stimuli_distractor_diamondtriangles.svg	23	yes	44	1	444
6.6.1	win	2022-12-14	14:44:41	14:53:32	528749	5d1ba5653788ac0019ced548	958539463	1	main_z	11	advance_on_keypress_ZEE	46	stimuli_target_diamondcircles.svg	stimuli_distractor_diamondtriangles.svg	23	yes	57	0	294
6.6.1	win	2022-12-14	14:44:41	14:53:33	530211	5d1ba5653788ac0019ced548	958539463	1	main_z	11	main_z	47	stimuli_target_circletriangles.svg	stimuli_distractor_diamondtriangles.svg	5	yes	44	1	539
6.6.1	win	2022-12-14	14:44:41	14:53:33	530211	5d1ba5653788ac0019ced548	958539463	1	main_z	11	advance_on_keypress_ZEE	48	stimuli_target_circletriangles.svg	stimuli_distractor_diamondtriangles.svg	5	yes	57	0	265
6.6.1	win	2022-12-14	14:44:41	14:53:35	531654	5d1ba5653788ac0019ced548	958539463	1	main_z	11	main_z	49	stimuli_distractor_diamondtriangles.svg	stimuli_target_diamondsquares.svg	32	yes	44	1	532
6.6.1	win	2022-12-14	14:44:41	14:53:35	531654	5d1ba5653788ac0019ced548	958539463	1	main_z	11	advance_on_keypress_ZEE	50	stimuli_distractor_diamondtriangles.svg	stimuli_target_diamondsquares.svg	32	yes	57	0	263
6.6.1	win	2022-12-14	14:44:41	14:53:36	533036	5d1ba5653788ac0019ced548	958539463	1	main_z	11	main_z	51	stimuli_target_squarediamonds.svg	stimuli_distractor_trianglediamonds.svg	4	yes	44	1	464
6.6.1	win	2022-12-14	14:44:41	14:53:36	533036	5d1ba5653788ac0019ced548	958539463	1	main_z	11	advance_on_keypress_ZEE	52	stimuli_target_squarediamonds.svg	stimuli_distractor_trianglediamonds.svg	4	yes	57	0	296
6.6.1	win	2022-12-14	14:44:41	14:53:37	534390	5d1ba5653788ac0019ced548	958539463	1	main_z	11	main_z	53	stimuli_distractor_diamondtriangles.svg	stimuli_target_circlediamonds.svg	14	yes	44	1	417
6.6.1	win	2022-12-14	14:44:41	14:53:37	534390	5d1ba5653788ac0019ced548	958539463	1	main_z	11	advance_on_keypress_ZEE	54	stimuli_distractor_diamondtriangles.svg	stimuli_target_circlediamonds.svg	14	yes	57	0	191
6.6.1	win	2022-12-14	14:44:41	14:53:39	535605	5d1ba5653788ac0019ced548	958539463	1	main_z	11	main_z	55	stimuli_distractor_diamondtriangles.svg	stimuli_distractor_diamondtriangles.svg	39	no	44	0	377
6.6.1	win	2022-12-14	14:44:41	14:53:39	535605	5d1ba5653788ac0019ced548	958539463	1	main_z	11	advance_on_keypress_ZEE	56	stimuli_distractor_diamondtriangles.svg	stimuli_distractor_diamondtriangles.svg	39	no	57	0	285
6.6.1	win	2022-12-14	14:44:41	14:53:40	536940	5d1ba5653788ac0019ced548	958539463	1	main_z	11	main_z	57	stimuli_target_trianglecircles.svg	stimuli_distractor_diamondtriangles.svg	21	yes	44	1	401
6.6.1	win	2022-12-14	14:44:41	14:53:40	536940	5d1ba5653788ac0019ced548	958539463	1	main_z	11	advance_on_keypress_ZEE	58	stimuli_target_trianglecircles.svg	stimuli_distractor_diamondtriangles.svg	21	yes	57	0	243
6.6.1	win	2022-12-14	14:44:41	14:53:41	538364	5d1ba5653788ac0019ced548	958539463	1	main_z	11	main_z	59	stimuli_target_trianglesquares.svg	stimuli_distractor_diamondtriangles.svg	22	yes	44	1	542
6.6.1	win	2022-12-14	14:44:41	14:53:41	538364	5d1ba5653788ac0019ced548	958539463	1	main_z	11	advance_on_keypress_ZEE	60	stimuli_target_trianglesquares.svg	stimuli_distractor_diamondtriangles.svg	22	yes	57	0	258
6.6.1	win	2022-12-14	14:44:41	14:53:43	539654	5d1ba5653788ac0019ced548	958539463	1	main_z	11	main_z	61	stimuli_target_squaretriangles.svg	stimuli_distractor_trianglediamonds.svg	3	yes	44	1	399
6.6.1	win	2022-12-14	14:44:41	14:53:43	539654	5d1ba5653788ac0019ced548	958539463	1	main_z	11	advance_on_keypress_ZEE	62	stimuli_target_squaretriangles.svg	stimuli_distractor_trianglediamonds.svg	3	yes	57	0	312
6.6.1	win	2022-12-14	14:44:41	14:53:46	542606	5d1ba5653788ac0019ced548	958539463	1	main_z	11	main_z	63	stimuli_distractor_diamondtriangles.svg	stimuli_distractor_trianglediamonds.svg	37	no	0	1	2000
6.6.1	win	2022-12-14	14:44:41	14:53:46	542606	5d1ba5653788ac0019ced548	958539463	1	main_z	11	advance_on_keypress_ZEE	64	stimuli_distractor_diamondtriangles.svg	stimuli_distractor_trianglediamonds.svg	37	no	57	0	1363
6.6.1	win	2022-12-14	14:44:41	14:53:48	544890	5d1ba5653788ac0019ced548	958539463	1	main_z	11	main_z	65	stimuli_distractor_diamondtriangles.svg	stimuli_target_trianglecircles.svg	29	yes	44	1	265
6.6.1	win	2022-12-14	14:44:41	14:53:48	544890	5d1ba5653788ac0019ced548	958539463	1	main_z	11	advance_on_keypress_ZEE	66	stimuli_distractor_diamondtriangles.svg	stimuli_target_trianglecircles.svg	29	yes	57	0	561
6.6.1	win	2022-12-14	14:44:41	14:53:50	546793	5d1ba5653788ac0019ced548	958539463	1	main_z	11	main_z	67	stimuli_target_trianglesquares.svg	stimuli_distractor_trianglediamonds.svg	18	yes	44	1	703
6.6.1	win	2022-12-14	14:44:41	14:53:50	546793	5d1ba5653788ac0019ced548	958539463	1	main_z	11	advance_on_keypress_ZEE	68	stimuli_target_trianglesquares.svg	stimuli_distractor_trianglediamonds.svg	18	yes	57	0	233
6.6.1	win	2022-12-14	14:44:41	14:53:51	548324	5d1ba5653788ac0019ced548	958539463	1	main_z	11	main_z	69	stimuli_distractor_trianglediamonds.svg	stimuli_target_diamondsquares.svg	28	yes	44	1	650
6.6.1	win	2022-12-14	14:44:41	14:53:51	548324	5d1ba5653788ac0019ced548	958539463	1	main_z	11	advance_on_keypress_ZEE	70	stimuli_distractor_trianglediamonds.svg	stimuli_target_diamondsquares.svg	28	yes	57	0	286
6.6.1	win	2022-12-14	14:44:41	14:53:53	549906	5d1ba5653788ac0019ced548	958539463	1	main_z	11	main_z	71	stimuli_distractor_trianglediamonds.svg	stimuli_target_circletriangles.svg	9	yes	44	1	649
6.6.1	win	2022-12-14	14:44:41	14:53:53	549906	5d1ba5653788ac0019ced548	958539463	1	main_z	11	advance_on_keypress_ZEE	72	stimuli_distractor_trianglediamonds.svg	stimuli_target_circletriangles.svg	9	yes	57	0	218
6.6.1	win	2022-12-14	14:44:41	14:53:54	551293	5d1ba5653788ac0019ced548	958539463	1	main_z	11	main_z	73	stimuli_target_squarediamonds.svg	stimuli_distractor_diamondtriangles.svg	8	yes	44	1	520
6.6.1	win	2022-12-14	14:44:41	14:53:54	551293	5d1ba5653788ac0019ced548	958539463	1	main_z	11	advance_on_keypress_ZEE	74	stimuli_target_squarediamonds.svg	stimuli_distractor_diamondtriangles.svg	8	yes	57	0	204
6.6.1	win	2022-12-14	14:44:41	14:53:56	553056	5d1ba5653788ac0019ced548	958539463	1	main_z	11	main_z	75	stimuli_target_diamondsquares.svg	stimuli_distractor_diamondtriangles.svg	24	yes	44	1	915
6.6.1	win	2022-12-14	14:44:41	14:53:56	553056	5d1ba5653788ac0019ced548	958539463	1	main_z	11	advance_on_keypress_ZEE	76	stimuli_target_diamondsquares.svg	stimuli_distractor_diamondtriangles.svg	24	yes	57	0	238
6.6.1	win	2022-12-14	14:44:41	14:53:58	554657	5d1ba5653788ac0019ced548	958539463	1	main_z	11	main_z	77	stimuli_distractor_trianglediamonds.svg	stimuli_target_trianglecircles.svg	25	yes	44	1	717
6.6.1	win	2022-12-14	14:44:41	14:53:58	554657	5d1ba5653788ac0019ced548	958539463	1	main_z	11	advance_on_keypress_ZEE	78	stimuli_distractor_trianglediamonds.svg	stimuli_target_trianglecircles.svg	25	yes	57	0	232
6.6.1	win	2022-12-14	14:44:41	14:54:00	557540	5d1ba5653788ac0019ced548	958539463	1	main_z	11	main_z	79	stimuli_target_diamondsquares.svg	stimuli_distractor_trianglediamonds.svg	20	yes	0	0	2000
6.6.1	win	2022-12-14	14:44:41	14:54:00	557540	5d1ba5653788ac0019ced548	958539463	1	main_z	11	advance_on_keypress_ZEE	80	stimuli_target_diamondsquares.svg	stimuli_distractor_trianglediamonds.svg	20	yes	57	0	364
6.6.1	win	2022-12-14	14:44:41	14:54:02	558944	5d1ba5653788ac0019ced548	958539463	1	main_z	11	main_z	81	stimuli_target_squaretriangles.svg	stimuli_distractor_trianglediamonds.svg	3	yes	44	1	389
6.6.1	win	2022-12-14	14:44:41	14:54:02	558944	5d1ba5653788ac0019ced548	958539463	1	main_z	11	advance_on_keypress_ZEE	82	stimuli_target_squaretriangles.svg	stimuli_distractor_trianglediamonds.svg	3	yes	57	0	274
6.6.1	win	2022-12-14	14:44:41	14:54:03	560419	5d1ba5653788ac0019ced548	958539463	1	main_z	11	main_z	83	stimuli_distractor_diamondtriangles.svg	stimuli_target_circlediamonds.svg	14	yes	44	1	562
6.6.1	win	2022-12-14	14:44:41	14:54:03	560419	5d1ba5653788ac0019ced548	958539463	1	main_z	11	advance_on_keypress_ZEE	84	stimuli_distractor_diamondtriangles.svg	stimuli_target_circlediamonds.svg	14	yes	57	0	213
6.6.1	win	2022-12-14	14:44:41	14:54:06	563273	5d1ba5653788ac0019ced548	958539463	1	main_z	11	main_z	85	stimuli_distractor_diamondtriangles.svg	stimuli_distractor_diamondtriangles.svg	40	no	0	1	2000
6.6.1	win	2022-12-14	14:44:41	14:54:06	563273	5d1ba5653788ac0019ced548	958539463	1	main_z	11	advance_on_keypress_ZEE	86	stimuli_distractor_diamondtriangles.svg	stimuli_distractor_diamondtriangles.svg	40	no	57	0	515
6.6.1	win	2022-12-14	14:44:41	14:54:08	564780	5d1ba5653788ac0019ced548	958539463	1	main_z	11	main_z	87	stimuli_target_circlediamonds.svg	stimuli_distractor_trianglediamonds.svg	2	yes	44	1	340
6.6.1	win	2022-12-14	14:44:41	14:54:08	564780	5d1ba5653788ac0019ced548	958539463	1	main_z	11	advance_on_keypress_ZEE	88	stimuli_target_circlediamonds.svg	stimuli_distractor_trianglediamonds.svg	2	yes	57	0	279
6.6.1	win	2022-12-14	14:44:41	14:54:09	566425	5d1ba5653788ac0019ced548	958539463	1	main_z	11	main_z	89	stimuli_distractor_trianglediamonds.svg	stimuli_target_trianglecircles.svg	25	yes	44	1	718
6.6.1	win	2022-12-14	14:44:41	14:54:09	566425	5d1ba5653788ac0019ced548	958539463	1	main_z	11	advance_on_keypress_ZEE	90	stimuli_distractor_trianglediamonds.svg	stimuli_target_trianglecircles.svg	25	yes	57	0	217
6.6.1	win	2022-12-14	14:44:41	14:54:12	569291	5d1ba5653788ac0019ced548	958539463	1	main_z	11	main_z	91	stimuli_distractor_diamondtriangles.svg	stimuli_distractor_diamondtriangles.svg	39	no	0	1	2000
6.6.1	win	2022-12-14	14:44:41	14:54:12	569291	5d1ba5653788ac0019ced548	958539463	1	main_z	11	advance_on_keypress_ZEE	92	stimuli_distractor_diamondtriangles.svg	stimuli_distractor_diamondtriangles.svg	39	no	57	0	347
6.6.1	win	2022-12-14	14:44:41	14:54:15	572291	5d1ba5653788ac0019ced548	958539463	1	main_z	11	main_z	93	stimuli_distractor_trianglediamonds.svg	stimuli_target_circlediamonds.svg	10	yes	0	0	2000
6.6.1	win	2022-12-14	14:44:41	14:54:15	572291	5d1ba5653788ac0019ced548	958539463	1	main_z	11	advance_on_keypress_ZEE	94	stimuli_distractor_trianglediamonds.svg	stimuli_target_circlediamonds.svg	10	yes	57	0	504
6.6.1	win	2022-12-14	14:44:41	14:54:17	573902	5d1ba5653788ac0019ced548	958539463	1	main_z	11	main_z	95	stimuli_distractor_trianglediamonds.svg	stimuli_target_squaretriangles.svg	11	yes	44	1	461
6.6.1	win	2022-12-14	14:44:41	14:54:17	573902	5d1ba5653788ac0019ced548	958539463	1	main_z	11	advance_on_keypress_ZEE	96	stimuli_distractor_trianglediamonds.svg	stimuli_target_squaretriangles.svg	11	yes	57	0	327
6.6.1	win	2022-12-14	14:44:41	14:54:18	575449	5d1ba5653788ac0019ced548	958539463	1	main_z	11	main_z	97	stimuli_target_squarediamonds.svg	stimuli_distractor_diamondtriangles.svg	8	yes	44	1	592
6.6.1	win	2022-12-14	14:44:41	14:54:18	575449	5d1ba5653788ac0019ced548	958539463	1	main_z	11	advance_on_keypress_ZEE	98	stimuli_target_squarediamonds.svg	stimuli_distractor_diamondtriangles.svg	8	yes	57	0	232
6.6.1	win	2022-12-14	14:44:41	14:54:20	576806	5d1ba5653788ac0019ced548	958539463	1	main_z	11	main_z	99	stimuli_target_circletriangles.svg	stimuli_distractor_trianglediamonds.svg	1	yes	44	1	414
6.6.1	win	2022-12-14	14:44:41	14:54:20	576806	5d1ba5653788ac0019ced548	958539463	1	main_z	11	advance_on_keypress_ZEE	100	stimuli_target_circletriangles.svg	stimuli_distractor_trianglediamonds.svg	1	yes	57	0	214
6.6.1	win	2022-12-14	14:44:41	14:54:21	578169	5d1ba5653788ac0019ced548	958539463	1	main_z	11	main_z	101	stimuli_distractor_trianglediamonds.svg	stimuli_target_diamondcircles.svg	27	yes	44	1	495
6.6.1	win	2022-12-14	14:44:41	14:54:21	578169	5d1ba5653788ac0019ced548	958539463	1	main_z	11	advance_on_keypress_ZEE	102	stimuli_distractor_trianglediamonds.svg	stimuli_target_diamondcircles.svg	27	yes	57	0	212
6.6.1	win	2022-12-14	14:44:41	14:54:22	579439	5d1ba5653788ac0019ced548	958539463	1	main_z	11	main_z	103	stimuli_target_squarediamonds.svg	stimuli_distractor_trianglediamonds.svg	4	yes	44	1	431
6.6.1	win	2022-12-14	14:44:41	14:54:22	579439	5d1ba5653788ac0019ced548	958539463	1	main_z	11	advance_on_keypress_ZEE	104	stimuli_target_squarediamonds.svg	stimuli_distractor_trianglediamonds.svg	4	yes	57	0	162
6.6.1	win	2022-12-14	14:44:41	14:54:24	580797	5d1ba5653788ac0019ced548	958539463	1	main_z	11	main_z	105	stimuli_distractor_trianglediamonds.svg	stimuli_target_circletriangles.svg	9	yes	44	1	556
6.6.1	win	2022-12-14	14:44:41	14:54:24	580797	5d1ba5653788ac0019ced548	958539463	1	main_z	11	advance_on_keypress_ZEE	106	stimuli_distractor_trianglediamonds.svg	stimuli_target_circletriangles.svg	9	yes	57	0	181
6.6.1	win	2022-12-14	14:44:41	14:54:25	581990	5d1ba5653788ac0019ced548	958539463	1	main_z	11	main_z	107	stimuli_target_circletriangles.svg	stimuli_distractor_diamondtriangles.svg	5	yes	44	1	364
6.6.1	win	2022-12-14	14:44:41	14:54:25	581990	5d1ba5653788ac0019ced548	958539463	1	main_z	11	advance_on_keypress_ZEE	108	stimuli_target_circletriangles.svg	stimuli_distractor_diamondtriangles.svg	5	yes	57	0	201
6.6.1	win	2022-12-14	14:44:41	14:54:27	583966	5d1ba5653788ac0019ced548	958539463	1	main_z	11	main_z	109	stimuli_target_trianglesquares.svg	stimuli_distractor_trianglediamonds.svg	18	yes	44	1	1125
6.6.1	win	2022-12-14	14:44:41	14:54:27	583966	5d1ba5653788ac0019ced548	958539463	1	main_z	11	advance_on_keypress_ZEE	110	stimuli_target_trianglesquares.svg	stimuli_distractor_trianglediamonds.svg	18	yes	57	0	1042
6.6.1	win	2022-12-14	14:44:41	14:54:31	587641	5d1ba5653788ac0019ced548	958539463	1	main_z	11	main_z	111	stimuli_distractor_diamondtriangles.svg	stimuli_distractor_trianglediamonds.svg	37	no	0	1	2000
6.6.1	win	2022-12-14	14:44:41	14:54:31	587641	5d1ba5653788ac0019ced548	958539463	1	main_z	11	advance_on_keypress_ZEE	112	stimuli_distractor_diamondtriangles.svg	stimuli_distractor_trianglediamonds.svg	37	no	57	0	439
6.6.1	win	2022-12-14	14:44:41	14:54:32	589124	5d1ba5653788ac0019ced548	958539463	1	main_z	11	main_z	113	stimuli_distractor_trianglediamonds.svg	stimuli_target_diamondsquares.svg	28	yes	44	1	399
6.6.1	win	2022-12-14	14:44:41	14:54:32	589124	5d1ba5653788ac0019ced548	958539463	1	main_z	11	advance_on_keypress_ZEE	114	stimuli_distractor_trianglediamonds.svg	stimuli_target_diamondsquares.svg	28	yes	57	0	244
6.6.1	win	2022-12-14	14:44:41	14:54:33	590447	5d1ba5653788ac0019ced548	958539463	1	main_z	11	main_z	115	stimuli_target_trianglecircles.svg	stimuli_distractor_diamondtriangles.svg	21	yes	44	1	439
6.6.1	win	2022-12-14	14:44:41	14:54:33	590447	5d1ba5653788ac0019ced548	958539463	1	main_z	11	advance_on_keypress_ZEE	116	stimuli_target_trianglecircles.svg	stimuli_distractor_diamondtriangles.svg	21	yes	57	0	159
6.6.1	win	2022-12-14	14:44:41	14:54:35	592090	5d1ba5653788ac0019ced548	958539463	1	main_z	11	main_z	117	stimuli_distractor_trianglediamonds.svg	stimuli_distractor_diamondtriangles.svg	35	no	44	0	847
6.6.1	win	2022-12-14	14:44:41	14:54:35	592090	5d1ba5653788ac0019ced548	958539463	1	main_z	11	advance_on_keypress_ZEE	118	stimuli_distractor_trianglediamonds.svg	stimuli_distractor_diamondtriangles.svg	35	no	57	0	274
6.6.1	win	2022-12-14	14:44:41	14:54:37	593742	5d1ba5653788ac0019ced548	958539463	1	main_z	11	main_z	119	stimuli_distractor_diamondtriangles.svg	stimuli_target_circletriangles.svg	13	yes	44	1	734
6.6.1	win	2022-12-14	14:44:41	14:54:37	593742	5d1ba5653788ac0019ced548	958539463	1	main_z	11	advance_on_keypress_ZEE	120	stimuli_distractor_diamondtriangles.svg	stimuli_target_circletriangles.svg	13	yes	57	0	222
6.6.1	win	2022-12-14	14:44:41	14:54:38	595228	5d1ba5653788ac0019ced548	958539463	1	main_z	11	main_z	121	stimuli_target_trianglecircles.svg	stimuli_distractor_trianglediamonds.svg	17	yes	44	1	619
6.6.1	win	2022-12-14	14:44:41	14:54:38	595228	5d1ba5653788ac0019ced548	958539463	1	main_z	11	advance_on_keypress_ZEE	122	stimuli_target_trianglecircles.svg	stimuli_distractor_trianglediamonds.svg	17	yes	57	0	203
6.6.1	win	2022-12-14	14:44:41	14:54:39	596593	5d1ba5653788ac0019ced548	958539463	1	main_z	11	main_z	123	stimuli_target_diamondsquares.svg	stimuli_distractor_trianglediamonds.svg	20	yes	44	1	508
6.6.1	win	2022-12-14	14:44:41	14:54:39	596593	5d1ba5653788ac0019ced548	958539463	1	main_z	11	advance_on_keypress_ZEE	124	stimuli_target_diamondsquares.svg	stimuli_distractor_trianglediamonds.svg	20	yes	57	0	124
6.6.1	win	2022-12-14	14:44:41	14:54:41	597756	5d1ba5653788ac0019ced548	958539463	1	main_z	11	main_z	125	stimuli_target_diamondcircles.svg	stimuli_distractor_diamondtriangles.svg	23	yes	44	1	396
6.6.1	win	2022-12-14	14:44:41	14:54:41	597756	5d1ba5653788ac0019ced548	958539463	1	main_z	11	advance_on_keypress_ZEE	126	stimuli_target_diamondcircles.svg	stimuli_distractor_diamondtriangles.svg	23	yes	57	0	112
6.6.1	win	2022-12-14	14:44:41	14:54:42	599358	5d1ba5653788ac0019ced548	958539463	1	main_z	11	main_z	127	stimuli_distractor_trianglediamonds.svg	stimuli_target_squarediamonds.svg	12	yes	44	1	849
6.6.1	win	2022-12-14	14:44:41	14:54:42	599358	5d1ba5653788ac0019ced548	958539463	1	main_z	11	advance_on_keypress_ZEE	128	stimuli_distractor_trianglediamonds.svg	stimuli_target_squarediamonds.svg	12	yes	57	0	139
6.6.1	win	2022-12-14	14:44:41	14:54:44	600991	5d1ba5653788ac0019ced548	958539463	1	main_z	11	main_z	129	stimuli_distractor_diamondtriangles.svg	stimuli_target_diamondsquares.svg	32	yes	44	1	849
6.6.1	win	2022-12-14	14:44:41	14:54:44	600991	5d1ba5653788ac0019ced548	958539463	1	main_z	11	advance_on_keypress_ZEE	130	stimuli_distractor_diamondtriangles.svg	stimuli_target_diamondsquares.svg	32	yes	57	0	146
6.6.1	win	2022-12-14	14:44:41	14:54:47	603792	5d1ba5653788ac0019ced548	958539463	1	main_z	11	main_z	131	stimuli_distractor_trianglediamonds.svg	stimuli_distractor_trianglediamonds.svg	34	no	0	1	2000
6.6.1	win	2022-12-14	14:44:41	14:54:47	603792	5d1ba5653788ac0019ced548	958539463	1	main_z	11	advance_on_keypress_ZEE	132	stimuli_distractor_trianglediamonds.svg	stimuli_distractor_trianglediamonds.svg	34	no	57	0	354
6.6.1	win	2022-12-14	14:44:41	14:54:48	605230	5d1ba5653788ac0019ced548	958539463	1	main_z	11	main_z	133	stimuli_distractor_diamondtriangles.svg	stimuli_target_squaretriangles.svg	15	yes	44	1	438
6.6.1	win	2022-12-14	14:44:41	14:54:48	605230	5d1ba5653788ac0019ced548	958539463	1	main_z	11	advance_on_keypress_ZEE	134	stimuli_distractor_diamondtriangles.svg	stimuli_target_squaretriangles.svg	15	yes	57	0	243
6.6.1	win	2022-12-14	14:44:41	14:54:49	606519	5d1ba5653788ac0019ced548	958539463	1	main_z	11	main_z	135	stimuli_distractor_trianglediamonds.svg	stimuli_distractor_diamondtriangles.svg	36	no	44	0	411
6.6.1	win	2022-12-14	14:44:41	14:54:49	606519	5d1ba5653788ac0019ced548	958539463	1	main_z	11	advance_on_keypress_ZEE	136	stimuli_distractor_trianglediamonds.svg	stimuli_distractor_diamondtriangles.svg	36	no	57	0	223
6.6.1	win	2022-12-14	14:44:41	14:54:52	609376	5d1ba5653788ac0019ced548	958539463	1	main_z	11	main_z	137	stimuli_distractor_diamondtriangles.svg	stimuli_target_squarediamonds.svg	16	yes	0	0	2000
6.6.1	win	2022-12-14	14:44:41	14:54:52	609376	5d1ba5653788ac0019ced548	958539463	1	main_z	11	advance_on_keypress_ZEE	138	stimuli_distractor_diamondtriangles.svg	stimuli_target_squarediamonds.svg	16	yes	57	0	371
6.6.1	win	2022-12-14	14:44:41	14:54:54	611190	5d1ba5653788ac0019ced548	958539463	1	main_z	11	main_z	139	stimuli_target_diamondsquares.svg	stimuli_distractor_diamondtriangles.svg	24	yes	44	1	797
6.6.1	win	2022-12-14	14:44:41	14:54:54	611190	5d1ba5653788ac0019ced548	958539463	1	main_z	11	advance_on_keypress_ZEE	140	stimuli_target_diamondsquares.svg	stimuli_distractor_diamondtriangles.svg	24	yes	57	0	245
6.6.1	win	2022-12-14	14:44:41	14:54:57	614077	5d1ba5653788ac0019ced548	958539463	1	main_z	11	main_z	141	stimuli_distractor_trianglediamonds.svg	stimuli_distractor_trianglediamonds.svg	33	no	0	1	2000
6.6.1	win	2022-12-14	14:44:41	14:54:57	614077	5d1ba5653788ac0019ced548	958539463	1	main_z	11	advance_on_keypress_ZEE	142	stimuli_distractor_trianglediamonds.svg	stimuli_distractor_trianglediamonds.svg	33	no	57	0	556
6.6.1	win	2022-12-14	14:44:41	14:54:59	615659	5d1ba5653788ac0019ced548	958539463	1	main_z	11	main_z	143	stimuli_distractor_diamondtriangles.svg	stimuli_target_trianglecircles.svg	29	yes	44	1	375
6.6.1	win	2022-12-14	14:44:41	14:54:59	615659	5d1ba5653788ac0019ced548	958539463	1	main_z	11	advance_on_keypress_ZEE	144	stimuli_distractor_diamondtriangles.svg	stimuli_target_trianglecircles.svg	29	yes	57	0	158
6.6.1	win	2022-12-14	14:44:41	14:55:00	617041	5d1ba5653788ac0019ced548	958539463	1	main_z	11	main_z	145	stimuli_target_squaretriangles.svg	stimuli_distractor_diamondtriangles.svg	7	yes	44	1	580
6.6.1	win	2022-12-14	14:44:41	14:55:00	617041	5d1ba5653788ac0019ced548	958539463	1	main_z	11	advance_on_keypress_ZEE	146	stimuli_target_squaretriangles.svg	stimuli_distractor_diamondtriangles.svg	7	yes	57	0	145
6.6.1	win	2022-12-14	14:44:41	14:55:01	618448	5d1ba5653788ac0019ced548	958539463	1	main_z	11	main_z	147	stimuli_target_circlediamonds.svg	stimuli_distractor_diamondtriangles.svg	6	yes	44	1	620
6.6.1	win	2022-12-14	14:44:41	14:55:01	618448	5d1ba5653788ac0019ced548	958539463	1	main_z	11	advance_on_keypress_ZEE	148	stimuli_target_circlediamonds.svg	stimuli_distractor_diamondtriangles.svg	6	yes	57	0	91
6.6.1	win	2022-12-14	14:44:41	14:55:03	619814	5d1ba5653788ac0019ced548	958539463	1	main_z	11	main_z	149	stimuli_distractor_diamondtriangles.svg	stimuli_target_trianglesquares.svg	30	yes	44	1	636
6.6.1	win	2022-12-14	14:44:41	14:55:03	619814	5d1ba5653788ac0019ced548	958539463	1	main_z	11	advance_on_keypress_ZEE	150	stimuli_distractor_diamondtriangles.svg	stimuli_target_trianglesquares.svg	30	yes	57	0	92
6.6.1	win	2022-12-14	14:44:41	14:55:04	621107	5d1ba5653788ac0019ced548	958539463	1	main_z	11	main_z	151	stimuli_distractor_diamondtriangles.svg	stimuli_target_diamondcircles.svg	31	yes	44	1	564
6.6.1	win	2022-12-14	14:44:41	14:55:04	621107	5d1ba5653788ac0019ced548	958539463	1	main_z	11	advance_on_keypress_ZEE	152	stimuli_distractor_diamondtriangles.svg	stimuli_target_diamondcircles.svg	31	yes	57	0	224
6.6.1	win	2022-12-14	14:44:41	14:55:05	622493	5d1ba5653788ac0019ced548	958539463	1	main_z	11	main_z	153	stimuli_target_trianglesquares.svg	stimuli_distractor_diamondtriangles.svg	22	yes	44	1	513
6.6.1	win	2022-12-14	14:44:41	14:55:05	622493	5d1ba5653788ac0019ced548	958539463	1	main_z	11	advance_on_keypress_ZEE	154	stimuli_target_trianglesquares.svg	stimuli_distractor_diamondtriangles.svg	22	yes	57	0	85
6.6.1	win	2022-12-14	14:44:41	14:55:07	623631	5d1ba5653788ac0019ced548	958539463	1	main_z	11	main_z	155	stimuli_distractor_trianglediamonds.svg	stimuli_target_trianglesquares.svg	26	yes	44	1	404
6.6.1	win	2022-12-14	14:44:41	14:55:07	623631	5d1ba5653788ac0019ced548	958539463	1	main_z	11	advance_on_keypress_ZEE	156	stimuli_distractor_trianglediamonds.svg	stimuli_target_trianglesquares.svg	26	yes	57	0	99
6.6.1	win	2022-12-14	14:44:41	14:55:08	624821	5d1ba5653788ac0019ced548	958539463	1	main_z	11	main_z	157	stimuli_distractor_diamondtriangles.svg	stimuli_distractor_trianglediamonds.svg	38	no	44	0	442
6.6.1	win	2022-12-14	14:44:41	14:55:08	624821	5d1ba5653788ac0019ced548	958539463	1	main_z	11	advance_on_keypress_ZEE	158	stimuli_distractor_diamondtriangles.svg	stimuli_distractor_trianglediamonds.svg	38	no	57	0	152
6.6.1	win	2022-12-14	14:44:41	14:55:09	626097	5d1ba5653788ac0019ced548	958539463	1	main_z	11	main_z	159	stimuli_target_diamondcircles.svg	stimuli_distractor_trianglediamonds.svg	19	yes	44	1	487
6.6.1	win	2022-12-14	14:44:41	14:55:09	626097	5d1ba5653788ac0019ced548	958539463	1	main_z	11	advance_on_keypress_ZEE	160	stimuli_target_diamondcircles.svg	stimuli_distractor_trianglediamonds.svg	19	yes	57	0	86