build	computer.platform	date	time	timestamp	time_elapsed_ms	subject	group	session	blockcode	blocknum	trialcode	trialnum	stimulus_left	stimulus_right	stim_index	target_present	response	correct	latency
6.6.1	and	2022-12-15	01:55:02	02:09:00	825013	61612338ddccab2e68b3e3cc	215228705	1	practice_slash	5	practice_slash	1	stimuli_distractor_diamondtriangles.svg	stimuli_target_circletriangles.svg	7	yes	0	0	2000
6.6.1	and	2022-12-15	01:55:02	02:09:00	825013	61612338ddccab2e68b3e3cc	215228705	1	practice_slash	5	advance_on_keypress_SLASH	2	stimuli_distractor_diamondtriangles.svg	stimuli_target_circletriangles.svg	7	yes	57	0	3969
6.6.1	and	2022-12-15	01:55:02	02:09:06	831148	61612338ddccab2e68b3e3cc	215228705	1	practice_slash	5	practice_slash	3	stimuli_distractor_diamondtriangles.svg	stimuli_target_trianglecircles.svg	9	yes	53	1	451
6.6.1	and	2022-12-15	01:55:02	02:09:06	831148	61612338ddccab2e68b3e3cc	215228705	1	practice_slash	5	advance_on_keypress_SLASH	4	stimuli_distractor_diamondtriangles.svg	stimuli_target_trianglecircles.svg	9	yes	57	0	3202
6.6.1	and	2022-12-15	01:55:02	02:09:12	836548	61612338ddccab2e68b3e3cc	215228705	1	practice_slash	5	practice_slash	5	stimuli_distractor_trianglediamonds.svg	stimuli_target_circlediamonds.svg	10	yes	53	1	457
6.6.1	and	2022-12-15	01:55:02	02:09:12	836548	61612338ddccab2e68b3e3cc	215228705	1	practice_slash	5	advance_on_keypress_SLASH	6	stimuli_distractor_trianglediamonds.svg	stimuli_target_circlediamonds.svg	10	yes	57	0	1498
6.6.1	and	2022-12-15	01:55:02	02:09:15	840176	61612338ddccab2e68b3e3cc	215228705	1	practice_slash	5	practice_slash	7	stimuli_target_squarediamonds.svg	stimuli_distractor_trianglediamonds.svg	5	yes	53	1	399
6.6.1	and	2022-12-15	01:55:02	02:09:15	840176	61612338ddccab2e68b3e3cc	215228705	1	practice_slash	5	advance_on_keypress_SLASH	8	stimuli_target_squarediamonds.svg	stimuli_distractor_trianglediamonds.svg	5	yes	57	0	1320
6.6.1	and	2022-12-15	01:55:02	02:09:19	843573	61612338ddccab2e68b3e3cc	215228705	1	practice_slash	5	practice_slash	9	stimuli_target_diamondsquares.svg	stimuli_distractor_diamondtriangles.svg	3	yes	53	1	350
6.6.1	and	2022-12-15	01:55:02	02:09:19	843573	61612338ddccab2e68b3e3cc	215228705	1	practice_slash	5	advance_on_keypress_SLASH	10	stimuli_target_diamondsquares.svg	stimuli_distractor_diamondtriangles.svg	3	yes	57	0	828
6.6.1	and	2022-12-15	01:55:02	02:09:23	848118	61612338ddccab2e68b3e3cc	215228705	1	practice_slash	5	practice_slash	11	stimuli_distractor_diamondtriangles.svg	stimuli_distractor_trianglediamonds.svg	14	no	0	1	2000
6.6.1	and	2022-12-15	01:55:02	02:09:23	848118	61612338ddccab2e68b3e3cc	215228705	1	practice_slash	5	advance_on_keypress_SLASH	12	stimuli_distractor_diamondtriangles.svg	stimuli_distractor_trianglediamonds.svg	14	no	57	0	1310
6.6.1	and	2022-12-15	01:55:02	02:09:27	851768	61612338ddccab2e68b3e3cc	215228705	1	practice_slash	5	practice_slash	13	stimuli_target_squarediamonds.svg	stimuli_distractor_diamondtriangles.svg	2	yes	53	1	643
6.6.1	and	2022-12-15	01:55:02	02:09:27	851768	61612338ddccab2e68b3e3cc	215228705	1	practice_slash	5	advance_on_keypress_SLASH	14	stimuli_target_squarediamonds.svg	stimuli_distractor_diamondtriangles.svg	2	yes	57	0	1486
6.6.1	and	2022-12-15	01:55:02	02:09:32	856970	61612338ddccab2e68b3e3cc	215228705	1	practice_slash	5	practice_slash	15	stimuli_distractor_trianglediamonds.svg	stimuli_distractor_trianglediamonds.svg	15	no	0	1	2000
6.6.1	and	2022-12-15	01:55:02	02:09:32	856970	61612338ddccab2e68b3e3cc	215228705	1	practice_slash	5	advance_on_keypress_SLASH	16	stimuli_distractor_trianglediamonds.svg	stimuli_distractor_trianglediamonds.svg	15	no	57	0	631616
6.6.1	and	2022-12-15	01:55:02	02:20:07	1492304	61612338ddccab2e68b3e3cc	215228705	1	practice_slash	5	practice_slash	17	stimuli_distractor_diamondtriangles.svg	stimuli_distractor_diamondtriangles.svg	13	no	0	1	2000
6.6.1	and	2022-12-15	01:55:02	02:20:07	1492304	61612338ddccab2e68b3e3cc	215228705	1	practice_slash	5	advance_on_keypress_SLASH	18	stimuli_distractor_diamondtriangles.svg	stimuli_distractor_diamondtriangles.svg	13	no	57	0	3526
6.6.1	and	2022-12-15	01:55:02	02:20:13	1497928	61612338ddccab2e68b3e3cc	215228705	1	practice_slash	5	practice_slash	19	stimuli_distractor_diamondtriangles.svg	stimuli_target_diamondcircles.svg	8	yes	53	1	366
6.6.1	and	2022-12-15	01:55:02	02:20:13	1497928	61612338ddccab2e68b3e3cc	215228705	1	practice_slash	5	advance_on_keypress_SLASH	20	stimuli_distractor_diamondtriangles.svg	stimuli_target_diamondcircles.svg	8	yes	57	0	3019
6.6.1	and	2022-12-15	01:55:02	02:20:18	1502928	61612338ddccab2e68b3e3cc	215228705	1	practice_slash	5	practice_slash	21	stimuli_target_circlediamonds.svg	stimuli_distractor_diamondtriangles.svg	1	yes	53	1	287
6.6.1	and	2022-12-15	01:55:02	02:20:18	1502928	61612338ddccab2e68b3e3cc	215228705	1	practice_slash	5	advance_on_keypress_SLASH	22	stimuli_target_circlediamonds.svg	stimuli_distractor_diamondtriangles.svg	1	yes	57	0	16337
6.6.1	and	2022-12-15	01:55:02	02:20:36	1521104	61612338ddccab2e68b3e3cc	215228705	1	practice_slash	5	practice_slash	23	stimuli_target_diamondsquares.svg	stimuli_distractor_trianglediamonds.svg	6	yes	53	1	132
6.6.1	and	2022-12-15	01:55:02	02:20:36	1521104	61612338ddccab2e68b3e3cc	215228705	1	practice_slash	5	advance_on_keypress_SLASH	24	stimuli_target_diamondsquares.svg	stimuli_distractor_trianglediamonds.svg	6	yes	57	0	1417
6.6.1	and	2022-12-15	01:55:02	02:20:41	1525715	61612338ddccab2e68b3e3cc	215228705	1	practice_slash	5	practice_slash	25	stimuli_distractor_trianglediamonds.svg	stimuli_target_squarediamonds.svg	11	yes	53	1	1462
6.6.1	and	2022-12-15	01:55:02	02:20:41	1525715	61612338ddccab2e68b3e3cc	215228705	1	practice_slash	5	advance_on_keypress_SLASH	26	stimuli_distractor_trianglediamonds.svg	stimuli_target_squarediamonds.svg	11	yes	57	0	882
6.6.1	and	2022-12-15	01:55:02	02:20:44	1528788	61612338ddccab2e68b3e3cc	215228705	1	practice_slash	5	practice_slash	27	stimuli_distractor_trianglediamonds.svg	stimuli_distractor_diamondtriangles.svg	16	no	53	0	491
6.6.1	and	2022-12-15	01:55:02	02:20:44	1528788	61612338ddccab2e68b3e3cc	215228705	1	practice_slash	5	advance_on_keypress_SLASH	28	stimuli_distractor_trianglediamonds.svg	stimuli_distractor_diamondtriangles.svg	16	no	57	0	872
6.6.1	and	2022-12-15	01:55:02	02:20:47	1531822	61612338ddccab2e68b3e3cc	215228705	1	practice_slash	5	practice_slash	29	stimuli_target_circlediamonds.svg	stimuli_distractor_trianglediamonds.svg	4	yes	53	1	454
6.6.1	and	2022-12-15	01:55:02	02:20:47	1531822	61612338ddccab2e68b3e3cc	215228705	1	practice_slash	5	advance_on_keypress_SLASH	30	stimuli_target_circlediamonds.svg	stimuli_distractor_trianglediamonds.svg	4	yes	57	0	2212
6.6.1	and	2022-12-15	01:55:02	02:20:51	1536244	61612338ddccab2e68b3e3cc	215228705	1	practice_slash	5	practice_slash	31	stimuli_distractor_trianglediamonds.svg	stimuli_target_diamondcircles.svg	12	yes	53	1	496
6.6.1	and	2022-12-15	01:55:02	02:20:51	1536244	61612338ddccab2e68b3e3cc	215228705	1	practice_slash	5	advance_on_keypress_SLASH	32	stimuli_distractor_trianglediamonds.svg	stimuli_target_diamondcircles.svg	12	yes	57	0	17523
6.6.1	and	2022-12-15	01:55:02	02:21:12	1556892	61612338ddccab2e68b3e3cc	215228705	1	main_slash	7	main_slash	1	stimuli_distractor_diamondtriangles.svg	stimuli_distractor_diamondtriangles.svg	40	no	53	0	1237
6.6.1	and	2022-12-15	01:55:02	02:21:12	1556892	61612338ddccab2e68b3e3cc	215228705	1	main_slash	7	advance_on_keypress_SLASH	2	stimuli_distractor_diamondtriangles.svg	stimuli_distractor_diamondtriangles.svg	40	no	57	0	50482
6.6.1	and	2022-12-15	01:55:02	02:22:04	1608489	61612338ddccab2e68b3e3cc	215228705	1	main_slash	7	main_slash	3	stimuli_target_diamondsquares.svg	stimuli_distractor_trianglediamonds.svg	20	yes	53	1	393
6.6.1	and	2022-12-15	01:55:02	02:22:04	1608489	61612338ddccab2e68b3e3cc	215228705	1	main_slash	7	advance_on_keypress_SLASH	4	stimuli_target_diamondsquares.svg	stimuli_distractor_trianglediamonds.svg	20	yes	57	0	6623
6.6.1	and	2022-12-15	01:55:02	02:22:11	1616211	61612338ddccab2e68b3e3cc	215228705	1	main_slash	7	main_slash	5	stimuli_target_trianglesquares.svg	stimuli_distractor_diamondtriangles.svg	22	yes	53	1	389
6.6.1	and	2022-12-15	01:55:02	02:22:11	1616211	61612338ddccab2e68b3e3cc	215228705	1	main_slash	7	advance_on_keypress_SLASH	6	stimuli_target_trianglesquares.svg	stimuli_distractor_diamondtriangles.svg	22	yes	57	0	1369
6.6.1	and	2022-12-15	01:55:02	02:22:14	1618722	61612338ddccab2e68b3e3cc	215228705	1	main_slash	7	main_slash	7	stimuli_distractor_trianglediamonds.svg	stimuli_target_diamondcircles.svg	27	yes	53	1	427
6.6.1	and	2022-12-15	01:55:02	02:22:14	1618722	61612338ddccab2e68b3e3cc	215228705	1	main_slash	7	advance_on_keypress_SLASH	8	stimuli_distractor_trianglediamonds.svg	stimuli_target_diamondcircles.svg	27	yes	57	0	762
6.6.1	and	2022-12-15	01:55:02	02:22:16	1620651	61612338ddccab2e68b3e3cc	215228705	1	main_slash	7	main_slash	9	stimuli_target_trianglecircles.svg	stimuli_distractor_diamondtriangles.svg	21	yes	53	1	453
6.6.1	and	2022-12-15	01:55:02	02:22:16	1620651	61612338ddccab2e68b3e3cc	215228705	1	main_slash	7	advance_on_keypress_SLASH	10	stimuli_target_trianglecircles.svg	stimuli_distractor_diamondtriangles.svg	21	yes	57	0	832
6.6.1	and	2022-12-15	01:55:02	02:22:18	1622751	61612338ddccab2e68b3e3cc	215228705	1	main_slash	7	main_slash	11	stimuli_distractor_diamondtriangles.svg	stimuli_target_trianglesquares.svg	30	yes	53	1	524
6.6.1	and	2022-12-15	01:55:02	02:22:18	1622751	61612338ddccab2e68b3e3cc	215228705	1	main_slash	7	advance_on_keypress_SLASH	12	stimuli_distractor_diamondtriangles.svg	stimuli_target_trianglesquares.svg	30	yes	57	0	26770
6.6.1	and	2022-12-15	01:55:02	02:22:46	1650666	61612338ddccab2e68b3e3cc	215228705	1	main_slash	7	main_slash	13	stimuli_distractor_trianglediamonds.svg	stimuli_target_trianglecircles.svg	25	yes	53	1	429
6.6.1	and	2022-12-15	01:55:02	02:22:46	1650666	61612338ddccab2e68b3e3cc	215228705	1	main_slash	7	advance_on_keypress_SLASH	14	stimuli_distractor_trianglediamonds.svg	stimuli_target_trianglecircles.svg	25	yes	57	0	644
6.6.1	and	2022-12-15	01:55:02	02:22:47	1652384	61612338ddccab2e68b3e3cc	215228705	1	main_slash	7	main_slash	15	stimuli_target_trianglesquares.svg	stimuli_distractor_trianglediamonds.svg	18	yes	53	1	343
6.6.1	and	2022-12-15	01:55:02	02:22:47	1652384	61612338ddccab2e68b3e3cc	215228705	1	main_slash	7	advance_on_keypress_SLASH	16	stimuli_target_trianglesquares.svg	stimuli_distractor_trianglediamonds.svg	18	yes	57	0	600
6.6.1	and	2022-12-15	01:55:02	02:22:50	1655064	61612338ddccab2e68b3e3cc	215228705	1	main_slash	7	main_slash	17	stimuli_target_squarediamonds.svg	stimuli_distractor_trianglediamonds.svg	4	yes	53	1	1364
6.6.1	and	2022-12-15	01:55:02	02:22:50	1655064	61612338ddccab2e68b3e3cc	215228705	1	main_slash	7	advance_on_keypress_SLASH	18	stimuli_target_squarediamonds.svg	stimuli_distractor_trianglediamonds.svg	4	yes	57	0	1083
6.6.1	and	2022-12-15	01:55:02	02:22:52	1657165	61612338ddccab2e68b3e3cc	215228705	1	main_slash	7	main_slash	19	stimuli_distractor_diamondtriangles.svg	stimuli_distractor_trianglediamonds.svg	38	no	53	0	298
6.6.1	and	2022-12-15	01:55:02	02:22:52	1657165	61612338ddccab2e68b3e3cc	215228705	1	main_slash	7	advance_on_keypress_SLASH	20	stimuli_distractor_diamondtriangles.svg	stimuli_distractor_trianglediamonds.svg	38	no	57	0	772
6.6.1	and	2022-12-15	01:55:02	02:22:54	1659063	61612338ddccab2e68b3e3cc	215228705	1	main_slash	7	main_slash	21	stimuli_distractor_diamondtriangles.svg	stimuli_target_squaretriangles.svg	15	yes	53	1	426
6.6.1	and	2022-12-15	01:55:02	02:22:54	1659063	61612338ddccab2e68b3e3cc	215228705	1	main_slash	7	advance_on_keypress_SLASH	22	stimuli_distractor_diamondtriangles.svg	stimuli_target_squaretriangles.svg	15	yes	57	0	2120
6.6.1	and	2022-12-15	01:55:02	02:22:57	1662231	61612338ddccab2e68b3e3cc	215228705	1	main_slash	7	main_slash	23	stimuli_target_diamondcircles.svg	stimuli_distractor_trianglediamonds.svg	19	yes	53	1	317
6.6.1	and	2022-12-15	01:55:02	02:22:57	1662231	61612338ddccab2e68b3e3cc	215228705	1	main_slash	7	advance_on_keypress_SLASH	24	stimuli_target_diamondcircles.svg	stimuli_distractor_trianglediamonds.svg	19	yes	57	0	1854
6.6.1	and	2022-12-15	01:55:02	02:23:00	1665130	61612338ddccab2e68b3e3cc	215228705	1	main_slash	7	main_slash	25	stimuli_target_squarediamonds.svg	stimuli_distractor_diamondtriangles.svg	8	yes	53	1	318
6.6.1	and	2022-12-15	01:55:02	02:23:00	1665130	61612338ddccab2e68b3e3cc	215228705	1	main_slash	7	advance_on_keypress_SLASH	26	stimuli_target_squarediamonds.svg	stimuli_distractor_diamondtriangles.svg	8	yes	57	0	129926
6.6.1	and	2022-12-15	01:55:02	02:25:13	1797802	61612338ddccab2e68b3e3cc	215228705	1	main_slash	7	main_slash	27	stimuli_distractor_trianglediamonds.svg	stimuli_distractor_trianglediamonds.svg	34	no	0	1	2000
6.6.1	and	2022-12-15	01:55:02	02:25:13	1797802	61612338ddccab2e68b3e3cc	215228705	1	main_slash	7	advance_on_keypress_SLASH	28	stimuli_distractor_trianglediamonds.svg	stimuli_distractor_trianglediamonds.svg	34	no	57	0	657
6.6.1	and	2022-12-15	01:55:02	02:25:14	1799371	61612338ddccab2e68b3e3cc	215228705	1	main_slash	7	main_slash	29	stimuli_distractor_trianglediamonds.svg	stimuli_distractor_diamondtriangles.svg	35	no	53	0	204
6.6.1	and	2022-12-15	01:55:02	02:25:14	1799371	61612338ddccab2e68b3e3cc	215228705	1	main_slash	7	advance_on_keypress_SLASH	30	stimuli_distractor_trianglediamonds.svg	stimuli_distractor_diamondtriangles.svg	35	no	57	0	622
6.6.1	and	2022-12-15	01:55:02	02:25:18	1802728	61612338ddccab2e68b3e3cc	215228705	1	main_slash	7	main_slash	31	stimuli_distractor_trianglediamonds.svg	stimuli_target_trianglesquares.svg	26	yes	0	0	2000
6.6.1	and	2022-12-15	01:55:02	02:25:18	1802728	61612338ddccab2e68b3e3cc	215228705	1	main_slash	7	advance_on_keypress_SLASH	32	stimuli_distractor_trianglediamonds.svg	stimuli_target_trianglesquares.svg	26	yes	57	0	84782
6.6.1	and	2022-12-15	01:55:02	02:26:44	1888672	61612338ddccab2e68b3e3cc	215228705	1	main_slash	7	main_slash	33	stimuli_target_circlediamonds.svg	stimuli_distractor_trianglediamonds.svg	2	yes	53	1	463
6.6.1	and	2022-12-15	01:55:02	02:26:44	1888672	61612338ddccab2e68b3e3cc	215228705	1	main_slash	7	advance_on_keypress_SLASH	34	stimuli_target_circlediamonds.svg	stimuli_distractor_trianglediamonds.svg	2	yes	57	0	679
6.6.1	and	2022-12-15	01:55:02	02:26:47	1891584	61612338ddccab2e68b3e3cc	215228705	1	main_slash	7	main_slash	35	stimuli_target_circletriangles.svg	stimuli_distractor_diamondtriangles.svg	5	yes	53	1	1486
6.6.1	and	2022-12-15	01:55:02	02:26:47	1891584	61612338ddccab2e68b3e3cc	215228705	1	main_slash	7	advance_on_keypress_SLASH	36	stimuli_target_circletriangles.svg	stimuli_distractor_diamondtriangles.svg	5	yes	57	0	673
6.6.1	and	2022-12-15	01:55:02	02:26:48	1893239	61612338ddccab2e68b3e3cc	215228705	1	main_slash	7	main_slash	37	stimuli_distractor_trianglediamonds.svg	stimuli_distractor_trianglediamonds.svg	33	no	53	0	270
6.6.1	and	2022-12-15	01:55:02	02:26:48	1893239	61612338ddccab2e68b3e3cc	215228705	1	main_slash	7	advance_on_keypress_SLASH	38	stimuli_distractor_trianglediamonds.svg	stimuli_distractor_trianglediamonds.svg	33	no	57	0	1176
6.6.1	and	2022-12-15	01:55:02	02:26:51	1895668	61612338ddccab2e68b3e3cc	215228705	1	main_slash	7	main_slash	39	stimuli_target_circletriangles.svg	stimuli_distractor_trianglediamonds.svg	1	yes	53	1	520
6.6.1	and	2022-12-15	01:55:02	02:26:51	1895668	61612338ddccab2e68b3e3cc	215228705	1	main_slash	7	advance_on_keypress_SLASH	40	stimuli_target_circletriangles.svg	stimuli_distractor_trianglediamonds.svg	1	yes	57	0	82688
6.6.1	and	2022-12-15	01:55:02	02:28:15	1980055	61612338ddccab2e68b3e3cc	215228705	1	main_slash	7	main_slash	41	stimuli_distractor_diamondtriangles.svg	stimuli_target_squarediamonds.svg	16	yes	53	1	966
6.6.1	and	2022-12-15	01:55:02	02:28:15	1980055	61612338ddccab2e68b3e3cc	215228705	1	main_slash	7	advance_on_keypress_SLASH	42	stimuli_distractor_diamondtriangles.svg	stimuli_target_squarediamonds.svg	16	yes	57	0	765
6.6.1	and	2022-12-15	01:55:02	02:28:17	1982011	61612338ddccab2e68b3e3cc	215228705	1	main_slash	7	main_slash	43	stimuli_target_squaretriangles.svg	stimuli_distractor_trianglediamonds.svg	3	yes	53	1	479
6.6.1	and	2022-12-15	01:55:02	02:28:17	1982011	61612338ddccab2e68b3e3cc	215228705	1	main_slash	7	advance_on_keypress_SLASH	44	stimuli_target_squaretriangles.svg	stimuli_distractor_trianglediamonds.svg	3	yes	57	0	567
6.6.1	and	2022-12-15	01:55:02	02:28:19	1984393	61612338ddccab2e68b3e3cc	215228705	1	main_slash	7	main_slash	45	stimuli_distractor_trianglediamonds.svg	stimuli_target_squaretriangles.svg	11	yes	53	1	1087
6.6.1	and	2022-12-15	01:55:02	02:28:19	1984393	61612338ddccab2e68b3e3cc	215228705	1	main_slash	7	advance_on_keypress_SLASH	46	stimuli_distractor_trianglediamonds.svg	stimuli_target_squaretriangles.svg	11	yes	57	0	499
6.6.1	and	2022-12-15	01:55:02	02:28:21	1986109	61612338ddccab2e68b3e3cc	215228705	1	main_slash	7	main_slash	47	stimuli_target_circlediamonds.svg	stimuli_distractor_diamondtriangles.svg	6	yes	53	1	494
6.6.1	and	2022-12-15	01:55:02	02:28:21	1986109	61612338ddccab2e68b3e3cc	215228705	1	main_slash	7	advance_on_keypress_SLASH	48	stimuli_target_circlediamonds.svg	stimuli_distractor_diamondtriangles.svg	6	yes	57	0	434
6.6.1	and	2022-12-15	01:55:02	02:28:23	1987773	61612338ddccab2e68b3e3cc	215228705	1	main_slash	7	main_slash	49	stimuli_target_diamondcircles.svg	stimuli_distractor_diamondtriangles.svg	23	yes	53	1	518
6.6.1	and	2022-12-15	01:55:02	02:28:23	1987773	61612338ddccab2e68b3e3cc	215228705	1	main_slash	7	advance_on_keypress_SLASH	50	stimuli_target_diamondcircles.svg	stimuli_distractor_diamondtriangles.svg	23	yes	57	0	3242
6.6.1	and	2022-12-15	01:55:02	02:28:28	1993052	61612338ddccab2e68b3e3cc	215228705	1	main_slash	7	main_slash	51	stimuli_distractor_trianglediamonds.svg	stimuli_target_diamondsquares.svg	28	yes	53	1	1321
6.6.1	and	2022-12-15	01:55:02	02:28:28	1993052	61612338ddccab2e68b3e3cc	215228705	1	main_slash	7	advance_on_keypress_SLASH	52	stimuli_distractor_trianglediamonds.svg	stimuli_target_diamondsquares.svg	28	yes	57	0	1593
6.6.1	and	2022-12-15	01:55:02	02:28:31	1996406	61612338ddccab2e68b3e3cc	215228705	1	main_slash	7	main_slash	53	stimuli_distractor_diamondtriangles.svg	stimuli_target_circlediamonds.svg	14	yes	53	1	1040
6.6.1	and	2022-12-15	01:55:02	02:28:31	1996406	61612338ddccab2e68b3e3cc	215228705	1	main_slash	7	advance_on_keypress_SLASH	54	stimuli_distractor_diamondtriangles.svg	stimuli_target_circlediamonds.svg	14	yes	57	0	926
6.6.1	and	2022-12-15	01:55:02	02:28:34	1998623	61612338ddccab2e68b3e3cc	215228705	1	main_slash	7	main_slash	55	stimuli_target_squaretriangles.svg	stimuli_distractor_diamondtriangles.svg	7	yes	53	1	574
6.6.1	and	2022-12-15	01:55:02	02:28:34	1998623	61612338ddccab2e68b3e3cc	215228705	1	main_slash	7	advance_on_keypress_SLASH	56	stimuli_target_squaretriangles.svg	stimuli_distractor_diamondtriangles.svg	7	yes	57	0	534
6.6.1	and	2022-12-15	01:55:02	02:28:35	2000415	61612338ddccab2e68b3e3cc	215228705	1	main_slash	7	main_slash	57	stimuli_distractor_trianglediamonds.svg	stimuli_target_squarediamonds.svg	12	yes	53	1	517
6.6.1	and	2022-12-15	01:55:02	02:28:35	2000415	61612338ddccab2e68b3e3cc	215228705	1	main_slash	7	advance_on_keypress_SLASH	58	stimuli_distractor_trianglediamonds.svg	stimuli_target_squarediamonds.svg	12	yes	57	0	537
6.6.1	and	2022-12-15	01:55:02	02:28:37	2002312	61612338ddccab2e68b3e3cc	215228705	1	main_slash	7	main_slash	59	stimuli_distractor_trianglediamonds.svg	stimuli_target_circlediamonds.svg	10	yes	53	1	646
6.6.1	and	2022-12-15	01:55:02	02:28:37	2002312	61612338ddccab2e68b3e3cc	215228705	1	main_slash	7	advance_on_keypress_SLASH	60	stimuli_distractor_trianglediamonds.svg	stimuli_target_circlediamonds.svg	10	yes	57	0	436
6.6.1	and	2022-12-15	01:55:02	02:28:39	2004055	61612338ddccab2e68b3e3cc	215228705	1	main_slash	7	main_slash	61	stimuli_distractor_trianglediamonds.svg	stimuli_distractor_diamondtriangles.svg	36	no	53	0	598
6.6.1	and	2022-12-15	01:55:02	02:28:39	2004055	61612338ddccab2e68b3e3cc	215228705	1	main_slash	7	advance_on_keypress_SLASH	62	stimuli_distractor_trianglediamonds.svg	stimuli_distractor_diamondtriangles.svg	36	no	57	0	2151
6.6.1	and	2022-12-15	01:55:02	02:28:42	2007167	61612338ddccab2e68b3e3cc	215228705	1	main_slash	7	main_slash	63	stimuli_distractor_diamondtriangles.svg	stimuli_target_circletriangles.svg	13	yes	53	1	244
6.6.1	and	2022-12-15	01:55:02	02:28:42	2007167	61612338ddccab2e68b3e3cc	215228705	1	main_slash	7	advance_on_keypress_SLASH	64	stimuli_distractor_diamondtriangles.svg	stimuli_target_circletriangles.svg	13	yes	57	0	1160
6.6.1	and	2022-12-15	01:55:02	02:28:45	2009612	61612338ddccab2e68b3e3cc	215228705	1	main_slash	7	main_slash	65	stimuli_distractor_trianglediamonds.svg	stimuli_target_circletriangles.svg	9	yes	53	1	527
6.6.1	and	2022-12-15	01:55:02	02:28:45	2009612	61612338ddccab2e68b3e3cc	215228705	1	main_slash	7	advance_on_keypress_SLASH	66	stimuli_distractor_trianglediamonds.svg	stimuli_target_circletriangles.svg	9	yes	57	0	393
6.6.1	and	2022-12-15	01:55:02	02:28:48	2012726	61612338ddccab2e68b3e3cc	215228705	1	main_slash	7	main_slash	67	stimuli_distractor_diamondtriangles.svg	stimuli_target_trianglecircles.svg	29	yes	0	0	2000
6.6.1	and	2022-12-15	01:55:02	02:28:48	2012726	61612338ddccab2e68b3e3cc	215228705	1	main_slash	7	advance_on_keypress_SLASH	68	stimuli_distractor_diamondtriangles.svg	stimuli_target_trianglecircles.svg	29	yes	57	0	7158
6.6.1	and	2022-12-15	01:55:02	02:28:56	2021353	61612338ddccab2e68b3e3cc	215228705	1	main_slash	7	main_slash	69	stimuli_target_trianglecircles.svg	stimuli_distractor_trianglediamonds.svg	17	yes	53	1	768
6.6.1	and	2022-12-15	01:55:02	02:28:56	2021353	61612338ddccab2e68b3e3cc	215228705	1	main_slash	7	advance_on_keypress_SLASH	70	stimuli_target_trianglecircles.svg	stimuli_distractor_trianglediamonds.svg	17	yes	57	0	2577
6.6.1	and	2022-12-15	01:55:02	02:29:02	2026641	61612338ddccab2e68b3e3cc	215228705	1	main_slash	7	main_slash	71	stimuli_distractor_diamondtriangles.svg	stimuli_distractor_trianglediamonds.svg	37	no	0	1	2000
6.6.1	and	2022-12-15	01:55:02	02:29:02	2026641	61612338ddccab2e68b3e3cc	215228705	1	main_slash	7	advance_on_keypress_SLASH	72	stimuli_distractor_diamondtriangles.svg	stimuli_distractor_trianglediamonds.svg	37	no	57	0	176689
6.6.1	and	2022-12-15	01:55:02	02:31:59	2204447	61612338ddccab2e68b3e3cc	215228705	1	main_slash	7	main_slash	73	stimuli_distractor_diamondtriangles.svg	stimuli_target_diamondcircles.svg	31	yes	53	1	411
6.6.1	and	2022-12-15	01:55:02	02:31:59	2204447	61612338ddccab2e68b3e3cc	215228705	1	main_slash	7	advance_on_keypress_SLASH	74	stimuli_distractor_diamondtriangles.svg	stimuli_target_diamondcircles.svg	31	yes	57	0	467
6.6.1	and	2022-12-15	01:55:02	02:32:02	2206672	61612338ddccab2e68b3e3cc	215228705	1	main_slash	7	main_slash	75	stimuli_target_diamondsquares.svg	stimuli_distractor_diamondtriangles.svg	24	yes	53	1	1046
6.6.1	and	2022-12-15	01:55:02	02:32:02	2206672	61612338ddccab2e68b3e3cc	215228705	1	main_slash	7	advance_on_keypress_SLASH	76	stimuli_target_diamondsquares.svg	stimuli_distractor_diamondtriangles.svg	24	yes	57	0	625
6.6.1	and	2022-12-15	01:55:02	02:32:04	2208538	61612338ddccab2e68b3e3cc	215228705	1	main_slash	7	main_slash	77	stimuli_distractor_diamondtriangles.svg	stimuli_distractor_diamondtriangles.svg	39	no	53	0	517
6.6.1	and	2022-12-15	01:55:02	02:32:04	2208538	61612338ddccab2e68b3e3cc	215228705	1	main_slash	7	advance_on_keypress_SLASH	78	stimuli_distractor_diamondtriangles.svg	stimuli_distractor_diamondtriangles.svg	39	no	57	0	722
6.6.1	and	2022-12-15	01:55:02	02:32:06	2211024	61612338ddccab2e68b3e3cc	215228705	1	main_slash	7	main_slash	79	stimuli_distractor_diamondtriangles.svg	stimuli_target_diamondsquares.svg	32	yes	53	1	1035
6.6.1	and	2022-12-15	01:55:02	02:32:06	2211024	61612338ddccab2e68b3e3cc	215228705	1	main_slash	7	advance_on_keypress_SLASH	80	stimuli_distractor_diamondtriangles.svg	stimuli_target_diamondsquares.svg	32	yes	57	0	492
6.6.1	and	2022-12-15	01:55:02	02:32:08	2212627	61612338ddccab2e68b3e3cc	215228705	1	main_slash	7	main_slash	81	stimuli_target_squaretriangles.svg	stimuli_distractor_trianglediamonds.svg	3	yes	53	1	394
6.6.1	and	2022-12-15	01:55:02	02:32:08	2212627	61612338ddccab2e68b3e3cc	215228705	1	main_slash	7	advance_on_keypress_SLASH	82	stimuli_target_squaretriangles.svg	stimuli_distractor_trianglediamonds.svg	3	yes	57	0	425
6.6.1	and	2022-12-15	01:55:02	02:32:09	2214190	61612338ddccab2e68b3e3cc	215228705	1	main_slash	7	main_slash	83	stimuli_distractor_trianglediamonds.svg	stimuli_distractor_diamondtriangles.svg	36	no	53	0	418
6.6.1	and	2022-12-15	01:55:02	02:32:09	2214190	61612338ddccab2e68b3e3cc	215228705	1	main_slash	7	advance_on_keypress_SLASH	84	stimuli_distractor_trianglediamonds.svg	stimuli_distractor_diamondtriangles.svg	36	no	57	0	659
6.6.1	and	2022-12-15	01:55:02	02:32:11	2216120	61612338ddccab2e68b3e3cc	215228705	1	main_slash	7	main_slash	85	stimuli_distractor_diamondtriangles.svg	stimuli_target_diamondcircles.svg	31	yes	53	1	520
6.6.1	and	2022-12-15	01:55:02	02:32:11	2216120	61612338ddccab2e68b3e3cc	215228705	1	main_slash	7	advance_on_keypress_SLASH	86	stimuli_distractor_diamondtriangles.svg	stimuli_target_diamondcircles.svg	31	yes	57	0	408
6.6.1	and	2022-12-15	01:55:02	02:32:13	2217659	61612338ddccab2e68b3e3cc	215228705	1	main_slash	7	main_slash	87	stimuli_distractor_diamondtriangles.svg	stimuli_distractor_trianglediamonds.svg	38	no	53	0	419
6.6.1	and	2022-12-15	01:55:02	02:32:13	2217659	61612338ddccab2e68b3e3cc	215228705	1	main_slash	7	advance_on_keypress_SLASH	88	stimuli_distractor_diamondtriangles.svg	stimuli_distractor_trianglediamonds.svg	38	no	57	0	719
6.6.1	and	2022-12-15	01:55:02	02:32:16	2221044	61612338ddccab2e68b3e3cc	215228705	1	main_slash	7	main_slash	89	stimuli_distractor_diamondtriangles.svg	stimuli_target_squaretriangles.svg	15	yes	53	1	1949
6.6.1	and	2022-12-15	01:55:02	02:32:16	2221044	61612338ddccab2e68b3e3cc	215228705	1	main_slash	7	advance_on_keypress_SLASH	90	stimuli_distractor_diamondtriangles.svg	stimuli_target_squaretriangles.svg	15	yes	57	0	1618
6.6.1	and	2022-12-15	01:55:02	02:32:19	2223781	61612338ddccab2e68b3e3cc	215228705	1	main_slash	7	main_slash	91	stimuli_distractor_diamondtriangles.svg	stimuli_target_squarediamonds.svg	16	yes	53	1	405
6.6.1	and	2022-12-15	01:55:02	02:32:19	2223781	61612338ddccab2e68b3e3cc	215228705	1	main_slash	7	advance_on_keypress_SLASH	92	stimuli_distractor_diamondtriangles.svg	stimuli_target_squarediamonds.svg	16	yes	57	0	362
6.6.1	and	2022-12-15	01:55:02	02:32:20	2225433	61612338ddccab2e68b3e3cc	215228705	1	main_slash	7	main_slash	93	stimuli_distractor_trianglediamonds.svg	stimuli_target_trianglesquares.svg	26	yes	53	1	585
6.6.1	and	2022-12-15	01:55:02	02:32:20	2225433	61612338ddccab2e68b3e3cc	215228705	1	main_slash	7	advance_on_keypress_SLASH	94	stimuli_distractor_trianglediamonds.svg	stimuli_target_trianglesquares.svg	26	yes	57	0	128
6.6.1	and	2022-12-15	01:55:02	02:32:22	2226814	61612338ddccab2e68b3e3cc	215228705	1	main_slash	7	main_slash	95	stimuli_target_circlediamonds.svg	stimuli_distractor_diamondtriangles.svg	6	yes	53	1	488
6.6.1	and	2022-12-15	01:55:02	02:32:22	2226814	61612338ddccab2e68b3e3cc	215228705	1	main_slash	7	advance_on_keypress_SLASH	96	stimuli_target_circlediamonds.svg	stimuli_distractor_diamondtriangles.svg	6	yes	57	0	585
6.6.1	and	2022-12-15	01:55:02	02:32:23	2228473	61612338ddccab2e68b3e3cc	215228705	1	main_slash	7	main_slash	97	stimuli_target_diamondcircles.svg	stimuli_distractor_diamondtriangles.svg	23	yes	53	1	358
6.6.1	and	2022-12-15	01:55:02	02:32:23	2228473	61612338ddccab2e68b3e3cc	215228705	1	main_slash	7	advance_on_keypress_SLASH	98	stimuli_target_diamondcircles.svg	stimuli_distractor_diamondtriangles.svg	23	yes	57	0	648
6.6.1	and	2022-12-15	01:55:02	02:32:25	2230313	61612338ddccab2e68b3e3cc	215228705	1	main_slash	7	main_slash	99	stimuli_target_circletriangles.svg	stimuli_distractor_diamondtriangles.svg	5	yes	53	1	472
6.6.1	and	2022-12-15	01:55:02	02:32:25	2230313	61612338ddccab2e68b3e3cc	215228705	1	main_slash	7	advance_on_keypress_SLASH	100	stimuli_target_circletriangles.svg	stimuli_distractor_diamondtriangles.svg	5	yes	57	0	47302
6.6.1	and	2022-12-15	01:55:02	02:33:14	2279058	61612338ddccab2e68b3e3cc	215228705	1	main_slash	7	main_slash	101	stimuli_target_trianglesquares.svg	stimuli_distractor_diamondtriangles.svg	22	yes	53	1	706
6.6.1	and	2022-12-15	01:55:02	02:33:14	2279058	61612338ddccab2e68b3e3cc	215228705	1	main_slash	7	advance_on_keypress_SLASH	102	stimuli_target_trianglesquares.svg	stimuli_distractor_diamondtriangles.svg	22	yes	57	0	502
6.6.1	and	2022-12-15	01:55:02	02:33:16	2280798	61612338ddccab2e68b3e3cc	215228705	1	main_slash	7	main_slash	103	stimuli_target_diamondsquares.svg	stimuli_distractor_diamondtriangles.svg	24	yes	53	1	518
6.6.1	and	2022-12-15	01:55:02	02:33:16	2280798	61612338ddccab2e68b3e3cc	215228705	1	main_slash	7	advance_on_keypress_SLASH	104	stimuli_target_diamondsquares.svg	stimuli_distractor_diamondtriangles.svg	24	yes	57	0	446
6.6.1	and	2022-12-15	01:55:02	02:33:17	2282384	61612338ddccab2e68b3e3cc	215228705	1	main_slash	7	main_slash	105	stimuli_target_squarediamonds.svg	stimuli_distractor_trianglediamonds.svg	4	yes	53	1	413
6.6.1	and	2022-12-15	01:55:02	02:33:17	2282384	61612338ddccab2e68b3e3cc	215228705	1	main_slash	7	advance_on_keypress_SLASH	106	stimuli_target_squarediamonds.svg	stimuli_distractor_trianglediamonds.svg	4	yes	57	0	418
6.6.1	and	2022-12-15	01:55:02	02:33:19	2283945	61612338ddccab2e68b3e3cc	215228705	1	main_slash	7	main_slash	107	stimuli_distractor_diamondtriangles.svg	stimuli_target_diamondsquares.svg	32	yes	53	1	437
6.6.1	and	2022-12-15	01:55:02	02:33:19	2283945	61612338ddccab2e68b3e3cc	215228705	1	main_slash	7	advance_on_keypress_SLASH	108	stimuli_distractor_diamondtriangles.svg	stimuli_target_diamondsquares.svg	32	yes	57	0	912
6.6.1	and	2022-12-15	01:55:02	02:33:21	2286008	61612338ddccab2e68b3e3cc	215228705	1	main_slash	7	main_slash	109	stimuli_distractor_trianglediamonds.svg	stimuli_target_squaretriangles.svg	11	yes	53	1	424
6.6.1	and	2022-12-15	01:55:02	02:33:21	2286008	61612338ddccab2e68b3e3cc	215228705	1	main_slash	7	advance_on_keypress_SLASH	110	stimuli_distractor_trianglediamonds.svg	stimuli_target_squaretriangles.svg	11	yes	57	0	804
6.6.1	and	2022-12-15	01:55:02	02:33:23	2288008	61612338ddccab2e68b3e3cc	215228705	1	main_slash	7	main_slash	111	stimuli_distractor_diamondtriangles.svg	stimuli_target_trianglecircles.svg	29	yes	53	1	465
6.6.1	and	2022-12-15	01:55:02	02:33:23	2288008	61612338ddccab2e68b3e3cc	215228705	1	main_slash	7	advance_on_keypress_SLASH	112	stimuli_distractor_diamondtriangles.svg	stimuli_target_trianglecircles.svg	29	yes	57	0	72
6.6.1	and	2022-12-15	01:55:02	02:33:25	2289643	61612338ddccab2e68b3e3cc	215228705	1	main_slash	7	main_slash	113	stimuli_distractor_trianglediamonds.svg	stimuli_target_trianglecircles.svg	25	yes	53	1	837
6.6.1	and	2022-12-15	01:55:02	02:33:25	2289643	61612338ddccab2e68b3e3cc	215228705	1	main_slash	7	advance_on_keypress_SLASH	114	stimuli_distractor_trianglediamonds.svg	stimuli_target_trianglecircles.svg	25	yes	57	0	1229
6.6.1	and	2022-12-15	01:55:02	02:33:27	2292232	61612338ddccab2e68b3e3cc	215228705	1	main_slash	7	main_slash	115	stimuli_target_diamondcircles.svg	stimuli_distractor_trianglediamonds.svg	19	yes	53	1	646
6.6.1	and	2022-12-15	01:55:02	02:33:27	2292232	61612338ddccab2e68b3e3cc	215228705	1	main_slash	7	advance_on_keypress_SLASH	116	stimuli_target_diamondcircles.svg	stimuli_distractor_trianglediamonds.svg	19	yes	57	0	147311
6.6.1	and	2022-12-15	01:55:02	02:35:56	2440888	61612338ddccab2e68b3e3cc	215228705	1	main_slash	7	main_slash	117	stimuli_target_squaretriangles.svg	stimuli_distractor_diamondtriangles.svg	7	yes	53	1	634
6.6.1	and	2022-12-15	01:55:02	02:35:56	2440888	61612338ddccab2e68b3e3cc	215228705	1	main_slash	7	advance_on_keypress_SLASH	118	stimuli_target_squaretriangles.svg	stimuli_distractor_diamondtriangles.svg	7	yes	57	0	581
6.6.1	and	2022-12-15	01:55:02	02:35:58	2442504	61612338ddccab2e68b3e3cc	215228705	1	main_slash	7	main_slash	119	stimuli_target_circletriangles.svg	stimuli_distractor_trianglediamonds.svg	1	yes	53	1	312
6.6.1	and	2022-12-15	01:55:02	02:35:58	2442504	61612338ddccab2e68b3e3cc	215228705	1	main_slash	7	advance_on_keypress_SLASH	120	stimuli_target_circletriangles.svg	stimuli_distractor_trianglediamonds.svg	1	yes	57	0	488
6.6.1	and	2022-12-15	01:55:02	02:35:59	2444342	61612338ddccab2e68b3e3cc	215228705	1	main_slash	7	main_slash	121	stimuli_target_trianglecircles.svg	stimuli_distractor_diamondtriangles.svg	21	yes	53	1	640
6.6.1	and	2022-12-15	01:55:02	02:35:59	2444342	61612338ddccab2e68b3e3cc	215228705	1	main_slash	7	advance_on_keypress_SLASH	122	stimuli_target_trianglecircles.svg	stimuli_distractor_diamondtriangles.svg	21	yes	57	0	492
6.6.1	and	2022-12-15	01:55:02	02:36:01	2445952	61612338ddccab2e68b3e3cc	215228705	1	main_slash	7	main_slash	123	stimuli_distractor_diamondtriangles.svg	stimuli_target_circletriangles.svg	13	yes	53	1	404
6.6.1	and	2022-12-15	01:55:02	02:36:01	2445952	61612338ddccab2e68b3e3cc	215228705	1	main_slash	7	advance_on_keypress_SLASH	124	stimuli_distractor_diamondtriangles.svg	stimuli_target_circletriangles.svg	13	yes	57	0	421
6.6.1	and	2022-12-15	01:55:02	02:36:03	2447603	61612338ddccab2e68b3e3cc	215228705	1	main_slash	7	main_slash	125	stimuli_distractor_trianglediamonds.svg	stimuli_distractor_trianglediamonds.svg	33	no	53	0	528
6.6.1	and	2022-12-15	01:55:02	02:36:03	2447603	61612338ddccab2e68b3e3cc	215228705	1	main_slash	7	advance_on_keypress_SLASH	126	stimuli_distractor_trianglediamonds.svg	stimuli_distractor_trianglediamonds.svg	33	no	57	0	800
6.6.1	and	2022-12-15	01:55:02	02:36:05	2449575	61612338ddccab2e68b3e3cc	215228705	1	main_slash	7	main_slash	127	stimuli_target_circlediamonds.svg	stimuli_distractor_trianglediamonds.svg	2	yes	53	1	465
6.6.1	and	2022-12-15	01:55:02	02:36:05	2449575	61612338ddccab2e68b3e3cc	215228705	1	main_slash	7	advance_on_keypress_SLASH	128	stimuli_target_circlediamonds.svg	stimuli_distractor_trianglediamonds.svg	2	yes	57	0	1747
6.6.1	and	2022-12-15	01:55:02	02:36:08	2453186	61612338ddccab2e68b3e3cc	215228705	1	main_slash	7	main_slash	129	stimuli_target_squarediamonds.svg	stimuli_distractor_diamondtriangles.svg	8	yes	53	1	1125
6.6.1	and	2022-12-15	01:55:02	02:36:08	2453186	61612338ddccab2e68b3e3cc	215228705	1	main_slash	7	advance_on_keypress_SLASH	130	stimuli_target_squarediamonds.svg	stimuli_distractor_diamondtriangles.svg	8	yes	57	0	489
6.6.1	and	2022-12-15	01:55:02	02:36:10	2454895	61612338ddccab2e68b3e3cc	215228705	1	main_slash	7	main_slash	131	stimuli_distractor_diamondtriangles.svg	stimuli_distractor_trianglediamonds.svg	37	no	53	0	509
6.6.1	and	2022-12-15	01:55:02	02:36:10	2454895	61612338ddccab2e68b3e3cc	215228705	1	main_slash	7	advance_on_keypress_SLASH	132	stimuli_distractor_diamondtriangles.svg	stimuli_distractor_trianglediamonds.svg	37	no	57	0	901
6.6.1	and	2022-12-15	01:55:02	02:36:13	2457530	61612338ddccab2e68b3e3cc	215228705	1	main_slash	7	main_slash	133	stimuli_target_trianglecircles.svg	stimuli_distractor_trianglediamonds.svg	17	yes	53	1	1021
6.6.1	and	2022-12-15	01:55:02	02:36:13	2457530	61612338ddccab2e68b3e3cc	215228705	1	main_slash	7	advance_on_keypress_SLASH	134	stimuli_target_trianglecircles.svg	stimuli_distractor_trianglediamonds.svg	17	yes	57	0	2030
6.6.1	and	2022-12-15	01:55:02	02:36:17	2462276	61612338ddccab2e68b3e3cc	215228705	1	main_slash	7	main_slash	135	stimuli_distractor_diamondtriangles.svg	stimuli_target_circlediamonds.svg	14	yes	0	0	2000
6.6.1	and	2022-12-15	01:55:02	02:36:17	2462276	61612338ddccab2e68b3e3cc	215228705	1	main_slash	7	advance_on_keypress_SLASH	136	stimuli_distractor_diamondtriangles.svg	stimuli_target_circlediamonds.svg	14	yes	57	0	3228
6.6.1	and	2022-12-15	01:55:02	02:36:22	2466818	61612338ddccab2e68b3e3cc	215228705	1	main_slash	7	main_slash	137	stimuli_distractor_diamondtriangles.svg	stimuli_distractor_diamondtriangles.svg	40	no	53	0	608
6.6.1	and	2022-12-15	01:55:02	02:36:22	2466818	61612338ddccab2e68b3e3cc	215228705	1	main_slash	7	advance_on_keypress_SLASH	138	stimuli_distractor_diamondtriangles.svg	stimuli_distractor_diamondtriangles.svg	40	no	57	0	1040
6.6.1	and	2022-12-15	01:55:02	02:36:24	2469158	61612338ddccab2e68b3e3cc	215228705	1	main_slash	7	main_slash	139	stimuli_target_diamondsquares.svg	stimuli_distractor_trianglediamonds.svg	20	yes	53	1	574
6.6.1	and	2022-12-15	01:55:02	02:36:24	2469158	61612338ddccab2e68b3e3cc	215228705	1	main_slash	7	advance_on_keypress_SLASH	140	stimuli_target_diamondsquares.svg	stimuli_distractor_trianglediamonds.svg	20	yes	57	0	560
6.6.1	and	2022-12-15	01:55:02	02:36:26	2470892	61612338ddccab2e68b3e3cc	215228705	1	main_slash	7	main_slash	141	stimuli_distractor_trianglediamonds.svg	stimuli_target_circletriangles.svg	9	yes	53	1	453
6.6.1	and	2022-12-15	01:55:02	02:36:26	2470892	61612338ddccab2e68b3e3cc	215228705	1	main_slash	7	advance_on_keypress_SLASH	142	stimuli_distractor_trianglediamonds.svg	stimuli_target_circletriangles.svg	9	yes	57	0	407
6.6.1	and	2022-12-15	01:55:02	02:36:29	2474051	61612338ddccab2e68b3e3cc	215228705	1	main_slash	7	main_slash	143	stimuli_distractor_diamondtriangles.svg	stimuli_distractor_diamondtriangles.svg	39	no	0	1	2000
6.6.1	and	2022-12-15	01:55:02	02:36:29	2474051	61612338ddccab2e68b3e3cc	215228705	1	main_slash	7	advance_on_keypress_SLASH	144	stimuli_distractor_diamondtriangles.svg	stimuli_distractor_diamondtriangles.svg	39	no	57	0	409
6.6.1	and	2022-12-15	01:55:02	02:36:31	2475579	61612338ddccab2e68b3e3cc	215228705	1	main_slash	7	main_slash	145	stimuli_distractor_trianglediamonds.svg	stimuli_target_circlediamonds.svg	10	yes	53	1	413
6.6.1	and	2022-12-15	01:55:02	02:36:31	2475579	61612338ddccab2e68b3e3cc	215228705	1	main_slash	7	advance_on_keypress_SLASH	146	stimuli_distractor_trianglediamonds.svg	stimuli_target_circlediamonds.svg	10	yes	57	0	1383
6.6.1	and	2022-12-15	01:55:02	02:36:33	2478150	61612338ddccab2e68b3e3cc	215228705	1	main_slash	7	main_slash	147	stimuli_distractor_trianglediamonds.svg	stimuli_target_diamondsquares.svg	28	yes	53	1	462
6.6.1	and	2022-12-15	01:55:02	02:36:33	2478150	61612338ddccab2e68b3e3cc	215228705	1	main_slash	7	advance_on_keypress_SLASH	148	stimuli_distractor_trianglediamonds.svg	stimuli_target_diamondsquares.svg	28	yes	57	0	444
6.6.1	and	2022-12-15	01:55:02	02:36:35	2480390	61612338ddccab2e68b3e3cc	215228705	1	main_slash	7	main_slash	149	stimuli_distractor_trianglediamonds.svg	stimuli_distractor_trianglediamonds.svg	34	no	53	0	1080
6.6.1	and	2022-12-15	01:55:02	02:36:35	2480390	61612338ddccab2e68b3e3cc	215228705	1	main_slash	7	advance_on_keypress_SLASH	150	stimuli_distractor_trianglediamonds.svg	stimuli_distractor_trianglediamonds.svg	34	no	57	0	429
6.6.1	and	2022-12-15	01:55:02	02:36:37	2481988	61612338ddccab2e68b3e3cc	215228705	1	main_slash	7	main_slash	151	stimuli_distractor_trianglediamonds.svg	stimuli_target_diamondcircles.svg	27	yes	53	1	436
6.6.1	and	2022-12-15	01:55:02	02:36:37	2481988	61612338ddccab2e68b3e3cc	215228705	1	main_slash	7	advance_on_keypress_SLASH	152	stimuli_distractor_trianglediamonds.svg	stimuli_target_diamondcircles.svg	27	yes	57	0	433
6.6.1	and	2022-12-15	01:55:02	02:36:39	2483809	61612338ddccab2e68b3e3cc	215228705	1	main_slash	7	main_slash	153	stimuli_target_trianglesquares.svg	stimuli_distractor_trianglediamonds.svg	18	yes	53	1	666
6.6.1	and	2022-12-15	01:55:02	02:36:39	2483809	61612338ddccab2e68b3e3cc	215228705	1	main_slash	7	advance_on_keypress_SLASH	154	stimuli_target_trianglesquares.svg	stimuli_distractor_trianglediamonds.svg	18	yes	57	0	328
6.6.1	and	2022-12-15	01:55:02	02:36:41	2485591	61612338ddccab2e68b3e3cc	215228705	1	main_slash	7	main_slash	155	stimuli_distractor_trianglediamonds.svg	stimuli_target_squarediamonds.svg	12	yes	53	1	724
6.6.1	and	2022-12-15	01:55:02	02:36:41	2485591	61612338ddccab2e68b3e3cc	215228705	1	main_slash	7	advance_on_keypress_SLASH	156	stimuli_distractor_trianglediamonds.svg	stimuli_target_squarediamonds.svg	12	yes	57	0	593
6.6.1	and	2022-12-15	01:55:02	02:36:42	2487308	61612338ddccab2e68b3e3cc	215228705	1	main_slash	7	main_slash	157	stimuli_distractor_diamondtriangles.svg	stimuli_target_trianglesquares.svg	30	yes	53	1	397
6.6.1	and	2022-12-15	01:55:02	02:36:42	2487308	61612338ddccab2e68b3e3cc	215228705	1	main_slash	7	advance_on_keypress_SLASH	158	stimuli_distractor_diamondtriangles.svg	stimuli_target_trianglesquares.svg	30	yes	57	0	384
6.6.1	and	2022-12-15	01:55:02	02:36:44	2488932	61612338ddccab2e68b3e3cc	215228705	1	main_slash	7	main_slash	159	stimuli_distractor_trianglediamonds.svg	stimuli_distractor_diamondtriangles.svg	35	no	53	0	529
6.6.1	and	2022-12-15	01:55:02	02:36:44	2488932	61612338ddccab2e68b3e3cc	215228705	1	main_slash	7	advance_on_keypress_SLASH	160	stimuli_distractor_trianglediamonds.svg	stimuli_distractor_diamondtriangles.svg	35	no	57	0	373
6.6.1	and	2022-12-15	01:55:02	02:40:02	2686523	61612338ddccab2e68b3e3cc	215228705	1	practice_z	9	practice_z	1	stimuli_target_squarediamonds.svg	stimuli_distractor_diamondtriangles.svg	2	yes	44	1	519
6.6.1	and	2022-12-15	01:55:02	02:40:02	2686523	61612338ddccab2e68b3e3cc	215228705	1	practice_z	9	advance_on_keypress_ZEE	2	stimuli_target_squarediamonds.svg	stimuli_distractor_diamondtriangles.svg	2	yes	57	0	844
6.6.1	and	2022-12-15	01:55:02	02:40:06	2691094	61612338ddccab2e68b3e3cc	215228705	1	practice_z	9	practice_z	3	stimuli_target_diamondsquares.svg	stimuli_distractor_trianglediamonds.svg	6	yes	0	0	2000
6.6.1	and	2022-12-15	01:55:02	02:40:06	2691094	61612338ddccab2e68b3e3cc	215228705	1	practice_z	9	advance_on_keypress_ZEE	4	stimuli_target_diamondsquares.svg	stimuli_distractor_trianglediamonds.svg	6	yes	57	0	783
6.6.1	and	2022-12-15	01:55:02	02:40:10	2694700	61612338ddccab2e68b3e3cc	215228705	1	practice_z	9	practice_z	5	stimuli_distractor_diamondtriangles.svg	stimuli_target_diamondcircles.svg	8	yes	44	1	1116
6.6.1	and	2022-12-15	01:55:02	02:40:10	2694700	61612338ddccab2e68b3e3cc	215228705	1	practice_z	9	advance_on_keypress_ZEE	6	stimuli_distractor_diamondtriangles.svg	stimuli_target_diamondcircles.svg	8	yes	57	0	615
6.6.1	and	2022-12-15	01:55:02	02:40:12	2697469	61612338ddccab2e68b3e3cc	215228705	1	practice_z	9	practice_z	7	stimuli_target_squarediamonds.svg	stimuli_distractor_trianglediamonds.svg	5	yes	44	1	452
6.6.1	and	2022-12-15	01:55:02	02:40:12	2697469	61612338ddccab2e68b3e3cc	215228705	1	practice_z	9	advance_on_keypress_ZEE	8	stimuli_target_squarediamonds.svg	stimuli_distractor_trianglediamonds.svg	5	yes	57	0	721
6.6.1	and	2022-12-15	01:55:02	02:40:15	2700338	61612338ddccab2e68b3e3cc	215228705	1	practice_z	9	practice_z	9	stimuli_distractor_diamondtriangles.svg	stimuli_target_circletriangles.svg	7	yes	44	1	438
6.6.1	and	2022-12-15	01:55:02	02:40:15	2700338	61612338ddccab2e68b3e3cc	215228705	1	practice_z	9	advance_on_keypress_ZEE	10	stimuli_distractor_diamondtriangles.svg	stimuli_target_circletriangles.svg	7	yes	57	0	908
6.6.1	and	2022-12-15	01:55:02	02:40:18	2703345	61612338ddccab2e68b3e3cc	215228705	1	practice_z	9	practice_z	11	stimuli_target_diamondsquares.svg	stimuli_distractor_diamondtriangles.svg	3	yes	44	1	392
6.6.1	and	2022-12-15	01:55:02	02:40:18	2703345	61612338ddccab2e68b3e3cc	215228705	1	practice_z	9	advance_on_keypress_ZEE	12	stimuli_target_diamondsquares.svg	stimuli_distractor_diamondtriangles.svg	3	yes	57	0	951
6.6.1	and	2022-12-15	01:55:02	02:40:23	2708008	61612338ddccab2e68b3e3cc	215228705	1	practice_z	9	practice_z	13	stimuli_distractor_diamondtriangles.svg	stimuli_distractor_diamondtriangles.svg	13	no	0	1	2000
6.6.1	and	2022-12-15	01:55:02	02:40:23	2708008	61612338ddccab2e68b3e3cc	215228705	1	practice_z	9	advance_on_keypress_ZEE	14	stimuli_distractor_diamondtriangles.svg	stimuli_distractor_diamondtriangles.svg	13	no	57	0	786
6.6.1	and	2022-12-15	01:55:02	02:40:26	2711403	61612338ddccab2e68b3e3cc	215228705	1	practice_z	9	practice_z	15	stimuli_target_circlediamonds.svg	stimuli_distractor_trianglediamonds.svg	4	yes	44	1	903
6.6.1	and	2022-12-15	01:55:02	02:40:26	2711403	61612338ddccab2e68b3e3cc	215228705	1	practice_z	9	advance_on_keypress_ZEE	16	stimuli_target_circlediamonds.svg	stimuli_distractor_trianglediamonds.svg	4	yes	57	0	2199
6.6.1	and	2022-12-15	01:55:02	02:40:31	2715764	61612338ddccab2e68b3e3cc	215228705	1	practice_z	9	practice_z	17	stimuli_target_circlediamonds.svg	stimuli_distractor_diamondtriangles.svg	1	yes	44	1	455
6.6.1	and	2022-12-15	01:55:02	02:40:31	2715764	61612338ddccab2e68b3e3cc	215228705	1	practice_z	9	advance_on_keypress_ZEE	18	stimuli_target_circlediamonds.svg	stimuli_distractor_diamondtriangles.svg	1	yes	57	0	1997
6.6.1	and	2022-12-15	01:55:02	02:40:35	2719899	61612338ddccab2e68b3e3cc	215228705	1	practice_z	9	practice_z	19	stimuli_distractor_trianglediamonds.svg	stimuli_target_circlediamonds.svg	10	yes	44	1	428
6.6.1	and	2022-12-15	01:55:02	02:40:35	2719899	61612338ddccab2e68b3e3cc	215228705	1	practice_z	9	advance_on_keypress_ZEE	20	stimuli_distractor_trianglediamonds.svg	stimuli_target_circlediamonds.svg	10	yes	57	0	906
6.6.1	and	2022-12-15	01:55:02	02:40:40	2724508	61612338ddccab2e68b3e3cc	215228705	1	practice_z	9	practice_z	21	stimuli_distractor_trianglediamonds.svg	stimuli_distractor_diamondtriangles.svg	16	no	0	1	2000
6.6.1	and	2022-12-15	01:55:02	02:40:40	2724508	61612338ddccab2e68b3e3cc	215228705	1	practice_z	9	advance_on_keypress_ZEE	22	stimuli_distractor_trianglediamonds.svg	stimuli_distractor_diamondtriangles.svg	16	no	57	0	1015
6.6.1	and	2022-12-15	01:55:02	02:40:44	2729237	61612338ddccab2e68b3e3cc	215228705	1	practice_z	9	practice_z	23	stimuli_distractor_diamondtriangles.svg	stimuli_distractor_trianglediamonds.svg	14	no	0	1	2000
6.6.1	and	2022-12-15	01:55:02	02:40:44	2729237	61612338ddccab2e68b3e3cc	215228705	1	practice_z	9	advance_on_keypress_ZEE	24	stimuli_distractor_diamondtriangles.svg	stimuli_distractor_trianglediamonds.svg	14	no	57	0	170
6.6.1	and	2022-12-15	01:55:02	02:40:47	2731749	61612338ddccab2e68b3e3cc	215228705	1	practice_z	9	practice_z	25	stimuli_distractor_diamondtriangles.svg	stimuli_target_trianglecircles.svg	9	yes	44	1	652
6.6.1	and	2022-12-15	01:55:02	02:40:47	2731749	61612338ddccab2e68b3e3cc	215228705	1	practice_z	9	advance_on_keypress_ZEE	26	stimuli_distractor_diamondtriangles.svg	stimuli_target_trianglecircles.svg	9	yes	57	0	696
6.6.1	and	2022-12-15	01:55:02	02:40:50	2734979	61612338ddccab2e68b3e3cc	215228705	1	practice_z	9	practice_z	27	stimuli_distractor_trianglediamonds.svg	stimuli_target_squarediamonds.svg	11	yes	44	1	831
6.6.1	and	2022-12-15	01:55:02	02:40:50	2734979	61612338ddccab2e68b3e3cc	215228705	1	practice_z	9	advance_on_keypress_ZEE	28	stimuli_distractor_trianglediamonds.svg	stimuli_target_squarediamonds.svg	11	yes	57	0	1
6.6.1	and	2022-12-15	01:55:02	02:40:54	2738719	61612338ddccab2e68b3e3cc	215228705	1	practice_z	9	practice_z	29	stimuli_distractor_trianglediamonds.svg	stimuli_distractor_trianglediamonds.svg	15	no	0	1	2000
6.6.1	and	2022-12-15	01:55:02	02:40:54	2738719	61612338ddccab2e68b3e3cc	215228705	1	practice_z	9	advance_on_keypress_ZEE	30	stimuli_distractor_trianglediamonds.svg	stimuli_distractor_trianglediamonds.svg	15	no	57	0	2103
6.6.1	and	2022-12-15	01:55:02	02:40:59	2743997	61612338ddccab2e68b3e3cc	215228705	1	practice_z	9	practice_z	31	stimuli_distractor_trianglediamonds.svg	stimuli_target_diamondcircles.svg	12	yes	44	1	1472
6.6.1	and	2022-12-15	01:55:02	02:40:59	2743997	61612338ddccab2e68b3e3cc	215228705	1	practice_z	9	advance_on_keypress_ZEE	32	stimuli_distractor_trianglediamonds.svg	stimuli_target_diamondcircles.svg	12	yes	57	0	722
6.6.1	and	2022-12-15	01:55:02	02:41:16	2760909	61612338ddccab2e68b3e3cc	215228705	1	main_z	11	main_z	1	stimuli_target_circletriangles.svg	stimuli_distractor_trianglediamonds.svg	1	yes	44	1	776
6.6.1	and	2022-12-15	01:55:02	02:41:16	2760909	61612338ddccab2e68b3e3cc	215228705	1	main_z	11	advance_on_keypress_ZEE	2	stimuli_target_circletriangles.svg	stimuli_distractor_trianglediamonds.svg	1	yes	57	0	1149
6.6.1	and	2022-12-15	01:55:02	02:41:18	2763305	61612338ddccab2e68b3e3cc	215228705	1	main_z	11	main_z	3	stimuli_distractor_trianglediamonds.svg	stimuli_target_squaretriangles.svg	11	yes	44	1	522
6.6.1	and	2022-12-15	01:55:02	02:41:18	2763305	61612338ddccab2e68b3e3cc	215228705	1	main_z	11	advance_on_keypress_ZEE	4	stimuli_distractor_trianglediamonds.svg	stimuli_target_squaretriangles.svg	11	yes	57	0	1450
6.6.1	and	2022-12-15	01:55:02	02:41:21	2765948	61612338ddccab2e68b3e3cc	215228705	1	main_z	11	main_z	5	stimuli_distractor_diamondtriangles.svg	stimuli_target_diamondsquares.svg	32	yes	44	1	466
6.6.1	and	2022-12-15	01:55:02	02:41:21	2765948	61612338ddccab2e68b3e3cc	215228705	1	main_z	11	advance_on_keypress_ZEE	6	stimuli_distractor_diamondtriangles.svg	stimuli_target_diamondsquares.svg	32	yes	57	0	700
6.6.1	and	2022-12-15	01:55:02	02:41:23	2767933	61612338ddccab2e68b3e3cc	215228705	1	main_z	11	main_z	7	stimuli_target_squaretriangles.svg	stimuli_distractor_diamondtriangles.svg	7	yes	44	1	544
6.6.1	and	2022-12-15	01:55:02	02:41:23	2767933	61612338ddccab2e68b3e3cc	215228705	1	main_z	11	advance_on_keypress_ZEE	8	stimuli_target_squaretriangles.svg	stimuli_distractor_diamondtriangles.svg	7	yes	57	0	738
6.6.1	and	2022-12-15	01:55:02	02:41:25	2769864	61612338ddccab2e68b3e3cc	215228705	1	main_z	11	main_z	9	stimuli_target_squarediamonds.svg	stimuli_distractor_trianglediamonds.svg	4	yes	44	1	468
6.6.1	and	2022-12-15	01:55:02	02:41:25	2769864	61612338ddccab2e68b3e3cc	215228705	1	main_z	11	advance_on_keypress_ZEE	10	stimuli_target_squarediamonds.svg	stimuli_distractor_trianglediamonds.svg	4	yes	57	0	704
6.6.1	and	2022-12-15	01:55:02	02:41:27	2771800	61612338ddccab2e68b3e3cc	215228705	1	main_z	11	main_z	11	stimuli_target_circlediamonds.svg	stimuli_distractor_trianglediamonds.svg	2	yes	44	1	496
6.6.1	and	2022-12-15	01:55:02	02:41:27	2771800	61612338ddccab2e68b3e3cc	215228705	1	main_z	11	advance_on_keypress_ZEE	12	stimuli_target_circlediamonds.svg	stimuli_distractor_trianglediamonds.svg	2	yes	57	0	1566
6.6.1	and	2022-12-15	01:55:02	02:41:30	2775314	61612338ddccab2e68b3e3cc	215228705	1	main_z	11	main_z	13	stimuli_target_diamondcircles.svg	stimuli_distractor_diamondtriangles.svg	23	yes	44	1	1241
6.6.1	and	2022-12-15	01:55:02	02:41:30	2775314	61612338ddccab2e68b3e3cc	215228705	1	main_z	11	advance_on_keypress_ZEE	14	stimuli_target_diamondcircles.svg	stimuli_distractor_diamondtriangles.svg	23	yes	57	0	1033
6.6.1	and	2022-12-15	01:55:02	02:41:33	2777565	61612338ddccab2e68b3e3cc	215228705	1	main_z	11	main_z	15	stimuli_distractor_trianglediamonds.svg	stimuli_target_trianglesquares.svg	26	yes	44	1	508
6.6.1	and	2022-12-15	01:55:02	02:41:33	2777565	61612338ddccab2e68b3e3cc	215228705	1	main_z	11	advance_on_keypress_ZEE	16	stimuli_distractor_trianglediamonds.svg	stimuli_target_trianglesquares.svg	26	yes	57	0	1620
6.6.1	and	2022-12-15	01:55:02	02:41:35	2780472	61612338ddccab2e68b3e3cc	215228705	1	main_z	11	main_z	17	stimuli_distractor_diamondtriangles.svg	stimuli_target_circletriangles.svg	13	yes	44	1	577
6.6.1	and	2022-12-15	01:55:02	02:41:35	2780472	61612338ddccab2e68b3e3cc	215228705	1	main_z	11	advance_on_keypress_ZEE	18	stimuli_distractor_diamondtriangles.svg	stimuli_target_circletriangles.svg	13	yes	57	0	575
6.6.1	and	2022-12-15	01:55:02	02:41:38	2782688	61612338ddccab2e68b3e3cc	215228705	1	main_z	11	main_z	19	stimuli_target_trianglecircles.svg	stimuli_distractor_trianglediamonds.svg	17	yes	44	1	919
6.6.1	and	2022-12-15	01:55:02	02:41:38	2782688	61612338ddccab2e68b3e3cc	215228705	1	main_z	11	advance_on_keypress_ZEE	20	stimuli_target_trianglecircles.svg	stimuli_distractor_trianglediamonds.svg	17	yes	57	0	589
6.6.1	and	2022-12-15	01:55:02	02:41:41	2785993	61612338ddccab2e68b3e3cc	215228705	1	main_z	11	main_z	21	stimuli_target_squarediamonds.svg	stimuli_distractor_diamondtriangles.svg	8	yes	0	0	2000
6.6.1	and	2022-12-15	01:55:02	02:41:41	2785993	61612338ddccab2e68b3e3cc	215228705	1	main_z	11	advance_on_keypress_ZEE	22	stimuli_target_squarediamonds.svg	stimuli_distractor_diamondtriangles.svg	8	yes	57	0	1435
6.6.1	and	2022-12-15	01:55:02	02:41:45	2790140	61612338ddccab2e68b3e3cc	215228705	1	main_z	11	main_z	23	stimuli_distractor_diamondtriangles.svg	stimuli_distractor_diamondtriangles.svg	40	no	0	1	2000
6.6.1	and	2022-12-15	01:55:02	02:41:45	2790140	61612338ddccab2e68b3e3cc	215228705	1	main_z	11	advance_on_keypress_ZEE	24	stimuli_distractor_diamondtriangles.svg	stimuli_distractor_diamondtriangles.svg	40	no	57	0	1464
6.6.1	and	2022-12-15	01:55:02	02:41:48	2792881	61612338ddccab2e68b3e3cc	215228705	1	main_z	11	main_z	25	stimuli_distractor_diamondtriangles.svg	stimuli_target_diamondcircles.svg	31	yes	44	1	580
6.6.1	and	2022-12-15	01:55:02	02:41:48	2792881	61612338ddccab2e68b3e3cc	215228705	1	main_z	11	advance_on_keypress_ZEE	26	stimuli_distractor_diamondtriangles.svg	stimuli_target_diamondcircles.svg	31	yes	57	0	606
6.6.1	and	2022-12-15	01:55:02	02:41:50	2794727	61612338ddccab2e68b3e3cc	215228705	1	main_z	11	main_z	27	stimuli_distractor_diamondtriangles.svg	stimuli_distractor_trianglediamonds.svg	37	no	44	0	516
6.6.1	and	2022-12-15	01:55:02	02:41:50	2794727	61612338ddccab2e68b3e3cc	215228705	1	main_z	11	advance_on_keypress_ZEE	28	stimuli_distractor_diamondtriangles.svg	stimuli_distractor_trianglediamonds.svg	37	no	57	0	1111
6.6.1	and	2022-12-15	01:55:02	02:41:54	2798565	61612338ddccab2e68b3e3cc	215228705	1	main_z	11	main_z	29	stimuli_distractor_trianglediamonds.svg	stimuli_distractor_trianglediamonds.svg	34	no	0	1	2000
6.6.1	and	2022-12-15	01:55:02	02:41:54	2798565	61612338ddccab2e68b3e3cc	215228705	1	main_z	11	advance_on_keypress_ZEE	30	stimuli_distractor_trianglediamonds.svg	stimuli_distractor_trianglediamonds.svg	34	no	57	0	865
6.6.1	and	2022-12-15	01:55:02	02:41:56	2800812	61612338ddccab2e68b3e3cc	215228705	1	main_z	11	main_z	31	stimuli_target_diamondsquares.svg	stimuli_distractor_trianglediamonds.svg	20	yes	44	1	682
6.6.1	and	2022-12-15	01:55:02	02:41:56	2800812	61612338ddccab2e68b3e3cc	215228705	1	main_z	11	advance_on_keypress_ZEE	32	stimuli_target_diamondsquares.svg	stimuli_distractor_trianglediamonds.svg	20	yes	57	0	734
6.6.1	and	2022-12-15	01:55:02	02:41:58	2802965	61612338ddccab2e68b3e3cc	215228705	1	main_z	11	main_z	33	stimuli_distractor_diamondtriangles.svg	stimuli_target_trianglecircles.svg	29	yes	44	1	699
6.6.1	and	2022-12-15	01:55:02	02:41:58	2802965	61612338ddccab2e68b3e3cc	215228705	1	main_z	11	advance_on_keypress_ZEE	34	stimuli_distractor_diamondtriangles.svg	stimuli_target_trianglecircles.svg	29	yes	57	0	731
6.6.1	and	2022-12-15	01:55:02	02:42:01	2805528	61612338ddccab2e68b3e3cc	215228705	1	main_z	11	main_z	35	stimuli_target_circlediamonds.svg	stimuli_distractor_diamondtriangles.svg	6	yes	44	1	1105
6.6.1	and	2022-12-15	01:55:02	02:42:01	2805528	61612338ddccab2e68b3e3cc	215228705	1	main_z	11	advance_on_keypress_ZEE	36	stimuli_target_circlediamonds.svg	stimuli_distractor_diamondtriangles.svg	6	yes	57	0	863
6.6.1	and	2022-12-15	01:55:02	02:42:03	2807501	61612338ddccab2e68b3e3cc	215228705	1	main_z	11	main_z	37	stimuli_distractor_trianglediamonds.svg	stimuli_target_circletriangles.svg	9	yes	44	1	390
6.6.1	and	2022-12-15	01:55:02	02:42:03	2807501	61612338ddccab2e68b3e3cc	215228705	1	main_z	11	advance_on_keypress_ZEE	38	stimuli_distractor_trianglediamonds.svg	stimuli_target_circletriangles.svg	9	yes	57	0	665
6.6.1	and	2022-12-15	01:55:02	02:42:04	2809465	61612338ddccab2e68b3e3cc	215228705	1	main_z	11	main_z	39	stimuli_distractor_trianglediamonds.svg	stimuli_target_diamondcircles.svg	27	yes	44	1	580
6.6.1	and	2022-12-15	01:55:02	02:42:04	2809465	61612338ddccab2e68b3e3cc	215228705	1	main_z	11	advance_on_keypress_ZEE	40	stimuli_distractor_trianglediamonds.svg	stimuli_target_diamondcircles.svg	27	yes	57	0	606
6.6.1	and	2022-12-15	01:55:02	02:42:06	2811326	61612338ddccab2e68b3e3cc	215228705	1	main_z	11	main_z	41	stimuli_distractor_trianglediamonds.svg	stimuli_target_circlediamonds.svg	10	yes	44	1	529
6.6.1	and	2022-12-15	01:55:02	02:42:06	2811326	61612338ddccab2e68b3e3cc	215228705	1	main_z	11	advance_on_keypress_ZEE	42	stimuli_distractor_trianglediamonds.svg	stimuli_target_circlediamonds.svg	10	yes	57	0	521
6.6.1	and	2022-12-15	01:55:02	02:42:08	2813358	61612338ddccab2e68b3e3cc	215228705	1	main_z	11	main_z	43	stimuli_distractor_trianglediamonds.svg	stimuli_target_diamondsquares.svg	28	yes	44	1	807
6.6.1	and	2022-12-15	01:55:02	02:42:08	2813358	61612338ddccab2e68b3e3cc	215228705	1	main_z	11	advance_on_keypress_ZEE	44	stimuli_distractor_trianglediamonds.svg	stimuli_target_diamondsquares.svg	28	yes	57	0	544
6.6.1	and	2022-12-15	01:55:02	02:42:11	2815739	61612338ddccab2e68b3e3cc	215228705	1	main_z	11	main_z	45	stimuli_distractor_trianglediamonds.svg	stimuli_distractor_diamondtriangles.svg	36	no	44	0	1117
6.6.1	and	2022-12-15	01:55:02	02:42:11	2815739	61612338ddccab2e68b3e3cc	215228705	1	main_z	11	advance_on_keypress_ZEE	46	stimuli_distractor_trianglediamonds.svg	stimuli_distractor_diamondtriangles.svg	36	no	57	0	1094
6.6.1	and	2022-12-15	01:55:02	02:42:15	2819562	61612338ddccab2e68b3e3cc	215228705	1	main_z	11	main_z	47	stimuli_distractor_diamondtriangles.svg	stimuli_target_squaretriangles.svg	15	yes	0	0	2000
6.6.1	and	2022-12-15	01:55:02	02:42:15	2819562	61612338ddccab2e68b3e3cc	215228705	1	main_z	11	advance_on_keypress_ZEE	48	stimuli_distractor_diamondtriangles.svg	stimuli_target_squaretriangles.svg	15	yes	57	0	618
6.6.1	and	2022-12-15	01:55:02	02:42:16	2821380	61612338ddccab2e68b3e3cc	215228705	1	main_z	11	main_z	49	stimuli_distractor_diamondtriangles.svg	stimuli_target_circlediamonds.svg	14	yes	44	1	506
6.6.1	and	2022-12-15	01:55:02	02:42:16	2821380	61612338ddccab2e68b3e3cc	215228705	1	main_z	11	advance_on_keypress_ZEE	50	stimuli_distractor_diamondtriangles.svg	stimuli_target_circlediamonds.svg	14	yes	57	0	1084
6.6.1	and	2022-12-15	01:55:02	02:42:19	2824193	61612338ddccab2e68b3e3cc	215228705	1	main_z	11	main_z	51	stimuli_distractor_trianglediamonds.svg	stimuli_distractor_trianglediamonds.svg	33	no	44	0	1012
6.6.1	and	2022-12-15	01:55:02	02:42:19	2824193	61612338ddccab2e68b3e3cc	215228705	1	main_z	11	advance_on_keypress_ZEE	52	stimuli_distractor_trianglediamonds.svg	stimuli_distractor_trianglediamonds.svg	33	no	57	0	701
6.6.1	and	2022-12-15	01:55:02	02:42:21	2826225	61612338ddccab2e68b3e3cc	215228705	1	main_z	11	main_z	53	stimuli_target_circletriangles.svg	stimuli_distractor_diamondtriangles.svg	5	yes	44	1	624
6.6.1	and	2022-12-15	01:55:02	02:42:21	2826225	61612338ddccab2e68b3e3cc	215228705	1	main_z	11	advance_on_keypress_ZEE	54	stimuli_target_circletriangles.svg	stimuli_distractor_diamondtriangles.svg	5	yes	57	0	635
6.6.1	and	2022-12-15	01:55:02	02:42:23	2828198	61612338ddccab2e68b3e3cc	215228705	1	main_z	11	main_z	55	stimuli_distractor_trianglediamonds.svg	stimuli_target_squarediamonds.svg	12	yes	44	1	622
6.6.1	and	2022-12-15	01:55:02	02:42:23	2828198	61612338ddccab2e68b3e3cc	215228705	1	main_z	11	advance_on_keypress_ZEE	56	stimuli_distractor_trianglediamonds.svg	stimuli_target_squarediamonds.svg	12	yes	57	0	1031
6.6.1	and	2022-12-15	01:55:02	02:42:26	2831202	61612338ddccab2e68b3e3cc	215228705	1	main_z	11	main_z	57	stimuli_target_trianglesquares.svg	stimuli_distractor_trianglediamonds.svg	18	yes	44	1	1255
6.6.1	and	2022-12-15	01:55:02	02:42:26	2831202	61612338ddccab2e68b3e3cc	215228705	1	main_z	11	advance_on_keypress_ZEE	58	stimuli_target_trianglesquares.svg	stimuli_distractor_trianglediamonds.svg	18	yes	57	0	770
6.6.1	and	2022-12-15	01:55:02	02:42:28	2833216	61612338ddccab2e68b3e3cc	215228705	1	main_z	11	main_z	59	stimuli_distractor_trianglediamonds.svg	stimuli_target_trianglecircles.svg	25	yes	44	1	528
6.6.1	and	2022-12-15	01:55:02	02:42:28	2833216	61612338ddccab2e68b3e3cc	215228705	1	main_z	11	advance_on_keypress_ZEE	60	stimuli_distractor_trianglediamonds.svg	stimuli_target_trianglecircles.svg	25	yes	57	0	455
6.6.1	and	2022-12-15	01:55:02	02:42:30	2835006	61612338ddccab2e68b3e3cc	215228705	1	main_z	11	main_z	61	stimuli_distractor_diamondtriangles.svg	stimuli_target_squarediamonds.svg	16	yes	44	1	632
6.6.1	and	2022-12-15	01:55:02	02:42:30	2835006	61612338ddccab2e68b3e3cc	215228705	1	main_z	11	advance_on_keypress_ZEE	62	stimuli_distractor_diamondtriangles.svg	stimuli_target_squarediamonds.svg	16	yes	57	0	662
6.6.1	and	2022-12-15	01:55:02	02:42:32	2836907	61612338ddccab2e68b3e3cc	215228705	1	main_z	11	main_z	63	stimuli_target_trianglecircles.svg	stimuli_distractor_diamondtriangles.svg	21	yes	44	1	508
6.6.1	and	2022-12-15	01:55:02	02:42:32	2836907	61612338ddccab2e68b3e3cc	215228705	1	main_z	11	advance_on_keypress_ZEE	64	stimuli_target_trianglecircles.svg	stimuli_distractor_diamondtriangles.svg	21	yes	57	0	639
6.6.1	and	2022-12-15	01:55:02	02:42:34	2839338	61612338ddccab2e68b3e3cc	215228705	1	main_z	11	main_z	65	stimuli_distractor_diamondtriangles.svg	stimuli_distractor_diamondtriangles.svg	39	no	44	0	1083
6.6.1	and	2022-12-15	01:55:02	02:42:34	2839338	61612338ddccab2e68b3e3cc	215228705	1	main_z	11	advance_on_keypress_ZEE	66	stimuli_distractor_diamondtriangles.svg	stimuli_distractor_diamondtriangles.svg	39	no	57	0	474
6.6.1	and	2022-12-15	01:55:02	02:42:36	2841077	61612338ddccab2e68b3e3cc	215228705	1	main_z	11	main_z	67	stimuli_target_trianglesquares.svg	stimuli_distractor_diamondtriangles.svg	22	yes	44	1	549
6.6.1	and	2022-12-15	01:55:02	02:42:36	2841077	61612338ddccab2e68b3e3cc	215228705	1	main_z	11	advance_on_keypress_ZEE	68	stimuli_target_trianglesquares.svg	stimuli_distractor_diamondtriangles.svg	22	yes	57	0	564
6.6.1	and	2022-12-15	01:55:02	02:42:39	2843502	61612338ddccab2e68b3e3cc	215228705	1	main_z	11	main_z	69	stimuli_distractor_diamondtriangles.svg	stimuli_distractor_trianglediamonds.svg	38	no	44	0	1136
6.6.1	and	2022-12-15	01:55:02	02:42:39	2843502	61612338ddccab2e68b3e3cc	215228705	1	main_z	11	advance_on_keypress_ZEE	70	stimuli_distractor_diamondtriangles.svg	stimuli_distractor_trianglediamonds.svg	38	no	57	0	1157
6.6.1	and	2022-12-15	01:55:02	02:42:41	2846174	61612338ddccab2e68b3e3cc	215228705	1	main_z	11	main_z	71	stimuli_target_diamondsquares.svg	stimuli_distractor_diamondtriangles.svg	24	yes	44	1	787
6.6.1	and	2022-12-15	01:55:02	02:42:41	2846174	61612338ddccab2e68b3e3cc	215228705	1	main_z	11	advance_on_keypress_ZEE	72	stimuli_target_diamondsquares.svg	stimuli_distractor_diamondtriangles.svg	24	yes	57	0	688
6.6.1	and	2022-12-15	01:55:02	02:42:43	2848331	61612338ddccab2e68b3e3cc	215228705	1	main_z	11	main_z	73	stimuli_target_diamondcircles.svg	stimuli_distractor_trianglediamonds.svg	19	yes	44	1	753
6.6.1	and	2022-12-15	01:55:02	02:42:43	2848331	61612338ddccab2e68b3e3cc	215228705	1	main_z	11	advance_on_keypress_ZEE	74	stimuli_target_diamondcircles.svg	stimuli_distractor_trianglediamonds.svg	19	yes	57	0	639
6.6.1	and	2022-12-15	01:55:02	02:42:45	2850312	61612338ddccab2e68b3e3cc	215228705	1	main_z	11	main_z	75	stimuli_target_squaretriangles.svg	stimuli_distractor_trianglediamonds.svg	3	yes	44	1	630
6.6.1	and	2022-12-15	01:55:02	02:42:45	2850312	61612338ddccab2e68b3e3cc	215228705	1	main_z	11	advance_on_keypress_ZEE	76	stimuli_target_squaretriangles.svg	stimuli_distractor_trianglediamonds.svg	3	yes	57	0	635
6.6.1	and	2022-12-15	01:55:02	02:42:47	2852259	61612338ddccab2e68b3e3cc	215228705	1	main_z	11	main_z	77	stimuli_distractor_diamondtriangles.svg	stimuli_target_trianglesquares.svg	30	yes	44	1	602
6.6.1	and	2022-12-15	01:55:02	02:42:47	2852259	61612338ddccab2e68b3e3cc	215228705	1	main_z	11	advance_on_keypress_ZEE	78	stimuli_distractor_diamondtriangles.svg	stimuli_target_trianglesquares.svg	30	yes	57	0	570
6.6.1	and	2022-12-15	01:55:02	02:42:49	2854136	61612338ddccab2e68b3e3cc	215228705	1	main_z	11	main_z	79	stimuli_distractor_trianglediamonds.svg	stimuli_distractor_diamondtriangles.svg	35	no	44	0	589
6.6.1	and	2022-12-15	01:55:02	02:42:49	2854136	61612338ddccab2e68b3e3cc	215228705	1	main_z	11	advance_on_keypress_ZEE	80	stimuli_distractor_trianglediamonds.svg	stimuli_distractor_diamondtriangles.svg	35	no	57	0	996
6.6.1	and	2022-12-15	01:55:02	02:42:52	2856840	61612338ddccab2e68b3e3cc	215228705	1	main_z	11	main_z	81	stimuli_distractor_trianglediamonds.svg	stimuli_distractor_diamondtriangles.svg	35	no	44	0	953
6.6.1	and	2022-12-15	01:55:02	02:42:52	2856840	61612338ddccab2e68b3e3cc	215228705	1	main_z	11	advance_on_keypress_ZEE	82	stimuli_distractor_trianglediamonds.svg	stimuli_distractor_diamondtriangles.svg	35	no	57	0	611
6.6.1	and	2022-12-15	01:55:02	02:42:54	2858803	61612338ddccab2e68b3e3cc	215228705	1	main_z	11	main_z	83	stimuli_distractor_trianglediamonds.svg	stimuli_target_diamondcircles.svg	27	yes	44	1	630
6.6.1	and	2022-12-15	01:55:02	02:42:54	2858803	61612338ddccab2e68b3e3cc	215228705	1	main_z	11	advance_on_keypress_ZEE	84	stimuli_distractor_trianglediamonds.svg	stimuli_target_diamondcircles.svg	27	yes	57	0	565
6.6.1	and	2022-12-15	01:55:02	02:42:56	2860530	61612338ddccab2e68b3e3cc	215228705	1	main_z	11	main_z	85	stimuli_distractor_trianglediamonds.svg	stimuli_target_squarediamonds.svg	12	yes	44	1	446
6.6.1	and	2022-12-15	01:55:02	02:42:56	2860530	61612338ddccab2e68b3e3cc	215228705	1	main_z	11	advance_on_keypress_ZEE	86	stimuli_distractor_trianglediamonds.svg	stimuli_target_squarediamonds.svg	12	yes	57	0	495
6.6.1	and	2022-12-15	01:55:02	02:42:57	2862455	61612338ddccab2e68b3e3cc	215228705	1	main_z	11	main_z	87	stimuli_target_trianglesquares.svg	stimuli_distractor_trianglediamonds.svg	18	yes	44	1	716
6.6.1	and	2022-12-15	01:55:02	02:42:57	2862455	61612338ddccab2e68b3e3cc	215228705	1	main_z	11	advance_on_keypress_ZEE	88	stimuli_target_trianglesquares.svg	stimuli_distractor_trianglediamonds.svg	18	yes	57	0	377
6.6.1	and	2022-12-15	01:55:02	02:43:01	2865572	61612338ddccab2e68b3e3cc	215228705	1	main_z	11	main_z	89	stimuli_distractor_diamondtriangles.svg	stimuli_distractor_diamondtriangles.svg	39	no	0	1	2000
6.6.1	and	2022-12-15	01:55:02	02:43:01	2865572	61612338ddccab2e68b3e3cc	215228705	1	main_z	11	advance_on_keypress_ZEE	90	stimuli_distractor_diamondtriangles.svg	stimuli_distractor_diamondtriangles.svg	39	no	57	0	583
6.6.1	and	2022-12-15	01:55:02	02:43:03	2867801	61612338ddccab2e68b3e3cc	215228705	1	main_z	11	main_z	91	stimuli_distractor_diamondtriangles.svg	stimuli_target_diamondsquares.svg	32	yes	44	1	950
6.6.1	and	2022-12-15	01:55:02	02:43:03	2867801	61612338ddccab2e68b3e3cc	215228705	1	main_z	11	advance_on_keypress_ZEE	92	stimuli_distractor_diamondtriangles.svg	stimuli_target_diamondsquares.svg	32	yes	57	0	619
6.6.1	and	2022-12-15	01:55:02	02:43:05	2869710	61612338ddccab2e68b3e3cc	215228705	1	main_z	11	main_z	93	stimuli_distractor_diamondtriangles.svg	stimuli_target_trianglecircles.svg	29	yes	44	1	571
6.6.1	and	2022-12-15	01:55:02	02:43:05	2869710	61612338ddccab2e68b3e3cc	215228705	1	main_z	11	advance_on_keypress_ZEE	94	stimuli_distractor_diamondtriangles.svg	stimuli_target_trianglecircles.svg	29	yes	57	0	518
6.6.1	and	2022-12-15	01:55:02	02:43:07	2871586	61612338ddccab2e68b3e3cc	215228705	1	main_z	11	main_z	95	stimuli_distractor_diamondtriangles.svg	stimuli_target_trianglesquares.svg	30	yes	44	1	643
6.6.1	and	2022-12-15	01:55:02	02:43:07	2871586	61612338ddccab2e68b3e3cc	215228705	1	main_z	11	advance_on_keypress_ZEE	96	stimuli_distractor_diamondtriangles.svg	stimuli_target_trianglesquares.svg	30	yes	57	0	654
6.6.1	and	2022-12-15	01:55:02	02:43:09	2873567	61612338ddccab2e68b3e3cc	215228705	1	main_z	11	main_z	97	stimuli_target_circlediamonds.svg	stimuli_distractor_diamondtriangles.svg	6	yes	44	1	615
6.6.1	and	2022-12-15	01:55:02	02:43:09	2873567	61612338ddccab2e68b3e3cc	215228705	1	main_z	11	advance_on_keypress_ZEE	98	stimuli_target_circlediamonds.svg	stimuli_distractor_diamondtriangles.svg	6	yes	57	0	734
6.6.1	and	2022-12-15	01:55:02	02:43:11	2875553	61612338ddccab2e68b3e3cc	215228705	1	main_z	11	main_z	99	stimuli_distractor_diamondtriangles.svg	stimuli_target_circlediamonds.svg	14	yes	44	1	524
6.6.1	and	2022-12-15	01:55:02	02:43:11	2875553	61612338ddccab2e68b3e3cc	215228705	1	main_z	11	advance_on_keypress_ZEE	100	stimuli_distractor_diamondtriangles.svg	stimuli_target_circlediamonds.svg	14	yes	57	0	91
6.6.1	and	2022-12-15	01:55:02	02:43:12	2876940	61612338ddccab2e68b3e3cc	215228705	1	main_z	11	main_z	101	stimuli_distractor_trianglediamonds.svg	stimuli_distractor_trianglediamonds.svg	33	no	44	0	560
6.6.1	and	2022-12-15	01:55:02	02:43:12	2876940	61612338ddccab2e68b3e3cc	215228705	1	main_z	11	advance_on_keypress_ZEE	102	stimuli_distractor_trianglediamonds.svg	stimuli_distractor_trianglediamonds.svg	33	no	57	0	1090
6.6.1	and	2022-12-15	01:55:02	02:43:14	2879285	61612338ddccab2e68b3e3cc	215228705	1	main_z	11	main_z	103	stimuli_distractor_trianglediamonds.svg	stimuli_distractor_diamondtriangles.svg	36	no	44	0	523
6.6.1	and	2022-12-15	01:55:02	02:43:14	2879285	61612338ddccab2e68b3e3cc	215228705	1	main_z	11	advance_on_keypress_ZEE	104	stimuli_distractor_trianglediamonds.svg	stimuli_distractor_diamondtriangles.svg	36	no	57	0	626
6.6.1	and	2022-12-15	01:55:02	02:43:16	2880989	61612338ddccab2e68b3e3cc	215228705	1	main_z	11	main_z	105	stimuli_target_circletriangles.svg	stimuli_distractor_trianglediamonds.svg	1	yes	44	1	358
6.6.1	and	2022-12-15	01:55:02	02:43:16	2880989	61612338ddccab2e68b3e3cc	215228705	1	main_z	11	advance_on_keypress_ZEE	106	stimuli_target_circletriangles.svg	stimuli_distractor_trianglediamonds.svg	1	yes	57	0	448
6.6.1	and	2022-12-15	01:55:02	02:43:18	2882702	61612338ddccab2e68b3e3cc	215228705	1	main_z	11	main_z	107	stimuli_target_trianglecircles.svg	stimuli_distractor_trianglediamonds.svg	17	yes	44	1	544
6.6.1	and	2022-12-15	01:55:02	02:43:18	2882702	61612338ddccab2e68b3e3cc	215228705	1	main_z	11	advance_on_keypress_ZEE	108	stimuli_target_trianglecircles.svg	stimuli_distractor_trianglediamonds.svg	17	yes	57	0	427
6.6.1	and	2022-12-15	01:55:02	02:43:19	2884285	61612338ddccab2e68b3e3cc	215228705	1	main_z	11	main_z	109	stimuli_target_diamondsquares.svg	stimuli_distractor_diamondtriangles.svg	24	yes	44	1	437
6.6.1	and	2022-12-15	01:55:02	02:43:19	2884285	61612338ddccab2e68b3e3cc	215228705	1	main_z	11	advance_on_keypress_ZEE	110	stimuli_target_diamondsquares.svg	stimuli_distractor_diamondtriangles.svg	24	yes	57	0	448
6.6.1	and	2022-12-15	01:55:02	02:43:21	2886201	61612338ddccab2e68b3e3cc	215228705	1	main_z	11	main_z	111	stimuli_distractor_diamondtriangles.svg	stimuli_distractor_diamondtriangles.svg	40	no	44	0	743
6.6.1	and	2022-12-15	01:55:02	02:43:21	2886201	61612338ddccab2e68b3e3cc	215228705	1	main_z	11	advance_on_keypress_ZEE	112	stimuli_distractor_diamondtriangles.svg	stimuli_distractor_diamondtriangles.svg	40	no	57	0	466
6.6.1	and	2022-12-15	01:55:02	02:43:23	2887932	61612338ddccab2e68b3e3cc	215228705	1	main_z	11	main_z	113	stimuli_distractor_diamondtriangles.svg	stimuli_target_squarediamonds.svg	16	yes	44	1	549
6.6.1	and	2022-12-15	01:55:02	02:43:23	2887932	61612338ddccab2e68b3e3cc	215228705	1	main_z	11	advance_on_keypress_ZEE	114	stimuli_distractor_diamondtriangles.svg	stimuli_target_squarediamonds.svg	16	yes	57	0	361
6.6.1	and	2022-12-15	01:55:02	02:43:25	2889490	61612338ddccab2e68b3e3cc	215228705	1	main_z	11	main_z	115	stimuli_target_circlediamonds.svg	stimuli_distractor_trianglediamonds.svg	2	yes	44	1	466
6.6.1	and	2022-12-15	01:55:02	02:43:25	2889490	61612338ddccab2e68b3e3cc	215228705	1	main_z	11	advance_on_keypress_ZEE	116	stimuli_target_circlediamonds.svg	stimuli_distractor_trianglediamonds.svg	2	yes	57	0	354
6.6.1	and	2022-12-15	01:55:02	02:43:26	2891179	61612338ddccab2e68b3e3cc	215228705	1	main_z	11	main_z	117	stimuli_distractor_trianglediamonds.svg	stimuli_distractor_trianglediamonds.svg	34	no	44	0	614
6.6.1	and	2022-12-15	01:55:02	02:43:26	2891179	61612338ddccab2e68b3e3cc	215228705	1	main_z	11	advance_on_keypress_ZEE	118	stimuli_distractor_trianglediamonds.svg	stimuli_distractor_trianglediamonds.svg	34	no	57	0	434
6.6.1	and	2022-12-15	01:55:02	02:43:28	2892774	61612338ddccab2e68b3e3cc	215228705	1	main_z	11	main_z	119	stimuli_target_squaretriangles.svg	stimuli_distractor_trianglediamonds.svg	3	yes	44	1	436
6.6.1	and	2022-12-15	01:55:02	02:43:28	2892774	61612338ddccab2e68b3e3cc	215228705	1	main_z	11	advance_on_keypress_ZEE	120	stimuli_target_squaretriangles.svg	stimuli_distractor_trianglediamonds.svg	3	yes	57	0	348
6.6.1	and	2022-12-15	01:55:02	02:43:29	2894287	61612338ddccab2e68b3e3cc	215228705	1	main_z	11	main_z	121	stimuli_target_trianglesquares.svg	stimuli_distractor_diamondtriangles.svg	22	yes	44	1	439
6.6.1	and	2022-12-15	01:55:02	02:43:29	2894287	61612338ddccab2e68b3e3cc	215228705	1	main_z	11	advance_on_keypress_ZEE	122	stimuli_target_trianglesquares.svg	stimuli_distractor_diamondtriangles.svg	22	yes	57	0	1389
6.6.1	and	2022-12-15	01:55:02	02:43:32	2897155	61612338ddccab2e68b3e3cc	215228705	1	main_z	11	main_z	123	stimuli_distractor_trianglediamonds.svg	stimuli_target_trianglecircles.svg	25	yes	44	1	750
6.6.1	and	2022-12-15	01:55:02	02:43:32	2897155	61612338ddccab2e68b3e3cc	215228705	1	main_z	11	advance_on_keypress_ZEE	124	stimuli_distractor_trianglediamonds.svg	stimuli_target_trianglecircles.svg	25	yes	57	0	511
6.6.1	and	2022-12-15	01:55:02	02:43:35	2899979	61612338ddccab2e68b3e3cc	215228705	1	main_z	11	main_z	125	stimuli_target_diamondsquares.svg	stimuli_distractor_trianglediamonds.svg	20	yes	44	1	1584
6.6.1	and	2022-12-15	01:55:02	02:43:35	2899979	61612338ddccab2e68b3e3cc	215228705	1	main_z	11	advance_on_keypress_ZEE	126	stimuli_target_diamondsquares.svg	stimuli_distractor_trianglediamonds.svg	20	yes	57	0	202
6.6.1	and	2022-12-15	01:55:02	02:43:36	2901314	61612338ddccab2e68b3e3cc	215228705	1	main_z	11	main_z	127	stimuli_target_squaretriangles.svg	stimuli_distractor_diamondtriangles.svg	7	yes	44	1	415
6.6.1	and	2022-12-15	01:55:02	02:43:36	2901314	61612338ddccab2e68b3e3cc	215228705	1	main_z	11	advance_on_keypress_ZEE	128	stimuli_target_squaretriangles.svg	stimuli_distractor_diamondtriangles.svg	7	yes	57	0	492
6.6.1	and	2022-12-15	01:55:02	02:43:38	2902969	61612338ddccab2e68b3e3cc	215228705	1	main_z	11	main_z	129	stimuli_distractor_diamondtriangles.svg	stimuli_target_circletriangles.svg	13	yes	44	1	429
6.6.1	and	2022-12-15	01:55:02	02:43:38	2902969	61612338ddccab2e68b3e3cc	215228705	1	main_z	11	advance_on_keypress_ZEE	130	stimuli_distractor_diamondtriangles.svg	stimuli_target_circletriangles.svg	13	yes	57	0	671
6.6.1	and	2022-12-15	01:55:02	02:43:40	2904926	61612338ddccab2e68b3e3cc	215228705	1	main_z	11	main_z	131	stimuli_distractor_diamondtriangles.svg	stimuli_target_squaretriangles.svg	15	yes	44	1	563
6.6.1	and	2022-12-15	01:55:02	02:43:40	2904926	61612338ddccab2e68b3e3cc	215228705	1	main_z	11	advance_on_keypress_ZEE	132	stimuli_distractor_diamondtriangles.svg	stimuli_target_squaretriangles.svg	15	yes	57	0	646
6.6.1	and	2022-12-15	01:55:02	02:43:42	2906757	61612338ddccab2e68b3e3cc	215228705	1	main_z	11	main_z	133	stimuli_target_diamondcircles.svg	stimuli_distractor_diamondtriangles.svg	23	yes	44	1	467
6.6.1	and	2022-12-15	01:55:02	02:43:42	2906757	61612338ddccab2e68b3e3cc	215228705	1	main_z	11	advance_on_keypress_ZEE	134	stimuli_target_diamondcircles.svg	stimuli_distractor_diamondtriangles.svg	23	yes	57	0	852
6.6.1	and	2022-12-15	01:55:02	02:43:44	2908797	61612338ddccab2e68b3e3cc	215228705	1	main_z	11	main_z	135	stimuli_distractor_trianglediamonds.svg	stimuli_target_circlediamonds.svg	10	yes	44	1	454
6.6.1	and	2022-12-15	01:55:02	02:43:44	2908797	61612338ddccab2e68b3e3cc	215228705	1	main_z	11	advance_on_keypress_ZEE	136	stimuli_distractor_trianglediamonds.svg	stimuli_target_circlediamonds.svg	10	yes	57	0	547
6.6.1	and	2022-12-15	01:55:02	02:43:46	2910644	61612338ddccab2e68b3e3cc	215228705	1	main_z	11	main_z	137	stimuli_distractor_trianglediamonds.svg	stimuli_target_trianglesquares.svg	26	yes	44	1	559
6.6.1	and	2022-12-15	01:55:02	02:43:46	2910644	61612338ddccab2e68b3e3cc	215228705	1	main_z	11	advance_on_keypress_ZEE	138	stimuli_distractor_trianglediamonds.svg	stimuli_target_trianglesquares.svg	26	yes	57	0	463
6.6.1	and	2022-12-15	01:55:02	02:43:48	2912797	61612338ddccab2e68b3e3cc	215228705	1	main_z	11	main_z	139	stimuli_distractor_trianglediamonds.svg	stimuli_target_circletriangles.svg	9	yes	44	1	970
6.6.1	and	2022-12-15	01:55:02	02:43:48	2912797	61612338ddccab2e68b3e3cc	215228705	1	main_z	11	advance_on_keypress_ZEE	140	stimuli_distractor_trianglediamonds.svg	stimuli_target_circletriangles.svg	9	yes	57	0	562
6.6.1	and	2022-12-15	01:55:02	02:43:50	2914603	61612338ddccab2e68b3e3cc	215228705	1	main_z	11	main_z	141	stimuli_target_squarediamonds.svg	stimuli_distractor_diamondtriangles.svg	8	yes	44	1	518
6.6.1	and	2022-12-15	01:55:02	02:43:50	2914603	61612338ddccab2e68b3e3cc	215228705	1	main_z	11	advance_on_keypress_ZEE	142	stimuli_target_squarediamonds.svg	stimuli_distractor_diamondtriangles.svg	8	yes	57	0	502
6.6.1	and	2022-12-15	01:55:02	02:43:51	2916336	61612338ddccab2e68b3e3cc	215228705	1	main_z	11	main_z	143	stimuli_distractor_trianglediamonds.svg	stimuli_target_diamondsquares.svg	28	yes	44	1	510
6.6.1	and	2022-12-15	01:55:02	02:43:51	2916336	61612338ddccab2e68b3e3cc	215228705	1	main_z	11	advance_on_keypress_ZEE	144	stimuli_distractor_trianglediamonds.svg	stimuli_target_diamondsquares.svg	28	yes	57	0	570
6.6.1	and	2022-12-15	01:55:02	02:43:53	2918039	61612338ddccab2e68b3e3cc	215228705	1	main_z	11	main_z	145	stimuli_target_diamondcircles.svg	stimuli_distractor_trianglediamonds.svg	19	yes	44	1	424
6.6.1	and	2022-12-15	01:55:02	02:43:53	2918039	61612338ddccab2e68b3e3cc	215228705	1	main_z	11	advance_on_keypress_ZEE	146	stimuli_target_diamondcircles.svg	stimuli_distractor_trianglediamonds.svg	19	yes	57	0	469
6.6.1	and	2022-12-15	01:55:02	02:43:55	2919769	61612338ddccab2e68b3e3cc	215228705	1	main_z	11	main_z	147	stimuli_target_trianglecircles.svg	stimuli_distractor_diamondtriangles.svg	21	yes	44	1	544
6.6.1	and	2022-12-15	01:55:02	02:43:55	2919769	61612338ddccab2e68b3e3cc	215228705	1	main_z	11	advance_on_keypress_ZEE	148	stimuli_target_trianglecircles.svg	stimuli_distractor_diamondtriangles.svg	21	yes	57	0	607
6.6.1	and	2022-12-15	01:55:02	02:43:57	2921554	61612338ddccab2e68b3e3cc	215228705	1	main_z	11	main_z	149	stimuli_distractor_diamondtriangles.svg	stimuli_distractor_trianglediamonds.svg	38	no	44	0	456
6.6.1	and	2022-12-15	01:55:02	02:43:57	2921554	61612338ddccab2e68b3e3cc	215228705	1	main_z	11	advance_on_keypress_ZEE	150	stimuli_distractor_diamondtriangles.svg	stimuli_distractor_trianglediamonds.svg	38	no	57	0	694
6.6.1	and	2022-12-15	01:55:02	02:43:59	2923490	61612338ddccab2e68b3e3cc	215228705	1	main_z	11	main_z	151	stimuli_distractor_diamondtriangles.svg	stimuli_distractor_trianglediamonds.svg	37	no	44	0	483
6.6.1	and	2022-12-15	01:55:02	02:43:59	2923490	61612338ddccab2e68b3e3cc	215228705	1	main_z	11	advance_on_keypress_ZEE	152	stimuli_distractor_diamondtriangles.svg	stimuli_distractor_trianglediamonds.svg	37	no	57	0	1209
6.6.1	and	2022-12-15	01:55:02	02:44:01	2925966	61612338ddccab2e68b3e3cc	215228705	1	main_z	11	main_z	153	stimuli_distractor_trianglediamonds.svg	stimuli_target_squaretriangles.svg	11	yes	44	1	539
6.6.1	and	2022-12-15	01:55:02	02:44:01	2925966	61612338ddccab2e68b3e3cc	215228705	1	main_z	11	advance_on_keypress_ZEE	154	stimuli_distractor_trianglediamonds.svg	stimuli_target_squaretriangles.svg	11	yes	57	0	735
6.6.1	and	2022-12-15	01:55:02	02:44:03	2927858	61612338ddccab2e68b3e3cc	215228705	1	main_z	11	main_z	155	stimuli_distractor_diamondtriangles.svg	stimuli_target_diamondcircles.svg	31	yes	44	1	442
6.6.1	and	2022-12-15	01:55:02	02:44:03	2927858	61612338ddccab2e68b3e3cc	215228705	1	main_z	11	advance_on_keypress_ZEE	156	stimuli_distractor_diamondtriangles.svg	stimuli_target_diamondcircles.svg	31	yes	57	0	474
6.6.1	and	2022-12-15	01:55:02	02:44:05	2929503	61612338ddccab2e68b3e3cc	215228705	1	main_z	11	main_z	157	stimuli_target_circletriangles.svg	stimuli_distractor_diamondtriangles.svg	5	yes	44	1	442
6.6.1	and	2022-12-15	01:55:02	02:44:05	2929503	61612338ddccab2e68b3e3cc	215228705	1	main_z	11	advance_on_keypress_ZEE	158	stimuli_target_circletriangles.svg	stimuli_distractor_diamondtriangles.svg	5	yes	57	0	551
6.6.1	and	2022-12-15	01:55:02	02:44:06	2931225	61612338ddccab2e68b3e3cc	215228705	1	main_z	11	main_z	159	stimuli_target_squarediamonds.svg	stimuli_distractor_trianglediamonds.svg	4	yes	44	1	460
6.6.1	and	2022-12-15	01:55:02	02:44:06	2931225	61612338ddccab2e68b3e3cc	215228705	1	main_z	11	advance_on_keypress_ZEE	160	stimuli_target_squarediamonds.svg	stimuli_distractor_trianglediamonds.svg	4	yes	57	0	553