build	computer.platform	date	time	timestamp	time_elapsed_ms	subject	group	session	blockcode	blocknum	trialcode	trialnum	stimulus_left	stimulus_right	stim_index	target_present	response	correct	latency
6.6.1	win	2022-12-14	13:51:50	13:54:33	160844	6108553abbf7a922fb6cfa3a	132221194	1	practice_z	5	practice_z	1	stimuli_distractor_diamondtriangles.svg	stimuli_target_diamondcircles.svg	8	yes	0	0	2000
6.6.1	win	2022-12-14	13:51:50	13:54:33	160844	6108553abbf7a922fb6cfa3a	132221194	1	practice_z	5	advance_on_keypress_ZEE	2	stimuli_distractor_diamondtriangles.svg	stimuli_target_diamondcircles.svg	8	yes	57	0	2761
6.6.1	win	2022-12-14	13:51:50	13:54:39	167142	6108553abbf7a922fb6cfa3a	132221194	1	practice_z	5	practice_z	3	stimuli_distractor_trianglediamonds.svg	stimuli_distractor_trianglediamonds.svg	15	no	44	0	1854
6.6.1	win	2022-12-14	13:51:50	13:54:39	167142	6108553abbf7a922fb6cfa3a	132221194	1	practice_z	5	advance_on_keypress_ZEE	4	stimuli_distractor_trianglediamonds.svg	stimuli_distractor_trianglediamonds.svg	15	no	57	0	1543
6.6.1	win	2022-12-14	13:51:50	13:54:44	172343	6108553abbf7a922fb6cfa3a	132221194	1	practice_z	5	practice_z	5	stimuli_distractor_trianglediamonds.svg	stimuli_target_circlediamonds.svg	10	yes	44	1	1991
6.6.1	win	2022-12-14	13:51:50	13:54:44	172343	6108553abbf7a922fb6cfa3a	132221194	1	practice_z	5	advance_on_keypress_ZEE	6	stimuli_distractor_trianglediamonds.svg	stimuli_target_circlediamonds.svg	10	yes	57	0	1123
6.6.1	win	2022-12-14	13:51:50	13:54:49	177129	6108553abbf7a922fb6cfa3a	132221194	1	practice_z	5	practice_z	7	stimuli_target_diamondsquares.svg	stimuli_distractor_diamondtriangles.svg	3	yes	0	0	2000
6.6.1	win	2022-12-14	13:51:50	13:54:49	177129	6108553abbf7a922fb6cfa3a	132221194	1	practice_z	5	advance_on_keypress_ZEE	8	stimuli_target_diamondsquares.svg	stimuli_distractor_diamondtriangles.svg	3	yes	57	0	676
6.6.1	win	2022-12-14	13:51:50	13:54:53	181486	6108553abbf7a922fb6cfa3a	132221194	1	practice_z	5	practice_z	9	stimuli_distractor_diamondtriangles.svg	stimuli_target_trianglecircles.svg	9	yes	0	0	2000
6.6.1	win	2022-12-14	13:51:50	13:54:53	181486	6108553abbf7a922fb6cfa3a	132221194	1	practice_z	5	advance_on_keypress_ZEE	10	stimuli_distractor_diamondtriangles.svg	stimuli_target_trianglecircles.svg	9	yes	57	0	549
6.6.1	win	2022-12-14	13:51:50	13:54:57	185701	6108553abbf7a922fb6cfa3a	132221194	1	practice_z	5	practice_z	11	stimuli_target_diamondsquares.svg	stimuli_distractor_trianglediamonds.svg	6	yes	0	0	2000
6.6.1	win	2022-12-14	13:51:50	13:54:57	185701	6108553abbf7a922fb6cfa3a	132221194	1	practice_z	5	advance_on_keypress_ZEE	12	stimuli_target_diamondsquares.svg	stimuli_distractor_trianglediamonds.svg	6	yes	57	0	1465
6.6.1	win	2022-12-14	13:51:50	13:55:03	190845	6108553abbf7a922fb6cfa3a	132221194	1	practice_z	5	practice_z	13	stimuli_distractor_trianglediamonds.svg	stimuli_distractor_diamondtriangles.svg	16	no	0	1	2000
6.6.1	win	2022-12-14	13:51:50	13:55:03	190845	6108553abbf7a922fb6cfa3a	132221194	1	practice_z	5	advance_on_keypress_ZEE	14	stimuli_distractor_trianglediamonds.svg	stimuli_distractor_diamondtriangles.svg	16	no	57	0	1001
6.6.1	win	2022-12-14	13:51:50	13:55:06	194462	6108553abbf7a922fb6cfa3a	132221194	1	practice_z	5	practice_z	15	stimuli_target_circlediamonds.svg	stimuli_distractor_trianglediamonds.svg	4	yes	44	1	951
6.6.1	win	2022-12-14	13:51:50	13:55:06	194462	6108553abbf7a922fb6cfa3a	132221194	1	practice_z	5	advance_on_keypress_ZEE	16	stimuli_target_circlediamonds.svg	stimuli_distractor_trianglediamonds.svg	4	yes	57	0	1213
6.6.1	win	2022-12-14	13:51:50	13:55:10	198422	6108553abbf7a922fb6cfa3a	132221194	1	practice_z	5	practice_z	17	stimuli_distractor_trianglediamonds.svg	stimuli_target_squarediamonds.svg	11	yes	44	1	1081
6.6.1	win	2022-12-14	13:51:50	13:55:10	198422	6108553abbf7a922fb6cfa3a	132221194	1	practice_z	5	advance_on_keypress_ZEE	18	stimuli_distractor_trianglediamonds.svg	stimuli_target_squarediamonds.svg	11	yes	57	0	697
6.6.1	win	2022-12-14	13:51:50	13:55:14	201712	6108553abbf7a922fb6cfa3a	132221194	1	practice_z	5	practice_z	19	stimuli_distractor_diamondtriangles.svg	stimuli_target_circletriangles.svg	7	yes	44	1	894
6.6.1	win	2022-12-14	13:51:50	13:55:14	201712	6108553abbf7a922fb6cfa3a	132221194	1	practice_z	5	advance_on_keypress_ZEE	20	stimuli_distractor_diamondtriangles.svg	stimuli_target_circletriangles.svg	7	yes	57	0	904
6.6.1	win	2022-12-14	13:51:50	13:55:17	205283	6108553abbf7a922fb6cfa3a	132221194	1	practice_z	5	practice_z	21	stimuli_target_squarediamonds.svg	stimuli_distractor_diamondtriangles.svg	2	yes	44	1	1001
6.6.1	win	2022-12-14	13:51:50	13:55:17	205283	6108553abbf7a922fb6cfa3a	132221194	1	practice_z	5	advance_on_keypress_ZEE	22	stimuli_target_squarediamonds.svg	stimuli_distractor_diamondtriangles.svg	2	yes	57	0	683
6.6.1	win	2022-12-14	13:51:50	13:55:21	209633	6108553abbf7a922fb6cfa3a	132221194	1	practice_z	5	practice_z	23	stimuli_distractor_diamondtriangles.svg	stimuli_distractor_diamondtriangles.svg	13	no	0	1	2000
6.6.1	win	2022-12-14	13:51:50	13:55:21	209633	6108553abbf7a922fb6cfa3a	132221194	1	practice_z	5	advance_on_keypress_ZEE	24	stimuli_distractor_diamondtriangles.svg	stimuli_distractor_diamondtriangles.svg	13	no	57	0	1134
6.6.1	win	2022-12-14	13:51:50	13:55:26	214451	6108553abbf7a922fb6cfa3a	132221194	1	practice_z	5	practice_z	25	stimuli_distractor_diamondtriangles.svg	stimuli_distractor_trianglediamonds.svg	14	no	0	1	2000
6.6.1	win	2022-12-14	13:51:50	13:55:26	214451	6108553abbf7a922fb6cfa3a	132221194	1	practice_z	5	advance_on_keypress_ZEE	26	stimuli_distractor_diamondtriangles.svg	stimuli_distractor_trianglediamonds.svg	14	no	57	0	626
6.6.1	win	2022-12-14	13:51:50	13:55:29	217496	6108553abbf7a922fb6cfa3a	132221194	1	practice_z	5	practice_z	27	stimuli_target_circlediamonds.svg	stimuli_distractor_diamondtriangles.svg	1	yes	44	1	751
6.6.1	win	2022-12-14	13:51:50	13:55:29	217496	6108553abbf7a922fb6cfa3a	132221194	1	practice_z	5	advance_on_keypress_ZEE	28	stimuli_target_circlediamonds.svg	stimuli_distractor_diamondtriangles.svg	1	yes	57	0	861
6.6.1	win	2022-12-14	13:51:50	13:55:33	221607	6108553abbf7a922fb6cfa3a	132221194	1	practice_z	5	practice_z	29	stimuli_distractor_trianglediamonds.svg	stimuli_target_diamondcircles.svg	12	yes	44	1	1581
6.6.1	win	2022-12-14	13:51:50	13:55:33	221607	6108553abbf7a922fb6cfa3a	132221194	1	practice_z	5	advance_on_keypress_ZEE	30	stimuli_distractor_trianglediamonds.svg	stimuli_target_diamondcircles.svg	12	yes	57	0	567
6.6.1	win	2022-12-14	13:51:50	13:55:37	224964	6108553abbf7a922fb6cfa3a	132221194	1	practice_z	5	practice_z	31	stimuli_target_squarediamonds.svg	stimuli_distractor_trianglediamonds.svg	5	yes	44	1	1041
6.6.1	win	2022-12-14	13:51:50	13:55:37	224964	6108553abbf7a922fb6cfa3a	132221194	1	practice_z	5	advance_on_keypress_ZEE	32	stimuli_target_squarediamonds.svg	stimuli_distractor_trianglediamonds.svg	5	yes	57	0	623
6.6.1	win	2022-12-14	13:51:50	13:56:05	253339	6108553abbf7a922fb6cfa3a	132221194	1	main_z	7	main_z	1	stimuli_distractor_diamondtriangles.svg	stimuli_target_trianglecircles.svg	29	yes	44	1	1012
6.6.1	win	2022-12-14	13:51:50	13:56:05	253339	6108553abbf7a922fb6cfa3a	132221194	1	main_z	7	advance_on_keypress_ZEE	2	stimuli_distractor_diamondtriangles.svg	stimuli_target_trianglecircles.svg	29	yes	57	0	748
6.6.1	win	2022-12-14	13:51:50	13:56:08	256188	6108553abbf7a922fb6cfa3a	132221194	1	main_z	7	main_z	3	stimuli_target_diamondcircles.svg	stimuli_distractor_trianglediamonds.svg	19	yes	44	1	1441
6.6.1	win	2022-12-14	13:51:50	13:56:08	256188	6108553abbf7a922fb6cfa3a	132221194	1	main_z	7	advance_on_keypress_ZEE	4	stimuli_target_diamondcircles.svg	stimuli_distractor_trianglediamonds.svg	19	yes	57	0	1038
6.6.1	win	2022-12-14	13:51:50	13:56:10	258689	6108553abbf7a922fb6cfa3a	132221194	1	main_z	7	main_z	5	stimuli_distractor_diamondtriangles.svg	stimuli_target_squarediamonds.svg	16	yes	44	1	801
6.6.1	win	2022-12-14	13:51:50	13:56:10	258689	6108553abbf7a922fb6cfa3a	132221194	1	main_z	7	advance_on_keypress_ZEE	6	stimuli_distractor_diamondtriangles.svg	stimuli_target_squarediamonds.svg	16	yes	57	0	518
6.6.1	win	2022-12-14	13:51:50	13:56:13	260830	6108553abbf7a922fb6cfa3a	132221194	1	main_z	7	main_z	7	stimuli_target_trianglesquares.svg	stimuli_distractor_trianglediamonds.svg	18	yes	44	1	961
6.6.1	win	2022-12-14	13:51:50	13:56:13	260830	6108553abbf7a922fb6cfa3a	132221194	1	main_z	7	advance_on_keypress_ZEE	8	stimuli_target_trianglesquares.svg	stimuli_distractor_trianglediamonds.svg	18	yes	57	0	777
6.6.1	win	2022-12-14	13:51:50	13:56:15	263209	6108553abbf7a922fb6cfa3a	132221194	1	main_z	7	main_z	9	stimuli_target_circletriangles.svg	stimuli_distractor_trianglediamonds.svg	1	yes	44	1	941
6.6.1	win	2022-12-14	13:51:50	13:56:15	263209	6108553abbf7a922fb6cfa3a	132221194	1	main_z	7	advance_on_keypress_ZEE	10	stimuli_target_circletriangles.svg	stimuli_distractor_trianglediamonds.svg	1	yes	57	0	718
6.6.1	win	2022-12-14	13:51:50	13:56:17	265649	6108553abbf7a922fb6cfa3a	132221194	1	main_z	7	main_z	11	stimuli_target_trianglecircles.svg	stimuli_distractor_trianglediamonds.svg	17	yes	44	1	1062
6.6.1	win	2022-12-14	13:51:50	13:56:17	265649	6108553abbf7a922fb6cfa3a	132221194	1	main_z	7	advance_on_keypress_ZEE	12	stimuli_target_trianglecircles.svg	stimuli_distractor_trianglediamonds.svg	17	yes	57	0	567
6.6.1	win	2022-12-14	13:51:50	13:56:21	268838	6108553abbf7a922fb6cfa3a	132221194	1	main_z	7	main_z	13	stimuli_distractor_trianglediamonds.svg	stimuli_target_squaretriangles.svg	11	yes	44	1	1961
6.6.1	win	2022-12-14	13:51:50	13:56:21	268838	6108553abbf7a922fb6cfa3a	132221194	1	main_z	7	advance_on_keypress_ZEE	14	stimuli_distractor_trianglediamonds.svg	stimuli_target_squaretriangles.svg	11	yes	57	0	328
6.6.1	win	2022-12-14	13:51:50	13:56:24	271827	6108553abbf7a922fb6cfa3a	132221194	1	main_z	7	main_z	15	stimuli_target_diamondsquares.svg	stimuli_distractor_diamondtriangles.svg	24	yes	0	0	2000
6.6.1	win	2022-12-14	13:51:50	13:56:24	271827	6108553abbf7a922fb6cfa3a	132221194	1	main_z	7	advance_on_keypress_ZEE	16	stimuli_target_diamondsquares.svg	stimuli_distractor_diamondtriangles.svg	24	yes	57	0	764
6.6.1	win	2022-12-14	13:51:50	13:56:26	273909	6108553abbf7a922fb6cfa3a	132221194	1	main_z	7	main_z	17	stimuli_distractor_trianglediamonds.svg	stimuli_target_circlediamonds.svg	10	yes	44	1	656
6.6.1	win	2022-12-14	13:51:50	13:56:26	273909	6108553abbf7a922fb6cfa3a	132221194	1	main_z	7	advance_on_keypress_ZEE	18	stimuli_distractor_trianglediamonds.svg	stimuli_target_circlediamonds.svg	10	yes	57	0	649
6.6.1	win	2022-12-14	13:51:50	13:56:28	275808	6108553abbf7a922fb6cfa3a	132221194	1	main_z	7	main_z	19	stimuli_target_squaretriangles.svg	stimuli_distractor_diamondtriangles.svg	7	yes	44	1	591
6.6.1	win	2022-12-14	13:51:50	13:56:28	275808	6108553abbf7a922fb6cfa3a	132221194	1	main_z	7	advance_on_keypress_ZEE	20	stimuli_target_squaretriangles.svg	stimuli_distractor_diamondtriangles.svg	7	yes	57	0	675
6.6.1	win	2022-12-14	13:51:50	13:56:31	279137	6108553abbf7a922fb6cfa3a	132221194	1	main_z	7	main_z	21	stimuli_distractor_diamondtriangles.svg	stimuli_target_diamondsquares.svg	32	yes	0	0	2000
6.6.1	win	2022-12-14	13:51:50	13:56:31	279137	6108553abbf7a922fb6cfa3a	132221194	1	main_z	7	advance_on_keypress_ZEE	22	stimuli_distractor_diamondtriangles.svg	stimuli_target_diamondsquares.svg	32	yes	57	0	620
6.6.1	win	2022-12-14	13:51:50	13:56:34	282407	6108553abbf7a922fb6cfa3a	132221194	1	main_z	7	main_z	23	stimuli_distractor_trianglediamonds.svg	stimuli_target_trianglecircles.svg	25	yes	0	0	2000
6.6.1	win	2022-12-14	13:51:50	13:56:34	282407	6108553abbf7a922fb6cfa3a	132221194	1	main_z	7	advance_on_keypress_ZEE	24	stimuli_distractor_trianglediamonds.svg	stimuli_target_trianglecircles.svg	25	yes	57	0	444
6.6.1	win	2022-12-14	13:51:50	13:56:36	284499	6108553abbf7a922fb6cfa3a	132221194	1	main_z	7	main_z	25	stimuli_target_squaretriangles.svg	stimuli_distractor_trianglediamonds.svg	3	yes	44	1	991
6.6.1	win	2022-12-14	13:51:50	13:56:36	284499	6108553abbf7a922fb6cfa3a	132221194	1	main_z	7	advance_on_keypress_ZEE	26	stimuli_target_squaretriangles.svg	stimuli_distractor_trianglediamonds.svg	3	yes	57	0	1037
6.6.1	win	2022-12-14	13:51:50	13:56:39	287109	6108553abbf7a922fb6cfa3a	132221194	1	main_z	7	main_z	27	stimuli_target_circlediamonds.svg	stimuli_distractor_diamondtriangles.svg	6	yes	44	1	912
6.6.1	win	2022-12-14	13:51:50	13:56:39	287109	6108553abbf7a922fb6cfa3a	132221194	1	main_z	7	advance_on_keypress_ZEE	28	stimuli_target_circlediamonds.svg	stimuli_distractor_diamondtriangles.svg	6	yes	57	0	627
6.6.1	win	2022-12-14	13:51:50	13:56:41	289549	6108553abbf7a922fb6cfa3a	132221194	1	main_z	7	main_z	29	stimuli_target_squarediamonds.svg	stimuli_distractor_diamondtriangles.svg	8	yes	44	1	1151
6.6.1	win	2022-12-14	13:51:50	13:56:41	289549	6108553abbf7a922fb6cfa3a	132221194	1	main_z	7	advance_on_keypress_ZEE	30	stimuli_target_squarediamonds.svg	stimuli_distractor_diamondtriangles.svg	8	yes	57	0	407
6.6.1	win	2022-12-14	13:51:50	13:56:44	292618	6108553abbf7a922fb6cfa3a	132221194	1	main_z	7	main_z	31	stimuli_distractor_trianglediamonds.svg	stimuli_distractor_diamondtriangles.svg	35	no	0	1	2000
6.6.1	win	2022-12-14	13:51:50	13:56:44	292618	6108553abbf7a922fb6cfa3a	132221194	1	main_z	7	advance_on_keypress_ZEE	32	stimuli_distractor_trianglediamonds.svg	stimuli_distractor_diamondtriangles.svg	35	no	57	0	499
6.6.1	win	2022-12-14	13:51:50	13:56:46	294619	6108553abbf7a922fb6cfa3a	132221194	1	main_z	7	main_z	33	stimuli_target_circletriangles.svg	stimuli_distractor_diamondtriangles.svg	5	yes	44	1	851
6.6.1	win	2022-12-14	13:51:50	13:56:46	294619	6108553abbf7a922fb6cfa3a	132221194	1	main_z	7	advance_on_keypress_ZEE	34	stimuli_target_circletriangles.svg	stimuli_distractor_diamondtriangles.svg	5	yes	57	0	568
6.6.1	win	2022-12-14	13:51:50	13:56:49	296939	6108553abbf7a922fb6cfa3a	132221194	1	main_z	7	main_z	35	stimuli_distractor_diamondtriangles.svg	stimuli_target_circlediamonds.svg	14	yes	44	1	1091
6.6.1	win	2022-12-14	13:51:50	13:56:49	296939	6108553abbf7a922fb6cfa3a	132221194	1	main_z	7	advance_on_keypress_ZEE	36	stimuli_distractor_diamondtriangles.svg	stimuli_target_circlediamonds.svg	14	yes	57	0	737
6.6.1	win	2022-12-14	13:51:50	13:56:52	300337	6108553abbf7a922fb6cfa3a	132221194	1	main_z	7	main_z	37	stimuli_distractor_trianglediamonds.svg	stimuli_distractor_trianglediamonds.svg	33	no	0	1	2000
6.6.1	win	2022-12-14	13:51:50	13:56:52	300337	6108553abbf7a922fb6cfa3a	132221194	1	main_z	7	advance_on_keypress_ZEE	38	stimuli_distractor_trianglediamonds.svg	stimuli_distractor_trianglediamonds.svg	33	no	57	0	581
6.6.1	win	2022-12-14	13:51:50	13:56:54	302289	6108553abbf7a922fb6cfa3a	132221194	1	main_z	7	main_z	39	stimuli_distractor_trianglediamonds.svg	stimuli_target_squarediamonds.svg	12	yes	44	1	721
6.6.1	win	2022-12-14	13:51:50	13:56:54	302289	6108553abbf7a922fb6cfa3a	132221194	1	main_z	7	advance_on_keypress_ZEE	40	stimuli_distractor_trianglediamonds.svg	stimuli_target_squarediamonds.svg	12	yes	57	0	568
6.6.1	win	2022-12-14	13:51:50	13:56:57	305517	6108553abbf7a922fb6cfa3a	132221194	1	main_z	7	main_z	41	stimuli_distractor_diamondtriangles.svg	stimuli_distractor_diamondtriangles.svg	39	no	0	1	2000
6.6.1	win	2022-12-14	13:51:50	13:56:57	305517	6108553abbf7a922fb6cfa3a	132221194	1	main_z	7	advance_on_keypress_ZEE	42	stimuli_distractor_diamondtriangles.svg	stimuli_distractor_diamondtriangles.svg	39	no	57	0	631
6.6.1	win	2022-12-14	13:51:50	13:56:59	307459	6108553abbf7a922fb6cfa3a	132221194	1	main_z	7	main_z	43	stimuli_distractor_trianglediamonds.svg	stimuli_target_circletriangles.svg	9	yes	44	1	661
6.6.1	win	2022-12-14	13:51:50	13:56:59	307459	6108553abbf7a922fb6cfa3a	132221194	1	main_z	7	advance_on_keypress_ZEE	44	stimuli_distractor_trianglediamonds.svg	stimuli_target_circletriangles.svg	9	yes	57	0	388
6.6.1	win	2022-12-14	13:51:50	13:57:01	309339	6108553abbf7a922fb6cfa3a	132221194	1	main_z	7	main_z	45	stimuli_distractor_diamondtriangles.svg	stimuli_target_squaretriangles.svg	15	yes	44	1	831
6.6.1	win	2022-12-14	13:51:50	13:57:01	309339	6108553abbf7a922fb6cfa3a	132221194	1	main_z	7	advance_on_keypress_ZEE	46	stimuli_distractor_diamondtriangles.svg	stimuli_target_squaretriangles.svg	15	yes	57	0	317
6.6.1	win	2022-12-14	13:51:50	13:57:03	311339	6108553abbf7a922fb6cfa3a	132221194	1	main_z	7	main_z	47	stimuli_target_circlediamonds.svg	stimuli_distractor_trianglediamonds.svg	2	yes	44	1	1021
6.6.1	win	2022-12-14	13:51:50	13:57:03	311339	6108553abbf7a922fb6cfa3a	132221194	1	main_z	7	advance_on_keypress_ZEE	48	stimuli_target_circlediamonds.svg	stimuli_distractor_trianglediamonds.svg	2	yes	57	0	317
6.6.1	win	2022-12-14	13:51:50	13:57:05	313550	6108553abbf7a922fb6cfa3a	132221194	1	main_z	7	main_z	49	stimuli_distractor_diamondtriangles.svg	stimuli_target_trianglesquares.svg	30	yes	44	1	1232
6.6.1	win	2022-12-14	13:51:50	13:57:05	313550	6108553abbf7a922fb6cfa3a	132221194	1	main_z	7	advance_on_keypress_ZEE	50	stimuli_distractor_diamondtriangles.svg	stimuli_target_trianglesquares.svg	30	yes	57	0	886
6.6.1	win	2022-12-14	13:51:50	13:57:09	316739	6108553abbf7a922fb6cfa3a	132221194	1	main_z	7	main_z	51	stimuli_target_trianglesquares.svg	stimuli_distractor_diamondtriangles.svg	22	yes	44	1	1641
6.6.1	win	2022-12-14	13:51:50	13:57:09	316739	6108553abbf7a922fb6cfa3a	132221194	1	main_z	7	advance_on_keypress_ZEE	52	stimuli_target_trianglesquares.svg	stimuli_distractor_diamondtriangles.svg	22	yes	57	0	707
6.6.1	win	2022-12-14	13:51:50	13:57:11	319099	6108553abbf7a922fb6cfa3a	132221194	1	main_z	7	main_z	53	stimuli_target_trianglecircles.svg	stimuli_distractor_diamondtriangles.svg	21	yes	44	1	991
6.6.1	win	2022-12-14	13:51:50	13:57:11	319099	6108553abbf7a922fb6cfa3a	132221194	1	main_z	7	advance_on_keypress_ZEE	54	stimuli_target_trianglecircles.svg	stimuli_distractor_diamondtriangles.svg	21	yes	57	0	247
6.6.1	win	2022-12-14	13:51:50	13:57:14	322007	6108553abbf7a922fb6cfa3a	132221194	1	main_z	7	main_z	55	stimuli_distractor_trianglediamonds.svg	stimuli_target_diamondsquares.svg	28	yes	0	0	2000
6.6.1	win	2022-12-14	13:51:50	13:57:14	322007	6108553abbf7a922fb6cfa3a	132221194	1	main_z	7	advance_on_keypress_ZEE	56	stimuli_distractor_trianglediamonds.svg	stimuli_target_diamondsquares.svg	28	yes	57	0	478
6.6.1	win	2022-12-14	13:51:50	13:57:16	324030	6108553abbf7a922fb6cfa3a	132221194	1	main_z	7	main_z	57	stimuli_target_diamondsquares.svg	stimuli_distractor_trianglediamonds.svg	20	yes	44	1	892
6.6.1	win	2022-12-14	13:51:50	13:57:16	324030	6108553abbf7a922fb6cfa3a	132221194	1	main_z	7	advance_on_keypress_ZEE	58	stimuli_target_diamondsquares.svg	stimuli_distractor_trianglediamonds.svg	20	yes	57	0	368
6.6.1	win	2022-12-14	13:51:50	13:57:18	326450	6108553abbf7a922fb6cfa3a	132221194	1	main_z	7	main_z	59	stimuli_target_squarediamonds.svg	stimuli_distractor_trianglediamonds.svg	4	yes	44	1	1391
6.6.1	win	2022-12-14	13:51:50	13:57:18	326450	6108553abbf7a922fb6cfa3a	132221194	1	main_z	7	advance_on_keypress_ZEE	60	stimuli_target_squarediamonds.svg	stimuli_distractor_trianglediamonds.svg	4	yes	57	0	437
6.6.1	win	2022-12-14	13:51:50	13:57:21	329548	6108553abbf7a922fb6cfa3a	132221194	1	main_z	7	main_z	61	stimuli_distractor_trianglediamonds.svg	stimuli_distractor_diamondtriangles.svg	36	no	0	1	2000
6.6.1	win	2022-12-14	13:51:50	13:57:21	329548	6108553abbf7a922fb6cfa3a	132221194	1	main_z	7	advance_on_keypress_ZEE	62	stimuli_distractor_trianglediamonds.svg	stimuli_distractor_diamondtriangles.svg	36	no	57	0	539
6.6.1	win	2022-12-14	13:51:50	13:57:25	332738	6108553abbf7a922fb6cfa3a	132221194	1	main_z	7	main_z	63	stimuli_distractor_diamondtriangles.svg	stimuli_distractor_diamondtriangles.svg	40	no	0	1	2000
6.6.1	win	2022-12-14	13:51:50	13:57:25	332738	6108553abbf7a922fb6cfa3a	132221194	1	main_z	7	advance_on_keypress_ZEE	64	stimuli_distractor_diamondtriangles.svg	stimuli_distractor_diamondtriangles.svg	40	no	57	0	589
6.6.1	win	2022-12-14	13:51:50	13:57:28	335988	6108553abbf7a922fb6cfa3a	132221194	1	main_z	7	main_z	65	stimuli_distractor_diamondtriangles.svg	stimuli_distractor_trianglediamonds.svg	37	no	0	1	2000
6.6.1	win	2022-12-14	13:51:50	13:57:28	335988	6108553abbf7a922fb6cfa3a	132221194	1	main_z	7	advance_on_keypress_ZEE	66	stimuli_distractor_diamondtriangles.svg	stimuli_distractor_trianglediamonds.svg	37	no	57	0	469
6.6.1	win	2022-12-14	13:51:50	13:57:30	337990	6108553abbf7a922fb6cfa3a	132221194	1	main_z	7	main_z	67	stimuli_distractor_diamondtriangles.svg	stimuli_target_circletriangles.svg	13	yes	44	1	881
6.6.1	win	2022-12-14	13:51:50	13:57:30	337990	6108553abbf7a922fb6cfa3a	132221194	1	main_z	7	advance_on_keypress_ZEE	68	stimuli_distractor_diamondtriangles.svg	stimuli_target_circletriangles.svg	13	yes	57	0	297
6.6.1	win	2022-12-14	13:51:50	13:57:33	340948	6108553abbf7a922fb6cfa3a	132221194	1	main_z	7	main_z	69	stimuli_distractor_trianglediamonds.svg	stimuli_distractor_trianglediamonds.svg	34	no	0	1	2000
6.6.1	win	2022-12-14	13:51:50	13:57:33	340948	6108553abbf7a922fb6cfa3a	132221194	1	main_z	7	advance_on_keypress_ZEE	70	stimuli_distractor_trianglediamonds.svg	stimuli_distractor_trianglediamonds.svg	34	no	57	0	546
6.6.1	win	2022-12-14	13:51:50	13:57:35	343350	6108553abbf7a922fb6cfa3a	132221194	1	main_z	7	main_z	71	stimuli_distractor_trianglediamonds.svg	stimuli_target_diamondcircles.svg	27	yes	44	1	1201
6.6.1	win	2022-12-14	13:51:50	13:57:35	343350	6108553abbf7a922fb6cfa3a	132221194	1	main_z	7	advance_on_keypress_ZEE	72	stimuli_distractor_trianglediamonds.svg	stimuli_target_diamondcircles.svg	27	yes	57	0	377
6.6.1	win	2022-12-14	13:51:50	13:57:37	345340	6108553abbf7a922fb6cfa3a	132221194	1	main_z	7	main_z	73	stimuli_distractor_trianglediamonds.svg	stimuli_target_trianglesquares.svg	26	yes	44	1	951
6.6.1	win	2022-12-14	13:51:50	13:57:37	345340	6108553abbf7a922fb6cfa3a	132221194	1	main_z	7	advance_on_keypress_ZEE	74	stimuli_distractor_trianglediamonds.svg	stimuli_target_trianglesquares.svg	26	yes	57	0	277
6.6.1	win	2022-12-14	13:51:50	13:57:39	347230	6108553abbf7a922fb6cfa3a	132221194	1	main_z	7	main_z	75	stimuli_target_diamondcircles.svg	stimuli_distractor_diamondtriangles.svg	23	yes	44	1	951
6.6.1	win	2022-12-14	13:51:50	13:57:39	347230	6108553abbf7a922fb6cfa3a	132221194	1	main_z	7	advance_on_keypress_ZEE	76	stimuli_target_diamondcircles.svg	stimuli_distractor_diamondtriangles.svg	23	yes	57	0	197
6.6.1	win	2022-12-14	13:51:50	13:57:41	348910	6108553abbf7a922fb6cfa3a	132221194	1	main_z	7	main_z	77	stimuli_distractor_diamondtriangles.svg	stimuli_target_diamondcircles.svg	31	yes	44	1	821
6.6.1	win	2022-12-14	13:51:50	13:57:41	348910	6108553abbf7a922fb6cfa3a	132221194	1	main_z	7	advance_on_keypress_ZEE	78	stimuli_distractor_diamondtriangles.svg	stimuli_target_diamondcircles.svg	31	yes	57	0	218
6.6.1	win	2022-12-14	13:51:50	13:57:44	351788	6108553abbf7a922fb6cfa3a	132221194	1	main_z	7	main_z	79	stimuli_distractor_diamondtriangles.svg	stimuli_distractor_trianglediamonds.svg	38	no	0	1	2000
6.6.1	win	2022-12-14	13:51:50	13:57:44	351788	6108553abbf7a922fb6cfa3a	132221194	1	main_z	7	advance_on_keypress_ZEE	80	stimuli_distractor_diamondtriangles.svg	stimuli_distractor_trianglediamonds.svg	38	no	57	0	483
6.6.1	win	2022-12-14	13:51:50	13:57:45	353569	6108553abbf7a922fb6cfa3a	132221194	1	main_z	7	main_z	81	stimuli_target_trianglesquares.svg	stimuli_distractor_trianglediamonds.svg	18	yes	44	1	651
6.6.1	win	2022-12-14	13:51:50	13:57:45	353569	6108553abbf7a922fb6cfa3a	132221194	1	main_z	7	advance_on_keypress_ZEE	82	stimuli_target_trianglesquares.svg	stimuli_distractor_trianglediamonds.svg	18	yes	57	0	288
6.6.1	win	2022-12-14	13:51:50	13:57:47	355330	6108553abbf7a922fb6cfa3a	132221194	1	main_z	7	main_z	83	stimuli_target_trianglecircles.svg	stimuli_distractor_diamondtriangles.svg	21	yes	44	1	812
6.6.1	win	2022-12-14	13:51:50	13:57:47	355330	6108553abbf7a922fb6cfa3a	132221194	1	main_z	7	advance_on_keypress_ZEE	84	stimuli_target_trianglecircles.svg	stimuli_distractor_diamondtriangles.svg	21	yes	57	0	268
6.6.1	win	2022-12-14	13:51:50	13:57:49	357170	6108553abbf7a922fb6cfa3a	132221194	1	main_z	7	main_z	85	stimuli_target_squaretriangles.svg	stimuli_distractor_trianglediamonds.svg	3	yes	44	1	911
6.6.1	win	2022-12-14	13:51:50	13:57:49	357170	6108553abbf7a922fb6cfa3a	132221194	1	main_z	7	advance_on_keypress_ZEE	86	stimuli_target_squaretriangles.svg	stimuli_distractor_trianglediamonds.svg	3	yes	57	0	308
6.6.1	win	2022-12-14	13:51:50	13:57:51	358950	6108553abbf7a922fb6cfa3a	132221194	1	main_z	7	main_z	87	stimuli_distractor_trianglediamonds.svg	stimuli_target_circlediamonds.svg	10	yes	44	1	812
6.6.1	win	2022-12-14	13:51:50	13:57:51	358950	6108553abbf7a922fb6cfa3a	132221194	1	main_z	7	advance_on_keypress_ZEE	88	stimuli_distractor_trianglediamonds.svg	stimuli_target_circlediamonds.svg	10	yes	57	0	278
6.6.1	win	2022-12-14	13:51:50	13:57:54	361888	6108553abbf7a922fb6cfa3a	132221194	1	main_z	7	main_z	89	stimuli_distractor_trianglediamonds.svg	stimuli_distractor_diamondtriangles.svg	35	no	0	1	2000
6.6.1	win	2022-12-14	13:51:50	13:57:54	361888	6108553abbf7a922fb6cfa3a	132221194	1	main_z	7	advance_on_keypress_ZEE	90	stimuli_distractor_trianglediamonds.svg	stimuli_distractor_diamondtriangles.svg	35	no	57	0	806
6.6.1	win	2022-12-14	13:51:50	13:57:56	364170	6108553abbf7a922fb6cfa3a	132221194	1	main_z	7	main_z	91	stimuli_distractor_diamondtriangles.svg	stimuli_target_circlediamonds.svg	14	yes	44	1	821
6.6.1	win	2022-12-14	13:51:50	13:57:56	364170	6108553abbf7a922fb6cfa3a	132221194	1	main_z	7	advance_on_keypress_ZEE	92	stimuli_distractor_diamondtriangles.svg	stimuli_target_circlediamonds.svg	14	yes	57	0	447
6.6.1	win	2022-12-14	13:51:50	13:57:59	367278	6108553abbf7a922fb6cfa3a	132221194	1	main_z	7	main_z	93	stimuli_target_circletriangles.svg	stimuli_distractor_trianglediamonds.svg	1	yes	0	0	2000
6.6.1	win	2022-12-14	13:51:50	13:57:59	367278	6108553abbf7a922fb6cfa3a	132221194	1	main_z	7	advance_on_keypress_ZEE	94	stimuli_target_circletriangles.svg	stimuli_distractor_trianglediamonds.svg	1	yes	57	0	789
6.6.1	win	2022-12-14	13:51:50	13:58:02	370000	6108553abbf7a922fb6cfa3a	132221194	1	main_z	7	main_z	95	stimuli_distractor_trianglediamonds.svg	stimuli_distractor_diamondtriangles.svg	36	no	44	0	1271
6.6.1	win	2022-12-14	13:51:50	13:58:02	370000	6108553abbf7a922fb6cfa3a	132221194	1	main_z	7	advance_on_keypress_ZEE	96	stimuli_distractor_trianglediamonds.svg	stimuli_distractor_diamondtriangles.svg	36	no	57	0	247
6.6.1	win	2022-12-14	13:51:50	13:58:04	372010	6108553abbf7a922fb6cfa3a	132221194	1	main_z	7	main_z	97	stimuli_target_diamondsquares.svg	stimuli_distractor_diamondtriangles.svg	24	yes	44	1	1100
6.6.1	win	2022-12-14	13:51:50	13:58:04	372010	6108553abbf7a922fb6cfa3a	132221194	1	main_z	7	advance_on_keypress_ZEE	98	stimuli_target_diamondsquares.svg	stimuli_distractor_diamondtriangles.svg	24	yes	57	0	238
6.6.1	win	2022-12-14	13:51:50	13:58:05	373710	6108553abbf7a922fb6cfa3a	132221194	1	main_z	7	main_z	99	stimuli_target_circlediamonds.svg	stimuli_distractor_trianglediamonds.svg	2	yes	44	1	801
6.6.1	win	2022-12-14	13:51:50	13:58:05	373710	6108553abbf7a922fb6cfa3a	132221194	1	main_z	7	advance_on_keypress_ZEE	100	stimuli_target_circlediamonds.svg	stimuli_distractor_trianglediamonds.svg	2	yes	57	0	267
6.6.1	win	2022-12-14	13:51:50	13:58:07	375550	6108553abbf7a922fb6cfa3a	132221194	1	main_z	7	main_z	101	stimuli_target_circletriangles.svg	stimuli_distractor_diamondtriangles.svg	5	yes	44	1	911
6.6.1	win	2022-12-14	13:51:50	13:58:07	375550	6108553abbf7a922fb6cfa3a	132221194	1	main_z	7	advance_on_keypress_ZEE	102	stimuli_target_circletriangles.svg	stimuli_distractor_diamondtriangles.svg	5	yes	57	0	307
6.6.1	win	2022-12-14	13:51:50	13:58:09	377049	6108553abbf7a922fb6cfa3a	132221194	1	main_z	7	main_z	103	stimuli_distractor_trianglediamonds.svg	stimuli_target_circletriangles.svg	9	yes	44	1	531
6.6.1	win	2022-12-14	13:51:50	13:58:09	377049	6108553abbf7a922fb6cfa3a	132221194	1	main_z	7	advance_on_keypress_ZEE	104	stimuli_distractor_trianglediamonds.svg	stimuli_target_circletriangles.svg	9	yes	57	0	272
6.6.1	win	2022-12-14	13:51:50	13:58:11	378790	6108553abbf7a922fb6cfa3a	132221194	1	main_z	7	main_z	105	stimuli_distractor_trianglediamonds.svg	stimuli_target_squaretriangles.svg	11	yes	44	1	821
6.6.1	win	2022-12-14	13:51:50	13:58:11	378790	6108553abbf7a922fb6cfa3a	132221194	1	main_z	7	advance_on_keypress_ZEE	106	stimuli_distractor_trianglediamonds.svg	stimuli_target_squaretriangles.svg	11	yes	57	0	228
6.6.1	win	2022-12-14	13:51:50	13:58:12	380630	6108553abbf7a922fb6cfa3a	132221194	1	main_z	7	main_z	107	stimuli_target_diamondcircles.svg	stimuli_distractor_trianglediamonds.svg	19	yes	44	1	951
6.6.1	win	2022-12-14	13:51:50	13:58:12	380630	6108553abbf7a922fb6cfa3a	132221194	1	main_z	7	advance_on_keypress_ZEE	108	stimuli_target_diamondcircles.svg	stimuli_distractor_trianglediamonds.svg	19	yes	57	0	209
6.6.1	win	2022-12-14	13:51:50	13:58:15	383498	6108553abbf7a922fb6cfa3a	132221194	1	main_z	7	main_z	109	stimuli_distractor_diamondtriangles.svg	stimuli_distractor_trianglediamonds.svg	38	no	0	1	2000
6.6.1	win	2022-12-14	13:51:50	13:58:15	383498	6108553abbf7a922fb6cfa3a	132221194	1	main_z	7	advance_on_keypress_ZEE	110	stimuli_distractor_diamondtriangles.svg	stimuli_distractor_trianglediamonds.svg	38	no	57	0	543
6.6.1	win	2022-12-14	13:51:50	13:58:17	385640	6108553abbf7a922fb6cfa3a	132221194	1	main_z	7	main_z	111	stimuli_target_diamondsquares.svg	stimuli_distractor_trianglediamonds.svg	20	yes	44	1	951
6.6.1	win	2022-12-14	13:51:50	13:58:17	385640	6108553abbf7a922fb6cfa3a	132221194	1	main_z	7	advance_on_keypress_ZEE	112	stimuli_target_diamondsquares.svg	stimuli_distractor_trianglediamonds.svg	20	yes	57	0	247
6.6.1	win	2022-12-14	13:51:50	13:58:19	387260	6108553abbf7a922fb6cfa3a	132221194	1	main_z	7	main_z	113	stimuli_target_trianglesquares.svg	stimuli_distractor_diamondtriangles.svg	22	yes	44	1	711
6.6.1	win	2022-12-14	13:51:50	13:58:19	387260	6108553abbf7a922fb6cfa3a	132221194	1	main_z	7	advance_on_keypress_ZEE	114	stimuli_target_trianglesquares.svg	stimuli_distractor_diamondtriangles.svg	22	yes	57	0	228
6.6.1	win	2022-12-14	13:51:50	13:58:22	390148	6108553abbf7a922fb6cfa3a	132221194	1	main_z	7	main_z	115	stimuli_target_squaretriangles.svg	stimuli_distractor_diamondtriangles.svg	7	yes	0	0	2000
6.6.1	win	2022-12-14	13:51:50	13:58:22	390148	6108553abbf7a922fb6cfa3a	132221194	1	main_z	7	advance_on_keypress_ZEE	116	stimuli_target_squaretriangles.svg	stimuli_distractor_diamondtriangles.svg	7	yes	57	0	748
6.6.1	win	2022-12-14	13:51:50	13:58:25	393558	6108553abbf7a922fb6cfa3a	132221194	1	main_z	7	main_z	117	stimuli_distractor_diamondtriangles.svg	stimuli_distractor_diamondtriangles.svg	39	no	0	1	2000
6.6.1	win	2022-12-14	13:51:50	13:58:25	393558	6108553abbf7a922fb6cfa3a	132221194	1	main_z	7	advance_on_keypress_ZEE	118	stimuli_distractor_diamondtriangles.svg	stimuli_distractor_diamondtriangles.svg	39	no	57	0	328
6.6.1	win	2022-12-14	13:51:50	13:58:28	395970	6108553abbf7a922fb6cfa3a	132221194	1	main_z	7	main_z	119	stimuli_distractor_trianglediamonds.svg	stimuli_distractor_trianglediamonds.svg	34	no	44	0	1421
6.6.1	win	2022-12-14	13:51:50	13:58:28	395970	6108553abbf7a922fb6cfa3a	132221194	1	main_z	7	advance_on_keypress_ZEE	120	stimuli_distractor_trianglediamonds.svg	stimuli_distractor_trianglediamonds.svg	34	no	57	0	207
6.6.1	win	2022-12-14	13:51:50	13:58:31	398838	6108553abbf7a922fb6cfa3a	132221194	1	main_z	7	main_z	121	stimuli_distractor_trianglediamonds.svg	stimuli_target_diamondsquares.svg	28	yes	0	0	2000
6.6.1	win	2022-12-14	13:51:50	13:58:31	398838	6108553abbf7a922fb6cfa3a	132221194	1	main_z	7	advance_on_keypress_ZEE	122	stimuli_distractor_trianglediamonds.svg	stimuli_target_diamondsquares.svg	28	yes	57	0	413
6.6.1	win	2022-12-14	13:51:50	13:58:33	400780	6108553abbf7a922fb6cfa3a	132221194	1	main_z	7	main_z	123	stimuli_distractor_diamondtriangles.svg	stimuli_target_squarediamonds.svg	16	yes	44	1	871
6.6.1	win	2022-12-14	13:51:50	13:58:33	400780	6108553abbf7a922fb6cfa3a	132221194	1	main_z	7	advance_on_keypress_ZEE	124	stimuli_distractor_diamondtriangles.svg	stimuli_target_squarediamonds.svg	16	yes	57	0	217
6.6.1	win	2022-12-14	13:51:50	13:58:34	402240	6108553abbf7a922fb6cfa3a	132221194	1	main_z	7	main_z	125	stimuli_distractor_diamondtriangles.svg	stimuli_target_squaretriangles.svg	15	yes	44	1	580
6.6.1	win	2022-12-14	13:51:50	13:58:34	402240	6108553abbf7a922fb6cfa3a	132221194	1	main_z	7	advance_on_keypress_ZEE	126	stimuli_distractor_diamondtriangles.svg	stimuli_target_squaretriangles.svg	15	yes	57	0	243
6.6.1	win	2022-12-14	13:51:50	13:58:36	403729	6108553abbf7a922fb6cfa3a	132221194	1	main_z	7	main_z	127	stimuli_distractor_trianglediamonds.svg	stimuli_target_squarediamonds.svg	12	yes	44	1	601
6.6.1	win	2022-12-14	13:51:50	13:58:36	403729	6108553abbf7a922fb6cfa3a	132221194	1	main_z	7	advance_on_keypress_ZEE	128	stimuli_distractor_trianglediamonds.svg	stimuli_target_squarediamonds.svg	12	yes	57	0	179
6.6.1	win	2022-12-14	13:51:50	13:58:37	405420	6108553abbf7a922fb6cfa3a	132221194	1	main_z	7	main_z	129	stimuli_target_diamondcircles.svg	stimuli_distractor_diamondtriangles.svg	23	yes	44	1	851
6.6.1	win	2022-12-14	13:51:50	13:58:37	405420	6108553abbf7a922fb6cfa3a	132221194	1	main_z	7	advance_on_keypress_ZEE	130	stimuli_target_diamondcircles.svg	stimuli_distractor_diamondtriangles.svg	23	yes	57	0	157
6.6.1	win	2022-12-14	13:51:50	13:58:39	407130	6108553abbf7a922fb6cfa3a	132221194	1	main_z	7	main_z	131	stimuli_distractor_trianglediamonds.svg	stimuli_target_trianglesquares.svg	26	yes	44	1	904
6.6.1	win	2022-12-14	13:51:50	13:58:39	407130	6108553abbf7a922fb6cfa3a	132221194	1	main_z	7	advance_on_keypress_ZEE	132	stimuli_distractor_trianglediamonds.svg	stimuli_target_trianglesquares.svg	26	yes	57	0	168
6.6.1	win	2022-12-14	13:51:50	13:58:41	408790	6108553abbf7a922fb6cfa3a	132221194	1	main_z	7	main_z	133	stimuli_distractor_trianglediamonds.svg	stimuli_target_trianglecircles.svg	25	yes	44	1	831
6.6.1	win	2022-12-14	13:51:50	13:58:41	408790	6108553abbf7a922fb6cfa3a	132221194	1	main_z	7	advance_on_keypress_ZEE	134	stimuli_distractor_trianglediamonds.svg	stimuli_target_trianglecircles.svg	25	yes	57	0	247
6.6.1	win	2022-12-14	13:51:50	13:58:42	410661	6108553abbf7a922fb6cfa3a	132221194	1	main_z	7	main_z	135	stimuli_target_squarediamonds.svg	stimuli_distractor_trianglediamonds.svg	4	yes	44	1	962
6.6.1	win	2022-12-14	13:51:50	13:58:42	410661	6108553abbf7a922fb6cfa3a	132221194	1	main_z	7	advance_on_keypress_ZEE	136	stimuli_target_squarediamonds.svg	stimuli_distractor_trianglediamonds.svg	4	yes	57	0	177
6.6.1	win	2022-12-14	13:51:50	13:58:44	412290	6108553abbf7a922fb6cfa3a	132221194	1	main_z	7	main_z	137	stimuli_distractor_diamondtriangles.svg	stimuli_target_trianglesquares.svg	30	yes	44	1	792
6.6.1	win	2022-12-14	13:51:50	13:58:44	412290	6108553abbf7a922fb6cfa3a	132221194	1	main_z	7	advance_on_keypress_ZEE	138	stimuli_distractor_diamondtriangles.svg	stimuli_target_trianglesquares.svg	30	yes	57	0	317
6.6.1	win	2022-12-14	13:51:50	13:58:47	415268	6108553abbf7a922fb6cfa3a	132221194	1	main_z	7	main_z	139	stimuli_distractor_diamondtriangles.svg	stimuli_distractor_trianglediamonds.svg	37	no	0	1	2000
6.6.1	win	2022-12-14	13:51:50	13:58:47	415268	6108553abbf7a922fb6cfa3a	132221194	1	main_z	7	advance_on_keypress_ZEE	140	stimuli_distractor_diamondtriangles.svg	stimuli_distractor_trianglediamonds.svg	37	no	57	0	754
6.6.1	win	2022-12-14	13:51:50	13:58:50	418260	6108553abbf7a922fb6cfa3a	132221194	1	main_z	7	main_z	141	stimuli_distractor_trianglediamonds.svg	stimuli_target_diamondcircles.svg	27	yes	44	1	1591
6.6.1	win	2022-12-14	13:51:50	13:58:50	418260	6108553abbf7a922fb6cfa3a	132221194	1	main_z	7	advance_on_keypress_ZEE	142	stimuli_distractor_trianglediamonds.svg	stimuli_target_diamondcircles.svg	27	yes	57	0	188
6.6.1	win	2022-12-14	13:51:50	13:58:52	419790	6108553abbf7a922fb6cfa3a	132221194	1	main_z	7	main_z	143	stimuli_distractor_diamondtriangles.svg	stimuli_target_diamondcircles.svg	31	yes	44	1	681
6.6.1	win	2022-12-14	13:51:50	13:58:52	419790	6108553abbf7a922fb6cfa3a	132221194	1	main_z	7	advance_on_keypress_ZEE	144	stimuli_distractor_diamondtriangles.svg	stimuli_target_diamondcircles.svg	31	yes	57	0	208
6.6.1	win	2022-12-14	13:51:50	13:58:53	421470	6108553abbf7a922fb6cfa3a	132221194	1	main_z	7	main_z	145	stimuli_distractor_diamondtriangles.svg	stimuli_target_circletriangles.svg	13	yes	44	1	811
6.6.1	win	2022-12-14	13:51:50	13:58:53	421470	6108553abbf7a922fb6cfa3a	132221194	1	main_z	7	advance_on_keypress_ZEE	146	stimuli_distractor_diamondtriangles.svg	stimuli_target_circletriangles.svg	13	yes	57	0	188
6.6.1	win	2022-12-14	13:51:50	13:58:55	422980	6108553abbf7a922fb6cfa3a	132221194	1	main_z	7	main_z	147	stimuli_target_squarediamonds.svg	stimuli_distractor_diamondtriangles.svg	8	yes	44	1	661
6.6.1	win	2022-12-14	13:51:50	13:58:55	422980	6108553abbf7a922fb6cfa3a	132221194	1	main_z	7	advance_on_keypress_ZEE	148	stimuli_target_squarediamonds.svg	stimuli_distractor_diamondtriangles.svg	8	yes	57	0	237
6.6.1	win	2022-12-14	13:51:50	13:58:57	425350	6108553abbf7a922fb6cfa3a	132221194	1	main_z	7	main_z	149	stimuli_distractor_diamondtriangles.svg	stimuli_target_diamondsquares.svg	32	yes	44	1	1471
6.6.1	win	2022-12-14	13:51:50	13:58:57	425350	6108553abbf7a922fb6cfa3a	132221194	1	main_z	7	advance_on_keypress_ZEE	150	stimuli_distractor_diamondtriangles.svg	stimuli_target_diamondsquares.svg	32	yes	57	0	88
6.6.1	win	2022-12-14	13:51:50	13:59:00	428088	6108553abbf7a922fb6cfa3a	132221194	1	main_z	7	main_z	151	stimuli_distractor_diamondtriangles.svg	stimuli_distractor_diamondtriangles.svg	40	no	0	1	2000
6.6.1	win	2022-12-14	13:51:50	13:59:00	428088	6108553abbf7a922fb6cfa3a	132221194	1	main_z	7	advance_on_keypress_ZEE	152	stimuli_distractor_diamondtriangles.svg	stimuli_distractor_diamondtriangles.svg	40	no	57	0	597
6.6.1	win	2022-12-14	13:51:50	13:59:02	429990	6108553abbf7a922fb6cfa3a	132221194	1	main_z	7	main_z	153	stimuli_target_trianglecircles.svg	stimuli_distractor_trianglediamonds.svg	17	yes	44	1	657
6.6.1	win	2022-12-14	13:51:50	13:59:02	429990	6108553abbf7a922fb6cfa3a	132221194	1	main_z	7	advance_on_keypress_ZEE	154	stimuli_target_trianglecircles.svg	stimuli_distractor_trianglediamonds.svg	17	yes	57	0	207
6.6.1	win	2022-12-14	13:51:50	13:59:03	431630	6108553abbf7a922fb6cfa3a	132221194	1	main_z	7	main_z	155	stimuli_distractor_diamondtriangles.svg	stimuli_target_trianglecircles.svg	29	yes	44	1	771
6.6.1	win	2022-12-14	13:51:50	13:59:03	431630	6108553abbf7a922fb6cfa3a	132221194	1	main_z	7	advance_on_keypress_ZEE	156	stimuli_distractor_diamondtriangles.svg	stimuli_target_trianglecircles.svg	29	yes	57	0	297
6.6.1	win	2022-12-14	13:51:50	13:59:05	433680	6108553abbf7a922fb6cfa3a	132221194	1	main_z	7	main_z	157	stimuli_distractor_trianglediamonds.svg	stimuli_distractor_trianglediamonds.svg	33	no	44	0	1090
6.6.1	win	2022-12-14	13:51:50	13:59:05	433680	6108553abbf7a922fb6cfa3a	132221194	1	main_z	7	advance_on_keypress_ZEE	158	stimuli_distractor_trianglediamonds.svg	stimuli_distractor_trianglediamonds.svg	33	no	57	0	797
6.6.1	win	2022-12-14	13:51:50	13:59:08	435719	6108553abbf7a922fb6cfa3a	132221194	1	main_z	7	main_z	159	stimuli_target_circlediamonds.svg	stimuli_distractor_diamondtriangles.svg	6	yes	44	1	581
6.6.1	win	2022-12-14	13:51:50	13:59:08	435719	6108553abbf7a922fb6cfa3a	132221194	1	main_z	7	advance_on_keypress_ZEE	160	stimuli_target_circlediamonds.svg	stimuli_distractor_diamondtriangles.svg	6	yes	57	0	363
6.6.1	win	2022-12-14	13:51:50	13:59:37	465115	6108553abbf7a922fb6cfa3a	132221194	1	practice_slash	9	practice_slash	1	stimuli_distractor_trianglediamonds.svg	stimuli_distractor_trianglediamonds.svg	15	no	53	0	476
6.6.1	win	2022-12-14	13:51:50	13:59:37	465115	6108553abbf7a922fb6cfa3a	132221194	1	practice_slash	9	advance_on_keypress_SLASH	2	stimuli_distractor_trianglediamonds.svg	stimuli_distractor_trianglediamonds.svg	15	no	57	0	1144
6.6.1	win	2022-12-14	13:51:50	13:59:41	468854	6108553abbf7a922fb6cfa3a	132221194	1	practice_slash	9	practice_slash	3	stimuli_distractor_diamondtriangles.svg	stimuli_target_diamondcircles.svg	8	yes	53	1	931
6.6.1	win	2022-12-14	13:51:50	13:59:41	468854	6108553abbf7a922fb6cfa3a	132221194	1	practice_slash	9	advance_on_keypress_SLASH	4	stimuli_distractor_diamondtriangles.svg	stimuli_target_diamondcircles.svg	8	yes	57	0	2145
6.6.1	win	2022-12-14	13:51:50	13:59:45	472994	6108553abbf7a922fb6cfa3a	132221194	1	practice_slash	9	practice_slash	5	stimuli_distractor_diamondtriangles.svg	stimuli_target_trianglecircles.svg	9	yes	53	1	331
6.6.1	win	2022-12-14	13:51:50	13:59:45	472994	6108553abbf7a922fb6cfa3a	132221194	1	practice_slash	9	advance_on_keypress_SLASH	6	stimuli_distractor_diamondtriangles.svg	stimuli_target_trianglecircles.svg	9	yes	57	0	574
6.6.1	win	2022-12-14	13:51:50	13:59:48	475834	6108553abbf7a922fb6cfa3a	132221194	1	practice_slash	9	practice_slash	7	stimuli_distractor_trianglediamonds.svg	stimuli_target_squarediamonds.svg	11	yes	53	1	601
6.6.1	win	2022-12-14	13:51:50	13:59:48	475834	6108553abbf7a922fb6cfa3a	132221194	1	practice_slash	9	advance_on_keypress_SLASH	8	stimuli_distractor_trianglediamonds.svg	stimuli_target_squarediamonds.svg	11	yes	57	0	544
6.6.1	win	2022-12-14	13:51:50	13:59:51	478716	6108553abbf7a922fb6cfa3a	132221194	1	practice_slash	9	practice_slash	9	stimuli_target_squarediamonds.svg	stimuli_distractor_diamondtriangles.svg	2	yes	53	1	672
6.6.1	win	2022-12-14	13:51:50	13:59:51	478716	6108553abbf7a922fb6cfa3a	132221194	1	practice_slash	9	advance_on_keypress_SLASH	10	stimuli_target_squarediamonds.svg	stimuli_distractor_diamondtriangles.svg	2	yes	57	0	413
6.6.1	win	2022-12-14	13:51:50	13:59:53	481215	6108553abbf7a922fb6cfa3a	132221194	1	practice_slash	9	practice_slash	11	stimuli_distractor_diamondtriangles.svg	stimuli_target_circletriangles.svg	7	yes	53	1	421
6.6.1	win	2022-12-14	13:51:50	13:59:53	481215	6108553abbf7a922fb6cfa3a	132221194	1	practice_slash	9	advance_on_keypress_SLASH	12	stimuli_distractor_diamondtriangles.svg	stimuli_target_circletriangles.svg	7	yes	57	0	435
6.6.1	win	2022-12-14	13:51:50	13:59:57	485313	6108553abbf7a922fb6cfa3a	132221194	1	practice_slash	9	practice_slash	13	stimuli_distractor_diamondtriangles.svg	stimuli_distractor_trianglediamonds.svg	14	no	0	1	2000
6.6.1	win	2022-12-14	13:51:50	13:59:57	485313	6108553abbf7a922fb6cfa3a	132221194	1	practice_slash	9	advance_on_keypress_SLASH	14	stimuli_distractor_diamondtriangles.svg	stimuli_distractor_trianglediamonds.svg	14	no	57	0	435
6.6.1	win	2022-12-14	13:51:50	14:00:01	489413	6108553abbf7a922fb6cfa3a	132221194	1	practice_slash	9	practice_slash	15	stimuli_distractor_diamondtriangles.svg	stimuli_distractor_diamondtriangles.svg	13	no	0	1	2000
6.6.1	win	2022-12-14	13:51:50	14:00:01	489413	6108553abbf7a922fb6cfa3a	132221194	1	practice_slash	9	advance_on_keypress_SLASH	16	stimuli_distractor_diamondtriangles.svg	stimuli_distractor_diamondtriangles.svg	13	no	57	0	455
6.6.1	win	2022-12-14	13:51:50	14:00:04	492084	6108553abbf7a922fb6cfa3a	132221194	1	practice_slash	9	practice_slash	17	stimuli_target_diamondsquares.svg	stimuli_distractor_diamondtriangles.svg	3	yes	53	1	551
6.6.1	win	2022-12-14	13:51:50	14:00:04	492084	6108553abbf7a922fb6cfa3a	132221194	1	practice_slash	9	advance_on_keypress_SLASH	18	stimuli_target_diamondsquares.svg	stimuli_distractor_diamondtriangles.svg	3	yes	57	0	495
6.6.1	win	2022-12-14	13:51:50	14:00:07	494884	6108553abbf7a922fb6cfa3a	132221194	1	practice_slash	9	practice_slash	19	stimuli_distractor_trianglediamonds.svg	stimuli_target_diamondcircles.svg	12	yes	53	1	642
6.6.1	win	2022-12-14	13:51:50	14:00:07	494884	6108553abbf7a922fb6cfa3a	132221194	1	practice_slash	9	advance_on_keypress_SLASH	20	stimuli_distractor_trianglediamonds.svg	stimuli_target_diamondcircles.svg	12	yes	57	0	654
6.6.1	win	2022-12-14	13:51:50	14:00:10	497975	6108553abbf7a922fb6cfa3a	132221194	1	practice_slash	9	practice_slash	21	stimuli_target_circlediamonds.svg	stimuli_distractor_trianglediamonds.svg	4	yes	53	1	772
6.6.1	win	2022-12-14	13:51:50	14:00:10	497975	6108553abbf7a922fb6cfa3a	132221194	1	practice_slash	9	advance_on_keypress_SLASH	22	stimuli_target_circlediamonds.svg	stimuli_distractor_trianglediamonds.svg	4	yes	57	0	713
6.6.1	win	2022-12-14	13:51:50	14:00:13	501105	6108553abbf7a922fb6cfa3a	132221194	1	practice_slash	9	practice_slash	23	stimuli_target_diamondsquares.svg	stimuli_distractor_trianglediamonds.svg	6	yes	53	1	751
6.6.1	win	2022-12-14	13:51:50	14:00:13	501105	6108553abbf7a922fb6cfa3a	132221194	1	practice_slash	9	advance_on_keypress_SLASH	24	stimuli_target_diamondsquares.svg	stimuli_distractor_trianglediamonds.svg	6	yes	57	0	1164
6.6.1	win	2022-12-14	13:51:50	14:00:18	505934	6108553abbf7a922fb6cfa3a	132221194	1	practice_slash	9	practice_slash	25	stimuli_distractor_trianglediamonds.svg	stimuli_distractor_diamondtriangles.svg	16	no	0	1	2000
6.6.1	win	2022-12-14	13:51:50	14:00:18	505934	6108553abbf7a922fb6cfa3a	132221194	1	practice_slash	9	advance_on_keypress_SLASH	26	stimuli_distractor_trianglediamonds.svg	stimuli_distractor_diamondtriangles.svg	16	no	57	0	465
6.6.1	win	2022-12-14	13:51:50	14:00:20	508579	6108553abbf7a922fb6cfa3a	132221194	1	practice_slash	9	practice_slash	27	stimuli_target_circlediamonds.svg	stimuli_distractor_diamondtriangles.svg	1	yes	53	1	505
6.6.1	win	2022-12-14	13:51:50	14:00:20	508579	6108553abbf7a922fb6cfa3a	132221194	1	practice_slash	9	advance_on_keypress_SLASH	28	stimuli_target_circlediamonds.svg	stimuli_distractor_diamondtriangles.svg	1	yes	57	0	330
6.6.1	win	2022-12-14	13:51:50	14:00:23	510964	6108553abbf7a922fb6cfa3a	132221194	1	practice_slash	9	practice_slash	29	stimuli_distractor_trianglediamonds.svg	stimuli_target_circlediamonds.svg	10	yes	53	1	390
6.6.1	win	2022-12-14	13:51:50	14:00:23	510964	6108553abbf7a922fb6cfa3a	132221194	1	practice_slash	9	advance_on_keypress_SLASH	30	stimuli_distractor_trianglediamonds.svg	stimuli_target_circlediamonds.svg	10	yes	57	0	504
6.6.1	win	2022-12-14	13:51:50	14:00:25	513695	6108553abbf7a922fb6cfa3a	132221194	1	practice_slash	9	practice_slash	31	stimuli_target_squarediamonds.svg	stimuli_distractor_trianglediamonds.svg	5	yes	53	1	561
6.6.1	win	2022-12-14	13:51:50	14:00:25	513695	6108553abbf7a922fb6cfa3a	132221194	1	practice_slash	9	advance_on_keypress_SLASH	32	stimuli_target_squarediamonds.svg	stimuli_distractor_trianglediamonds.svg	5	yes	57	0	494
6.6.1	win	2022-12-14	13:51:50	14:00:30	517721	6108553abbf7a922fb6cfa3a	132221194	1	main_slash	11	main_slash	1	stimuli_target_trianglecircles.svg	stimuli_distractor_trianglediamonds.svg	17	yes	53	1	718
6.6.1	win	2022-12-14	13:51:50	14:00:30	517721	6108553abbf7a922fb6cfa3a	132221194	1	main_slash	11	advance_on_keypress_SLASH	2	stimuli_target_trianglecircles.svg	stimuli_distractor_trianglediamonds.svg	17	yes	57	0	758
6.6.1	win	2022-12-14	13:51:50	14:00:32	519861	6108553abbf7a922fb6cfa3a	132221194	1	main_slash	11	main_slash	3	stimuli_distractor_diamondtriangles.svg	stimuli_target_diamondsquares.svg	32	yes	53	1	720
6.6.1	win	2022-12-14	13:51:50	14:00:32	519861	6108553abbf7a922fb6cfa3a	132221194	1	main_slash	11	advance_on_keypress_SLASH	4	stimuli_distractor_diamondtriangles.svg	stimuli_target_diamondsquares.svg	32	yes	57	0	657
6.6.1	win	2022-12-14	13:51:50	14:00:34	522261	6108553abbf7a922fb6cfa3a	132221194	1	main_slash	11	main_slash	5	stimuli_target_trianglesquares.svg	stimuli_distractor_trianglediamonds.svg	18	yes	53	1	1081
6.6.1	win	2022-12-14	13:51:50	14:00:34	522261	6108553abbf7a922fb6cfa3a	132221194	1	main_slash	11	advance_on_keypress_SLASH	6	stimuli_target_trianglesquares.svg	stimuli_distractor_trianglediamonds.svg	18	yes	57	0	578
6.6.1	win	2022-12-14	13:51:50	14:00:36	524050	6108553abbf7a922fb6cfa3a	132221194	1	main_slash	11	main_slash	7	stimuli_target_squarediamonds.svg	stimuli_distractor_diamondtriangles.svg	8	yes	53	1	551
6.6.1	win	2022-12-14	13:51:50	14:00:36	524050	6108553abbf7a922fb6cfa3a	132221194	1	main_slash	11	advance_on_keypress_SLASH	8	stimuli_target_squarediamonds.svg	stimuli_distractor_diamondtriangles.svg	8	yes	57	0	319
6.6.1	win	2022-12-14	13:51:50	14:00:39	527029	6108553abbf7a922fb6cfa3a	132221194	1	main_slash	11	main_slash	9	stimuli_distractor_diamondtriangles.svg	stimuli_distractor_diamondtriangles.svg	40	no	0	1	2000
6.6.1	win	2022-12-14	13:51:50	14:00:39	527029	6108553abbf7a922fb6cfa3a	132221194	1	main_slash	11	advance_on_keypress_SLASH	10	stimuli_distractor_diamondtriangles.svg	stimuli_distractor_diamondtriangles.svg	40	no	57	0	409
6.6.1	win	2022-12-14	13:51:50	14:00:42	530100	6108553abbf7a922fb6cfa3a	132221194	1	main_slash	11	main_slash	11	stimuli_distractor_trianglediamonds.svg	stimuli_distractor_diamondtriangles.svg	36	no	0	1	2000
6.6.1	win	2022-12-14	13:51:50	14:00:42	530100	6108553abbf7a922fb6cfa3a	132221194	1	main_slash	11	advance_on_keypress_SLASH	12	stimuli_distractor_trianglediamonds.svg	stimuli_distractor_diamondtriangles.svg	36	no	57	0	362
6.6.1	win	2022-12-14	13:51:50	14:00:44	531760	6108553abbf7a922fb6cfa3a	132221194	1	main_slash	11	main_slash	13	stimuli_distractor_diamondtriangles.svg	stimuli_target_squaretriangles.svg	15	yes	53	1	640
6.6.1	win	2022-12-14	13:51:50	14:00:44	531760	6108553abbf7a922fb6cfa3a	132221194	1	main_slash	11	advance_on_keypress_SLASH	14	stimuli_distractor_diamondtriangles.svg	stimuli_target_squaretriangles.svg	15	yes	57	0	946
6.6.1	win	2022-12-14	13:51:50	14:00:46	534081	6108553abbf7a922fb6cfa3a	132221194	1	main_slash	11	main_slash	15	stimuli_target_diamondsquares.svg	stimuli_distractor_diamondtriangles.svg	24	yes	53	1	721
6.6.1	win	2022-12-14	13:51:50	14:00:46	534081	6108553abbf7a922fb6cfa3a	132221194	1	main_slash	11	advance_on_keypress_SLASH	16	stimuli_target_diamondsquares.svg	stimuli_distractor_diamondtriangles.svg	24	yes	57	0	387
6.6.1	win	2022-12-14	13:51:50	14:00:48	535911	6108553abbf7a922fb6cfa3a	132221194	1	main_slash	11	main_slash	17	stimuli_distractor_trianglediamonds.svg	stimuli_target_trianglesquares.svg	26	yes	53	1	781
6.6.1	win	2022-12-14	13:51:50	14:00:48	535911	6108553abbf7a922fb6cfa3a	132221194	1	main_slash	11	advance_on_keypress_SLASH	18	stimuli_distractor_trianglediamonds.svg	stimuli_target_trianglesquares.svg	26	yes	57	0	288
6.6.1	win	2022-12-14	13:51:50	14:00:49	537661	6108553abbf7a922fb6cfa3a	132221194	1	main_slash	11	main_slash	19	stimuli_distractor_trianglediamonds.svg	stimuli_target_diamondcircles.svg	27	yes	53	1	801
6.6.1	win	2022-12-14	13:51:50	14:00:49	537661	6108553abbf7a922fb6cfa3a	132221194	1	main_slash	11	advance_on_keypress_SLASH	20	stimuli_distractor_trianglediamonds.svg	stimuli_target_diamondcircles.svg	27	yes	57	0	318
6.6.1	win	2022-12-14	13:51:50	14:00:51	539200	6108553abbf7a922fb6cfa3a	132221194	1	main_slash	11	main_slash	21	stimuli_target_trianglesquares.svg	stimuli_distractor_diamondtriangles.svg	22	yes	53	1	561
6.6.1	win	2022-12-14	13:51:50	14:00:51	539200	6108553abbf7a922fb6cfa3a	132221194	1	main_slash	11	advance_on_keypress_SLASH	22	stimuli_target_trianglesquares.svg	stimuli_distractor_diamondtriangles.svg	22	yes	57	0	979
6.6.1	win	2022-12-14	13:51:50	14:00:53	541390	6108553abbf7a922fb6cfa3a	132221194	1	main_slash	11	main_slash	23	stimuli_distractor_trianglediamonds.svg	stimuli_target_circletriangles.svg	9	yes	53	1	561
6.6.1	win	2022-12-14	13:51:50	14:00:53	541390	6108553abbf7a922fb6cfa3a	132221194	1	main_slash	11	advance_on_keypress_SLASH	24	stimuli_distractor_trianglediamonds.svg	stimuli_target_circletriangles.svg	9	yes	57	0	320
6.6.1	win	2022-12-14	13:51:50	14:00:55	543451	6108553abbf7a922fb6cfa3a	132221194	1	main_slash	11	main_slash	25	stimuli_target_squaretriangles.svg	stimuli_distractor_diamondtriangles.svg	7	yes	53	1	1091
6.6.1	win	2022-12-14	13:51:50	14:00:55	543451	6108553abbf7a922fb6cfa3a	132221194	1	main_slash	11	advance_on_keypress_SLASH	26	stimuli_target_squaretriangles.svg	stimuli_distractor_diamondtriangles.svg	7	yes	57	0	297
6.6.1	win	2022-12-14	13:51:50	14:00:57	545081	6108553abbf7a922fb6cfa3a	132221194	1	main_slash	11	main_slash	27	stimuli_distractor_trianglediamonds.svg	stimuli_target_squaretriangles.svg	11	yes	53	1	670
6.6.1	win	2022-12-14	13:51:50	14:00:57	545081	6108553abbf7a922fb6cfa3a	132221194	1	main_slash	11	advance_on_keypress_SLASH	28	stimuli_distractor_trianglediamonds.svg	stimuli_target_squaretriangles.svg	11	yes	57	0	277
6.6.1	win	2022-12-14	13:51:50	14:00:58	546651	6108553abbf7a922fb6cfa3a	132221194	1	main_slash	11	main_slash	29	stimuli_distractor_diamondtriangles.svg	stimuli_target_diamondcircles.svg	31	yes	53	1	632
6.6.1	win	2022-12-14	13:51:50	14:00:58	546651	6108553abbf7a922fb6cfa3a	132221194	1	main_slash	11	advance_on_keypress_SLASH	30	stimuli_distractor_diamondtriangles.svg	stimuli_target_diamondcircles.svg	31	yes	57	0	332
6.6.1	win	2022-12-14	13:51:50	14:01:01	549630	6108553abbf7a922fb6cfa3a	132221194	1	main_slash	11	main_slash	31	stimuli_distractor_diamondtriangles.svg	stimuli_distractor_trianglediamonds.svg	38	no	0	1	2000
6.6.1	win	2022-12-14	13:51:50	14:01:01	549630	6108553abbf7a922fb6cfa3a	132221194	1	main_slash	11	advance_on_keypress_SLASH	32	stimuli_distractor_diamondtriangles.svg	stimuli_distractor_trianglediamonds.svg	38	no	57	0	428
6.6.1	win	2022-12-14	13:51:50	14:01:03	551235	6108553abbf7a922fb6cfa3a	132221194	1	main_slash	11	main_slash	33	stimuli_distractor_trianglediamonds.svg	stimuli_target_trianglecircles.svg	25	yes	53	1	505
6.6.1	win	2022-12-14	13:51:50	14:01:03	551235	6108553abbf7a922fb6cfa3a	132221194	1	main_slash	11	advance_on_keypress_SLASH	34	stimuli_distractor_trianglediamonds.svg	stimuli_target_trianglecircles.svg	25	yes	57	0	234
6.6.1	win	2022-12-14	13:51:50	14:01:05	552981	6108553abbf7a922fb6cfa3a	132221194	1	main_slash	11	main_slash	35	stimuli_target_trianglecircles.svg	stimuli_distractor_diamondtriangles.svg	21	yes	53	1	850
6.6.1	win	2022-12-14	13:51:50	14:01:05	552981	6108553abbf7a922fb6cfa3a	132221194	1	main_slash	11	advance_on_keypress_SLASH	36	stimuli_target_trianglecircles.svg	stimuli_distractor_diamondtriangles.svg	21	yes	57	0	277
6.6.1	win	2022-12-14	13:51:50	14:01:08	555901	6108553abbf7a922fb6cfa3a	132221194	1	main_slash	11	main_slash	37	stimuli_distractor_diamondtriangles.svg	stimuli_target_circletriangles.svg	13	yes	53	1	1981
6.6.1	win	2022-12-14	13:51:50	14:01:08	555901	6108553abbf7a922fb6cfa3a	132221194	1	main_slash	11	advance_on_keypress_SLASH	38	stimuli_distractor_diamondtriangles.svg	stimuli_target_circletriangles.svg	13	yes	57	0	608
6.6.1	win	2022-12-14	13:51:50	14:01:11	559169	6108553abbf7a922fb6cfa3a	132221194	1	main_slash	11	main_slash	39	stimuli_distractor_trianglediamonds.svg	stimuli_distractor_diamondtriangles.svg	35	no	0	1	2000
6.6.1	win	2022-12-14	13:51:50	14:01:11	559169	6108553abbf7a922fb6cfa3a	132221194	1	main_slash	11	advance_on_keypress_SLASH	40	stimuli_distractor_trianglediamonds.svg	stimuli_distractor_diamondtriangles.svg	35	no	57	0	634
6.6.1	win	2022-12-14	13:51:50	14:01:13	561061	6108553abbf7a922fb6cfa3a	132221194	1	main_slash	11	main_slash	41	stimuli_distractor_diamondtriangles.svg	stimuli_target_trianglesquares.svg	30	yes	53	1	601
6.6.1	win	2022-12-14	13:51:50	14:01:13	561061	6108553abbf7a922fb6cfa3a	132221194	1	main_slash	11	advance_on_keypress_SLASH	42	stimuli_distractor_diamondtriangles.svg	stimuli_target_trianglesquares.svg	30	yes	57	0	558
6.6.1	win	2022-12-14	13:51:50	14:01:15	562831	6108553abbf7a922fb6cfa3a	132221194	1	main_slash	11	main_slash	43	stimuli_distractor_diamondtriangles.svg	stimuli_target_trianglecircles.svg	29	yes	53	1	551
6.6.1	win	2022-12-14	13:51:50	14:01:15	562831	6108553abbf7a922fb6cfa3a	132221194	1	main_slash	11	advance_on_keypress_SLASH	44	stimuli_distractor_diamondtriangles.svg	stimuli_target_trianglecircles.svg	29	yes	57	0	198
6.6.1	win	2022-12-14	13:51:50	14:01:16	564451	6108553abbf7a922fb6cfa3a	132221194	1	main_slash	11	main_slash	45	stimuli_distractor_diamondtriangles.svg	stimuli_target_circlediamonds.svg	14	yes	53	1	760
6.6.1	win	2022-12-14	13:51:50	14:01:16	564451	6108553abbf7a922fb6cfa3a	132221194	1	main_slash	11	advance_on_keypress_SLASH	46	stimuli_distractor_diamondtriangles.svg	stimuli_target_circlediamonds.svg	14	yes	57	0	207
6.6.1	win	2022-12-14	13:51:50	14:01:19	567320	6108553abbf7a922fb6cfa3a	132221194	1	main_slash	11	main_slash	47	stimuli_distractor_diamondtriangles.svg	stimuli_distractor_trianglediamonds.svg	37	no	0	1	2000
6.6.1	win	2022-12-14	13:51:50	14:01:19	567320	6108553abbf7a922fb6cfa3a	132221194	1	main_slash	11	advance_on_keypress_SLASH	48	stimuli_distractor_diamondtriangles.svg	stimuli_distractor_trianglediamonds.svg	37	no	57	0	440
6.6.1	win	2022-12-14	13:51:50	14:01:21	569010	6108553abbf7a922fb6cfa3a	132221194	1	main_slash	11	main_slash	49	stimuli_target_diamondsquares.svg	stimuli_distractor_trianglediamonds.svg	20	yes	53	1	601
6.6.1	win	2022-12-14	13:51:50	14:01:21	569010	6108553abbf7a922fb6cfa3a	132221194	1	main_slash	11	advance_on_keypress_SLASH	50	stimuli_target_diamondsquares.svg	stimuli_distractor_trianglediamonds.svg	20	yes	57	0	309
6.6.1	win	2022-12-14	13:51:50	14:01:23	570990	6108553abbf7a922fb6cfa3a	132221194	1	main_slash	11	main_slash	51	stimuli_target_circletriangles.svg	stimuli_distractor_diamondtriangles.svg	5	yes	53	1	1010
6.6.1	win	2022-12-14	13:51:50	14:01:23	570990	6108553abbf7a922fb6cfa3a	132221194	1	main_slash	11	advance_on_keypress_SLASH	52	stimuli_target_circletriangles.svg	stimuli_distractor_diamondtriangles.svg	5	yes	57	0	299
6.6.1	win	2022-12-14	13:51:50	14:01:25	572840	6108553abbf7a922fb6cfa3a	132221194	1	main_slash	11	main_slash	53	stimuli_target_squaretriangles.svg	stimuli_distractor_trianglediamonds.svg	3	yes	53	1	892
6.6.1	win	2022-12-14	13:51:50	14:01:25	572840	6108553abbf7a922fb6cfa3a	132221194	1	main_slash	11	advance_on_keypress_SLASH	54	stimuli_target_squaretriangles.svg	stimuli_distractor_trianglediamonds.svg	3	yes	57	0	228
6.6.1	win	2022-12-14	13:51:50	14:01:28	575728	6108553abbf7a922fb6cfa3a	132221194	1	main_slash	11	main_slash	55	stimuli_distractor_trianglediamonds.svg	stimuli_distractor_trianglediamonds.svg	34	no	0	1	2000
6.6.1	win	2022-12-14	13:51:50	14:01:28	575728	6108553abbf7a922fb6cfa3a	132221194	1	main_slash	11	advance_on_keypress_SLASH	56	stimuli_distractor_trianglediamonds.svg	stimuli_distractor_trianglediamonds.svg	34	no	57	0	1734
6.6.1	win	2022-12-14	13:51:50	14:01:30	578591	6108553abbf7a922fb6cfa3a	132221194	1	main_slash	11	main_slash	57	stimuli_target_circletriangles.svg	stimuli_distractor_trianglediamonds.svg	1	yes	53	1	481
6.6.1	win	2022-12-14	13:51:50	14:01:30	578591	6108553abbf7a922fb6cfa3a	132221194	1	main_slash	11	advance_on_keypress_SLASH	58	stimuli_target_circletriangles.svg	stimuli_distractor_trianglediamonds.svg	1	yes	57	0	512
6.6.1	win	2022-12-14	13:51:50	14:01:33	581130	6108553abbf7a922fb6cfa3a	132221194	1	main_slash	11	main_slash	59	stimuli_target_circlediamonds.svg	stimuli_distractor_diamondtriangles.svg	6	yes	53	1	1381
6.6.1	win	2022-12-14	13:51:50	14:01:33	581130	6108553abbf7a922fb6cfa3a	132221194	1	main_slash	11	advance_on_keypress_SLASH	60	stimuli_target_circlediamonds.svg	stimuli_distractor_diamondtriangles.svg	6	yes	57	0	608
6.6.1	win	2022-12-14	13:51:50	14:01:35	582940	6108553abbf7a922fb6cfa3a	132221194	1	main_slash	11	main_slash	61	stimuli_target_circlediamonds.svg	stimuli_distractor_trianglediamonds.svg	2	yes	53	1	541
6.6.1	win	2022-12-14	13:51:50	14:01:35	582940	6108553abbf7a922fb6cfa3a	132221194	1	main_slash	11	advance_on_keypress_SLASH	62	stimuli_target_circlediamonds.svg	stimuli_distractor_trianglediamonds.svg	2	yes	57	0	256
6.6.1	win	2022-12-14	13:51:50	14:01:38	585849	6108553abbf7a922fb6cfa3a	132221194	1	main_slash	11	main_slash	63	stimuli_distractor_trianglediamonds.svg	stimuli_distractor_trianglediamonds.svg	33	no	0	1	2000
6.6.1	win	2022-12-14	13:51:50	14:01:38	585849	6108553abbf7a922fb6cfa3a	132221194	1	main_slash	11	advance_on_keypress_SLASH	64	stimuli_distractor_trianglediamonds.svg	stimuli_distractor_trianglediamonds.svg	33	no	57	0	860
6.6.1	win	2022-12-14	13:51:50	14:01:41	589369	6108553abbf7a922fb6cfa3a	132221194	1	main_slash	11	main_slash	65	stimuli_distractor_diamondtriangles.svg	stimuli_distractor_diamondtriangles.svg	39	no	0	1	2000
6.6.1	win	2022-12-14	13:51:50	14:01:41	589369	6108553abbf7a922fb6cfa3a	132221194	1	main_slash	11	advance_on_keypress_SLASH	66	stimuli_distractor_diamondtriangles.svg	stimuli_distractor_diamondtriangles.svg	39	no	57	0	549
6.6.1	win	2022-12-14	13:51:50	14:01:43	591250	6108553abbf7a922fb6cfa3a	132221194	1	main_slash	11	main_slash	67	stimuli_distractor_trianglediamonds.svg	stimuli_target_squarediamonds.svg	12	yes	53	1	672
6.6.1	win	2022-12-14	13:51:50	14:01:43	591250	6108553abbf7a922fb6cfa3a	132221194	1	main_slash	11	advance_on_keypress_SLASH	68	stimuli_distractor_trianglediamonds.svg	stimuli_target_squarediamonds.svg	12	yes	57	0	289
6.6.1	win	2022-12-14	13:51:50	14:01:45	592910	6108553abbf7a922fb6cfa3a	132221194	1	main_slash	11	main_slash	69	stimuli_target_squarediamonds.svg	stimuli_distractor_trianglediamonds.svg	4	yes	53	1	711
6.6.1	win	2022-12-14	13:51:50	14:01:45	592910	6108553abbf7a922fb6cfa3a	132221194	1	main_slash	11	advance_on_keypress_SLASH	70	stimuli_target_squarediamonds.svg	stimuli_distractor_trianglediamonds.svg	4	yes	57	0	238
6.6.1	win	2022-12-14	13:51:50	14:01:47	595020	6108553abbf7a922fb6cfa3a	132221194	1	main_slash	11	main_slash	71	stimuli_distractor_trianglediamonds.svg	stimuli_target_circlediamonds.svg	10	yes	53	1	1211
6.6.1	win	2022-12-14	13:51:50	14:01:47	595020	6108553abbf7a922fb6cfa3a	132221194	1	main_slash	11	advance_on_keypress_SLASH	72	stimuli_distractor_trianglediamonds.svg	stimuli_target_circlediamonds.svg	10	yes	57	0	298
6.6.1	win	2022-12-14	13:51:50	14:01:49	596950	6108553abbf7a922fb6cfa3a	132221194	1	main_slash	11	main_slash	73	stimuli_target_diamondcircles.svg	stimuli_distractor_trianglediamonds.svg	19	yes	53	1	972
6.6.1	win	2022-12-14	13:51:50	14:01:49	596950	6108553abbf7a922fb6cfa3a	132221194	1	main_slash	11	advance_on_keypress_SLASH	74	stimuli_target_diamondcircles.svg	stimuli_distractor_trianglediamonds.svg	19	yes	57	0	308
6.6.1	win	2022-12-14	13:51:50	14:01:51	599330	6108553abbf7a922fb6cfa3a	132221194	1	main_slash	11	main_slash	75	stimuli_distractor_diamondtriangles.svg	stimuli_target_squarediamonds.svg	16	yes	53	1	1411
6.6.1	win	2022-12-14	13:51:50	14:01:51	599330	6108553abbf7a922fb6cfa3a	132221194	1	main_slash	11	advance_on_keypress_SLASH	76	stimuli_distractor_diamondtriangles.svg	stimuli_target_squarediamonds.svg	16	yes	57	0	218
6.6.1	win	2022-12-14	13:51:50	14:01:53	600960	6108553abbf7a922fb6cfa3a	132221194	1	main_slash	11	main_slash	77	stimuli_target_diamondcircles.svg	stimuli_distractor_diamondtriangles.svg	23	yes	53	1	751
6.6.1	win	2022-12-14	13:51:50	14:01:53	600960	6108553abbf7a922fb6cfa3a	132221194	1	main_slash	11	advance_on_keypress_SLASH	78	stimuli_target_diamondcircles.svg	stimuli_distractor_diamondtriangles.svg	23	yes	57	0	278
6.6.1	win	2022-12-14	13:51:50	14:01:56	603899	6108553abbf7a922fb6cfa3a	132221194	1	main_slash	11	main_slash	79	stimuli_distractor_trianglediamonds.svg	stimuli_target_diamondsquares.svg	28	yes	0	0	2000
6.6.1	win	2022-12-14	13:51:50	14:01:56	603899	6108553abbf7a922fb6cfa3a	132221194	1	main_slash	11	advance_on_keypress_SLASH	80	stimuli_distractor_trianglediamonds.svg	stimuli_target_diamondsquares.svg	28	yes	57	0	1988
6.6.1	win	2022-12-14	13:51:50	14:02:00	608539	6108553abbf7a922fb6cfa3a	132221194	1	main_slash	11	main_slash	81	stimuli_distractor_trianglediamonds.svg	stimuli_distractor_trianglediamonds.svg	33	no	0	1	2000
6.6.1	win	2022-12-14	13:51:50	14:02:00	608539	6108553abbf7a922fb6cfa3a	132221194	1	main_slash	11	advance_on_keypress_SLASH	82	stimuli_distractor_trianglediamonds.svg	stimuli_distractor_trianglediamonds.svg	33	no	57	0	985
6.6.1	win	2022-12-14	13:51:50	14:02:02	610571	6108553abbf7a922fb6cfa3a	132221194	1	main_slash	11	main_slash	83	stimuli_distractor_trianglediamonds.svg	stimuli_target_squaretriangles.svg	11	yes	53	1	401
6.6.1	win	2022-12-14	13:51:50	14:02:02	610571	6108553abbf7a922fb6cfa3a	132221194	1	main_slash	11	advance_on_keypress_SLASH	84	stimuli_distractor_trianglediamonds.svg	stimuli_target_squaretriangles.svg	11	yes	57	0	249
6.6.1	win	2022-12-14	13:51:50	14:02:04	612202	6108553abbf7a922fb6cfa3a	132221194	1	main_slash	11	main_slash	85	stimuli_target_diamondsquares.svg	stimuli_distractor_trianglediamonds.svg	20	yes	53	1	722
6.6.1	win	2022-12-14	13:51:50	14:02:04	612202	6108553abbf7a922fb6cfa3a	132221194	1	main_slash	11	advance_on_keypress_SLASH	86	stimuli_target_diamondsquares.svg	stimuli_distractor_trianglediamonds.svg	20	yes	57	0	278
6.6.1	win	2022-12-14	13:51:50	14:02:06	614251	6108553abbf7a922fb6cfa3a	132221194	1	main_slash	11	main_slash	87	stimuli_distractor_trianglediamonds.svg	stimuli_target_diamondsquares.svg	28	yes	53	1	1112
6.6.1	win	2022-12-14	13:51:50	14:02:06	614251	6108553abbf7a922fb6cfa3a	132221194	1	main_slash	11	advance_on_keypress_SLASH	88	stimuli_distractor_trianglediamonds.svg	stimuli_target_diamondsquares.svg	28	yes	57	0	228
6.6.1	win	2022-12-14	13:51:50	14:02:08	615761	6108553abbf7a922fb6cfa3a	132221194	1	main_slash	11	main_slash	89	stimuli_target_trianglesquares.svg	stimuli_distractor_trianglediamonds.svg	18	yes	53	1	621
6.6.1	win	2022-12-14	13:51:50	14:02:08	615761	6108553abbf7a922fb6cfa3a	132221194	1	main_slash	11	advance_on_keypress_SLASH	90	stimuli_target_trianglesquares.svg	stimuli_distractor_trianglediamonds.svg	18	yes	57	0	222
6.6.1	win	2022-12-14	13:51:50	14:02:09	617052	6108553abbf7a922fb6cfa3a	132221194	1	main_slash	11	main_slash	91	stimuli_target_trianglecircles.svg	stimuli_distractor_trianglediamonds.svg	17	yes	53	1	411
6.6.1	win	2022-12-14	13:51:50	14:02:09	617052	6108553abbf7a922fb6cfa3a	132221194	1	main_slash	11	advance_on_keypress_SLASH	92	stimuli_target_trianglecircles.svg	stimuli_distractor_trianglediamonds.svg	17	yes	57	0	239
6.6.1	win	2022-12-14	13:51:50	14:02:10	618541	6108553abbf7a922fb6cfa3a	132221194	1	main_slash	11	main_slash	93	stimuli_distractor_trianglediamonds.svg	stimuli_target_circlediamonds.svg	10	yes	53	1	601
6.6.1	win	2022-12-14	13:51:50	14:02:10	618541	6108553abbf7a922fb6cfa3a	132221194	1	main_slash	11	advance_on_keypress_SLASH	94	stimuli_distractor_trianglediamonds.svg	stimuli_target_circlediamonds.svg	10	yes	57	0	149
6.6.1	win	2022-12-14	13:51:50	14:02:12	620002	6108553abbf7a922fb6cfa3a	132221194	1	main_slash	11	main_slash	95	stimuli_distractor_diamondtriangles.svg	stimuli_target_diamondsquares.svg	32	yes	53	1	656
6.6.1	win	2022-12-14	13:51:50	14:02:12	620002	6108553abbf7a922fb6cfa3a	132221194	1	main_slash	11	advance_on_keypress_SLASH	96	stimuli_distractor_diamondtriangles.svg	stimuli_target_diamondsquares.svg	32	yes	57	0	167
6.6.1	win	2022-12-14	13:51:50	14:02:13	621401	6108553abbf7a922fb6cfa3a	132221194	1	main_slash	11	main_slash	97	stimuli_target_circlediamonds.svg	stimuli_distractor_diamondtriangles.svg	6	yes	53	1	572
6.6.1	win	2022-12-14	13:51:50	14:02:13	621401	6108553abbf7a922fb6cfa3a	132221194	1	main_slash	11	advance_on_keypress_SLASH	98	stimuli_target_circlediamonds.svg	stimuli_distractor_diamondtriangles.svg	6	yes	57	0	163
6.6.1	win	2022-12-14	13:51:50	14:02:15	623081	6108553abbf7a922fb6cfa3a	132221194	1	main_slash	11	main_slash	99	stimuli_distractor_diamondtriangles.svg	stimuli_target_trianglesquares.svg	30	yes	53	1	862
6.6.1	win	2022-12-14	13:51:50	14:02:15	623081	6108553abbf7a922fb6cfa3a	132221194	1	main_slash	11	advance_on_keypress_SLASH	100	stimuli_distractor_diamondtriangles.svg	stimuli_target_trianglesquares.svg	30	yes	57	0	298
6.6.1	win	2022-12-14	13:51:50	14:02:16	624681	6108553abbf7a922fb6cfa3a	132221194	1	main_slash	11	main_slash	101	stimuli_target_squaretriangles.svg	stimuli_distractor_diamondtriangles.svg	7	yes	53	1	642
6.6.1	win	2022-12-14	13:51:50	14:02:16	624681	6108553abbf7a922fb6cfa3a	132221194	1	main_slash	11	advance_on_keypress_SLASH	102	stimuli_target_squaretriangles.svg	stimuli_distractor_diamondtriangles.svg	7	yes	57	0	247
6.6.1	win	2022-12-14	13:51:50	14:02:18	626131	6108553abbf7a922fb6cfa3a	132221194	1	main_slash	11	main_slash	103	stimuli_distractor_trianglediamonds.svg	stimuli_target_diamondcircles.svg	27	yes	53	1	552
6.6.1	win	2022-12-14	13:51:50	14:02:18	626131	6108553abbf7a922fb6cfa3a	132221194	1	main_slash	11	advance_on_keypress_SLASH	104	stimuli_distractor_trianglediamonds.svg	stimuli_target_diamondcircles.svg	27	yes	57	0	331
6.6.1	win	2022-12-14	13:51:50	14:02:20	628351	6108553abbf7a922fb6cfa3a	132221194	1	main_slash	11	main_slash	105	stimuli_distractor_trianglediamonds.svg	stimuli_distractor_diamondtriangles.svg	36	no	53	0	1232
6.6.1	win	2022-12-14	13:51:50	14:02:20	628351	6108553abbf7a922fb6cfa3a	132221194	1	main_slash	11	advance_on_keypress_SLASH	106	stimuli_distractor_trianglediamonds.svg	stimuli_distractor_diamondtriangles.svg	36	no	57	0	198
6.6.1	win	2022-12-14	13:51:50	14:02:22	630202	6108553abbf7a922fb6cfa3a	132221194	1	main_slash	11	main_slash	107	stimuli_target_trianglesquares.svg	stimuli_distractor_diamondtriangles.svg	22	yes	53	1	992
6.6.1	win	2022-12-14	13:51:50	14:02:22	630202	6108553abbf7a922fb6cfa3a	132221194	1	main_slash	11	advance_on_keypress_SLASH	108	stimuli_target_trianglesquares.svg	stimuli_distractor_diamondtriangles.svg	22	yes	57	0	158
6.6.1	win	2022-12-14	13:51:50	14:02:25	633007	6108553abbf7a922fb6cfa3a	132221194	1	main_slash	11	main_slash	109	stimuli_distractor_diamondtriangles.svg	stimuli_distractor_diamondtriangles.svg	39	no	0	1	2000
6.6.1	win	2022-12-14	13:51:50	14:02:25	633007	6108553abbf7a922fb6cfa3a	132221194	1	main_slash	11	advance_on_keypress_SLASH	110	stimuli_distractor_diamondtriangles.svg	stimuli_distractor_diamondtriangles.svg	39	no	57	0	708
6.6.1	win	2022-12-14	13:51:50	14:02:28	636361	6108553abbf7a922fb6cfa3a	132221194	1	main_slash	11	main_slash	111	stimuli_distractor_trianglediamonds.svg	stimuli_distractor_diamondtriangles.svg	35	no	0	1	2000
6.6.1	win	2022-12-14	13:51:50	14:02:28	636361	6108553abbf7a922fb6cfa3a	132221194	1	main_slash	11	advance_on_keypress_SLASH	112	stimuli_distractor_trianglediamonds.svg	stimuli_distractor_diamondtriangles.svg	35	no	57	0	720
6.6.1	win	2022-12-14	13:51:50	14:02:30	638361	6108553abbf7a922fb6cfa3a	132221194	1	main_slash	11	main_slash	113	stimuli_target_circlediamonds.svg	stimuli_distractor_trianglediamonds.svg	2	yes	53	1	622
6.6.1	win	2022-12-14	13:51:50	14:02:30	638361	6108553abbf7a922fb6cfa3a	132221194	1	main_slash	11	advance_on_keypress_SLASH	114	stimuli_target_circlediamonds.svg	stimuli_distractor_trianglediamonds.svg	2	yes	57	0	853
6.6.1	win	2022-12-14	13:51:50	14:02:32	640461	6108553abbf7a922fb6cfa3a	132221194	1	main_slash	11	main_slash	115	stimuli_distractor_trianglediamonds.svg	stimuli_target_squarediamonds.svg	12	yes	53	1	591
6.6.1	win	2022-12-14	13:51:50	14:02:32	640461	6108553abbf7a922fb6cfa3a	132221194	1	main_slash	11	advance_on_keypress_SLASH	116	stimuli_distractor_trianglediamonds.svg	stimuli_target_squarediamonds.svg	12	yes	57	0	216
6.6.1	win	2022-12-14	13:51:50	14:02:35	643329	6108553abbf7a922fb6cfa3a	132221194	1	main_slash	11	main_slash	117	stimuli_distractor_diamondtriangles.svg	stimuli_distractor_diamondtriangles.svg	40	no	0	1	2000
6.6.1	win	2022-12-14	13:51:50	14:02:35	643329	6108553abbf7a922fb6cfa3a	132221194	1	main_slash	11	advance_on_keypress_SLASH	118	stimuli_distractor_diamondtriangles.svg	stimuli_distractor_diamondtriangles.svg	40	no	57	0	394
6.6.1	win	2022-12-14	13:51:50	14:02:37	644895	6108553abbf7a922fb6cfa3a	132221194	1	main_slash	11	main_slash	119	stimuli_target_circletriangles.svg	stimuli_distractor_trianglediamonds.svg	1	yes	53	1	504
6.6.1	win	2022-12-14	13:51:50	14:02:37	644895	6108553abbf7a922fb6cfa3a	132221194	1	main_slash	11	advance_on_keypress_SLASH	120	stimuli_target_circletriangles.svg	stimuli_distractor_trianglediamonds.svg	1	yes	57	0	183
6.6.1	win	2022-12-14	13:51:50	14:02:39	646782	6108553abbf7a922fb6cfa3a	132221194	1	main_slash	11	main_slash	121	stimuli_distractor_diamondtriangles.svg	stimuli_target_squarediamonds.svg	16	yes	53	1	1042
6.6.1	win	2022-12-14	13:51:50	14:02:39	646782	6108553abbf7a922fb6cfa3a	132221194	1	main_slash	11	advance_on_keypress_SLASH	122	stimuli_distractor_diamondtriangles.svg	stimuli_target_squarediamonds.svg	16	yes	57	0	198
6.6.1	win	2022-12-14	13:51:50	14:02:41	649639	6108553abbf7a922fb6cfa3a	132221194	1	main_slash	11	main_slash	123	stimuli_distractor_diamondtriangles.svg	stimuli_distractor_trianglediamonds.svg	38	no	0	1	2000
6.6.1	win	2022-12-14	13:51:50	14:02:41	649639	6108553abbf7a922fb6cfa3a	132221194	1	main_slash	11	advance_on_keypress_SLASH	124	stimuli_distractor_diamondtriangles.svg	stimuli_distractor_trianglediamonds.svg	38	no	57	0	431
6.6.1	win	2022-12-14	13:51:50	14:02:43	651211	6108553abbf7a922fb6cfa3a	132221194	1	main_slash	11	main_slash	125	stimuli_distractor_diamondtriangles.svg	stimuli_target_diamondcircles.svg	31	yes	53	1	491
6.6.1	win	2022-12-14	13:51:50	14:02:43	651211	6108553abbf7a922fb6cfa3a	132221194	1	main_slash	11	advance_on_keypress_SLASH	126	stimuli_distractor_diamondtriangles.svg	stimuli_target_diamondcircles.svg	31	yes	57	0	196
6.6.1	win	2022-12-14	13:51:50	14:02:44	652551	6108553abbf7a922fb6cfa3a	132221194	1	main_slash	11	main_slash	127	stimuli_distractor_trianglediamonds.svg	stimuli_target_trianglesquares.svg	26	yes	53	1	492
6.6.1	win	2022-12-14	13:51:50	14:02:44	652551	6108553abbf7a922fb6cfa3a	132221194	1	main_slash	11	advance_on_keypress_SLASH	128	stimuli_distractor_trianglediamonds.svg	stimuli_target_trianglesquares.svg	26	yes	57	0	136
6.6.1	win	2022-12-14	13:51:50	14:02:46	654001	6108553abbf7a922fb6cfa3a	132221194	1	main_slash	11	main_slash	129	stimuli_target_squaretriangles.svg	stimuli_distractor_trianglediamonds.svg	3	yes	53	1	670
6.6.1	win	2022-12-14	13:51:50	14:02:46	654001	6108553abbf7a922fb6cfa3a	132221194	1	main_slash	11	advance_on_keypress_SLASH	130	stimuli_target_squaretriangles.svg	stimuli_distractor_trianglediamonds.svg	3	yes	57	0	138
6.6.1	win	2022-12-14	13:51:50	14:02:47	655281	6108553abbf7a922fb6cfa3a	132221194	1	main_slash	11	main_slash	131	stimuli_target_diamondcircles.svg	stimuli_distractor_trianglediamonds.svg	19	yes	53	1	491
6.6.1	win	2022-12-14	13:51:50	14:02:47	655281	6108553abbf7a922fb6cfa3a	132221194	1	main_slash	11	advance_on_keypress_SLASH	132	stimuli_target_diamondcircles.svg	stimuli_distractor_trianglediamonds.svg	19	yes	57	0	146
6.6.1	win	2022-12-14	13:51:50	14:02:48	656551	6108553abbf7a922fb6cfa3a	132221194	1	main_slash	11	main_slash	133	stimuli_target_squarediamonds.svg	stimuli_distractor_diamondtriangles.svg	8	yes	53	1	473
6.6.1	win	2022-12-14	13:51:50	14:02:48	656551	6108553abbf7a922fb6cfa3a	132221194	1	main_slash	11	advance_on_keypress_SLASH	134	stimuli_target_squarediamonds.svg	stimuli_distractor_diamondtriangles.svg	8	yes	57	0	374
6.6.1	win	2022-12-14	13:51:50	14:02:50	658251	6108553abbf7a922fb6cfa3a	132221194	1	main_slash	11	main_slash	135	stimuli_target_squarediamonds.svg	stimuli_distractor_trianglediamonds.svg	4	yes	53	1	672
6.6.1	win	2022-12-14	13:51:50	14:02:50	658251	6108553abbf7a922fb6cfa3a	132221194	1	main_slash	11	advance_on_keypress_SLASH	136	stimuli_target_squarediamonds.svg	stimuli_distractor_trianglediamonds.svg	4	yes	57	0	278
6.6.1	win	2022-12-14	13:51:50	14:02:52	659781	6108553abbf7a922fb6cfa3a	132221194	1	main_slash	11	main_slash	137	stimuli_distractor_trianglediamonds.svg	stimuli_target_trianglecircles.svg	25	yes	53	1	591
6.6.1	win	2022-12-14	13:51:50	14:02:52	659781	6108553abbf7a922fb6cfa3a	132221194	1	main_slash	11	advance_on_keypress_SLASH	138	stimuli_distractor_trianglediamonds.svg	stimuli_target_trianglecircles.svg	25	yes	57	0	146
6.6.1	win	2022-12-14	13:51:50	14:02:53	661201	6108553abbf7a922fb6cfa3a	132221194	1	main_slash	11	main_slash	139	stimuli_distractor_diamondtriangles.svg	stimuli_target_circlediamonds.svg	14	yes	53	1	622
6.6.1	win	2022-12-14	13:51:50	14:02:53	661201	6108553abbf7a922fb6cfa3a	132221194	1	main_slash	11	advance_on_keypress_SLASH	140	stimuli_distractor_diamondtriangles.svg	stimuli_target_circlediamonds.svg	14	yes	57	0	173
6.6.1	win	2022-12-14	13:51:50	14:02:54	662501	6108553abbf7a922fb6cfa3a	132221194	1	main_slash	11	main_slash	141	stimuli_distractor_diamondtriangles.svg	stimuli_target_squaretriangles.svg	15	yes	53	1	471
6.6.1	win	2022-12-14	13:51:50	14:02:54	662501	6108553abbf7a922fb6cfa3a	132221194	1	main_slash	11	advance_on_keypress_SLASH	142	stimuli_distractor_diamondtriangles.svg	stimuli_target_squaretriangles.svg	15	yes	57	0	153
6.6.1	win	2022-12-14	13:51:50	14:02:56	663931	6108553abbf7a922fb6cfa3a	132221194	1	main_slash	11	main_slash	143	stimuli_distractor_diamondtriangles.svg	stimuli_target_trianglecircles.svg	29	yes	53	1	629
6.6.1	win	2022-12-14	13:51:50	14:02:56	663931	6108553abbf7a922fb6cfa3a	132221194	1	main_slash	11	advance_on_keypress_SLASH	144	stimuli_distractor_diamondtriangles.svg	stimuli_target_trianglecircles.svg	29	yes	57	0	240
6.6.1	win	2022-12-14	13:51:50	14:02:57	665591	6108553abbf7a922fb6cfa3a	132221194	1	main_slash	11	main_slash	145	stimuli_target_diamondsquares.svg	stimuli_distractor_diamondtriangles.svg	24	yes	53	1	772
6.6.1	win	2022-12-14	13:51:50	14:02:57	665591	6108553abbf7a922fb6cfa3a	132221194	1	main_slash	11	advance_on_keypress_SLASH	146	stimuli_target_diamondsquares.svg	stimuli_distractor_diamondtriangles.svg	24	yes	57	0	138
6.6.1	win	2022-12-14	13:51:50	14:02:59	667021	6108553abbf7a922fb6cfa3a	132221194	1	main_slash	11	main_slash	147	stimuli_target_trianglecircles.svg	stimuli_distractor_diamondtriangles.svg	21	yes	53	1	641
6.6.1	win	2022-12-14	13:51:50	14:02:59	667021	6108553abbf7a922fb6cfa3a	132221194	1	main_slash	11	advance_on_keypress_SLASH	148	stimuli_target_trianglecircles.svg	stimuli_distractor_diamondtriangles.svg	21	yes	57	0	256
6.6.1	win	2022-12-14	13:51:50	14:03:00	668601	6108553abbf7a922fb6cfa3a	132221194	1	main_slash	11	main_slash	149	stimuli_target_diamondcircles.svg	stimuli_distractor_diamondtriangles.svg	23	yes	53	1	671
6.6.1	win	2022-12-14	13:51:50	14:03:00	668601	6108553abbf7a922fb6cfa3a	132221194	1	main_slash	11	advance_on_keypress_SLASH	150	stimuli_target_diamondcircles.svg	stimuli_distractor_diamondtriangles.svg	23	yes	57	0	221
6.6.1	win	2022-12-14	13:51:50	14:03:02	670031	6108553abbf7a922fb6cfa3a	132221194	1	main_slash	11	main_slash	151	stimuli_target_circletriangles.svg	stimuli_distractor_diamondtriangles.svg	5	yes	53	1	561
6.6.1	win	2022-12-14	13:51:50	14:03:02	670031	6108553abbf7a922fb6cfa3a	132221194	1	main_slash	11	advance_on_keypress_SLASH	152	stimuli_target_circletriangles.svg	stimuli_distractor_diamondtriangles.svg	5	yes	57	0	299
6.6.1	win	2022-12-14	13:51:50	14:03:05	672980	6108553abbf7a922fb6cfa3a	132221194	1	main_slash	11	main_slash	153	stimuli_distractor_diamondtriangles.svg	stimuli_distractor_trianglediamonds.svg	37	no	0	1	2000
6.6.1	win	2022-12-14	13:51:50	14:03:05	672980	6108553abbf7a922fb6cfa3a	132221194	1	main_slash	11	advance_on_keypress_SLASH	154	stimuli_distractor_diamondtriangles.svg	stimuli_distractor_trianglediamonds.svg	37	no	57	0	921
6.6.1	win	2022-12-14	13:51:50	14:03:07	675051	6108553abbf7a922fb6cfa3a	132221194	1	main_slash	11	main_slash	155	stimuli_distractor_trianglediamonds.svg	stimuli_target_circletriangles.svg	9	yes	53	1	491
6.6.1	win	2022-12-14	13:51:50	14:03:07	675051	6108553abbf7a922fb6cfa3a	132221194	1	main_slash	11	advance_on_keypress_SLASH	156	stimuli_distractor_trianglediamonds.svg	stimuli_target_circletriangles.svg	9	yes	57	0	176
6.6.1	win	2022-12-14	13:51:50	14:03:10	677881	6108553abbf7a922fb6cfa3a	132221194	1	main_slash	11	main_slash	157	stimuli_distractor_trianglediamonds.svg	stimuli_distractor_trianglediamonds.svg	34	no	0	1	2000
6.6.1	win	2022-12-14	13:51:50	14:03:10	677881	6108553abbf7a922fb6cfa3a	132221194	1	main_slash	11	advance_on_keypress_SLASH	158	stimuli_distractor_trianglediamonds.svg	stimuli_distractor_trianglediamonds.svg	34	no	57	0	628
6.6.1	win	2022-12-14	13:51:50	14:03:12	679771	6108553abbf7a922fb6cfa3a	132221194	1	main_slash	11	main_slash	159	stimuli_distractor_diamondtriangles.svg	stimuli_target_circletriangles.svg	13	yes	53	1	601
6.6.1	win	2022-12-14	13:51:50	14:03:12	679771	6108553abbf7a922fb6cfa3a	132221194	1	main_slash	11	advance_on_keypress_SLASH	160	stimuli_distractor_diamondtriangles.svg	stimuli_target_circletriangles.svg	13	yes	57	0	140