build	computer.platform	date	time	timestamp	time_elapsed_ms	subject	group	session	blockcode	blocknum	trialcode	trialnum	stimulus_left	stimulus_right	stim_index	target_present	response	correct	latency
6.6.1	win	2022-12-14	14:59:51	15:02:29	156421	5b0cb441444cef0001ca5fbd	925071376	1	practice_z	5	practice_z	1	stimuli_target_diamondsquares.svg	stimuli_distractor_diamondtriangles.svg	3	yes	0	0	2000
6.6.1	win	2022-12-14	14:59:51	15:02:29	156421	5b0cb441444cef0001ca5fbd	925071376	1	practice_z	5	advance_on_keypress_ZEE	2	stimuli_target_diamondsquares.svg	stimuli_distractor_diamondtriangles.svg	3	yes	57	0	651
6.6.1	win	2022-12-14	14:59:51	15:02:31	159023	5b0cb441444cef0001ca5fbd	925071376	1	practice_z	5	practice_z	3	stimuli_target_circlediamonds.svg	stimuli_distractor_trianglediamonds.svg	4	yes	44	1	300
6.6.1	win	2022-12-14	14:59:51	15:02:31	159023	5b0cb441444cef0001ca5fbd	925071376	1	practice_z	5	advance_on_keypress_ZEE	4	stimuli_target_circlediamonds.svg	stimuli_distractor_trianglediamonds.svg	4	yes	57	0	375
6.6.1	win	2022-12-14	14:59:51	15:02:33	161359	5b0cb441444cef0001ca5fbd	925071376	1	practice_z	5	practice_z	5	stimuli_target_squarediamonds.svg	stimuli_distractor_trianglediamonds.svg	5	yes	44	1	312
6.6.1	win	2022-12-14	14:59:51	15:02:33	161359	5b0cb441444cef0001ca5fbd	925071376	1	practice_z	5	advance_on_keypress_ZEE	6	stimuli_target_squarediamonds.svg	stimuli_distractor_trianglediamonds.svg	5	yes	57	0	301
6.6.1	win	2022-12-14	14:59:51	15:02:36	163533	5b0cb441444cef0001ca5fbd	925071376	1	practice_z	5	practice_z	7	stimuli_distractor_diamondtriangles.svg	stimuli_target_trianglecircles.svg	9	yes	44	1	228
6.6.1	win	2022-12-14	14:59:51	15:02:36	163533	5b0cb441444cef0001ca5fbd	925071376	1	practice_z	5	advance_on_keypress_ZEE	8	stimuli_distractor_diamondtriangles.svg	stimuli_target_trianglecircles.svg	9	yes	57	0	287
6.6.1	win	2022-12-14	14:59:51	15:02:38	165745	5b0cb441444cef0001ca5fbd	925071376	1	practice_z	5	practice_z	9	stimuli_distractor_diamondtriangles.svg	stimuli_distractor_diamondtriangles.svg	13	no	44	0	273
6.6.1	win	2022-12-14	14:59:51	15:02:38	165745	5b0cb441444cef0001ca5fbd	925071376	1	practice_z	5	advance_on_keypress_ZEE	10	stimuli_distractor_diamondtriangles.svg	stimuli_distractor_diamondtriangles.svg	13	no	57	0	191
6.6.1	win	2022-12-14	14:59:51	15:02:40	167768	5b0cb441444cef0001ca5fbd	925071376	1	practice_z	5	practice_z	11	stimuli_target_diamondsquares.svg	stimuli_distractor_trianglediamonds.svg	6	yes	44	1	190
6.6.1	win	2022-12-14	14:59:51	15:02:40	167768	5b0cb441444cef0001ca5fbd	925071376	1	practice_z	5	advance_on_keypress_ZEE	12	stimuli_target_diamondsquares.svg	stimuli_distractor_trianglediamonds.svg	6	yes	57	0	247
6.6.1	win	2022-12-14	14:59:51	15:02:42	169943	5b0cb441444cef0001ca5fbd	925071376	1	practice_z	5	practice_z	13	stimuli_distractor_diamondtriangles.svg	stimuli_target_diamondcircles.svg	8	yes	44	1	255
6.6.1	win	2022-12-14	14:59:51	15:02:42	169943	5b0cb441444cef0001ca5fbd	925071376	1	practice_z	5	advance_on_keypress_ZEE	14	stimuli_distractor_diamondtriangles.svg	stimuli_target_diamondcircles.svg	8	yes	57	0	241
6.6.1	win	2022-12-14	14:59:51	15:02:44	172005	5b0cb441444cef0001ca5fbd	925071376	1	practice_z	5	practice_z	15	stimuli_target_circlediamonds.svg	stimuli_distractor_diamondtriangles.svg	1	yes	44	1	186
6.6.1	win	2022-12-14	14:59:51	15:02:44	172005	5b0cb441444cef0001ca5fbd	925071376	1	practice_z	5	advance_on_keypress_ZEE	16	stimuli_target_circlediamonds.svg	stimuli_distractor_diamondtriangles.svg	1	yes	57	0	292
6.6.1	win	2022-12-14	14:59:51	15:02:46	174136	5b0cb441444cef0001ca5fbd	925071376	1	practice_z	5	practice_z	17	stimuli_target_squarediamonds.svg	stimuli_distractor_diamondtriangles.svg	2	yes	44	1	208
6.6.1	win	2022-12-14	14:59:51	15:02:46	174136	5b0cb441444cef0001ca5fbd	925071376	1	practice_z	5	advance_on_keypress_ZEE	18	stimuli_target_squarediamonds.svg	stimuli_distractor_diamondtriangles.svg	2	yes	57	0	190
6.6.1	win	2022-12-14	14:59:51	15:02:48	176250	5b0cb441444cef0001ca5fbd	925071376	1	practice_z	5	practice_z	19	stimuli_distractor_trianglediamonds.svg	stimuli_distractor_diamondtriangles.svg	16	no	44	0	259
6.6.1	win	2022-12-14	14:59:51	15:02:48	176250	5b0cb441444cef0001ca5fbd	925071376	1	practice_z	5	advance_on_keypress_ZEE	20	stimuli_distractor_trianglediamonds.svg	stimuli_distractor_diamondtriangles.svg	16	no	57	0	357
6.6.1	win	2022-12-14	14:59:51	15:02:51	178512	5b0cb441444cef0001ca5fbd	925071376	1	practice_z	5	practice_z	21	stimuli_distractor_diamondtriangles.svg	stimuli_distractor_trianglediamonds.svg	14	no	44	0	232
6.6.1	win	2022-12-14	14:59:51	15:02:51	178512	5b0cb441444cef0001ca5fbd	925071376	1	practice_z	5	advance_on_keypress_ZEE	22	stimuli_distractor_diamondtriangles.svg	stimuli_distractor_trianglediamonds.svg	14	no	57	0	212
6.6.1	win	2022-12-14	14:59:51	15:02:53	180546	5b0cb441444cef0001ca5fbd	925071376	1	practice_z	5	practice_z	23	stimuli_distractor_trianglediamonds.svg	stimuli_target_squarediamonds.svg	11	yes	44	1	193
6.6.1	win	2022-12-14	14:59:51	15:02:53	180546	5b0cb441444cef0001ca5fbd	925071376	1	practice_z	5	advance_on_keypress_ZEE	24	stimuli_distractor_trianglediamonds.svg	stimuli_target_squarediamonds.svg	11	yes	57	0	224
6.6.1	win	2022-12-14	14:59:51	15:02:55	182633	5b0cb441444cef0001ca5fbd	925071376	1	practice_z	5	practice_z	25	stimuli_distractor_trianglediamonds.svg	stimuli_target_diamondcircles.svg	12	yes	44	1	230
6.6.1	win	2022-12-14	14:59:51	15:02:55	182633	5b0cb441444cef0001ca5fbd	925071376	1	practice_z	5	advance_on_keypress_ZEE	26	stimuli_distractor_trianglediamonds.svg	stimuli_target_diamondcircles.svg	12	yes	57	0	276
6.6.1	win	2022-12-14	14:59:51	15:02:57	184841	5b0cb441444cef0001ca5fbd	925071376	1	practice_z	5	practice_z	27	stimuli_distractor_trianglediamonds.svg	stimuli_distractor_trianglediamonds.svg	15	no	44	0	276
6.6.1	win	2022-12-14	14:59:51	15:02:57	184841	5b0cb441444cef0001ca5fbd	925071376	1	practice_z	5	advance_on_keypress_ZEE	28	stimuli_distractor_trianglediamonds.svg	stimuli_distractor_trianglediamonds.svg	15	no	57	0	431
6.6.1	win	2022-12-14	14:59:51	15:02:59	187242	5b0cb441444cef0001ca5fbd	925071376	1	practice_z	5	practice_z	29	stimuli_distractor_diamondtriangles.svg	stimuli_target_circletriangles.svg	7	yes	44	1	313
6.6.1	win	2022-12-14	14:59:51	15:02:59	187242	5b0cb441444cef0001ca5fbd	925071376	1	practice_z	5	advance_on_keypress_ZEE	30	stimuli_distractor_diamondtriangles.svg	stimuli_target_circletriangles.svg	7	yes	57	0	213
6.6.1	win	2022-12-14	14:59:51	15:03:02	189431	5b0cb441444cef0001ca5fbd	925071376	1	practice_z	5	practice_z	31	stimuli_distractor_trianglediamonds.svg	stimuli_target_circlediamonds.svg	10	yes	44	1	333
6.6.1	win	2022-12-14	14:59:51	15:03:02	189431	5b0cb441444cef0001ca5fbd	925071376	1	practice_z	5	advance_on_keypress_ZEE	32	stimuli_distractor_trianglediamonds.svg	stimuli_target_circlediamonds.svg	10	yes	57	0	429
6.6.1	win	2022-12-14	14:59:51	15:03:08	195735	5b0cb441444cef0001ca5fbd	925071376	1	main_z	7	main_z	1	stimuli_distractor_trianglediamonds.svg	stimuli_distractor_diamondtriangles.svg	36	no	44	0	382
6.6.1	win	2022-12-14	14:59:51	15:03:08	195735	5b0cb441444cef0001ca5fbd	925071376	1	main_z	7	advance_on_keypress_ZEE	2	stimuli_distractor_trianglediamonds.svg	stimuli_distractor_diamondtriangles.svg	36	no	57	0	972
6.6.1	win	2022-12-14	14:59:51	15:03:10	197625	5b0cb441444cef0001ca5fbd	925071376	1	main_z	7	main_z	3	stimuli_target_squarediamonds.svg	stimuli_distractor_diamondtriangles.svg	8	yes	44	1	276
6.6.1	win	2022-12-14	14:59:51	15:03:10	197625	5b0cb441444cef0001ca5fbd	925071376	1	main_z	7	advance_on_keypress_ZEE	4	stimuli_target_squarediamonds.svg	stimuli_distractor_diamondtriangles.svg	8	yes	57	0	1535
6.6.1	win	2022-12-14	14:59:51	15:03:12	199977	5b0cb441444cef0001ca5fbd	925071376	1	main_z	7	main_z	5	stimuli_target_circletriangles.svg	stimuli_distractor_diamondtriangles.svg	5	yes	44	1	178
6.6.1	win	2022-12-14	14:59:51	15:03:12	199977	5b0cb441444cef0001ca5fbd	925071376	1	main_z	7	advance_on_keypress_ZEE	6	stimuli_target_circletriangles.svg	stimuli_distractor_diamondtriangles.svg	5	yes	57	0	1218
6.6.1	win	2022-12-14	14:59:51	15:03:14	202017	5b0cb441444cef0001ca5fbd	925071376	1	main_z	7	main_z	7	stimuli_target_circletriangles.svg	stimuli_distractor_trianglediamonds.svg	1	yes	44	1	181
6.6.1	win	2022-12-14	14:59:51	15:03:14	202017	5b0cb441444cef0001ca5fbd	925071376	1	main_z	7	advance_on_keypress_ZEE	8	stimuli_target_circletriangles.svg	stimuli_distractor_trianglediamonds.svg	1	yes	57	0	627
6.6.1	win	2022-12-14	14:59:51	15:03:16	203484	5b0cb441444cef0001ca5fbd	925071376	1	main_z	7	main_z	9	stimuli_distractor_diamondtriangles.svg	stimuli_target_squaretriangles.svg	15	yes	44	1	211
6.6.1	win	2022-12-14	14:59:51	15:03:16	203484	5b0cb441444cef0001ca5fbd	925071376	1	main_z	7	advance_on_keypress_ZEE	10	stimuli_distractor_diamondtriangles.svg	stimuli_target_squaretriangles.svg	15	yes	57	0	491
6.6.1	win	2022-12-14	14:59:51	15:03:17	204809	5b0cb441444cef0001ca5fbd	925071376	1	main_z	7	main_z	11	stimuli_distractor_trianglediamonds.svg	stimuli_target_squarediamonds.svg	12	yes	44	1	197
6.6.1	win	2022-12-14	14:59:51	15:03:17	204809	5b0cb441444cef0001ca5fbd	925071376	1	main_z	7	advance_on_keypress_ZEE	12	stimuli_distractor_trianglediamonds.svg	stimuli_target_squarediamonds.svg	12	yes	57	0	492
6.6.1	win	2022-12-14	14:59:51	15:03:18	206198	5b0cb441444cef0001ca5fbd	925071376	1	main_z	7	main_z	13	stimuli_distractor_trianglediamonds.svg	stimuli_target_circlediamonds.svg	10	yes	44	1	274
6.6.1	win	2022-12-14	14:59:51	15:03:18	206198	5b0cb441444cef0001ca5fbd	925071376	1	main_z	7	advance_on_keypress_ZEE	14	stimuli_distractor_trianglediamonds.svg	stimuli_target_circlediamonds.svg	10	yes	57	0	528
6.6.1	win	2022-12-14	14:59:51	15:03:20	207578	5b0cb441444cef0001ca5fbd	925071376	1	main_z	7	main_z	15	stimuli_distractor_diamondtriangles.svg	stimuli_distractor_trianglediamonds.svg	37	no	44	0	224
6.6.1	win	2022-12-14	14:59:51	15:03:20	207578	5b0cb441444cef0001ca5fbd	925071376	1	main_z	7	advance_on_keypress_ZEE	16	stimuli_distractor_diamondtriangles.svg	stimuli_distractor_trianglediamonds.svg	37	no	57	0	429
6.6.1	win	2022-12-14	14:59:51	15:03:21	208873	5b0cb441444cef0001ca5fbd	925071376	1	main_z	7	main_z	17	stimuli_distractor_diamondtriangles.svg	stimuli_target_trianglecircles.svg	29	yes	44	1	230
6.6.1	win	2022-12-14	14:59:51	15:03:21	208873	5b0cb441444cef0001ca5fbd	925071376	1	main_z	7	advance_on_keypress_ZEE	18	stimuli_distractor_diamondtriangles.svg	stimuli_target_trianglecircles.svg	29	yes	57	0	470
6.6.1	win	2022-12-14	14:59:51	15:03:22	210231	5b0cb441444cef0001ca5fbd	925071376	1	main_z	7	main_z	19	stimuli_target_trianglesquares.svg	stimuli_distractor_trianglediamonds.svg	18	yes	44	1	251
6.6.1	win	2022-12-14	14:59:51	15:03:22	210231	5b0cb441444cef0001ca5fbd	925071376	1	main_z	7	advance_on_keypress_ZEE	20	stimuli_target_trianglesquares.svg	stimuli_distractor_trianglediamonds.svg	18	yes	57	0	444
6.6.1	win	2022-12-14	14:59:51	15:03:24	211654	5b0cb441444cef0001ca5fbd	925071376	1	main_z	7	main_z	21	stimuli_distractor_trianglediamonds.svg	stimuli_target_diamondsquares.svg	28	yes	44	1	351
6.6.1	win	2022-12-14	14:59:51	15:03:24	211654	5b0cb441444cef0001ca5fbd	925071376	1	main_z	7	advance_on_keypress_ZEE	22	stimuli_distractor_trianglediamonds.svg	stimuli_target_diamondsquares.svg	28	yes	57	0	396
6.6.1	win	2022-12-14	14:59:51	15:03:25	213129	5b0cb441444cef0001ca5fbd	925071376	1	main_z	7	main_z	23	stimuli_target_diamondcircles.svg	stimuli_distractor_trianglediamonds.svg	19	yes	44	1	451
6.6.1	win	2022-12-14	14:59:51	15:03:25	213129	5b0cb441444cef0001ca5fbd	925071376	1	main_z	7	advance_on_keypress_ZEE	24	stimuli_target_diamondcircles.svg	stimuli_distractor_trianglediamonds.svg	19	yes	57	0	539
6.6.1	win	2022-12-14	14:59:51	15:03:27	214454	5b0cb441444cef0001ca5fbd	925071376	1	main_z	7	main_z	25	stimuli_target_trianglecircles.svg	stimuli_distractor_diamondtriangles.svg	21	yes	44	1	146
6.6.1	win	2022-12-14	14:59:51	15:03:27	214454	5b0cb441444cef0001ca5fbd	925071376	1	main_z	7	advance_on_keypress_ZEE	26	stimuli_target_trianglecircles.svg	stimuli_distractor_diamondtriangles.svg	21	yes	57	0	513
6.6.1	win	2022-12-14	14:59:51	15:03:28	215762	5b0cb441444cef0001ca5fbd	925071376	1	main_z	7	main_z	27	stimuli_distractor_diamondtriangles.svg	stimuli_distractor_diamondtriangles.svg	40	no	44	0	149
6.6.1	win	2022-12-14	14:59:51	15:03:28	215762	5b0cb441444cef0001ca5fbd	925071376	1	main_z	7	advance_on_keypress_ZEE	28	stimuli_distractor_diamondtriangles.svg	stimuli_distractor_diamondtriangles.svg	40	no	57	0	454
6.6.1	win	2022-12-14	14:59:51	15:03:29	217091	5b0cb441444cef0001ca5fbd	925071376	1	main_z	7	main_z	29	stimuli_target_circlediamonds.svg	stimuli_distractor_diamondtriangles.svg	6	yes	44	1	237
6.6.1	win	2022-12-14	14:59:51	15:03:29	217091	5b0cb441444cef0001ca5fbd	925071376	1	main_z	7	advance_on_keypress_ZEE	30	stimuli_target_circlediamonds.svg	stimuli_distractor_diamondtriangles.svg	6	yes	57	0	402
6.6.1	win	2022-12-14	14:59:51	15:03:30	218294	5b0cb441444cef0001ca5fbd	925071376	1	main_z	7	main_z	31	stimuli_target_squaretriangles.svg	stimuli_distractor_trianglediamonds.svg	3	yes	44	1	179
6.6.1	win	2022-12-14	14:59:51	15:03:30	218294	5b0cb441444cef0001ca5fbd	925071376	1	main_z	7	advance_on_keypress_ZEE	32	stimuli_target_squaretriangles.svg	stimuli_distractor_trianglediamonds.svg	3	yes	57	0	387
6.6.1	win	2022-12-14	14:59:51	15:03:32	219546	5b0cb441444cef0001ca5fbd	925071376	1	main_z	7	main_z	33	stimuli_distractor_trianglediamonds.svg	stimuli_target_trianglecircles.svg	25	yes	44	1	223
6.6.1	win	2022-12-14	14:59:51	15:03:32	219546	5b0cb441444cef0001ca5fbd	925071376	1	main_z	7	advance_on_keypress_ZEE	34	stimuli_distractor_trianglediamonds.svg	stimuli_target_trianglecircles.svg	25	yes	57	0	373
6.6.1	win	2022-12-14	14:59:51	15:03:33	220806	5b0cb441444cef0001ca5fbd	925071376	1	main_z	7	main_z	35	stimuli_target_diamondsquares.svg	stimuli_distractor_diamondtriangles.svg	24	yes	44	1	241
6.6.1	win	2022-12-14	14:59:51	15:03:33	220806	5b0cb441444cef0001ca5fbd	925071376	1	main_z	7	advance_on_keypress_ZEE	36	stimuli_target_diamondsquares.svg	stimuli_distractor_diamondtriangles.svg	24	yes	57	0	336
6.6.1	win	2022-12-14	14:59:51	15:03:34	222102	5b0cb441444cef0001ca5fbd	925071376	1	main_z	7	main_z	37	stimuli_target_trianglecircles.svg	stimuli_distractor_trianglediamonds.svg	17	yes	44	1	323
6.6.1	win	2022-12-14	14:59:51	15:03:34	222102	5b0cb441444cef0001ca5fbd	925071376	1	main_z	7	advance_on_keypress_ZEE	38	stimuli_target_trianglecircles.svg	stimuli_distractor_trianglediamonds.svg	17	yes	57	0	360
6.6.1	win	2022-12-14	14:59:51	15:03:35	223272	5b0cb441444cef0001ca5fbd	925071376	1	main_z	7	main_z	39	stimuli_target_squarediamonds.svg	stimuli_distractor_trianglediamonds.svg	4	yes	44	1	165
6.6.1	win	2022-12-14	14:59:51	15:03:35	223272	5b0cb441444cef0001ca5fbd	925071376	1	main_z	7	advance_on_keypress_ZEE	40	stimuli_target_squarediamonds.svg	stimuli_distractor_trianglediamonds.svg	4	yes	57	0	614
6.6.1	win	2022-12-14	14:59:51	15:03:37	224726	5b0cb441444cef0001ca5fbd	925071376	1	main_z	7	main_z	41	stimuli_distractor_trianglediamonds.svg	stimuli_target_diamondcircles.svg	27	yes	44	1	204
6.6.1	win	2022-12-14	14:59:51	15:03:37	224726	5b0cb441444cef0001ca5fbd	925071376	1	main_z	7	advance_on_keypress_ZEE	42	stimuli_distractor_trianglediamonds.svg	stimuli_target_diamondcircles.svg	27	yes	57	0	539
6.6.1	win	2022-12-14	14:59:51	15:03:38	225970	5b0cb441444cef0001ca5fbd	925071376	1	main_z	7	main_z	43	stimuli_distractor_diamondtriangles.svg	stimuli_distractor_diamondtriangles.svg	39	no	44	0	91
6.6.1	win	2022-12-14	14:59:51	15:03:38	225970	5b0cb441444cef0001ca5fbd	925071376	1	main_z	7	advance_on_keypress_ZEE	44	stimuli_distractor_diamondtriangles.svg	stimuli_distractor_diamondtriangles.svg	39	no	57	0	388
6.6.1	win	2022-12-14	14:59:51	15:03:39	227220	5b0cb441444cef0001ca5fbd	925071376	1	main_z	7	main_z	45	stimuli_target_diamondsquares.svg	stimuli_distractor_trianglediamonds.svg	20	yes	44	1	219
6.6.1	win	2022-12-14	14:59:51	15:03:39	227220	5b0cb441444cef0001ca5fbd	925071376	1	main_z	7	advance_on_keypress_ZEE	46	stimuli_target_diamondsquares.svg	stimuli_distractor_trianglediamonds.svg	20	yes	57	0	520
6.6.1	win	2022-12-14	14:59:51	15:03:41	228597	5b0cb441444cef0001ca5fbd	925071376	1	main_z	7	main_z	47	stimuli_distractor_diamondtriangles.svg	stimuli_target_diamondsquares.svg	32	yes	44	1	229
6.6.1	win	2022-12-14	14:59:51	15:03:41	228597	5b0cb441444cef0001ca5fbd	925071376	1	main_z	7	advance_on_keypress_ZEE	48	stimuli_distractor_diamondtriangles.svg	stimuli_target_diamondsquares.svg	32	yes	57	0	475
6.6.1	win	2022-12-14	14:59:51	15:03:42	229907	5b0cb441444cef0001ca5fbd	925071376	1	main_z	7	main_z	49	stimuli_target_squaretriangles.svg	stimuli_distractor_diamondtriangles.svg	7	yes	44	1	199
6.6.1	win	2022-12-14	14:59:51	15:03:42	229907	5b0cb441444cef0001ca5fbd	925071376	1	main_z	7	advance_on_keypress_ZEE	50	stimuli_target_squaretriangles.svg	stimuli_distractor_diamondtriangles.svg	7	yes	57	0	385
6.6.1	win	2022-12-14	14:59:51	15:03:43	231094	5b0cb441444cef0001ca5fbd	925071376	1	main_z	7	main_z	51	stimuli_distractor_diamondtriangles.svg	stimuli_target_circlediamonds.svg	14	yes	44	1	171
6.6.1	win	2022-12-14	14:59:51	15:03:43	231094	5b0cb441444cef0001ca5fbd	925071376	1	main_z	7	advance_on_keypress_ZEE	52	stimuli_distractor_diamondtriangles.svg	stimuli_target_circlediamonds.svg	14	yes	57	0	344
6.6.1	win	2022-12-14	14:59:51	15:03:44	232235	5b0cb441444cef0001ca5fbd	925071376	1	main_z	7	main_z	53	stimuli_target_diamondcircles.svg	stimuli_distractor_diamondtriangles.svg	23	yes	44	1	151
6.6.1	win	2022-12-14	14:59:51	15:03:44	232235	5b0cb441444cef0001ca5fbd	925071376	1	main_z	7	advance_on_keypress_ZEE	54	stimuli_target_diamondcircles.svg	stimuli_distractor_diamondtriangles.svg	23	yes	57	0	410
6.6.1	win	2022-12-14	14:59:51	15:03:46	233450	5b0cb441444cef0001ca5fbd	925071376	1	main_z	7	main_z	55	stimuli_distractor_trianglediamonds.svg	stimuli_target_squaretriangles.svg	11	yes	44	1	169
6.6.1	win	2022-12-14	14:59:51	15:03:46	233450	5b0cb441444cef0001ca5fbd	925071376	1	main_z	7	advance_on_keypress_ZEE	56	stimuli_distractor_trianglediamonds.svg	stimuli_target_squaretriangles.svg	11	yes	57	0	419
6.6.1	win	2022-12-14	14:59:51	15:03:47	234702	5b0cb441444cef0001ca5fbd	925071376	1	main_z	7	main_z	57	stimuli_distractor_diamondtriangles.svg	stimuli_target_trianglesquares.svg	30	yes	44	1	195
6.6.1	win	2022-12-14	14:59:51	15:03:47	234702	5b0cb441444cef0001ca5fbd	925071376	1	main_z	7	advance_on_keypress_ZEE	58	stimuli_distractor_diamondtriangles.svg	stimuli_target_trianglesquares.svg	30	yes	57	0	360
6.6.1	win	2022-12-14	14:59:51	15:03:48	235958	5b0cb441444cef0001ca5fbd	925071376	1	main_z	7	main_z	59	stimuli_target_circlediamonds.svg	stimuli_distractor_trianglediamonds.svg	2	yes	44	1	260
6.6.1	win	2022-12-14	14:59:51	15:03:48	235958	5b0cb441444cef0001ca5fbd	925071376	1	main_z	7	advance_on_keypress_ZEE	60	stimuli_target_circlediamonds.svg	stimuli_distractor_trianglediamonds.svg	2	yes	57	0	399
6.6.1	win	2022-12-14	14:59:51	15:03:51	238980	5b0cb441444cef0001ca5fbd	925071376	1	main_z	7	main_z	61	stimuli_distractor_diamondtriangles.svg	stimuli_target_squarediamonds.svg	16	yes	0	0	2000
6.6.1	win	2022-12-14	14:59:51	15:03:51	238980	5b0cb441444cef0001ca5fbd	925071376	1	main_z	7	advance_on_keypress_ZEE	62	stimuli_distractor_diamondtriangles.svg	stimuli_target_squarediamonds.svg	16	yes	57	0	296
6.6.1	win	2022-12-14	14:59:51	15:03:52	240188	5b0cb441444cef0001ca5fbd	925071376	1	main_z	7	main_z	63	stimuli_distractor_diamondtriangles.svg	stimuli_target_diamondcircles.svg	31	yes	44	1	266
6.6.1	win	2022-12-14	14:59:51	15:03:52	240188	5b0cb441444cef0001ca5fbd	925071376	1	main_z	7	advance_on_keypress_ZEE	64	stimuli_distractor_diamondtriangles.svg	stimuli_target_diamondcircles.svg	31	yes	57	0	527
6.6.1	win	2022-12-14	14:59:51	15:03:55	243375	5b0cb441444cef0001ca5fbd	925071376	1	main_z	7	main_z	65	stimuli_distractor_trianglediamonds.svg	stimuli_distractor_diamondtriangles.svg	35	no	0	1	2000
6.6.1	win	2022-12-14	14:59:51	15:03:55	243375	5b0cb441444cef0001ca5fbd	925071376	1	main_z	7	advance_on_keypress_ZEE	66	stimuli_distractor_trianglediamonds.svg	stimuli_distractor_diamondtriangles.svg	35	no	57	0	340
6.6.1	win	2022-12-14	14:59:51	15:03:57	244580	5b0cb441444cef0001ca5fbd	925071376	1	main_z	7	main_z	67	stimuli_distractor_trianglediamonds.svg	stimuli_distractor_trianglediamonds.svg	34	no	44	0	229
6.6.1	win	2022-12-14	14:59:51	15:03:57	244580	5b0cb441444cef0001ca5fbd	925071376	1	main_z	7	advance_on_keypress_ZEE	68	stimuli_distractor_trianglediamonds.svg	stimuli_distractor_trianglediamonds.svg	34	no	57	0	653
6.6.1	win	2022-12-14	14:59:51	15:03:58	246102	5b0cb441444cef0001ca5fbd	925071376	1	main_z	7	main_z	69	stimuli_distractor_trianglediamonds.svg	stimuli_target_circletriangles.svg	9	yes	44	1	247
6.6.1	win	2022-12-14	14:59:51	15:03:58	246102	5b0cb441444cef0001ca5fbd	925071376	1	main_z	7	advance_on_keypress_ZEE	70	stimuli_distractor_trianglediamonds.svg	stimuli_target_circletriangles.svg	9	yes	57	0	582
6.6.1	win	2022-12-14	14:59:51	15:04:00	247531	5b0cb441444cef0001ca5fbd	925071376	1	main_z	7	main_z	71	stimuli_distractor_diamondtriangles.svg	stimuli_distractor_trianglediamonds.svg	38	no	44	0	209
6.6.1	win	2022-12-14	14:59:51	15:04:00	247531	5b0cb441444cef0001ca5fbd	925071376	1	main_z	7	advance_on_keypress_ZEE	72	stimuli_distractor_diamondtriangles.svg	stimuli_distractor_trianglediamonds.svg	38	no	57	0	487
6.6.1	win	2022-12-14	14:59:51	15:04:01	248937	5b0cb441444cef0001ca5fbd	925071376	1	main_z	7	main_z	73	stimuli_distractor_trianglediamonds.svg	stimuli_distractor_trianglediamonds.svg	33	no	44	0	267
6.6.1	win	2022-12-14	14:59:51	15:04:01	248937	5b0cb441444cef0001ca5fbd	925071376	1	main_z	7	advance_on_keypress_ZEE	74	stimuli_distractor_trianglediamonds.svg	stimuli_distractor_trianglediamonds.svg	33	no	57	0	550
6.6.1	win	2022-12-14	14:59:51	15:04:03	250542	5b0cb441444cef0001ca5fbd	925071376	1	main_z	7	main_z	75	stimuli_distractor_diamondtriangles.svg	stimuli_target_circletriangles.svg	13	yes	44	1	424
6.6.1	win	2022-12-14	14:59:51	15:04:03	250542	5b0cb441444cef0001ca5fbd	925071376	1	main_z	7	advance_on_keypress_ZEE	76	stimuli_distractor_diamondtriangles.svg	stimuli_target_circletriangles.svg	13	yes	57	0	500
6.6.1	win	2022-12-14	14:59:51	15:04:04	251907	5b0cb441444cef0001ca5fbd	925071376	1	main_z	7	main_z	77	stimuli_distractor_trianglediamonds.svg	stimuli_target_trianglesquares.svg	26	yes	44	1	235
6.6.1	win	2022-12-14	14:59:51	15:04:04	251907	5b0cb441444cef0001ca5fbd	925071376	1	main_z	7	advance_on_keypress_ZEE	78	stimuli_distractor_trianglediamonds.svg	stimuli_target_trianglesquares.svg	26	yes	57	0	544
6.6.1	win	2022-12-14	14:59:51	15:04:07	255095	5b0cb441444cef0001ca5fbd	925071376	1	main_z	7	main_z	79	stimuli_target_trianglesquares.svg	stimuli_distractor_diamondtriangles.svg	22	yes	0	0	2000
6.6.1	win	2022-12-14	14:59:51	15:04:07	255095	5b0cb441444cef0001ca5fbd	925071376	1	main_z	7	advance_on_keypress_ZEE	80	stimuli_target_trianglesquares.svg	stimuli_distractor_diamondtriangles.svg	22	yes	57	0	240
6.6.1	win	2022-12-14	14:59:51	15:04:08	256064	5b0cb441444cef0001ca5fbd	925071376	1	main_z	7	main_z	81	stimuli_target_diamondcircles.svg	stimuli_distractor_diamondtriangles.svg	23	yes	44	1	86
6.6.1	win	2022-12-14	14:59:51	15:04:08	256064	5b0cb441444cef0001ca5fbd	925071376	1	main_z	7	advance_on_keypress_ZEE	82	stimuli_target_diamondcircles.svg	stimuli_distractor_diamondtriangles.svg	23	yes	57	0	795
6.6.1	win	2022-12-14	14:59:51	15:04:10	257549	5b0cb441444cef0001ca5fbd	925071376	1	main_z	7	main_z	83	stimuli_target_circlediamonds.svg	stimuli_distractor_diamondtriangles.svg	6	yes	44	1	53
6.6.1	win	2022-12-14	14:59:51	15:04:10	257549	5b0cb441444cef0001ca5fbd	925071376	1	main_z	7	advance_on_keypress_ZEE	84	stimuli_target_circlediamonds.svg	stimuli_distractor_diamondtriangles.svg	6	yes	57	0	464
6.6.1	win	2022-12-14	14:59:51	15:04:11	258785	5b0cb441444cef0001ca5fbd	925071376	1	main_z	7	main_z	85	stimuli_target_diamondcircles.svg	stimuli_distractor_trianglediamonds.svg	19	yes	44	1	137
6.6.1	win	2022-12-14	14:59:51	15:04:11	258785	5b0cb441444cef0001ca5fbd	925071376	1	main_z	7	advance_on_keypress_ZEE	86	stimuli_target_diamondcircles.svg	stimuli_distractor_trianglediamonds.svg	19	yes	57	0	474
6.6.1	win	2022-12-14	14:59:51	15:04:12	260168	5b0cb441444cef0001ca5fbd	925071376	1	main_z	7	main_z	87	stimuli_distractor_trianglediamonds.svg	stimuli_distractor_trianglediamonds.svg	33	no	44	0	287
6.6.1	win	2022-12-14	14:59:51	15:04:12	260168	5b0cb441444cef0001ca5fbd	925071376	1	main_z	7	advance_on_keypress_ZEE	88	stimuli_distractor_trianglediamonds.svg	stimuli_distractor_trianglediamonds.svg	33	no	57	0	379
6.6.1	win	2022-12-14	14:59:51	15:04:14	261587	5b0cb441444cef0001ca5fbd	925071376	1	main_z	7	main_z	89	stimuli_distractor_trianglediamonds.svg	stimuli_target_trianglesquares.svg	26	yes	44	1	422
6.6.1	win	2022-12-14	14:59:51	15:04:14	261587	5b0cb441444cef0001ca5fbd	925071376	1	main_z	7	advance_on_keypress_ZEE	90	stimuli_distractor_trianglediamonds.svg	stimuli_target_trianglesquares.svg	26	yes	57	0	411
6.6.1	win	2022-12-14	14:59:51	15:04:15	262720	5b0cb441444cef0001ca5fbd	925071376	1	main_z	7	main_z	91	stimuli_target_circletriangles.svg	stimuli_distractor_diamondtriangles.svg	5	yes	44	1	87
6.6.1	win	2022-12-14	14:59:51	15:04:15	262720	5b0cb441444cef0001ca5fbd	925071376	1	main_z	7	advance_on_keypress_ZEE	92	stimuli_target_circletriangles.svg	stimuli_distractor_diamondtriangles.svg	5	yes	57	0	402
6.6.1	win	2022-12-14	14:59:51	15:04:16	264019	5b0cb441444cef0001ca5fbd	925071376	1	main_z	7	main_z	93	stimuli_distractor_diamondtriangles.svg	stimuli_target_trianglesquares.svg	30	yes	44	1	252
6.6.1	win	2022-12-14	14:59:51	15:04:16	264019	5b0cb441444cef0001ca5fbd	925071376	1	main_z	7	advance_on_keypress_ZEE	94	stimuli_distractor_diamondtriangles.svg	stimuli_target_trianglesquares.svg	30	yes	57	0	336
6.6.1	win	2022-12-14	14:59:51	15:04:17	265239	5b0cb441444cef0001ca5fbd	925071376	1	main_z	7	main_z	95	stimuli_distractor_trianglediamonds.svg	stimuli_target_trianglecircles.svg	25	yes	44	1	249
6.6.1	win	2022-12-14	14:59:51	15:04:17	265239	5b0cb441444cef0001ca5fbd	925071376	1	main_z	7	advance_on_keypress_ZEE	96	stimuli_distractor_trianglediamonds.svg	stimuli_target_trianglecircles.svg	25	yes	57	0	381
6.6.1	win	2022-12-14	14:59:51	15:04:19	266449	5b0cb441444cef0001ca5fbd	925071376	1	main_z	7	main_z	97	stimuli_target_squaretriangles.svg	stimuli_distractor_diamondtriangles.svg	7	yes	44	1	197
6.6.1	win	2022-12-14	14:59:51	15:04:19	266449	5b0cb441444cef0001ca5fbd	925071376	1	main_z	7	advance_on_keypress_ZEE	98	stimuli_target_squaretriangles.svg	stimuli_distractor_diamondtriangles.svg	7	yes	57	0	340
6.6.1	win	2022-12-14	14:59:51	15:04:20	267656	5b0cb441444cef0001ca5fbd	925071376	1	main_z	7	main_z	99	stimuli_target_trianglesquares.svg	stimuli_distractor_trianglediamonds.svg	18	yes	44	1	230
6.6.1	win	2022-12-14	14:59:51	15:04:20	267656	5b0cb441444cef0001ca5fbd	925071376	1	main_z	7	advance_on_keypress_ZEE	100	stimuli_target_trianglesquares.svg	stimuli_distractor_trianglediamonds.svg	18	yes	57	0	263
6.6.1	win	2022-12-14	14:59:51	15:04:21	268766	5b0cb441444cef0001ca5fbd	925071376	1	main_z	7	main_z	101	stimuli_distractor_diamondtriangles.svg	stimuli_target_squaretriangles.svg	15	yes	44	1	188
6.6.1	win	2022-12-14	14:59:51	15:04:21	268766	5b0cb441444cef0001ca5fbd	925071376	1	main_z	7	advance_on_keypress_ZEE	102	stimuli_distractor_diamondtriangles.svg	stimuli_target_squaretriangles.svg	15	yes	57	0	315
6.6.1	win	2022-12-14	14:59:51	15:04:22	269912	5b0cb441444cef0001ca5fbd	925071376	1	main_z	7	main_z	103	stimuli_distractor_trianglediamonds.svg	stimuli_target_squarediamonds.svg	12	yes	44	1	176
6.6.1	win	2022-12-14	14:59:51	15:04:22	269912	5b0cb441444cef0001ca5fbd	925071376	1	main_z	7	advance_on_keypress_ZEE	104	stimuli_distractor_trianglediamonds.svg	stimuli_target_squarediamonds.svg	12	yes	57	0	463
6.6.1	win	2022-12-14	14:59:51	15:04:23	271189	5b0cb441444cef0001ca5fbd	925071376	1	main_z	7	main_z	105	stimuli_distractor_diamondtriangles.svg	stimuli_target_circlediamonds.svg	14	yes	44	1	182
6.6.1	win	2022-12-14	14:59:51	15:04:23	271189	5b0cb441444cef0001ca5fbd	925071376	1	main_z	7	advance_on_keypress_ZEE	106	stimuli_distractor_diamondtriangles.svg	stimuli_target_circlediamonds.svg	14	yes	57	0	346
6.6.1	win	2022-12-14	14:59:51	15:04:24	272391	5b0cb441444cef0001ca5fbd	925071376	1	main_z	7	main_z	107	stimuli_distractor_trianglediamonds.svg	stimuli_target_circlediamonds.svg	10	yes	44	1	204
6.6.1	win	2022-12-14	14:59:51	15:04:24	272391	5b0cb441444cef0001ca5fbd	925071376	1	main_z	7	advance_on_keypress_ZEE	108	stimuli_distractor_trianglediamonds.svg	stimuli_target_circlediamonds.svg	10	yes	57	0	352
6.6.1	win	2022-12-14	14:59:51	15:04:26	273516	5b0cb441444cef0001ca5fbd	925071376	1	main_z	7	main_z	109	stimuli_target_circlediamonds.svg	stimuli_distractor_trianglediamonds.svg	2	yes	44	1	151
6.6.1	win	2022-12-14	14:59:51	15:04:26	273516	5b0cb441444cef0001ca5fbd	925071376	1	main_z	7	advance_on_keypress_ZEE	110	stimuli_target_circlediamonds.svg	stimuli_distractor_trianglediamonds.svg	2	yes	57	0	448
6.6.1	win	2022-12-14	14:59:51	15:04:27	274776	5b0cb441444cef0001ca5fbd	925071376	1	main_z	7	main_z	111	stimuli_distractor_trianglediamonds.svg	stimuli_target_squaretriangles.svg	11	yes	44	1	167
6.6.1	win	2022-12-14	14:59:51	15:04:27	274776	5b0cb441444cef0001ca5fbd	925071376	1	main_z	7	advance_on_keypress_ZEE	112	stimuli_distractor_trianglediamonds.svg	stimuli_target_squaretriangles.svg	11	yes	57	0	462
6.6.1	win	2022-12-14	14:59:51	15:04:28	275924	5b0cb441444cef0001ca5fbd	925071376	1	main_z	7	main_z	113	stimuli_target_diamondsquares.svg	stimuli_distractor_diamondtriangles.svg	24	yes	44	1	53
6.6.1	win	2022-12-14	14:59:51	15:04:28	275924	5b0cb441444cef0001ca5fbd	925071376	1	main_z	7	advance_on_keypress_ZEE	114	stimuli_target_diamondsquares.svg	stimuli_distractor_diamondtriangles.svg	24	yes	57	0	383
6.6.1	win	2022-12-14	14:59:51	15:04:29	277077	5b0cb441444cef0001ca5fbd	925071376	1	main_z	7	main_z	115	stimuli_distractor_trianglediamonds.svg	stimuli_target_diamondsquares.svg	28	yes	44	1	134
6.6.1	win	2022-12-14	14:59:51	15:04:29	277077	5b0cb441444cef0001ca5fbd	925071376	1	main_z	7	advance_on_keypress_ZEE	116	stimuli_distractor_trianglediamonds.svg	stimuli_target_diamondsquares.svg	28	yes	57	0	375
6.6.1	win	2022-12-14	14:59:51	15:04:30	278159	5b0cb441444cef0001ca5fbd	925071376	1	main_z	7	main_z	117	stimuli_distractor_trianglediamonds.svg	stimuli_distractor_diamondtriangles.svg	36	no	44	0	75
6.6.1	win	2022-12-14	14:59:51	15:04:30	278159	5b0cb441444cef0001ca5fbd	925071376	1	main_z	7	advance_on_keypress_ZEE	118	stimuli_distractor_trianglediamonds.svg	stimuli_distractor_diamondtriangles.svg	36	no	57	0	333
6.6.1	win	2022-12-14	14:59:51	15:04:31	279285	5b0cb441444cef0001ca5fbd	925071376	1	main_z	7	main_z	119	stimuli_distractor_diamondtriangles.svg	stimuli_target_diamondsquares.svg	32	yes	44	1	148
6.6.1	win	2022-12-14	14:59:51	15:04:31	279285	5b0cb441444cef0001ca5fbd	925071376	1	main_z	7	advance_on_keypress_ZEE	120	stimuli_distractor_diamondtriangles.svg	stimuli_target_diamondsquares.svg	32	yes	57	0	299
6.6.1	win	2022-12-14	14:59:51	15:04:32	280394	5b0cb441444cef0001ca5fbd	925071376	1	main_z	7	main_z	121	stimuli_target_circletriangles.svg	stimuli_distractor_trianglediamonds.svg	1	yes	44	1	162
6.6.1	win	2022-12-14	14:59:51	15:04:32	280394	5b0cb441444cef0001ca5fbd	925071376	1	main_z	7	advance_on_keypress_ZEE	122	stimuli_target_circletriangles.svg	stimuli_distractor_trianglediamonds.svg	1	yes	57	0	281
6.6.1	win	2022-12-14	14:59:51	15:04:33	281376	5b0cb441444cef0001ca5fbd	925071376	1	main_z	7	main_z	123	stimuli_target_trianglecircles.svg	stimuli_distractor_trianglediamonds.svg	17	yes	44	1	51
6.6.1	win	2022-12-14	14:59:51	15:04:33	281376	5b0cb441444cef0001ca5fbd	925071376	1	main_z	7	advance_on_keypress_ZEE	124	stimuli_target_trianglecircles.svg	stimuli_distractor_trianglediamonds.svg	17	yes	57	0	342
6.6.1	win	2022-12-14	14:59:51	15:04:35	282423	5b0cb441444cef0001ca5fbd	925071376	1	main_z	7	main_z	125	stimuli_target_trianglecircles.svg	stimuli_distractor_diamondtriangles.svg	21	yes	44	1	69
6.6.1	win	2022-12-14	14:59:51	15:04:35	282423	5b0cb441444cef0001ca5fbd	925071376	1	main_z	7	advance_on_keypress_ZEE	126	stimuli_target_trianglecircles.svg	stimuli_distractor_diamondtriangles.svg	21	yes	57	0	969
6.6.1	win	2022-12-14	14:59:51	15:04:36	284344	5b0cb441444cef0001ca5fbd	925071376	1	main_z	7	main_z	127	stimuli_distractor_diamondtriangles.svg	stimuli_target_trianglecircles.svg	29	yes	44	1	297
6.6.1	win	2022-12-14	14:59:51	15:04:36	284344	5b0cb441444cef0001ca5fbd	925071376	1	main_z	7	advance_on_keypress_ZEE	128	stimuli_distractor_diamondtriangles.svg	stimuli_target_trianglecircles.svg	29	yes	57	0	326
6.6.1	win	2022-12-14	14:59:51	15:04:38	285500	5b0cb441444cef0001ca5fbd	925071376	1	main_z	7	main_z	129	stimuli_distractor_trianglediamonds.svg	stimuli_target_diamondcircles.svg	27	yes	44	1	187
6.6.1	win	2022-12-14	14:59:51	15:04:38	285500	5b0cb441444cef0001ca5fbd	925071376	1	main_z	7	advance_on_keypress_ZEE	130	stimuli_distractor_trianglediamonds.svg	stimuli_target_diamondcircles.svg	27	yes	57	0	355
6.6.1	win	2022-12-14	14:59:51	15:04:39	286675	5b0cb441444cef0001ca5fbd	925071376	1	main_z	7	main_z	131	stimuli_target_squaretriangles.svg	stimuli_distractor_trianglediamonds.svg	3	yes	44	1	191
6.6.1	win	2022-12-14	14:59:51	15:04:39	286675	5b0cb441444cef0001ca5fbd	925071376	1	main_z	7	advance_on_keypress_ZEE	132	stimuli_target_squaretriangles.svg	stimuli_distractor_trianglediamonds.svg	3	yes	57	0	359
6.6.1	win	2022-12-14	14:59:51	15:04:40	287826	5b0cb441444cef0001ca5fbd	925071376	1	main_z	7	main_z	133	stimuli_distractor_trianglediamonds.svg	stimuli_distractor_diamondtriangles.svg	35	no	44	0	159
6.6.1	win	2022-12-14	14:59:51	15:04:40	287826	5b0cb441444cef0001ca5fbd	925071376	1	main_z	7	advance_on_keypress_ZEE	134	stimuli_distractor_trianglediamonds.svg	stimuli_distractor_diamondtriangles.svg	35	no	57	0	324
6.6.1	win	2022-12-14	14:59:51	15:04:41	288895	5b0cb441444cef0001ca5fbd	925071376	1	main_z	7	main_z	135	stimuli_distractor_diamondtriangles.svg	stimuli_target_squarediamonds.svg	16	yes	44	1	109
6.6.1	win	2022-12-14	14:59:51	15:04:41	288895	5b0cb441444cef0001ca5fbd	925071376	1	main_z	7	advance_on_keypress_ZEE	136	stimuli_distractor_diamondtriangles.svg	stimuli_target_squarediamonds.svg	16	yes	57	0	563
6.6.1	win	2022-12-14	14:59:51	15:04:43	290430	5b0cb441444cef0001ca5fbd	925071376	1	main_z	7	main_z	137	stimuli_target_squarediamonds.svg	stimuli_distractor_diamondtriangles.svg	8	yes	44	1	326
6.6.1	win	2022-12-14	14:59:51	15:04:43	290430	5b0cb441444cef0001ca5fbd	925071376	1	main_z	7	advance_on_keypress_ZEE	138	stimuli_target_squarediamonds.svg	stimuli_distractor_diamondtriangles.svg	8	yes	57	0	224
6.6.1	win	2022-12-14	14:59:51	15:04:43	291329	5b0cb441444cef0001ca5fbd	925071376	1	main_z	7	main_z	139	stimuli_distractor_trianglediamonds.svg	stimuli_target_circletriangles.svg	9	yes	44	1	46
6.6.1	win	2022-12-14	14:59:51	15:04:43	291329	5b0cb441444cef0001ca5fbd	925071376	1	main_z	7	advance_on_keypress_ZEE	140	stimuli_distractor_trianglediamonds.svg	stimuli_target_circletriangles.svg	9	yes	57	0	404
6.6.1	win	2022-12-14	14:59:51	15:04:45	292528	5b0cb441444cef0001ca5fbd	925071376	1	main_z	7	main_z	141	stimuli_distractor_diamondtriangles.svg	stimuli_distractor_trianglediamonds.svg	37	no	44	0	161
6.6.1	win	2022-12-14	14:59:51	15:04:45	292528	5b0cb441444cef0001ca5fbd	925071376	1	main_z	7	advance_on_keypress_ZEE	142	stimuli_distractor_diamondtriangles.svg	stimuli_distractor_trianglediamonds.svg	37	no	57	0	314
6.6.1	win	2022-12-14	14:59:51	15:04:46	293570	5b0cb441444cef0001ca5fbd	925071376	1	main_z	7	main_z	143	stimuli_distractor_diamondtriangles.svg	stimuli_target_diamondcircles.svg	31	yes	44	1	112
6.6.1	win	2022-12-14	14:59:51	15:04:46	293570	5b0cb441444cef0001ca5fbd	925071376	1	main_z	7	advance_on_keypress_ZEE	144	stimuli_distractor_diamondtriangles.svg	stimuli_target_diamondcircles.svg	31	yes	57	0	405
6.6.1	win	2022-12-14	14:59:51	15:04:49	296591	5b0cb441444cef0001ca5fbd	925071376	1	main_z	7	main_z	145	stimuli_target_diamondsquares.svg	stimuli_distractor_trianglediamonds.svg	20	yes	0	0	2000
6.6.1	win	2022-12-14	14:59:51	15:04:49	296591	5b0cb441444cef0001ca5fbd	925071376	1	main_z	7	advance_on_keypress_ZEE	146	stimuli_target_diamondsquares.svg	stimuli_distractor_trianglediamonds.svg	20	yes	57	0	315
6.6.1	win	2022-12-14	14:59:51	15:04:50	297604	5b0cb441444cef0001ca5fbd	925071376	1	main_z	7	main_z	147	stimuli_distractor_diamondtriangles.svg	stimuli_distractor_diamondtriangles.svg	40	no	44	0	57
6.6.1	win	2022-12-14	14:59:51	15:04:50	297604	5b0cb441444cef0001ca5fbd	925071376	1	main_z	7	advance_on_keypress_ZEE	148	stimuli_distractor_diamondtriangles.svg	stimuli_distractor_diamondtriangles.svg	40	no	57	0	524
6.6.1	win	2022-12-14	14:59:51	15:04:51	298804	5b0cb441444cef0001ca5fbd	925071376	1	main_z	7	main_z	149	stimuli_target_squarediamonds.svg	stimuli_distractor_trianglediamonds.svg	4	yes	44	1	44
6.6.1	win	2022-12-14	14:59:51	15:04:51	298804	5b0cb441444cef0001ca5fbd	925071376	1	main_z	7	advance_on_keypress_ZEE	150	stimuli_target_squarediamonds.svg	stimuli_distractor_trianglediamonds.svg	4	yes	57	0	834
6.6.1	win	2022-12-14	14:59:51	15:04:52	300373	5b0cb441444cef0001ca5fbd	925071376	1	main_z	7	main_z	151	stimuli_distractor_diamondtriangles.svg	stimuli_distractor_diamondtriangles.svg	39	no	44	0	95
6.6.1	win	2022-12-14	14:59:51	15:04:52	300373	5b0cb441444cef0001ca5fbd	925071376	1	main_z	7	advance_on_keypress_ZEE	152	stimuli_distractor_diamondtriangles.svg	stimuli_distractor_diamondtriangles.svg	39	no	57	0	648
6.6.1	win	2022-12-14	14:59:51	15:04:54	301749	5b0cb441444cef0001ca5fbd	925071376	1	main_z	7	main_z	153	stimuli_distractor_diamondtriangles.svg	stimuli_target_circletriangles.svg	13	yes	44	1	81
6.6.1	win	2022-12-14	14:59:51	15:04:54	301749	5b0cb441444cef0001ca5fbd	925071376	1	main_z	7	advance_on_keypress_ZEE	154	stimuli_distractor_diamondtriangles.svg	stimuli_target_circletriangles.svg	13	yes	57	0	454
6.6.1	win	2022-12-14	14:59:51	15:04:55	302954	5b0cb441444cef0001ca5fbd	925071376	1	main_z	7	main_z	155	stimuli_distractor_diamondtriangles.svg	stimuli_distractor_trianglediamonds.svg	38	no	44	0	112
6.6.1	win	2022-12-14	14:59:51	15:04:55	302954	5b0cb441444cef0001ca5fbd	925071376	1	main_z	7	advance_on_keypress_ZEE	156	stimuli_distractor_diamondtriangles.svg	stimuli_distractor_trianglediamonds.svg	38	no	57	0	364
6.6.1	win	2022-12-14	14:59:51	15:04:56	304047	5b0cb441444cef0001ca5fbd	925071376	1	main_z	7	main_z	157	stimuli_target_trianglesquares.svg	stimuli_distractor_diamondtriangles.svg	22	yes	44	1	75
6.6.1	win	2022-12-14	14:59:51	15:04:56	304047	5b0cb441444cef0001ca5fbd	925071376	1	main_z	7	advance_on_keypress_ZEE	158	stimuli_target_trianglesquares.svg	stimuli_distractor_diamondtriangles.svg	22	yes	57	0	338
6.6.1	win	2022-12-14	14:59:51	15:04:57	305103	5b0cb441444cef0001ca5fbd	925071376	1	main_z	7	main_z	159	stimuli_distractor_trianglediamonds.svg	stimuli_distractor_trianglediamonds.svg	34	no	44	0	94
6.6.1	win	2022-12-14	14:59:51	15:04:57	305103	5b0cb441444cef0001ca5fbd	925071376	1	main_z	7	advance_on_keypress_ZEE	160	stimuli_distractor_trianglediamonds.svg	stimuli_distractor_trianglediamonds.svg	34	no	57	0	345
6.6.1	win	2022-12-14	14:59:51	15:05:14	322265	5b0cb441444cef0001ca5fbd	925071376	1	practice_slash	9	practice_slash	1	stimuli_distractor_trianglediamonds.svg	stimuli_distractor_diamondtriangles.svg	16	no	53	0	183
6.6.1	win	2022-12-14	14:59:51	15:05:14	322265	5b0cb441444cef0001ca5fbd	925071376	1	practice_slash	9	advance_on_keypress_SLASH	2	stimuli_distractor_trianglediamonds.svg	stimuli_distractor_diamondtriangles.svg	16	no	57	0	2467
6.6.1	win	2022-12-14	14:59:51	15:05:19	326535	5b0cb441444cef0001ca5fbd	925071376	1	practice_slash	9	practice_slash	3	stimuli_distractor_trianglediamonds.svg	stimuli_target_squarediamonds.svg	11	yes	53	1	156
6.6.1	win	2022-12-14	14:59:51	15:05:19	326535	5b0cb441444cef0001ca5fbd	925071376	1	practice_slash	9	advance_on_keypress_SLASH	4	stimuli_distractor_trianglediamonds.svg	stimuli_target_squarediamonds.svg	11	yes	57	0	264
6.6.1	win	2022-12-14	14:59:51	15:05:21	328473	5b0cb441444cef0001ca5fbd	925071376	1	practice_slash	9	practice_slash	5	stimuli_target_diamondsquares.svg	stimuli_distractor_diamondtriangles.svg	3	yes	53	1	23
6.6.1	win	2022-12-14	14:59:51	15:05:21	328473	5b0cb441444cef0001ca5fbd	925071376	1	practice_slash	9	advance_on_keypress_SLASH	6	stimuli_target_diamondsquares.svg	stimuli_distractor_diamondtriangles.svg	3	yes	57	0	120
6.6.1	win	2022-12-14	14:59:51	15:05:23	330500	5b0cb441444cef0001ca5fbd	925071376	1	practice_slash	9	practice_slash	7	stimuli_target_circlediamonds.svg	stimuli_distractor_diamondtriangles.svg	1	yes	53	1	258
6.6.1	win	2022-12-14	14:59:51	15:05:23	330500	5b0cb441444cef0001ca5fbd	925071376	1	practice_slash	9	advance_on_keypress_SLASH	8	stimuli_target_circlediamonds.svg	stimuli_distractor_diamondtriangles.svg	1	yes	57	0	271
6.6.1	win	2022-12-14	14:59:51	15:05:25	332487	5b0cb441444cef0001ca5fbd	925071376	1	practice_slash	9	practice_slash	9	stimuli_distractor_diamondtriangles.svg	stimuli_target_trianglecircles.svg	9	yes	53	1	54
6.6.1	win	2022-12-14	14:59:51	15:05:25	332487	5b0cb441444cef0001ca5fbd	925071376	1	practice_slash	9	advance_on_keypress_SLASH	10	stimuli_distractor_diamondtriangles.svg	stimuli_target_trianglecircles.svg	9	yes	57	0	302
6.6.1	win	2022-12-14	14:59:51	15:05:27	334510	5b0cb441444cef0001ca5fbd	925071376	1	practice_slash	9	practice_slash	11	stimuli_distractor_diamondtriangles.svg	stimuli_target_circletriangles.svg	7	yes	53	1	87
6.6.1	win	2022-12-14	14:59:51	15:05:27	334510	5b0cb441444cef0001ca5fbd	925071376	1	practice_slash	9	advance_on_keypress_SLASH	12	stimuli_distractor_diamondtriangles.svg	stimuli_target_circletriangles.svg	7	yes	57	0	270
6.6.1	win	2022-12-14	14:59:51	15:05:29	336468	5b0cb441444cef0001ca5fbd	925071376	1	practice_slash	9	practice_slash	13	stimuli_distractor_diamondtriangles.svg	stimuli_distractor_trianglediamonds.svg	14	no	53	0	25
6.6.1	win	2022-12-14	14:59:51	15:05:29	336468	5b0cb441444cef0001ca5fbd	925071376	1	practice_slash	9	advance_on_keypress_SLASH	14	stimuli_distractor_diamondtriangles.svg	stimuli_distractor_trianglediamonds.svg	14	no	57	0	409
6.6.1	win	2022-12-14	14:59:51	15:05:31	338621	5b0cb441444cef0001ca5fbd	925071376	1	practice_slash	9	practice_slash	15	stimuli_distractor_diamondtriangles.svg	stimuli_distractor_diamondtriangles.svg	13	no	53	0	109
6.6.1	win	2022-12-14	14:59:51	15:05:31	338621	5b0cb441444cef0001ca5fbd	925071376	1	practice_slash	9	advance_on_keypress_SLASH	16	stimuli_distractor_diamondtriangles.svg	stimuli_distractor_diamondtriangles.svg	13	no	57	0	74
6.6.1	win	2022-12-14	14:59:51	15:05:33	340484	5b0cb441444cef0001ca5fbd	925071376	1	practice_slash	9	practice_slash	17	stimuli_target_circlediamonds.svg	stimuli_distractor_trianglediamonds.svg	4	yes	53	1	128
6.6.1	win	2022-12-14	14:59:51	15:05:33	340484	5b0cb441444cef0001ca5fbd	925071376	1	practice_slash	9	advance_on_keypress_SLASH	18	stimuli_target_circlediamonds.svg	stimuli_distractor_trianglediamonds.svg	4	yes	57	0	604
6.6.1	win	2022-12-14	14:59:51	15:05:35	342923	5b0cb441444cef0001ca5fbd	925071376	1	practice_slash	9	practice_slash	19	stimuli_target_diamondsquares.svg	stimuli_distractor_trianglediamonds.svg	6	yes	53	1	195
6.6.1	win	2022-12-14	14:59:51	15:05:35	342923	5b0cb441444cef0001ca5fbd	925071376	1	practice_slash	9	advance_on_keypress_SLASH	20	stimuli_target_diamondsquares.svg	stimuli_distractor_trianglediamonds.svg	6	yes	57	0	219
6.6.1	win	2022-12-14	14:59:51	15:05:37	344879	5b0cb441444cef0001ca5fbd	925071376	1	practice_slash	9	practice_slash	21	stimuli_distractor_diamondtriangles.svg	stimuli_target_diamondcircles.svg	8	yes	53	1	108
6.6.1	win	2022-12-14	14:59:51	15:05:37	344879	5b0cb441444cef0001ca5fbd	925071376	1	practice_slash	9	advance_on_keypress_SLASH	22	stimuli_distractor_diamondtriangles.svg	stimuli_target_diamondcircles.svg	8	yes	57	0	5
6.6.1	win	2022-12-14	14:59:51	15:05:39	346703	5b0cb441444cef0001ca5fbd	925071376	1	practice_slash	9	practice_slash	23	stimuli_distractor_trianglediamonds.svg	stimuli_target_diamondcircles.svg	12	yes	53	1	156
6.6.1	win	2022-12-14	14:59:51	15:05:39	346703	5b0cb441444cef0001ca5fbd	925071376	1	practice_slash	9	advance_on_keypress_SLASH	24	stimuli_distractor_trianglediamonds.svg	stimuli_target_diamondcircles.svg	12	yes	57	0	210
6.6.1	win	2022-12-14	14:59:51	15:05:41	348698	5b0cb441444cef0001ca5fbd	925071376	1	practice_slash	9	practice_slash	25	stimuli_distractor_trianglediamonds.svg	stimuli_distractor_trianglediamonds.svg	15	no	53	0	153
6.6.1	win	2022-12-14	14:59:51	15:05:41	348698	5b0cb441444cef0001ca5fbd	925071376	1	practice_slash	9	advance_on_keypress_SLASH	26	stimuli_distractor_trianglediamonds.svg	stimuli_distractor_trianglediamonds.svg	15	no	57	0	266
6.6.1	win	2022-12-14	14:59:51	15:05:43	350771	5b0cb441444cef0001ca5fbd	925071376	1	practice_slash	9	practice_slash	27	stimuli_target_squarediamonds.svg	stimuli_distractor_trianglediamonds.svg	5	yes	53	1	183
6.6.1	win	2022-12-14	14:59:51	15:05:43	350771	5b0cb441444cef0001ca5fbd	925071376	1	practice_slash	9	advance_on_keypress_SLASH	28	stimuli_target_squarediamonds.svg	stimuli_distractor_trianglediamonds.svg	5	yes	57	0	400
6.6.1	win	2022-12-14	14:59:51	15:05:45	352937	5b0cb441444cef0001ca5fbd	925071376	1	practice_slash	9	practice_slash	29	stimuli_distractor_trianglediamonds.svg	stimuli_target_circlediamonds.svg	10	yes	53	1	93
6.6.1	win	2022-12-14	14:59:51	15:05:45	352937	5b0cb441444cef0001ca5fbd	925071376	1	practice_slash	9	advance_on_keypress_SLASH	30	stimuli_distractor_trianglediamonds.svg	stimuli_target_circlediamonds.svg	10	yes	57	0	39
6.6.1	win	2022-12-14	14:59:51	15:05:47	354674	5b0cb441444cef0001ca5fbd	925071376	1	practice_slash	9	practice_slash	31	stimuli_target_squarediamonds.svg	stimuli_distractor_diamondtriangles.svg	2	yes	53	1	53
6.6.1	win	2022-12-14	14:59:51	15:05:47	354674	5b0cb441444cef0001ca5fbd	925071376	1	practice_slash	9	advance_on_keypress_SLASH	32	stimuli_target_squarediamonds.svg	stimuli_distractor_diamondtriangles.svg	2	yes	57	0	139
6.6.1	win	2022-12-14	14:59:51	15:05:52	359930	5b0cb441444cef0001ca5fbd	925071376	1	main_slash	11	main_slash	1	stimuli_target_diamondcircles.svg	stimuli_distractor_diamondtriangles.svg	23	yes	53	1	216
6.6.1	win	2022-12-14	14:59:51	15:05:52	359930	5b0cb441444cef0001ca5fbd	925071376	1	main_slash	11	advance_on_keypress_SLASH	2	stimuli_target_diamondcircles.svg	stimuli_distractor_diamondtriangles.svg	23	yes	57	0	667
6.6.1	win	2022-12-14	14:59:51	15:05:54	361409	5b0cb441444cef0001ca5fbd	925071376	1	main_slash	11	main_slash	3	stimuli_distractor_diamondtriangles.svg	stimuli_distractor_trianglediamonds.svg	37	no	53	0	165
6.6.1	win	2022-12-14	14:59:51	15:05:54	361409	5b0cb441444cef0001ca5fbd	925071376	1	main_slash	11	advance_on_keypress_SLASH	4	stimuli_distractor_diamondtriangles.svg	stimuli_distractor_trianglediamonds.svg	37	no	57	0	402
6.6.1	win	2022-12-14	14:59:51	15:05:55	362709	5b0cb441444cef0001ca5fbd	925071376	1	main_slash	11	main_slash	5	stimuli_target_trianglecircles.svg	stimuli_distractor_trianglediamonds.svg	17	yes	53	1	273
6.6.1	win	2022-12-14	14:59:51	15:05:55	362709	5b0cb441444cef0001ca5fbd	925071376	1	main_slash	11	advance_on_keypress_SLASH	6	stimuli_target_trianglecircles.svg	stimuli_distractor_trianglediamonds.svg	17	yes	57	0	434
6.6.1	win	2022-12-14	14:59:51	15:05:56	363873	5b0cb441444cef0001ca5fbd	925071376	1	main_slash	11	main_slash	7	stimuli_distractor_trianglediamonds.svg	stimuli_distractor_diamondtriangles.svg	35	no	53	0	85
6.6.1	win	2022-12-14	14:59:51	15:05:56	363873	5b0cb441444cef0001ca5fbd	925071376	1	main_slash	11	advance_on_keypress_SLASH	8	stimuli_distractor_trianglediamonds.svg	stimuli_distractor_diamondtriangles.svg	35	no	57	0	489
6.6.1	win	2022-12-14	14:59:51	15:05:57	365142	5b0cb441444cef0001ca5fbd	925071376	1	main_slash	11	main_slash	9	stimuli_distractor_diamondtriangles.svg	stimuli_target_diamondsquares.svg	32	yes	53	1	126
6.6.1	win	2022-12-14	14:59:51	15:05:57	365142	5b0cb441444cef0001ca5fbd	925071376	1	main_slash	11	advance_on_keypress_SLASH	10	stimuli_distractor_diamondtriangles.svg	stimuli_target_diamondsquares.svg	32	yes	57	0	507
6.6.1	win	2022-12-14	14:59:51	15:05:58	366375	5b0cb441444cef0001ca5fbd	925071376	1	main_slash	11	main_slash	11	stimuli_target_circlediamonds.svg	stimuli_distractor_diamondtriangles.svg	6	yes	53	1	93
6.6.1	win	2022-12-14	14:59:51	15:05:58	366375	5b0cb441444cef0001ca5fbd	925071376	1	main_slash	11	advance_on_keypress_SLASH	12	stimuli_target_circlediamonds.svg	stimuli_distractor_diamondtriangles.svg	6	yes	57	0	517
6.6.1	win	2022-12-14	14:59:51	15:06:00	367579	5b0cb441444cef0001ca5fbd	925071376	1	main_slash	11	main_slash	13	stimuli_target_trianglecircles.svg	stimuli_distractor_diamondtriangles.svg	21	yes	53	1	49
6.6.1	win	2022-12-14	14:59:51	15:06:00	367579	5b0cb441444cef0001ca5fbd	925071376	1	main_slash	11	advance_on_keypress_SLASH	14	stimuli_target_trianglecircles.svg	stimuli_distractor_diamondtriangles.svg	21	yes	57	0	1275
6.6.1	win	2022-12-14	14:59:51	15:06:04	371494	5b0cb441444cef0001ca5fbd	925071376	1	main_slash	11	main_slash	15	stimuli_distractor_trianglediamonds.svg	stimuli_target_circlediamonds.svg	10	yes	0	0	2000
6.6.1	win	2022-12-14	14:59:51	15:06:04	371494	5b0cb441444cef0001ca5fbd	925071376	1	main_slash	11	advance_on_keypress_SLASH	16	stimuli_distractor_trianglediamonds.svg	stimuli_target_circlediamonds.svg	10	yes	57	0	368
6.6.1	win	2022-12-14	14:59:51	15:06:05	372659	5b0cb441444cef0001ca5fbd	925071376	1	main_slash	11	main_slash	17	stimuli_distractor_trianglediamonds.svg	stimuli_target_circletriangles.svg	9	yes	53	1	172
6.6.1	win	2022-12-14	14:59:51	15:06:05	372659	5b0cb441444cef0001ca5fbd	925071376	1	main_slash	11	advance_on_keypress_SLASH	18	stimuli_distractor_trianglediamonds.svg	stimuli_target_circletriangles.svg	9	yes	57	0	639
6.6.1	win	2022-12-14	14:59:51	15:06:06	374119	5b0cb441444cef0001ca5fbd	925071376	1	main_slash	11	main_slash	19	stimuli_distractor_trianglediamonds.svg	stimuli_target_trianglesquares.svg	26	yes	53	1	207
6.6.1	win	2022-12-14	14:59:51	15:06:06	374119	5b0cb441444cef0001ca5fbd	925071376	1	main_slash	11	advance_on_keypress_SLASH	20	stimuli_distractor_trianglediamonds.svg	stimuli_target_trianglesquares.svg	26	yes	57	0	483
6.6.1	win	2022-12-14	14:59:51	15:06:07	375312	5b0cb441444cef0001ca5fbd	925071376	1	main_slash	11	main_slash	21	stimuli_distractor_trianglediamonds.svg	stimuli_target_trianglecircles.svg	25	yes	53	1	71
6.6.1	win	2022-12-14	14:59:51	15:06:07	375312	5b0cb441444cef0001ca5fbd	925071376	1	main_slash	11	advance_on_keypress_SLASH	22	stimuli_distractor_trianglediamonds.svg	stimuli_target_trianglecircles.svg	25	yes	57	0	470
6.6.1	win	2022-12-14	14:59:51	15:06:09	376483	5b0cb441444cef0001ca5fbd	925071376	1	main_slash	11	main_slash	23	stimuli_distractor_trianglediamonds.svg	stimuli_target_diamondsquares.svg	28	yes	53	1	70
6.6.1	win	2022-12-14	14:59:51	15:06:09	376483	5b0cb441444cef0001ca5fbd	925071376	1	main_slash	11	advance_on_keypress_SLASH	24	stimuli_distractor_trianglediamonds.svg	stimuli_target_diamondsquares.svg	28	yes	57	0	497
6.6.1	win	2022-12-14	14:59:51	15:06:10	377674	5b0cb441444cef0001ca5fbd	925071376	1	main_slash	11	main_slash	25	stimuli_target_circletriangles.svg	stimuli_distractor_trianglediamonds.svg	1	yes	53	1	58
6.6.1	win	2022-12-14	14:59:51	15:06:10	377674	5b0cb441444cef0001ca5fbd	925071376	1	main_slash	11	advance_on_keypress_SLASH	26	stimuli_target_circletriangles.svg	stimuli_distractor_trianglediamonds.svg	1	yes	57	0	522
6.6.1	win	2022-12-14	14:59:51	15:06:11	378969	5b0cb441444cef0001ca5fbd	925071376	1	main_slash	11	main_slash	27	stimuli_distractor_diamondtriangles.svg	stimuli_distractor_diamondtriangles.svg	40	no	53	0	127
6.6.1	win	2022-12-14	14:59:51	15:06:11	378969	5b0cb441444cef0001ca5fbd	925071376	1	main_slash	11	advance_on_keypress_SLASH	28	stimuli_distractor_diamondtriangles.svg	stimuli_distractor_diamondtriangles.svg	40	no	57	0	472
6.6.1	win	2022-12-14	14:59:51	15:06:12	380266	5b0cb441444cef0001ca5fbd	925071376	1	main_slash	11	main_slash	29	stimuli_target_circlediamonds.svg	stimuli_distractor_trianglediamonds.svg	2	yes	53	1	184
6.6.1	win	2022-12-14	14:59:51	15:06:12	380266	5b0cb441444cef0001ca5fbd	925071376	1	main_slash	11	advance_on_keypress_SLASH	30	stimuli_target_circlediamonds.svg	stimuli_distractor_trianglediamonds.svg	2	yes	57	0	443
6.6.1	win	2022-12-14	14:59:51	15:06:13	381362	5b0cb441444cef0001ca5fbd	925071376	1	main_slash	11	main_slash	31	stimuli_distractor_diamondtriangles.svg	stimuli_distractor_diamondtriangles.svg	39	no	53	0	15
6.6.1	win	2022-12-14	14:59:51	15:06:13	381362	5b0cb441444cef0001ca5fbd	925071376	1	main_slash	11	advance_on_keypress_SLASH	32	stimuli_distractor_diamondtriangles.svg	stimuli_distractor_diamondtriangles.svg	39	no	57	0	433
6.6.1	win	2022-12-14	14:59:51	15:06:15	382651	5b0cb441444cef0001ca5fbd	925071376	1	main_slash	11	main_slash	33	stimuli_distractor_diamondtriangles.svg	stimuli_target_trianglesquares.svg	30	yes	53	1	221
6.6.1	win	2022-12-14	14:59:51	15:06:15	382651	5b0cb441444cef0001ca5fbd	925071376	1	main_slash	11	advance_on_keypress_SLASH	34	stimuli_distractor_diamondtriangles.svg	stimuli_target_trianglesquares.svg	30	yes	57	0	422
6.6.1	win	2022-12-14	14:59:51	15:06:16	383969	5b0cb441444cef0001ca5fbd	925071376	1	main_slash	11	main_slash	35	stimuli_distractor_trianglediamonds.svg	stimuli_target_squarediamonds.svg	12	yes	53	1	256
6.6.1	win	2022-12-14	14:59:51	15:06:16	383969	5b0cb441444cef0001ca5fbd	925071376	1	main_slash	11	advance_on_keypress_SLASH	36	stimuli_distractor_trianglediamonds.svg	stimuli_target_squarediamonds.svg	12	yes	57	0	486
6.6.1	win	2022-12-14	14:59:51	15:06:17	385297	5b0cb441444cef0001ca5fbd	925071376	1	main_slash	11	main_slash	37	stimuli_target_squaretriangles.svg	stimuli_distractor_diamondtriangles.svg	7	yes	53	1	193
6.6.1	win	2022-12-14	14:59:51	15:06:17	385297	5b0cb441444cef0001ca5fbd	925071376	1	main_slash	11	advance_on_keypress_SLASH	38	stimuli_target_squaretriangles.svg	stimuli_distractor_diamondtriangles.svg	7	yes	57	0	428
6.6.1	win	2022-12-14	14:59:51	15:06:20	388346	5b0cb441444cef0001ca5fbd	925071376	1	main_slash	11	main_slash	39	stimuli_distractor_trianglediamonds.svg	stimuli_distractor_trianglediamonds.svg	33	no	0	1	2000
6.6.1	win	2022-12-14	14:59:51	15:06:20	388346	5b0cb441444cef0001ca5fbd	925071376	1	main_slash	11	advance_on_keypress_SLASH	40	stimuli_distractor_trianglediamonds.svg	stimuli_distractor_trianglediamonds.svg	33	no	57	0	264
6.6.1	win	2022-12-14	14:59:51	15:06:21	389299	5b0cb441444cef0001ca5fbd	925071376	1	main_slash	11	main_slash	41	stimuli_distractor_diamondtriangles.svg	stimuli_target_squaretriangles.svg	15	yes	53	1	58
6.6.1	win	2022-12-14	14:59:51	15:06:21	389299	5b0cb441444cef0001ca5fbd	925071376	1	main_slash	11	advance_on_keypress_SLASH	42	stimuli_distractor_diamondtriangles.svg	stimuli_target_squaretriangles.svg	15	yes	57	0	498
6.6.1	win	2022-12-14	14:59:51	15:06:23	390562	5b0cb441444cef0001ca5fbd	925071376	1	main_slash	11	main_slash	43	stimuli_target_trianglesquares.svg	stimuli_distractor_trianglediamonds.svg	18	yes	53	1	127
6.6.1	win	2022-12-14	14:59:51	15:06:23	390562	5b0cb441444cef0001ca5fbd	925071376	1	main_slash	11	advance_on_keypress_SLASH	44	stimuli_target_trianglesquares.svg	stimuli_distractor_trianglediamonds.svg	18	yes	57	0	398
6.6.1	win	2022-12-14	14:59:51	15:06:24	391818	5b0cb441444cef0001ca5fbd	925071376	1	main_slash	11	main_slash	45	stimuli_target_diamondsquares.svg	stimuli_distractor_diamondtriangles.svg	24	yes	53	1	211
6.6.1	win	2022-12-14	14:59:51	15:06:24	391818	5b0cb441444cef0001ca5fbd	925071376	1	main_slash	11	advance_on_keypress_SLASH	46	stimuli_target_diamondsquares.svg	stimuli_distractor_diamondtriangles.svg	24	yes	57	0	391
6.6.1	win	2022-12-14	14:59:51	15:06:25	393093	5b0cb441444cef0001ca5fbd	925071376	1	main_slash	11	main_slash	47	stimuli_distractor_diamondtriangles.svg	stimuli_target_circlediamonds.svg	14	yes	53	1	253
6.6.1	win	2022-12-14	14:59:51	15:06:25	393093	5b0cb441444cef0001ca5fbd	925071376	1	main_slash	11	advance_on_keypress_SLASH	48	stimuli_distractor_diamondtriangles.svg	stimuli_target_circlediamonds.svg	14	yes	57	0	526
6.6.1	win	2022-12-14	14:59:51	15:06:27	394406	5b0cb441444cef0001ca5fbd	925071376	1	main_slash	11	main_slash	49	stimuli_target_squaretriangles.svg	stimuli_distractor_trianglediamonds.svg	3	yes	53	1	155
6.6.1	win	2022-12-14	14:59:51	15:06:27	394406	5b0cb441444cef0001ca5fbd	925071376	1	main_slash	11	advance_on_keypress_SLASH	50	stimuli_target_squaretriangles.svg	stimuli_distractor_trianglediamonds.svg	3	yes	57	0	429
6.6.1	win	2022-12-14	14:59:51	15:06:28	395578	5b0cb441444cef0001ca5fbd	925071376	1	main_slash	11	main_slash	51	stimuli_distractor_diamondtriangles.svg	stimuli_target_diamondcircles.svg	31	yes	53	1	106
6.6.1	win	2022-12-14	14:59:51	15:06:28	395578	5b0cb441444cef0001ca5fbd	925071376	1	main_slash	11	advance_on_keypress_SLASH	52	stimuli_distractor_diamondtriangles.svg	stimuli_target_diamondcircles.svg	31	yes	57	0	414
6.6.1	win	2022-12-14	14:59:51	15:06:29	396782	5b0cb441444cef0001ca5fbd	925071376	1	main_slash	11	main_slash	53	stimuli_distractor_diamondtriangles.svg	stimuli_distractor_trianglediamonds.svg	38	no	53	0	139
6.6.1	win	2022-12-14	14:59:51	15:06:29	396782	5b0cb441444cef0001ca5fbd	925071376	1	main_slash	11	advance_on_keypress_SLASH	54	stimuli_distractor_diamondtriangles.svg	stimuli_distractor_trianglediamonds.svg	38	no	57	0	369
6.6.1	win	2022-12-14	14:59:51	15:06:30	397992	5b0cb441444cef0001ca5fbd	925071376	1	main_slash	11	main_slash	55	stimuli_target_diamondsquares.svg	stimuli_distractor_trianglediamonds.svg	20	yes	53	1	190
6.6.1	win	2022-12-14	14:59:51	15:06:30	397992	5b0cb441444cef0001ca5fbd	925071376	1	main_slash	11	advance_on_keypress_SLASH	56	stimuli_target_diamondsquares.svg	stimuli_distractor_trianglediamonds.svg	20	yes	57	0	416
6.6.1	win	2022-12-14	14:59:51	15:06:31	399148	5b0cb441444cef0001ca5fbd	925071376	1	main_slash	11	main_slash	57	stimuli_distractor_trianglediamonds.svg	stimuli_distractor_diamondtriangles.svg	36	no	53	0	109
6.6.1	win	2022-12-14	14:59:51	15:06:31	399148	5b0cb441444cef0001ca5fbd	925071376	1	main_slash	11	advance_on_keypress_SLASH	58	stimuli_distractor_trianglediamonds.svg	stimuli_distractor_diamondtriangles.svg	36	no	57	0	385
6.6.1	win	2022-12-14	14:59:51	15:06:32	400380	5b0cb441444cef0001ca5fbd	925071376	1	main_slash	11	main_slash	59	stimuli_distractor_trianglediamonds.svg	stimuli_target_squaretriangles.svg	11	yes	53	1	215
6.6.1	win	2022-12-14	14:59:51	15:06:32	400380	5b0cb441444cef0001ca5fbd	925071376	1	main_slash	11	advance_on_keypress_SLASH	60	stimuli_distractor_trianglediamonds.svg	stimuli_target_squaretriangles.svg	11	yes	57	0	380
6.6.1	win	2022-12-14	14:59:51	15:06:34	401484	5b0cb441444cef0001ca5fbd	925071376	1	main_slash	11	main_slash	61	stimuli_target_diamondcircles.svg	stimuli_distractor_trianglediamonds.svg	19	yes	53	1	88
6.6.1	win	2022-12-14	14:59:51	15:06:34	401484	5b0cb441444cef0001ca5fbd	925071376	1	main_slash	11	advance_on_keypress_SLASH	62	stimuli_target_diamondcircles.svg	stimuli_distractor_trianglediamonds.svg	19	yes	57	0	382
6.6.1	win	2022-12-14	14:59:51	15:06:35	402724	5b0cb441444cef0001ca5fbd	925071376	1	main_slash	11	main_slash	63	stimuli_distractor_diamondtriangles.svg	stimuli_target_trianglecircles.svg	29	yes	53	1	225
6.6.1	win	2022-12-14	14:59:51	15:06:35	402724	5b0cb441444cef0001ca5fbd	925071376	1	main_slash	11	advance_on_keypress_SLASH	64	stimuli_distractor_diamondtriangles.svg	stimuli_target_trianglecircles.svg	29	yes	57	0	390
6.6.1	win	2022-12-14	14:59:51	15:06:36	403908	5b0cb441444cef0001ca5fbd	925071376	1	main_slash	11	main_slash	65	stimuli_distractor_diamondtriangles.svg	stimuli_target_squarediamonds.svg	16	yes	53	1	152
6.6.1	win	2022-12-14	14:59:51	15:06:36	403908	5b0cb441444cef0001ca5fbd	925071376	1	main_slash	11	advance_on_keypress_SLASH	66	stimuli_distractor_diamondtriangles.svg	stimuli_target_squarediamonds.svg	16	yes	57	0	355
6.6.1	win	2022-12-14	14:59:51	15:06:37	405015	5b0cb441444cef0001ca5fbd	925071376	1	main_slash	11	main_slash	67	stimuli_distractor_trianglediamonds.svg	stimuli_distractor_trianglediamonds.svg	34	no	53	0	107
6.6.1	win	2022-12-14	14:59:51	15:06:37	405015	5b0cb441444cef0001ca5fbd	925071376	1	main_slash	11	advance_on_keypress_SLASH	68	stimuli_distractor_trianglediamonds.svg	stimuli_distractor_trianglediamonds.svg	34	no	57	0	369
6.6.1	win	2022-12-14	14:59:51	15:06:38	406151	5b0cb441444cef0001ca5fbd	925071376	1	main_slash	11	main_slash	69	stimuli_target_circletriangles.svg	stimuli_distractor_diamondtriangles.svg	5	yes	53	1	145
6.6.1	win	2022-12-14	14:59:51	15:06:38	406151	5b0cb441444cef0001ca5fbd	925071376	1	main_slash	11	advance_on_keypress_SLASH	70	stimuli_target_circletriangles.svg	stimuli_distractor_diamondtriangles.svg	5	yes	57	0	401
6.6.1	win	2022-12-14	14:59:51	15:06:39	407255	5b0cb441444cef0001ca5fbd	925071376	1	main_slash	11	main_slash	71	stimuli_target_trianglesquares.svg	stimuli_distractor_diamondtriangles.svg	22	yes	53	1	75
6.6.1	win	2022-12-14	14:59:51	15:06:39	407255	5b0cb441444cef0001ca5fbd	925071376	1	main_slash	11	advance_on_keypress_SLASH	72	stimuli_target_trianglesquares.svg	stimuli_distractor_diamondtriangles.svg	22	yes	57	0	387
6.6.1	win	2022-12-14	14:59:51	15:06:41	408470	5b0cb441444cef0001ca5fbd	925071376	1	main_slash	11	main_slash	73	stimuli_distractor_diamondtriangles.svg	stimuli_target_circletriangles.svg	13	yes	53	1	202
6.6.1	win	2022-12-14	14:59:51	15:06:41	408470	5b0cb441444cef0001ca5fbd	925071376	1	main_slash	11	advance_on_keypress_SLASH	74	stimuli_distractor_diamondtriangles.svg	stimuli_target_circletriangles.svg	13	yes	57	0	347
6.6.1	win	2022-12-14	14:59:51	15:06:42	409623	5b0cb441444cef0001ca5fbd	925071376	1	main_slash	11	main_slash	75	stimuli_distractor_trianglediamonds.svg	stimuli_target_diamondcircles.svg	27	yes	53	1	170
6.6.1	win	2022-12-14	14:59:51	15:06:42	409623	5b0cb441444cef0001ca5fbd	925071376	1	main_slash	11	advance_on_keypress_SLASH	76	stimuli_distractor_trianglediamonds.svg	stimuli_target_diamondcircles.svg	27	yes	57	0	363
6.6.1	win	2022-12-14	14:59:51	15:06:43	410814	5b0cb441444cef0001ca5fbd	925071376	1	main_slash	11	main_slash	77	stimuli_target_squarediamonds.svg	stimuli_distractor_trianglediamonds.svg	4	yes	53	1	194
6.6.1	win	2022-12-14	14:59:51	15:06:43	410814	5b0cb441444cef0001ca5fbd	925071376	1	main_slash	11	advance_on_keypress_SLASH	78	stimuli_target_squarediamonds.svg	stimuli_distractor_trianglediamonds.svg	4	yes	57	0	393
6.6.1	win	2022-12-14	14:59:51	15:06:44	411947	5b0cb441444cef0001ca5fbd	925071376	1	main_slash	11	main_slash	79	stimuli_target_squarediamonds.svg	stimuli_distractor_diamondtriangles.svg	8	yes	53	1	95
6.6.1	win	2022-12-14	14:59:51	15:06:44	411947	5b0cb441444cef0001ca5fbd	925071376	1	main_slash	11	advance_on_keypress_SLASH	80	stimuli_target_squarediamonds.svg	stimuli_distractor_diamondtriangles.svg	8	yes	57	0	391
6.6.1	win	2022-12-14	14:59:51	15:06:45	413112	5b0cb441444cef0001ca5fbd	925071376	1	main_slash	11	main_slash	81	stimuli_distractor_diamondtriangles.svg	stimuli_target_squarediamonds.svg	16	yes	53	1	135
6.6.1	win	2022-12-14	14:59:51	15:06:45	413112	5b0cb441444cef0001ca5fbd	925071376	1	main_slash	11	advance_on_keypress_SLASH	82	stimuli_distractor_diamondtriangles.svg	stimuli_target_squarediamonds.svg	16	yes	57	0	355
6.6.1	win	2022-12-14	14:59:51	15:06:46	414384	5b0cb441444cef0001ca5fbd	925071376	1	main_slash	11	main_slash	83	stimuli_target_diamondsquares.svg	stimuli_distractor_trianglediamonds.svg	20	yes	53	1	271
6.6.1	win	2022-12-14	14:59:51	15:06:46	414384	5b0cb441444cef0001ca5fbd	925071376	1	main_slash	11	advance_on_keypress_SLASH	84	stimuli_target_diamondsquares.svg	stimuli_distractor_trianglediamonds.svg	20	yes	57	0	364
6.6.1	win	2022-12-14	14:59:51	15:06:48	415526	5b0cb441444cef0001ca5fbd	925071376	1	main_slash	11	main_slash	85	stimuli_distractor_diamondtriangles.svg	stimuli_target_circlediamonds.svg	14	yes	53	1	138
6.6.1	win	2022-12-14	14:59:51	15:06:48	415526	5b0cb441444cef0001ca5fbd	925071376	1	main_slash	11	advance_on_keypress_SLASH	86	stimuli_distractor_diamondtriangles.svg	stimuli_target_circlediamonds.svg	14	yes	57	0	404
6.6.1	win	2022-12-14	14:59:51	15:06:49	416824	5b0cb441444cef0001ca5fbd	925071376	1	main_slash	11	main_slash	87	stimuli_distractor_diamondtriangles.svg	stimuli_distractor_trianglediamonds.svg	38	no	53	0	252
6.6.1	win	2022-12-14	14:59:51	15:06:49	416824	5b0cb441444cef0001ca5fbd	925071376	1	main_slash	11	advance_on_keypress_SLASH	88	stimuli_distractor_diamondtriangles.svg	stimuli_distractor_trianglediamonds.svg	38	no	57	0	390
6.6.1	win	2022-12-14	14:59:51	15:06:52	419861	5b0cb441444cef0001ca5fbd	925071376	1	main_slash	11	main_slash	89	stimuli_target_trianglesquares.svg	stimuli_distractor_diamondtriangles.svg	22	yes	0	0	2000
6.6.1	win	2022-12-14	14:59:51	15:06:52	419861	5b0cb441444cef0001ca5fbd	925071376	1	main_slash	11	advance_on_keypress_SLASH	90	stimuli_target_trianglesquares.svg	stimuli_distractor_diamondtriangles.svg	22	yes	57	0	87
6.6.1	win	2022-12-14	14:59:51	15:06:53	420580	5b0cb441444cef0001ca5fbd	925071376	1	main_slash	11	main_slash	91	stimuli_distractor_diamondtriangles.svg	stimuli_target_circletriangles.svg	13	yes	53	1	0
6.6.1	win	2022-12-14	14:59:51	15:06:53	420580	5b0cb441444cef0001ca5fbd	925071376	1	main_slash	11	advance_on_keypress_SLASH	92	stimuli_distractor_diamondtriangles.svg	stimuli_target_circletriangles.svg	13	yes	57	0	418
6.6.1	win	2022-12-14	14:59:51	15:06:54	421827	5b0cb441444cef0001ca5fbd	925071376	1	main_slash	11	main_slash	93	stimuli_target_circletriangles.svg	stimuli_distractor_diamondtriangles.svg	5	yes	53	1	177
6.6.1	win	2022-12-14	14:59:51	15:06:54	421827	5b0cb441444cef0001ca5fbd	925071376	1	main_slash	11	advance_on_keypress_SLASH	94	stimuli_target_circletriangles.svg	stimuli_distractor_diamondtriangles.svg	5	yes	57	0	375
6.6.1	win	2022-12-14	14:59:51	15:06:55	422941	5b0cb441444cef0001ca5fbd	925071376	1	main_slash	11	main_slash	95	stimuli_distractor_trianglediamonds.svg	stimuli_distractor_diamondtriangles.svg	36	no	53	0	98
6.6.1	win	2022-12-14	14:59:51	15:06:55	422941	5b0cb441444cef0001ca5fbd	925071376	1	main_slash	11	advance_on_keypress_SLASH	96	stimuli_distractor_trianglediamonds.svg	stimuli_distractor_diamondtriangles.svg	36	no	57	0	406
6.6.1	win	2022-12-14	14:59:51	15:06:56	424177	5b0cb441444cef0001ca5fbd	925071376	1	main_slash	11	main_slash	97	stimuli_target_trianglesquares.svg	stimuli_distractor_trianglediamonds.svg	18	yes	53	1	172
6.6.1	win	2022-12-14	14:59:51	15:06:56	424177	5b0cb441444cef0001ca5fbd	925071376	1	main_slash	11	advance_on_keypress_SLASH	98	stimuli_target_trianglesquares.svg	stimuli_distractor_trianglediamonds.svg	18	yes	57	0	343
6.6.1	win	2022-12-14	14:59:51	15:06:59	427157	5b0cb441444cef0001ca5fbd	925071376	1	main_slash	11	main_slash	99	stimuli_distractor_diamondtriangles.svg	stimuli_distractor_diamondtriangles.svg	39	no	0	1	2000
6.6.1	win	2022-12-14	14:59:51	15:06:59	427157	5b0cb441444cef0001ca5fbd	925071376	1	main_slash	11	advance_on_keypress_SLASH	100	stimuli_distractor_diamondtriangles.svg	stimuli_distractor_diamondtriangles.svg	39	no	57	0	63
6.6.1	win	2022-12-14	14:59:51	15:07:00	427923	5b0cb441444cef0001ca5fbd	925071376	1	main_slash	11	main_slash	101	stimuli_target_trianglecircles.svg	stimuli_distractor_trianglediamonds.svg	17	yes	53	1	70
6.6.1	win	2022-12-14	14:59:51	15:07:00	427923	5b0cb441444cef0001ca5fbd	925071376	1	main_slash	11	advance_on_keypress_SLASH	102	stimuli_target_trianglecircles.svg	stimuli_distractor_trianglediamonds.svg	17	yes	57	0	762
6.6.1	win	2022-12-14	14:59:51	15:07:02	429467	5b0cb441444cef0001ca5fbd	925071376	1	main_slash	11	main_slash	103	stimuli_distractor_trianglediamonds.svg	stimuli_distractor_diamondtriangles.svg	35	no	53	0	150
6.6.1	win	2022-12-14	14:59:51	15:07:02	429467	5b0cb441444cef0001ca5fbd	925071376	1	main_slash	11	advance_on_keypress_SLASH	104	stimuli_distractor_trianglediamonds.svg	stimuli_distractor_diamondtriangles.svg	35	no	57	0	463
6.6.1	win	2022-12-14	14:59:51	15:07:03	430800	5b0cb441444cef0001ca5fbd	925071376	1	main_slash	11	main_slash	105	stimuli_target_squaretriangles.svg	stimuli_distractor_trianglediamonds.svg	3	yes	53	1	219
6.6.1	win	2022-12-14	14:59:51	15:07:03	430800	5b0cb441444cef0001ca5fbd	925071376	1	main_slash	11	advance_on_keypress_SLASH	106	stimuli_target_squaretriangles.svg	stimuli_distractor_trianglediamonds.svg	3	yes	57	0	418
6.6.1	win	2022-12-14	14:59:51	15:07:04	432038	5b0cb441444cef0001ca5fbd	925071376	1	main_slash	11	main_slash	107	stimuli_target_circlediamonds.svg	stimuli_distractor_diamondtriangles.svg	6	yes	53	1	197
6.6.1	win	2022-12-14	14:59:51	15:07:04	432038	5b0cb441444cef0001ca5fbd	925071376	1	main_slash	11	advance_on_keypress_SLASH	108	stimuli_target_circlediamonds.svg	stimuli_distractor_diamondtriangles.svg	6	yes	57	0	421
6.6.1	win	2022-12-14	14:59:51	15:07:05	433140	5b0cb441444cef0001ca5fbd	925071376	1	main_slash	11	main_slash	109	stimuli_target_diamondsquares.svg	stimuli_distractor_diamondtriangles.svg	24	yes	53	1	40
6.6.1	win	2022-12-14	14:59:51	15:07:05	433140	5b0cb441444cef0001ca5fbd	925071376	1	main_slash	11	advance_on_keypress_SLASH	110	stimuli_target_diamondsquares.svg	stimuli_distractor_diamondtriangles.svg	24	yes	57	0	472
6.6.1	win	2022-12-14	14:59:51	15:07:06	434385	5b0cb441444cef0001ca5fbd	925071376	1	main_slash	11	main_slash	111	stimuli_distractor_trianglediamonds.svg	stimuli_target_squaretriangles.svg	11	yes	53	1	132
6.6.1	win	2022-12-14	14:59:51	15:07:06	434385	5b0cb441444cef0001ca5fbd	925071376	1	main_slash	11	advance_on_keypress_SLASH	112	stimuli_distractor_trianglediamonds.svg	stimuli_target_squaretriangles.svg	11	yes	57	0	392
6.6.1	win	2022-12-14	14:59:51	15:07:08	435552	5b0cb441444cef0001ca5fbd	925071376	1	main_slash	11	main_slash	113	stimuli_target_squaretriangles.svg	stimuli_distractor_diamondtriangles.svg	7	yes	53	1	153
6.6.1	win	2022-12-14	14:59:51	15:07:08	435552	5b0cb441444cef0001ca5fbd	925071376	1	main_slash	11	advance_on_keypress_SLASH	114	stimuli_target_squaretriangles.svg	stimuli_distractor_diamondtriangles.svg	7	yes	57	0	408
6.6.1	win	2022-12-14	14:59:51	15:07:09	436767	5b0cb441444cef0001ca5fbd	925071376	1	main_slash	11	main_slash	115	stimuli_distractor_diamondtriangles.svg	stimuli_target_squaretriangles.svg	15	yes	53	1	171
6.6.1	win	2022-12-14	14:59:51	15:07:09	436767	5b0cb441444cef0001ca5fbd	925071376	1	main_slash	11	advance_on_keypress_SLASH	116	stimuli_distractor_diamondtriangles.svg	stimuli_target_squaretriangles.svg	15	yes	57	0	386
6.6.1	win	2022-12-14	14:59:51	15:07:12	439796	5b0cb441444cef0001ca5fbd	925071376	1	main_slash	11	main_slash	117	stimuli_distractor_trianglediamonds.svg	stimuli_target_circletriangles.svg	9	yes	0	0	2000
6.6.1	win	2022-12-14	14:59:51	15:07:12	439796	5b0cb441444cef0001ca5fbd	925071376	1	main_slash	11	advance_on_keypress_SLASH	118	stimuli_distractor_trianglediamonds.svg	stimuli_target_circletriangles.svg	9	yes	57	0	255
6.6.1	win	2022-12-14	14:59:51	15:07:13	440742	5b0cb441444cef0001ca5fbd	925071376	1	main_slash	11	main_slash	119	stimuli_target_circletriangles.svg	stimuli_distractor_trianglediamonds.svg	1	yes	53	1	58
6.6.1	win	2022-12-14	14:59:51	15:07:13	440742	5b0cb441444cef0001ca5fbd	925071376	1	main_slash	11	advance_on_keypress_SLASH	120	stimuli_target_circletriangles.svg	stimuli_distractor_trianglediamonds.svg	1	yes	57	0	391
6.6.1	win	2022-12-14	14:59:51	15:07:14	441882	5b0cb441444cef0001ca5fbd	925071376	1	main_slash	11	main_slash	121	stimuli_distractor_trianglediamonds.svg	stimuli_target_trianglesquares.svg	26	yes	53	1	97
6.6.1	win	2022-12-14	14:59:51	15:07:14	441882	5b0cb441444cef0001ca5fbd	925071376	1	main_slash	11	advance_on_keypress_SLASH	122	stimuli_distractor_trianglediamonds.svg	stimuli_target_trianglesquares.svg	26	yes	57	0	363
6.6.1	win	2022-12-14	14:59:51	15:07:15	442985	5b0cb441444cef0001ca5fbd	925071376	1	main_slash	11	main_slash	123	stimuli_distractor_trianglediamonds.svg	stimuli_target_trianglecircles.svg	25	yes	53	1	105
6.6.1	win	2022-12-14	14:59:51	15:07:15	442985	5b0cb441444cef0001ca5fbd	925071376	1	main_slash	11	advance_on_keypress_SLASH	124	stimuli_distractor_trianglediamonds.svg	stimuli_target_trianglecircles.svg	25	yes	57	0	369
6.6.1	win	2022-12-14	14:59:51	15:07:16	444094	5b0cb441444cef0001ca5fbd	925071376	1	main_slash	11	main_slash	125	stimuli_distractor_diamondtriangles.svg	stimuli_target_diamondsquares.svg	32	yes	53	1	119
6.6.1	win	2022-12-14	14:59:51	15:07:16	444094	5b0cb441444cef0001ca5fbd	925071376	1	main_slash	11	advance_on_keypress_SLASH	126	stimuli_distractor_diamondtriangles.svg	stimuli_target_diamondsquares.svg	32	yes	57	0	388
6.6.1	win	2022-12-14	14:59:51	15:07:17	445234	5b0cb441444cef0001ca5fbd	925071376	1	main_slash	11	main_slash	127	stimuli_distractor_diamondtriangles.svg	stimuli_target_diamondcircles.svg	31	yes	53	1	120
6.6.1	win	2022-12-14	14:59:51	15:07:17	445234	5b0cb441444cef0001ca5fbd	925071376	1	main_slash	11	advance_on_keypress_SLASH	128	stimuli_distractor_diamondtriangles.svg	stimuli_target_diamondcircles.svg	31	yes	57	0	372
6.6.1	win	2022-12-14	14:59:51	15:07:18	446326	5b0cb441444cef0001ca5fbd	925071376	1	main_slash	11	main_slash	129	stimuli_target_diamondcircles.svg	stimuli_distractor_trianglediamonds.svg	19	yes	53	1	81
6.6.1	win	2022-12-14	14:59:51	15:07:18	446326	5b0cb441444cef0001ca5fbd	925071376	1	main_slash	11	advance_on_keypress_SLASH	130	stimuli_target_diamondcircles.svg	stimuli_distractor_trianglediamonds.svg	19	yes	57	0	404
6.6.1	win	2022-12-14	14:59:51	15:07:20	447425	5b0cb441444cef0001ca5fbd	925071376	1	main_slash	11	main_slash	131	stimuli_distractor_trianglediamonds.svg	stimuli_target_circlediamonds.svg	10	yes	53	1	51
6.6.1	win	2022-12-14	14:59:51	15:07:20	447425	5b0cb441444cef0001ca5fbd	925071376	1	main_slash	11	advance_on_keypress_SLASH	132	stimuli_distractor_trianglediamonds.svg	stimuli_target_circlediamonds.svg	10	yes	57	0	454
6.6.1	win	2022-12-14	14:59:51	15:07:21	448625	5b0cb441444cef0001ca5fbd	925071376	1	main_slash	11	main_slash	133	stimuli_target_diamondcircles.svg	stimuli_distractor_diamondtriangles.svg	23	yes	53	1	95
6.6.1	win	2022-12-14	14:59:51	15:07:21	448625	5b0cb441444cef0001ca5fbd	925071376	1	main_slash	11	advance_on_keypress_SLASH	134	stimuli_target_diamondcircles.svg	stimuli_distractor_diamondtriangles.svg	23	yes	57	0	462
6.6.1	win	2022-12-14	14:59:51	15:07:22	449868	5b0cb441444cef0001ca5fbd	925071376	1	main_slash	11	main_slash	135	stimuli_target_trianglecircles.svg	stimuli_distractor_diamondtriangles.svg	21	yes	53	1	126
6.6.1	win	2022-12-14	14:59:51	15:07:22	449868	5b0cb441444cef0001ca5fbd	925071376	1	main_slash	11	advance_on_keypress_SLASH	136	stimuli_target_trianglecircles.svg	stimuli_distractor_diamondtriangles.svg	21	yes	57	0	646
6.6.1	win	2022-12-14	14:59:51	15:07:23	451210	5b0cb441444cef0001ca5fbd	925071376	1	main_slash	11	main_slash	137	stimuli_distractor_diamondtriangles.svg	stimuli_distractor_trianglediamonds.svg	37	no	53	0	48
6.6.1	win	2022-12-14	14:59:51	15:07:23	451210	5b0cb441444cef0001ca5fbd	925071376	1	main_slash	11	advance_on_keypress_SLASH	138	stimuli_distractor_diamondtriangles.svg	stimuli_distractor_trianglediamonds.svg	37	no	57	0	572
6.6.1	win	2022-12-14	14:59:51	15:07:25	452485	5b0cb441444cef0001ca5fbd	925071376	1	main_slash	11	main_slash	139	stimuli_target_squarediamonds.svg	stimuli_distractor_trianglediamonds.svg	4	yes	53	1	72
6.6.1	win	2022-12-14	14:59:51	15:07:25	452485	5b0cb441444cef0001ca5fbd	925071376	1	main_slash	11	advance_on_keypress_SLASH	140	stimuli_target_squarediamonds.svg	stimuli_distractor_trianglediamonds.svg	4	yes	57	0	533
6.6.1	win	2022-12-14	14:59:51	15:07:26	453705	5b0cb441444cef0001ca5fbd	925071376	1	main_slash	11	main_slash	141	stimuli_distractor_diamondtriangles.svg	stimuli_target_trianglecircles.svg	29	yes	53	1	32
6.6.1	win	2022-12-14	14:59:51	15:07:26	453705	5b0cb441444cef0001ca5fbd	925071376	1	main_slash	11	advance_on_keypress_SLASH	142	stimuli_distractor_diamondtriangles.svg	stimuli_target_trianglecircles.svg	29	yes	57	0	505
6.6.1	win	2022-12-14	14:59:51	15:07:27	454896	5b0cb441444cef0001ca5fbd	925071376	1	main_slash	11	main_slash	143	stimuli_distractor_trianglediamonds.svg	stimuli_distractor_trianglediamonds.svg	34	no	53	0	54
6.6.1	win	2022-12-14	14:59:51	15:07:27	454896	5b0cb441444cef0001ca5fbd	925071376	1	main_slash	11	advance_on_keypress_SLASH	144	stimuli_distractor_trianglediamonds.svg	stimuli_distractor_trianglediamonds.svg	34	no	57	0	494
6.6.1	win	2022-12-14	14:59:51	15:07:28	456142	5b0cb441444cef0001ca5fbd	925071376	1	main_slash	11	main_slash	145	stimuli_distractor_trianglediamonds.svg	stimuli_distractor_trianglediamonds.svg	33	no	53	0	113
6.6.1	win	2022-12-14	14:59:51	15:07:28	456142	5b0cb441444cef0001ca5fbd	925071376	1	main_slash	11	advance_on_keypress_SLASH	146	stimuli_distractor_trianglediamonds.svg	stimuli_distractor_trianglediamonds.svg	33	no	57	0	413
6.6.1	win	2022-12-14	14:59:51	15:07:29	457253	5b0cb441444cef0001ca5fbd	925071376	1	main_slash	11	main_slash	147	stimuli_target_squarediamonds.svg	stimuli_distractor_diamondtriangles.svg	8	yes	53	1	48
6.6.1	win	2022-12-14	14:59:51	15:07:29	457253	5b0cb441444cef0001ca5fbd	925071376	1	main_slash	11	advance_on_keypress_SLASH	148	stimuli_target_squarediamonds.svg	stimuli_distractor_diamondtriangles.svg	8	yes	57	0	397
6.6.1	win	2022-12-14	14:59:51	15:07:30	458390	5b0cb441444cef0001ca5fbd	925071376	1	main_slash	11	main_slash	149	stimuli_distractor_trianglediamonds.svg	stimuli_target_diamondcircles.svg	27	yes	53	1	99
6.6.1	win	2022-12-14	14:59:51	15:07:30	458390	5b0cb441444cef0001ca5fbd	925071376	1	main_slash	11	advance_on_keypress_SLASH	150	stimuli_distractor_trianglediamonds.svg	stimuli_target_diamondcircles.svg	27	yes	57	0	585
6.6.1	win	2022-12-14	14:59:51	15:07:32	459764	5b0cb441444cef0001ca5fbd	925071376	1	main_slash	11	main_slash	151	stimuli_distractor_diamondtriangles.svg	stimuli_target_trianglesquares.svg	30	yes	53	1	139
6.6.1	win	2022-12-14	14:59:51	15:07:32	459764	5b0cb441444cef0001ca5fbd	925071376	1	main_slash	11	advance_on_keypress_SLASH	152	stimuli_distractor_diamondtriangles.svg	stimuli_target_trianglesquares.svg	30	yes	57	0	444
6.6.1	win	2022-12-14	14:59:51	15:07:33	460940	5b0cb441444cef0001ca5fbd	925071376	1	main_slash	11	main_slash	153	stimuli_distractor_trianglediamonds.svg	stimuli_target_squarediamonds.svg	12	yes	53	1	106
6.6.1	win	2022-12-14	14:59:51	15:07:33	460940	5b0cb441444cef0001ca5fbd	925071376	1	main_slash	11	advance_on_keypress_SLASH	154	stimuli_distractor_trianglediamonds.svg	stimuli_target_squarediamonds.svg	12	yes	57	0	490
6.6.1	win	2022-12-14	14:59:51	15:07:34	462168	5b0cb441444cef0001ca5fbd	925071376	1	main_slash	11	main_slash	155	stimuli_target_circlediamonds.svg	stimuli_distractor_trianglediamonds.svg	2	yes	53	1	81
6.6.1	win	2022-12-14	14:59:51	15:07:34	462168	5b0cb441444cef0001ca5fbd	925071376	1	main_slash	11	advance_on_keypress_SLASH	156	stimuli_target_circlediamonds.svg	stimuli_distractor_trianglediamonds.svg	2	yes	57	0	552
6.6.1	win	2022-12-14	14:59:51	15:07:37	464783	5b0cb441444cef0001ca5fbd	925071376	1	main_slash	11	main_slash	157	stimuli_distractor_diamondtriangles.svg	stimuli_distractor_diamondtriangles.svg	40	no	53	0	1419
6.6.1	win	2022-12-14	14:59:51	15:07:37	464783	5b0cb441444cef0001ca5fbd	925071376	1	main_slash	11	advance_on_keypress_SLASH	158	stimuli_distractor_diamondtriangles.svg	stimuli_distractor_diamondtriangles.svg	40	no	57	0	584
6.6.1	win	2022-12-14	14:59:51	15:07:38	466020	5b0cb441444cef0001ca5fbd	925071376	1	main_slash	11	main_slash	159	stimuli_distractor_trianglediamonds.svg	stimuli_target_diamondsquares.svg	28	yes	53	1	5
6.6.1	win	2022-12-14	14:59:51	15:07:38	466020	5b0cb441444cef0001ca5fbd	925071376	1	main_slash	11	advance_on_keypress_SLASH	160	stimuli_distractor_trianglediamonds.svg	stimuli_target_diamondsquares.svg	28	yes	57	0	509