build	computer.platform	date	time	timestamp	time_elapsed_ms	subject	group	session	blockcode	blocknum	trialcode	trialnum	stimulus_left	stimulus_right	stim_index	target_present	response	correct	latency
6.6.1	win	2022-12-15	05:22:26	05:24:35	127281	57ff0e138f420f00011a5d0e	986620013	1	practice_slash	5	practice_slash	1	stimuli_target_squarediamonds.svg	stimuli_distractor_trianglediamonds.svg	5	yes	0	0	2000
6.6.1	win	2022-12-15	05:22:26	05:24:35	127281	57ff0e138f420f00011a5d0e	986620013	1	practice_slash	5	advance_on_keypress_SLASH	2	stimuli_target_squarediamonds.svg	stimuli_distractor_trianglediamonds.svg	5	yes	57	0	1501
6.6.1	win	2022-12-15	05:22:26	05:24:39	131302	57ff0e138f420f00011a5d0e	986620013	1	practice_slash	5	practice_slash	3	stimuli_distractor_trianglediamonds.svg	stimuli_target_diamondcircles.svg	12	yes	53	1	843
6.6.1	win	2022-12-15	05:22:26	05:24:39	131302	57ff0e138f420f00011a5d0e	986620013	1	practice_slash	5	advance_on_keypress_SLASH	4	stimuli_distractor_trianglediamonds.svg	stimuli_target_diamondcircles.svg	12	yes	57	0	1440
6.6.1	win	2022-12-15	05:22:26	05:24:44	136406	57ff0e138f420f00011a5d0e	986620013	1	practice_slash	5	practice_slash	5	stimuli_distractor_trianglediamonds.svg	stimuli_distractor_diamondtriangles.svg	16	no	0	1	2000
6.6.1	win	2022-12-15	05:22:26	05:24:44	136406	57ff0e138f420f00011a5d0e	986620013	1	practice_slash	5	advance_on_keypress_SLASH	6	stimuli_distractor_trianglediamonds.svg	stimuli_distractor_diamondtriangles.svg	16	no	57	0	645
6.6.1	win	2022-12-15	05:22:26	05:24:47	139288	57ff0e138f420f00011a5d0e	986620013	1	practice_slash	5	practice_slash	7	stimuli_distractor_diamondtriangles.svg	stimuli_target_diamondcircles.svg	8	yes	53	1	527
6.6.1	win	2022-12-15	05:22:26	05:24:47	139288	57ff0e138f420f00011a5d0e	986620013	1	practice_slash	5	advance_on_keypress_SLASH	8	stimuli_distractor_diamondtriangles.svg	stimuli_target_diamondcircles.svg	8	yes	57	0	615
6.6.1	win	2022-12-15	05:22:26	05:24:51	143558	57ff0e138f420f00011a5d0e	986620013	1	practice_slash	5	practice_slash	9	stimuli_distractor_diamondtriangles.svg	stimuli_distractor_trianglediamonds.svg	14	no	0	1	2000
6.6.1	win	2022-12-15	05:22:26	05:24:51	143558	57ff0e138f420f00011a5d0e	986620013	1	practice_slash	5	advance_on_keypress_SLASH	10	stimuli_distractor_diamondtriangles.svg	stimuli_distractor_trianglediamonds.svg	14	no	57	0	593
6.6.1	win	2022-12-15	05:22:26	05:24:56	147822	57ff0e138f420f00011a5d0e	986620013	1	practice_slash	5	practice_slash	11	stimuli_distractor_diamondtriangles.svg	stimuli_distractor_diamondtriangles.svg	13	no	0	1	2000
6.6.1	win	2022-12-15	05:22:26	05:24:56	147822	57ff0e138f420f00011a5d0e	986620013	1	practice_slash	5	advance_on_keypress_SLASH	12	stimuli_distractor_diamondtriangles.svg	stimuli_distractor_diamondtriangles.svg	13	no	57	0	601
6.6.1	win	2022-12-15	05:22:26	05:24:59	151108	57ff0e138f420f00011a5d0e	986620013	1	practice_slash	5	practice_slash	13	stimuli_target_squarediamonds.svg	stimuli_distractor_diamondtriangles.svg	2	yes	53	1	1013
6.6.1	win	2022-12-15	05:22:26	05:24:59	151108	57ff0e138f420f00011a5d0e	986620013	1	practice_slash	5	advance_on_keypress_SLASH	14	stimuli_target_squarediamonds.svg	stimuli_distractor_diamondtriangles.svg	2	yes	57	0	583
6.6.1	win	2022-12-15	05:22:26	05:25:02	154071	57ff0e138f420f00011a5d0e	986620013	1	practice_slash	5	practice_slash	15	stimuli_target_circlediamonds.svg	stimuli_distractor_diamondtriangles.svg	1	yes	53	1	735
6.6.1	win	2022-12-15	05:22:26	05:25:02	154071	57ff0e138f420f00011a5d0e	986620013	1	practice_slash	5	advance_on_keypress_SLASH	16	stimuli_target_circlediamonds.svg	stimuli_distractor_diamondtriangles.svg	1	yes	57	0	234
6.6.1	win	2022-12-15	05:22:26	05:25:06	157963	57ff0e138f420f00011a5d0e	986620013	1	practice_slash	5	practice_slash	17	stimuli_distractor_trianglediamonds.svg	stimuli_target_squarediamonds.svg	11	yes	0	0	2000
6.6.1	win	2022-12-15	05:22:26	05:25:06	157963	57ff0e138f420f00011a5d0e	986620013	1	practice_slash	5	advance_on_keypress_SLASH	18	stimuli_distractor_trianglediamonds.svg	stimuli_target_squarediamonds.svg	11	yes	57	0	713
6.6.1	win	2022-12-15	05:22:26	05:25:10	162335	57ff0e138f420f00011a5d0e	986620013	1	practice_slash	5	practice_slash	19	stimuli_distractor_diamondtriangles.svg	stimuli_target_circletriangles.svg	7	yes	0	0	2000
6.6.1	win	2022-12-15	05:22:26	05:25:10	162335	57ff0e138f420f00011a5d0e	986620013	1	practice_slash	5	advance_on_keypress_SLASH	20	stimuli_distractor_diamondtriangles.svg	stimuli_target_circletriangles.svg	7	yes	57	0	608
6.6.1	win	2022-12-15	05:22:26	05:25:13	165200	57ff0e138f420f00011a5d0e	986620013	1	practice_slash	5	practice_slash	21	stimuli_distractor_diamondtriangles.svg	stimuli_target_trianglecircles.svg	9	yes	53	1	573
6.6.1	win	2022-12-15	05:22:26	05:25:13	165200	57ff0e138f420f00011a5d0e	986620013	1	practice_slash	5	advance_on_keypress_SLASH	22	stimuli_distractor_diamondtriangles.svg	stimuli_target_trianglecircles.svg	9	yes	57	0	809
6.6.1	win	2022-12-15	05:22:26	05:25:17	169682	57ff0e138f420f00011a5d0e	986620013	1	practice_slash	5	practice_slash	23	stimuli_target_diamondsquares.svg	stimuli_distractor_trianglediamonds.svg	6	yes	0	0	2000
6.6.1	win	2022-12-15	05:22:26	05:25:17	169682	57ff0e138f420f00011a5d0e	986620013	1	practice_slash	5	advance_on_keypress_SLASH	24	stimuli_target_diamondsquares.svg	stimuli_distractor_trianglediamonds.svg	6	yes	57	0	578
6.6.1	win	2022-12-15	05:22:26	05:25:20	172578	57ff0e138f420f00011a5d0e	986620013	1	practice_slash	5	practice_slash	25	stimuli_distractor_trianglediamonds.svg	stimuli_target_circlediamonds.svg	10	yes	53	1	664
6.6.1	win	2022-12-15	05:22:26	05:25:20	172578	57ff0e138f420f00011a5d0e	986620013	1	practice_slash	5	advance_on_keypress_SLASH	26	stimuli_distractor_trianglediamonds.svg	stimuli_target_circlediamonds.svg	10	yes	57	0	502
6.6.1	win	2022-12-15	05:22:26	05:25:23	175351	57ff0e138f420f00011a5d0e	986620013	1	practice_slash	5	practice_slash	27	stimuli_target_diamondsquares.svg	stimuli_distractor_diamondtriangles.svg	3	yes	53	1	570
6.6.1	win	2022-12-15	05:22:26	05:25:23	175351	57ff0e138f420f00011a5d0e	986620013	1	practice_slash	5	advance_on_keypress_SLASH	28	stimuli_target_diamondsquares.svg	stimuli_distractor_diamondtriangles.svg	3	yes	57	0	397
6.6.1	win	2022-12-15	05:22:26	05:25:26	178233	57ff0e138f420f00011a5d0e	986620013	1	practice_slash	5	practice_slash	29	stimuli_target_circlediamonds.svg	stimuli_distractor_trianglediamonds.svg	4	yes	53	1	818
6.6.1	win	2022-12-15	05:22:26	05:25:26	178233	57ff0e138f420f00011a5d0e	986620013	1	practice_slash	5	advance_on_keypress_SLASH	30	stimuli_target_circlediamonds.svg	stimuli_distractor_trianglediamonds.svg	4	yes	57	0	415
6.6.1	win	2022-12-15	05:22:26	05:25:30	182287	57ff0e138f420f00011a5d0e	986620013	1	practice_slash	5	practice_slash	31	stimuli_distractor_trianglediamonds.svg	stimuli_distractor_trianglediamonds.svg	15	no	0	1	2000
6.6.1	win	2022-12-15	05:22:26	05:25:30	182287	57ff0e138f420f00011a5d0e	986620013	1	practice_slash	5	advance_on_keypress_SLASH	32	stimuli_distractor_trianglediamonds.svg	stimuli_distractor_trianglediamonds.svg	15	no	57	0	472
6.6.1	win	2022-12-15	05:22:26	05:25:41	193547	57ff0e138f420f00011a5d0e	986620013	1	main_slash	7	main_slash	1	stimuli_distractor_diamondtriangles.svg	stimuli_distractor_diamondtriangles.svg	39	no	0	1	2000
6.6.1	win	2022-12-15	05:22:26	05:25:41	193547	57ff0e138f420f00011a5d0e	986620013	1	main_slash	7	advance_on_keypress_SLASH	2	stimuli_distractor_diamondtriangles.svg	stimuli_distractor_diamondtriangles.svg	39	no	57	0	609
6.6.1	win	2022-12-15	05:22:26	05:25:45	196791	57ff0e138f420f00011a5d0e	986620013	1	main_slash	7	main_slash	3	stimuli_target_diamondsquares.svg	stimuli_distractor_diamondtriangles.svg	24	yes	0	0	2000
6.6.1	win	2022-12-15	05:22:26	05:25:45	196791	57ff0e138f420f00011a5d0e	986620013	1	main_slash	7	advance_on_keypress_SLASH	4	stimuli_target_diamondsquares.svg	stimuli_distractor_diamondtriangles.svg	24	yes	57	0	290
6.6.1	win	2022-12-15	05:22:26	05:25:46	198451	57ff0e138f420f00011a5d0e	986620013	1	main_slash	7	main_slash	5	stimuli_distractor_trianglediamonds.svg	stimuli_target_squarediamonds.svg	12	yes	53	1	740
6.6.1	win	2022-12-15	05:22:26	05:25:46	198451	57ff0e138f420f00011a5d0e	986620013	1	main_slash	7	advance_on_keypress_SLASH	6	stimuli_distractor_trianglediamonds.svg	stimuli_target_squarediamonds.svg	12	yes	57	0	893
6.6.1	win	2022-12-15	05:22:26	05:25:50	201973	57ff0e138f420f00011a5d0e	986620013	1	main_slash	7	main_slash	7	stimuli_distractor_trianglediamonds.svg	stimuli_target_diamondsquares.svg	28	yes	0	0	2000
6.6.1	win	2022-12-15	05:22:26	05:25:50	201973	57ff0e138f420f00011a5d0e	986620013	1	main_slash	7	advance_on_keypress_SLASH	8	stimuli_distractor_trianglediamonds.svg	stimuli_target_diamondsquares.svg	28	yes	57	0	594
6.6.1	win	2022-12-15	05:22:26	05:25:51	203738	57ff0e138f420f00011a5d0e	986620013	1	main_slash	7	main_slash	9	stimuli_distractor_diamondtriangles.svg	stimuli_target_squarediamonds.svg	16	yes	53	1	539
6.6.1	win	2022-12-15	05:22:26	05:25:51	203738	57ff0e138f420f00011a5d0e	986620013	1	main_slash	7	advance_on_keypress_SLASH	10	stimuli_distractor_diamondtriangles.svg	stimuli_target_squarediamonds.svg	16	yes	57	0	616
6.6.1	win	2022-12-15	05:22:26	05:25:55	206986	57ff0e138f420f00011a5d0e	986620013	1	main_slash	7	main_slash	11	stimuli_distractor_trianglediamonds.svg	stimuli_distractor_trianglediamonds.svg	34	no	0	1	2000
6.6.1	win	2022-12-15	05:22:26	05:25:55	206986	57ff0e138f420f00011a5d0e	986620013	1	main_slash	7	advance_on_keypress_SLASH	12	stimuli_distractor_trianglediamonds.svg	stimuli_distractor_trianglediamonds.svg	34	no	57	0	360
6.6.1	win	2022-12-15	05:22:26	05:25:56	208651	57ff0e138f420f00011a5d0e	986620013	1	main_slash	7	main_slash	13	stimuli_target_squaretriangles.svg	stimuli_distractor_diamondtriangles.svg	7	yes	53	1	675
6.6.1	win	2022-12-15	05:22:26	05:25:56	208651	57ff0e138f420f00011a5d0e	986620013	1	main_slash	7	advance_on_keypress_SLASH	14	stimuli_target_squaretriangles.svg	stimuli_distractor_diamondtriangles.svg	7	yes	57	0	708
6.6.1	win	2022-12-15	05:22:26	05:25:58	210451	57ff0e138f420f00011a5d0e	986620013	1	main_slash	7	main_slash	15	stimuli_distractor_diamondtriangles.svg	stimuli_target_squaretriangles.svg	15	yes	53	1	462
6.6.1	win	2022-12-15	05:22:26	05:25:58	210451	57ff0e138f420f00011a5d0e	986620013	1	main_slash	7	advance_on_keypress_SLASH	16	stimuli_distractor_diamondtriangles.svg	stimuli_target_squaretriangles.svg	15	yes	57	0	518
6.6.1	win	2022-12-15	05:22:26	05:26:00	212026	57ff0e138f420f00011a5d0e	986620013	1	main_slash	7	main_slash	17	stimuli_target_circletriangles.svg	stimuli_distractor_trianglediamonds.svg	1	yes	53	1	426
6.6.1	win	2022-12-15	05:22:26	05:26:00	212026	57ff0e138f420f00011a5d0e	986620013	1	main_slash	7	advance_on_keypress_SLASH	18	stimuli_target_circletriangles.svg	stimuli_distractor_trianglediamonds.svg	1	yes	57	0	504
6.6.1	win	2022-12-15	05:22:26	05:26:01	213488	57ff0e138f420f00011a5d0e	986620013	1	main_slash	7	main_slash	19	stimuli_distractor_trianglediamonds.svg	stimuli_distractor_trianglediamonds.svg	33	no	53	0	326
6.6.1	win	2022-12-15	05:22:26	05:26:01	213488	57ff0e138f420f00011a5d0e	986620013	1	main_slash	7	advance_on_keypress_SLASH	20	stimuli_distractor_trianglediamonds.svg	stimuli_distractor_trianglediamonds.svg	33	no	57	0	481
6.6.1	win	2022-12-15	05:22:26	05:26:04	216597	57ff0e138f420f00011a5d0e	986620013	1	main_slash	7	main_slash	21	stimuli_target_trianglesquares.svg	stimuli_distractor_diamondtriangles.svg	22	yes	0	0	2000
6.6.1	win	2022-12-15	05:22:26	05:26:04	216597	57ff0e138f420f00011a5d0e	986620013	1	main_slash	7	advance_on_keypress_SLASH	22	stimuli_target_trianglesquares.svg	stimuli_distractor_diamondtriangles.svg	22	yes	57	0	405
6.6.1	win	2022-12-15	05:22:26	05:26:06	218001	57ff0e138f420f00011a5d0e	986620013	1	main_slash	7	main_slash	23	stimuli_target_circletriangles.svg	stimuli_distractor_diamondtriangles.svg	5	yes	53	1	366
6.6.1	win	2022-12-15	05:22:26	05:26:06	218001	57ff0e138f420f00011a5d0e	986620013	1	main_slash	7	advance_on_keypress_SLASH	24	stimuli_target_circletriangles.svg	stimuli_distractor_diamondtriangles.svg	5	yes	57	0	507
6.6.1	win	2022-12-15	05:22:26	05:26:07	219601	57ff0e138f420f00011a5d0e	986620013	1	main_slash	7	main_slash	25	stimuli_target_trianglecircles.svg	stimuli_distractor_diamondtriangles.svg	21	yes	53	1	467
6.6.1	win	2022-12-15	05:22:26	05:26:07	219601	57ff0e138f420f00011a5d0e	986620013	1	main_slash	7	advance_on_keypress_SLASH	26	stimuli_target_trianglecircles.svg	stimuli_distractor_diamondtriangles.svg	21	yes	57	0	442
6.6.1	win	2022-12-15	05:22:26	05:26:09	221451	57ff0e138f420f00011a5d0e	986620013	1	main_slash	7	main_slash	27	stimuli_distractor_trianglediamonds.svg	stimuli_target_diamondcircles.svg	27	yes	53	1	781
6.6.1	win	2022-12-15	05:22:26	05:26:09	221451	57ff0e138f420f00011a5d0e	986620013	1	main_slash	7	advance_on_keypress_SLASH	28	stimuli_distractor_trianglediamonds.svg	stimuli_target_diamondcircles.svg	27	yes	57	0	339
6.6.1	win	2022-12-15	05:22:26	05:26:11	222807	57ff0e138f420f00011a5d0e	986620013	1	main_slash	7	main_slash	29	stimuli_distractor_diamondtriangles.svg	stimuli_target_diamondcircles.svg	31	yes	53	1	379
6.6.1	win	2022-12-15	05:22:26	05:26:11	222807	57ff0e138f420f00011a5d0e	986620013	1	main_slash	7	advance_on_keypress_SLASH	30	stimuli_distractor_diamondtriangles.svg	stimuli_target_diamondcircles.svg	31	yes	57	0	384
6.6.1	win	2022-12-15	05:22:26	05:26:12	224413	57ff0e138f420f00011a5d0e	986620013	1	main_slash	7	main_slash	31	stimuli_distractor_diamondtriangles.svg	stimuli_target_trianglesquares.svg	30	yes	53	1	593
6.6.1	win	2022-12-15	05:22:26	05:26:12	224413	57ff0e138f420f00011a5d0e	986620013	1	main_slash	7	advance_on_keypress_SLASH	32	stimuli_distractor_diamondtriangles.svg	stimuli_target_trianglesquares.svg	30	yes	57	0	305
6.6.1	win	2022-12-15	05:22:26	05:26:14	226076	57ff0e138f420f00011a5d0e	986620013	1	main_slash	7	main_slash	33	stimuli_distractor_diamondtriangles.svg	stimuli_distractor_trianglediamonds.svg	37	no	53	0	728
6.6.1	win	2022-12-15	05:22:26	05:26:14	226076	57ff0e138f420f00011a5d0e	986620013	1	main_slash	7	advance_on_keypress_SLASH	34	stimuli_distractor_diamondtriangles.svg	stimuli_distractor_trianglediamonds.svg	37	no	57	0	369
6.6.1	win	2022-12-15	05:22:26	05:26:15	227526	57ff0e138f420f00011a5d0e	986620013	1	main_slash	7	main_slash	35	stimuli_target_diamondcircles.svg	stimuli_distractor_trianglediamonds.svg	19	yes	53	1	458
6.6.1	win	2022-12-15	05:22:26	05:26:15	227526	57ff0e138f420f00011a5d0e	986620013	1	main_slash	7	advance_on_keypress_SLASH	36	stimuli_target_diamondcircles.svg	stimuli_distractor_trianglediamonds.svg	19	yes	57	0	327
6.6.1	win	2022-12-15	05:22:26	05:26:17	229001	57ff0e138f420f00011a5d0e	986620013	1	main_slash	7	main_slash	37	stimuli_target_circlediamonds.svg	stimuli_distractor_trianglediamonds.svg	2	yes	53	1	519
6.6.1	win	2022-12-15	05:22:26	05:26:17	229001	57ff0e138f420f00011a5d0e	986620013	1	main_slash	7	advance_on_keypress_SLASH	38	stimuli_target_circlediamonds.svg	stimuli_distractor_trianglediamonds.svg	2	yes	57	0	277
6.6.1	win	2022-12-15	05:22:26	05:26:18	230301	57ff0e138f420f00011a5d0e	986620013	1	main_slash	7	main_slash	39	stimuli_distractor_trianglediamonds.svg	stimuli_target_trianglecircles.svg	25	yes	53	1	391
6.6.1	win	2022-12-15	05:22:26	05:26:18	230301	57ff0e138f420f00011a5d0e	986620013	1	main_slash	7	advance_on_keypress_SLASH	40	stimuli_distractor_trianglediamonds.svg	stimuli_target_trianglecircles.svg	25	yes	57	0	291
6.6.1	win	2022-12-15	05:22:26	05:26:19	231611	57ff0e138f420f00011a5d0e	986620013	1	main_slash	7	main_slash	41	stimuli_distractor_diamondtriangles.svg	stimuli_target_trianglecircles.svg	29	yes	53	1	381
6.6.1	win	2022-12-15	05:22:26	05:26:19	231611	57ff0e138f420f00011a5d0e	986620013	1	main_slash	7	advance_on_keypress_SLASH	42	stimuli_distractor_diamondtriangles.svg	stimuli_target_trianglecircles.svg	29	yes	57	0	277
6.6.1	win	2022-12-15	05:22:26	05:26:21	233101	57ff0e138f420f00011a5d0e	986620013	1	main_slash	7	main_slash	43	stimuli_target_squaretriangles.svg	stimuli_distractor_trianglediamonds.svg	3	yes	53	1	580
6.6.1	win	2022-12-15	05:22:26	05:26:21	233101	57ff0e138f420f00011a5d0e	986620013	1	main_slash	7	advance_on_keypress_SLASH	44	stimuli_target_squaretriangles.svg	stimuli_distractor_trianglediamonds.svg	3	yes	57	0	270
6.6.1	win	2022-12-15	05:22:26	05:26:24	235997	57ff0e138f420f00011a5d0e	986620013	1	main_slash	7	main_slash	45	stimuli_distractor_diamondtriangles.svg	stimuli_distractor_diamondtriangles.svg	40	no	0	1	2000
6.6.1	win	2022-12-15	05:22:26	05:26:24	235997	57ff0e138f420f00011a5d0e	986620013	1	main_slash	7	advance_on_keypress_SLASH	46	stimuli_distractor_diamondtriangles.svg	stimuli_distractor_diamondtriangles.svg	40	no	57	0	607
6.6.1	win	2022-12-15	05:22:26	05:26:26	238025	57ff0e138f420f00011a5d0e	986620013	1	main_slash	7	main_slash	47	stimuli_distractor_trianglediamonds.svg	stimuli_target_trianglesquares.svg	26	yes	53	1	792
6.6.1	win	2022-12-15	05:22:26	05:26:26	238025	57ff0e138f420f00011a5d0e	986620013	1	main_slash	7	advance_on_keypress_SLASH	48	stimuli_distractor_trianglediamonds.svg	stimuli_target_trianglesquares.svg	26	yes	57	0	291
6.6.1	win	2022-12-15	05:22:26	05:26:29	240947	57ff0e138f420f00011a5d0e	986620013	1	main_slash	7	main_slash	49	stimuli_distractor_diamondtriangles.svg	stimuli_distractor_trianglediamonds.svg	38	no	0	1	2000
6.6.1	win	2022-12-15	05:22:26	05:26:29	240947	57ff0e138f420f00011a5d0e	986620013	1	main_slash	7	advance_on_keypress_SLASH	50	stimuli_distractor_diamondtriangles.svg	stimuli_distractor_trianglediamonds.svg	38	no	57	0	404
6.6.1	win	2022-12-15	05:22:26	05:26:30	242300	57ff0e138f420f00011a5d0e	986620013	1	main_slash	7	main_slash	51	stimuli_distractor_trianglediamonds.svg	stimuli_target_circlediamonds.svg	10	yes	53	1	315
6.6.1	win	2022-12-15	05:22:26	05:26:30	242300	57ff0e138f420f00011a5d0e	986620013	1	main_slash	7	advance_on_keypress_SLASH	52	stimuli_distractor_trianglediamonds.svg	stimuli_target_circlediamonds.svg	10	yes	57	0	364
6.6.1	win	2022-12-15	05:22:26	05:26:33	245298	57ff0e138f420f00011a5d0e	986620013	1	main_slash	7	main_slash	53	stimuli_distractor_trianglediamonds.svg	stimuli_distractor_diamondtriangles.svg	36	no	0	1	2000
6.6.1	win	2022-12-15	05:22:26	05:26:33	245298	57ff0e138f420f00011a5d0e	986620013	1	main_slash	7	advance_on_keypress_SLASH	54	stimuli_distractor_trianglediamonds.svg	stimuli_distractor_diamondtriangles.svg	36	no	57	0	443
6.6.1	win	2022-12-15	05:22:26	05:26:36	248367	57ff0e138f420f00011a5d0e	986620013	1	main_slash	7	main_slash	55	stimuli_target_trianglesquares.svg	stimuli_distractor_trianglediamonds.svg	18	yes	0	0	2000
6.6.1	win	2022-12-15	05:22:26	05:26:36	248367	57ff0e138f420f00011a5d0e	986620013	1	main_slash	7	advance_on_keypress_SLASH	56	stimuli_target_trianglesquares.svg	stimuli_distractor_trianglediamonds.svg	18	yes	57	0	436
6.6.1	win	2022-12-15	05:22:26	05:26:38	249925	57ff0e138f420f00011a5d0e	986620013	1	main_slash	7	main_slash	57	stimuli_target_diamondcircles.svg	stimuli_distractor_diamondtriangles.svg	23	yes	53	1	495
6.6.1	win	2022-12-15	05:22:26	05:26:38	249925	57ff0e138f420f00011a5d0e	986620013	1	main_slash	7	advance_on_keypress_SLASH	58	stimuli_target_diamondcircles.svg	stimuli_distractor_diamondtriangles.svg	23	yes	57	0	440
6.6.1	win	2022-12-15	05:22:26	05:26:39	251400	57ff0e138f420f00011a5d0e	986620013	1	main_slash	7	main_slash	59	stimuli_target_circlediamonds.svg	stimuli_distractor_diamondtriangles.svg	6	yes	53	1	403
6.6.1	win	2022-12-15	05:22:26	05:26:39	251400	57ff0e138f420f00011a5d0e	986620013	1	main_slash	7	advance_on_keypress_SLASH	60	stimuli_target_circlediamonds.svg	stimuli_distractor_diamondtriangles.svg	6	yes	57	0	366
6.6.1	win	2022-12-15	05:22:26	05:26:40	252750	57ff0e138f420f00011a5d0e	986620013	1	main_slash	7	main_slash	61	stimuli_distractor_trianglediamonds.svg	stimuli_target_squaretriangles.svg	11	yes	53	1	352
6.6.1	win	2022-12-15	05:22:26	05:26:40	252750	57ff0e138f420f00011a5d0e	986620013	1	main_slash	7	advance_on_keypress_SLASH	62	stimuli_distractor_trianglediamonds.svg	stimuli_target_squaretriangles.svg	11	yes	57	0	315
6.6.1	win	2022-12-15	05:22:26	05:26:42	254063	57ff0e138f420f00011a5d0e	986620013	1	main_slash	7	main_slash	63	stimuli_target_squarediamonds.svg	stimuli_distractor_trianglediamonds.svg	4	yes	53	1	369
6.6.1	win	2022-12-15	05:22:26	05:26:42	254063	57ff0e138f420f00011a5d0e	986620013	1	main_slash	7	advance_on_keypress_SLASH	64	stimuli_target_squarediamonds.svg	stimuli_distractor_trianglediamonds.svg	4	yes	57	0	371
6.6.1	win	2022-12-15	05:22:26	05:26:43	255412	57ff0e138f420f00011a5d0e	986620013	1	main_slash	7	main_slash	65	stimuli_target_squarediamonds.svg	stimuli_distractor_diamondtriangles.svg	8	yes	53	1	350
6.6.1	win	2022-12-15	05:22:26	05:26:43	255412	57ff0e138f420f00011a5d0e	986620013	1	main_slash	7	advance_on_keypress_SLASH	66	stimuli_target_squarediamonds.svg	stimuli_distractor_diamondtriangles.svg	8	yes	57	0	367
6.6.1	win	2022-12-15	05:22:26	05:26:45	257101	57ff0e138f420f00011a5d0e	986620013	1	main_slash	7	main_slash	67	stimuli_target_trianglecircles.svg	stimuli_distractor_trianglediamonds.svg	17	yes	53	1	695
6.6.1	win	2022-12-15	05:22:26	05:26:45	257101	57ff0e138f420f00011a5d0e	986620013	1	main_slash	7	advance_on_keypress_SLASH	68	stimuli_target_trianglecircles.svg	stimuli_distractor_trianglediamonds.svg	17	yes	57	0	216
6.6.1	win	2022-12-15	05:22:26	05:26:46	258275	57ff0e138f420f00011a5d0e	986620013	1	main_slash	7	main_slash	69	stimuli_distractor_trianglediamonds.svg	stimuli_target_circletriangles.svg	9	yes	53	1	328
6.6.1	win	2022-12-15	05:22:26	05:26:46	258275	57ff0e138f420f00011a5d0e	986620013	1	main_slash	7	advance_on_keypress_SLASH	70	stimuli_distractor_trianglediamonds.svg	stimuli_target_circletriangles.svg	9	yes	57	0	357
6.6.1	win	2022-12-15	05:22:26	05:26:49	261263	57ff0e138f420f00011a5d0e	986620013	1	main_slash	7	main_slash	71	stimuli_distractor_diamondtriangles.svg	stimuli_target_circletriangles.svg	13	yes	0	0	2000
6.6.1	win	2022-12-15	05:22:26	05:26:49	261263	57ff0e138f420f00011a5d0e	986620013	1	main_slash	7	advance_on_keypress_SLASH	72	stimuli_distractor_diamondtriangles.svg	stimuli_target_circletriangles.svg	13	yes	57	0	503
6.6.1	win	2022-12-15	05:22:26	05:26:52	264392	57ff0e138f420f00011a5d0e	986620013	1	main_slash	7	main_slash	73	stimuli_distractor_trianglediamonds.svg	stimuli_distractor_diamondtriangles.svg	35	no	0	1	2000
6.6.1	win	2022-12-15	05:22:26	05:26:52	264392	57ff0e138f420f00011a5d0e	986620013	1	main_slash	7	advance_on_keypress_SLASH	74	stimuli_distractor_trianglediamonds.svg	stimuli_distractor_diamondtriangles.svg	35	no	57	0	311
6.6.1	win	2022-12-15	05:22:26	05:26:54	265800	57ff0e138f420f00011a5d0e	986620013	1	main_slash	7	main_slash	75	stimuli_target_diamondsquares.svg	stimuli_distractor_trianglediamonds.svg	20	yes	53	1	462
6.6.1	win	2022-12-15	05:22:26	05:26:54	265800	57ff0e138f420f00011a5d0e	986620013	1	main_slash	7	advance_on_keypress_SLASH	76	stimuli_target_diamondsquares.svg	stimuli_distractor_trianglediamonds.svg	20	yes	57	0	353
6.6.1	win	2022-12-15	05:22:26	05:26:55	267175	57ff0e138f420f00011a5d0e	986620013	1	main_slash	7	main_slash	77	stimuli_distractor_diamondtriangles.svg	stimuli_target_diamondsquares.svg	32	yes	53	1	393
6.6.1	win	2022-12-15	05:22:26	05:26:55	267175	57ff0e138f420f00011a5d0e	986620013	1	main_slash	7	advance_on_keypress_SLASH	78	stimuli_distractor_diamondtriangles.svg	stimuli_target_diamondsquares.svg	32	yes	57	0	330
6.6.1	win	2022-12-15	05:22:26	05:26:58	270135	57ff0e138f420f00011a5d0e	986620013	1	main_slash	7	main_slash	79	stimuli_distractor_diamondtriangles.svg	stimuli_target_circlediamonds.svg	14	yes	0	0	2000
6.6.1	win	2022-12-15	05:22:26	05:26:58	270135	57ff0e138f420f00011a5d0e	986620013	1	main_slash	7	advance_on_keypress_SLASH	80	stimuli_distractor_diamondtriangles.svg	stimuli_target_circlediamonds.svg	14	yes	57	0	443
6.6.1	win	2022-12-15	05:22:26	05:26:59	271738	57ff0e138f420f00011a5d0e	986620013	1	main_slash	7	main_slash	81	stimuli_distractor_diamondtriangles.svg	stimuli_target_circletriangles.svg	13	yes	53	1	527
6.6.1	win	2022-12-15	05:22:26	05:26:59	271738	57ff0e138f420f00011a5d0e	986620013	1	main_slash	7	advance_on_keypress_SLASH	82	stimuli_distractor_diamondtriangles.svg	stimuli_target_circletriangles.svg	13	yes	57	0	343
6.6.1	win	2022-12-15	05:22:26	05:27:02	274710	57ff0e138f420f00011a5d0e	986620013	1	main_slash	7	main_slash	83	stimuli_distractor_diamondtriangles.svg	stimuli_distractor_diamondtriangles.svg	39	no	0	1	2000
6.6.1	win	2022-12-15	05:22:26	05:27:02	274710	57ff0e138f420f00011a5d0e	986620013	1	main_slash	7	advance_on_keypress_SLASH	84	stimuli_distractor_diamondtriangles.svg	stimuli_distractor_diamondtriangles.svg	39	no	57	0	356
6.6.1	win	2022-12-15	05:22:26	05:27:04	276200	57ff0e138f420f00011a5d0e	986620013	1	main_slash	7	main_slash	85	stimuli_distractor_trianglediamonds.svg	stimuli_distractor_diamondtriangles.svg	36	no	53	0	502
6.6.1	win	2022-12-15	05:22:26	05:27:04	276200	57ff0e138f420f00011a5d0e	986620013	1	main_slash	7	advance_on_keypress_SLASH	86	stimuli_distractor_trianglediamonds.svg	stimuli_distractor_diamondtriangles.svg	36	no	57	0	345
6.6.1	win	2022-12-15	05:22:26	05:27:07	279172	57ff0e138f420f00011a5d0e	986620013	1	main_slash	7	main_slash	87	stimuli_distractor_diamondtriangles.svg	stimuli_distractor_trianglediamonds.svg	38	no	0	1	2000
6.6.1	win	2022-12-15	05:22:26	05:27:07	279172	57ff0e138f420f00011a5d0e	986620013	1	main_slash	7	advance_on_keypress_SLASH	88	stimuli_distractor_diamondtriangles.svg	stimuli_distractor_trianglediamonds.svg	38	no	57	0	421
6.6.1	win	2022-12-15	05:22:26	05:27:10	282219	57ff0e138f420f00011a5d0e	986620013	1	main_slash	7	main_slash	89	stimuli_distractor_diamondtriangles.svg	stimuli_distractor_trianglediamonds.svg	37	no	0	1	2000
6.6.1	win	2022-12-15	05:22:26	05:27:10	282219	57ff0e138f420f00011a5d0e	986620013	1	main_slash	7	advance_on_keypress_SLASH	90	stimuli_distractor_diamondtriangles.svg	stimuli_distractor_trianglediamonds.svg	37	no	57	0	447
6.6.1	win	2022-12-15	05:22:26	05:27:11	283737	57ff0e138f420f00011a5d0e	986620013	1	main_slash	7	main_slash	91	stimuli_target_trianglecircles.svg	stimuli_distractor_diamondtriangles.svg	21	yes	53	1	441
6.6.1	win	2022-12-15	05:22:26	05:27:11	283737	57ff0e138f420f00011a5d0e	986620013	1	main_slash	7	advance_on_keypress_SLASH	92	stimuli_target_trianglecircles.svg	stimuli_distractor_diamondtriangles.svg	21	yes	57	0	430
6.6.1	win	2022-12-15	05:22:26	05:27:13	285249	57ff0e138f420f00011a5d0e	986620013	1	main_slash	7	main_slash	93	stimuli_distractor_diamondtriangles.svg	stimuli_target_diamondcircles.svg	31	yes	53	1	452
6.6.1	win	2022-12-15	05:22:26	05:27:13	285249	57ff0e138f420f00011a5d0e	986620013	1	main_slash	7	advance_on_keypress_SLASH	94	stimuli_distractor_diamondtriangles.svg	stimuli_target_diamondcircles.svg	31	yes	57	0	492
6.6.1	win	2022-12-15	05:22:26	05:27:15	286763	57ff0e138f420f00011a5d0e	986620013	1	main_slash	7	main_slash	95	stimuli_distractor_trianglediamonds.svg	stimuli_target_circlediamonds.svg	10	yes	53	1	391
6.6.1	win	2022-12-15	05:22:26	05:27:15	286763	57ff0e138f420f00011a5d0e	986620013	1	main_slash	7	advance_on_keypress_SLASH	96	stimuli_distractor_trianglediamonds.svg	stimuli_target_circlediamonds.svg	10	yes	57	0	465
6.6.1	win	2022-12-15	05:22:26	05:27:16	288212	57ff0e138f420f00011a5d0e	986620013	1	main_slash	7	main_slash	97	stimuli_distractor_trianglediamonds.svg	stimuli_target_squarediamonds.svg	12	yes	53	1	353
6.6.1	win	2022-12-15	05:22:26	05:27:16	288212	57ff0e138f420f00011a5d0e	986620013	1	main_slash	7	advance_on_keypress_SLASH	98	stimuli_distractor_trianglediamonds.svg	stimuli_target_squarediamonds.svg	12	yes	57	0	391
6.6.1	win	2022-12-15	05:22:26	05:27:17	289675	57ff0e138f420f00011a5d0e	986620013	1	main_slash	7	main_slash	99	stimuli_target_squarediamonds.svg	stimuli_distractor_diamondtriangles.svg	8	yes	53	1	438
6.6.1	win	2022-12-15	05:22:26	05:27:17	289675	57ff0e138f420f00011a5d0e	986620013	1	main_slash	7	advance_on_keypress_SLASH	100	stimuli_target_squarediamonds.svg	stimuli_distractor_diamondtriangles.svg	8	yes	57	0	370
6.6.1	win	2022-12-15	05:22:26	05:27:19	291749	57ff0e138f420f00011a5d0e	986620013	1	main_slash	7	main_slash	101	stimuli_distractor_trianglediamonds.svg	stimuli_target_diamondsquares.svg	28	yes	53	1	1083
6.6.1	win	2022-12-15	05:22:26	05:27:19	291749	57ff0e138f420f00011a5d0e	986620013	1	main_slash	7	advance_on_keypress_SLASH	102	stimuli_distractor_trianglediamonds.svg	stimuli_target_diamondsquares.svg	28	yes	57	0	353
6.6.1	win	2022-12-15	05:22:26	05:27:21	293137	57ff0e138f420f00011a5d0e	986620013	1	main_slash	7	main_slash	103	stimuli_target_squarediamonds.svg	stimuli_distractor_trianglediamonds.svg	4	yes	53	1	405
6.6.1	win	2022-12-15	05:22:26	05:27:21	293137	57ff0e138f420f00011a5d0e	986620013	1	main_slash	7	advance_on_keypress_SLASH	104	stimuli_target_squarediamonds.svg	stimuli_distractor_trianglediamonds.svg	4	yes	57	0	353
6.6.1	win	2022-12-15	05:22:26	05:27:24	296122	57ff0e138f420f00011a5d0e	986620013	1	main_slash	7	main_slash	105	stimuli_distractor_trianglediamonds.svg	stimuli_distractor_diamondtriangles.svg	35	no	0	1	2000
6.6.1	win	2022-12-15	05:22:26	05:27:24	296122	57ff0e138f420f00011a5d0e	986620013	1	main_slash	7	advance_on_keypress_SLASH	106	stimuli_distractor_trianglediamonds.svg	stimuli_distractor_diamondtriangles.svg	35	no	57	0	508
6.6.1	win	2022-12-15	05:22:26	05:27:25	297650	57ff0e138f420f00011a5d0e	986620013	1	main_slash	7	main_slash	107	stimuli_target_trianglecircles.svg	stimuli_distractor_trianglediamonds.svg	17	yes	53	1	394
6.6.1	win	2022-12-15	05:22:26	05:27:25	297650	57ff0e138f420f00011a5d0e	986620013	1	main_slash	7	advance_on_keypress_SLASH	108	stimuli_target_trianglecircles.svg	stimuli_distractor_trianglediamonds.svg	17	yes	57	0	343
6.6.1	win	2022-12-15	05:22:26	05:27:27	299187	57ff0e138f420f00011a5d0e	986620013	1	main_slash	7	main_slash	109	stimuli_target_diamondcircles.svg	stimuli_distractor_trianglediamonds.svg	19	yes	53	1	570
6.6.1	win	2022-12-15	05:22:26	05:27:27	299187	57ff0e138f420f00011a5d0e	986620013	1	main_slash	7	advance_on_keypress_SLASH	110	stimuli_target_diamondcircles.svg	stimuli_distractor_trianglediamonds.svg	19	yes	57	0	278
6.6.1	win	2022-12-15	05:22:26	05:27:30	302095	57ff0e138f420f00011a5d0e	986620013	1	main_slash	7	main_slash	111	stimuli_distractor_trianglediamonds.svg	stimuli_distractor_trianglediamonds.svg	33	no	0	1	2000
6.6.1	win	2022-12-15	05:22:26	05:27:30	302095	57ff0e138f420f00011a5d0e	986620013	1	main_slash	7	advance_on_keypress_SLASH	112	stimuli_distractor_trianglediamonds.svg	stimuli_distractor_trianglediamonds.svg	33	no	57	0	535
6.6.1	win	2022-12-15	05:22:26	05:27:32	303950	57ff0e138f420f00011a5d0e	986620013	1	main_slash	7	main_slash	113	stimuli_target_diamondsquares.svg	stimuli_distractor_diamondtriangles.svg	24	yes	53	1	691
6.6.1	win	2022-12-15	05:22:26	05:27:32	303950	57ff0e138f420f00011a5d0e	986620013	1	main_slash	7	advance_on_keypress_SLASH	114	stimuli_target_diamondsquares.svg	stimuli_distractor_diamondtriangles.svg	24	yes	57	0	365
6.6.1	win	2022-12-15	05:22:26	05:27:35	306948	57ff0e138f420f00011a5d0e	986620013	1	main_slash	7	main_slash	115	stimuli_distractor_diamondtriangles.svg	stimuli_target_squaretriangles.svg	15	yes	0	0	2000
6.6.1	win	2022-12-15	05:22:26	05:27:35	306948	57ff0e138f420f00011a5d0e	986620013	1	main_slash	7	advance_on_keypress_SLASH	116	stimuli_distractor_diamondtriangles.svg	stimuli_target_squaretriangles.svg	15	yes	57	0	278
6.6.1	win	2022-12-15	05:22:26	05:27:36	308224	57ff0e138f420f00011a5d0e	986620013	1	main_slash	7	main_slash	117	stimuli_target_diamondcircles.svg	stimuli_distractor_diamondtriangles.svg	23	yes	53	1	368
6.6.1	win	2022-12-15	05:22:26	05:27:36	308224	57ff0e138f420f00011a5d0e	986620013	1	main_slash	7	advance_on_keypress_SLASH	118	stimuli_target_diamondcircles.svg	stimuli_distractor_diamondtriangles.svg	23	yes	57	0	369
6.6.1	win	2022-12-15	05:22:26	05:27:37	309637	57ff0e138f420f00011a5d0e	986620013	1	main_slash	7	main_slash	119	stimuli_distractor_trianglediamonds.svg	stimuli_target_circletriangles.svg	9	yes	53	1	419
6.6.1	win	2022-12-15	05:22:26	05:27:37	309637	57ff0e138f420f00011a5d0e	986620013	1	main_slash	7	advance_on_keypress_SLASH	120	stimuli_distractor_trianglediamonds.svg	stimuli_target_circletriangles.svg	9	yes	57	0	226
6.6.1	win	2022-12-15	05:22:26	05:27:39	310962	57ff0e138f420f00011a5d0e	986620013	1	main_slash	7	main_slash	121	stimuli_distractor_diamondtriangles.svg	stimuli_target_trianglesquares.svg	30	yes	53	1	466
6.6.1	win	2022-12-15	05:22:26	05:27:39	310962	57ff0e138f420f00011a5d0e	986620013	1	main_slash	7	advance_on_keypress_SLASH	122	stimuli_distractor_diamondtriangles.svg	stimuli_target_trianglesquares.svg	30	yes	57	0	218
6.6.1	win	2022-12-15	05:22:26	05:27:40	312200	57ff0e138f420f00011a5d0e	986620013	1	main_slash	7	main_slash	123	stimuli_target_trianglesquares.svg	stimuli_distractor_trianglediamonds.svg	18	yes	53	1	388
6.6.1	win	2022-12-15	05:22:26	05:27:40	312200	57ff0e138f420f00011a5d0e	986620013	1	main_slash	7	advance_on_keypress_SLASH	124	stimuli_target_trianglesquares.svg	stimuli_distractor_trianglediamonds.svg	18	yes	57	0	219
6.6.1	win	2022-12-15	05:22:26	05:27:41	313439	57ff0e138f420f00011a5d0e	986620013	1	main_slash	7	main_slash	125	stimuli_target_circlediamonds.svg	stimuli_distractor_trianglediamonds.svg	2	yes	53	1	378
6.6.1	win	2022-12-15	05:22:26	05:27:41	313439	57ff0e138f420f00011a5d0e	986620013	1	main_slash	7	advance_on_keypress_SLASH	126	stimuli_target_circlediamonds.svg	stimuli_distractor_trianglediamonds.svg	2	yes	57	0	223
6.6.1	win	2022-12-15	05:22:26	05:27:43	314774	57ff0e138f420f00011a5d0e	986620013	1	main_slash	7	main_slash	127	stimuli_target_circletriangles.svg	stimuli_distractor_diamondtriangles.svg	5	yes	53	1	479
6.6.1	win	2022-12-15	05:22:26	05:27:43	314774	57ff0e138f420f00011a5d0e	986620013	1	main_slash	7	advance_on_keypress_SLASH	128	stimuli_target_circletriangles.svg	stimuli_distractor_diamondtriangles.svg	5	yes	57	0	204
6.6.1	win	2022-12-15	05:22:26	05:27:44	315962	57ff0e138f420f00011a5d0e	986620013	1	main_slash	7	main_slash	129	stimuli_target_circlediamonds.svg	stimuli_distractor_diamondtriangles.svg	6	yes	53	1	354
6.6.1	win	2022-12-15	05:22:26	05:27:44	315962	57ff0e138f420f00011a5d0e	986620013	1	main_slash	7	advance_on_keypress_SLASH	130	stimuli_target_circlediamonds.svg	stimuli_distractor_diamondtriangles.svg	6	yes	57	0	217
6.6.1	win	2022-12-15	05:22:26	05:27:45	317195	57ff0e138f420f00011a5d0e	986620013	1	main_slash	7	main_slash	131	stimuli_distractor_trianglediamonds.svg	stimuli_target_diamondcircles.svg	27	yes	53	1	378
6.6.1	win	2022-12-15	05:22:26	05:27:45	317195	57ff0e138f420f00011a5d0e	986620013	1	main_slash	7	advance_on_keypress_SLASH	132	stimuli_distractor_trianglediamonds.svg	stimuli_target_diamondcircles.svg	27	yes	57	0	170
6.6.1	win	2022-12-15	05:22:26	05:27:46	318324	57ff0e138f420f00011a5d0e	986620013	1	main_slash	7	main_slash	133	stimuli_target_squaretriangles.svg	stimuli_distractor_trianglediamonds.svg	3	yes	53	1	332
6.6.1	win	2022-12-15	05:22:26	05:27:46	318324	57ff0e138f420f00011a5d0e	986620013	1	main_slash	7	advance_on_keypress_SLASH	134	stimuli_target_squaretriangles.svg	stimuli_distractor_trianglediamonds.svg	3	yes	57	0	267
6.6.1	win	2022-12-15	05:22:26	05:27:49	321220	57ff0e138f420f00011a5d0e	986620013	1	main_slash	7	main_slash	135	stimuli_distractor_diamondtriangles.svg	stimuli_distractor_diamondtriangles.svg	40	no	0	1	2000
6.6.1	win	2022-12-15	05:22:26	05:27:49	321220	57ff0e138f420f00011a5d0e	986620013	1	main_slash	7	advance_on_keypress_SLASH	136	stimuli_distractor_diamondtriangles.svg	stimuli_distractor_diamondtriangles.svg	40	no	57	0	488
6.6.1	win	2022-12-15	05:22:26	05:27:51	322801	57ff0e138f420f00011a5d0e	986620013	1	main_slash	7	main_slash	137	stimuli_distractor_trianglediamonds.svg	stimuli_target_squaretriangles.svg	11	yes	53	1	469
6.6.1	win	2022-12-15	05:22:26	05:27:51	322801	57ff0e138f420f00011a5d0e	986620013	1	main_slash	7	advance_on_keypress_SLASH	138	stimuli_distractor_trianglediamonds.svg	stimuli_target_squaretriangles.svg	11	yes	57	0	213
6.6.1	win	2022-12-15	05:22:26	05:27:52	324029	57ff0e138f420f00011a5d0e	986620013	1	main_slash	7	main_slash	139	stimuli_distractor_diamondtriangles.svg	stimuli_target_trianglecircles.svg	29	yes	53	1	378
6.6.1	win	2022-12-15	05:22:26	05:27:52	324029	57ff0e138f420f00011a5d0e	986620013	1	main_slash	7	advance_on_keypress_SLASH	140	stimuli_distractor_diamondtriangles.svg	stimuli_target_trianglecircles.svg	29	yes	57	0	183
6.6.1	win	2022-12-15	05:22:26	05:27:53	325187	57ff0e138f420f00011a5d0e	986620013	1	main_slash	7	main_slash	141	stimuli_target_circletriangles.svg	stimuli_distractor_trianglediamonds.svg	1	yes	53	1	346
6.6.1	win	2022-12-15	05:22:26	05:27:53	325187	57ff0e138f420f00011a5d0e	986620013	1	main_slash	7	advance_on_keypress_SLASH	142	stimuli_target_circletriangles.svg	stimuli_distractor_trianglediamonds.svg	1	yes	57	0	179
6.6.1	win	2022-12-15	05:22:26	05:27:54	326337	57ff0e138f420f00011a5d0e	986620013	1	main_slash	7	main_slash	143	stimuli_distractor_diamondtriangles.svg	stimuli_target_diamondsquares.svg	32	yes	53	1	339
6.6.1	win	2022-12-15	05:22:26	05:27:54	326337	57ff0e138f420f00011a5d0e	986620013	1	main_slash	7	advance_on_keypress_SLASH	144	stimuli_distractor_diamondtriangles.svg	stimuli_target_diamondsquares.svg	32	yes	57	0	207
6.6.1	win	2022-12-15	05:22:26	05:27:55	327513	57ff0e138f420f00011a5d0e	986620013	1	main_slash	7	main_slash	145	stimuli_target_trianglesquares.svg	stimuli_distractor_diamondtriangles.svg	22	yes	53	1	343
6.6.1	win	2022-12-15	05:22:26	05:27:55	327513	57ff0e138f420f00011a5d0e	986620013	1	main_slash	7	advance_on_keypress_SLASH	146	stimuli_target_trianglesquares.svg	stimuli_distractor_diamondtriangles.svg	22	yes	57	0	192
6.6.1	win	2022-12-15	05:22:26	05:27:56	328674	57ff0e138f420f00011a5d0e	986620013	1	main_slash	7	main_slash	147	stimuli_distractor_trianglediamonds.svg	stimuli_distractor_trianglediamonds.svg	34	no	53	0	345
6.6.1	win	2022-12-15	05:22:26	05:27:56	328674	57ff0e138f420f00011a5d0e	986620013	1	main_slash	7	advance_on_keypress_SLASH	148	stimuli_distractor_trianglediamonds.svg	stimuli_distractor_trianglediamonds.svg	34	no	57	0	305
6.6.1	win	2022-12-15	05:22:26	05:27:58	330501	57ff0e138f420f00011a5d0e	986620013	1	main_slash	7	main_slash	149	stimuli_target_diamondsquares.svg	stimuli_distractor_trianglediamonds.svg	20	yes	53	1	890
6.6.1	win	2022-12-15	05:22:26	05:27:58	330501	57ff0e138f420f00011a5d0e	986620013	1	main_slash	7	advance_on_keypress_SLASH	150	stimuli_target_diamondsquares.svg	stimuli_distractor_trianglediamonds.svg	20	yes	57	0	413
6.6.1	win	2022-12-15	05:22:26	05:28:00	331886	57ff0e138f420f00011a5d0e	986620013	1	main_slash	7	main_slash	151	stimuli_distractor_trianglediamonds.svg	stimuli_target_trianglesquares.svg	26	yes	53	1	341
6.6.1	win	2022-12-15	05:22:26	05:28:00	331886	57ff0e138f420f00011a5d0e	986620013	1	main_slash	7	advance_on_keypress_SLASH	152	stimuli_distractor_trianglediamonds.svg	stimuli_target_trianglesquares.svg	26	yes	57	0	231
6.6.1	win	2022-12-15	05:22:26	05:28:01	333086	57ff0e138f420f00011a5d0e	986620013	1	main_slash	7	main_slash	153	stimuli_distractor_trianglediamonds.svg	stimuli_target_trianglecircles.svg	25	yes	53	1	340
6.6.1	win	2022-12-15	05:22:26	05:28:01	333086	57ff0e138f420f00011a5d0e	986620013	1	main_slash	7	advance_on_keypress_SLASH	154	stimuli_distractor_trianglediamonds.svg	stimuli_target_trianglecircles.svg	25	yes	57	0	266
6.6.1	win	2022-12-15	05:22:26	05:28:02	334574	57ff0e138f420f00011a5d0e	986620013	1	main_slash	7	main_slash	155	stimuli_target_squaretriangles.svg	stimuli_distractor_diamondtriangles.svg	7	yes	53	1	591
6.6.1	win	2022-12-15	05:22:26	05:28:02	334574	57ff0e138f420f00011a5d0e	986620013	1	main_slash	7	advance_on_keypress_SLASH	156	stimuli_target_squaretriangles.svg	stimuli_distractor_diamondtriangles.svg	7	yes	57	0	235
6.6.1	win	2022-12-15	05:22:26	05:28:03	335750	57ff0e138f420f00011a5d0e	986620013	1	main_slash	7	main_slash	157	stimuli_distractor_diamondtriangles.svg	stimuli_target_squarediamonds.svg	16	yes	53	1	318
6.6.1	win	2022-12-15	05:22:26	05:28:03	335750	57ff0e138f420f00011a5d0e	986620013	1	main_slash	7	advance_on_keypress_SLASH	158	stimuli_distractor_diamondtriangles.svg	stimuli_target_squarediamonds.svg	16	yes	57	0	201
6.6.1	win	2022-12-15	05:22:26	05:28:05	337086	57ff0e138f420f00011a5d0e	986620013	1	main_slash	7	main_slash	159	stimuli_distractor_diamondtriangles.svg	stimuli_target_circlediamonds.svg	14	yes	53	1	504
6.6.1	win	2022-12-15	05:22:26	05:28:05	337086	57ff0e138f420f00011a5d0e	986620013	1	main_slash	7	advance_on_keypress_SLASH	160	stimuli_distractor_diamondtriangles.svg	stimuli_target_circlediamonds.svg	14	yes	57	0	178
6.6.1	win	2022-12-15	05:22:26	05:28:34	366558	57ff0e138f420f00011a5d0e	986620013	1	practice_z	9	practice_z	1	stimuli_distractor_trianglediamonds.svg	stimuli_distractor_trianglediamonds.svg	15	no	0	1	2000
6.6.1	win	2022-12-15	05:22:26	05:28:34	366558	57ff0e138f420f00011a5d0e	986620013	1	practice_z	9	advance_on_keypress_ZEE	2	stimuli_distractor_trianglediamonds.svg	stimuli_distractor_trianglediamonds.svg	15	no	57	0	582
6.6.1	win	2022-12-15	05:22:26	05:28:37	369238	57ff0e138f420f00011a5d0e	986620013	1	practice_z	9	practice_z	3	stimuli_distractor_trianglediamonds.svg	stimuli_target_diamondcircles.svg	12	yes	44	1	466
6.6.1	win	2022-12-15	05:22:26	05:28:37	369238	57ff0e138f420f00011a5d0e	986620013	1	practice_z	9	advance_on_keypress_ZEE	4	stimuli_distractor_trianglediamonds.svg	stimuli_target_diamondcircles.svg	12	yes	57	0	453
6.6.1	win	2022-12-15	05:22:26	05:28:39	371725	57ff0e138f420f00011a5d0e	986620013	1	practice_z	9	practice_z	5	stimuli_target_circlediamonds.svg	stimuli_distractor_trianglediamonds.svg	4	yes	44	1	403
6.6.1	win	2022-12-15	05:22:26	05:28:39	371725	57ff0e138f420f00011a5d0e	986620013	1	practice_z	9	advance_on_keypress_ZEE	6	stimuli_target_circlediamonds.svg	stimuli_distractor_trianglediamonds.svg	4	yes	57	0	315
6.6.1	win	2022-12-15	05:22:26	05:28:42	374325	57ff0e138f420f00011a5d0e	986620013	1	practice_z	9	practice_z	7	stimuli_distractor_diamondtriangles.svg	stimuli_target_circletriangles.svg	7	yes	44	1	653
6.6.1	win	2022-12-15	05:22:26	05:28:42	374325	57ff0e138f420f00011a5d0e	986620013	1	practice_z	9	advance_on_keypress_ZEE	8	stimuli_distractor_diamondtriangles.svg	stimuli_target_circletriangles.svg	7	yes	57	0	352
6.6.1	win	2022-12-15	05:22:26	05:28:46	378312	57ff0e138f420f00011a5d0e	986620013	1	practice_z	9	practice_z	9	stimuli_distractor_diamondtriangles.svg	stimuli_distractor_diamondtriangles.svg	13	no	0	1	2000
6.6.1	win	2022-12-15	05:22:26	05:28:46	378312	57ff0e138f420f00011a5d0e	986620013	1	practice_z	9	advance_on_keypress_ZEE	10	stimuli_distractor_diamondtriangles.svg	stimuli_distractor_diamondtriangles.svg	13	no	57	0	303
6.6.1	win	2022-12-15	05:22:26	05:28:48	380649	57ff0e138f420f00011a5d0e	986620013	1	practice_z	9	practice_z	11	stimuli_target_squarediamonds.svg	stimuli_distractor_trianglediamonds.svg	5	yes	44	1	401
6.6.1	win	2022-12-15	05:22:26	05:28:48	380649	57ff0e138f420f00011a5d0e	986620013	1	practice_z	9	advance_on_keypress_ZEE	12	stimuli_target_squarediamonds.svg	stimuli_distractor_trianglediamonds.svg	5	yes	57	0	488
6.6.1	win	2022-12-15	05:22:26	05:28:51	383112	57ff0e138f420f00011a5d0e	986620013	1	practice_z	9	practice_z	13	stimuli_distractor_trianglediamonds.svg	stimuli_target_squarediamonds.svg	11	yes	44	1	340
6.6.1	win	2022-12-15	05:22:26	05:28:51	383112	57ff0e138f420f00011a5d0e	986620013	1	practice_z	9	advance_on_keypress_ZEE	14	stimuli_distractor_trianglediamonds.svg	stimuli_target_squarediamonds.svg	11	yes	57	0	433
6.6.1	win	2022-12-15	05:22:26	05:28:53	385512	57ff0e138f420f00011a5d0e	986620013	1	practice_z	9	practice_z	15	stimuli_distractor_trianglediamonds.svg	stimuli_target_circlediamonds.svg	10	yes	44	1	340
6.6.1	win	2022-12-15	05:22:26	05:28:53	385512	57ff0e138f420f00011a5d0e	986620013	1	practice_z	9	advance_on_keypress_ZEE	16	stimuli_distractor_trianglediamonds.svg	stimuli_target_circlediamonds.svg	10	yes	57	0	328
6.6.1	win	2022-12-15	05:22:26	05:28:56	387825	57ff0e138f420f00011a5d0e	986620013	1	practice_z	9	practice_z	17	stimuli_distractor_diamondtriangles.svg	stimuli_target_trianglecircles.svg	9	yes	44	1	352
6.6.1	win	2022-12-15	05:22:26	05:28:56	387825	57ff0e138f420f00011a5d0e	986620013	1	practice_z	9	advance_on_keypress_ZEE	18	stimuli_distractor_diamondtriangles.svg	stimuli_target_trianglecircles.svg	9	yes	57	0	314
6.6.1	win	2022-12-15	05:22:26	05:28:58	390061	57ff0e138f420f00011a5d0e	986620013	1	practice_z	9	practice_z	19	stimuli_target_circlediamonds.svg	stimuli_distractor_diamondtriangles.svg	1	yes	44	1	290
6.6.1	win	2022-12-15	05:22:26	05:28:58	390061	57ff0e138f420f00011a5d0e	986620013	1	practice_z	9	advance_on_keypress_ZEE	20	stimuli_target_circlediamonds.svg	stimuli_distractor_diamondtriangles.svg	1	yes	57	0	403
6.6.1	win	2022-12-15	05:22:26	05:29:00	392575	57ff0e138f420f00011a5d0e	986620013	1	practice_z	9	practice_z	21	stimuli_target_diamondsquares.svg	stimuli_distractor_trianglediamonds.svg	6	yes	44	1	475
6.6.1	win	2022-12-15	05:22:26	05:29:00	392575	57ff0e138f420f00011a5d0e	986620013	1	practice_z	9	advance_on_keypress_ZEE	22	stimuli_target_diamondsquares.svg	stimuli_distractor_trianglediamonds.svg	6	yes	57	0	276
6.6.1	win	2022-12-15	05:22:26	05:29:03	394812	57ff0e138f420f00011a5d0e	986620013	1	practice_z	9	practice_z	23	stimuli_distractor_diamondtriangles.svg	stimuli_target_diamondcircles.svg	8	yes	44	1	329
6.6.1	win	2022-12-15	05:22:26	05:29:03	394812	57ff0e138f420f00011a5d0e	986620013	1	practice_z	9	advance_on_keypress_ZEE	24	stimuli_distractor_diamondtriangles.svg	stimuli_target_diamondcircles.svg	8	yes	57	0	382
6.6.1	win	2022-12-15	05:22:26	05:29:05	397300	57ff0e138f420f00011a5d0e	986620013	1	practice_z	9	practice_z	25	stimuli_target_diamondsquares.svg	stimuli_distractor_diamondtriangles.svg	3	yes	44	1	477
6.6.1	win	2022-12-15	05:22:26	05:29:05	397300	57ff0e138f420f00011a5d0e	986620013	1	practice_z	9	advance_on_keypress_ZEE	26	stimuli_target_diamondsquares.svg	stimuli_distractor_diamondtriangles.svg	3	yes	57	0	51
6.6.1	win	2022-12-15	05:22:26	05:29:09	400983	57ff0e138f420f00011a5d0e	986620013	1	practice_z	9	practice_z	27	stimuli_distractor_diamondtriangles.svg	stimuli_distractor_trianglediamonds.svg	14	no	0	1	2000
6.6.1	win	2022-12-15	05:22:26	05:29:09	400983	57ff0e138f420f00011a5d0e	986620013	1	practice_z	9	advance_on_keypress_ZEE	28	stimuli_distractor_diamondtriangles.svg	stimuli_distractor_trianglediamonds.svg	14	no	57	0	399
6.6.1	win	2022-12-15	05:22:26	05:29:11	403394	57ff0e138f420f00011a5d0e	986620013	1	practice_z	9	practice_z	29	stimuli_target_squarediamonds.svg	stimuli_distractor_diamondtriangles.svg	2	yes	44	1	379
6.6.1	win	2022-12-15	05:22:26	05:29:11	403394	57ff0e138f420f00011a5d0e	986620013	1	practice_z	9	advance_on_keypress_ZEE	30	stimuli_target_squarediamonds.svg	stimuli_distractor_diamondtriangles.svg	2	yes	57	0	260
6.6.1	win	2022-12-15	05:22:26	05:29:15	407282	57ff0e138f420f00011a5d0e	986620013	1	practice_z	9	practice_z	31	stimuli_distractor_trianglediamonds.svg	stimuli_distractor_diamondtriangles.svg	16	no	0	1	2000
6.6.1	win	2022-12-15	05:22:26	05:29:15	407282	57ff0e138f420f00011a5d0e	986620013	1	practice_z	9	advance_on_keypress_ZEE	32	stimuli_distractor_trianglediamonds.svg	stimuli_distractor_diamondtriangles.svg	16	no	57	0	282
6.6.1	win	2022-12-15	05:22:26	05:29:19	411035	57ff0e138f420f00011a5d0e	986620013	1	main_z	11	main_z	1	stimuli_distractor_trianglediamonds.svg	stimuli_target_trianglecircles.svg	25	yes	44	1	523
6.6.1	win	2022-12-15	05:22:26	05:29:19	411035	57ff0e138f420f00011a5d0e	986620013	1	main_z	11	advance_on_keypress_ZEE	2	stimuli_distractor_trianglediamonds.svg	stimuli_target_trianglecircles.svg	25	yes	57	0	792
6.6.1	win	2022-12-15	05:22:26	05:29:21	412848	57ff0e138f420f00011a5d0e	986620013	1	main_z	11	main_z	3	stimuli_target_circlediamonds.svg	stimuli_distractor_trianglediamonds.svg	2	yes	44	1	392
6.6.1	win	2022-12-15	05:22:26	05:29:21	412848	57ff0e138f420f00011a5d0e	986620013	1	main_z	11	advance_on_keypress_ZEE	4	stimuli_target_circlediamonds.svg	stimuli_distractor_trianglediamonds.svg	2	yes	57	0	341
6.6.1	win	2022-12-15	05:22:26	05:29:22	414285	57ff0e138f420f00011a5d0e	986620013	1	main_z	11	main_z	5	stimuli_distractor_trianglediamonds.svg	stimuli_distractor_diamondtriangles.svg	36	no	44	0	468
6.6.1	win	2022-12-15	05:22:26	05:29:22	414285	57ff0e138f420f00011a5d0e	986620013	1	main_z	11	advance_on_keypress_ZEE	6	stimuli_distractor_trianglediamonds.svg	stimuli_distractor_diamondtriangles.svg	36	no	57	0	451
6.6.1	win	2022-12-15	05:22:26	05:29:24	415923	57ff0e138f420f00011a5d0e	986620013	1	main_z	11	main_z	7	stimuli_target_diamondsquares.svg	stimuli_distractor_diamondtriangles.svg	24	yes	44	1	553
6.6.1	win	2022-12-15	05:22:26	05:29:24	415923	57ff0e138f420f00011a5d0e	986620013	1	main_z	11	advance_on_keypress_ZEE	8	stimuli_target_diamondsquares.svg	stimuli_distractor_diamondtriangles.svg	24	yes	57	0	268
6.6.1	win	2022-12-15	05:22:26	05:29:25	417185	57ff0e138f420f00011a5d0e	986620013	1	main_z	11	main_z	9	stimuli_target_diamondsquares.svg	stimuli_distractor_trianglediamonds.svg	20	yes	44	1	366
6.6.1	win	2022-12-15	05:22:26	05:29:25	417185	57ff0e138f420f00011a5d0e	986620013	1	main_z	11	advance_on_keypress_ZEE	10	stimuli_target_diamondsquares.svg	stimuli_distractor_trianglediamonds.svg	20	yes	57	0	293
6.6.1	win	2022-12-15	05:22:26	05:29:28	420107	57ff0e138f420f00011a5d0e	986620013	1	main_z	11	main_z	11	stimuli_distractor_diamondtriangles.svg	stimuli_distractor_diamondtriangles.svg	40	no	0	1	2000
6.6.1	win	2022-12-15	05:22:26	05:29:28	420107	57ff0e138f420f00011a5d0e	986620013	1	main_z	11	advance_on_keypress_ZEE	12	stimuli_distractor_diamondtriangles.svg	stimuli_distractor_diamondtriangles.svg	40	no	57	0	344
6.6.1	win	2022-12-15	05:22:26	05:29:29	421560	57ff0e138f420f00011a5d0e	986620013	1	main_z	11	main_z	13	stimuli_distractor_trianglediamonds.svg	stimuli_target_circlediamonds.svg	10	yes	44	1	483
6.6.1	win	2022-12-15	05:22:26	05:29:29	421560	57ff0e138f420f00011a5d0e	986620013	1	main_z	11	advance_on_keypress_ZEE	14	stimuli_distractor_trianglediamonds.svg	stimuli_target_circlediamonds.svg	10	yes	57	0	377
6.6.1	win	2022-12-15	05:22:26	05:29:32	424571	57ff0e138f420f00011a5d0e	986620013	1	main_z	11	main_z	15	stimuli_distractor_diamondtriangles.svg	stimuli_distractor_trianglediamonds.svg	38	no	0	1	2000
6.6.1	win	2022-12-15	05:22:26	05:29:32	424571	57ff0e138f420f00011a5d0e	986620013	1	main_z	11	advance_on_keypress_ZEE	16	stimuli_distractor_diamondtriangles.svg	stimuli_distractor_trianglediamonds.svg	38	no	57	0	318
6.6.1	win	2022-12-15	05:22:26	05:29:34	425907	57ff0e138f420f00011a5d0e	986620013	1	main_z	11	main_z	17	stimuli_target_squarediamonds.svg	stimuli_distractor_diamondtriangles.svg	8	yes	44	1	379
6.6.1	win	2022-12-15	05:22:26	05:29:34	425907	57ff0e138f420f00011a5d0e	986620013	1	main_z	11	advance_on_keypress_ZEE	18	stimuli_target_squarediamonds.svg	stimuli_distractor_diamondtriangles.svg	8	yes	57	0	332
6.6.1	win	2022-12-15	05:22:26	05:29:37	428866	57ff0e138f420f00011a5d0e	986620013	1	main_z	11	main_z	19	stimuli_distractor_trianglediamonds.svg	stimuli_distractor_trianglediamonds.svg	33	no	0	1	2000
6.6.1	win	2022-12-15	05:22:26	05:29:37	428866	57ff0e138f420f00011a5d0e	986620013	1	main_z	11	advance_on_keypress_ZEE	20	stimuli_distractor_trianglediamonds.svg	stimuli_distractor_trianglediamonds.svg	33	no	57	0	384
6.6.1	win	2022-12-15	05:22:26	05:29:38	430249	57ff0e138f420f00011a5d0e	986620013	1	main_z	11	main_z	21	stimuli_distractor_trianglediamonds.svg	stimuli_target_diamondcircles.svg	27	yes	44	1	369
6.6.1	win	2022-12-15	05:22:26	05:29:38	430249	57ff0e138f420f00011a5d0e	986620013	1	main_z	11	advance_on_keypress_ZEE	22	stimuli_distractor_trianglediamonds.svg	stimuli_target_diamondcircles.svg	27	yes	57	0	677
6.6.1	win	2022-12-15	05:22:26	05:29:40	432235	57ff0e138f420f00011a5d0e	986620013	1	main_z	11	main_z	23	stimuli_distractor_trianglediamonds.svg	stimuli_target_squaretriangles.svg	11	yes	44	1	683
6.6.1	win	2022-12-15	05:22:26	05:29:40	432235	57ff0e138f420f00011a5d0e	986620013	1	main_z	11	advance_on_keypress_ZEE	24	stimuli_distractor_trianglediamonds.svg	stimuli_target_squaretriangles.svg	11	yes	57	0	403
6.6.1	win	2022-12-15	05:22:26	05:29:41	433672	57ff0e138f420f00011a5d0e	986620013	1	main_z	11	main_z	25	stimuli_target_squaretriangles.svg	stimuli_distractor_diamondtriangles.svg	7	yes	44	1	401
6.6.1	win	2022-12-15	05:22:26	05:29:41	433672	57ff0e138f420f00011a5d0e	986620013	1	main_z	11	advance_on_keypress_ZEE	26	stimuli_target_squaretriangles.svg	stimuli_distractor_diamondtriangles.svg	7	yes	57	0	317
6.6.1	win	2022-12-15	05:22:26	05:29:43	434949	57ff0e138f420f00011a5d0e	986620013	1	main_z	11	main_z	27	stimuli_distractor_diamondtriangles.svg	stimuli_target_squaretriangles.svg	15	yes	44	1	327
6.6.1	win	2022-12-15	05:22:26	05:29:43	434949	57ff0e138f420f00011a5d0e	986620013	1	main_z	11	advance_on_keypress_ZEE	28	stimuli_distractor_diamondtriangles.svg	stimuli_target_squaretriangles.svg	15	yes	57	0	291
6.6.1	win	2022-12-15	05:22:26	05:29:46	437871	57ff0e138f420f00011a5d0e	986620013	1	main_z	11	main_z	29	stimuli_distractor_diamondtriangles.svg	stimuli_distractor_trianglediamonds.svg	37	no	0	1	2000
6.6.1	win	2022-12-15	05:22:26	05:29:46	437871	57ff0e138f420f00011a5d0e	986620013	1	main_z	11	advance_on_keypress_ZEE	30	stimuli_distractor_diamondtriangles.svg	stimuli_distractor_trianglediamonds.svg	37	no	57	0	330
6.6.1	win	2022-12-15	05:22:26	05:29:47	439199	57ff0e138f420f00011a5d0e	986620013	1	main_z	11	main_z	31	stimuli_target_diamondcircles.svg	stimuli_distractor_diamondtriangles.svg	23	yes	44	1	364
6.6.1	win	2022-12-15	05:22:26	05:29:47	439199	57ff0e138f420f00011a5d0e	986620013	1	main_z	11	advance_on_keypress_ZEE	32	stimuli_target_diamondcircles.svg	stimuli_distractor_diamondtriangles.svg	23	yes	57	0	320
6.6.1	win	2022-12-15	05:22:26	05:29:48	440635	57ff0e138f420f00011a5d0e	986620013	1	main_z	11	main_z	33	stimuli_target_trianglesquares.svg	stimuli_distractor_diamondtriangles.svg	22	yes	44	1	490
6.6.1	win	2022-12-15	05:22:26	05:29:48	440635	57ff0e138f420f00011a5d0e	986620013	1	main_z	11	advance_on_keypress_ZEE	34	stimuli_target_trianglesquares.svg	stimuli_distractor_diamondtriangles.svg	22	yes	57	0	340
6.6.1	win	2022-12-15	05:22:26	05:29:50	441960	57ff0e138f420f00011a5d0e	986620013	1	main_z	11	main_z	35	stimuli_distractor_trianglediamonds.svg	stimuli_target_diamondsquares.svg	28	yes	44	1	354
6.6.1	win	2022-12-15	05:22:26	05:29:50	441960	57ff0e138f420f00011a5d0e	986620013	1	main_z	11	advance_on_keypress_ZEE	36	stimuli_distractor_trianglediamonds.svg	stimuli_target_diamondsquares.svg	28	yes	57	0	332
6.6.1	win	2022-12-15	05:22:26	05:29:51	443485	57ff0e138f420f00011a5d0e	986620013	1	main_z	11	main_z	37	stimuli_distractor_diamondtriangles.svg	stimuli_target_circletriangles.svg	13	yes	44	1	563
6.6.1	win	2022-12-15	05:22:26	05:29:51	443485	57ff0e138f420f00011a5d0e	986620013	1	main_z	11	advance_on_keypress_ZEE	38	stimuli_distractor_diamondtriangles.svg	stimuli_target_circletriangles.svg	13	yes	57	0	295
6.6.1	win	2022-12-15	05:22:26	05:29:52	444735	57ff0e138f420f00011a5d0e	986620013	1	main_z	11	main_z	39	stimuli_target_squaretriangles.svg	stimuli_distractor_trianglediamonds.svg	3	yes	44	1	325
6.6.1	win	2022-12-15	05:22:26	05:29:52	444735	57ff0e138f420f00011a5d0e	986620013	1	main_z	11	advance_on_keypress_ZEE	40	stimuli_target_squaretriangles.svg	stimuli_distractor_trianglediamonds.svg	3	yes	57	0	291
6.6.1	win	2022-12-15	05:22:26	05:29:54	446042	57ff0e138f420f00011a5d0e	986620013	1	main_z	11	main_z	41	stimuli_distractor_diamondtriangles.svg	stimuli_target_diamondcircles.svg	31	yes	44	1	378
6.6.1	win	2022-12-15	05:22:26	05:29:54	446042	57ff0e138f420f00011a5d0e	986620013	1	main_z	11	advance_on_keypress_ZEE	42	stimuli_distractor_diamondtriangles.svg	stimuli_target_diamondcircles.svg	31	yes	57	0	259
6.6.1	win	2022-12-15	05:22:26	05:29:55	447335	57ff0e138f420f00011a5d0e	986620013	1	main_z	11	main_z	43	stimuli_target_trianglecircles.svg	stimuli_distractor_diamondtriangles.svg	21	yes	44	1	404
6.6.1	win	2022-12-15	05:22:26	05:29:55	447335	57ff0e138f420f00011a5d0e	986620013	1	main_z	11	advance_on_keypress_ZEE	44	stimuli_target_trianglecircles.svg	stimuli_distractor_diamondtriangles.svg	21	yes	57	0	227
6.6.1	win	2022-12-15	05:22:26	05:29:56	448523	57ff0e138f420f00011a5d0e	986620013	1	main_z	11	main_z	45	stimuli_target_circletriangles.svg	stimuli_distractor_trianglediamonds.svg	1	yes	44	1	328
6.6.1	win	2022-12-15	05:22:26	05:29:56	448523	57ff0e138f420f00011a5d0e	986620013	1	main_z	11	advance_on_keypress_ZEE	46	stimuli_target_circletriangles.svg	stimuli_distractor_trianglediamonds.svg	1	yes	57	0	228
6.6.1	win	2022-12-15	05:22:26	05:29:58	449837	57ff0e138f420f00011a5d0e	986620013	1	main_z	11	main_z	47	stimuli_target_trianglecircles.svg	stimuli_distractor_trianglediamonds.svg	17	yes	44	1	449
6.6.1	win	2022-12-15	05:22:26	05:29:58	449837	57ff0e138f420f00011a5d0e	986620013	1	main_z	11	advance_on_keypress_ZEE	48	stimuli_target_trianglecircles.svg	stimuli_distractor_trianglediamonds.svg	17	yes	57	0	137
6.6.1	win	2022-12-15	05:22:26	05:29:59	450910	57ff0e138f420f00011a5d0e	986620013	1	main_z	11	main_z	49	stimuli_distractor_trianglediamonds.svg	stimuli_distractor_trianglediamonds.svg	34	no	44	0	300
6.6.1	win	2022-12-15	05:22:26	05:29:59	450910	57ff0e138f420f00011a5d0e	986620013	1	main_z	11	advance_on_keypress_ZEE	50	stimuli_distractor_trianglediamonds.svg	stimuli_distractor_trianglediamonds.svg	34	no	57	0	280
6.6.1	win	2022-12-15	05:22:26	05:30:00	452285	57ff0e138f420f00011a5d0e	986620013	1	main_z	11	main_z	51	stimuli_target_trianglesquares.svg	stimuli_distractor_trianglediamonds.svg	18	yes	44	1	461
6.6.1	win	2022-12-15	05:22:26	05:30:00	452285	57ff0e138f420f00011a5d0e	986620013	1	main_z	11	advance_on_keypress_ZEE	52	stimuli_target_trianglesquares.svg	stimuli_distractor_trianglediamonds.svg	18	yes	57	0	181
6.6.1	win	2022-12-15	05:22:26	05:30:01	453498	57ff0e138f420f00011a5d0e	986620013	1	main_z	11	main_z	53	stimuli_target_squarediamonds.svg	stimuli_distractor_trianglediamonds.svg	4	yes	44	1	404
6.6.1	win	2022-12-15	05:22:26	05:30:01	453498	57ff0e138f420f00011a5d0e	986620013	1	main_z	11	advance_on_keypress_ZEE	54	stimuli_target_squarediamonds.svg	stimuli_distractor_trianglediamonds.svg	4	yes	57	0	254
6.6.1	win	2022-12-15	05:22:26	05:30:03	454810	57ff0e138f420f00011a5d0e	986620013	1	main_z	11	main_z	55	stimuli_distractor_trianglediamonds.svg	stimuli_target_trianglesquares.svg	26	yes	44	1	433
6.6.1	win	2022-12-15	05:22:26	05:30:03	454810	57ff0e138f420f00011a5d0e	986620013	1	main_z	11	advance_on_keypress_ZEE	56	stimuli_distractor_trianglediamonds.svg	stimuli_target_trianglesquares.svg	26	yes	57	0	243
6.6.1	win	2022-12-15	05:22:26	05:30:04	456110	57ff0e138f420f00011a5d0e	986620013	1	main_z	11	main_z	57	stimuli_distractor_trianglediamonds.svg	stimuli_distractor_diamondtriangles.svg	35	no	44	0	426
6.6.1	win	2022-12-15	05:22:26	05:30:04	456110	57ff0e138f420f00011a5d0e	986620013	1	main_z	11	advance_on_keypress_ZEE	58	stimuli_distractor_trianglediamonds.svg	stimuli_distractor_diamondtriangles.svg	35	no	57	0	179
6.6.1	win	2022-12-15	05:22:26	05:30:05	457313	57ff0e138f420f00011a5d0e	986620013	1	main_z	11	main_z	59	stimuli_target_circlediamonds.svg	stimuli_distractor_diamondtriangles.svg	6	yes	44	1	378
6.6.1	win	2022-12-15	05:22:26	05:30:05	457313	57ff0e138f420f00011a5d0e	986620013	1	main_z	11	advance_on_keypress_ZEE	60	stimuli_target_circlediamonds.svg	stimuli_distractor_diamondtriangles.svg	6	yes	57	0	235
6.6.1	win	2022-12-15	05:22:26	05:30:06	458523	57ff0e138f420f00011a5d0e	986620013	1	main_z	11	main_z	61	stimuli_distractor_diamondtriangles.svg	stimuli_target_diamondsquares.svg	32	yes	44	1	340
6.6.1	win	2022-12-15	05:22:26	05:30:06	458523	57ff0e138f420f00011a5d0e	986620013	1	main_z	11	advance_on_keypress_ZEE	62	stimuli_distractor_diamondtriangles.svg	stimuli_target_diamondsquares.svg	32	yes	57	0	240
6.6.1	win	2022-12-15	05:22:26	05:30:08	459847	57ff0e138f420f00011a5d0e	986620013	1	main_z	11	main_z	63	stimuli_distractor_diamondtriangles.svg	stimuli_target_trianglecircles.svg	29	yes	44	1	453
6.6.1	win	2022-12-15	05:22:26	05:30:08	459847	57ff0e138f420f00011a5d0e	986620013	1	main_z	11	advance_on_keypress_ZEE	64	stimuli_distractor_diamondtriangles.svg	stimuli_target_trianglecircles.svg	29	yes	57	0	230
6.6.1	win	2022-12-15	05:22:26	05:30:09	461094	57ff0e138f420f00011a5d0e	986620013	1	main_z	11	main_z	65	stimuli_target_diamondcircles.svg	stimuli_distractor_trianglediamonds.svg	19	yes	44	1	377
6.6.1	win	2022-12-15	05:22:26	05:30:09	461094	57ff0e138f420f00011a5d0e	986620013	1	main_z	11	advance_on_keypress_ZEE	66	stimuli_target_diamondcircles.svg	stimuli_distractor_trianglediamonds.svg	19	yes	57	0	179
6.6.1	win	2022-12-15	05:22:26	05:30:10	462272	57ff0e138f420f00011a5d0e	986620013	1	main_z	11	main_z	67	stimuli_distractor_diamondtriangles.svg	stimuli_target_circlediamonds.svg	14	yes	44	1	366
6.6.1	win	2022-12-15	05:22:26	05:30:10	462272	57ff0e138f420f00011a5d0e	986620013	1	main_z	11	advance_on_keypress_ZEE	68	stimuli_distractor_diamondtriangles.svg	stimuli_target_circlediamonds.svg	14	yes	57	0	305
6.6.1	win	2022-12-15	05:22:26	05:30:11	463535	57ff0e138f420f00011a5d0e	986620013	1	main_z	11	main_z	69	stimuli_distractor_diamondtriangles.svg	stimuli_target_squarediamonds.svg	16	yes	44	1	329
6.6.1	win	2022-12-15	05:22:26	05:30:11	463535	57ff0e138f420f00011a5d0e	986620013	1	main_z	11	advance_on_keypress_ZEE	70	stimuli_distractor_diamondtriangles.svg	stimuli_target_squarediamonds.svg	16	yes	57	0	175
6.6.1	win	2022-12-15	05:22:26	05:30:12	464734	57ff0e138f420f00011a5d0e	986620013	1	main_z	11	main_z	71	stimuli_distractor_diamondtriangles.svg	stimuli_target_trianglesquares.svg	30	yes	44	1	376
6.6.1	win	2022-12-15	05:22:26	05:30:12	464734	57ff0e138f420f00011a5d0e	986620013	1	main_z	11	advance_on_keypress_ZEE	72	stimuli_distractor_diamondtriangles.svg	stimuli_target_trianglesquares.svg	30	yes	57	0	154
6.6.1	win	2022-12-15	05:22:26	05:30:15	467297	57ff0e138f420f00011a5d0e	986620013	1	main_z	11	main_z	73	stimuli_target_circletriangles.svg	stimuli_distractor_diamondtriangles.svg	5	yes	44	1	1777
6.6.1	win	2022-12-15	05:22:26	05:30:15	467297	57ff0e138f420f00011a5d0e	986620013	1	main_z	11	advance_on_keypress_ZEE	74	stimuli_target_circletriangles.svg	stimuli_distractor_diamondtriangles.svg	5	yes	57	0	153
6.6.1	win	2022-12-15	05:22:26	05:30:18	470085	57ff0e138f420f00011a5d0e	986620013	1	main_z	11	main_z	75	stimuli_distractor_diamondtriangles.svg	stimuli_distractor_diamondtriangles.svg	39	no	0	1	2000
6.6.1	win	2022-12-15	05:22:26	05:30:18	470085	57ff0e138f420f00011a5d0e	986620013	1	main_z	11	advance_on_keypress_ZEE	76	stimuli_distractor_diamondtriangles.svg	stimuli_distractor_diamondtriangles.svg	39	no	57	0	653
6.6.1	win	2022-12-15	05:22:26	05:30:19	471722	57ff0e138f420f00011a5d0e	986620013	1	main_z	11	main_z	77	stimuli_distractor_trianglediamonds.svg	stimuli_target_squarediamonds.svg	12	yes	44	1	356
6.6.1	win	2022-12-15	05:22:26	05:30:19	471722	57ff0e138f420f00011a5d0e	986620013	1	main_z	11	advance_on_keypress_ZEE	78	stimuli_distractor_trianglediamonds.svg	stimuli_target_squarediamonds.svg	12	yes	57	0	258
6.6.1	win	2022-12-15	05:22:26	05:30:21	473072	57ff0e138f420f00011a5d0e	986620013	1	main_z	11	main_z	79	stimuli_distractor_trianglediamonds.svg	stimuli_target_circletriangles.svg	9	yes	44	1	465
6.6.1	win	2022-12-15	05:22:26	05:30:21	473072	57ff0e138f420f00011a5d0e	986620013	1	main_z	11	advance_on_keypress_ZEE	80	stimuli_distractor_trianglediamonds.svg	stimuli_target_circletriangles.svg	9	yes	57	0	232
6.6.1	win	2022-12-15	05:22:26	05:30:22	474327	57ff0e138f420f00011a5d0e	986620013	1	main_z	11	main_z	81	stimuli_distractor_trianglediamonds.svg	stimuli_target_squaretriangles.svg	11	yes	44	1	392
6.6.1	win	2022-12-15	05:22:26	05:30:22	474327	57ff0e138f420f00011a5d0e	986620013	1	main_z	11	advance_on_keypress_ZEE	82	stimuli_distractor_trianglediamonds.svg	stimuli_target_squaretriangles.svg	11	yes	57	0	253
6.6.1	win	2022-12-15	05:22:26	05:30:23	475700	57ff0e138f420f00011a5d0e	986620013	1	main_z	11	main_z	83	stimuli_target_trianglesquares.svg	stimuli_distractor_trianglediamonds.svg	18	yes	44	1	485
6.6.1	win	2022-12-15	05:22:26	05:30:23	475700	57ff0e138f420f00011a5d0e	986620013	1	main_z	11	advance_on_keypress_ZEE	84	stimuli_target_trianglesquares.svg	stimuli_distractor_trianglediamonds.svg	18	yes	57	0	292
6.6.1	win	2022-12-15	05:22:26	05:30:25	477042	57ff0e138f420f00011a5d0e	986620013	1	main_z	11	main_z	85	stimuli_target_circletriangles.svg	stimuli_distractor_trianglediamonds.svg	1	yes	44	1	404
6.6.1	win	2022-12-15	05:22:26	05:30:25	477042	57ff0e138f420f00011a5d0e	986620013	1	main_z	11	advance_on_keypress_ZEE	86	stimuli_target_circletriangles.svg	stimuli_distractor_trianglediamonds.svg	1	yes	57	0	258
6.6.1	win	2022-12-15	05:22:26	05:30:26	478478	57ff0e138f420f00011a5d0e	986620013	1	main_z	11	main_z	87	stimuli_target_diamondsquares.svg	stimuli_distractor_trianglediamonds.svg	20	yes	44	1	538
6.6.1	win	2022-12-15	05:22:26	05:30:26	478478	57ff0e138f420f00011a5d0e	986620013	1	main_z	11	advance_on_keypress_ZEE	88	stimuli_target_diamondsquares.svg	stimuli_distractor_trianglediamonds.svg	20	yes	57	0	275
6.6.1	win	2022-12-15	05:22:26	05:30:28	479859	57ff0e138f420f00011a5d0e	986620013	1	main_z	11	main_z	89	stimuli_target_diamondcircles.svg	stimuli_distractor_trianglediamonds.svg	19	yes	44	1	449
6.6.1	win	2022-12-15	05:22:26	05:30:28	479859	57ff0e138f420f00011a5d0e	986620013	1	main_z	11	advance_on_keypress_ZEE	90	stimuli_target_diamondcircles.svg	stimuli_distractor_trianglediamonds.svg	19	yes	57	0	255
6.6.1	win	2022-12-15	05:22:26	05:30:29	481100	57ff0e138f420f00011a5d0e	986620013	1	main_z	11	main_z	91	stimuli_distractor_diamondtriangles.svg	stimuli_target_circletriangles.svg	13	yes	44	1	350
6.6.1	win	2022-12-15	05:22:26	05:30:29	481100	57ff0e138f420f00011a5d0e	986620013	1	main_z	11	advance_on_keypress_ZEE	92	stimuli_distractor_diamondtriangles.svg	stimuli_target_circletriangles.svg	13	yes	57	0	302
6.6.1	win	2022-12-15	05:22:26	05:30:32	484051	57ff0e138f420f00011a5d0e	986620013	1	main_z	11	main_z	93	stimuli_distractor_trianglediamonds.svg	stimuli_distractor_trianglediamonds.svg	34	no	0	1	2000
6.6.1	win	2022-12-15	05:22:26	05:30:32	484051	57ff0e138f420f00011a5d0e	986620013	1	main_z	11	advance_on_keypress_ZEE	94	stimuli_distractor_trianglediamonds.svg	stimuli_distractor_trianglediamonds.svg	34	no	57	0	754
6.6.1	win	2022-12-15	05:22:26	05:30:34	485965	57ff0e138f420f00011a5d0e	986620013	1	main_z	11	main_z	95	stimuli_distractor_diamondtriangles.svg	stimuli_target_diamondcircles.svg	31	yes	44	1	519
6.6.1	win	2022-12-15	05:22:26	05:30:34	485965	57ff0e138f420f00011a5d0e	986620013	1	main_z	11	advance_on_keypress_ZEE	96	stimuli_distractor_diamondtriangles.svg	stimuli_target_diamondcircles.svg	31	yes	57	0	406
6.6.1	win	2022-12-15	05:22:26	05:30:35	487403	57ff0e138f420f00011a5d0e	986620013	1	main_z	11	main_z	97	stimuli_target_trianglecircles.svg	stimuli_distractor_trianglediamonds.svg	17	yes	44	1	379
6.6.1	win	2022-12-15	05:22:26	05:30:35	487403	57ff0e138f420f00011a5d0e	986620013	1	main_z	11	advance_on_keypress_ZEE	98	stimuli_target_trianglecircles.svg	stimuli_distractor_trianglediamonds.svg	17	yes	57	0	276
6.6.1	win	2022-12-15	05:22:26	05:30:36	488715	57ff0e138f420f00011a5d0e	986620013	1	main_z	11	main_z	99	stimuli_target_squarediamonds.svg	stimuli_distractor_diamondtriangles.svg	8	yes	44	1	385
6.6.1	win	2022-12-15	05:22:26	05:30:36	488715	57ff0e138f420f00011a5d0e	986620013	1	main_z	11	advance_on_keypress_ZEE	100	stimuli_target_squarediamonds.svg	stimuli_distractor_diamondtriangles.svg	8	yes	57	0	357
6.6.1	win	2022-12-15	05:22:26	05:30:38	490041	57ff0e138f420f00011a5d0e	986620013	1	main_z	11	main_z	101	stimuli_target_squaretriangles.svg	stimuli_distractor_diamondtriangles.svg	7	yes	44	1	313
6.6.1	win	2022-12-15	05:22:26	05:30:38	490041	57ff0e138f420f00011a5d0e	986620013	1	main_z	11	advance_on_keypress_ZEE	102	stimuli_target_squaretriangles.svg	stimuli_distractor_diamondtriangles.svg	7	yes	57	0	313
6.6.1	win	2022-12-15	05:22:26	05:30:39	491319	57ff0e138f420f00011a5d0e	986620013	1	main_z	11	main_z	103	stimuli_distractor_diamondtriangles.svg	stimuli_distractor_trianglediamonds.svg	37	no	44	0	320
6.6.1	win	2022-12-15	05:22:26	05:30:39	491319	57ff0e138f420f00011a5d0e	986620013	1	main_z	11	advance_on_keypress_ZEE	104	stimuli_distractor_diamondtriangles.svg	stimuli_distractor_trianglediamonds.svg	37	no	57	0	322
6.6.1	win	2022-12-15	05:22:26	05:30:40	492674	57ff0e138f420f00011a5d0e	986620013	1	main_z	11	main_z	105	stimuli_target_trianglecircles.svg	stimuli_distractor_diamondtriangles.svg	21	yes	44	1	388
6.6.1	win	2022-12-15	05:22:26	05:30:40	492674	57ff0e138f420f00011a5d0e	986620013	1	main_z	11	advance_on_keypress_ZEE	106	stimuli_target_trianglecircles.svg	stimuli_distractor_diamondtriangles.svg	21	yes	57	0	260
6.6.1	win	2022-12-15	05:22:26	05:30:43	495576	57ff0e138f420f00011a5d0e	986620013	1	main_z	11	main_z	107	stimuli_distractor_trianglediamonds.svg	stimuli_distractor_diamondtriangles.svg	35	no	0	1	2000
6.6.1	win	2022-12-15	05:22:26	05:30:43	495576	57ff0e138f420f00011a5d0e	986620013	1	main_z	11	advance_on_keypress_ZEE	108	stimuli_distractor_trianglediamonds.svg	stimuli_distractor_diamondtriangles.svg	35	no	57	0	543
6.6.1	win	2022-12-15	05:22:26	05:30:45	497157	57ff0e138f420f00011a5d0e	986620013	1	main_z	11	main_z	109	stimuli_distractor_trianglediamonds.svg	stimuli_target_diamondsquares.svg	28	yes	44	1	393
6.6.1	win	2022-12-15	05:22:26	05:30:45	497157	57ff0e138f420f00011a5d0e	986620013	1	main_z	11	advance_on_keypress_ZEE	110	stimuli_distractor_trianglediamonds.svg	stimuli_target_diamondsquares.svg	28	yes	57	0	320
6.6.1	win	2022-12-15	05:22:26	05:30:46	498497	57ff0e138f420f00011a5d0e	986620013	1	main_z	11	main_z	111	stimuli_distractor_trianglediamonds.svg	stimuli_target_circlediamonds.svg	10	yes	44	1	367
6.6.1	win	2022-12-15	05:22:26	05:30:46	498497	57ff0e138f420f00011a5d0e	986620013	1	main_z	11	advance_on_keypress_ZEE	112	stimuli_distractor_trianglediamonds.svg	stimuli_target_circlediamonds.svg	10	yes	57	0	282
6.6.1	win	2022-12-15	05:22:26	05:30:48	499859	57ff0e138f420f00011a5d0e	986620013	1	main_z	11	main_z	113	stimuli_target_squarediamonds.svg	stimuli_distractor_trianglediamonds.svg	4	yes	44	1	439
6.6.1	win	2022-12-15	05:22:26	05:30:48	499859	57ff0e138f420f00011a5d0e	986620013	1	main_z	11	advance_on_keypress_ZEE	114	stimuli_target_squarediamonds.svg	stimuli_distractor_trianglediamonds.svg	4	yes	57	0	286
6.6.1	win	2022-12-15	05:22:26	05:30:49	501194	57ff0e138f420f00011a5d0e	986620013	1	main_z	11	main_z	115	stimuli_target_squaretriangles.svg	stimuli_distractor_trianglediamonds.svg	3	yes	44	1	390
6.6.1	win	2022-12-15	05:22:26	05:30:49	501194	57ff0e138f420f00011a5d0e	986620013	1	main_z	11	advance_on_keypress_ZEE	116	stimuli_target_squaretriangles.svg	stimuli_distractor_trianglediamonds.svg	3	yes	57	0	277
6.6.1	win	2022-12-15	05:22:26	05:30:52	504125	57ff0e138f420f00011a5d0e	986620013	1	main_z	11	main_z	117	stimuli_distractor_diamondtriangles.svg	stimuli_distractor_trianglediamonds.svg	38	no	0	1	2000
6.6.1	win	2022-12-15	05:22:26	05:30:52	504125	57ff0e138f420f00011a5d0e	986620013	1	main_z	11	advance_on_keypress_ZEE	118	stimuli_distractor_diamondtriangles.svg	stimuli_distractor_trianglediamonds.svg	38	no	57	0	341
6.6.1	win	2022-12-15	05:22:26	05:30:53	505511	57ff0e138f420f00011a5d0e	986620013	1	main_z	11	main_z	119	stimuli_distractor_diamondtriangles.svg	stimuli_target_trianglecircles.svg	29	yes	44	1	406
6.6.1	win	2022-12-15	05:22:26	05:30:53	505511	57ff0e138f420f00011a5d0e	986620013	1	main_z	11	advance_on_keypress_ZEE	120	stimuli_distractor_diamondtriangles.svg	stimuli_target_trianglecircles.svg	29	yes	57	0	292
6.6.1	win	2022-12-15	05:22:26	05:30:55	506864	57ff0e138f420f00011a5d0e	986620013	1	main_z	11	main_z	121	stimuli_target_trianglesquares.svg	stimuli_distractor_diamondtriangles.svg	22	yes	44	1	408
6.6.1	win	2022-12-15	05:22:26	05:30:55	506864	57ff0e138f420f00011a5d0e	986620013	1	main_z	11	advance_on_keypress_ZEE	122	stimuli_target_trianglesquares.svg	stimuli_distractor_diamondtriangles.svg	22	yes	57	0	325
6.6.1	win	2022-12-15	05:22:26	05:30:56	508225	57ff0e138f420f00011a5d0e	986620013	1	main_z	11	main_z	123	stimuli_target_circlediamonds.svg	stimuli_distractor_diamondtriangles.svg	6	yes	44	1	395
6.6.1	win	2022-12-15	05:22:26	05:30:56	508225	57ff0e138f420f00011a5d0e	986620013	1	main_z	11	advance_on_keypress_ZEE	124	stimuli_target_circlediamonds.svg	stimuli_distractor_diamondtriangles.svg	6	yes	57	0	297
6.6.1	win	2022-12-15	05:22:26	05:30:57	509502	57ff0e138f420f00011a5d0e	986620013	1	main_z	11	main_z	125	stimuli_distractor_diamondtriangles.svg	stimuli_target_circlediamonds.svg	14	yes	44	1	338
6.6.1	win	2022-12-15	05:22:26	05:30:57	509502	57ff0e138f420f00011a5d0e	986620013	1	main_z	11	advance_on_keypress_ZEE	126	stimuli_distractor_diamondtriangles.svg	stimuli_target_circlediamonds.svg	14	yes	57	0	302
6.6.1	win	2022-12-15	05:22:26	05:30:58	510736	57ff0e138f420f00011a5d0e	986620013	1	main_z	11	main_z	127	stimuli_distractor_trianglediamonds.svg	stimuli_target_circletriangles.svg	9	yes	44	1	300
6.6.1	win	2022-12-15	05:22:26	05:30:58	510736	57ff0e138f420f00011a5d0e	986620013	1	main_z	11	advance_on_keypress_ZEE	128	stimuli_distractor_trianglediamonds.svg	stimuli_target_circletriangles.svg	9	yes	57	0	263
6.6.1	win	2022-12-15	05:22:26	05:31:00	511884	57ff0e138f420f00011a5d0e	986620013	1	main_z	11	main_z	129	stimuli_distractor_trianglediamonds.svg	stimuli_target_diamondcircles.svg	27	yes	44	1	243
6.6.1	win	2022-12-15	05:22:26	05:31:00	511884	57ff0e138f420f00011a5d0e	986620013	1	main_z	11	advance_on_keypress_ZEE	130	stimuli_distractor_trianglediamonds.svg	stimuli_target_diamondcircles.svg	27	yes	57	0	350
6.6.1	win	2022-12-15	05:22:26	05:31:03	514876	57ff0e138f420f00011a5d0e	986620013	1	main_z	11	main_z	131	stimuli_distractor_trianglediamonds.svg	stimuli_distractor_diamondtriangles.svg	36	no	0	1	2000
6.6.1	win	2022-12-15	05:22:26	05:31:03	514876	57ff0e138f420f00011a5d0e	986620013	1	main_z	11	advance_on_keypress_ZEE	132	stimuli_distractor_trianglediamonds.svg	stimuli_distractor_diamondtriangles.svg	36	no	57	0	414
6.6.1	win	2022-12-15	05:22:26	05:31:04	516313	57ff0e138f420f00011a5d0e	986620013	1	main_z	11	main_z	133	stimuli_distractor_diamondtriangles.svg	stimuli_target_squarediamonds.svg	16	yes	44	1	387
6.6.1	win	2022-12-15	05:22:26	05:31:04	516313	57ff0e138f420f00011a5d0e	986620013	1	main_z	11	advance_on_keypress_ZEE	134	stimuli_distractor_diamondtriangles.svg	stimuli_target_squarediamonds.svg	16	yes	57	0	316
6.6.1	win	2022-12-15	05:22:26	05:31:05	517629	57ff0e138f420f00011a5d0e	986620013	1	main_z	11	main_z	135	stimuli_distractor_trianglediamonds.svg	stimuli_target_squarediamonds.svg	12	yes	44	1	340
6.6.1	win	2022-12-15	05:22:26	05:31:05	517629	57ff0e138f420f00011a5d0e	986620013	1	main_z	11	advance_on_keypress_ZEE	136	stimuli_distractor_trianglediamonds.svg	stimuli_target_squarediamonds.svg	12	yes	57	0	294
6.6.1	win	2022-12-15	05:22:26	05:31:07	518968	57ff0e138f420f00011a5d0e	986620013	1	main_z	11	main_z	137	stimuli_target_diamondsquares.svg	stimuli_distractor_diamondtriangles.svg	24	yes	44	1	397
6.6.1	win	2022-12-15	05:22:26	05:31:07	518968	57ff0e138f420f00011a5d0e	986620013	1	main_z	11	advance_on_keypress_ZEE	138	stimuli_target_diamondsquares.svg	stimuli_distractor_diamondtriangles.svg	24	yes	57	0	310
6.6.1	win	2022-12-15	05:22:26	05:31:08	520261	57ff0e138f420f00011a5d0e	986620013	1	main_z	11	main_z	139	stimuli_distractor_diamondtriangles.svg	stimuli_target_squaretriangles.svg	15	yes	44	1	336
6.6.1	win	2022-12-15	05:22:26	05:31:08	520261	57ff0e138f420f00011a5d0e	986620013	1	main_z	11	advance_on_keypress_ZEE	140	stimuli_distractor_diamondtriangles.svg	stimuli_target_squaretriangles.svg	15	yes	57	0	301
6.6.1	win	2022-12-15	05:22:26	05:31:09	521504	57ff0e138f420f00011a5d0e	986620013	1	main_z	11	main_z	141	stimuli_distractor_diamondtriangles.svg	stimuli_target_diamondsquares.svg	32	yes	44	1	306
6.6.1	win	2022-12-15	05:22:26	05:31:09	521504	57ff0e138f420f00011a5d0e	986620013	1	main_z	11	advance_on_keypress_ZEE	142	stimuli_distractor_diamondtriangles.svg	stimuli_target_diamondsquares.svg	32	yes	57	0	311
6.6.1	win	2022-12-15	05:22:26	05:31:11	522837	57ff0e138f420f00011a5d0e	986620013	1	main_z	11	main_z	143	stimuli_target_circlediamonds.svg	stimuli_distractor_trianglediamonds.svg	2	yes	44	1	385
6.6.1	win	2022-12-15	05:22:26	05:31:11	522837	57ff0e138f420f00011a5d0e	986620013	1	main_z	11	advance_on_keypress_ZEE	144	stimuli_target_circlediamonds.svg	stimuli_distractor_trianglediamonds.svg	2	yes	57	0	284
6.6.1	win	2022-12-15	05:22:26	05:31:12	524158	57ff0e138f420f00011a5d0e	986620013	1	main_z	11	main_z	145	stimuli_distractor_trianglediamonds.svg	stimuli_distractor_trianglediamonds.svg	33	no	44	0	386
6.6.1	win	2022-12-15	05:22:26	05:31:12	524158	57ff0e138f420f00011a5d0e	986620013	1	main_z	11	advance_on_keypress_ZEE	146	stimuli_distractor_trianglediamonds.svg	stimuli_distractor_trianglediamonds.svg	33	no	57	0	339
6.6.1	win	2022-12-15	05:22:26	05:31:15	527149	57ff0e138f420f00011a5d0e	986620013	1	main_z	11	main_z	147	stimuli_distractor_diamondtriangles.svg	stimuli_distractor_diamondtriangles.svg	39	no	0	1	2000
6.6.1	win	2022-12-15	05:22:26	05:31:15	527149	57ff0e138f420f00011a5d0e	986620013	1	main_z	11	advance_on_keypress_ZEE	148	stimuli_distractor_diamondtriangles.svg	stimuli_distractor_diamondtriangles.svg	39	no	57	0	468
6.6.1	win	2022-12-15	05:22:26	05:31:16	528609	57ff0e138f420f00011a5d0e	986620013	1	main_z	11	main_z	149	stimuli_distractor_diamondtriangles.svg	stimuli_target_trianglesquares.svg	30	yes	44	1	363
6.6.1	win	2022-12-15	05:22:26	05:31:16	528609	57ff0e138f420f00011a5d0e	986620013	1	main_z	11	advance_on_keypress_ZEE	150	stimuli_distractor_diamondtriangles.svg	stimuli_target_trianglesquares.svg	30	yes	57	0	363
6.6.1	win	2022-12-15	05:22:26	05:31:19	531626	57ff0e138f420f00011a5d0e	986620013	1	main_z	11	main_z	151	stimuli_distractor_diamondtriangles.svg	stimuli_distractor_diamondtriangles.svg	40	no	0	1	2000
6.6.1	win	2022-12-15	05:22:26	05:31:19	531626	57ff0e138f420f00011a5d0e	986620013	1	main_z	11	advance_on_keypress_ZEE	152	stimuli_distractor_diamondtriangles.svg	stimuli_distractor_diamondtriangles.svg	40	no	57	0	549
6.6.1	win	2022-12-15	05:22:26	05:31:21	533410	57ff0e138f420f00011a5d0e	986620013	1	main_z	11	main_z	153	stimuli_target_circletriangles.svg	stimuli_distractor_diamondtriangles.svg	5	yes	44	1	599
6.6.1	win	2022-12-15	05:22:26	05:31:21	533410	57ff0e138f420f00011a5d0e	986620013	1	main_z	11	advance_on_keypress_ZEE	154	stimuli_target_circletriangles.svg	stimuli_distractor_diamondtriangles.svg	5	yes	57	0	374
6.6.1	win	2022-12-15	05:22:26	05:31:23	535031	57ff0e138f420f00011a5d0e	986620013	1	main_z	11	main_z	155	stimuli_distractor_trianglediamonds.svg	stimuli_target_trianglecircles.svg	25	yes	44	1	598
6.6.1	win	2022-12-15	05:22:26	05:31:23	535031	57ff0e138f420f00011a5d0e	986620013	1	main_z	11	advance_on_keypress_ZEE	156	stimuli_distractor_trianglediamonds.svg	stimuli_target_trianglecircles.svg	25	yes	57	0	322
6.6.1	win	2022-12-15	05:22:26	05:31:24	536442	57ff0e138f420f00011a5d0e	986620013	1	main_z	11	main_z	157	stimuli_target_diamondcircles.svg	stimuli_distractor_diamondtriangles.svg	23	yes	44	1	451
6.6.1	win	2022-12-15	05:22:26	05:31:24	536442	57ff0e138f420f00011a5d0e	986620013	1	main_z	11	advance_on_keypress_ZEE	158	stimuli_target_diamondcircles.svg	stimuli_distractor_diamondtriangles.svg	23	yes	57	0	272
6.6.1	win	2022-12-15	05:22:26	05:31:26	537896	57ff0e138f420f00011a5d0e	986620013	1	main_z	11	main_z	159	stimuli_distractor_trianglediamonds.svg	stimuli_target_trianglesquares.svg	26	yes	44	1	527
6.6.1	win	2022-12-15	05:22:26	05:31:26	537896	57ff0e138f420f00011a5d0e	986620013	1	main_z	11	advance_on_keypress_ZEE	160	stimuli_distractor_trianglediamonds.svg	stimuli_target_trianglesquares.svg	26	yes	57	0	281