build	computer.platform	date	time	timestamp	time_elapsed_ms	subject	group	session	blockcode	blocknum	trialcode	trialnum	stimulus_left	stimulus_right	stim_index	target_present	response	correct	latency
6.6.1	win	2022-12-15	09:27:10	09:31:11	238348	61729e07e7b9b645c1741ca9	297235635	1	practice_slash	5	practice_slash	1	stimuli_distractor_diamondtriangles.svg	stimuli_target_diamondcircles.svg	8	yes	53	1	1156
6.6.1	win	2022-12-15	09:27:10	09:31:11	238348	61729e07e7b9b645c1741ca9	297235635	1	practice_slash	5	advance_on_keypress_SLASH	2	stimuli_distractor_diamondtriangles.svg	stimuli_target_diamondcircles.svg	8	yes	57	0	909
6.6.1	win	2022-12-15	09:27:10	09:31:15	242195	61729e07e7b9b645c1741ca9	297235635	1	practice_slash	5	practice_slash	3	stimuli_distractor_diamondtriangles.svg	stimuli_target_trianglecircles.svg	9	yes	53	1	1304
6.6.1	win	2022-12-15	09:27:10	09:31:15	242195	61729e07e7b9b645c1741ca9	297235635	1	practice_slash	5	advance_on_keypress_SLASH	4	stimuli_distractor_diamondtriangles.svg	stimuli_target_trianglecircles.svg	9	yes	57	0	1251
6.6.1	win	2022-12-15	09:27:10	09:31:19	245971	61729e07e7b9b645c1741ca9	297235635	1	practice_slash	5	practice_slash	5	stimuli_target_circlediamonds.svg	stimuli_distractor_diamondtriangles.svg	1	yes	53	1	880
6.6.1	win	2022-12-15	09:27:10	09:31:19	245971	61729e07e7b9b645c1741ca9	297235635	1	practice_slash	5	advance_on_keypress_SLASH	6	stimuli_target_circlediamonds.svg	stimuli_distractor_diamondtriangles.svg	1	yes	57	0	2436
6.6.1	win	2022-12-15	09:27:10	09:31:25	252058	61729e07e7b9b645c1741ca9	297235635	1	practice_slash	5	practice_slash	7	stimuli_distractor_trianglediamonds.svg	stimuli_distractor_diamondtriangles.svg	16	no	0	1	2000
6.6.1	win	2022-12-15	09:27:10	09:31:25	252058	61729e07e7b9b645c1741ca9	297235635	1	practice_slash	5	advance_on_keypress_SLASH	8	stimuli_distractor_trianglediamonds.svg	stimuli_distractor_diamondtriangles.svg	16	no	57	0	585
6.6.1	win	2022-12-15	09:27:10	09:31:28	255307	61729e07e7b9b645c1741ca9	297235635	1	practice_slash	5	practice_slash	9	stimuli_distractor_trianglediamonds.svg	stimuli_target_circlediamonds.svg	10	yes	53	1	1016
6.6.1	win	2022-12-15	09:27:10	09:31:28	255307	61729e07e7b9b645c1741ca9	297235635	1	practice_slash	5	advance_on_keypress_SLASH	10	stimuli_distractor_trianglediamonds.svg	stimuli_target_circlediamonds.svg	10	yes	57	0	599
6.6.1	win	2022-12-15	09:27:10	09:31:31	258507	61729e07e7b9b645c1741ca9	297235635	1	practice_slash	5	practice_slash	11	stimuli_target_squarediamonds.svg	stimuli_distractor_diamondtriangles.svg	2	yes	53	1	950
6.6.1	win	2022-12-15	09:27:10	09:31:31	258507	61729e07e7b9b645c1741ca9	297235635	1	practice_slash	5	advance_on_keypress_SLASH	12	stimuli_target_squarediamonds.svg	stimuli_distractor_diamondtriangles.svg	2	yes	57	0	735
6.6.1	win	2022-12-15	09:27:10	09:31:36	262891	61729e07e7b9b645c1741ca9	297235635	1	practice_slash	5	practice_slash	13	stimuli_target_diamondsquares.svg	stimuli_distractor_diamondtriangles.svg	3	yes	0	0	2000
6.6.1	win	2022-12-15	09:27:10	09:31:36	262891	61729e07e7b9b645c1741ca9	297235635	1	practice_slash	5	advance_on_keypress_SLASH	14	stimuli_target_diamondsquares.svg	stimuli_distractor_diamondtriangles.svg	3	yes	57	0	568
6.6.1	win	2022-12-15	09:27:10	09:31:39	266396	61729e07e7b9b645c1741ca9	297235635	1	practice_slash	5	practice_slash	15	stimuli_target_diamondsquares.svg	stimuli_distractor_trianglediamonds.svg	6	yes	53	1	1288
6.6.1	win	2022-12-15	09:27:10	09:31:39	266396	61729e07e7b9b645c1741ca9	297235635	1	practice_slash	5	advance_on_keypress_SLASH	16	stimuli_target_diamondsquares.svg	stimuli_distractor_trianglediamonds.svg	6	yes	57	0	495
6.6.1	win	2022-12-15	09:27:10	09:31:43	270524	61729e07e7b9b645c1741ca9	297235635	1	practice_slash	5	practice_slash	17	stimuli_distractor_trianglediamonds.svg	stimuli_distractor_trianglediamonds.svg	15	no	0	1	2000
6.6.1	win	2022-12-15	09:27:10	09:31:43	270524	61729e07e7b9b645c1741ca9	297235635	1	practice_slash	5	advance_on_keypress_SLASH	18	stimuli_distractor_trianglediamonds.svg	stimuli_distractor_trianglediamonds.svg	15	no	57	0	535
6.6.1	win	2022-12-15	09:27:10	09:31:48	274708	61729e07e7b9b645c1741ca9	297235635	1	practice_slash	5	practice_slash	19	stimuli_distractor_diamondtriangles.svg	stimuli_distractor_trianglediamonds.svg	14	no	0	1	2000
6.6.1	win	2022-12-15	09:27:10	09:31:48	274708	61729e07e7b9b645c1741ca9	297235635	1	practice_slash	5	advance_on_keypress_SLASH	20	stimuli_distractor_diamondtriangles.svg	stimuli_distractor_trianglediamonds.svg	14	no	57	0	543
6.6.1	win	2022-12-15	09:27:10	09:31:51	277965	61729e07e7b9b645c1741ca9	297235635	1	practice_slash	5	practice_slash	21	stimuli_target_squarediamonds.svg	stimuli_distractor_trianglediamonds.svg	5	yes	53	1	1075
6.6.1	win	2022-12-15	09:27:10	09:31:51	277965	61729e07e7b9b645c1741ca9	297235635	1	practice_slash	5	advance_on_keypress_SLASH	22	stimuli_target_squarediamonds.svg	stimuli_distractor_trianglediamonds.svg	5	yes	57	0	565
6.6.1	win	2022-12-15	09:27:10	09:31:54	281173	61729e07e7b9b645c1741ca9	297235635	1	practice_slash	5	practice_slash	23	stimuli_distractor_trianglediamonds.svg	stimuli_target_squarediamonds.svg	11	yes	53	1	999
6.6.1	win	2022-12-15	09:27:10	09:31:54	281173	61729e07e7b9b645c1741ca9	297235635	1	practice_slash	5	advance_on_keypress_SLASH	24	stimuli_distractor_trianglediamonds.svg	stimuli_target_squarediamonds.svg	11	yes	57	0	574
6.6.1	win	2022-12-15	09:27:10	09:31:58	285391	61729e07e7b9b645c1741ca9	297235635	1	practice_slash	5	practice_slash	25	stimuli_distractor_diamondtriangles.svg	stimuli_distractor_diamondtriangles.svg	13	no	0	1	2000
6.6.1	win	2022-12-15	09:27:10	09:31:58	285391	61729e07e7b9b645c1741ca9	297235635	1	practice_slash	5	advance_on_keypress_SLASH	26	stimuli_distractor_diamondtriangles.svg	stimuli_distractor_diamondtriangles.svg	13	no	57	0	580
6.6.1	win	2022-12-15	09:27:10	09:32:02	288859	61729e07e7b9b645c1741ca9	297235635	1	practice_slash	5	practice_slash	27	stimuli_distractor_diamondtriangles.svg	stimuli_target_circletriangles.svg	7	yes	53	1	1235
6.6.1	win	2022-12-15	09:27:10	09:32:02	288859	61729e07e7b9b645c1741ca9	297235635	1	practice_slash	5	advance_on_keypress_SLASH	28	stimuli_distractor_diamondtriangles.svg	stimuli_target_circletriangles.svg	7	yes	57	0	99
6.6.1	win	2022-12-15	09:27:10	09:32:06	292607	61729e07e7b9b645c1741ca9	297235635	1	practice_slash	5	practice_slash	29	stimuli_distractor_trianglediamonds.svg	stimuli_target_diamondcircles.svg	12	yes	0	0	2000
6.6.1	win	2022-12-15	09:27:10	09:32:06	292607	61729e07e7b9b645c1741ca9	297235635	1	practice_slash	5	advance_on_keypress_SLASH	30	stimuli_distractor_trianglediamonds.svg	stimuli_target_diamondcircles.svg	12	yes	57	0	564
6.6.1	win	2022-12-15	09:27:10	09:32:09	295811	61729e07e7b9b645c1741ca9	297235635	1	practice_slash	5	practice_slash	31	stimuli_target_circlediamonds.svg	stimuli_distractor_trianglediamonds.svg	4	yes	53	1	987
6.6.1	win	2022-12-15	09:27:10	09:32:09	295811	61729e07e7b9b645c1741ca9	297235635	1	practice_slash	5	advance_on_keypress_SLASH	32	stimuli_target_circlediamonds.svg	stimuli_distractor_trianglediamonds.svg	4	yes	57	0	628
6.6.1	win	2022-12-15	09:27:10	09:32:17	304507	61729e07e7b9b645c1741ca9	297235635	1	main_slash	7	main_slash	1	stimuli_distractor_diamondtriangles.svg	stimuli_distractor_trianglediamonds.svg	38	no	0	1	2000
6.6.1	win	2022-12-15	09:27:10	09:32:17	304507	61729e07e7b9b645c1741ca9	297235635	1	main_slash	7	advance_on_keypress_SLASH	2	stimuli_distractor_diamondtriangles.svg	stimuli_distractor_trianglediamonds.svg	38	no	57	0	576
6.6.1	win	2022-12-15	09:27:10	09:32:19	306564	61729e07e7b9b645c1741ca9	297235635	1	main_slash	7	main_slash	3	stimuli_distractor_diamondtriangles.svg	stimuli_target_circletriangles.svg	13	yes	53	1	841
6.6.1	win	2022-12-15	09:27:10	09:32:19	306564	61729e07e7b9b645c1741ca9	297235635	1	main_slash	7	advance_on_keypress_SLASH	4	stimuli_distractor_diamondtriangles.svg	stimuli_target_circletriangles.svg	13	yes	57	0	654
6.6.1	win	2022-12-15	09:27:10	09:32:22	308867	61729e07e7b9b645c1741ca9	297235635	1	main_slash	7	main_slash	5	stimuli_distractor_diamondtriangles.svg	stimuli_target_squaretriangles.svg	15	yes	53	1	1010
6.6.1	win	2022-12-15	09:27:10	09:32:22	308867	61729e07e7b9b645c1741ca9	297235635	1	main_slash	7	advance_on_keypress_SLASH	6	stimuli_distractor_diamondtriangles.svg	stimuli_target_squaretriangles.svg	15	yes	57	0	537
6.6.1	win	2022-12-15	09:27:10	09:32:24	311406	61729e07e7b9b645c1741ca9	297235635	1	main_slash	7	main_slash	7	stimuli_distractor_trianglediamonds.svg	stimuli_target_diamondsquares.svg	28	yes	53	1	1349
6.6.1	win	2022-12-15	09:27:10	09:32:24	311406	61729e07e7b9b645c1741ca9	297235635	1	main_slash	7	advance_on_keypress_SLASH	8	stimuli_distractor_trianglediamonds.svg	stimuli_target_diamondsquares.svg	28	yes	57	0	580
6.6.1	win	2022-12-15	09:27:10	09:32:28	314624	61729e07e7b9b645c1741ca9	297235635	1	main_slash	7	main_slash	9	stimuli_target_trianglesquares.svg	stimuli_distractor_diamondtriangles.svg	22	yes	0	0	2000
6.6.1	win	2022-12-15	09:27:10	09:32:28	314624	61729e07e7b9b645c1741ca9	297235635	1	main_slash	7	advance_on_keypress_SLASH	10	stimuli_target_trianglesquares.svg	stimuli_distractor_diamondtriangles.svg	22	yes	57	0	443
6.6.1	win	2022-12-15	09:27:10	09:32:31	317707	61729e07e7b9b645c1741ca9	297235635	1	main_slash	7	main_slash	11	stimuli_distractor_trianglediamonds.svg	stimuli_target_diamondcircles.svg	27	yes	0	0	2000
6.6.1	win	2022-12-15	09:27:10	09:32:31	317707	61729e07e7b9b645c1741ca9	297235635	1	main_slash	7	advance_on_keypress_SLASH	12	stimuli_distractor_trianglediamonds.svg	stimuli_target_diamondcircles.svg	27	yes	57	0	472
6.6.1	win	2022-12-15	09:27:10	09:32:33	320043	61729e07e7b9b645c1741ca9	297235635	1	main_slash	7	main_slash	13	stimuli_distractor_diamondtriangles.svg	stimuli_target_circlediamonds.svg	14	yes	53	1	1220
6.6.1	win	2022-12-15	09:27:10	09:32:33	320043	61729e07e7b9b645c1741ca9	297235635	1	main_slash	7	advance_on_keypress_SLASH	14	stimuli_distractor_diamondtriangles.svg	stimuli_target_circlediamonds.svg	14	yes	57	0	515
6.6.1	win	2022-12-15	09:27:10	09:32:36	323190	61729e07e7b9b645c1741ca9	297235635	1	main_slash	7	main_slash	15	stimuli_distractor_diamondtriangles.svg	stimuli_target_diamondcircles.svg	31	yes	0	0	2000
6.6.1	win	2022-12-15	09:27:10	09:32:36	323190	61729e07e7b9b645c1741ca9	297235635	1	main_slash	7	advance_on_keypress_SLASH	16	stimuli_distractor_diamondtriangles.svg	stimuli_target_diamondcircles.svg	31	yes	57	0	364
6.6.1	win	2022-12-15	09:27:10	09:32:39	326190	61729e07e7b9b645c1741ca9	297235635	1	main_slash	7	main_slash	17	stimuli_distractor_diamondtriangles.svg	stimuli_target_trianglesquares.svg	30	yes	0	0	2000
6.6.1	win	2022-12-15	09:27:10	09:32:39	326190	61729e07e7b9b645c1741ca9	297235635	1	main_slash	7	advance_on_keypress_SLASH	18	stimuli_distractor_diamondtriangles.svg	stimuli_target_trianglesquares.svg	30	yes	57	0	518
6.6.1	win	2022-12-15	09:27:10	09:32:41	328558	61729e07e7b9b645c1741ca9	297235635	1	main_slash	7	main_slash	19	stimuli_target_circletriangles.svg	stimuli_distractor_diamondtriangles.svg	5	yes	53	1	1202
6.6.1	win	2022-12-15	09:27:10	09:32:41	328558	61729e07e7b9b645c1741ca9	297235635	1	main_slash	7	advance_on_keypress_SLASH	20	stimuli_target_circletriangles.svg	stimuli_distractor_diamondtriangles.svg	5	yes	57	0	966
6.6.1	win	2022-12-15	09:27:10	09:32:44	331555	61729e07e7b9b645c1741ca9	297235635	1	main_slash	7	main_slash	21	stimuli_distractor_trianglediamonds.svg	stimuli_target_squarediamonds.svg	12	yes	53	1	1382
6.6.1	win	2022-12-15	09:27:10	09:32:44	331555	61729e07e7b9b645c1741ca9	297235635	1	main_slash	7	advance_on_keypress_SLASH	22	stimuli_distractor_trianglediamonds.svg	stimuli_target_squarediamonds.svg	12	yes	57	0	832
6.6.1	win	2022-12-15	09:27:10	09:32:48	335040	61729e07e7b9b645c1741ca9	297235635	1	main_slash	7	main_slash	23	stimuli_distractor_diamondtriangles.svg	stimuli_distractor_trianglediamonds.svg	37	no	0	1	2000
6.6.1	win	2022-12-15	09:27:10	09:32:48	335040	61729e07e7b9b645c1741ca9	297235635	1	main_slash	7	advance_on_keypress_SLASH	24	stimuli_distractor_diamondtriangles.svg	stimuli_distractor_trianglediamonds.svg	37	no	57	0	515
6.6.1	win	2022-12-15	09:27:10	09:32:51	338206	61729e07e7b9b645c1741ca9	297235635	1	main_slash	7	main_slash	25	stimuli_target_trianglesquares.svg	stimuli_distractor_trianglediamonds.svg	18	yes	0	0	2000
6.6.1	win	2022-12-15	09:27:10	09:32:51	338206	61729e07e7b9b645c1741ca9	297235635	1	main_slash	7	advance_on_keypress_SLASH	26	stimuli_target_trianglesquares.svg	stimuli_distractor_trianglediamonds.svg	18	yes	57	0	500
6.6.1	win	2022-12-15	09:27:10	09:32:54	341356	61729e07e7b9b645c1741ca9	297235635	1	main_slash	7	main_slash	27	stimuli_distractor_diamondtriangles.svg	stimuli_target_diamondsquares.svg	32	yes	0	0	2000
6.6.1	win	2022-12-15	09:27:10	09:32:54	341356	61729e07e7b9b645c1741ca9	297235635	1	main_slash	7	advance_on_keypress_SLASH	28	stimuli_distractor_diamondtriangles.svg	stimuli_target_diamondsquares.svg	32	yes	57	0	614
6.6.1	win	2022-12-15	09:27:10	09:32:57	343853	61729e07e7b9b645c1741ca9	297235635	1	main_slash	7	main_slash	29	stimuli_target_squarediamonds.svg	stimuli_distractor_diamondtriangles.svg	8	yes	53	1	1247
6.6.1	win	2022-12-15	09:27:10	09:32:57	343853	61729e07e7b9b645c1741ca9	297235635	1	main_slash	7	advance_on_keypress_SLASH	30	stimuli_target_squarediamonds.svg	stimuli_distractor_diamondtriangles.svg	8	yes	57	0	787
6.6.1	win	2022-12-15	09:27:10	09:33:00	347290	61729e07e7b9b645c1741ca9	297235635	1	main_slash	7	main_slash	31	stimuli_distractor_trianglediamonds.svg	stimuli_distractor_diamondtriangles.svg	35	no	0	1	2000
6.6.1	win	2022-12-15	09:27:10	09:33:00	347290	61729e07e7b9b645c1741ca9	297235635	1	main_slash	7	advance_on_keypress_SLASH	32	stimuli_distractor_trianglediamonds.svg	stimuli_distractor_diamondtriangles.svg	35	no	57	0	570
6.6.1	win	2022-12-15	09:27:10	09:33:03	350506	61729e07e7b9b645c1741ca9	297235635	1	main_slash	7	main_slash	33	stimuli_distractor_diamondtriangles.svg	stimuli_distractor_diamondtriangles.svg	40	no	0	1	2000
6.6.1	win	2022-12-15	09:27:10	09:33:03	350506	61729e07e7b9b645c1741ca9	297235635	1	main_slash	7	advance_on_keypress_SLASH	34	stimuli_distractor_diamondtriangles.svg	stimuli_distractor_diamondtriangles.svg	40	no	57	0	680
6.6.1	win	2022-12-15	09:27:10	09:33:07	353823	61729e07e7b9b645c1741ca9	297235635	1	main_slash	7	main_slash	35	stimuli_distractor_trianglediamonds.svg	stimuli_distractor_trianglediamonds.svg	34	no	0	1	2000
6.6.1	win	2022-12-15	09:27:10	09:33:07	353823	61729e07e7b9b645c1741ca9	297235635	1	main_slash	7	advance_on_keypress_SLASH	36	stimuli_distractor_trianglediamonds.svg	stimuli_distractor_trianglediamonds.svg	34	no	57	0	532
6.6.1	win	2022-12-15	09:27:10	09:33:10	356989	61729e07e7b9b645c1741ca9	297235635	1	main_slash	7	main_slash	37	stimuli_target_trianglecircles.svg	stimuli_distractor_diamondtriangles.svg	21	yes	0	0	2000
6.6.1	win	2022-12-15	09:27:10	09:33:10	356989	61729e07e7b9b645c1741ca9	297235635	1	main_slash	7	advance_on_keypress_SLASH	38	stimuli_target_trianglecircles.svg	stimuli_distractor_diamondtriangles.svg	21	yes	57	0	558
6.6.1	win	2022-12-15	09:27:10	09:33:13	360190	61729e07e7b9b645c1741ca9	297235635	1	main_slash	7	main_slash	39	stimuli_target_diamondsquares.svg	stimuli_distractor_trianglediamonds.svg	20	yes	0	0	2000
6.6.1	win	2022-12-15	09:27:10	09:33:13	360190	61729e07e7b9b645c1741ca9	297235635	1	main_slash	7	advance_on_keypress_SLASH	40	stimuli_target_diamondsquares.svg	stimuli_distractor_trianglediamonds.svg	20	yes	57	0	566
6.6.1	win	2022-12-15	09:27:10	09:33:15	362587	61729e07e7b9b645c1741ca9	297235635	1	main_slash	7	main_slash	41	stimuli_target_circlediamonds.svg	stimuli_distractor_trianglediamonds.svg	2	yes	53	1	1181
6.6.1	win	2022-12-15	09:27:10	09:33:15	362587	61729e07e7b9b645c1741ca9	297235635	1	main_slash	7	advance_on_keypress_SLASH	42	stimuli_target_circlediamonds.svg	stimuli_distractor_trianglediamonds.svg	2	yes	57	0	693
6.6.1	win	2022-12-15	09:27:10	09:33:18	365075	61729e07e7b9b645c1741ca9	297235635	1	main_slash	7	main_slash	43	stimuli_target_squaretriangles.svg	stimuli_distractor_diamondtriangles.svg	7	yes	53	1	1153
6.6.1	win	2022-12-15	09:27:10	09:33:18	365075	61729e07e7b9b645c1741ca9	297235635	1	main_slash	7	advance_on_keypress_SLASH	44	stimuli_target_squaretriangles.svg	stimuli_distractor_diamondtriangles.svg	7	yes	57	0	530
6.6.1	win	2022-12-15	09:27:10	09:33:21	368239	61729e07e7b9b645c1741ca9	297235635	1	main_slash	7	main_slash	45	stimuli_distractor_trianglediamonds.svg	stimuli_target_trianglesquares.svg	26	yes	0	0	2000
6.6.1	win	2022-12-15	09:27:10	09:33:21	368239	61729e07e7b9b645c1741ca9	297235635	1	main_slash	7	advance_on_keypress_SLASH	46	stimuli_distractor_trianglediamonds.svg	stimuli_target_trianglesquares.svg	26	yes	57	0	533
6.6.1	win	2022-12-15	09:27:10	09:33:23	370563	61729e07e7b9b645c1741ca9	297235635	1	main_slash	7	main_slash	47	stimuli_target_circletriangles.svg	stimuli_distractor_trianglediamonds.svg	1	yes	53	1	1141
6.6.1	win	2022-12-15	09:27:10	09:33:23	370563	61729e07e7b9b645c1741ca9	297235635	1	main_slash	7	advance_on_keypress_SLASH	48	stimuli_target_circletriangles.svg	stimuli_distractor_trianglediamonds.svg	1	yes	57	0	519
6.6.1	win	2022-12-15	09:27:10	09:33:27	373723	61729e07e7b9b645c1741ca9	297235635	1	main_slash	7	main_slash	49	stimuli_distractor_trianglediamonds.svg	stimuli_distractor_trianglediamonds.svg	33	no	0	1	2000
6.6.1	win	2022-12-15	09:27:10	09:33:27	373723	61729e07e7b9b645c1741ca9	297235635	1	main_slash	7	advance_on_keypress_SLASH	50	stimuli_distractor_trianglediamonds.svg	stimuli_distractor_trianglediamonds.svg	33	no	57	0	617
6.6.1	win	2022-12-15	09:27:10	09:33:29	376109	61729e07e7b9b645c1741ca9	297235635	1	main_slash	7	main_slash	51	stimuli_target_circlediamonds.svg	stimuli_distractor_diamondtriangles.svg	6	yes	53	1	1120
6.6.1	win	2022-12-15	09:27:10	09:33:29	376109	61729e07e7b9b645c1741ca9	297235635	1	main_slash	7	advance_on_keypress_SLASH	52	stimuli_target_circlediamonds.svg	stimuli_distractor_diamondtriangles.svg	6	yes	57	0	553
6.6.1	win	2022-12-15	09:27:10	09:33:32	379306	61729e07e7b9b645c1741ca9	297235635	1	main_slash	7	main_slash	53	stimuli_distractor_diamondtriangles.svg	stimuli_distractor_diamondtriangles.svg	39	no	0	1	2000
6.6.1	win	2022-12-15	09:27:10	09:33:32	379306	61729e07e7b9b645c1741ca9	297235635	1	main_slash	7	advance_on_keypress_SLASH	54	stimuli_distractor_diamondtriangles.svg	stimuli_distractor_diamondtriangles.svg	39	no	57	0	505
6.6.1	win	2022-12-15	09:27:10	09:33:35	382456	61729e07e7b9b645c1741ca9	297235635	1	main_slash	7	main_slash	55	stimuli_target_diamondcircles.svg	stimuli_distractor_trianglediamonds.svg	19	yes	0	0	2000
6.6.1	win	2022-12-15	09:27:10	09:33:35	382456	61729e07e7b9b645c1741ca9	297235635	1	main_slash	7	advance_on_keypress_SLASH	56	stimuli_target_diamondcircles.svg	stimuli_distractor_trianglediamonds.svg	19	yes	57	0	484
6.6.1	win	2022-12-15	09:27:10	09:33:38	384827	61729e07e7b9b645c1741ca9	297235635	1	main_slash	7	main_slash	57	stimuli_target_squaretriangles.svg	stimuli_distractor_trianglediamonds.svg	3	yes	53	1	1238
6.6.1	win	2022-12-15	09:27:10	09:33:38	384827	61729e07e7b9b645c1741ca9	297235635	1	main_slash	7	advance_on_keypress_SLASH	58	stimuli_target_squaretriangles.svg	stimuli_distractor_trianglediamonds.svg	3	yes	57	0	532
6.6.1	win	2022-12-15	09:27:10	09:33:40	387347	61729e07e7b9b645c1741ca9	297235635	1	main_slash	7	main_slash	59	stimuli_distractor_diamondtriangles.svg	stimuli_target_squarediamonds.svg	16	yes	53	1	1341
6.6.1	win	2022-12-15	09:27:10	09:33:40	387347	61729e07e7b9b645c1741ca9	297235635	1	main_slash	7	advance_on_keypress_SLASH	60	stimuli_distractor_diamondtriangles.svg	stimuli_target_squarediamonds.svg	16	yes	57	0	496
6.6.1	win	2022-12-15	09:27:10	09:33:43	390472	61729e07e7b9b645c1741ca9	297235635	1	main_slash	7	main_slash	61	stimuli_distractor_trianglediamonds.svg	stimuli_target_trianglecircles.svg	25	yes	0	0	2000
6.6.1	win	2022-12-15	09:27:10	09:33:43	390472	61729e07e7b9b645c1741ca9	297235635	1	main_slash	7	advance_on_keypress_SLASH	62	stimuli_distractor_trianglediamonds.svg	stimuli_target_trianglecircles.svg	25	yes	57	0	474
6.6.1	win	2022-12-15	09:27:10	09:33:46	393589	61729e07e7b9b645c1741ca9	297235635	1	main_slash	7	main_slash	63	stimuli_target_trianglecircles.svg	stimuli_distractor_trianglediamonds.svg	17	yes	0	0	2000
6.6.1	win	2022-12-15	09:27:10	09:33:46	393589	61729e07e7b9b645c1741ca9	297235635	1	main_slash	7	advance_on_keypress_SLASH	64	stimuli_target_trianglecircles.svg	stimuli_distractor_trianglediamonds.svg	17	yes	57	0	326
6.6.1	win	2022-12-15	09:27:10	09:33:49	395740	61729e07e7b9b645c1741ca9	297235635	1	main_slash	7	main_slash	65	stimuli_distractor_trianglediamonds.svg	stimuli_target_circletriangles.svg	9	yes	53	1	1184
6.6.1	win	2022-12-15	09:27:10	09:33:49	395740	61729e07e7b9b645c1741ca9	297235635	1	main_slash	7	advance_on_keypress_SLASH	66	stimuli_distractor_trianglediamonds.svg	stimuli_target_circletriangles.svg	9	yes	57	0	521
6.6.1	win	2022-12-15	09:27:10	09:33:52	398906	61729e07e7b9b645c1741ca9	297235635	1	main_slash	7	main_slash	67	stimuli_target_diamondcircles.svg	stimuli_distractor_diamondtriangles.svg	23	yes	0	0	2000
6.6.1	win	2022-12-15	09:27:10	09:33:52	398906	61729e07e7b9b645c1741ca9	297235635	1	main_slash	7	advance_on_keypress_SLASH	68	stimuli_target_diamondcircles.svg	stimuli_distractor_diamondtriangles.svg	23	yes	57	0	585
6.6.1	win	2022-12-15	09:27:10	09:33:55	402139	61729e07e7b9b645c1741ca9	297235635	1	main_slash	7	main_slash	69	stimuli_distractor_diamondtriangles.svg	stimuli_target_trianglecircles.svg	29	yes	0	0	2000
6.6.1	win	2022-12-15	09:27:10	09:33:55	402139	61729e07e7b9b645c1741ca9	297235635	1	main_slash	7	advance_on_keypress_SLASH	70	stimuli_distractor_diamondtriangles.svg	stimuli_target_trianglecircles.svg	29	yes	57	0	464
6.6.1	win	2022-12-15	09:27:10	09:33:58	405239	61729e07e7b9b645c1741ca9	297235635	1	main_slash	7	main_slash	71	stimuli_target_diamondsquares.svg	stimuli_distractor_diamondtriangles.svg	24	yes	0	0	2000
6.6.1	win	2022-12-15	09:27:10	09:33:58	405239	61729e07e7b9b645c1741ca9	297235635	1	main_slash	7	advance_on_keypress_SLASH	72	stimuli_target_diamondsquares.svg	stimuli_distractor_diamondtriangles.svg	24	yes	57	0	493
6.6.1	win	2022-12-15	09:27:10	09:34:01	408372	61729e07e7b9b645c1741ca9	297235635	1	main_slash	7	main_slash	73	stimuli_distractor_trianglediamonds.svg	stimuli_distractor_diamondtriangles.svg	36	no	0	1	2000
6.6.1	win	2022-12-15	09:27:10	09:34:01	408372	61729e07e7b9b645c1741ca9	297235635	1	main_slash	7	advance_on_keypress_SLASH	74	stimuli_distractor_trianglediamonds.svg	stimuli_distractor_diamondtriangles.svg	36	no	57	0	231
6.6.1	win	2022-12-15	09:27:10	09:34:04	410622	61729e07e7b9b645c1741ca9	297235635	1	main_slash	7	main_slash	75	stimuli_target_squarediamonds.svg	stimuli_distractor_trianglediamonds.svg	4	yes	53	1	1383
6.6.1	win	2022-12-15	09:27:10	09:34:04	410622	61729e07e7b9b645c1741ca9	297235635	1	main_slash	7	advance_on_keypress_SLASH	76	stimuli_target_squarediamonds.svg	stimuli_distractor_trianglediamonds.svg	4	yes	57	0	662
6.6.1	win	2022-12-15	09:27:10	09:34:07	413811	61729e07e7b9b645c1741ca9	297235635	1	main_slash	7	main_slash	77	stimuli_distractor_trianglediamonds.svg	stimuli_target_squaretriangles.svg	11	yes	53	1	1889
6.6.1	win	2022-12-15	09:27:10	09:34:07	413811	61729e07e7b9b645c1741ca9	297235635	1	main_slash	7	advance_on_keypress_SLASH	78	stimuli_distractor_trianglediamonds.svg	stimuli_target_squaretriangles.svg	11	yes	57	0	629
6.6.1	win	2022-12-15	09:27:10	09:34:10	416643	61729e07e7b9b645c1741ca9	297235635	1	main_slash	7	main_slash	79	stimuli_distractor_trianglediamonds.svg	stimuli_target_circlediamonds.svg	10	yes	53	1	1571
6.6.1	win	2022-12-15	09:27:10	09:34:10	416643	61729e07e7b9b645c1741ca9	297235635	1	main_slash	7	advance_on_keypress_SLASH	80	stimuli_distractor_trianglediamonds.svg	stimuli_target_circlediamonds.svg	10	yes	57	0	550
6.6.1	win	2022-12-15	09:27:10	09:34:13	419839	61729e07e7b9b645c1741ca9	297235635	1	main_slash	7	main_slash	81	stimuli_target_diamondcircles.svg	stimuli_distractor_diamondtriangles.svg	23	yes	0	0	2000
6.6.1	win	2022-12-15	09:27:10	09:34:13	419839	61729e07e7b9b645c1741ca9	297235635	1	main_slash	7	advance_on_keypress_SLASH	82	stimuli_target_diamondcircles.svg	stimuli_distractor_diamondtriangles.svg	23	yes	57	0	558
6.6.1	win	2022-12-15	09:27:10	09:34:15	422219	61729e07e7b9b645c1741ca9	297235635	1	main_slash	7	main_slash	83	stimuli_target_squarediamonds.svg	stimuli_distractor_diamondtriangles.svg	8	yes	53	1	1181
6.6.1	win	2022-12-15	09:27:10	09:34:15	422219	61729e07e7b9b645c1741ca9	297235635	1	main_slash	7	advance_on_keypress_SLASH	84	stimuli_target_squarediamonds.svg	stimuli_distractor_diamondtriangles.svg	8	yes	57	0	509
6.6.1	win	2022-12-15	09:27:10	09:34:18	425332	61729e07e7b9b645c1741ca9	297235635	1	main_slash	7	main_slash	85	stimuli_distractor_trianglediamonds.svg	stimuli_target_squarediamonds.svg	12	yes	53	1	1960
6.6.1	win	2022-12-15	09:27:10	09:34:18	425332	61729e07e7b9b645c1741ca9	297235635	1	main_slash	7	advance_on_keypress_SLASH	86	stimuli_distractor_trianglediamonds.svg	stimuli_target_squarediamonds.svg	12	yes	57	0	648
6.6.1	win	2022-12-15	09:27:10	09:34:22	428622	61729e07e7b9b645c1741ca9	297235635	1	main_slash	7	main_slash	87	stimuli_target_squaretriangles.svg	stimuli_distractor_trianglediamonds.svg	3	yes	0	0	2000
6.6.1	win	2022-12-15	09:27:10	09:34:22	428622	61729e07e7b9b645c1741ca9	297235635	1	main_slash	7	advance_on_keypress_SLASH	88	stimuli_target_squaretriangles.svg	stimuli_distractor_trianglediamonds.svg	3	yes	57	0	661
6.6.1	win	2022-12-15	09:27:10	09:34:25	431922	61729e07e7b9b645c1741ca9	297235635	1	main_slash	7	main_slash	89	stimuli_distractor_diamondtriangles.svg	stimuli_distractor_trianglediamonds.svg	37	no	0	1	2000
6.6.1	win	2022-12-15	09:27:10	09:34:25	431922	61729e07e7b9b645c1741ca9	297235635	1	main_slash	7	advance_on_keypress_SLASH	90	stimuli_distractor_diamondtriangles.svg	stimuli_distractor_trianglediamonds.svg	37	no	57	0	571
6.6.1	win	2022-12-15	09:27:10	09:34:28	435138	61729e07e7b9b645c1741ca9	297235635	1	main_slash	7	main_slash	91	stimuli_distractor_trianglediamonds.svg	stimuli_target_trianglesquares.svg	26	yes	0	0	2000
6.6.1	win	2022-12-15	09:27:10	09:34:28	435138	61729e07e7b9b645c1741ca9	297235635	1	main_slash	7	advance_on_keypress_SLASH	92	stimuli_distractor_trianglediamonds.svg	stimuli_target_trianglesquares.svg	26	yes	57	0	336
6.6.1	win	2022-12-15	09:27:10	09:34:31	438122	61729e07e7b9b645c1741ca9	297235635	1	main_slash	7	main_slash	93	stimuli_target_trianglecircles.svg	stimuli_distractor_trianglediamonds.svg	17	yes	0	0	2000
6.6.1	win	2022-12-15	09:27:10	09:34:31	438122	61729e07e7b9b645c1741ca9	297235635	1	main_slash	7	advance_on_keypress_SLASH	94	stimuli_target_trianglecircles.svg	stimuli_distractor_trianglediamonds.svg	17	yes	57	0	122
6.6.1	win	2022-12-15	09:27:10	09:34:33	440091	61729e07e7b9b645c1741ca9	297235635	1	main_slash	7	main_slash	95	stimuli_distractor_trianglediamonds.svg	stimuli_target_circlediamonds.svg	10	yes	53	1	1203
6.6.1	win	2022-12-15	09:27:10	09:34:33	440091	61729e07e7b9b645c1741ca9	297235635	1	main_slash	7	advance_on_keypress_SLASH	96	stimuli_distractor_trianglediamonds.svg	stimuli_target_circlediamonds.svg	10	yes	57	0	570
6.6.1	win	2022-12-15	09:27:10	09:34:36	442613	61729e07e7b9b645c1741ca9	297235635	1	main_slash	7	main_slash	97	stimuli_target_squaretriangles.svg	stimuli_distractor_diamondtriangles.svg	7	yes	53	1	1308
6.6.1	win	2022-12-15	09:27:10	09:34:36	442613	61729e07e7b9b645c1741ca9	297235635	1	main_slash	7	advance_on_keypress_SLASH	98	stimuli_target_squaretriangles.svg	stimuli_distractor_diamondtriangles.svg	7	yes	57	0	446
6.6.1	win	2022-12-15	09:27:10	09:34:39	445688	61729e07e7b9b645c1741ca9	297235635	1	main_slash	7	main_slash	99	stimuli_distractor_diamondtriangles.svg	stimuli_distractor_diamondtriangles.svg	39	no	0	1	2000
6.6.1	win	2022-12-15	09:27:10	09:34:39	445688	61729e07e7b9b645c1741ca9	297235635	1	main_slash	7	advance_on_keypress_SLASH	100	stimuli_distractor_diamondtriangles.svg	stimuli_distractor_diamondtriangles.svg	39	no	57	0	498
6.6.1	win	2022-12-15	09:27:10	09:34:42	448821	61729e07e7b9b645c1741ca9	297235635	1	main_slash	7	main_slash	101	stimuli_target_trianglecircles.svg	stimuli_distractor_diamondtriangles.svg	21	yes	0	0	2000
6.6.1	win	2022-12-15	09:27:10	09:34:42	448821	61729e07e7b9b645c1741ca9	297235635	1	main_slash	7	advance_on_keypress_SLASH	102	stimuli_target_trianglecircles.svg	stimuli_distractor_diamondtriangles.svg	21	yes	57	0	213
6.6.1	win	2022-12-15	09:27:10	09:34:45	451671	61729e07e7b9b645c1741ca9	297235635	1	main_slash	7	main_slash	103	stimuli_target_diamondcircles.svg	stimuli_distractor_trianglediamonds.svg	19	yes	0	0	2000
6.6.1	win	2022-12-15	09:27:10	09:34:45	451671	61729e07e7b9b645c1741ca9	297235635	1	main_slash	7	advance_on_keypress_SLASH	104	stimuli_target_diamondcircles.svg	stimuli_distractor_trianglediamonds.svg	19	yes	57	0	515
6.6.1	win	2022-12-15	09:27:10	09:34:48	454821	61729e07e7b9b645c1741ca9	297235635	1	main_slash	7	main_slash	105	stimuli_distractor_trianglediamonds.svg	stimuli_distractor_trianglediamonds.svg	33	no	0	1	2000
6.6.1	win	2022-12-15	09:27:10	09:34:48	454821	61729e07e7b9b645c1741ca9	297235635	1	main_slash	7	advance_on_keypress_SLASH	106	stimuli_distractor_trianglediamonds.svg	stimuli_distractor_trianglediamonds.svg	33	no	57	0	271
6.6.1	win	2022-12-15	09:27:10	09:34:51	457738	61729e07e7b9b645c1741ca9	297235635	1	main_slash	7	main_slash	107	stimuli_target_circletriangles.svg	stimuli_distractor_trianglediamonds.svg	1	yes	0	0	2000
6.6.1	win	2022-12-15	09:27:10	09:34:51	457738	61729e07e7b9b645c1741ca9	297235635	1	main_slash	7	advance_on_keypress_SLASH	108	stimuli_target_circletriangles.svg	stimuli_distractor_trianglediamonds.svg	1	yes	57	0	625
6.6.1	win	2022-12-15	09:27:10	09:34:54	461005	61729e07e7b9b645c1741ca9	297235635	1	main_slash	7	main_slash	109	stimuli_target_diamondsquares.svg	stimuli_distractor_trianglediamonds.svg	20	yes	0	0	2000
6.6.1	win	2022-12-15	09:27:10	09:34:54	461005	61729e07e7b9b645c1741ca9	297235635	1	main_slash	7	advance_on_keypress_SLASH	110	stimuli_target_diamondsquares.svg	stimuli_distractor_trianglediamonds.svg	20	yes	57	0	512
6.6.1	win	2022-12-15	09:27:10	09:34:57	464155	61729e07e7b9b645c1741ca9	297235635	1	main_slash	7	main_slash	111	stimuli_distractor_trianglediamonds.svg	stimuli_distractor_diamondtriangles.svg	36	no	0	1	2000
6.6.1	win	2022-12-15	09:27:10	09:34:57	464155	61729e07e7b9b645c1741ca9	297235635	1	main_slash	7	advance_on_keypress_SLASH	112	stimuli_distractor_trianglediamonds.svg	stimuli_distractor_diamondtriangles.svg	36	no	57	0	480
6.6.1	win	2022-12-15	09:27:10	09:35:00	467271	61729e07e7b9b645c1741ca9	297235635	1	main_slash	7	main_slash	113	stimuli_distractor_trianglediamonds.svg	stimuli_target_diamondsquares.svg	28	yes	0	0	2000
6.6.1	win	2022-12-15	09:27:10	09:35:00	467271	61729e07e7b9b645c1741ca9	297235635	1	main_slash	7	advance_on_keypress_SLASH	114	stimuli_distractor_trianglediamonds.svg	stimuli_target_diamondsquares.svg	28	yes	57	0	515
6.6.1	win	2022-12-15	09:27:10	09:35:02	469517	61729e07e7b9b645c1741ca9	297235635	1	main_slash	7	main_slash	115	stimuli_target_circlediamonds.svg	stimuli_distractor_diamondtriangles.svg	6	yes	53	1	1079
6.6.1	win	2022-12-15	09:27:10	09:35:02	469517	61729e07e7b9b645c1741ca9	297235635	1	main_slash	7	advance_on_keypress_SLASH	116	stimuli_target_circlediamonds.svg	stimuli_distractor_diamondtriangles.svg	6	yes	57	0	569
6.6.1	win	2022-12-15	09:27:10	09:35:06	472738	61729e07e7b9b645c1741ca9	297235635	1	main_slash	7	main_slash	117	stimuli_distractor_diamondtriangles.svg	stimuli_distractor_trianglediamonds.svg	38	no	0	1	2000
6.6.1	win	2022-12-15	09:27:10	09:35:06	472738	61729e07e7b9b645c1741ca9	297235635	1	main_slash	7	advance_on_keypress_SLASH	118	stimuli_distractor_diamondtriangles.svg	stimuli_distractor_trianglediamonds.svg	38	no	57	0	489
6.6.1	win	2022-12-15	09:27:10	09:35:09	475871	61729e07e7b9b645c1741ca9	297235635	1	main_slash	7	main_slash	119	stimuli_distractor_trianglediamonds.svg	stimuli_distractor_diamondtriangles.svg	35	no	0	1	2000
6.6.1	win	2022-12-15	09:27:10	09:35:09	475871	61729e07e7b9b645c1741ca9	297235635	1	main_slash	7	advance_on_keypress_SLASH	120	stimuli_distractor_trianglediamonds.svg	stimuli_distractor_diamondtriangles.svg	35	no	57	0	524
6.6.1	win	2022-12-15	09:27:10	09:35:11	478563	61729e07e7b9b645c1741ca9	297235635	1	main_slash	7	main_slash	121	stimuli_distractor_diamondtriangles.svg	stimuli_target_circletriangles.svg	13	yes	53	1	1526
6.6.1	win	2022-12-15	09:27:10	09:35:11	478563	61729e07e7b9b645c1741ca9	297235635	1	main_slash	7	advance_on_keypress_SLASH	122	stimuli_distractor_diamondtriangles.svg	stimuli_target_circletriangles.svg	13	yes	57	0	520
6.6.1	win	2022-12-15	09:27:10	09:35:14	481182	61729e07e7b9b645c1741ca9	297235635	1	main_slash	7	main_slash	123	stimuli_target_squarediamonds.svg	stimuli_distractor_trianglediamonds.svg	4	yes	53	1	1461
6.6.1	win	2022-12-15	09:27:10	09:35:14	481182	61729e07e7b9b645c1741ca9	297235635	1	main_slash	7	advance_on_keypress_SLASH	124	stimuli_target_squarediamonds.svg	stimuli_distractor_trianglediamonds.svg	4	yes	57	0	583
6.6.1	win	2022-12-15	09:27:10	09:35:17	483652	61729e07e7b9b645c1741ca9	297235635	1	main_slash	7	main_slash	125	stimuli_distractor_diamondtriangles.svg	stimuli_target_circlediamonds.svg	14	yes	53	1	1231
6.6.1	win	2022-12-15	09:27:10	09:35:17	483652	61729e07e7b9b645c1741ca9	297235635	1	main_slash	7	advance_on_keypress_SLASH	126	stimuli_distractor_diamondtriangles.svg	stimuli_target_circlediamonds.svg	14	yes	57	0	412
6.6.1	win	2022-12-15	09:27:10	09:35:20	486704	61729e07e7b9b645c1741ca9	297235635	1	main_slash	7	main_slash	127	stimuli_distractor_trianglediamonds.svg	stimuli_target_diamondcircles.svg	27	yes	0	0	2000
6.6.1	win	2022-12-15	09:27:10	09:35:20	486704	61729e07e7b9b645c1741ca9	297235635	1	main_slash	7	advance_on_keypress_SLASH	128	stimuli_distractor_trianglediamonds.svg	stimuli_target_diamondcircles.svg	27	yes	57	0	555
6.6.1	win	2022-12-15	09:27:10	09:35:23	489904	61729e07e7b9b645c1741ca9	297235635	1	main_slash	7	main_slash	129	stimuli_target_trianglesquares.svg	stimuli_distractor_trianglediamonds.svg	18	yes	0	0	2000
6.6.1	win	2022-12-15	09:27:10	09:35:23	489904	61729e07e7b9b645c1741ca9	297235635	1	main_slash	7	advance_on_keypress_SLASH	130	stimuli_target_trianglesquares.svg	stimuli_distractor_trianglediamonds.svg	18	yes	57	0	506
6.6.1	win	2022-12-15	09:27:10	09:35:26	493054	61729e07e7b9b645c1741ca9	297235635	1	main_slash	7	main_slash	131	stimuli_distractor_diamondtriangles.svg	stimuli_target_trianglesquares.svg	30	yes	0	0	2000
6.6.1	win	2022-12-15	09:27:10	09:35:26	493054	61729e07e7b9b645c1741ca9	297235635	1	main_slash	7	advance_on_keypress_SLASH	132	stimuli_distractor_diamondtriangles.svg	stimuli_target_trianglesquares.svg	30	yes	57	0	477
6.6.1	win	2022-12-15	09:27:10	09:35:28	495371	61729e07e7b9b645c1741ca9	297235635	1	main_slash	7	main_slash	133	stimuli_target_circletriangles.svg	stimuli_distractor_diamondtriangles.svg	5	yes	53	1	1200
6.6.1	win	2022-12-15	09:27:10	09:35:28	495371	61729e07e7b9b645c1741ca9	297235635	1	main_slash	7	advance_on_keypress_SLASH	134	stimuli_target_circletriangles.svg	stimuli_distractor_diamondtriangles.svg	5	yes	57	0	456
6.6.1	win	2022-12-15	09:27:10	09:35:31	498471	61729e07e7b9b645c1741ca9	297235635	1	main_slash	7	main_slash	135	stimuli_distractor_trianglediamonds.svg	stimuli_distractor_trianglediamonds.svg	34	no	0	1	2000
6.6.1	win	2022-12-15	09:27:10	09:35:31	498471	61729e07e7b9b645c1741ca9	297235635	1	main_slash	7	advance_on_keypress_SLASH	136	stimuli_distractor_trianglediamonds.svg	stimuli_distractor_trianglediamonds.svg	34	no	57	0	502
6.6.1	win	2022-12-15	09:27:10	09:35:35	501621	61729e07e7b9b645c1741ca9	297235635	1	main_slash	7	main_slash	137	stimuli_distractor_diamondtriangles.svg	stimuli_target_squarediamonds.svg	16	yes	0	0	2000
6.6.1	win	2022-12-15	09:27:10	09:35:35	501621	61729e07e7b9b645c1741ca9	297235635	1	main_slash	7	advance_on_keypress_SLASH	138	stimuli_distractor_diamondtriangles.svg	stimuli_target_squarediamonds.svg	16	yes	57	0	470
6.6.1	win	2022-12-15	09:27:10	09:35:38	504737	61729e07e7b9b645c1741ca9	297235635	1	main_slash	7	main_slash	139	stimuli_distractor_trianglediamonds.svg	stimuli_target_squaretriangles.svg	11	yes	0	0	2000
6.6.1	win	2022-12-15	09:27:10	09:35:38	504737	61729e07e7b9b645c1741ca9	297235635	1	main_slash	7	advance_on_keypress_SLASH	140	stimuli_distractor_trianglediamonds.svg	stimuli_target_squaretriangles.svg	11	yes	57	0	561
6.6.1	win	2022-12-15	09:27:10	09:35:41	507937	61729e07e7b9b645c1741ca9	297235635	1	main_slash	7	main_slash	141	stimuli_distractor_diamondtriangles.svg	stimuli_distractor_diamondtriangles.svg	40	no	0	1	2000
6.6.1	win	2022-12-15	09:27:10	09:35:41	507937	61729e07e7b9b645c1741ca9	297235635	1	main_slash	7	advance_on_keypress_SLASH	142	stimuli_distractor_diamondtriangles.svg	stimuli_distractor_diamondtriangles.svg	40	no	57	0	585
6.6.1	win	2022-12-15	09:27:10	09:35:43	510123	61729e07e7b9b645c1741ca9	297235635	1	main_slash	7	main_slash	143	stimuli_distractor_trianglediamonds.svg	stimuli_target_circletriangles.svg	9	yes	53	1	953
6.6.1	win	2022-12-15	09:27:10	09:35:43	510123	61729e07e7b9b645c1741ca9	297235635	1	main_slash	7	advance_on_keypress_SLASH	144	stimuli_distractor_trianglediamonds.svg	stimuli_target_circletriangles.svg	9	yes	57	0	546
6.6.1	win	2022-12-15	09:27:10	09:35:46	513304	61729e07e7b9b645c1741ca9	297235635	1	main_slash	7	main_slash	145	stimuli_distractor_diamondtriangles.svg	stimuli_target_squaretriangles.svg	15	yes	0	0	2000
6.6.1	win	2022-12-15	09:27:10	09:35:46	513304	61729e07e7b9b645c1741ca9	297235635	1	main_slash	7	advance_on_keypress_SLASH	146	stimuli_distractor_diamondtriangles.svg	stimuli_target_squaretriangles.svg	15	yes	57	0	483
6.6.1	win	2022-12-15	09:27:10	09:35:49	516437	61729e07e7b9b645c1741ca9	297235635	1	main_slash	7	main_slash	147	stimuli_distractor_trianglediamonds.svg	stimuli_target_trianglecircles.svg	25	yes	0	0	2000
6.6.1	win	2022-12-15	09:27:10	09:35:49	516437	61729e07e7b9b645c1741ca9	297235635	1	main_slash	7	advance_on_keypress_SLASH	148	stimuli_distractor_trianglediamonds.svg	stimuli_target_trianglecircles.svg	25	yes	57	0	495
6.6.1	win	2022-12-15	09:27:10	09:35:52	519570	61729e07e7b9b645c1741ca9	297235635	1	main_slash	7	main_slash	149	stimuli_target_trianglesquares.svg	stimuli_distractor_diamondtriangles.svg	22	yes	0	0	2000
6.6.1	win	2022-12-15	09:27:10	09:35:52	519570	61729e07e7b9b645c1741ca9	297235635	1	main_slash	7	advance_on_keypress_SLASH	150	stimuli_target_trianglesquares.svg	stimuli_distractor_diamondtriangles.svg	22	yes	57	0	498
6.6.1	win	2022-12-15	09:27:10	09:35:55	521652	61729e07e7b9b645c1741ca9	297235635	1	main_slash	7	main_slash	151	stimuli_target_circlediamonds.svg	stimuli_distractor_trianglediamonds.svg	2	yes	53	1	947
6.6.1	win	2022-12-15	09:27:10	09:35:55	521652	61729e07e7b9b645c1741ca9	297235635	1	main_slash	7	advance_on_keypress_SLASH	152	stimuli_target_circlediamonds.svg	stimuli_distractor_trianglediamonds.svg	2	yes	57	0	493
6.6.1	win	2022-12-15	09:27:10	09:35:58	524787	61729e07e7b9b645c1741ca9	297235635	1	main_slash	7	main_slash	153	stimuli_distractor_diamondtriangles.svg	stimuli_target_trianglecircles.svg	29	yes	0	0	2000
6.6.1	win	2022-12-15	09:27:10	09:35:58	524787	61729e07e7b9b645c1741ca9	297235635	1	main_slash	7	advance_on_keypress_SLASH	154	stimuli_distractor_diamondtriangles.svg	stimuli_target_trianglecircles.svg	29	yes	57	0	432
6.6.1	win	2022-12-15	09:27:10	09:36:01	527854	61729e07e7b9b645c1741ca9	297235635	1	main_slash	7	main_slash	155	stimuli_distractor_diamondtriangles.svg	stimuli_target_diamondsquares.svg	32	yes	0	0	2000
6.6.1	win	2022-12-15	09:27:10	09:36:01	527854	61729e07e7b9b645c1741ca9	297235635	1	main_slash	7	advance_on_keypress_SLASH	156	stimuli_distractor_diamondtriangles.svg	stimuli_target_diamondsquares.svg	32	yes	57	0	423
6.6.1	win	2022-12-15	09:27:10	09:36:04	530920	61729e07e7b9b645c1741ca9	297235635	1	main_slash	7	main_slash	157	stimuli_distractor_diamondtriangles.svg	stimuli_target_diamondcircles.svg	31	yes	0	0	2000
6.6.1	win	2022-12-15	09:27:10	09:36:04	530920	61729e07e7b9b645c1741ca9	297235635	1	main_slash	7	advance_on_keypress_SLASH	158	stimuli_distractor_diamondtriangles.svg	stimuli_target_diamondcircles.svg	31	yes	57	0	650
6.6.1	win	2022-12-15	09:27:10	09:36:07	534220	61729e07e7b9b645c1741ca9	297235635	1	main_slash	7	main_slash	159	stimuli_target_diamondsquares.svg	stimuli_distractor_diamondtriangles.svg	24	yes	0	0	2000
6.6.1	win	2022-12-15	09:27:10	09:36:07	534220	61729e07e7b9b645c1741ca9	297235635	1	main_slash	7	advance_on_keypress_SLASH	160	stimuli_target_diamondsquares.svg	stimuli_distractor_diamondtriangles.svg	24	yes	57	0	742
6.6.1	win	2022-12-15	09:27:10	09:36:37	563691	61729e07e7b9b645c1741ca9	297235635	1	practice_z	9	practice_z	1	stimuli_distractor_diamondtriangles.svg	stimuli_target_diamondcircles.svg	8	yes	44	1	1871
6.6.1	win	2022-12-15	09:27:10	09:36:37	563691	61729e07e7b9b645c1741ca9	297235635	1	practice_z	9	advance_on_keypress_ZEE	2	stimuli_distractor_diamondtriangles.svg	stimuli_target_diamondcircles.svg	8	yes	57	0	604
6.6.1	win	2022-12-15	09:27:10	09:36:40	566869	61729e07e7b9b645c1741ca9	297235635	1	practice_z	9	practice_z	3	stimuli_distractor_trianglediamonds.svg	stimuli_target_squarediamonds.svg	11	yes	44	1	933
6.6.1	win	2022-12-15	09:27:10	09:36:40	566869	61729e07e7b9b645c1741ca9	297235635	1	practice_z	9	advance_on_keypress_ZEE	4	stimuli_distractor_trianglediamonds.svg	stimuli_target_squarediamonds.svg	11	yes	57	0	629
6.6.1	win	2022-12-15	09:27:10	09:36:44	571136	61729e07e7b9b645c1741ca9	297235635	1	practice_z	9	practice_z	5	stimuli_distractor_trianglediamonds.svg	stimuli_distractor_trianglediamonds.svg	15	no	0	1	2000
6.6.1	win	2022-12-15	09:27:10	09:36:44	571136	61729e07e7b9b645c1741ca9	297235635	1	practice_z	9	advance_on_keypress_ZEE	6	stimuli_distractor_trianglediamonds.svg	stimuli_distractor_trianglediamonds.svg	15	no	57	0	530
6.6.1	win	2022-12-15	09:27:10	09:36:48	575320	61729e07e7b9b645c1741ca9	297235635	1	practice_z	9	practice_z	7	stimuli_distractor_diamondtriangles.svg	stimuli_distractor_trianglediamonds.svg	14	no	0	1	2000
6.6.1	win	2022-12-15	09:27:10	09:36:48	575320	61729e07e7b9b645c1741ca9	297235635	1	practice_z	9	advance_on_keypress_ZEE	8	stimuli_distractor_diamondtriangles.svg	stimuli_distractor_trianglediamonds.svg	14	no	57	0	475
6.6.1	win	2022-12-15	09:27:10	09:36:52	579436	61729e07e7b9b645c1741ca9	297235635	1	practice_z	9	practice_z	9	stimuli_distractor_diamondtriangles.svg	stimuli_distractor_diamondtriangles.svg	13	no	0	1	2000
6.6.1	win	2022-12-15	09:27:10	09:36:52	579436	61729e07e7b9b645c1741ca9	297235635	1	practice_z	9	advance_on_keypress_ZEE	10	stimuli_distractor_diamondtriangles.svg	stimuli_distractor_diamondtriangles.svg	13	no	57	0	623
6.6.1	win	2022-12-15	09:27:10	09:36:56	582773	61729e07e7b9b645c1741ca9	297235635	1	practice_z	9	practice_z	11	stimuli_target_squarediamonds.svg	stimuli_distractor_trianglediamonds.svg	5	yes	44	1	1069
6.6.1	win	2022-12-15	09:27:10	09:36:56	582773	61729e07e7b9b645c1741ca9	297235635	1	practice_z	9	advance_on_keypress_ZEE	12	stimuli_target_squarediamonds.svg	stimuli_distractor_trianglediamonds.svg	5	yes	57	0	436
6.6.1	win	2022-12-15	09:27:10	09:37:00	586853	61729e07e7b9b645c1741ca9	297235635	1	practice_z	9	practice_z	13	stimuli_distractor_diamondtriangles.svg	stimuli_target_trianglecircles.svg	9	yes	0	0	2000
6.6.1	win	2022-12-15	09:27:10	09:37:00	586853	61729e07e7b9b645c1741ca9	297235635	1	practice_z	9	advance_on_keypress_ZEE	14	stimuli_distractor_diamondtriangles.svg	stimuli_target_trianglecircles.svg	9	yes	57	0	487
6.6.1	win	2022-12-15	09:27:10	09:37:04	590986	61729e07e7b9b645c1741ca9	297235635	1	practice_z	9	practice_z	15	stimuli_target_diamondsquares.svg	stimuli_distractor_diamondtriangles.svg	3	yes	0	0	2000
6.6.1	win	2022-12-15	09:27:10	09:37:04	590986	61729e07e7b9b645c1741ca9	297235635	1	practice_z	9	advance_on_keypress_ZEE	16	stimuli_target_diamondsquares.svg	stimuli_distractor_diamondtriangles.svg	3	yes	57	0	489
6.6.1	win	2022-12-15	09:27:10	09:37:07	594227	61729e07e7b9b645c1741ca9	297235635	1	practice_z	9	practice_z	17	stimuli_target_circlediamonds.svg	stimuli_distractor_trianglediamonds.svg	4	yes	44	1	1108
6.6.1	win	2022-12-15	09:27:10	09:37:07	594227	61729e07e7b9b645c1741ca9	297235635	1	practice_z	9	advance_on_keypress_ZEE	18	stimuli_target_circlediamonds.svg	stimuli_distractor_trianglediamonds.svg	4	yes	57	0	496
6.6.1	win	2022-12-15	09:27:10	09:37:11	598369	61729e07e7b9b645c1741ca9	297235635	1	practice_z	9	practice_z	19	stimuli_distractor_trianglediamonds.svg	stimuli_distractor_diamondtriangles.svg	16	no	0	1	2000
6.6.1	win	2022-12-15	09:27:10	09:37:11	598369	61729e07e7b9b645c1741ca9	297235635	1	practice_z	9	advance_on_keypress_ZEE	20	stimuli_distractor_trianglediamonds.svg	stimuli_distractor_diamondtriangles.svg	16	no	57	0	441
6.6.1	win	2022-12-15	09:27:10	09:37:14	601452	61729e07e7b9b645c1741ca9	297235635	1	practice_z	9	practice_z	21	stimuli_distractor_diamondtriangles.svg	stimuli_target_circletriangles.svg	7	yes	44	1	999
6.6.1	win	2022-12-15	09:27:10	09:37:14	601452	61729e07e7b9b645c1741ca9	297235635	1	practice_z	9	advance_on_keypress_ZEE	22	stimuli_distractor_diamondtriangles.svg	stimuli_target_circletriangles.svg	7	yes	57	0	424
6.6.1	win	2022-12-15	09:27:10	09:37:17	604291	61729e07e7b9b645c1741ca9	297235635	1	practice_z	9	practice_z	23	stimuli_target_diamondsquares.svg	stimuli_distractor_trianglediamonds.svg	6	yes	44	1	772
6.6.1	win	2022-12-15	09:27:10	09:37:17	604291	61729e07e7b9b645c1741ca9	297235635	1	practice_z	9	advance_on_keypress_ZEE	24	stimuli_target_diamondsquares.svg	stimuli_distractor_trianglediamonds.svg	6	yes	57	0	278
6.6.1	win	2022-12-15	09:27:10	09:37:20	606974	61729e07e7b9b645c1741ca9	297235635	1	practice_z	9	practice_z	25	stimuli_target_squarediamonds.svg	stimuli_distractor_diamondtriangles.svg	2	yes	44	1	771
6.6.1	win	2022-12-15	09:27:10	09:37:20	606974	61729e07e7b9b645c1741ca9	297235635	1	practice_z	9	advance_on_keypress_ZEE	26	stimuli_target_squarediamonds.svg	stimuli_distractor_diamondtriangles.svg	2	yes	57	0	266
6.6.1	win	2022-12-15	09:27:10	09:37:24	610886	61729e07e7b9b645c1741ca9	297235635	1	practice_z	9	practice_z	27	stimuli_distractor_trianglediamonds.svg	stimuli_target_diamondcircles.svg	12	yes	0	0	2000
6.6.1	win	2022-12-15	09:27:10	09:37:24	610886	61729e07e7b9b645c1741ca9	297235635	1	practice_z	9	advance_on_keypress_ZEE	28	stimuli_distractor_trianglediamonds.svg	stimuli_target_diamondcircles.svg	12	yes	57	0	671
6.6.1	win	2022-12-15	09:27:10	09:37:27	613987	61729e07e7b9b645c1741ca9	297235635	1	practice_z	9	practice_z	29	stimuli_distractor_trianglediamonds.svg	stimuli_target_circlediamonds.svg	10	yes	44	1	785
6.6.1	win	2022-12-15	09:27:10	09:37:27	613987	61729e07e7b9b645c1741ca9	297235635	1	practice_z	9	advance_on_keypress_ZEE	30	stimuli_distractor_trianglediamonds.svg	stimuli_target_circlediamonds.svg	10	yes	57	0	601
6.6.1	win	2022-12-15	09:27:10	09:37:30	616788	61729e07e7b9b645c1741ca9	297235635	1	practice_z	9	practice_z	31	stimuli_target_circlediamonds.svg	stimuli_distractor_diamondtriangles.svg	1	yes	44	1	553
6.6.1	win	2022-12-15	09:27:10	09:37:30	616788	61729e07e7b9b645c1741ca9	297235635	1	practice_z	9	advance_on_keypress_ZEE	32	stimuli_target_circlediamonds.svg	stimuli_distractor_diamondtriangles.svg	1	yes	57	0	169
6.6.1	win	2022-12-15	09:27:10	09:37:35	622402	61729e07e7b9b645c1741ca9	297235635	1	main_z	11	main_z	1	stimuli_target_diamondsquares.svg	stimuli_distractor_trianglediamonds.svg	20	yes	0	0	2000
6.6.1	win	2022-12-15	09:27:10	09:37:35	622402	61729e07e7b9b645c1741ca9	297235635	1	main_z	11	advance_on_keypress_ZEE	2	stimuli_target_diamondsquares.svg	stimuli_distractor_trianglediamonds.svg	20	yes	57	0	561
6.6.1	win	2022-12-15	09:27:10	09:37:37	624339	61729e07e7b9b645c1741ca9	297235635	1	main_z	11	main_z	3	stimuli_target_circletriangles.svg	stimuli_distractor_trianglediamonds.svg	1	yes	44	1	737
6.6.1	win	2022-12-15	09:27:10	09:37:37	624339	61729e07e7b9b645c1741ca9	297235635	1	main_z	11	advance_on_keypress_ZEE	4	stimuli_target_circletriangles.svg	stimuli_distractor_trianglediamonds.svg	1	yes	57	0	627
6.6.1	win	2022-12-15	09:27:10	09:37:39	626292	61729e07e7b9b645c1741ca9	297235635	1	main_z	11	main_z	5	stimuli_distractor_diamondtriangles.svg	stimuli_target_circlediamonds.svg	14	yes	44	1	690
6.6.1	win	2022-12-15	09:27:10	09:37:39	626292	61729e07e7b9b645c1741ca9	297235635	1	main_z	11	advance_on_keypress_ZEE	6	stimuli_distractor_diamondtriangles.svg	stimuli_target_circlediamonds.svg	14	yes	57	0	343
6.6.1	win	2022-12-15	09:27:10	09:37:42	629075	61729e07e7b9b645c1741ca9	297235635	1	main_z	11	main_z	7	stimuli_target_diamondsquares.svg	stimuli_distractor_diamondtriangles.svg	24	yes	44	1	1807
6.6.1	win	2022-12-15	09:27:10	09:37:42	629075	61729e07e7b9b645c1741ca9	297235635	1	main_z	11	advance_on_keypress_ZEE	8	stimuli_target_diamondsquares.svg	stimuli_distractor_diamondtriangles.svg	24	yes	57	0	455
6.6.1	win	2022-12-15	09:27:10	09:37:44	631315	61729e07e7b9b645c1741ca9	297235635	1	main_z	11	main_z	9	stimuli_distractor_diamondtriangles.svg	stimuli_target_trianglecircles.svg	29	yes	44	1	1147
6.6.1	win	2022-12-15	09:27:10	09:37:44	631315	61729e07e7b9b645c1741ca9	297235635	1	main_z	11	advance_on_keypress_ZEE	10	stimuli_distractor_diamondtriangles.svg	stimuli_target_trianglecircles.svg	29	yes	57	0	332
6.6.1	win	2022-12-15	09:27:10	09:37:47	634302	61729e07e7b9b645c1741ca9	297235635	1	main_z	11	main_z	11	stimuli_distractor_trianglediamonds.svg	stimuli_target_trianglesquares.svg	26	yes	0	0	2000
6.6.1	win	2022-12-15	09:27:10	09:37:47	634302	61729e07e7b9b645c1741ca9	297235635	1	main_z	11	advance_on_keypress_ZEE	12	stimuli_distractor_trianglediamonds.svg	stimuli_target_trianglesquares.svg	26	yes	57	0	365
6.6.1	win	2022-12-15	09:27:10	09:37:50	637302	61729e07e7b9b645c1741ca9	297235635	1	main_z	11	main_z	13	stimuli_distractor_trianglediamonds.svg	stimuli_target_diamondsquares.svg	28	yes	0	0	2000
6.6.1	win	2022-12-15	09:27:10	09:37:50	637302	61729e07e7b9b645c1741ca9	297235635	1	main_z	11	advance_on_keypress_ZEE	14	stimuli_distractor_trianglediamonds.svg	stimuli_target_diamondsquares.svg	28	yes	57	0	413
6.6.1	win	2022-12-15	09:27:10	09:37:53	640219	61729e07e7b9b645c1741ca9	297235635	1	main_z	11	main_z	15	stimuli_target_trianglecircles.svg	stimuli_distractor_diamondtriangles.svg	21	yes	44	1	1867
6.6.1	win	2022-12-15	09:27:10	09:37:53	640219	61729e07e7b9b645c1741ca9	297235635	1	main_z	11	advance_on_keypress_ZEE	16	stimuli_target_trianglecircles.svg	stimuli_distractor_diamondtriangles.svg	21	yes	57	0	376
6.6.1	win	2022-12-15	09:27:10	09:37:56	643235	61729e07e7b9b645c1741ca9	297235635	1	main_z	11	main_z	17	stimuli_target_trianglesquares.svg	stimuli_distractor_trianglediamonds.svg	18	yes	0	0	2000
6.6.1	win	2022-12-15	09:27:10	09:37:56	643235	61729e07e7b9b645c1741ca9	297235635	1	main_z	11	advance_on_keypress_ZEE	18	stimuli_target_trianglesquares.svg	stimuli_distractor_trianglediamonds.svg	18	yes	57	0	561
6.6.1	win	2022-12-15	09:27:10	09:37:58	645147	61729e07e7b9b645c1741ca9	297235635	1	main_z	11	main_z	19	stimuli_distractor_trianglediamonds.svg	stimuli_target_circletriangles.svg	9	yes	44	1	712
6.6.1	win	2022-12-15	09:27:10	09:37:58	645147	61729e07e7b9b645c1741ca9	297235635	1	main_z	11	advance_on_keypress_ZEE	20	stimuli_distractor_trianglediamonds.svg	stimuli_target_circletriangles.svg	9	yes	57	0	371
6.6.1	win	2022-12-15	09:27:10	09:38:00	646931	61729e07e7b9b645c1741ca9	297235635	1	main_z	11	main_z	21	stimuli_distractor_trianglediamonds.svg	stimuli_distractor_diamondtriangles.svg	36	no	44	0	763
6.6.1	win	2022-12-15	09:27:10	09:38:00	646931	61729e07e7b9b645c1741ca9	297235635	1	main_z	11	advance_on_keypress_ZEE	22	stimuli_distractor_trianglediamonds.svg	stimuli_distractor_diamondtriangles.svg	36	no	57	0	340
6.6.1	win	2022-12-15	09:27:10	09:38:03	649918	61729e07e7b9b645c1741ca9	297235635	1	main_z	11	main_z	23	stimuli_distractor_trianglediamonds.svg	stimuli_target_trianglecircles.svg	25	yes	0	0	2000
6.6.1	win	2022-12-15	09:27:10	09:38:03	649918	61729e07e7b9b645c1741ca9	297235635	1	main_z	11	advance_on_keypress_ZEE	24	stimuli_distractor_trianglediamonds.svg	stimuli_target_trianglecircles.svg	25	yes	57	0	356
6.6.1	win	2022-12-15	09:27:10	09:38:04	651531	61729e07e7b9b645c1741ca9	297235635	1	main_z	11	main_z	25	stimuli_target_squaretriangles.svg	stimuli_distractor_diamondtriangles.svg	7	yes	44	1	613
6.6.1	win	2022-12-15	09:27:10	09:38:04	651531	61729e07e7b9b645c1741ca9	297235635	1	main_z	11	advance_on_keypress_ZEE	26	stimuli_target_squaretriangles.svg	stimuli_distractor_diamondtriangles.svg	7	yes	57	0	332
6.6.1	win	2022-12-15	09:27:10	09:38:06	653018	61729e07e7b9b645c1741ca9	297235635	1	main_z	11	main_z	27	stimuli_distractor_trianglediamonds.svg	stimuli_target_squarediamonds.svg	12	yes	44	1	511
6.6.1	win	2022-12-15	09:27:10	09:38:06	653018	61729e07e7b9b645c1741ca9	297235635	1	main_z	11	advance_on_keypress_ZEE	28	stimuli_distractor_trianglediamonds.svg	stimuli_target_squarediamonds.svg	12	yes	57	0	208
6.6.1	win	2022-12-15	09:27:10	09:38:09	655868	61729e07e7b9b645c1741ca9	297235635	1	main_z	11	main_z	29	stimuli_distractor_trianglediamonds.svg	stimuli_distractor_trianglediamonds.svg	34	no	0	1	2000
6.6.1	win	2022-12-15	09:27:10	09:38:09	655868	61729e07e7b9b645c1741ca9	297235635	1	main_z	11	advance_on_keypress_ZEE	30	stimuli_distractor_trianglediamonds.svg	stimuli_distractor_trianglediamonds.svg	34	no	57	0	518
6.6.1	win	2022-12-15	09:27:10	09:38:11	657605	61729e07e7b9b645c1741ca9	297235635	1	main_z	11	main_z	31	stimuli_target_circletriangles.svg	stimuli_distractor_diamondtriangles.svg	5	yes	44	1	570
6.6.1	win	2022-12-15	09:27:10	09:38:11	657605	61729e07e7b9b645c1741ca9	297235635	1	main_z	11	advance_on_keypress_ZEE	32	stimuli_target_circletriangles.svg	stimuli_distractor_diamondtriangles.svg	5	yes	57	0	249
6.6.1	win	2022-12-15	09:27:10	09:38:13	660502	61729e07e7b9b645c1741ca9	297235635	1	main_z	11	main_z	33	stimuli_distractor_diamondtriangles.svg	stimuli_distractor_trianglediamonds.svg	37	no	0	1	2000
6.6.1	win	2022-12-15	09:27:10	09:38:13	660502	61729e07e7b9b645c1741ca9	297235635	1	main_z	11	advance_on_keypress_ZEE	34	stimuli_distractor_diamondtriangles.svg	stimuli_distractor_trianglediamonds.svg	37	no	57	0	701
6.6.1	win	2022-12-15	09:27:10	09:38:17	663852	61729e07e7b9b645c1741ca9	297235635	1	main_z	11	main_z	35	stimuli_distractor_trianglediamonds.svg	stimuli_distractor_diamondtriangles.svg	35	no	0	1	2000
6.6.1	win	2022-12-15	09:27:10	09:38:17	663852	61729e07e7b9b645c1741ca9	297235635	1	main_z	11	advance_on_keypress_ZEE	36	stimuli_distractor_trianglediamonds.svg	stimuli_distractor_diamondtriangles.svg	35	no	57	0	465
6.6.1	win	2022-12-15	09:27:10	09:38:18	665595	61729e07e7b9b645c1741ca9	297235635	1	main_z	11	main_z	37	stimuli_distractor_diamondtriangles.svg	stimuli_target_squarediamonds.svg	16	yes	44	1	627
6.6.1	win	2022-12-15	09:27:10	09:38:18	665595	61729e07e7b9b645c1741ca9	297235635	1	main_z	11	advance_on_keypress_ZEE	38	stimuli_distractor_diamondtriangles.svg	stimuli_target_squarediamonds.svg	16	yes	57	0	347
6.6.1	win	2022-12-15	09:27:10	09:38:21	668568	61729e07e7b9b645c1741ca9	297235635	1	main_z	11	main_z	39	stimuli_target_trianglesquares.svg	stimuli_distractor_diamondtriangles.svg	22	yes	0	0	2000
6.6.1	win	2022-12-15	09:27:10	09:38:21	668568	61729e07e7b9b645c1741ca9	297235635	1	main_z	11	advance_on_keypress_ZEE	40	stimuli_target_trianglesquares.svg	stimuli_distractor_diamondtriangles.svg	22	yes	57	0	619
6.6.1	win	2022-12-15	09:27:10	09:38:25	671835	61729e07e7b9b645c1741ca9	297235635	1	main_z	11	main_z	41	stimuli_distractor_diamondtriangles.svg	stimuli_target_diamondcircles.svg	31	yes	0	0	2000
6.6.1	win	2022-12-15	09:27:10	09:38:25	671835	61729e07e7b9b645c1741ca9	297235635	1	main_z	11	advance_on_keypress_ZEE	42	stimuli_distractor_diamondtriangles.svg	stimuli_target_diamondcircles.svg	31	yes	57	0	369
6.6.1	win	2022-12-15	09:27:10	09:38:26	673523	61729e07e7b9b645c1741ca9	297235635	1	main_z	11	main_z	43	stimuli_target_squaretriangles.svg	stimuli_distractor_trianglediamonds.svg	3	yes	44	1	672
6.6.1	win	2022-12-15	09:27:10	09:38:26	673523	61729e07e7b9b645c1741ca9	297235635	1	main_z	11	advance_on_keypress_ZEE	44	stimuli_target_squaretriangles.svg	stimuli_distractor_trianglediamonds.svg	3	yes	57	0	341
6.6.1	win	2022-12-15	09:27:10	09:38:29	676501	61729e07e7b9b645c1741ca9	297235635	1	main_z	11	main_z	45	stimuli_distractor_diamondtriangles.svg	stimuli_target_diamondsquares.svg	32	yes	0	0	2000
6.6.1	win	2022-12-15	09:27:10	09:38:29	676501	61729e07e7b9b645c1741ca9	297235635	1	main_z	11	advance_on_keypress_ZEE	46	stimuli_distractor_diamondtriangles.svg	stimuli_target_diamondsquares.svg	32	yes	57	0	446
6.6.1	win	2022-12-15	09:27:10	09:38:31	678228	61729e07e7b9b645c1741ca9	297235635	1	main_z	11	main_z	47	stimuli_distractor_trianglediamonds.svg	stimuli_target_squaretriangles.svg	11	yes	44	1	644
6.6.1	win	2022-12-15	09:27:10	09:38:31	678228	61729e07e7b9b645c1741ca9	297235635	1	main_z	11	advance_on_keypress_ZEE	48	stimuli_distractor_trianglediamonds.svg	stimuli_target_squaretriangles.svg	11	yes	57	0	257
6.6.1	win	2022-12-15	09:27:10	09:38:33	679867	61729e07e7b9b645c1741ca9	297235635	1	main_z	11	main_z	49	stimuli_distractor_diamondtriangles.svg	stimuli_target_circletriangles.svg	13	yes	44	1	749
6.6.1	win	2022-12-15	09:27:10	09:38:33	679867	61729e07e7b9b645c1741ca9	297235635	1	main_z	11	advance_on_keypress_ZEE	50	stimuli_distractor_diamondtriangles.svg	stimuli_target_circletriangles.svg	13	yes	57	0	319
6.6.1	win	2022-12-15	09:27:10	09:38:36	682835	61729e07e7b9b645c1741ca9	297235635	1	main_z	11	main_z	51	stimuli_distractor_diamondtriangles.svg	stimuli_target_trianglesquares.svg	30	yes	0	0	2000
6.6.1	win	2022-12-15	09:27:10	09:38:36	682835	61729e07e7b9b645c1741ca9	297235635	1	main_z	11	advance_on_keypress_ZEE	52	stimuli_distractor_diamondtriangles.svg	stimuli_target_trianglesquares.svg	30	yes	57	0	520
6.6.1	win	2022-12-15	09:27:10	09:38:39	686001	61729e07e7b9b645c1741ca9	297235635	1	main_z	11	main_z	53	stimuli_distractor_trianglediamonds.svg	stimuli_target_diamondcircles.svg	27	yes	0	0	2000
6.6.1	win	2022-12-15	09:27:10	09:38:39	686001	61729e07e7b9b645c1741ca9	297235635	1	main_z	11	advance_on_keypress_ZEE	54	stimuli_distractor_trianglediamonds.svg	stimuli_target_diamondcircles.svg	27	yes	57	0	497
6.6.1	win	2022-12-15	09:27:10	09:38:41	687835	61729e07e7b9b645c1741ca9	297235635	1	main_z	11	main_z	55	stimuli_target_squarediamonds.svg	stimuli_distractor_diamondtriangles.svg	8	yes	44	1	701
6.6.1	win	2022-12-15	09:27:10	09:38:41	687835	61729e07e7b9b645c1741ca9	297235635	1	main_z	11	advance_on_keypress_ZEE	56	stimuli_target_squarediamonds.svg	stimuli_distractor_diamondtriangles.svg	8	yes	57	0	395
6.6.1	win	2022-12-15	09:27:10	09:38:42	689384	61729e07e7b9b645c1741ca9	297235635	1	main_z	11	main_z	57	stimuli_target_squarediamonds.svg	stimuli_distractor_trianglediamonds.svg	4	yes	44	1	503
6.6.1	win	2022-12-15	09:27:10	09:38:42	689384	61729e07e7b9b645c1741ca9	297235635	1	main_z	11	advance_on_keypress_ZEE	58	stimuli_target_squarediamonds.svg	stimuli_distractor_trianglediamonds.svg	4	yes	57	0	227
6.6.1	win	2022-12-15	09:27:10	09:38:45	692251	61729e07e7b9b645c1741ca9	297235635	1	main_z	11	main_z	59	stimuli_target_diamondcircles.svg	stimuli_distractor_trianglediamonds.svg	19	yes	0	0	2000
6.6.1	win	2022-12-15	09:27:10	09:38:45	692251	61729e07e7b9b645c1741ca9	297235635	1	main_z	11	advance_on_keypress_ZEE	60	stimuli_target_diamondcircles.svg	stimuli_distractor_trianglediamonds.svg	19	yes	57	0	472
6.6.1	win	2022-12-15	09:27:10	09:38:48	695368	61729e07e7b9b645c1741ca9	297235635	1	main_z	11	main_z	61	stimuli_distractor_diamondtriangles.svg	stimuli_distractor_diamondtriangles.svg	39	no	0	1	2000
6.6.1	win	2022-12-15	09:27:10	09:38:48	695368	61729e07e7b9b645c1741ca9	297235635	1	main_z	11	advance_on_keypress_ZEE	62	stimuli_distractor_diamondtriangles.svg	stimuli_distractor_diamondtriangles.svg	39	no	57	0	483
6.6.1	win	2022-12-15	09:27:10	09:38:51	698501	61729e07e7b9b645c1741ca9	297235635	1	main_z	11	main_z	63	stimuli_target_trianglecircles.svg	stimuli_distractor_trianglediamonds.svg	17	yes	0	0	2000
6.6.1	win	2022-12-15	09:27:10	09:38:51	698501	61729e07e7b9b645c1741ca9	297235635	1	main_z	11	advance_on_keypress_ZEE	64	stimuli_target_trianglecircles.svg	stimuli_distractor_trianglediamonds.svg	17	yes	57	0	502
6.6.1	win	2022-12-15	09:27:10	09:38:55	701651	61729e07e7b9b645c1741ca9	297235635	1	main_z	11	main_z	65	stimuli_distractor_diamondtriangles.svg	stimuli_distractor_diamondtriangles.svg	40	no	0	1	2000
6.6.1	win	2022-12-15	09:27:10	09:38:55	701651	61729e07e7b9b645c1741ca9	297235635	1	main_z	11	advance_on_keypress_ZEE	66	stimuli_distractor_diamondtriangles.svg	stimuli_distractor_diamondtriangles.svg	40	no	57	0	144
6.6.1	win	2022-12-15	09:27:10	09:38:57	704435	61729e07e7b9b645c1741ca9	297235635	1	main_z	11	main_z	67	stimuli_distractor_trianglediamonds.svg	stimuli_distractor_trianglediamonds.svg	33	no	0	1	2000
6.6.1	win	2022-12-15	09:27:10	09:38:57	704435	61729e07e7b9b645c1741ca9	297235635	1	main_z	11	advance_on_keypress_ZEE	68	stimuli_distractor_trianglediamonds.svg	stimuli_distractor_trianglediamonds.svg	33	no	57	0	112
6.6.1	win	2022-12-15	09:27:10	09:38:59	705804	61729e07e7b9b645c1741ca9	297235635	1	main_z	11	main_z	69	stimuli_target_circlediamonds.svg	stimuli_distractor_trianglediamonds.svg	2	yes	44	1	620
6.6.1	win	2022-12-15	09:27:10	09:38:59	705804	61729e07e7b9b645c1741ca9	297235635	1	main_z	11	advance_on_keypress_ZEE	70	stimuli_target_circlediamonds.svg	stimuli_distractor_trianglediamonds.svg	2	yes	57	0	322
6.6.1	win	2022-12-15	09:27:10	09:39:00	707325	61729e07e7b9b645c1741ca9	297235635	1	main_z	11	main_z	71	stimuli_distractor_trianglediamonds.svg	stimuli_target_circlediamonds.svg	10	yes	44	1	558
6.6.1	win	2022-12-15	09:27:10	09:39:00	707325	61729e07e7b9b645c1741ca9	297235635	1	main_z	11	advance_on_keypress_ZEE	72	stimuli_distractor_trianglediamonds.svg	stimuli_target_circlediamonds.svg	10	yes	57	0	271
6.6.1	win	2022-12-15	09:27:10	09:39:02	708901	61729e07e7b9b645c1741ca9	297235635	1	main_z	11	main_z	73	stimuli_distractor_diamondtriangles.svg	stimuli_distractor_trianglediamonds.svg	38	no	44	0	667
6.6.1	win	2022-12-15	09:27:10	09:39:02	708901	61729e07e7b9b645c1741ca9	297235635	1	main_z	11	advance_on_keypress_ZEE	74	stimuli_distractor_diamondtriangles.svg	stimuli_distractor_trianglediamonds.svg	38	no	57	0	494
6.6.1	win	2022-12-15	09:27:10	09:39:05	712034	61729e07e7b9b645c1741ca9	297235635	1	main_z	11	main_z	75	stimuli_target_diamondcircles.svg	stimuli_distractor_diamondtriangles.svg	23	yes	0	0	2000
6.6.1	win	2022-12-15	09:27:10	09:39:05	712034	61729e07e7b9b645c1741ca9	297235635	1	main_z	11	advance_on_keypress_ZEE	76	stimuli_target_diamondcircles.svg	stimuli_distractor_diamondtriangles.svg	23	yes	57	0	569
6.6.1	win	2022-12-15	09:27:10	09:39:07	713803	61729e07e7b9b645c1741ca9	297235635	1	main_z	11	main_z	77	stimuli_target_circlediamonds.svg	stimuli_distractor_diamondtriangles.svg	6	yes	44	1	553
6.6.1	win	2022-12-15	09:27:10	09:39:07	713803	61729e07e7b9b645c1741ca9	297235635	1	main_z	11	advance_on_keypress_ZEE	78	stimuli_target_circlediamonds.svg	stimuli_distractor_diamondtriangles.svg	6	yes	57	0	261
6.6.1	win	2022-12-15	09:27:10	09:39:10	716701	61729e07e7b9b645c1741ca9	297235635	1	main_z	11	main_z	79	stimuli_distractor_diamondtriangles.svg	stimuli_target_squaretriangles.svg	15	yes	0	0	2000
6.6.1	win	2022-12-15	09:27:10	09:39:10	716701	61729e07e7b9b645c1741ca9	297235635	1	main_z	11	advance_on_keypress_ZEE	80	stimuli_distractor_diamondtriangles.svg	stimuli_target_squaretriangles.svg	15	yes	57	0	630
6.6.1	win	2022-12-15	09:27:10	09:39:12	718851	61729e07e7b9b645c1741ca9	297235635	1	main_z	11	main_z	81	stimuli_distractor_trianglediamonds.svg	stimuli_target_diamondcircles.svg	27	yes	44	1	884
6.6.1	win	2022-12-15	09:27:10	09:39:12	718851	61729e07e7b9b645c1741ca9	297235635	1	main_z	11	advance_on_keypress_ZEE	82	stimuli_distractor_trianglediamonds.svg	stimuli_target_diamondcircles.svg	27	yes	57	0	464
6.6.1	win	2022-12-15	09:27:10	09:39:15	721951	61729e07e7b9b645c1741ca9	297235635	1	main_z	11	main_z	83	stimuli_distractor_trianglediamonds.svg	stimuli_distractor_trianglediamonds.svg	33	no	0	1	2000
6.6.1	win	2022-12-15	09:27:10	09:39:15	721951	61729e07e7b9b645c1741ca9	297235635	1	main_z	11	advance_on_keypress_ZEE	84	stimuli_distractor_trianglediamonds.svg	stimuli_distractor_trianglediamonds.svg	33	no	57	0	492
6.6.1	win	2022-12-15	09:27:10	09:39:17	723723	61729e07e7b9b645c1741ca9	297235635	1	main_z	11	main_z	85	stimuli_distractor_diamondtriangles.svg	stimuli_target_squaretriangles.svg	15	yes	44	1	639
6.6.1	win	2022-12-15	09:27:10	09:39:17	723723	61729e07e7b9b645c1741ca9	297235635	1	main_z	11	advance_on_keypress_ZEE	86	stimuli_distractor_diamondtriangles.svg	stimuli_target_squaretriangles.svg	15	yes	57	0	597
6.6.1	win	2022-12-15	09:27:10	09:39:20	726951	61729e07e7b9b645c1741ca9	297235635	1	main_z	11	main_z	87	stimuli_distractor_trianglediamonds.svg	stimuli_distractor_trianglediamonds.svg	34	no	0	1	2000
6.6.1	win	2022-12-15	09:27:10	09:39:20	726951	61729e07e7b9b645c1741ca9	297235635	1	main_z	11	advance_on_keypress_ZEE	88	stimuli_distractor_trianglediamonds.svg	stimuli_distractor_trianglediamonds.svg	34	no	57	0	452
6.6.1	win	2022-12-15	09:27:10	09:39:23	730051	61729e07e7b9b645c1741ca9	297235635	1	main_z	11	main_z	89	stimuli_target_trianglesquares.svg	stimuli_distractor_trianglediamonds.svg	18	yes	0	0	2000
6.6.1	win	2022-12-15	09:27:10	09:39:23	730051	61729e07e7b9b645c1741ca9	297235635	1	main_z	11	advance_on_keypress_ZEE	90	stimuli_target_trianglesquares.svg	stimuli_distractor_trianglediamonds.svg	18	yes	57	0	481
6.6.1	win	2022-12-15	09:27:10	09:39:26	733167	61729e07e7b9b645c1741ca9	297235635	1	main_z	11	main_z	91	stimuli_distractor_trianglediamonds.svg	stimuli_target_trianglesquares.svg	26	yes	0	0	2000
6.6.1	win	2022-12-15	09:27:10	09:39:26	733167	61729e07e7b9b645c1741ca9	297235635	1	main_z	11	advance_on_keypress_ZEE	92	stimuli_distractor_trianglediamonds.svg	stimuli_target_trianglesquares.svg	26	yes	57	0	499
6.6.1	win	2022-12-15	09:27:10	09:39:28	735003	61729e07e7b9b645c1741ca9	297235635	1	main_z	11	main_z	93	stimuli_distractor_trianglediamonds.svg	stimuli_target_circletriangles.svg	9	yes	44	1	686
6.6.1	win	2022-12-15	09:27:10	09:39:28	735003	61729e07e7b9b645c1741ca9	297235635	1	main_z	11	advance_on_keypress_ZEE	94	stimuli_distractor_trianglediamonds.svg	stimuli_target_circletriangles.svg	9	yes	57	0	316
6.6.1	win	2022-12-15	09:27:10	09:39:31	737967	61729e07e7b9b645c1741ca9	297235635	1	main_z	11	main_z	95	stimuli_target_trianglecircles.svg	stimuli_distractor_trianglediamonds.svg	17	yes	0	0	2000
6.6.1	win	2022-12-15	09:27:10	09:39:31	737967	61729e07e7b9b645c1741ca9	297235635	1	main_z	11	advance_on_keypress_ZEE	96	stimuli_target_trianglecircles.svg	stimuli_distractor_trianglediamonds.svg	17	yes	57	0	540
6.6.1	win	2022-12-15	09:27:10	09:39:34	741151	61729e07e7b9b645c1741ca9	297235635	1	main_z	11	main_z	97	stimuli_distractor_diamondtriangles.svg	stimuli_distractor_trianglediamonds.svg	38	no	0	1	2000
6.6.1	win	2022-12-15	09:27:10	09:39:34	741151	61729e07e7b9b645c1741ca9	297235635	1	main_z	11	advance_on_keypress_ZEE	98	stimuli_distractor_diamondtriangles.svg	stimuli_distractor_trianglediamonds.svg	38	no	57	0	446
6.6.1	win	2022-12-15	09:27:10	09:39:36	743123	61729e07e7b9b645c1741ca9	297235635	1	main_z	11	main_z	99	stimuli_target_diamondcircles.svg	stimuli_distractor_trianglediamonds.svg	19	yes	44	1	890
6.6.1	win	2022-12-15	09:27:10	09:39:36	743123	61729e07e7b9b645c1741ca9	297235635	1	main_z	11	advance_on_keypress_ZEE	100	stimuli_target_diamondcircles.svg	stimuli_distractor_trianglediamonds.svg	19	yes	57	0	270
6.6.1	win	2022-12-15	09:27:10	09:39:39	746034	61729e07e7b9b645c1741ca9	297235635	1	main_z	11	main_z	101	stimuli_target_diamondsquares.svg	stimuli_distractor_diamondtriangles.svg	24	yes	0	0	2000
6.6.1	win	2022-12-15	09:27:10	09:39:39	746034	61729e07e7b9b645c1741ca9	297235635	1	main_z	11	advance_on_keypress_ZEE	102	stimuli_target_diamondsquares.svg	stimuli_distractor_diamondtriangles.svg	24	yes	57	0	499
6.6.1	win	2022-12-15	09:27:10	09:39:42	749184	61729e07e7b9b645c1741ca9	297235635	1	main_z	11	main_z	103	stimuli_distractor_diamondtriangles.svg	stimuli_distractor_diamondtriangles.svg	40	no	0	1	2000
6.6.1	win	2022-12-15	09:27:10	09:39:42	749184	61729e07e7b9b645c1741ca9	297235635	1	main_z	11	advance_on_keypress_ZEE	104	stimuli_distractor_diamondtriangles.svg	stimuli_distractor_diamondtriangles.svg	40	no	57	0	467
6.6.1	win	2022-12-15	09:27:10	09:39:44	750867	61729e07e7b9b645c1741ca9	297235635	1	main_z	11	main_z	105	stimuli_target_squaretriangles.svg	stimuli_distractor_diamondtriangles.svg	7	yes	44	1	567
6.6.1	win	2022-12-15	09:27:10	09:39:44	750867	61729e07e7b9b645c1741ca9	297235635	1	main_z	11	advance_on_keypress_ZEE	106	stimuli_target_squaretriangles.svg	stimuli_distractor_diamondtriangles.svg	7	yes	57	0	281
6.6.1	win	2022-12-15	09:27:10	09:39:47	753783	61729e07e7b9b645c1741ca9	297235635	1	main_z	11	main_z	107	stimuli_distractor_trianglediamonds.svg	stimuli_target_diamondsquares.svg	28	yes	0	0	2000
6.6.1	win	2022-12-15	09:27:10	09:39:47	753783	61729e07e7b9b645c1741ca9	297235635	1	main_z	11	advance_on_keypress_ZEE	108	stimuli_distractor_trianglediamonds.svg	stimuli_target_diamondsquares.svg	28	yes	57	0	515
6.6.1	win	2022-12-15	09:27:10	09:39:50	756934	61729e07e7b9b645c1741ca9	297235635	1	main_z	11	main_z	109	stimuli_distractor_diamondtriangles.svg	stimuli_target_diamondcircles.svg	31	yes	0	0	2000
6.6.1	win	2022-12-15	09:27:10	09:39:50	756934	61729e07e7b9b645c1741ca9	297235635	1	main_z	11	advance_on_keypress_ZEE	110	stimuli_distractor_diamondtriangles.svg	stimuli_target_diamondcircles.svg	31	yes	57	0	285
6.6.1	win	2022-12-15	09:27:10	09:39:51	758324	61729e07e7b9b645c1741ca9	297235635	1	main_z	11	main_z	111	stimuli_target_circletriangles.svg	stimuli_distractor_trianglediamonds.svg	1	yes	44	1	458
6.6.1	win	2022-12-15	09:27:10	09:39:51	758324	61729e07e7b9b645c1741ca9	297235635	1	main_z	11	advance_on_keypress_ZEE	112	stimuli_target_circletriangles.svg	stimuli_distractor_trianglediamonds.svg	1	yes	57	0	288
6.6.1	win	2022-12-15	09:27:10	09:39:53	759804	61729e07e7b9b645c1741ca9	297235635	1	main_z	11	main_z	113	stimuli_target_circlediamonds.svg	stimuli_distractor_trianglediamonds.svg	2	yes	44	1	554
6.6.1	win	2022-12-15	09:27:10	09:39:53	759804	61729e07e7b9b645c1741ca9	297235635	1	main_z	11	advance_on_keypress_ZEE	114	stimuli_target_circlediamonds.svg	stimuli_distractor_trianglediamonds.svg	2	yes	57	0	285
6.6.1	win	2022-12-15	09:27:10	09:39:54	761173	61729e07e7b9b645c1741ca9	297235635	1	main_z	11	main_z	115	stimuli_target_circletriangles.svg	stimuli_distractor_diamondtriangles.svg	5	yes	44	1	440
6.6.1	win	2022-12-15	09:27:10	09:39:54	761173	61729e07e7b9b645c1741ca9	297235635	1	main_z	11	advance_on_keypress_ZEE	116	stimuli_target_circletriangles.svg	stimuli_distractor_diamondtriangles.svg	5	yes	57	0	292
6.6.1	win	2022-12-15	09:27:10	09:39:57	764100	61729e07e7b9b645c1741ca9	297235635	1	main_z	11	main_z	117	stimuli_distractor_diamondtriangles.svg	stimuli_distractor_diamondtriangles.svg	39	no	0	1	2000
6.6.1	win	2022-12-15	09:27:10	09:39:57	764100	61729e07e7b9b645c1741ca9	297235635	1	main_z	11	advance_on_keypress_ZEE	118	stimuli_distractor_diamondtriangles.svg	stimuli_distractor_diamondtriangles.svg	39	no	57	0	367
6.6.1	win	2022-12-15	09:27:10	09:40:00	767117	61729e07e7b9b645c1741ca9	297235635	1	main_z	11	main_z	119	stimuli_target_trianglesquares.svg	stimuli_distractor_diamondtriangles.svg	22	yes	0	0	2000
6.6.1	win	2022-12-15	09:27:10	09:40:00	767117	61729e07e7b9b645c1741ca9	297235635	1	main_z	11	advance_on_keypress_ZEE	120	stimuli_target_trianglesquares.svg	stimuli_distractor_diamondtriangles.svg	22	yes	57	0	70
6.6.1	win	2022-12-15	09:27:10	09:40:03	769833	61729e07e7b9b645c1741ca9	297235635	1	main_z	11	main_z	121	stimuli_distractor_diamondtriangles.svg	stimuli_target_diamondsquares.svg	32	yes	0	0	2000
6.6.1	win	2022-12-15	09:27:10	09:40:03	769833	61729e07e7b9b645c1741ca9	297235635	1	main_z	11	advance_on_keypress_ZEE	122	stimuli_distractor_diamondtriangles.svg	stimuli_target_diamondsquares.svg	32	yes	57	0	129
6.6.1	win	2022-12-15	09:27:10	09:40:04	771091	61729e07e7b9b645c1741ca9	297235635	1	main_z	11	main_z	123	stimuli_distractor_diamondtriangles.svg	stimuli_target_circlediamonds.svg	14	yes	44	1	491
6.6.1	win	2022-12-15	09:27:10	09:40:04	771091	61729e07e7b9b645c1741ca9	297235635	1	main_z	11	advance_on_keypress_ZEE	124	stimuli_distractor_diamondtriangles.svg	stimuli_target_circlediamonds.svg	14	yes	57	0	247
6.6.1	win	2022-12-15	09:27:10	09:40:05	772531	61729e07e7b9b645c1741ca9	297235635	1	main_z	11	main_z	125	stimuli_distractor_trianglediamonds.svg	stimuli_target_squaretriangles.svg	11	yes	44	1	565
6.6.1	win	2022-12-15	09:27:10	09:40:05	772531	61729e07e7b9b645c1741ca9	297235635	1	main_z	11	advance_on_keypress_ZEE	126	stimuli_distractor_trianglediamonds.svg	stimuli_target_squaretriangles.svg	11	yes	57	0	239
6.6.1	win	2022-12-15	09:27:10	09:40:07	774035	61729e07e7b9b645c1741ca9	297235635	1	main_z	11	main_z	127	stimuli_distractor_diamondtriangles.svg	stimuli_target_trianglecircles.svg	29	yes	44	1	619
6.6.1	win	2022-12-15	09:27:10	09:40:07	774035	61729e07e7b9b645c1741ca9	297235635	1	main_z	11	advance_on_keypress_ZEE	128	stimuli_distractor_diamondtriangles.svg	stimuli_target_trianglecircles.svg	29	yes	57	0	265
6.6.1	win	2022-12-15	09:27:10	09:40:08	775499	61729e07e7b9b645c1741ca9	297235635	1	main_z	11	main_z	129	stimuli_target_trianglecircles.svg	stimuli_distractor_diamondtriangles.svg	21	yes	44	1	549
6.6.1	win	2022-12-15	09:27:10	09:40:08	775499	61729e07e7b9b645c1741ca9	297235635	1	main_z	11	advance_on_keypress_ZEE	130	stimuli_target_trianglecircles.svg	stimuli_distractor_diamondtriangles.svg	21	yes	57	0	223
6.6.1	win	2022-12-15	09:27:10	09:40:10	776923	61729e07e7b9b645c1741ca9	297235635	1	main_z	11	main_z	131	stimuli_target_squaretriangles.svg	stimuli_distractor_trianglediamonds.svg	3	yes	44	1	557
6.6.1	win	2022-12-15	09:27:10	09:40:10	776923	61729e07e7b9b645c1741ca9	297235635	1	main_z	11	advance_on_keypress_ZEE	132	stimuli_target_squaretriangles.svg	stimuli_distractor_trianglediamonds.svg	3	yes	57	0	254
6.6.1	win	2022-12-15	09:27:10	09:40:11	778333	61729e07e7b9b645c1741ca9	297235635	1	main_z	11	main_z	133	stimuli_distractor_diamondtriangles.svg	stimuli_target_squarediamonds.svg	16	yes	44	1	515
6.6.1	win	2022-12-15	09:27:10	09:40:11	778333	61729e07e7b9b645c1741ca9	297235635	1	main_z	11	advance_on_keypress_ZEE	134	stimuli_distractor_diamondtriangles.svg	stimuli_target_squarediamonds.svg	16	yes	57	0	246
6.6.1	win	2022-12-15	09:27:10	09:40:13	779739	61729e07e7b9b645c1741ca9	297235635	1	main_z	11	main_z	135	stimuli_target_diamondsquares.svg	stimuli_distractor_trianglediamonds.svg	20	yes	44	1	523
6.6.1	win	2022-12-15	09:27:10	09:40:13	779739	61729e07e7b9b645c1741ca9	297235635	1	main_z	11	advance_on_keypress_ZEE	136	stimuli_target_diamondsquares.svg	stimuli_distractor_trianglediamonds.svg	20	yes	57	0	270
6.6.1	win	2022-12-15	09:27:10	09:40:14	781259	61729e07e7b9b645c1741ca9	297235635	1	main_z	11	main_z	137	stimuli_distractor_diamondtriangles.svg	stimuli_target_trianglesquares.svg	30	yes	44	1	609
6.6.1	win	2022-12-15	09:27:10	09:40:14	781259	61729e07e7b9b645c1741ca9	297235635	1	main_z	11	advance_on_keypress_ZEE	138	stimuli_distractor_diamondtriangles.svg	stimuli_target_trianglesquares.svg	30	yes	57	0	217
6.6.1	win	2022-12-15	09:27:10	09:40:16	782723	61729e07e7b9b645c1741ca9	297235635	1	main_z	11	main_z	139	stimuli_distractor_trianglediamonds.svg	stimuli_target_squarediamonds.svg	12	yes	44	1	607
6.6.1	win	2022-12-15	09:27:10	09:40:16	782723	61729e07e7b9b645c1741ca9	297235635	1	main_z	11	advance_on_keypress_ZEE	140	stimuli_distractor_trianglediamonds.svg	stimuli_target_squarediamonds.svg	12	yes	57	0	310
6.6.1	win	2022-12-15	09:27:10	09:40:17	784131	61729e07e7b9b645c1741ca9	297235635	1	main_z	11	main_z	141	stimuli_target_circlediamonds.svg	stimuli_distractor_diamondtriangles.svg	6	yes	44	1	465
6.6.1	win	2022-12-15	09:27:10	09:40:17	784131	61729e07e7b9b645c1741ca9	297235635	1	main_z	11	advance_on_keypress_ZEE	142	stimuli_target_circlediamonds.svg	stimuli_distractor_diamondtriangles.svg	6	yes	57	0	199
6.6.1	win	2022-12-15	09:27:10	09:40:18	785366	61729e07e7b9b645c1741ca9	297235635	1	main_z	11	main_z	143	stimuli_target_squarediamonds.svg	stimuli_distractor_diamondtriangles.svg	8	yes	44	1	380
6.6.1	win	2022-12-15	09:27:10	09:40:18	785366	61729e07e7b9b645c1741ca9	297235635	1	main_z	11	advance_on_keypress_ZEE	144	stimuli_target_squarediamonds.svg	stimuli_distractor_diamondtriangles.svg	8	yes	57	0	268
6.6.1	win	2022-12-15	09:27:10	09:40:21	788283	61729e07e7b9b645c1741ca9	297235635	1	main_z	11	main_z	145	stimuli_distractor_trianglediamonds.svg	stimuli_distractor_diamondtriangles.svg	36	no	0	1	2000
6.6.1	win	2022-12-15	09:27:10	09:40:21	788283	61729e07e7b9b645c1741ca9	297235635	1	main_z	11	advance_on_keypress_ZEE	146	stimuli_distractor_trianglediamonds.svg	stimuli_distractor_diamondtriangles.svg	36	no	57	0	442
6.6.1	win	2022-12-15	09:27:10	09:40:24	791366	61729e07e7b9b645c1741ca9	297235635	1	main_z	11	main_z	147	stimuli_distractor_trianglediamonds.svg	stimuli_target_trianglecircles.svg	25	yes	0	0	2000
6.6.1	win	2022-12-15	09:27:10	09:40:24	791366	61729e07e7b9b645c1741ca9	297235635	1	main_z	11	advance_on_keypress_ZEE	148	stimuli_distractor_trianglediamonds.svg	stimuli_target_trianglecircles.svg	25	yes	57	0	364
6.6.1	win	2022-12-15	09:27:10	09:40:26	793196	61729e07e7b9b645c1741ca9	297235635	1	main_z	11	main_z	149	stimuli_target_diamondcircles.svg	stimuli_distractor_diamondtriangles.svg	23	yes	44	1	830
6.6.1	win	2022-12-15	09:27:10	09:40:26	793196	61729e07e7b9b645c1741ca9	297235635	1	main_z	11	advance_on_keypress_ZEE	150	stimuli_target_diamondcircles.svg	stimuli_distractor_diamondtriangles.svg	23	yes	57	0	203
6.6.1	win	2022-12-15	09:27:10	09:40:27	794547	61729e07e7b9b645c1741ca9	297235635	1	main_z	11	main_z	151	stimuli_distractor_diamondtriangles.svg	stimuli_distractor_trianglediamonds.svg	37	no	44	0	498
6.6.1	win	2022-12-15	09:27:10	09:40:27	794547	61729e07e7b9b645c1741ca9	297235635	1	main_z	11	advance_on_keypress_ZEE	152	stimuli_distractor_diamondtriangles.svg	stimuli_distractor_trianglediamonds.svg	37	no	57	0	158
6.6.1	win	2022-12-15	09:27:10	09:40:29	795779	61729e07e7b9b645c1741ca9	297235635	1	main_z	11	main_z	153	stimuli_target_squarediamonds.svg	stimuli_distractor_trianglediamonds.svg	4	yes	44	1	430
6.6.1	win	2022-12-15	09:27:10	09:40:29	795779	61729e07e7b9b645c1741ca9	297235635	1	main_z	11	advance_on_keypress_ZEE	154	stimuli_target_squarediamonds.svg	stimuli_distractor_trianglediamonds.svg	4	yes	57	0	236
6.6.1	win	2022-12-15	09:27:10	09:40:32	798666	61729e07e7b9b645c1741ca9	297235635	1	main_z	11	main_z	155	stimuli_distractor_trianglediamonds.svg	stimuli_distractor_diamondtriangles.svg	35	no	0	1	2000
6.6.1	win	2022-12-15	09:27:10	09:40:32	798666	61729e07e7b9b645c1741ca9	297235635	1	main_z	11	advance_on_keypress_ZEE	156	stimuli_distractor_trianglediamonds.svg	stimuli_distractor_diamondtriangles.svg	35	no	57	0	576
6.6.1	win	2022-12-15	09:27:10	09:40:33	800427	61729e07e7b9b645c1741ca9	297235635	1	main_z	11	main_z	157	stimuli_distractor_trianglediamonds.svg	stimuli_target_circlediamonds.svg	10	yes	44	1	544
6.6.1	win	2022-12-15	09:27:10	09:40:33	800427	61729e07e7b9b645c1741ca9	297235635	1	main_z	11	advance_on_keypress_ZEE	158	stimuli_distractor_trianglediamonds.svg	stimuli_target_circlediamonds.svg	10	yes	57	0	181
6.6.1	win	2022-12-15	09:27:10	09:40:35	801699	61729e07e7b9b645c1741ca9	297235635	1	main_z	11	main_z	159	stimuli_distractor_diamondtriangles.svg	stimuli_target_circletriangles.svg	13	yes	44	1	450
6.6.1	win	2022-12-15	09:27:10	09:40:35	801699	61729e07e7b9b645c1741ca9	297235635	1	main_z	11	advance_on_keypress_ZEE	160	stimuli_distractor_diamondtriangles.svg	stimuli_target_circletriangles.svg	13	yes	57	0	223