build	computer.platform	date	time	timestamp	time_elapsed_ms	subject	group	session	blockcode	blocknum	trialcode	trialnum	stimulus_left	stimulus_right	stim_index	target_present	response	correct	latency
6.6.1	win	2022-12-14	14:58:38	15:01:03	142266	62b055b8af4eda974466ad0d	746825687	1	practice_slash	5	practice_slash	1	stimuli_target_circlediamonds.svg	stimuli_distractor_trianglediamonds.svg	4	yes	53	1	1657
6.6.1	win	2022-12-14	14:58:38	15:01:03	142266	62b055b8af4eda974466ad0d	746825687	1	practice_slash	5	advance_on_keypress_SLASH	2	stimuli_target_circlediamonds.svg	stimuli_distractor_trianglediamonds.svg	4	yes	57	0	1855
6.6.1	win	2022-12-14	14:58:38	15:01:07	146746	62b055b8af4eda974466ad0d	746825687	1	practice_slash	5	practice_slash	3	stimuli_target_circlediamonds.svg	stimuli_distractor_diamondtriangles.svg	1	yes	53	1	945
6.6.1	win	2022-12-14	14:58:38	15:01:07	146746	62b055b8af4eda974466ad0d	746825687	1	practice_slash	5	advance_on_keypress_SLASH	4	stimuli_target_circlediamonds.svg	stimuli_distractor_diamondtriangles.svg	1	yes	57	0	1246
6.6.1	win	2022-12-14	14:58:38	15:01:12	151651	62b055b8af4eda974466ad0d	746825687	1	practice_slash	5	practice_slash	5	stimuli_target_diamondsquares.svg	stimuli_distractor_trianglediamonds.svg	6	yes	0	0	2000
6.6.1	win	2022-12-14	14:58:38	15:01:12	151651	62b055b8af4eda974466ad0d	746825687	1	practice_slash	5	advance_on_keypress_SLASH	6	stimuli_target_diamondsquares.svg	stimuli_distractor_trianglediamonds.svg	6	yes	57	0	929
6.6.1	win	2022-12-14	14:58:38	15:01:16	155866	62b055b8af4eda974466ad0d	746825687	1	practice_slash	5	practice_slash	7	stimuli_distractor_diamondtriangles.svg	stimuli_target_circletriangles.svg	7	yes	53	1	1621
6.6.1	win	2022-12-14	14:58:38	15:01:16	155866	62b055b8af4eda974466ad0d	746825687	1	practice_slash	5	advance_on_keypress_SLASH	8	stimuli_distractor_diamondtriangles.svg	stimuli_target_circletriangles.svg	7	yes	57	0	994
6.6.1	win	2022-12-14	14:58:38	15:01:20	159525	62b055b8af4eda974466ad0d	746825687	1	practice_slash	5	practice_slash	9	stimuli_target_diamondsquares.svg	stimuli_distractor_diamondtriangles.svg	3	yes	53	1	1002
6.6.1	win	2022-12-14	14:58:38	15:01:20	159525	62b055b8af4eda974466ad0d	746825687	1	practice_slash	5	advance_on_keypress_SLASH	10	stimuli_target_diamondsquares.svg	stimuli_distractor_diamondtriangles.svg	3	yes	57	0	664
6.6.1	win	2022-12-14	14:58:38	15:01:23	162777	62b055b8af4eda974466ad0d	746825687	1	practice_slash	5	practice_slash	11	stimuli_target_squarediamonds.svg	stimuli_distractor_trianglediamonds.svg	5	yes	53	1	923
6.6.1	win	2022-12-14	14:58:38	15:01:23	162777	62b055b8af4eda974466ad0d	746825687	1	practice_slash	5	advance_on_keypress_SLASH	12	stimuli_target_squarediamonds.svg	stimuli_distractor_trianglediamonds.svg	5	yes	57	0	763
6.6.1	win	2022-12-14	14:58:38	15:01:27	166045	62b055b8af4eda974466ad0d	746825687	1	practice_slash	5	practice_slash	13	stimuli_distractor_diamondtriangles.svg	stimuli_target_diamondcircles.svg	8	yes	53	1	842
6.6.1	win	2022-12-14	14:58:38	15:01:27	166045	62b055b8af4eda974466ad0d	746825687	1	practice_slash	5	advance_on_keypress_SLASH	14	stimuli_distractor_diamondtriangles.svg	stimuli_target_diamondcircles.svg	8	yes	57	0	1185
6.6.1	win	2022-12-14	14:58:38	15:01:30	169715	62b055b8af4eda974466ad0d	746825687	1	practice_slash	5	practice_slash	15	stimuli_target_squarediamonds.svg	stimuli_distractor_diamondtriangles.svg	2	yes	53	1	820
6.6.1	win	2022-12-14	14:58:38	15:01:30	169715	62b055b8af4eda974466ad0d	746825687	1	practice_slash	5	advance_on_keypress_SLASH	16	stimuli_target_squarediamonds.svg	stimuli_distractor_diamondtriangles.svg	2	yes	57	0	535
6.6.1	win	2022-12-14	14:58:38	15:01:34	173913	62b055b8af4eda974466ad0d	746825687	1	practice_slash	5	practice_slash	17	stimuli_distractor_trianglediamonds.svg	stimuli_distractor_diamondtriangles.svg	16	no	0	1	2000
6.6.1	win	2022-12-14	14:58:38	15:01:34	173913	62b055b8af4eda974466ad0d	746825687	1	practice_slash	5	advance_on_keypress_SLASH	18	stimuli_distractor_trianglediamonds.svg	stimuli_distractor_diamondtriangles.svg	16	no	57	0	747
6.6.1	win	2022-12-14	14:58:38	15:01:38	177004	62b055b8af4eda974466ad0d	746825687	1	practice_slash	5	practice_slash	19	stimuli_distractor_trianglediamonds.svg	stimuli_target_circlediamonds.svg	10	yes	53	1	682
6.6.1	win	2022-12-14	14:58:38	15:01:38	177004	62b055b8af4eda974466ad0d	746825687	1	practice_slash	5	advance_on_keypress_SLASH	20	stimuli_distractor_trianglediamonds.svg	stimuli_target_circlediamonds.svg	10	yes	57	0	507
6.6.1	win	2022-12-14	14:58:38	15:01:42	181175	62b055b8af4eda974466ad0d	746825687	1	practice_slash	5	practice_slash	21	stimuli_distractor_trianglediamonds.svg	stimuli_distractor_trianglediamonds.svg	15	no	0	1	2000
6.6.1	win	2022-12-14	14:58:38	15:01:42	181175	62b055b8af4eda974466ad0d	746825687	1	practice_slash	5	advance_on_keypress_SLASH	22	stimuli_distractor_trianglediamonds.svg	stimuli_distractor_trianglediamonds.svg	15	no	57	0	1846
6.6.1	win	2022-12-14	14:58:38	15:01:46	185605	62b055b8af4eda974466ad0d	746825687	1	practice_slash	5	practice_slash	23	stimuli_distractor_trianglediamonds.svg	stimuli_target_squarediamonds.svg	11	yes	53	1	921
6.6.1	win	2022-12-14	14:58:38	15:01:46	185605	62b055b8af4eda974466ad0d	746825687	1	practice_slash	5	advance_on_keypress_SLASH	24	stimuli_distractor_trianglediamonds.svg	stimuli_target_squarediamonds.svg	11	yes	57	0	8205
6.6.1	win	2022-12-14	14:58:38	15:01:57	196496	62b055b8af4eda974466ad0d	746825687	1	practice_slash	5	practice_slash	25	stimuli_distractor_trianglediamonds.svg	stimuli_target_diamondcircles.svg	12	yes	53	1	1022
6.6.1	win	2022-12-14	14:58:38	15:01:57	196496	62b055b8af4eda974466ad0d	746825687	1	practice_slash	5	advance_on_keypress_SLASH	26	stimuli_distractor_trianglediamonds.svg	stimuli_target_diamondcircles.svg	12	yes	57	0	3136
6.6.1	win	2022-12-14	14:58:38	15:02:04	203295	62b055b8af4eda974466ad0d	746825687	1	practice_slash	5	practice_slash	27	stimuli_distractor_diamondtriangles.svg	stimuli_distractor_diamondtriangles.svg	13	no	0	1	2000
6.6.1	win	2022-12-14	14:58:38	15:02:04	203295	62b055b8af4eda974466ad0d	746825687	1	practice_slash	5	advance_on_keypress_SLASH	28	stimuli_distractor_diamondtriangles.svg	stimuli_distractor_diamondtriangles.svg	13	no	57	0	916
6.6.1	win	2022-12-14	14:58:38	15:02:08	207874	62b055b8af4eda974466ad0d	746825687	1	practice_slash	5	practice_slash	29	stimuli_distractor_diamondtriangles.svg	stimuli_distractor_trianglediamonds.svg	14	no	0	1	2000
6.6.1	win	2022-12-14	14:58:38	15:02:08	207874	62b055b8af4eda974466ad0d	746825687	1	practice_slash	5	advance_on_keypress_SLASH	30	stimuli_distractor_diamondtriangles.svg	stimuli_distractor_trianglediamonds.svg	14	no	57	0	738
6.6.1	win	2022-12-14	14:58:38	15:02:11	210846	62b055b8af4eda974466ad0d	746825687	1	practice_slash	5	practice_slash	31	stimuli_distractor_diamondtriangles.svg	stimuli_target_trianglecircles.svg	9	yes	53	1	571
6.6.1	win	2022-12-14	14:58:38	15:02:11	210846	62b055b8af4eda974466ad0d	746825687	1	practice_slash	5	advance_on_keypress_SLASH	32	stimuli_distractor_diamondtriangles.svg	stimuli_target_trianglecircles.svg	9	yes	57	0	714
6.6.1	win	2022-12-14	14:58:38	15:02:18	217151	62b055b8af4eda974466ad0d	746825687	1	main_slash	7	main_slash	1	stimuli_distractor_diamondtriangles.svg	stimuli_target_squaretriangles.svg	15	yes	53	1	763
6.6.1	win	2022-12-14	14:58:38	15:02:18	217151	62b055b8af4eda974466ad0d	746825687	1	main_slash	7	advance_on_keypress_SLASH	2	stimuli_distractor_diamondtriangles.svg	stimuli_target_squaretriangles.svg	15	yes	57	0	1189
6.6.1	win	2022-12-14	14:58:38	15:02:22	221001	62b055b8af4eda974466ad0d	746825687	1	main_slash	7	main_slash	3	stimuli_distractor_trianglediamonds.svg	stimuli_distractor_diamondtriangles.svg	36	no	0	1	2000
6.6.1	win	2022-12-14	14:58:38	15:02:22	221001	62b055b8af4eda974466ad0d	746825687	1	main_slash	7	advance_on_keypress_SLASH	4	stimuli_distractor_trianglediamonds.svg	stimuli_distractor_diamondtriangles.svg	36	no	57	0	640
6.6.1	win	2022-12-14	14:58:38	15:02:24	222942	62b055b8af4eda974466ad0d	746825687	1	main_slash	7	main_slash	5	stimuli_target_circletriangles.svg	stimuli_distractor_trianglediamonds.svg	1	yes	53	1	641
6.6.1	win	2022-12-14	14:58:38	15:02:24	222942	62b055b8af4eda974466ad0d	746825687	1	main_slash	7	advance_on_keypress_SLASH	6	stimuli_target_circletriangles.svg	stimuli_distractor_trianglediamonds.svg	1	yes	57	0	1348
6.6.1	win	2022-12-14	14:58:38	15:02:26	225732	62b055b8af4eda974466ad0d	746825687	1	main_slash	7	main_slash	7	stimuli_distractor_trianglediamonds.svg	stimuli_target_trianglecircles.svg	25	yes	53	1	781
6.6.1	win	2022-12-14	14:58:38	15:02:26	225732	62b055b8af4eda974466ad0d	746825687	1	main_slash	7	advance_on_keypress_SLASH	8	stimuli_distractor_trianglediamonds.svg	stimuli_target_trianglecircles.svg	25	yes	57	0	488
6.6.1	win	2022-12-14	14:58:38	15:02:28	227872	62b055b8af4eda974466ad0d	746825687	1	main_slash	7	main_slash	9	stimuli_target_squaretriangles.svg	stimuli_distractor_trianglediamonds.svg	3	yes	53	1	992
6.6.1	win	2022-12-14	14:58:38	15:02:28	227872	62b055b8af4eda974466ad0d	746825687	1	main_slash	7	advance_on_keypress_SLASH	10	stimuli_target_squaretriangles.svg	stimuli_distractor_trianglediamonds.svg	3	yes	57	0	388
6.6.1	win	2022-12-14	14:58:38	15:02:30	229702	62b055b8af4eda974466ad0d	746825687	1	main_slash	7	main_slash	11	stimuli_distractor_diamondtriangles.svg	stimuli_target_circletriangles.svg	13	yes	53	1	781
6.6.1	win	2022-12-14	14:58:38	15:02:30	229702	62b055b8af4eda974466ad0d	746825687	1	main_slash	7	advance_on_keypress_SLASH	12	stimuli_distractor_diamondtriangles.svg	stimuli_target_circletriangles.svg	13	yes	57	0	348
6.6.1	win	2022-12-14	14:58:38	15:02:32	231932	62b055b8af4eda974466ad0d	746825687	1	main_slash	7	main_slash	13	stimuli_distractor_trianglediamonds.svg	stimuli_target_trianglesquares.svg	26	yes	53	1	1221
6.6.1	win	2022-12-14	14:58:38	15:02:32	231932	62b055b8af4eda974466ad0d	746825687	1	main_slash	7	advance_on_keypress_SLASH	14	stimuli_distractor_trianglediamonds.svg	stimuli_target_trianglesquares.svg	26	yes	57	0	378
6.6.1	win	2022-12-14	14:58:38	15:02:34	233711	62b055b8af4eda974466ad0d	746825687	1	main_slash	7	main_slash	15	stimuli_target_diamondcircles.svg	stimuli_distractor_diamondtriangles.svg	23	yes	53	1	754
6.6.1	win	2022-12-14	14:58:38	15:02:34	233711	62b055b8af4eda974466ad0d	746825687	1	main_slash	7	advance_on_keypress_SLASH	16	stimuli_target_diamondcircles.svg	stimuli_distractor_diamondtriangles.svg	23	yes	57	0	1241
6.6.1	win	2022-12-14	14:58:38	15:02:38	237599	62b055b8af4eda974466ad0d	746825687	1	main_slash	7	main_slash	17	stimuli_target_diamondsquares.svg	stimuli_distractor_diamondtriangles.svg	24	yes	0	0	2000
6.6.1	win	2022-12-14	14:58:38	15:02:38	237599	62b055b8af4eda974466ad0d	746825687	1	main_slash	7	advance_on_keypress_SLASH	18	stimuli_target_diamondsquares.svg	stimuli_distractor_diamondtriangles.svg	24	yes	57	0	1810
6.6.1	win	2022-12-14	14:58:38	15:02:41	240822	62b055b8af4eda974466ad0d	746825687	1	main_slash	7	main_slash	19	stimuli_target_trianglesquares.svg	stimuli_distractor_trianglediamonds.svg	18	yes	53	1	751
6.6.1	win	2022-12-14	14:58:38	15:02:41	240822	62b055b8af4eda974466ad0d	746825687	1	main_slash	7	advance_on_keypress_SLASH	20	stimuli_target_trianglesquares.svg	stimuli_distractor_trianglediamonds.svg	18	yes	57	0	1028
6.6.1	win	2022-12-14	14:58:38	15:02:44	243192	62b055b8af4eda974466ad0d	746825687	1	main_slash	7	main_slash	21	stimuli_target_trianglecircles.svg	stimuli_distractor_trianglediamonds.svg	17	yes	53	1	681
6.6.1	win	2022-12-14	14:58:38	15:02:44	243192	62b055b8af4eda974466ad0d	746825687	1	main_slash	7	advance_on_keypress_SLASH	22	stimuli_target_trianglecircles.svg	stimuli_distractor_trianglediamonds.svg	17	yes	57	0	668
6.6.1	win	2022-12-14	14:58:38	15:02:46	245142	62b055b8af4eda974466ad0d	746825687	1	main_slash	7	main_slash	23	stimuli_distractor_diamondtriangles.svg	stimuli_target_trianglecircles.svg	29	yes	53	1	621
6.6.1	win	2022-12-14	14:58:38	15:02:46	245142	62b055b8af4eda974466ad0d	746825687	1	main_slash	7	advance_on_keypress_SLASH	24	stimuli_distractor_diamondtriangles.svg	stimuli_target_trianglecircles.svg	29	yes	57	0	517
6.6.1	win	2022-12-14	14:58:38	15:02:48	247461	62b055b8af4eda974466ad0d	746825687	1	main_slash	7	main_slash	25	stimuli_target_circlediamonds.svg	stimuli_distractor_diamondtriangles.svg	6	yes	53	1	1141
6.6.1	win	2022-12-14	14:58:38	15:02:48	247461	62b055b8af4eda974466ad0d	746825687	1	main_slash	7	advance_on_keypress_SLASH	26	stimuli_target_circlediamonds.svg	stimuli_distractor_diamondtriangles.svg	6	yes	57	0	508
6.6.1	win	2022-12-14	14:58:38	15:02:50	249362	62b055b8af4eda974466ad0d	746825687	1	main_slash	7	main_slash	27	stimuli_target_trianglesquares.svg	stimuli_distractor_diamondtriangles.svg	22	yes	53	1	730
6.6.1	win	2022-12-14	14:58:38	15:02:50	249362	62b055b8af4eda974466ad0d	746825687	1	main_slash	7	advance_on_keypress_SLASH	28	stimuli_target_trianglesquares.svg	stimuli_distractor_diamondtriangles.svg	22	yes	57	0	388
6.6.1	win	2022-12-14	14:58:38	15:02:52	251112	62b055b8af4eda974466ad0d	746825687	1	main_slash	7	main_slash	29	stimuli_target_diamondcircles.svg	stimuli_distractor_trianglediamonds.svg	19	yes	53	1	701
6.6.1	win	2022-12-14	14:58:38	15:02:52	251112	62b055b8af4eda974466ad0d	746825687	1	main_slash	7	advance_on_keypress_SLASH	30	stimuli_target_diamondcircles.svg	stimuli_distractor_trianglediamonds.svg	19	yes	57	0	377
6.6.1	win	2022-12-14	14:58:38	15:02:55	254150	62b055b8af4eda974466ad0d	746825687	1	main_slash	7	main_slash	31	stimuli_distractor_diamondtriangles.svg	stimuli_distractor_diamondtriangles.svg	39	no	0	1	2000
6.6.1	win	2022-12-14	14:58:38	15:02:55	254150	62b055b8af4eda974466ad0d	746825687	1	main_slash	7	advance_on_keypress_SLASH	32	stimuli_distractor_diamondtriangles.svg	stimuli_distractor_diamondtriangles.svg	39	no	57	0	760
6.6.1	win	2022-12-14	14:58:38	15:02:57	256191	62b055b8af4eda974466ad0d	746825687	1	main_slash	7	main_slash	33	stimuli_target_trianglecircles.svg	stimuli_distractor_diamondtriangles.svg	21	yes	53	1	620
6.6.1	win	2022-12-14	14:58:38	15:02:57	256191	62b055b8af4eda974466ad0d	746825687	1	main_slash	7	advance_on_keypress_SLASH	34	stimuli_target_trianglecircles.svg	stimuli_distractor_diamondtriangles.svg	21	yes	57	0	348
6.6.1	win	2022-12-14	14:58:38	15:03:00	259200	62b055b8af4eda974466ad0d	746825687	1	main_slash	7	main_slash	35	stimuli_distractor_trianglediamonds.svg	stimuli_distractor_trianglediamonds.svg	34	no	0	1	2000
6.6.1	win	2022-12-14	14:58:38	15:03:00	259200	62b055b8af4eda974466ad0d	746825687	1	main_slash	7	advance_on_keypress_SLASH	36	stimuli_distractor_trianglediamonds.svg	stimuli_distractor_trianglediamonds.svg	34	no	57	0	700
6.6.1	win	2022-12-14	14:58:38	15:03:03	262554	62b055b8af4eda974466ad0d	746825687	1	main_slash	7	main_slash	37	stimuli_distractor_trianglediamonds.svg	stimuli_distractor_diamondtriangles.svg	35	no	0	1	2000
6.6.1	win	2022-12-14	14:58:38	15:03:03	262554	62b055b8af4eda974466ad0d	746825687	1	main_slash	7	advance_on_keypress_SLASH	38	stimuli_distractor_trianglediamonds.svg	stimuli_distractor_diamondtriangles.svg	35	no	57	0	616
6.6.1	win	2022-12-14	14:58:38	15:03:06	265832	62b055b8af4eda974466ad0d	746825687	1	main_slash	7	main_slash	39	stimuli_distractor_diamondtriangles.svg	stimuli_distractor_trianglediamonds.svg	38	no	0	1	2000
6.6.1	win	2022-12-14	14:58:38	15:03:06	265832	62b055b8af4eda974466ad0d	746825687	1	main_slash	7	advance_on_keypress_SLASH	40	stimuli_distractor_diamondtriangles.svg	stimuli_distractor_trianglediamonds.svg	38	no	57	0	599
6.6.1	win	2022-12-14	14:58:38	15:03:08	267832	62b055b8af4eda974466ad0d	746825687	1	main_slash	7	main_slash	41	stimuli_distractor_trianglediamonds.svg	stimuli_target_squarediamonds.svg	12	yes	53	1	741
6.6.1	win	2022-12-14	14:58:38	15:03:08	267832	62b055b8af4eda974466ad0d	746825687	1	main_slash	7	advance_on_keypress_SLASH	42	stimuli_distractor_trianglediamonds.svg	stimuli_target_squarediamonds.svg	12	yes	57	0	317
6.6.1	win	2022-12-14	14:58:38	15:03:10	269551	62b055b8af4eda974466ad0d	746825687	1	main_slash	7	main_slash	43	stimuli_distractor_trianglediamonds.svg	stimuli_target_circlediamonds.svg	10	yes	53	1	741
6.6.1	win	2022-12-14	14:58:38	15:03:10	269551	62b055b8af4eda974466ad0d	746825687	1	main_slash	7	advance_on_keypress_SLASH	44	stimuli_distractor_trianglediamonds.svg	stimuli_target_circlediamonds.svg	10	yes	57	0	288
6.6.1	win	2022-12-14	14:58:38	15:03:12	271361	62b055b8af4eda974466ad0d	746825687	1	main_slash	7	main_slash	45	stimuli_target_circlediamonds.svg	stimuli_distractor_trianglediamonds.svg	2	yes	53	1	861
6.6.1	win	2022-12-14	14:58:38	15:03:12	271361	62b055b8af4eda974466ad0d	746825687	1	main_slash	7	advance_on_keypress_SLASH	46	stimuli_target_circlediamonds.svg	stimuli_distractor_trianglediamonds.svg	2	yes	57	0	318
6.6.1	win	2022-12-14	14:58:38	15:03:14	272992	62b055b8af4eda974466ad0d	746825687	1	main_slash	7	main_slash	47	stimuli_distractor_trianglediamonds.svg	stimuli_target_circletriangles.svg	9	yes	53	1	651
6.6.1	win	2022-12-14	14:58:38	15:03:14	272992	62b055b8af4eda974466ad0d	746825687	1	main_slash	7	advance_on_keypress_SLASH	48	stimuli_distractor_trianglediamonds.svg	stimuli_target_circletriangles.svg	9	yes	57	0	308
6.6.1	win	2022-12-14	14:58:38	15:03:17	275960	62b055b8af4eda974466ad0d	746825687	1	main_slash	7	main_slash	49	stimuli_distractor_diamondtriangles.svg	stimuli_distractor_trianglediamonds.svg	37	no	0	1	2000
6.6.1	win	2022-12-14	14:58:38	15:03:17	275960	62b055b8af4eda974466ad0d	746825687	1	main_slash	7	advance_on_keypress_SLASH	50	stimuli_distractor_diamondtriangles.svg	stimuli_distractor_trianglediamonds.svg	37	no	57	0	709
6.6.1	win	2022-12-14	14:58:38	15:03:20	279022	62b055b8af4eda974466ad0d	746825687	1	main_slash	7	main_slash	51	stimuli_distractor_trianglediamonds.svg	stimuli_target_diamondcircles.svg	27	yes	53	1	1692
6.6.1	win	2022-12-14	14:58:38	15:03:20	279022	62b055b8af4eda974466ad0d	746825687	1	main_slash	7	advance_on_keypress_SLASH	52	stimuli_distractor_trianglediamonds.svg	stimuli_target_diamondcircles.svg	27	yes	57	0	227
6.6.1	win	2022-12-14	14:58:38	15:03:21	280912	62b055b8af4eda974466ad0d	746825687	1	main_slash	7	main_slash	53	stimuli_distractor_diamondtriangles.svg	stimuli_target_diamondsquares.svg	32	yes	53	1	1001
6.6.1	win	2022-12-14	14:58:38	15:03:21	280912	62b055b8af4eda974466ad0d	746825687	1	main_slash	7	advance_on_keypress_SLASH	54	stimuli_distractor_diamondtriangles.svg	stimuli_target_diamondsquares.svg	32	yes	57	0	278
6.6.1	win	2022-12-14	14:58:38	15:03:23	282812	62b055b8af4eda974466ad0d	746825687	1	main_slash	7	main_slash	55	stimuli_target_diamondsquares.svg	stimuli_distractor_trianglediamonds.svg	20	yes	53	1	962
6.6.1	win	2022-12-14	14:58:38	15:03:23	282812	62b055b8af4eda974466ad0d	746825687	1	main_slash	7	advance_on_keypress_SLASH	56	stimuli_target_diamondsquares.svg	stimuli_distractor_trianglediamonds.svg	20	yes	57	0	288
6.6.1	win	2022-12-14	14:58:38	15:03:26	285760	62b055b8af4eda974466ad0d	746825687	1	main_slash	7	main_slash	57	stimuli_target_squarediamonds.svg	stimuli_distractor_trianglediamonds.svg	4	yes	0	0	2000
6.6.1	win	2022-12-14	14:58:38	15:03:26	285760	62b055b8af4eda974466ad0d	746825687	1	main_slash	7	advance_on_keypress_SLASH	58	stimuli_target_squarediamonds.svg	stimuli_distractor_trianglediamonds.svg	4	yes	57	0	680
6.6.1	win	2022-12-14	14:58:38	15:03:30	289101	62b055b8af4eda974466ad0d	746825687	1	main_slash	7	main_slash	59	stimuli_distractor_trianglediamonds.svg	stimuli_distractor_trianglediamonds.svg	33	no	0	1	2000
6.6.1	win	2022-12-14	14:58:38	15:03:30	289101	62b055b8af4eda974466ad0d	746825687	1	main_slash	7	advance_on_keypress_SLASH	60	stimuli_distractor_trianglediamonds.svg	stimuli_distractor_trianglediamonds.svg	33	no	57	0	679
6.6.1	win	2022-12-14	14:58:38	15:03:32	291041	62b055b8af4eda974466ad0d	746825687	1	main_slash	7	main_slash	61	stimuli_distractor_diamondtriangles.svg	stimuli_target_diamondcircles.svg	31	yes	53	1	600
6.6.1	win	2022-12-14	14:58:38	15:03:32	291041	62b055b8af4eda974466ad0d	746825687	1	main_slash	7	advance_on_keypress_SLASH	62	stimuli_distractor_diamondtriangles.svg	stimuli_target_diamondcircles.svg	31	yes	57	0	298
6.6.1	win	2022-12-14	14:58:38	15:03:33	292712	62b055b8af4eda974466ad0d	746825687	1	main_slash	7	main_slash	63	stimuli_target_squarediamonds.svg	stimuli_distractor_diamondtriangles.svg	8	yes	53	1	711
6.6.1	win	2022-12-14	14:58:38	15:03:33	292712	62b055b8af4eda974466ad0d	746825687	1	main_slash	7	advance_on_keypress_SLASH	64	stimuli_target_squarediamonds.svg	stimuli_distractor_diamondtriangles.svg	8	yes	57	0	248
6.6.1	win	2022-12-14	14:58:38	15:03:35	294431	62b055b8af4eda974466ad0d	746825687	1	main_slash	7	main_slash	65	stimuli_distractor_diamondtriangles.svg	stimuli_target_trianglesquares.svg	30	yes	53	1	811
6.6.1	win	2022-12-14	14:58:38	15:03:35	294431	62b055b8af4eda974466ad0d	746825687	1	main_slash	7	advance_on_keypress_SLASH	66	stimuli_distractor_diamondtriangles.svg	stimuli_target_trianglesquares.svg	30	yes	57	0	248
6.6.1	win	2022-12-14	14:58:38	15:03:38	297339	62b055b8af4eda974466ad0d	746825687	1	main_slash	7	main_slash	67	stimuli_distractor_diamondtriangles.svg	stimuli_distractor_diamondtriangles.svg	40	no	0	1	2000
6.6.1	win	2022-12-14	14:58:38	15:03:38	297339	62b055b8af4eda974466ad0d	746825687	1	main_slash	7	advance_on_keypress_SLASH	68	stimuli_distractor_diamondtriangles.svg	stimuli_distractor_diamondtriangles.svg	40	no	57	0	521
6.6.1	win	2022-12-14	14:58:38	15:03:40	299231	62b055b8af4eda974466ad0d	746825687	1	main_slash	7	main_slash	69	stimuli_distractor_trianglediamonds.svg	stimuli_target_squaretriangles.svg	11	yes	53	1	710
6.6.1	win	2022-12-14	14:58:38	15:03:40	299231	62b055b8af4eda974466ad0d	746825687	1	main_slash	7	advance_on_keypress_SLASH	70	stimuli_distractor_trianglediamonds.svg	stimuli_target_squaretriangles.svg	11	yes	57	0	318
6.6.1	win	2022-12-14	14:58:38	15:03:41	300942	62b055b8af4eda974466ad0d	746825687	1	main_slash	7	main_slash	71	stimuli_distractor_trianglediamonds.svg	stimuli_target_diamondsquares.svg	28	yes	53	1	732
6.6.1	win	2022-12-14	14:58:38	15:03:41	300942	62b055b8af4eda974466ad0d	746825687	1	main_slash	7	advance_on_keypress_SLASH	72	stimuli_distractor_trianglediamonds.svg	stimuli_target_diamondsquares.svg	28	yes	57	0	288
6.6.1	win	2022-12-14	14:58:38	15:03:43	302612	62b055b8af4eda974466ad0d	746825687	1	main_slash	7	main_slash	73	stimuli_distractor_diamondtriangles.svg	stimuli_target_circlediamonds.svg	14	yes	53	1	722
6.6.1	win	2022-12-14	14:58:38	15:03:43	302612	62b055b8af4eda974466ad0d	746825687	1	main_slash	7	advance_on_keypress_SLASH	74	stimuli_distractor_diamondtriangles.svg	stimuli_target_circlediamonds.svg	14	yes	57	0	257
6.6.1	win	2022-12-14	14:58:38	15:03:45	304363	62b055b8af4eda974466ad0d	746825687	1	main_slash	7	main_slash	75	stimuli_target_squaretriangles.svg	stimuli_distractor_diamondtriangles.svg	7	yes	53	1	831
6.6.1	win	2022-12-14	14:58:38	15:03:45	304363	62b055b8af4eda974466ad0d	746825687	1	main_slash	7	advance_on_keypress_SLASH	76	stimuli_target_squaretriangles.svg	stimuli_distractor_diamondtriangles.svg	7	yes	57	0	217
6.6.1	win	2022-12-14	14:58:38	15:03:46	305881	62b055b8af4eda974466ad0d	746825687	1	main_slash	7	main_slash	77	stimuli_target_circletriangles.svg	stimuli_distractor_diamondtriangles.svg	5	yes	53	1	642
6.6.1	win	2022-12-14	14:58:38	15:03:46	305881	62b055b8af4eda974466ad0d	746825687	1	main_slash	7	advance_on_keypress_SLASH	78	stimuli_target_circletriangles.svg	stimuli_distractor_diamondtriangles.svg	5	yes	57	0	248
6.6.1	win	2022-12-14	14:58:38	15:03:48	307441	62b055b8af4eda974466ad0d	746825687	1	main_slash	7	main_slash	79	stimuli_distractor_diamondtriangles.svg	stimuli_target_squarediamonds.svg	16	yes	53	1	651
6.6.1	win	2022-12-14	14:58:38	15:03:48	307441	62b055b8af4eda974466ad0d	746825687	1	main_slash	7	advance_on_keypress_SLASH	80	stimuli_distractor_diamondtriangles.svg	stimuli_target_squarediamonds.svg	16	yes	57	0	218
6.6.1	win	2022-12-14	14:58:38	15:03:50	309072	62b055b8af4eda974466ad0d	746825687	1	main_slash	7	main_slash	81	stimuli_target_circlediamonds.svg	stimuli_distractor_trianglediamonds.svg	2	yes	53	1	752
6.6.1	win	2022-12-14	14:58:38	15:03:50	309072	62b055b8af4eda974466ad0d	746825687	1	main_slash	7	advance_on_keypress_SLASH	82	stimuli_target_circlediamonds.svg	stimuli_distractor_trianglediamonds.svg	2	yes	57	0	277
6.6.1	win	2022-12-14	14:58:38	15:03:51	310781	62b055b8af4eda974466ad0d	746825687	1	main_slash	7	main_slash	83	stimuli_target_circletriangles.svg	stimuli_distractor_trianglediamonds.svg	1	yes	53	1	772
6.6.1	win	2022-12-14	14:58:38	15:03:51	310781	62b055b8af4eda974466ad0d	746825687	1	main_slash	7	advance_on_keypress_SLASH	84	stimuli_target_circletriangles.svg	stimuli_distractor_trianglediamonds.svg	1	yes	57	0	268
6.6.1	win	2022-12-14	14:58:38	15:03:53	312232	62b055b8af4eda974466ad0d	746825687	1	main_slash	7	main_slash	85	stimuli_target_circlediamonds.svg	stimuli_distractor_diamondtriangles.svg	6	yes	53	1	522
6.6.1	win	2022-12-14	14:58:38	15:03:53	312232	62b055b8af4eda974466ad0d	746825687	1	main_slash	7	advance_on_keypress_SLASH	86	stimuli_target_circlediamonds.svg	stimuli_distractor_diamondtriangles.svg	6	yes	57	0	223
6.6.1	win	2022-12-14	14:58:38	15:03:56	315109	62b055b8af4eda974466ad0d	746825687	1	main_slash	7	main_slash	87	stimuli_distractor_trianglediamonds.svg	stimuli_target_squaretriangles.svg	11	yes	0	0	2000
6.6.1	win	2022-12-14	14:58:38	15:03:56	315109	62b055b8af4eda974466ad0d	746825687	1	main_slash	7	advance_on_keypress_SLASH	88	stimuli_distractor_trianglediamonds.svg	stimuli_target_squaretriangles.svg	11	yes	57	0	610
6.6.1	win	2022-12-14	14:58:38	15:03:58	317081	62b055b8af4eda974466ad0d	746825687	1	main_slash	7	main_slash	89	stimuli_distractor_trianglediamonds.svg	stimuli_target_circletriangles.svg	9	yes	53	1	701
6.6.1	win	2022-12-14	14:58:38	15:03:58	317081	62b055b8af4eda974466ad0d	746825687	1	main_slash	7	advance_on_keypress_SLASH	90	stimuli_distractor_trianglediamonds.svg	stimuli_target_circletriangles.svg	9	yes	57	0	288
6.6.1	win	2022-12-14	14:58:38	15:03:59	318721	62b055b8af4eda974466ad0d	746825687	1	main_slash	7	main_slash	91	stimuli_distractor_trianglediamonds.svg	stimuli_target_trianglesquares.svg	26	yes	53	1	691
6.6.1	win	2022-12-14	14:58:38	15:03:59	318721	62b055b8af4eda974466ad0d	746825687	1	main_slash	7	advance_on_keypress_SLASH	92	stimuli_distractor_trianglediamonds.svg	stimuli_target_trianglesquares.svg	26	yes	57	0	308
6.6.1	win	2022-12-14	14:58:38	15:04:02	321690	62b055b8af4eda974466ad0d	746825687	1	main_slash	7	main_slash	93	stimuli_distractor_diamondtriangles.svg	stimuli_distractor_trianglediamonds.svg	38	no	0	1	2000
6.6.1	win	2022-12-14	14:58:38	15:04:02	321690	62b055b8af4eda974466ad0d	746825687	1	main_slash	7	advance_on_keypress_SLASH	94	stimuli_distractor_diamondtriangles.svg	stimuli_distractor_trianglediamonds.svg	38	no	57	0	401
6.6.1	win	2022-12-14	14:58:38	15:04:04	323701	62b055b8af4eda974466ad0d	746825687	1	main_slash	7	main_slash	95	stimuli_distractor_diamondtriangles.svg	stimuli_target_diamondcircles.svg	31	yes	53	1	951
6.6.1	win	2022-12-14	14:58:38	15:04:04	323701	62b055b8af4eda974466ad0d	746825687	1	main_slash	7	advance_on_keypress_SLASH	96	stimuli_distractor_diamondtriangles.svg	stimuli_target_diamondcircles.svg	31	yes	57	0	238
6.6.1	win	2022-12-14	14:58:38	15:04:06	325191	62b055b8af4eda974466ad0d	746825687	1	main_slash	7	main_slash	97	stimuli_distractor_diamondtriangles.svg	stimuli_target_circlediamonds.svg	14	yes	53	1	591
6.6.1	win	2022-12-14	14:58:38	15:04:06	325191	62b055b8af4eda974466ad0d	746825687	1	main_slash	7	advance_on_keypress_SLASH	98	stimuli_distractor_diamondtriangles.svg	stimuli_target_circlediamonds.svg	14	yes	57	0	306
6.6.1	win	2022-12-14	14:58:38	15:04:07	326701	62b055b8af4eda974466ad0d	746825687	1	main_slash	7	main_slash	99	stimuli_distractor_trianglediamonds.svg	stimuli_target_diamondcircles.svg	27	yes	53	1	551
6.6.1	win	2022-12-14	14:58:38	15:04:07	326701	62b055b8af4eda974466ad0d	746825687	1	main_slash	7	advance_on_keypress_SLASH	100	stimuli_distractor_trianglediamonds.svg	stimuli_target_diamondcircles.svg	27	yes	57	0	280
6.6.1	win	2022-12-14	14:58:38	15:04:09	328552	62b055b8af4eda974466ad0d	746825687	1	main_slash	7	main_slash	101	stimuli_target_squaretriangles.svg	stimuli_distractor_trianglediamonds.svg	3	yes	53	1	912
6.6.1	win	2022-12-14	14:58:38	15:04:09	328552	62b055b8af4eda974466ad0d	746825687	1	main_slash	7	advance_on_keypress_SLASH	102	stimuli_target_squaretriangles.svg	stimuli_distractor_trianglediamonds.svg	3	yes	57	0	358
6.6.1	win	2022-12-14	14:58:38	15:04:11	330252	62b055b8af4eda974466ad0d	746825687	1	main_slash	7	main_slash	103	stimuli_distractor_trianglediamonds.svg	stimuli_target_trianglecircles.svg	25	yes	53	1	682
6.6.1	win	2022-12-14	14:58:38	15:04:11	330252	62b055b8af4eda974466ad0d	746825687	1	main_slash	7	advance_on_keypress_SLASH	104	stimuli_distractor_trianglediamonds.svg	stimuli_target_trianglecircles.svg	25	yes	57	0	238
6.6.1	win	2022-12-14	14:58:38	15:04:12	331792	62b055b8af4eda974466ad0d	746825687	1	main_slash	7	main_slash	105	stimuli_distractor_diamondtriangles.svg	stimuli_target_squaretriangles.svg	15	yes	53	1	642
6.6.1	win	2022-12-14	14:58:38	15:04:12	331792	62b055b8af4eda974466ad0d	746825687	1	main_slash	7	advance_on_keypress_SLASH	106	stimuli_distractor_diamondtriangles.svg	stimuli_target_squaretriangles.svg	15	yes	57	0	238
6.6.1	win	2022-12-14	14:58:38	15:04:14	333281	62b055b8af4eda974466ad0d	746825687	1	main_slash	7	main_slash	107	stimuli_target_diamondcircles.svg	stimuli_distractor_trianglediamonds.svg	19	yes	53	1	592
6.6.1	win	2022-12-14	14:58:38	15:04:14	333281	62b055b8af4eda974466ad0d	746825687	1	main_slash	7	advance_on_keypress_SLASH	108	stimuli_target_diamondcircles.svg	stimuli_distractor_trianglediamonds.svg	19	yes	57	0	257
6.6.1	win	2022-12-14	14:58:38	15:04:17	336190	62b055b8af4eda974466ad0d	746825687	1	main_slash	7	main_slash	109	stimuli_distractor_diamondtriangles.svg	stimuli_distractor_trianglediamonds.svg	37	no	0	1	2000
6.6.1	win	2022-12-14	14:58:38	15:04:17	336190	62b055b8af4eda974466ad0d	746825687	1	main_slash	7	advance_on_keypress_SLASH	110	stimuli_distractor_diamondtriangles.svg	stimuli_distractor_trianglediamonds.svg	37	no	57	0	639
6.6.1	win	2022-12-14	14:58:38	15:04:20	339490	62b055b8af4eda974466ad0d	746825687	1	main_slash	7	main_slash	111	stimuli_distractor_trianglediamonds.svg	stimuli_distractor_diamondtriangles.svg	35	no	0	1	2000
6.6.1	win	2022-12-14	14:58:38	15:04:20	339490	62b055b8af4eda974466ad0d	746825687	1	main_slash	7	advance_on_keypress_SLASH	112	stimuli_distractor_trianglediamonds.svg	stimuli_distractor_diamondtriangles.svg	35	no	57	0	461
6.6.1	win	2022-12-14	14:58:38	15:04:22	341281	62b055b8af4eda974466ad0d	746825687	1	main_slash	7	main_slash	113	stimuli_distractor_diamondtriangles.svg	stimuli_target_trianglecircles.svg	29	yes	53	1	671
6.6.1	win	2022-12-14	14:58:38	15:04:22	341281	62b055b8af4eda974466ad0d	746825687	1	main_slash	7	advance_on_keypress_SLASH	114	stimuli_distractor_diamondtriangles.svg	stimuli_target_trianglecircles.svg	29	yes	57	0	198
6.6.1	win	2022-12-14	14:58:38	15:04:23	342791	62b055b8af4eda974466ad0d	746825687	1	main_slash	7	main_slash	115	stimuli_distractor_trianglediamonds.svg	stimuli_target_diamondsquares.svg	28	yes	53	1	655
6.6.1	win	2022-12-14	14:58:38	15:04:23	342791	62b055b8af4eda974466ad0d	746825687	1	main_slash	7	advance_on_keypress_SLASH	116	stimuli_distractor_trianglediamonds.svg	stimuli_target_diamondsquares.svg	28	yes	57	0	209
6.6.1	win	2022-12-14	14:58:38	15:04:25	344481	62b055b8af4eda974466ad0d	746825687	1	main_slash	7	main_slash	117	stimuli_distractor_trianglediamonds.svg	stimuli_target_circlediamonds.svg	10	yes	53	1	835
6.6.1	win	2022-12-14	14:58:38	15:04:25	344481	62b055b8af4eda974466ad0d	746825687	1	main_slash	7	advance_on_keypress_SLASH	118	stimuli_distractor_trianglediamonds.svg	stimuli_target_circlediamonds.svg	10	yes	57	0	208
6.6.1	win	2022-12-14	14:58:38	15:04:27	346031	62b055b8af4eda974466ad0d	746825687	1	main_slash	7	main_slash	119	stimuli_target_squarediamonds.svg	stimuli_distractor_diamondtriangles.svg	8	yes	53	1	695
6.6.1	win	2022-12-14	14:58:38	15:04:27	346031	62b055b8af4eda974466ad0d	746825687	1	main_slash	7	advance_on_keypress_SLASH	120	stimuli_target_squarediamonds.svg	stimuli_distractor_diamondtriangles.svg	8	yes	57	0	248
6.6.1	win	2022-12-14	14:58:38	15:04:28	347481	62b055b8af4eda974466ad0d	746825687	1	main_slash	7	main_slash	121	stimuli_distractor_diamondtriangles.svg	stimuli_target_squarediamonds.svg	16	yes	53	1	541
6.6.1	win	2022-12-14	14:58:38	15:04:28	347481	62b055b8af4eda974466ad0d	746825687	1	main_slash	7	advance_on_keypress_SLASH	122	stimuli_distractor_diamondtriangles.svg	stimuli_target_squarediamonds.svg	16	yes	57	0	266
6.6.1	win	2022-12-14	14:58:38	15:04:31	350400	62b055b8af4eda974466ad0d	746825687	1	main_slash	7	main_slash	123	stimuli_distractor_trianglediamonds.svg	stimuli_distractor_diamondtriangles.svg	36	no	0	1	2000
6.6.1	win	2022-12-14	14:58:38	15:04:31	350400	62b055b8af4eda974466ad0d	746825687	1	main_slash	7	advance_on_keypress_SLASH	124	stimuli_distractor_trianglediamonds.svg	stimuli_distractor_diamondtriangles.svg	36	no	57	0	1150
6.6.1	win	2022-12-14	14:58:38	15:04:34	353012	62b055b8af4eda974466ad0d	746825687	1	main_slash	7	main_slash	125	stimuli_distractor_trianglediamonds.svg	stimuli_target_squarediamonds.svg	12	yes	53	1	801
6.6.1	win	2022-12-14	14:58:38	15:04:34	353012	62b055b8af4eda974466ad0d	746825687	1	main_slash	7	advance_on_keypress_SLASH	126	stimuli_distractor_trianglediamonds.svg	stimuli_target_squarediamonds.svg	12	yes	57	0	278
6.6.1	win	2022-12-14	14:58:38	15:04:37	355950	62b055b8af4eda974466ad0d	746825687	1	main_slash	7	main_slash	127	stimuli_distractor_trianglediamonds.svg	stimuli_distractor_trianglediamonds.svg	33	no	0	1	2000
6.6.1	win	2022-12-14	14:58:38	15:04:37	355950	62b055b8af4eda974466ad0d	746825687	1	main_slash	7	advance_on_keypress_SLASH	128	stimuli_distractor_trianglediamonds.svg	stimuli_distractor_trianglediamonds.svg	33	no	57	0	689
6.6.1	win	2022-12-14	14:58:38	15:04:39	358021	62b055b8af4eda974466ad0d	746825687	1	main_slash	7	main_slash	129	stimuli_target_diamondsquares.svg	stimuli_distractor_trianglediamonds.svg	20	yes	53	1	721
6.6.1	win	2022-12-14	14:58:38	15:04:39	358021	62b055b8af4eda974466ad0d	746825687	1	main_slash	7	advance_on_keypress_SLASH	130	stimuli_target_diamondsquares.svg	stimuli_distractor_trianglediamonds.svg	20	yes	57	0	298
6.6.1	win	2022-12-14	14:58:38	15:04:40	359530	62b055b8af4eda974466ad0d	746825687	1	main_slash	7	main_slash	131	stimuli_distractor_diamondtriangles.svg	stimuli_target_diamondsquares.svg	32	yes	53	1	552
6.6.1	win	2022-12-14	14:58:38	15:04:40	359530	62b055b8af4eda974466ad0d	746825687	1	main_slash	7	advance_on_keypress_SLASH	132	stimuli_distractor_diamondtriangles.svg	stimuli_target_diamondsquares.svg	32	yes	57	0	231
6.6.1	win	2022-12-14	14:58:38	15:04:42	360942	62b055b8af4eda974466ad0d	746825687	1	main_slash	7	main_slash	133	stimuli_target_trianglecircles.svg	stimuli_distractor_diamondtriangles.svg	21	yes	53	1	521
6.6.1	win	2022-12-14	14:58:38	15:04:42	360942	62b055b8af4eda974466ad0d	746825687	1	main_slash	7	advance_on_keypress_SLASH	134	stimuli_target_trianglecircles.svg	stimuli_distractor_diamondtriangles.svg	21	yes	57	0	223
6.6.1	win	2022-12-14	14:58:38	15:04:43	362451	62b055b8af4eda974466ad0d	746825687	1	main_slash	7	main_slash	135	stimuli_target_squarediamonds.svg	stimuli_distractor_trianglediamonds.svg	4	yes	53	1	632
6.6.1	win	2022-12-14	14:58:38	15:04:43	362451	62b055b8af4eda974466ad0d	746825687	1	main_slash	7	advance_on_keypress_SLASH	136	stimuli_target_squarediamonds.svg	stimuli_distractor_trianglediamonds.svg	4	yes	57	0	199
6.6.1	win	2022-12-14	14:58:38	15:04:44	363840	62b055b8af4eda974466ad0d	746825687	1	main_slash	7	main_slash	137	stimuli_target_trianglesquares.svg	stimuli_distractor_trianglediamonds.svg	18	yes	53	1	535
6.6.1	win	2022-12-14	14:58:38	15:04:44	363840	62b055b8af4eda974466ad0d	746825687	1	main_slash	7	advance_on_keypress_SLASH	138	stimuli_target_trianglesquares.svg	stimuli_distractor_trianglediamonds.svg	18	yes	57	0	260
6.6.1	win	2022-12-14	14:58:38	15:04:46	365310	62b055b8af4eda974466ad0d	746825687	1	main_slash	7	main_slash	139	stimuli_target_trianglesquares.svg	stimuli_distractor_diamondtriangles.svg	22	yes	53	1	552
6.6.1	win	2022-12-14	14:58:38	15:04:46	365310	62b055b8af4eda974466ad0d	746825687	1	main_slash	7	advance_on_keypress_SLASH	140	stimuli_target_trianglesquares.svg	stimuli_distractor_diamondtriangles.svg	22	yes	57	0	210
6.6.1	win	2022-12-14	14:58:38	15:04:47	366710	62b055b8af4eda974466ad0d	746825687	1	main_slash	7	main_slash	141	stimuli_target_circletriangles.svg	stimuli_distractor_diamondtriangles.svg	5	yes	53	1	532
6.6.1	win	2022-12-14	14:58:38	15:04:47	366710	62b055b8af4eda974466ad0d	746825687	1	main_slash	7	advance_on_keypress_SLASH	142	stimuli_target_circletriangles.svg	stimuli_distractor_diamondtriangles.svg	5	yes	57	0	264
6.6.1	win	2022-12-14	14:58:38	15:04:50	369620	62b055b8af4eda974466ad0d	746825687	1	main_slash	7	main_slash	143	stimuli_distractor_trianglediamonds.svg	stimuli_distractor_trianglediamonds.svg	34	no	0	1	2000
6.6.1	win	2022-12-14	14:58:38	15:04:50	369620	62b055b8af4eda974466ad0d	746825687	1	main_slash	7	advance_on_keypress_SLASH	144	stimuli_distractor_trianglediamonds.svg	stimuli_distractor_trianglediamonds.svg	34	no	57	0	549
6.6.1	win	2022-12-14	14:58:38	15:04:52	371353	62b055b8af4eda974466ad0d	746825687	1	main_slash	7	main_slash	145	stimuli_distractor_diamondtriangles.svg	stimuli_target_trianglesquares.svg	30	yes	53	1	521
6.6.1	win	2022-12-14	14:58:38	15:04:52	371353	62b055b8af4eda974466ad0d	746825687	1	main_slash	7	advance_on_keypress_SLASH	146	stimuli_distractor_diamondtriangles.svg	stimuli_target_trianglesquares.svg	30	yes	57	0	233
6.6.1	win	2022-12-14	14:58:38	15:04:55	374239	62b055b8af4eda974466ad0d	746825687	1	main_slash	7	main_slash	147	stimuli_distractor_diamondtriangles.svg	stimuli_distractor_diamondtriangles.svg	40	no	0	1	2000
6.6.1	win	2022-12-14	14:58:38	15:04:55	374239	62b055b8af4eda974466ad0d	746825687	1	main_slash	7	advance_on_keypress_SLASH	148	stimuli_distractor_diamondtriangles.svg	stimuli_distractor_diamondtriangles.svg	40	no	57	0	561
6.6.1	win	2022-12-14	14:58:38	15:04:57	376201	62b055b8af4eda974466ad0d	746825687	1	main_slash	7	main_slash	149	stimuli_target_squaretriangles.svg	stimuli_distractor_diamondtriangles.svg	7	yes	53	1	741
6.6.1	win	2022-12-14	14:58:38	15:04:57	376201	62b055b8af4eda974466ad0d	746825687	1	main_slash	7	advance_on_keypress_SLASH	150	stimuli_target_squaretriangles.svg	stimuli_distractor_diamondtriangles.svg	7	yes	57	0	219
6.6.1	win	2022-12-14	14:58:38	15:04:58	377831	62b055b8af4eda974466ad0d	746825687	1	main_slash	7	main_slash	151	stimuli_target_diamondcircles.svg	stimuli_distractor_diamondtriangles.svg	23	yes	53	1	752
6.6.1	win	2022-12-14	14:58:38	15:04:58	377831	62b055b8af4eda974466ad0d	746825687	1	main_slash	7	advance_on_keypress_SLASH	152	stimuli_target_diamondcircles.svg	stimuli_distractor_diamondtriangles.svg	23	yes	57	0	268
6.6.1	win	2022-12-14	14:58:38	15:05:00	379320	62b055b8af4eda974466ad0d	746825687	1	main_slash	7	main_slash	153	stimuli_target_diamondsquares.svg	stimuli_distractor_diamondtriangles.svg	24	yes	53	1	562
6.6.1	win	2022-12-14	14:58:38	15:05:00	379320	62b055b8af4eda974466ad0d	746825687	1	main_slash	7	advance_on_keypress_SLASH	154	stimuli_target_diamondsquares.svg	stimuli_distractor_diamondtriangles.svg	24	yes	57	0	250
6.6.1	win	2022-12-14	14:58:38	15:05:03	382219	62b055b8af4eda974466ad0d	746825687	1	main_slash	7	main_slash	155	stimuli_distractor_diamondtriangles.svg	stimuli_distractor_diamondtriangles.svg	39	no	0	1	2000
6.6.1	win	2022-12-14	14:58:38	15:05:03	382219	62b055b8af4eda974466ad0d	746825687	1	main_slash	7	advance_on_keypress_SLASH	156	stimuli_distractor_diamondtriangles.svg	stimuli_distractor_diamondtriangles.svg	39	no	57	0	411
6.6.1	win	2022-12-14	14:58:38	15:05:05	384011	62b055b8af4eda974466ad0d	746825687	1	main_slash	7	main_slash	157	stimuli_target_trianglecircles.svg	stimuli_distractor_trianglediamonds.svg	17	yes	53	1	721
6.6.1	win	2022-12-14	14:58:38	15:05:05	384011	62b055b8af4eda974466ad0d	746825687	1	main_slash	7	advance_on_keypress_SLASH	158	stimuli_target_trianglecircles.svg	stimuli_distractor_trianglediamonds.svg	17	yes	57	0	259
6.6.1	win	2022-12-14	14:58:38	15:05:06	385410	62b055b8af4eda974466ad0d	746825687	1	main_slash	7	main_slash	159	stimuli_distractor_diamondtriangles.svg	stimuli_target_circletriangles.svg	13	yes	53	1	482
6.6.1	win	2022-12-14	14:58:38	15:05:06	385410	62b055b8af4eda974466ad0d	746825687	1	main_slash	7	advance_on_keypress_SLASH	160	stimuli_distractor_diamondtriangles.svg	stimuli_target_circletriangles.svg	13	yes	57	0	234
6.6.1	win	2022-12-14	14:58:38	15:05:25	404245	62b055b8af4eda974466ad0d	746825687	1	practice_z	9	practice_z	1	stimuli_distractor_trianglediamonds.svg	stimuli_target_diamondcircles.svg	12	yes	44	1	668
6.6.1	win	2022-12-14	14:58:38	15:05:25	404245	62b055b8af4eda974466ad0d	746825687	1	practice_z	9	advance_on_keypress_ZEE	2	stimuli_distractor_trianglediamonds.svg	stimuli_target_diamondcircles.svg	12	yes	57	0	445
6.6.1	win	2022-12-14	14:58:38	15:05:28	407005	62b055b8af4eda974466ad0d	746825687	1	practice_z	9	practice_z	3	stimuli_target_diamondsquares.svg	stimuli_distractor_diamondtriangles.svg	3	yes	44	1	651
6.6.1	win	2022-12-14	14:58:38	15:05:28	407005	62b055b8af4eda974466ad0d	746825687	1	practice_z	9	advance_on_keypress_ZEE	4	stimuli_target_diamondsquares.svg	stimuli_distractor_diamondtriangles.svg	3	yes	57	0	395
6.6.1	win	2022-12-14	14:58:38	15:05:31	409955	62b055b8af4eda974466ad0d	746825687	1	practice_z	9	practice_z	5	stimuli_target_squarediamonds.svg	stimuli_distractor_diamondtriangles.svg	2	yes	44	1	890
6.6.1	win	2022-12-14	14:58:38	15:05:31	409955	62b055b8af4eda974466ad0d	746825687	1	practice_z	9	advance_on_keypress_ZEE	6	stimuli_target_squarediamonds.svg	stimuli_distractor_diamondtriangles.svg	2	yes	57	0	274
6.6.1	win	2022-12-14	14:58:38	15:05:33	412665	62b055b8af4eda974466ad0d	746825687	1	practice_z	9	practice_z	7	stimuli_target_diamondsquares.svg	stimuli_distractor_trianglediamonds.svg	6	yes	44	1	772
6.6.1	win	2022-12-14	14:58:38	15:05:33	412665	62b055b8af4eda974466ad0d	746825687	1	practice_z	9	advance_on_keypress_ZEE	8	stimuli_target_diamondsquares.svg	stimuli_distractor_trianglediamonds.svg	6	yes	57	0	375
6.6.1	win	2022-12-14	14:58:38	15:05:36	415424	62b055b8af4eda974466ad0d	746825687	1	practice_z	9	practice_z	9	stimuli_target_circlediamonds.svg	stimuli_distractor_diamondtriangles.svg	1	yes	44	1	722
6.6.1	win	2022-12-14	14:58:38	15:05:36	415424	62b055b8af4eda974466ad0d	746825687	1	practice_z	9	advance_on_keypress_ZEE	10	stimuli_target_circlediamonds.svg	stimuli_distractor_diamondtriangles.svg	1	yes	57	0	265
6.6.1	win	2022-12-14	14:58:38	15:05:38	417871	62b055b8af4eda974466ad0d	746825687	1	practice_z	9	practice_z	11	stimuli_target_circlediamonds.svg	stimuli_distractor_trianglediamonds.svg	4	yes	44	1	504
6.6.1	win	2022-12-14	14:58:38	15:05:38	417871	62b055b8af4eda974466ad0d	746825687	1	practice_z	9	advance_on_keypress_ZEE	12	stimuli_target_circlediamonds.svg	stimuli_distractor_trianglediamonds.svg	4	yes	57	0	499
6.6.1	win	2022-12-14	14:58:38	15:05:41	420854	62b055b8af4eda974466ad0d	746825687	1	practice_z	9	practice_z	13	stimuli_distractor_trianglediamonds.svg	stimuli_target_circlediamonds.svg	10	yes	44	1	822
6.6.1	win	2022-12-14	14:58:38	15:05:41	420854	62b055b8af4eda974466ad0d	746825687	1	practice_z	9	advance_on_keypress_ZEE	14	stimuli_distractor_trianglediamonds.svg	stimuli_target_circlediamonds.svg	10	yes	57	0	455
6.6.1	win	2022-12-14	14:58:38	15:05:44	423634	62b055b8af4eda974466ad0d	746825687	1	practice_z	9	practice_z	15	stimuli_distractor_diamondtriangles.svg	stimuli_target_circletriangles.svg	7	yes	44	1	662
6.6.1	win	2022-12-14	14:58:38	15:05:44	423634	62b055b8af4eda974466ad0d	746825687	1	practice_z	9	advance_on_keypress_ZEE	16	stimuli_distractor_diamondtriangles.svg	stimuli_target_circletriangles.svg	7	yes	57	0	385
6.6.1	win	2022-12-14	14:58:38	15:05:48	427682	62b055b8af4eda974466ad0d	746825687	1	practice_z	9	practice_z	17	stimuli_distractor_trianglediamonds.svg	stimuli_distractor_trianglediamonds.svg	15	no	0	1	2000
6.6.1	win	2022-12-14	14:58:38	15:05:48	427682	62b055b8af4eda974466ad0d	746825687	1	practice_z	9	advance_on_keypress_ZEE	18	stimuli_distractor_trianglediamonds.svg	stimuli_distractor_trianglediamonds.svg	15	no	57	0	798
6.6.1	win	2022-12-14	14:58:38	15:05:52	431134	62b055b8af4eda974466ad0d	746825687	1	practice_z	9	practice_z	19	stimuli_distractor_diamondtriangles.svg	stimuli_target_diamondcircles.svg	8	yes	44	1	991
6.6.1	win	2022-12-14	14:58:38	15:05:52	431134	62b055b8af4eda974466ad0d	746825687	1	practice_z	9	advance_on_keypress_ZEE	20	stimuli_distractor_diamondtriangles.svg	stimuli_target_diamondcircles.svg	8	yes	57	0	435
6.6.1	win	2022-12-14	14:58:38	15:05:55	434284	62b055b8af4eda974466ad0d	746825687	1	practice_z	9	practice_z	21	stimuli_target_squarediamonds.svg	stimuli_distractor_trianglediamonds.svg	5	yes	44	1	1052
6.6.1	win	2022-12-14	14:58:38	15:05:55	434284	62b055b8af4eda974466ad0d	746825687	1	practice_z	9	advance_on_keypress_ZEE	22	stimuli_target_squarediamonds.svg	stimuli_distractor_trianglediamonds.svg	5	yes	57	0	405
6.6.1	win	2022-12-14	14:58:38	15:05:59	438354	62b055b8af4eda974466ad0d	746825687	1	practice_z	9	practice_z	23	stimuli_distractor_diamondtriangles.svg	stimuli_distractor_trianglediamonds.svg	14	no	0	1	2000
6.6.1	win	2022-12-14	14:58:38	15:05:59	438354	62b055b8af4eda974466ad0d	746825687	1	practice_z	9	advance_on_keypress_ZEE	24	stimuli_distractor_diamondtriangles.svg	stimuli_distractor_trianglediamonds.svg	14	no	57	0	727
6.6.1	win	2022-12-14	14:58:38	15:06:03	442744	62b055b8af4eda974466ad0d	746825687	1	practice_z	9	practice_z	25	stimuli_distractor_diamondtriangles.svg	stimuli_distractor_diamondtriangles.svg	13	no	0	1	2000
6.6.1	win	2022-12-14	14:58:38	15:06:03	442744	62b055b8af4eda974466ad0d	746825687	1	practice_z	9	advance_on_keypress_ZEE	26	stimuli_distractor_diamondtriangles.svg	stimuli_distractor_diamondtriangles.svg	13	no	57	0	715
6.6.1	win	2022-12-14	14:58:38	15:06:06	445915	62b055b8af4eda974466ad0d	746825687	1	practice_z	9	practice_z	27	stimuli_distractor_trianglediamonds.svg	stimuli_target_squarediamonds.svg	11	yes	44	1	791
6.6.1	win	2022-12-14	14:58:38	15:06:06	445915	62b055b8af4eda974466ad0d	746825687	1	practice_z	9	advance_on_keypress_ZEE	28	stimuli_distractor_trianglediamonds.svg	stimuli_target_squarediamonds.svg	11	yes	57	0	344
6.6.1	win	2022-12-14	14:58:38	15:06:09	448704	62b055b8af4eda974466ad0d	746825687	1	practice_z	9	practice_z	29	stimuli_distractor_diamondtriangles.svg	stimuli_target_trianglecircles.svg	9	yes	44	1	782
6.6.1	win	2022-12-14	14:58:38	15:06:09	448704	62b055b8af4eda974466ad0d	746825687	1	practice_z	9	advance_on_keypress_ZEE	30	stimuli_distractor_diamondtriangles.svg	stimuli_target_trianglecircles.svg	9	yes	57	0	545
6.6.1	win	2022-12-14	14:58:38	15:06:13	452913	62b055b8af4eda974466ad0d	746825687	1	practice_z	9	practice_z	31	stimuli_distractor_trianglediamonds.svg	stimuli_distractor_diamondtriangles.svg	16	no	0	1	2000
6.6.1	win	2022-12-14	14:58:38	15:06:13	452913	62b055b8af4eda974466ad0d	746825687	1	practice_z	9	advance_on_keypress_ZEE	32	stimuli_distractor_trianglediamonds.svg	stimuli_distractor_diamondtriangles.svg	16	no	57	0	657
6.6.1	win	2022-12-14	14:58:38	15:06:28	467761	62b055b8af4eda974466ad0d	746825687	1	main_z	11	main_z	1	stimuli_target_trianglecircles.svg	stimuli_distractor_diamondtriangles.svg	21	yes	44	1	695
6.6.1	win	2022-12-14	14:58:38	15:06:28	467761	62b055b8af4eda974466ad0d	746825687	1	main_z	11	advance_on_keypress_ZEE	2	stimuli_target_trianglecircles.svg	stimuli_distractor_diamondtriangles.svg	21	yes	57	0	789
6.6.1	win	2022-12-14	14:58:38	15:06:30	469740	62b055b8af4eda974466ad0d	746825687	1	main_z	11	main_z	3	stimuli_target_circlediamonds.svg	stimuli_distractor_trianglediamonds.svg	2	yes	44	1	532
6.6.1	win	2022-12-14	14:58:38	15:06:30	469740	62b055b8af4eda974466ad0d	746825687	1	main_z	11	advance_on_keypress_ZEE	4	stimuli_target_circlediamonds.svg	stimuli_distractor_trianglediamonds.svg	2	yes	57	0	457
6.6.1	win	2022-12-14	14:58:38	15:06:32	471490	62b055b8af4eda974466ad0d	746825687	1	main_z	11	main_z	5	stimuli_distractor_diamondtriangles.svg	stimuli_target_circletriangles.svg	13	yes	44	1	632
6.6.1	win	2022-12-14	14:58:38	15:06:32	471490	62b055b8af4eda974466ad0d	746825687	1	main_z	11	advance_on_keypress_ZEE	6	stimuli_distractor_diamondtriangles.svg	stimuli_target_circletriangles.svg	13	yes	57	0	319
6.6.1	win	2022-12-14	14:58:38	15:06:34	473181	62b055b8af4eda974466ad0d	746825687	1	main_z	11	main_z	7	stimuli_distractor_trianglediamonds.svg	stimuli_target_diamondcircles.svg	27	yes	44	1	712
6.6.1	win	2022-12-14	14:58:38	15:06:34	473181	62b055b8af4eda974466ad0d	746825687	1	main_z	11	advance_on_keypress_ZEE	8	stimuli_distractor_trianglediamonds.svg	stimuli_target_diamondcircles.svg	27	yes	57	0	388
6.6.1	win	2022-12-14	14:58:38	15:06:36	475271	62b055b8af4eda974466ad0d	746825687	1	main_z	11	main_z	9	stimuli_target_squaretriangles.svg	stimuli_distractor_diamondtriangles.svg	7	yes	44	1	1042
6.6.1	win	2022-12-14	14:58:38	15:06:36	475271	62b055b8af4eda974466ad0d	746825687	1	main_z	11	advance_on_keypress_ZEE	10	stimuli_target_squaretriangles.svg	stimuli_distractor_diamondtriangles.svg	7	yes	57	0	528
6.6.1	win	2022-12-14	14:58:38	15:06:39	478459	62b055b8af4eda974466ad0d	746825687	1	main_z	11	main_z	11	stimuli_distractor_diamondtriangles.svg	stimuli_distractor_diamondtriangles.svg	40	no	0	1	2000
6.6.1	win	2022-12-14	14:58:38	15:06:39	478459	62b055b8af4eda974466ad0d	746825687	1	main_z	11	advance_on_keypress_ZEE	12	stimuli_distractor_diamondtriangles.svg	stimuli_distractor_diamondtriangles.svg	40	no	57	0	400
6.6.1	win	2022-12-14	14:58:38	15:06:41	480300	62b055b8af4eda974466ad0d	746825687	1	main_z	11	main_z	13	stimuli_distractor_trianglediamonds.svg	stimuli_target_circlediamonds.svg	10	yes	44	1	781
6.6.1	win	2022-12-14	14:58:38	15:06:41	480300	62b055b8af4eda974466ad0d	746825687	1	main_z	11	advance_on_keypress_ZEE	14	stimuli_distractor_trianglediamonds.svg	stimuli_target_circlediamonds.svg	10	yes	57	0	349
6.6.1	win	2022-12-14	14:58:38	15:06:44	483091	62b055b8af4eda974466ad0d	746825687	1	main_z	11	main_z	15	stimuli_target_trianglesquares.svg	stimuli_distractor_trianglediamonds.svg	18	yes	44	1	1782
6.6.1	win	2022-12-14	14:58:38	15:06:44	483091	62b055b8af4eda974466ad0d	746825687	1	main_z	11	advance_on_keypress_ZEE	16	stimuli_target_trianglesquares.svg	stimuli_distractor_trianglediamonds.svg	18	yes	57	0	1388
6.6.1	win	2022-12-14	14:58:38	15:06:47	486881	62b055b8af4eda974466ad0d	746825687	1	main_z	11	main_z	17	stimuli_target_squarediamonds.svg	stimuli_distractor_diamondtriangles.svg	8	yes	44	1	1740
6.6.1	win	2022-12-14	14:58:38	15:06:47	486881	62b055b8af4eda974466ad0d	746825687	1	main_z	11	advance_on_keypress_ZEE	18	stimuli_target_squarediamonds.svg	stimuli_distractor_diamondtriangles.svg	8	yes	57	0	998
6.6.1	win	2022-12-14	14:58:38	15:06:50	489681	62b055b8af4eda974466ad0d	746825687	1	main_z	11	main_z	19	stimuli_target_trianglecircles.svg	stimuli_distractor_trianglediamonds.svg	17	yes	44	1	1142
6.6.1	win	2022-12-14	14:58:38	15:06:50	489681	62b055b8af4eda974466ad0d	746825687	1	main_z	11	advance_on_keypress_ZEE	20	stimuli_target_trianglecircles.svg	stimuli_distractor_trianglediamonds.svg	17	yes	57	0	558
6.6.1	win	2022-12-14	14:58:38	15:06:52	491550	62b055b8af4eda974466ad0d	746825687	1	main_z	11	main_z	21	stimuli_distractor_diamondtriangles.svg	stimuli_target_diamondsquares.svg	32	yes	44	1	652
6.6.1	win	2022-12-14	14:58:38	15:06:52	491550	62b055b8af4eda974466ad0d	746825687	1	main_z	11	advance_on_keypress_ZEE	22	stimuli_distractor_diamondtriangles.svg	stimuli_target_diamondsquares.svg	32	yes	57	0	848
6.6.1	win	2022-12-14	14:58:38	15:06:54	493780	62b055b8af4eda974466ad0d	746825687	1	main_z	11	main_z	23	stimuli_target_squaretriangles.svg	stimuli_distractor_trianglediamonds.svg	3	yes	44	1	721
6.6.1	win	2022-12-14	14:58:38	15:06:54	493780	62b055b8af4eda974466ad0d	746825687	1	main_z	11	advance_on_keypress_ZEE	24	stimuli_target_squaretriangles.svg	stimuli_distractor_trianglediamonds.svg	3	yes	57	0	379
6.6.1	win	2022-12-14	14:58:38	15:06:56	495571	62b055b8af4eda974466ad0d	746825687	1	main_z	11	main_z	25	stimuli_distractor_trianglediamonds.svg	stimuli_target_squarediamonds.svg	12	yes	44	1	752
6.6.1	win	2022-12-14	14:58:38	15:06:56	495571	62b055b8af4eda974466ad0d	746825687	1	main_z	11	advance_on_keypress_ZEE	26	stimuli_distractor_trianglediamonds.svg	stimuli_target_squarediamonds.svg	12	yes	57	0	358
6.6.1	win	2022-12-14	14:58:38	15:06:59	498589	62b055b8af4eda974466ad0d	746825687	1	main_z	11	main_z	27	stimuli_distractor_diamondtriangles.svg	stimuli_distractor_diamondtriangles.svg	39	no	0	1	2000
6.6.1	win	2022-12-14	14:58:38	15:06:59	498589	62b055b8af4eda974466ad0d	746825687	1	main_z	11	advance_on_keypress_ZEE	28	stimuli_distractor_diamondtriangles.svg	stimuli_distractor_diamondtriangles.svg	39	no	57	0	391
6.6.1	win	2022-12-14	14:58:38	15:07:02	501640	62b055b8af4eda974466ad0d	746825687	1	main_z	11	main_z	29	stimuli_distractor_diamondtriangles.svg	stimuli_distractor_trianglediamonds.svg	37	no	0	1	2000
6.6.1	win	2022-12-14	14:58:38	15:07:02	501640	62b055b8af4eda974466ad0d	746825687	1	main_z	11	advance_on_keypress_ZEE	30	stimuli_distractor_diamondtriangles.svg	stimuli_distractor_trianglediamonds.svg	37	no	57	0	360
6.6.1	win	2022-12-14	14:58:38	15:07:04	503531	62b055b8af4eda974466ad0d	746825687	1	main_z	11	main_z	31	stimuli_distractor_diamondtriangles.svg	stimuli_target_diamondcircles.svg	31	yes	44	1	871
6.6.1	win	2022-12-14	14:58:38	15:07:04	503531	62b055b8af4eda974466ad0d	746825687	1	main_z	11	advance_on_keypress_ZEE	32	stimuli_distractor_diamondtriangles.svg	stimuli_target_diamondcircles.svg	31	yes	57	0	338
6.6.1	win	2022-12-14	14:58:38	15:07:06	505451	62b055b8af4eda974466ad0d	746825687	1	main_z	11	main_z	33	stimuli_distractor_trianglediamonds.svg	stimuli_target_squaretriangles.svg	11	yes	44	1	922
6.6.1	win	2022-12-14	14:58:38	15:07:06	505451	62b055b8af4eda974466ad0d	746825687	1	main_z	11	advance_on_keypress_ZEE	34	stimuli_distractor_trianglediamonds.svg	stimuli_target_squaretriangles.svg	11	yes	57	0	328
6.6.1	win	2022-12-14	14:58:38	15:07:08	507130	62b055b8af4eda974466ad0d	746825687	1	main_z	11	main_z	35	stimuli_distractor_trianglediamonds.svg	stimuli_target_circletriangles.svg	9	yes	44	1	691
6.6.1	win	2022-12-14	14:58:38	15:07:08	507130	62b055b8af4eda974466ad0d	746825687	1	main_z	11	advance_on_keypress_ZEE	36	stimuli_distractor_trianglediamonds.svg	stimuli_target_circletriangles.svg	9	yes	57	0	338
6.6.1	win	2022-12-14	14:58:38	15:07:09	508860	62b055b8af4eda974466ad0d	746825687	1	main_z	11	main_z	37	stimuli_target_diamondcircles.svg	stimuli_distractor_diamondtriangles.svg	23	yes	44	1	731
6.6.1	win	2022-12-14	14:58:38	15:07:09	508860	62b055b8af4eda974466ad0d	746825687	1	main_z	11	advance_on_keypress_ZEE	38	stimuli_target_diamondcircles.svg	stimuli_distractor_diamondtriangles.svg	23	yes	57	0	338
6.6.1	win	2022-12-14	14:58:38	15:07:11	510571	62b055b8af4eda974466ad0d	746825687	1	main_z	11	main_z	39	stimuli_distractor_diamondtriangles.svg	stimuli_target_squarediamonds.svg	16	yes	44	1	711
6.6.1	win	2022-12-14	14:58:38	15:07:11	510571	62b055b8af4eda974466ad0d	746825687	1	main_z	11	advance_on_keypress_ZEE	40	stimuli_distractor_diamondtriangles.svg	stimuli_target_squarediamonds.svg	16	yes	57	0	268
6.6.1	win	2022-12-14	14:58:38	15:07:14	513499	62b055b8af4eda974466ad0d	746825687	1	main_z	11	main_z	41	stimuli_distractor_trianglediamonds.svg	stimuli_distractor_trianglediamonds.svg	34	no	0	1	2000
6.6.1	win	2022-12-14	14:58:38	15:07:14	513499	62b055b8af4eda974466ad0d	746825687	1	main_z	11	advance_on_keypress_ZEE	42	stimuli_distractor_trianglediamonds.svg	stimuli_distractor_trianglediamonds.svg	34	no	57	0	710
6.6.1	win	2022-12-14	14:58:38	15:07:17	516461	62b055b8af4eda974466ad0d	746825687	1	main_z	11	main_z	43	stimuli_distractor_trianglediamonds.svg	stimuli_target_diamondsquares.svg	28	yes	44	1	1591
6.6.1	win	2022-12-14	14:58:38	15:07:17	516461	62b055b8af4eda974466ad0d	746825687	1	main_z	11	advance_on_keypress_ZEE	44	stimuli_distractor_trianglediamonds.svg	stimuli_target_diamondsquares.svg	28	yes	57	0	197
6.6.1	win	2022-12-14	14:58:38	15:07:20	519316	62b055b8af4eda974466ad0d	746825687	1	main_z	11	main_z	45	stimuli_distractor_trianglediamonds.svg	stimuli_distractor_diamondtriangles.svg	35	no	0	1	2000
6.6.1	win	2022-12-14	14:58:38	15:07:20	519316	62b055b8af4eda974466ad0d	746825687	1	main_z	11	advance_on_keypress_ZEE	46	stimuli_distractor_trianglediamonds.svg	stimuli_distractor_diamondtriangles.svg	35	no	57	0	633
6.6.1	win	2022-12-14	14:58:38	15:07:22	521340	62b055b8af4eda974466ad0d	746825687	1	main_z	11	main_z	47	stimuli_distractor_diamondtriangles.svg	stimuli_target_squaretriangles.svg	15	yes	44	1	731
6.6.1	win	2022-12-14	14:58:38	15:07:22	521340	62b055b8af4eda974466ad0d	746825687	1	main_z	11	advance_on_keypress_ZEE	48	stimuli_distractor_diamondtriangles.svg	stimuli_target_squaretriangles.svg	15	yes	57	0	298
6.6.1	win	2022-12-14	14:58:38	15:07:24	523461	62b055b8af4eda974466ad0d	746825687	1	main_z	11	main_z	49	stimuli_target_diamondsquares.svg	stimuli_distractor_trianglediamonds.svg	20	yes	44	1	1161
6.6.1	win	2022-12-14	14:58:38	15:07:24	523461	62b055b8af4eda974466ad0d	746825687	1	main_z	11	advance_on_keypress_ZEE	50	stimuli_target_diamondsquares.svg	stimuli_distractor_trianglediamonds.svg	20	yes	57	0	438
6.6.1	win	2022-12-14	14:58:38	15:07:26	525311	62b055b8af4eda974466ad0d	746825687	1	main_z	11	main_z	51	stimuli_target_trianglesquares.svg	stimuli_distractor_diamondtriangles.svg	22	yes	44	1	751
6.6.1	win	2022-12-14	14:58:38	15:07:26	525311	62b055b8af4eda974466ad0d	746825687	1	main_z	11	advance_on_keypress_ZEE	52	stimuli_target_trianglesquares.svg	stimuli_distractor_diamondtriangles.svg	22	yes	57	0	368
6.6.1	win	2022-12-14	14:58:38	15:07:28	527060	62b055b8af4eda974466ad0d	746825687	1	main_z	11	main_z	53	stimuli_distractor_trianglediamonds.svg	stimuli_target_trianglecircles.svg	25	yes	44	1	721
6.6.1	win	2022-12-14	14:58:38	15:07:28	527060	62b055b8af4eda974466ad0d	746825687	1	main_z	11	advance_on_keypress_ZEE	54	stimuli_distractor_trianglediamonds.svg	stimuli_target_trianglecircles.svg	25	yes	57	0	258
6.6.1	win	2022-12-14	14:58:38	15:07:31	529979	62b055b8af4eda974466ad0d	746825687	1	main_z	11	main_z	55	stimuli_distractor_trianglediamonds.svg	stimuli_distractor_diamondtriangles.svg	36	no	0	1	2000
6.6.1	win	2022-12-14	14:58:38	15:07:31	529979	62b055b8af4eda974466ad0d	746825687	1	main_z	11	advance_on_keypress_ZEE	56	stimuli_distractor_trianglediamonds.svg	stimuli_distractor_diamondtriangles.svg	36	no	57	0	580
6.6.1	win	2022-12-14	14:58:38	15:07:33	532070	62b055b8af4eda974466ad0d	746825687	1	main_z	11	main_z	57	stimuli_distractor_diamondtriangles.svg	stimuli_target_trianglesquares.svg	30	yes	44	1	851
6.6.1	win	2022-12-14	14:58:38	15:07:33	532070	62b055b8af4eda974466ad0d	746825687	1	main_z	11	advance_on_keypress_ZEE	58	stimuli_distractor_diamondtriangles.svg	stimuli_target_trianglesquares.svg	30	yes	57	0	318
6.6.1	win	2022-12-14	14:58:38	15:07:34	533890	62b055b8af4eda974466ad0d	746825687	1	main_z	11	main_z	59	stimuli_target_diamondsquares.svg	stimuli_distractor_diamondtriangles.svg	24	yes	44	1	842
6.6.1	win	2022-12-14	14:58:38	15:07:34	533890	62b055b8af4eda974466ad0d	746825687	1	main_z	11	advance_on_keypress_ZEE	60	stimuli_target_diamondsquares.svg	stimuli_distractor_diamondtriangles.svg	24	yes	57	0	218
6.6.1	win	2022-12-14	14:58:38	15:07:36	535540	62b055b8af4eda974466ad0d	746825687	1	main_z	11	main_z	61	stimuli_target_circletriangles.svg	stimuli_distractor_trianglediamonds.svg	1	yes	44	1	771
6.6.1	win	2022-12-14	14:58:38	15:07:36	535540	62b055b8af4eda974466ad0d	746825687	1	main_z	11	advance_on_keypress_ZEE	62	stimuli_target_circletriangles.svg	stimuli_distractor_trianglediamonds.svg	1	yes	57	0	178
6.6.1	win	2022-12-14	14:58:38	15:07:38	537130	62b055b8af4eda974466ad0d	746825687	1	main_z	11	main_z	63	stimuli_distractor_diamondtriangles.svg	stimuli_target_trianglecircles.svg	29	yes	44	1	751
6.6.1	win	2022-12-14	14:58:38	15:07:38	537130	62b055b8af4eda974466ad0d	746825687	1	main_z	11	advance_on_keypress_ZEE	64	stimuli_distractor_diamondtriangles.svg	stimuli_target_trianglecircles.svg	29	yes	57	0	148
6.6.1	win	2022-12-14	14:58:38	15:07:40	539936	62b055b8af4eda974466ad0d	746825687	1	main_z	11	main_z	65	stimuli_distractor_trianglediamonds.svg	stimuli_distractor_trianglediamonds.svg	33	no	0	1	2000
6.6.1	win	2022-12-14	14:58:38	15:07:40	539936	62b055b8af4eda974466ad0d	746825687	1	main_z	11	advance_on_keypress_ZEE	66	stimuli_distractor_trianglediamonds.svg	stimuli_distractor_trianglediamonds.svg	33	no	57	0	703
6.6.1	win	2022-12-14	14:58:38	15:07:44	543300	62b055b8af4eda974466ad0d	746825687	1	main_z	11	main_z	67	stimuli_distractor_diamondtriangles.svg	stimuli_distractor_trianglediamonds.svg	38	no	0	1	2000
6.6.1	win	2022-12-14	14:58:38	15:07:44	543300	62b055b8af4eda974466ad0d	746825687	1	main_z	11	advance_on_keypress_ZEE	68	stimuli_distractor_diamondtriangles.svg	stimuli_distractor_trianglediamonds.svg	38	no	57	0	919
6.6.1	win	2022-12-14	14:58:38	15:07:46	545520	62b055b8af4eda974466ad0d	746825687	1	main_z	11	main_z	69	stimuli_target_squarediamonds.svg	stimuli_distractor_trianglediamonds.svg	4	yes	44	1	646
6.6.1	win	2022-12-14	14:58:38	15:07:46	545520	62b055b8af4eda974466ad0d	746825687	1	main_z	11	advance_on_keypress_ZEE	70	stimuli_target_squarediamonds.svg	stimuli_distractor_trianglediamonds.svg	4	yes	57	0	216
6.6.1	win	2022-12-14	14:58:38	15:07:48	547029	62b055b8af4eda974466ad0d	746825687	1	main_z	11	main_z	71	stimuli_distractor_diamondtriangles.svg	stimuli_target_circlediamonds.svg	14	yes	44	1	646
6.6.1	win	2022-12-14	14:58:38	15:07:48	547029	62b055b8af4eda974466ad0d	746825687	1	main_z	11	advance_on_keypress_ZEE	72	stimuli_distractor_diamondtriangles.svg	stimuli_target_circlediamonds.svg	14	yes	57	0	187
6.6.1	win	2022-12-14	14:58:38	15:07:49	548500	62b055b8af4eda974466ad0d	746825687	1	main_z	11	main_z	73	stimuli_distractor_trianglediamonds.svg	stimuli_target_trianglesquares.svg	26	yes	44	1	622
6.6.1	win	2022-12-14	14:58:38	15:07:49	548500	62b055b8af4eda974466ad0d	746825687	1	main_z	11	advance_on_keypress_ZEE	74	stimuli_distractor_trianglediamonds.svg	stimuli_target_trianglesquares.svg	26	yes	57	0	189
6.6.1	win	2022-12-14	14:58:38	15:07:51	549961	62b055b8af4eda974466ad0d	746825687	1	main_z	11	main_z	75	stimuli_target_diamondcircles.svg	stimuli_distractor_trianglediamonds.svg	19	yes	44	1	622
6.6.1	win	2022-12-14	14:58:38	15:07:51	549961	62b055b8af4eda974466ad0d	746825687	1	main_z	11	advance_on_keypress_ZEE	76	stimuli_target_diamondcircles.svg	stimuli_distractor_trianglediamonds.svg	19	yes	57	0	218
6.6.1	win	2022-12-14	14:58:38	15:07:52	551520	62b055b8af4eda974466ad0d	746825687	1	main_z	11	main_z	77	stimuli_target_circlediamonds.svg	stimuli_distractor_diamondtriangles.svg	6	yes	44	1	680
6.6.1	win	2022-12-14	14:58:38	15:07:52	551520	62b055b8af4eda974466ad0d	746825687	1	main_z	11	advance_on_keypress_ZEE	78	stimuli_target_circlediamonds.svg	stimuli_distractor_diamondtriangles.svg	6	yes	57	0	178
6.6.1	win	2022-12-14	14:58:38	15:07:54	552950	62b055b8af4eda974466ad0d	746825687	1	main_z	11	main_z	79	stimuli_target_circletriangles.svg	stimuli_distractor_diamondtriangles.svg	5	yes	44	1	592
6.6.1	win	2022-12-14	14:58:38	15:07:54	552950	62b055b8af4eda974466ad0d	746825687	1	main_z	11	advance_on_keypress_ZEE	80	stimuli_target_circletriangles.svg	stimuli_distractor_diamondtriangles.svg	5	yes	57	0	207
6.6.1	win	2022-12-14	14:58:38	15:07:55	554300	62b055b8af4eda974466ad0d	746825687	1	main_z	11	main_z	81	stimuli_target_circlediamonds.svg	stimuli_distractor_trianglediamonds.svg	2	yes	44	1	492
6.6.1	win	2022-12-14	14:58:38	15:07:55	554300	62b055b8af4eda974466ad0d	746825687	1	main_z	11	advance_on_keypress_ZEE	82	stimuli_target_circlediamonds.svg	stimuli_distractor_trianglediamonds.svg	2	yes	57	0	208
6.6.1	win	2022-12-14	14:58:38	15:07:56	555900	62b055b8af4eda974466ad0d	746825687	1	main_z	11	main_z	83	stimuli_target_squaretriangles.svg	stimuli_distractor_diamondtriangles.svg	7	yes	44	1	742
6.6.1	win	2022-12-14	14:58:38	15:07:56	555900	62b055b8af4eda974466ad0d	746825687	1	main_z	11	advance_on_keypress_ZEE	84	stimuli_target_squaretriangles.svg	stimuli_distractor_diamondtriangles.svg	7	yes	57	0	138
6.6.1	win	2022-12-14	14:58:38	15:07:59	558688	62b055b8af4eda974466ad0d	746825687	1	main_z	11	main_z	85	stimuli_distractor_diamondtriangles.svg	stimuli_distractor_trianglediamonds.svg	37	no	0	1	2000
6.6.1	win	2022-12-14	14:58:38	15:07:59	558688	62b055b8af4eda974466ad0d	746825687	1	main_z	11	advance_on_keypress_ZEE	86	stimuli_distractor_diamondtriangles.svg	stimuli_distractor_trianglediamonds.svg	37	no	57	0	601
6.6.1	win	2022-12-14	14:58:38	15:08:01	560670	62b055b8af4eda974466ad0d	746825687	1	main_z	11	main_z	87	stimuli_distractor_diamondtriangles.svg	stimuli_target_squaretriangles.svg	15	yes	44	1	720
6.6.1	win	2022-12-14	14:58:38	15:08:01	560670	62b055b8af4eda974466ad0d	746825687	1	main_z	11	advance_on_keypress_ZEE	88	stimuli_distractor_diamondtriangles.svg	stimuli_target_squaretriangles.svg	15	yes	57	0	228
6.6.1	win	2022-12-14	14:58:38	15:08:03	562110	62b055b8af4eda974466ad0d	746825687	1	main_z	11	main_z	89	stimuli_distractor_diamondtriangles.svg	stimuli_target_circlediamonds.svg	14	yes	44	1	551
6.6.1	win	2022-12-14	14:58:38	15:08:03	562110	62b055b8af4eda974466ad0d	746825687	1	main_z	11	advance_on_keypress_ZEE	90	stimuli_distractor_diamondtriangles.svg	stimuli_target_circlediamonds.svg	14	yes	57	0	210
6.6.1	win	2022-12-14	14:58:38	15:08:04	563497	62b055b8af4eda974466ad0d	746825687	1	main_z	11	main_z	91	stimuli_target_circlediamonds.svg	stimuli_distractor_diamondtriangles.svg	6	yes	44	1	504
6.6.1	win	2022-12-14	14:58:38	15:08:04	563497	62b055b8af4eda974466ad0d	746825687	1	main_z	11	advance_on_keypress_ZEE	92	stimuli_target_circlediamonds.svg	stimuli_distractor_diamondtriangles.svg	6	yes	57	0	203
6.6.1	win	2022-12-14	14:58:38	15:08:05	564830	62b055b8af4eda974466ad0d	746825687	1	main_z	11	main_z	93	stimuli_distractor_trianglediamonds.svg	stimuli_distractor_trianglediamonds.svg	34	no	44	0	471
6.6.1	win	2022-12-14	14:58:38	15:08:05	564830	62b055b8af4eda974466ad0d	746825687	1	main_z	11	advance_on_keypress_ZEE	94	stimuli_distractor_trianglediamonds.svg	stimuli_distractor_trianglediamonds.svg	34	no	57	0	1533
6.6.1	win	2022-12-14	14:58:38	15:08:10	569020	62b055b8af4eda974466ad0d	746825687	1	main_z	11	main_z	95	stimuli_distractor_diamondtriangles.svg	stimuli_distractor_diamondtriangles.svg	40	no	0	1	2000
6.6.1	win	2022-12-14	14:58:38	15:08:10	569020	62b055b8af4eda974466ad0d	746825687	1	main_z	11	advance_on_keypress_ZEE	96	stimuli_distractor_diamondtriangles.svg	stimuli_distractor_diamondtriangles.svg	40	no	57	0	599
6.6.1	win	2022-12-14	14:58:38	15:08:12	570990	62b055b8af4eda974466ad0d	746825687	1	main_z	11	main_z	97	stimuli_target_trianglecircles.svg	stimuli_distractor_diamondtriangles.svg	21	yes	44	1	711
6.6.1	win	2022-12-14	14:58:38	15:08:12	570990	62b055b8af4eda974466ad0d	746825687	1	main_z	11	advance_on_keypress_ZEE	98	stimuli_target_trianglecircles.svg	stimuli_distractor_diamondtriangles.svg	21	yes	57	0	188
6.6.1	win	2022-12-14	14:58:38	15:08:13	572460	62b055b8af4eda974466ad0d	746825687	1	main_z	11	main_z	99	stimuli_target_diamondcircles.svg	stimuli_distractor_diamondtriangles.svg	23	yes	44	1	632
6.6.1	win	2022-12-14	14:58:38	15:08:13	572460	62b055b8af4eda974466ad0d	746825687	1	main_z	11	advance_on_keypress_ZEE	100	stimuli_target_diamondcircles.svg	stimuli_distractor_diamondtriangles.svg	23	yes	57	0	158
6.6.1	win	2022-12-14	14:58:38	15:08:15	573960	62b055b8af4eda974466ad0d	746825687	1	main_z	11	main_z	101	stimuli_distractor_trianglediamonds.svg	stimuli_target_circletriangles.svg	9	yes	44	1	695
6.6.1	win	2022-12-14	14:58:38	15:08:15	573960	62b055b8af4eda974466ad0d	746825687	1	main_z	11	advance_on_keypress_ZEE	102	stimuli_distractor_trianglediamonds.svg	stimuli_target_circletriangles.svg	9	yes	57	0	160
6.6.1	win	2022-12-14	14:58:38	15:08:16	575410	62b055b8af4eda974466ad0d	746825687	1	main_z	11	main_z	103	stimuli_target_squarediamonds.svg	stimuli_distractor_diamondtriangles.svg	8	yes	44	1	647
6.6.1	win	2022-12-14	14:58:38	15:08:16	575410	62b055b8af4eda974466ad0d	746825687	1	main_z	11	advance_on_keypress_ZEE	104	stimuli_target_squarediamonds.svg	stimuli_distractor_diamondtriangles.svg	8	yes	57	0	178
6.6.1	win	2022-12-14	14:58:38	15:08:18	577050	62b055b8af4eda974466ad0d	746825687	1	main_z	11	main_z	105	stimuli_distractor_trianglediamonds.svg	stimuli_target_diamondcircles.svg	27	yes	44	1	801
6.6.1	win	2022-12-14	14:58:38	15:08:18	577050	62b055b8af4eda974466ad0d	746825687	1	main_z	11	advance_on_keypress_ZEE	106	stimuli_distractor_trianglediamonds.svg	stimuli_target_diamondcircles.svg	27	yes	57	0	198
6.6.1	win	2022-12-14	14:58:38	15:08:20	579905	62b055b8af4eda974466ad0d	746825687	1	main_z	11	main_z	107	stimuli_distractor_trianglediamonds.svg	stimuli_distractor_trianglediamonds.svg	33	no	0	1	2000
6.6.1	win	2022-12-14	14:58:38	15:08:20	579905	62b055b8af4eda974466ad0d	746825687	1	main_z	11	advance_on_keypress_ZEE	108	stimuli_distractor_trianglediamonds.svg	stimuli_distractor_trianglediamonds.svg	33	no	57	0	754
6.6.1	win	2022-12-14	14:58:38	15:08:23	582000	62b055b8af4eda974466ad0d	746825687	1	main_z	11	main_z	109	stimuli_target_diamondcircles.svg	stimuli_distractor_trianglediamonds.svg	19	yes	44	1	681
6.6.1	win	2022-12-14	14:58:38	15:08:23	582000	62b055b8af4eda974466ad0d	746825687	1	main_z	11	advance_on_keypress_ZEE	110	stimuli_target_diamondcircles.svg	stimuli_distractor_trianglediamonds.svg	19	yes	57	0	228
6.6.1	win	2022-12-14	14:58:38	15:08:24	583450	62b055b8af4eda974466ad0d	746825687	1	main_z	11	main_z	111	stimuli_target_circletriangles.svg	stimuli_distractor_diamondtriangles.svg	5	yes	44	1	562
6.6.1	win	2022-12-14	14:58:38	15:08:24	583450	62b055b8af4eda974466ad0d	746825687	1	main_z	11	advance_on_keypress_ZEE	112	stimuli_target_circletriangles.svg	stimuli_distractor_diamondtriangles.svg	5	yes	57	0	291
6.6.1	win	2022-12-14	14:58:38	15:08:26	585511	62b055b8af4eda974466ad0d	746825687	1	main_z	11	main_z	113	stimuli_distractor_trianglediamonds.svg	stimuli_target_squaretriangles.svg	11	yes	44	1	1121
6.6.1	win	2022-12-14	14:58:38	15:08:26	585511	62b055b8af4eda974466ad0d	746825687	1	main_z	11	advance_on_keypress_ZEE	114	stimuli_distractor_trianglediamonds.svg	stimuli_target_squaretriangles.svg	11	yes	57	0	318
6.6.1	win	2022-12-14	14:58:38	15:08:28	587170	62b055b8af4eda974466ad0d	746825687	1	main_z	11	main_z	115	stimuli_distractor_trianglediamonds.svg	stimuli_target_squarediamonds.svg	12	yes	44	1	682
6.6.1	win	2022-12-14	14:58:38	15:08:28	587170	62b055b8af4eda974466ad0d	746825687	1	main_z	11	advance_on_keypress_ZEE	116	stimuli_distractor_trianglediamonds.svg	stimuli_target_squarediamonds.svg	12	yes	57	0	198
6.6.1	win	2022-12-14	14:58:38	15:08:30	588960	62b055b8af4eda974466ad0d	746825687	1	main_z	11	main_z	117	stimuli_target_trianglesquares.svg	stimuli_distractor_trianglediamonds.svg	18	yes	44	1	935
6.6.1	win	2022-12-14	14:58:38	15:08:30	588960	62b055b8af4eda974466ad0d	746825687	1	main_z	11	advance_on_keypress_ZEE	118	stimuli_target_trianglesquares.svg	stimuli_distractor_trianglediamonds.svg	18	yes	57	0	188
6.6.1	win	2022-12-14	14:58:38	15:08:31	590400	62b055b8af4eda974466ad0d	746825687	1	main_z	11	main_z	119	stimuli_target_diamondsquares.svg	stimuli_distractor_trianglediamonds.svg	20	yes	44	1	601
6.6.1	win	2022-12-14	14:58:38	15:08:31	590400	62b055b8af4eda974466ad0d	746825687	1	main_z	11	advance_on_keypress_ZEE	120	stimuli_target_diamondsquares.svg	stimuli_distractor_trianglediamonds.svg	20	yes	57	0	199
6.6.1	win	2022-12-14	14:58:38	15:08:33	592140	62b055b8af4eda974466ad0d	746825687	1	main_z	11	main_z	121	stimuli_target_squaretriangles.svg	stimuli_distractor_trianglediamonds.svg	3	yes	44	1	882
6.6.1	win	2022-12-14	14:58:38	15:08:33	592140	62b055b8af4eda974466ad0d	746825687	1	main_z	11	advance_on_keypress_ZEE	122	stimuli_target_squaretriangles.svg	stimuli_distractor_trianglediamonds.svg	3	yes	57	0	158
6.6.1	win	2022-12-14	14:58:38	15:08:34	593650	62b055b8af4eda974466ad0d	746825687	1	main_z	11	main_z	123	stimuli_target_circletriangles.svg	stimuli_distractor_trianglediamonds.svg	1	yes	44	1	705
6.6.1	win	2022-12-14	14:58:38	15:08:34	593650	62b055b8af4eda974466ad0d	746825687	1	main_z	11	advance_on_keypress_ZEE	124	stimuli_target_circletriangles.svg	stimuli_distractor_trianglediamonds.svg	1	yes	57	0	198
6.6.1	win	2022-12-14	14:58:38	15:08:36	595350	62b055b8af4eda974466ad0d	746825687	1	main_z	11	main_z	125	stimuli_distractor_trianglediamonds.svg	stimuli_target_diamondsquares.svg	28	yes	44	1	845
6.6.1	win	2022-12-14	14:58:38	15:08:36	595350	62b055b8af4eda974466ad0d	746825687	1	main_z	11	advance_on_keypress_ZEE	126	stimuli_distractor_trianglediamonds.svg	stimuli_target_diamondsquares.svg	28	yes	57	0	178
6.6.1	win	2022-12-14	14:58:38	15:08:38	596950	62b055b8af4eda974466ad0d	746825687	1	main_z	11	main_z	127	stimuli_distractor_trianglediamonds.svg	stimuli_target_trianglesquares.svg	26	yes	44	1	761
6.6.1	win	2022-12-14	14:58:38	15:08:38	596950	62b055b8af4eda974466ad0d	746825687	1	main_z	11	advance_on_keypress_ZEE	128	stimuli_distractor_trianglediamonds.svg	stimuli_target_trianglesquares.svg	26	yes	57	0	468
6.6.1	win	2022-12-14	14:58:38	15:08:39	598720	62b055b8af4eda974466ad0d	746825687	1	main_z	11	main_z	129	stimuli_distractor_diamondtriangles.svg	stimuli_target_squarediamonds.svg	16	yes	44	1	641
6.6.1	win	2022-12-14	14:58:38	15:08:39	598720	62b055b8af4eda974466ad0d	746825687	1	main_z	11	advance_on_keypress_ZEE	130	stimuli_distractor_diamondtriangles.svg	stimuli_target_squarediamonds.svg	16	yes	57	0	228
6.6.1	win	2022-12-14	14:58:38	15:08:42	601608	62b055b8af4eda974466ad0d	746825687	1	main_z	11	main_z	131	stimuli_distractor_trianglediamonds.svg	stimuli_distractor_diamondtriangles.svg	35	no	0	1	2000
6.6.1	win	2022-12-14	14:58:38	15:08:42	601608	62b055b8af4eda974466ad0d	746825687	1	main_z	11	advance_on_keypress_ZEE	132	stimuli_distractor_trianglediamonds.svg	stimuli_distractor_diamondtriangles.svg	35	no	57	0	900
6.6.1	win	2022-12-14	14:58:38	15:08:45	604000	62b055b8af4eda974466ad0d	746825687	1	main_z	11	main_z	133	stimuli_distractor_diamondtriangles.svg	stimuli_target_trianglesquares.svg	30	yes	44	1	831
6.6.1	win	2022-12-14	14:58:38	15:08:45	604000	62b055b8af4eda974466ad0d	746825687	1	main_z	11	advance_on_keypress_ZEE	134	stimuli_distractor_diamondtriangles.svg	stimuli_target_trianglesquares.svg	30	yes	57	0	248
6.6.1	win	2022-12-14	14:58:38	15:08:46	605550	62b055b8af4eda974466ad0d	746825687	1	main_z	11	main_z	135	stimuli_distractor_trianglediamonds.svg	stimuli_target_circlediamonds.svg	10	yes	44	1	642
6.6.1	win	2022-12-14	14:58:38	15:08:46	605550	62b055b8af4eda974466ad0d	746825687	1	main_z	11	advance_on_keypress_ZEE	136	stimuli_distractor_trianglediamonds.svg	stimuli_target_circlediamonds.svg	10	yes	57	0	208
6.6.1	win	2022-12-14	14:58:38	15:08:49	608405	62b055b8af4eda974466ad0d	746825687	1	main_z	11	main_z	137	stimuli_distractor_diamondtriangles.svg	stimuli_distractor_trianglediamonds.svg	38	no	0	1	2000
6.6.1	win	2022-12-14	14:58:38	15:08:49	608405	62b055b8af4eda974466ad0d	746825687	1	main_z	11	advance_on_keypress_ZEE	138	stimuli_distractor_diamondtriangles.svg	stimuli_distractor_trianglediamonds.svg	38	no	57	0	634
6.6.1	win	2022-12-14	14:58:38	15:08:51	610480	62b055b8af4eda974466ad0d	746825687	1	main_z	11	main_z	139	stimuli_distractor_diamondtriangles.svg	stimuli_target_circletriangles.svg	13	yes	44	1	781
6.6.1	win	2022-12-14	14:58:38	15:08:51	610480	62b055b8af4eda974466ad0d	746825687	1	main_z	11	advance_on_keypress_ZEE	140	stimuli_distractor_diamondtriangles.svg	stimuli_target_circletriangles.svg	13	yes	57	0	218
6.6.1	win	2022-12-14	14:58:38	15:08:53	612090	62b055b8af4eda974466ad0d	746825687	1	main_z	11	main_z	141	stimuli_distractor_diamondtriangles.svg	stimuli_target_trianglecircles.svg	29	yes	44	1	732
6.6.1	win	2022-12-14	14:58:38	15:08:53	612090	62b055b8af4eda974466ad0d	746825687	1	main_z	11	advance_on_keypress_ZEE	142	stimuli_distractor_diamondtriangles.svg	stimuli_target_trianglecircles.svg	29	yes	57	0	188
6.6.1	win	2022-12-14	14:58:38	15:08:54	613590	62b055b8af4eda974466ad0d	746825687	1	main_z	11	main_z	143	stimuli_target_trianglecircles.svg	stimuli_distractor_trianglediamonds.svg	17	yes	44	1	662
6.6.1	win	2022-12-14	14:58:38	15:08:54	613590	62b055b8af4eda974466ad0d	746825687	1	main_z	11	advance_on_keypress_ZEE	144	stimuli_target_trianglecircles.svg	stimuli_distractor_trianglediamonds.svg	17	yes	57	0	159
6.6.1	win	2022-12-14	14:58:38	15:08:57	616395	62b055b8af4eda974466ad0d	746825687	1	main_z	11	main_z	145	stimuli_distractor_trianglediamonds.svg	stimuli_distractor_diamondtriangles.svg	36	no	0	1	2000
6.6.1	win	2022-12-14	14:58:38	15:08:57	616395	62b055b8af4eda974466ad0d	746825687	1	main_z	11	advance_on_keypress_ZEE	146	stimuli_distractor_trianglediamonds.svg	stimuli_distractor_diamondtriangles.svg	36	no	57	0	495
6.6.1	win	2022-12-14	14:58:38	15:08:59	618280	62b055b8af4eda974466ad0d	746825687	1	main_z	11	main_z	147	stimuli_target_squarediamonds.svg	stimuli_distractor_trianglediamonds.svg	4	yes	44	1	731
6.6.1	win	2022-12-14	14:58:38	15:08:59	618280	62b055b8af4eda974466ad0d	746825687	1	main_z	11	advance_on_keypress_ZEE	148	stimuli_target_squarediamonds.svg	stimuli_distractor_trianglediamonds.svg	4	yes	57	0	228
6.6.1	win	2022-12-14	14:58:38	15:09:00	619890	62b055b8af4eda974466ad0d	746825687	1	main_z	11	main_z	149	stimuli_distractor_diamondtriangles.svg	stimuli_target_diamondsquares.svg	32	yes	44	1	722
6.6.1	win	2022-12-14	14:58:38	15:09:00	619890	62b055b8af4eda974466ad0d	746825687	1	main_z	11	advance_on_keypress_ZEE	150	stimuli_distractor_diamondtriangles.svg	stimuli_target_diamondsquares.svg	32	yes	57	0	203
6.6.1	win	2022-12-14	14:58:38	15:09:02	621299	62b055b8af4eda974466ad0d	746825687	1	main_z	11	main_z	151	stimuli_distractor_trianglediamonds.svg	stimuli_target_trianglecircles.svg	25	yes	44	1	552
6.6.1	win	2022-12-14	14:58:38	15:09:02	621299	62b055b8af4eda974466ad0d	746825687	1	main_z	11	advance_on_keypress_ZEE	152	stimuli_distractor_trianglediamonds.svg	stimuli_target_trianglecircles.svg	25	yes	57	0	151
6.6.1	win	2022-12-14	14:58:38	15:09:05	624108	62b055b8af4eda974466ad0d	746825687	1	main_z	11	main_z	153	stimuli_distractor_diamondtriangles.svg	stimuli_distractor_diamondtriangles.svg	39	no	0	1	2000
6.6.1	win	2022-12-14	14:58:38	15:09:05	624108	62b055b8af4eda974466ad0d	746825687	1	main_z	11	advance_on_keypress_ZEE	154	stimuli_distractor_diamondtriangles.svg	stimuli_distractor_diamondtriangles.svg	39	no	57	0	371
6.6.1	win	2022-12-14	14:58:38	15:09:06	625890	62b055b8af4eda974466ad0d	746825687	1	main_z	11	main_z	155	stimuli_distractor_diamondtriangles.svg	stimuli_target_diamondcircles.svg	31	yes	44	1	751
6.6.1	win	2022-12-14	14:58:38	15:09:06	625890	62b055b8af4eda974466ad0d	746825687	1	main_z	11	advance_on_keypress_ZEE	156	stimuli_distractor_diamondtriangles.svg	stimuli_target_diamondcircles.svg	31	yes	57	0	178
6.6.1	win	2022-12-14	14:58:38	15:09:08	627360	62b055b8af4eda974466ad0d	746825687	1	main_z	11	main_z	157	stimuli_target_trianglesquares.svg	stimuli_distractor_diamondtriangles.svg	22	yes	44	1	632
6.6.1	win	2022-12-14	14:58:38	15:09:08	627360	62b055b8af4eda974466ad0d	746825687	1	main_z	11	advance_on_keypress_ZEE	158	stimuli_target_trianglesquares.svg	stimuli_distractor_diamondtriangles.svg	22	yes	57	0	189
6.6.1	win	2022-12-14	14:58:38	15:09:09	628779	62b055b8af4eda974466ad0d	746825687	1	main_z	11	main_z	159	stimuli_target_diamondsquares.svg	stimuli_distractor_diamondtriangles.svg	24	yes	44	1	582
6.6.1	win	2022-12-14	14:58:38	15:09:09	628779	62b055b8af4eda974466ad0d	746825687	1	main_z	11	advance_on_keypress_ZEE	160	stimuli_target_diamondsquares.svg	stimuli_distractor_diamondtriangles.svg	24	yes	57	0	274