build	computer.platform	date	time	timestamp	time_elapsed_ms	subject	group	session	blockcode	blocknum	trialcode	trialnum	stimulus_left	stimulus_right	stim_index	target_present	response	correct	latency
6.6.1	win	2022-12-22	19:39:24	19:42:20	175024	60efa510e3cdfbbf4d7c355b	79237636	1	practice_z	5	practice_z	1	stimuli_distractor_trianglediamonds.svg	stimuli_distractor_diamondtriangles.svg	16	no	0	1	2003
6.6.1	win	2022-12-22	19:39:24	19:42:20	175024	60efa510e3cdfbbf4d7c355b	79237636	1	practice_z	5	advance_on_keypress_ZEE	2	stimuli_distractor_trianglediamonds.svg	stimuli_distractor_diamondtriangles.svg	16	no	57	0	884
6.6.1	win	2022-12-22	19:39:24	19:42:24	178311	60efa510e3cdfbbf4d7c355b	79237636	1	practice_z	5	practice_z	3	stimuli_distractor_diamondtriangles.svg	stimuli_target_circletriangles.svg	7	yes	44	1	640
6.6.1	win	2022-12-22	19:39:24	19:42:24	178311	60efa510e3cdfbbf4d7c355b	79237636	1	practice_z	5	advance_on_keypress_ZEE	4	stimuli_distractor_diamondtriangles.svg	stimuli_target_circletriangles.svg	7	yes	57	0	604
6.6.1	win	2022-12-22	19:39:24	19:42:26	180976	60efa510e3cdfbbf4d7c355b	79237636	1	practice_z	5	practice_z	5	stimuli_distractor_trianglediamonds.svg	stimuli_target_circlediamonds.svg	10	yes	44	1	451
6.6.1	win	2022-12-22	19:39:24	19:42:26	180976	60efa510e3cdfbbf4d7c355b	79237636	1	practice_z	5	advance_on_keypress_ZEE	6	stimuli_distractor_trianglediamonds.svg	stimuli_target_circlediamonds.svg	10	yes	57	0	517
6.6.1	win	2022-12-22	19:39:24	19:42:29	183733	60efa510e3cdfbbf4d7c355b	79237636	1	practice_z	5	practice_z	7	stimuli_distractor_diamondtriangles.svg	stimuli_target_trianglecircles.svg	9	yes	44	1	552
6.6.1	win	2022-12-22	19:39:24	19:42:29	183733	60efa510e3cdfbbf4d7c355b	79237636	1	practice_z	5	advance_on_keypress_ZEE	8	stimuli_distractor_diamondtriangles.svg	stimuli_target_trianglecircles.svg	9	yes	57	0	1792
6.6.1	win	2022-12-22	19:39:24	19:42:35	189138	60efa510e3cdfbbf4d7c355b	79237636	1	practice_z	5	practice_z	9	stimuli_distractor_diamondtriangles.svg	stimuli_distractor_diamondtriangles.svg	13	no	0	1	2003
6.6.1	win	2022-12-22	19:39:24	19:42:35	189138	60efa510e3cdfbbf4d7c355b	79237636	1	practice_z	5	advance_on_keypress_ZEE	10	stimuli_distractor_diamondtriangles.svg	stimuli_distractor_diamondtriangles.svg	13	no	57	0	397
6.6.1	win	2022-12-22	19:39:24	19:42:38	192182	60efa510e3cdfbbf4d7c355b	79237636	1	practice_z	5	practice_z	11	stimuli_distractor_trianglediamonds.svg	stimuli_target_diamondcircles.svg	12	yes	44	1	1036
6.6.1	win	2022-12-22	19:39:24	19:42:38	192182	60efa510e3cdfbbf4d7c355b	79237636	1	practice_z	5	advance_on_keypress_ZEE	12	stimuli_distractor_trianglediamonds.svg	stimuli_target_diamondcircles.svg	12	yes	57	0	425
6.6.1	win	2022-12-22	19:39:24	19:42:41	195208	60efa510e3cdfbbf4d7c355b	79237636	1	practice_z	5	practice_z	13	stimuli_target_squarediamonds.svg	stimuli_distractor_trianglediamonds.svg	5	yes	44	1	911
6.6.1	win	2022-12-22	19:39:24	19:42:41	195208	60efa510e3cdfbbf4d7c355b	79237636	1	practice_z	5	advance_on_keypress_ZEE	14	stimuli_target_squarediamonds.svg	stimuli_distractor_trianglediamonds.svg	5	yes	57	0	572
6.6.1	win	2022-12-22	19:39:24	19:42:44	198256	60efa510e3cdfbbf4d7c355b	79237636	1	practice_z	5	practice_z	15	stimuli_target_diamondsquares.svg	stimuli_distractor_diamondtriangles.svg	3	yes	44	1	867
6.6.1	win	2022-12-22	19:39:24	19:42:44	198256	60efa510e3cdfbbf4d7c355b	79237636	1	practice_z	5	advance_on_keypress_ZEE	16	stimuli_target_diamondsquares.svg	stimuli_distractor_diamondtriangles.svg	3	yes	57	0	1420
6.6.1	win	2022-12-22	19:39:24	19:42:48	202329	60efa510e3cdfbbf4d7c355b	79237636	1	practice_z	5	practice_z	17	stimuli_distractor_trianglediamonds.svg	stimuli_distractor_trianglediamonds.svg	15	no	44	0	1043
6.6.1	win	2022-12-22	19:39:24	19:42:48	202329	60efa510e3cdfbbf4d7c355b	79237636	1	practice_z	5	advance_on_keypress_ZEE	18	stimuli_distractor_trianglediamonds.svg	stimuli_distractor_trianglediamonds.svg	15	no	57	0	492
6.6.1	win	2022-12-22	19:39:24	19:42:51	205299	60efa510e3cdfbbf4d7c355b	79237636	1	practice_z	5	practice_z	19	stimuli_target_circlediamonds.svg	stimuli_distractor_diamondtriangles.svg	1	yes	44	1	867
6.6.1	win	2022-12-22	19:39:24	19:42:51	205299	60efa510e3cdfbbf4d7c355b	79237636	1	practice_z	5	advance_on_keypress_ZEE	20	stimuli_target_circlediamonds.svg	stimuli_distractor_diamondtriangles.svg	1	yes	57	0	357
6.6.1	win	2022-12-22	19:39:24	19:42:53	207785	60efa510e3cdfbbf4d7c355b	79237636	1	practice_z	5	practice_z	21	stimuli_distractor_diamondtriangles.svg	stimuli_target_diamondcircles.svg	8	yes	44	1	518
6.6.1	win	2022-12-22	19:39:24	19:42:53	207785	60efa510e3cdfbbf4d7c355b	79237636	1	practice_z	5	advance_on_keypress_ZEE	22	stimuli_distractor_diamondtriangles.svg	stimuli_target_diamondcircles.svg	8	yes	57	0	561
6.6.1	win	2022-12-22	19:39:24	19:42:56	210271	60efa510e3cdfbbf4d7c355b	79237636	1	practice_z	5	practice_z	23	stimuli_target_circlediamonds.svg	stimuli_distractor_trianglediamonds.svg	4	yes	44	1	315
6.6.1	win	2022-12-22	19:39:24	19:42:56	210271	60efa510e3cdfbbf4d7c355b	79237636	1	practice_z	5	advance_on_keypress_ZEE	24	stimuli_target_circlediamonds.svg	stimuli_distractor_trianglediamonds.svg	4	yes	57	0	448
6.6.1	win	2022-12-22	19:39:24	19:43:00	214332	60efa510e3cdfbbf4d7c355b	79237636	1	practice_z	5	practice_z	25	stimuli_distractor_diamondtriangles.svg	stimuli_distractor_trianglediamonds.svg	14	no	0	1	2003
6.6.1	win	2022-12-22	19:39:24	19:43:00	214332	60efa510e3cdfbbf4d7c355b	79237636	1	practice_z	5	advance_on_keypress_ZEE	26	stimuli_distractor_diamondtriangles.svg	stimuli_distractor_trianglediamonds.svg	14	no	57	0	407
6.6.1	win	2022-12-22	19:39:24	19:43:02	216987	60efa510e3cdfbbf4d7c355b	79237636	1	practice_z	5	practice_z	27	stimuli_target_squarediamonds.svg	stimuli_distractor_diamondtriangles.svg	2	yes	44	1	637
6.6.1	win	2022-12-22	19:39:24	19:43:02	216987	60efa510e3cdfbbf4d7c355b	79237636	1	practice_z	5	advance_on_keypress_ZEE	28	stimuli_target_squarediamonds.svg	stimuli_distractor_diamondtriangles.svg	2	yes	57	0	1533
6.6.1	win	2022-12-22	19:39:24	19:43:06	220767	60efa510e3cdfbbf4d7c355b	79237636	1	practice_z	5	practice_z	29	stimuli_target_diamondsquares.svg	stimuli_distractor_trianglediamonds.svg	6	yes	44	1	637
6.6.1	win	2022-12-22	19:39:24	19:43:06	220767	60efa510e3cdfbbf4d7c355b	79237636	1	practice_z	5	advance_on_keypress_ZEE	30	stimuli_target_diamondsquares.svg	stimuli_distractor_trianglediamonds.svg	6	yes	57	0	359
6.6.1	win	2022-12-22	19:39:24	19:43:09	223444	60efa510e3cdfbbf4d7c355b	79237636	1	practice_z	5	practice_z	31	stimuli_distractor_trianglediamonds.svg	stimuli_target_squarediamonds.svg	11	yes	44	1	706
6.6.1	win	2022-12-22	19:39:24	19:43:09	223444	60efa510e3cdfbbf4d7c355b	79237636	1	practice_z	5	advance_on_keypress_ZEE	32	stimuli_distractor_trianglediamonds.svg	stimuli_target_squarediamonds.svg	11	yes	57	0	303
6.6.1	win	2022-12-22	19:39:24	19:43:14	228620	60efa510e3cdfbbf4d7c355b	79237636	1	main_z	7	main_z	1	stimuli_target_circlediamonds.svg	stimuli_distractor_trianglediamonds.svg	2	yes	44	1	492
6.6.1	win	2022-12-22	19:39:24	19:43:14	228620	60efa510e3cdfbbf4d7c355b	79237636	1	main_z	7	advance_on_keypress_ZEE	2	stimuli_target_circlediamonds.svg	stimuli_distractor_trianglediamonds.svg	2	yes	57	0	808
6.6.1	win	2022-12-22	19:39:24	19:43:16	230465	60efa510e3cdfbbf4d7c355b	79237636	1	main_z	7	main_z	3	stimuli_target_diamondcircles.svg	stimuli_distractor_trianglediamonds.svg	19	yes	44	1	428
6.6.1	win	2022-12-22	19:39:24	19:43:16	230465	60efa510e3cdfbbf4d7c355b	79237636	1	main_z	7	advance_on_keypress_ZEE	4	stimuli_target_diamondcircles.svg	stimuli_distractor_trianglediamonds.svg	19	yes	57	0	605
6.6.1	win	2022-12-22	19:39:24	19:43:17	232074	60efa510e3cdfbbf4d7c355b	79237636	1	main_z	7	main_z	5	stimuli_distractor_diamondtriangles.svg	stimuli_distractor_diamondtriangles.svg	40	no	44	0	395
6.6.1	win	2022-12-22	19:39:24	19:43:17	232074	60efa510e3cdfbbf4d7c355b	79237636	1	main_z	7	advance_on_keypress_ZEE	6	stimuli_distractor_diamondtriangles.svg	stimuli_distractor_diamondtriangles.svg	40	no	57	0	437
6.6.1	win	2022-12-22	19:39:24	19:43:19	234020	60efa510e3cdfbbf4d7c355b	79237636	1	main_z	7	main_z	7	stimuli_distractor_trianglediamonds.svg	stimuli_target_diamondsquares.svg	28	yes	44	1	901
6.6.1	win	2022-12-22	19:39:24	19:43:19	234020	60efa510e3cdfbbf4d7c355b	79237636	1	main_z	7	advance_on_keypress_ZEE	8	stimuli_distractor_trianglediamonds.svg	stimuli_target_diamondsquares.svg	28	yes	57	0	357
6.6.1	win	2022-12-22	19:39:24	19:43:21	235764	60efa510e3cdfbbf4d7c355b	79237636	1	main_z	7	main_z	9	stimuli_target_trianglecircles.svg	stimuli_distractor_trianglediamonds.svg	17	yes	44	1	777
6.6.1	win	2022-12-22	19:39:24	19:43:21	235764	60efa510e3cdfbbf4d7c355b	79237636	1	main_z	7	advance_on_keypress_ZEE	10	stimuli_target_trianglecircles.svg	stimuli_distractor_trianglediamonds.svg	17	yes	57	0	435
6.6.1	win	2022-12-22	19:39:24	19:43:23	237901	60efa510e3cdfbbf4d7c355b	79237636	1	main_z	7	main_z	11	stimuli_distractor_trianglediamonds.svg	stimuli_target_trianglecircles.svg	25	yes	44	1	1092
6.6.1	win	2022-12-22	19:39:24	19:43:23	237901	60efa510e3cdfbbf4d7c355b	79237636	1	main_z	7	advance_on_keypress_ZEE	12	stimuli_distractor_trianglediamonds.svg	stimuli_target_trianglecircles.svg	25	yes	57	0	357
6.6.1	win	2022-12-22	19:39:24	19:43:25	239465	60efa510e3cdfbbf4d7c355b	79237636	1	main_z	7	main_z	13	stimuli_distractor_diamondtriangles.svg	stimuli_target_trianglesquares.svg	30	yes	44	1	597
6.6.1	win	2022-12-22	19:39:24	19:43:25	239465	60efa510e3cdfbbf4d7c355b	79237636	1	main_z	7	advance_on_keypress_ZEE	14	stimuli_distractor_diamondtriangles.svg	stimuli_target_trianglesquares.svg	30	yes	57	0	336
6.6.1	win	2022-12-22	19:39:24	19:43:26	240928	60efa510e3cdfbbf4d7c355b	79237636	1	main_z	7	main_z	15	stimuli_target_trianglesquares.svg	stimuli_distractor_diamondtriangles.svg	22	yes	44	1	518
6.6.1	win	2022-12-22	19:39:24	19:43:26	240928	60efa510e3cdfbbf4d7c355b	79237636	1	main_z	7	advance_on_keypress_ZEE	16	stimuli_target_trianglesquares.svg	stimuli_distractor_diamondtriangles.svg	22	yes	57	0	346
6.6.1	win	2022-12-22	19:39:24	19:43:29	243887	60efa510e3cdfbbf4d7c355b	79237636	1	main_z	7	main_z	17	stimuli_distractor_diamondtriangles.svg	stimuli_distractor_trianglediamonds.svg	37	no	0	1	2003
6.6.1	win	2022-12-22	19:39:24	19:43:29	243887	60efa510e3cdfbbf4d7c355b	79237636	1	main_z	7	advance_on_keypress_ZEE	18	stimuli_distractor_diamondtriangles.svg	stimuli_distractor_trianglediamonds.svg	37	no	57	0	913
6.6.1	win	2022-12-22	19:39:24	19:43:32	246181	60efa510e3cdfbbf4d7c355b	79237636	1	main_z	7	main_z	19	stimuli_distractor_diamondtriangles.svg	stimuli_target_squaretriangles.svg	15	yes	44	1	772
6.6.1	win	2022-12-22	19:39:24	19:43:32	246181	60efa510e3cdfbbf4d7c355b	79237636	1	main_z	7	advance_on_keypress_ZEE	20	stimuli_distractor_diamondtriangles.svg	stimuli_target_squaretriangles.svg	15	yes	57	0	368
6.6.1	win	2022-12-22	19:39:24	19:43:33	247588	60efa510e3cdfbbf4d7c355b	79237636	1	main_z	7	main_z	21	stimuli_distractor_diamondtriangles.svg	stimuli_target_squarediamonds.svg	16	yes	44	1	428
6.6.1	win	2022-12-22	19:39:24	19:43:33	247588	60efa510e3cdfbbf4d7c355b	79237636	1	main_z	7	advance_on_keypress_ZEE	22	stimuli_distractor_diamondtriangles.svg	stimuli_target_squarediamonds.svg	16	yes	57	0	312
6.6.1	win	2022-12-22	19:39:24	19:43:34	249095	60efa510e3cdfbbf4d7c355b	79237636	1	main_z	7	main_z	23	stimuli_target_squaretriangles.svg	stimuli_distractor_trianglediamonds.svg	3	yes	44	1	586
6.6.1	win	2022-12-22	19:39:24	19:43:34	249095	60efa510e3cdfbbf4d7c355b	79237636	1	main_z	7	advance_on_keypress_ZEE	24	stimuli_target_squaretriangles.svg	stimuli_distractor_trianglediamonds.svg	3	yes	57	0	313
6.6.1	win	2022-12-22	19:39:24	19:43:36	250613	60efa510e3cdfbbf4d7c355b	79237636	1	main_z	7	main_z	25	stimuli_target_squaretriangles.svg	stimuli_distractor_diamondtriangles.svg	7	yes	44	1	596
6.6.1	win	2022-12-22	19:39:24	19:43:36	250613	60efa510e3cdfbbf4d7c355b	79237636	1	main_z	7	advance_on_keypress_ZEE	26	stimuli_target_squaretriangles.svg	stimuli_distractor_diamondtriangles.svg	7	yes	57	0	381
6.6.1	win	2022-12-22	19:39:24	19:43:38	252110	60efa510e3cdfbbf4d7c355b	79237636	1	main_z	7	main_z	27	stimuli_distractor_trianglediamonds.svg	stimuli_target_trianglesquares.svg	26	yes	44	1	507
6.6.1	win	2022-12-22	19:39:24	19:43:38	252110	60efa510e3cdfbbf4d7c355b	79237636	1	main_z	7	advance_on_keypress_ZEE	28	stimuli_distractor_trianglediamonds.svg	stimuli_target_trianglesquares.svg	26	yes	57	0	380
6.6.1	win	2022-12-22	19:39:24	19:43:41	255103	60efa510e3cdfbbf4d7c355b	79237636	1	main_z	7	main_z	29	stimuli_distractor_trianglediamonds.svg	stimuli_distractor_diamondtriangles.svg	35	no	0	1	2003
6.6.1	win	2022-12-22	19:39:24	19:43:41	255103	60efa510e3cdfbbf4d7c355b	79237636	1	main_z	7	advance_on_keypress_ZEE	30	stimuli_distractor_trianglediamonds.svg	stimuli_distractor_diamondtriangles.svg	35	no	57	0	373
6.6.1	win	2022-12-22	19:39:24	19:43:43	258088	60efa510e3cdfbbf4d7c355b	79237636	1	main_z	7	main_z	31	stimuli_distractor_diamondtriangles.svg	stimuli_distractor_diamondtriangles.svg	39	no	0	1	2003
6.6.1	win	2022-12-22	19:39:24	19:43:43	258088	60efa510e3cdfbbf4d7c355b	79237636	1	main_z	7	advance_on_keypress_ZEE	32	stimuli_distractor_diamondtriangles.svg	stimuli_distractor_diamondtriangles.svg	39	no	57	0	492
6.6.1	win	2022-12-22	19:39:24	19:43:45	259783	60efa510e3cdfbbf4d7c355b	79237636	1	main_z	7	main_z	33	stimuli_distractor_diamondtriangles.svg	stimuli_target_trianglecircles.svg	29	yes	44	1	592
6.6.1	win	2022-12-22	19:39:24	19:43:45	259783	60efa510e3cdfbbf4d7c355b	79237636	1	main_z	7	advance_on_keypress_ZEE	34	stimuli_distractor_diamondtriangles.svg	stimuli_target_trianglecircles.svg	29	yes	57	0	369
6.6.1	win	2022-12-22	19:39:24	19:43:47	261368	60efa510e3cdfbbf4d7c355b	79237636	1	main_z	7	main_z	35	stimuli_target_diamondsquares.svg	stimuli_distractor_diamondtriangles.svg	24	yes	44	1	608
6.6.1	win	2022-12-22	19:39:24	19:43:47	261368	60efa510e3cdfbbf4d7c355b	79237636	1	main_z	7	advance_on_keypress_ZEE	36	stimuli_target_diamondsquares.svg	stimuli_distractor_diamondtriangles.svg	24	yes	57	0	313
6.6.1	win	2022-12-22	19:39:24	19:43:50	264294	60efa510e3cdfbbf4d7c355b	79237636	1	main_z	7	main_z	37	stimuli_distractor_trianglediamonds.svg	stimuli_target_squarediamonds.svg	12	yes	0	0	2003
6.6.1	win	2022-12-22	19:39:24	19:43:50	264294	60efa510e3cdfbbf4d7c355b	79237636	1	main_z	7	advance_on_keypress_ZEE	38	stimuli_distractor_trianglediamonds.svg	stimuli_target_squarediamonds.svg	12	yes	57	0	419
6.6.1	win	2022-12-22	19:39:24	19:43:52	266297	60efa510e3cdfbbf4d7c355b	79237636	1	main_z	7	main_z	39	stimuli_distractor_trianglediamonds.svg	stimuli_distractor_diamondtriangles.svg	36	no	44	0	976
6.6.1	win	2022-12-22	19:39:24	19:43:52	266297	60efa510e3cdfbbf4d7c355b	79237636	1	main_z	7	advance_on_keypress_ZEE	40	stimuli_distractor_trianglediamonds.svg	stimuli_distractor_diamondtriangles.svg	36	no	57	0	289
6.6.1	win	2022-12-22	19:39:24	19:43:53	267736	60efa510e3cdfbbf4d7c355b	79237636	1	main_z	7	main_z	41	stimuli_target_circletriangles.svg	stimuli_distractor_diamondtriangles.svg	5	yes	44	1	540
6.6.1	win	2022-12-22	19:39:24	19:43:53	267736	60efa510e3cdfbbf4d7c355b	79237636	1	main_z	7	advance_on_keypress_ZEE	42	stimuli_target_circletriangles.svg	stimuli_distractor_diamondtriangles.svg	5	yes	57	0	286
6.6.1	win	2022-12-22	19:39:24	19:43:54	269087	60efa510e3cdfbbf4d7c355b	79237636	1	main_z	7	main_z	43	stimuli_target_trianglecircles.svg	stimuli_distractor_diamondtriangles.svg	21	yes	44	1	451
6.6.1	win	2022-12-22	19:39:24	19:43:54	269087	60efa510e3cdfbbf4d7c355b	79237636	1	main_z	7	advance_on_keypress_ZEE	44	stimuli_target_trianglecircles.svg	stimuli_distractor_diamondtriangles.svg	21	yes	57	0	290
6.6.1	win	2022-12-22	19:39:24	19:43:56	270605	60efa510e3cdfbbf4d7c355b	79237636	1	main_z	7	main_z	45	stimuli_target_squarediamonds.svg	stimuli_distractor_trianglediamonds.svg	4	yes	44	1	621
6.6.1	win	2022-12-22	19:39:24	19:43:56	270605	60efa510e3cdfbbf4d7c355b	79237636	1	main_z	7	advance_on_keypress_ZEE	46	stimuli_target_squarediamonds.svg	stimuli_distractor_trianglediamonds.svg	4	yes	57	0	291
6.6.1	win	2022-12-22	19:39:24	19:43:58	272213	60efa510e3cdfbbf4d7c355b	79237636	1	main_z	7	main_z	47	stimuli_distractor_diamondtriangles.svg	stimuli_target_circletriangles.svg	13	yes	44	1	708
6.6.1	win	2022-12-22	19:39:24	19:43:58	272213	60efa510e3cdfbbf4d7c355b	79237636	1	main_z	7	advance_on_keypress_ZEE	48	stimuli_distractor_diamondtriangles.svg	stimuli_target_circletriangles.svg	13	yes	57	0	288
6.6.1	win	2022-12-22	19:39:24	19:43:59	273609	60efa510e3cdfbbf4d7c355b	79237636	1	main_z	7	main_z	49	stimuli_distractor_trianglediamonds.svg	stimuli_target_circletriangles.svg	9	yes	44	1	496
6.6.1	win	2022-12-22	19:39:24	19:43:59	273609	60efa510e3cdfbbf4d7c355b	79237636	1	main_z	7	advance_on_keypress_ZEE	50	stimuli_distractor_trianglediamonds.svg	stimuli_target_circletriangles.svg	9	yes	57	0	284
6.6.1	win	2022-12-22	19:39:24	19:44:00	274868	60efa510e3cdfbbf4d7c355b	79237636	1	main_z	7	main_z	51	stimuli_target_circletriangles.svg	stimuli_distractor_trianglediamonds.svg	1	yes	44	1	361
6.6.1	win	2022-12-22	19:39:24	19:44:00	274868	60efa510e3cdfbbf4d7c355b	79237636	1	main_z	7	advance_on_keypress_ZEE	52	stimuli_target_circletriangles.svg	stimuli_distractor_trianglediamonds.svg	1	yes	57	0	291
6.6.1	win	2022-12-22	19:39:24	19:44:02	276635	60efa510e3cdfbbf4d7c355b	79237636	1	main_z	7	main_z	53	stimuli_distractor_trianglediamonds.svg	stimuli_target_diamondcircles.svg	27	yes	44	1	866
6.6.1	win	2022-12-22	19:39:24	19:44:02	276635	60efa510e3cdfbbf4d7c355b	79237636	1	main_z	7	advance_on_keypress_ZEE	54	stimuli_distractor_trianglediamonds.svg	stimuli_target_diamondcircles.svg	27	yes	57	0	267
6.6.1	win	2022-12-22	19:39:24	19:44:05	279515	60efa510e3cdfbbf4d7c355b	79237636	1	main_z	7	main_z	55	stimuli_distractor_trianglediamonds.svg	stimuli_distractor_trianglediamonds.svg	34	no	0	1	2003
6.6.1	win	2022-12-22	19:39:24	19:44:05	279515	60efa510e3cdfbbf4d7c355b	79237636	1	main_z	7	advance_on_keypress_ZEE	56	stimuli_distractor_trianglediamonds.svg	stimuli_distractor_trianglediamonds.svg	34	no	57	0	351
6.6.1	win	2022-12-22	19:39:24	19:44:08	282477	60efa510e3cdfbbf4d7c355b	79237636	1	main_z	7	main_z	57	stimuli_distractor_trianglediamonds.svg	stimuli_distractor_trianglediamonds.svg	33	no	0	1	2003
6.6.1	win	2022-12-22	19:39:24	19:44:08	282477	60efa510e3cdfbbf4d7c355b	79237636	1	main_z	7	advance_on_keypress_ZEE	58	stimuli_distractor_trianglediamonds.svg	stimuli_distractor_trianglediamonds.svg	33	no	57	0	343
6.6.1	win	2022-12-22	19:39:24	19:44:09	283936	60efa510e3cdfbbf4d7c355b	79237636	1	main_z	7	main_z	59	stimuli_distractor_diamondtriangles.svg	stimuli_target_circlediamonds.svg	14	yes	44	1	504
6.6.1	win	2022-12-22	19:39:24	19:44:09	283936	60efa510e3cdfbbf4d7c355b	79237636	1	main_z	7	advance_on_keypress_ZEE	60	stimuli_distractor_diamondtriangles.svg	stimuli_target_circlediamonds.svg	14	yes	57	0	276
6.6.1	win	2022-12-22	19:39:24	19:44:11	285207	60efa510e3cdfbbf4d7c355b	79237636	1	main_z	7	main_z	61	stimuli_target_diamondsquares.svg	stimuli_distractor_trianglediamonds.svg	20	yes	44	1	380
6.6.1	win	2022-12-22	19:39:24	19:44:11	285207	60efa510e3cdfbbf4d7c355b	79237636	1	main_z	7	advance_on_keypress_ZEE	62	stimuli_target_diamondsquares.svg	stimuli_distractor_trianglediamonds.svg	20	yes	57	0	267
6.6.1	win	2022-12-22	19:39:24	19:44:12	286377	60efa510e3cdfbbf4d7c355b	79237636	1	main_z	7	main_z	63	stimuli_target_trianglesquares.svg	stimuli_distractor_trianglediamonds.svg	18	yes	44	1	294
6.6.1	win	2022-12-22	19:39:24	19:44:12	286377	60efa510e3cdfbbf4d7c355b	79237636	1	main_z	7	advance_on_keypress_ZEE	64	stimuli_target_trianglesquares.svg	stimuli_distractor_trianglediamonds.svg	18	yes	57	0	255
6.6.1	win	2022-12-22	19:39:24	19:44:13	287839	60efa510e3cdfbbf4d7c355b	79237636	1	main_z	7	main_z	65	stimuli_distractor_trianglediamonds.svg	stimuli_target_squaretriangles.svg	11	yes	44	1	597
6.6.1	win	2022-12-22	19:39:24	19:44:13	287839	60efa510e3cdfbbf4d7c355b	79237636	1	main_z	7	advance_on_keypress_ZEE	66	stimuli_distractor_trianglediamonds.svg	stimuli_target_squaretriangles.svg	11	yes	57	0	217
6.6.1	win	2022-12-22	19:39:24	19:44:15	289448	60efa510e3cdfbbf4d7c355b	79237636	1	main_z	7	main_z	67	stimuli_distractor_diamondtriangles.svg	stimuli_target_diamondcircles.svg	31	yes	44	1	777
6.6.1	win	2022-12-22	19:39:24	19:44:15	289448	60efa510e3cdfbbf4d7c355b	79237636	1	main_z	7	advance_on_keypress_ZEE	68	stimuli_distractor_diamondtriangles.svg	stimuli_target_diamondcircles.svg	31	yes	57	0	289
6.6.1	win	2022-12-22	19:39:24	19:44:16	290730	60efa510e3cdfbbf4d7c355b	79237636	1	main_z	7	main_z	69	stimuli_target_circlediamonds.svg	stimuli_distractor_diamondtriangles.svg	6	yes	44	1	383
6.6.1	win	2022-12-22	19:39:24	19:44:16	290730	60efa510e3cdfbbf4d7c355b	79237636	1	main_z	7	advance_on_keypress_ZEE	70	stimuli_target_circlediamonds.svg	stimuli_distractor_diamondtriangles.svg	6	yes	57	0	267
6.6.1	win	2022-12-22	19:39:24	19:44:18	292148	60efa510e3cdfbbf4d7c355b	79237636	1	main_z	7	main_z	71	stimuli_distractor_diamondtriangles.svg	stimuli_target_diamondsquares.svg	32	yes	44	1	541
6.6.1	win	2022-12-22	19:39:24	19:44:18	292148	60efa510e3cdfbbf4d7c355b	79237636	1	main_z	7	advance_on_keypress_ZEE	72	stimuli_distractor_diamondtriangles.svg	stimuli_target_diamondsquares.svg	32	yes	57	0	335
6.6.1	win	2022-12-22	19:39:24	19:44:19	293543	60efa510e3cdfbbf4d7c355b	79237636	1	main_z	7	main_z	73	stimuli_target_diamondcircles.svg	stimuli_distractor_diamondtriangles.svg	23	yes	44	1	451
6.6.1	win	2022-12-22	19:39:24	19:44:19	293543	60efa510e3cdfbbf4d7c355b	79237636	1	main_z	7	advance_on_keypress_ZEE	74	stimuli_target_diamondcircles.svg	stimuli_distractor_diamondtriangles.svg	23	yes	57	0	290
6.6.1	win	2022-12-22	19:39:24	19:44:20	295085	60efa510e3cdfbbf4d7c355b	79237636	1	main_z	7	main_z	75	stimuli_distractor_trianglediamonds.svg	stimuli_target_circlediamonds.svg	10	yes	44	1	642
6.6.1	win	2022-12-22	19:39:24	19:44:20	295085	60efa510e3cdfbbf4d7c355b	79237636	1	main_z	7	advance_on_keypress_ZEE	76	stimuli_distractor_trianglediamonds.svg	stimuli_target_circlediamonds.svg	10	yes	57	0	334
6.6.1	win	2022-12-22	19:39:24	19:44:23	298032	60efa510e3cdfbbf4d7c355b	79237636	1	main_z	7	main_z	77	stimuli_distractor_diamondtriangles.svg	stimuli_distractor_trianglediamonds.svg	38	no	0	1	2003
6.6.1	win	2022-12-22	19:39:24	19:44:23	298032	60efa510e3cdfbbf4d7c355b	79237636	1	main_z	7	advance_on_keypress_ZEE	78	stimuli_distractor_diamondtriangles.svg	stimuli_distractor_trianglediamonds.svg	38	no	57	0	497
6.6.1	win	2022-12-22	19:39:24	19:44:25	299629	60efa510e3cdfbbf4d7c355b	79237636	1	main_z	7	main_z	79	stimuli_target_squarediamonds.svg	stimuli_distractor_diamondtriangles.svg	8	yes	44	1	491
6.6.1	win	2022-12-22	19:39:24	19:44:25	299629	60efa510e3cdfbbf4d7c355b	79237636	1	main_z	7	advance_on_keypress_ZEE	80	stimuli_target_squarediamonds.svg	stimuli_distractor_diamondtriangles.svg	8	yes	57	0	253
6.6.1	win	2022-12-22	19:39:24	19:44:27	301688	60efa510e3cdfbbf4d7c355b	79237636	1	main_z	7	main_z	81	stimuli_target_diamondsquares.svg	stimuli_distractor_trianglediamonds.svg	20	yes	44	1	1194
6.6.1	win	2022-12-22	19:39:24	19:44:27	301688	60efa510e3cdfbbf4d7c355b	79237636	1	main_z	7	advance_on_keypress_ZEE	82	stimuli_target_diamondsquares.svg	stimuli_distractor_trianglediamonds.svg	20	yes	57	0	200
6.6.1	win	2022-12-22	19:39:24	19:44:29	303173	60efa510e3cdfbbf4d7c355b	79237636	1	main_z	7	main_z	83	stimuli_target_circletriangles.svg	stimuli_distractor_diamondtriangles.svg	5	yes	44	1	675
6.6.1	win	2022-12-22	19:39:24	19:44:29	303173	60efa510e3cdfbbf4d7c355b	79237636	1	main_z	7	advance_on_keypress_ZEE	84	stimuli_target_circletriangles.svg	stimuli_distractor_diamondtriangles.svg	5	yes	57	0	276
6.6.1	win	2022-12-22	19:39:24	19:44:30	304647	60efa510e3cdfbbf4d7c355b	79237636	1	main_z	7	main_z	85	stimuli_distractor_diamondtriangles.svg	stimuli_target_trianglesquares.svg	30	yes	44	1	586
6.6.1	win	2022-12-22	19:39:24	19:44:30	304647	60efa510e3cdfbbf4d7c355b	79237636	1	main_z	7	advance_on_keypress_ZEE	86	stimuli_distractor_diamondtriangles.svg	stimuli_target_trianglesquares.svg	30	yes	57	0	380
6.6.1	win	2022-12-22	19:39:24	19:44:32	306323	60efa510e3cdfbbf4d7c355b	79237636	1	main_z	7	main_z	87	stimuli_distractor_diamondtriangles.svg	stimuli_target_circletriangles.svg	13	yes	44	1	687
6.6.1	win	2022-12-22	19:39:24	19:44:32	306323	60efa510e3cdfbbf4d7c355b	79237636	1	main_z	7	advance_on_keypress_ZEE	88	stimuli_distractor_diamondtriangles.svg	stimuli_target_circletriangles.svg	13	yes	57	0	290
6.6.1	win	2022-12-22	19:39:24	19:44:33	307740	60efa510e3cdfbbf4d7c355b	79237636	1	main_z	7	main_z	89	stimuli_distractor_trianglediamonds.svg	stimuli_target_diamondcircles.svg	27	yes	44	1	518
6.6.1	win	2022-12-22	19:39:24	19:44:33	307740	60efa510e3cdfbbf4d7c355b	79237636	1	main_z	7	advance_on_keypress_ZEE	90	stimuli_distractor_trianglediamonds.svg	stimuli_target_diamondcircles.svg	27	yes	57	0	217
6.6.1	win	2022-12-22	19:39:24	19:44:34	308978	60efa510e3cdfbbf4d7c355b	79237636	1	main_z	7	main_z	91	stimuli_target_trianglecircles.svg	stimuli_distractor_diamondtriangles.svg	21	yes	44	1	406
6.6.1	win	2022-12-22	19:39:24	19:44:34	308978	60efa510e3cdfbbf4d7c355b	79237636	1	main_z	7	advance_on_keypress_ZEE	92	stimuli_target_trianglecircles.svg	stimuli_distractor_diamondtriangles.svg	21	yes	57	0	211
6.6.1	win	2022-12-22	19:39:24	19:44:36	310463	60efa510e3cdfbbf4d7c355b	79237636	1	main_z	7	main_z	93	stimuli_distractor_trianglediamonds.svg	stimuli_target_squarediamonds.svg	12	yes	44	1	663
6.6.1	win	2022-12-22	19:39:24	19:44:36	310463	60efa510e3cdfbbf4d7c355b	79237636	1	main_z	7	advance_on_keypress_ZEE	94	stimuli_distractor_trianglediamonds.svg	stimuli_target_squarediamonds.svg	12	yes	57	0	222
6.6.1	win	2022-12-22	19:39:24	19:44:37	311711	60efa510e3cdfbbf4d7c355b	79237636	1	main_z	7	main_z	95	stimuli_target_squaretriangles.svg	stimuli_distractor_diamondtriangles.svg	7	yes	44	1	414
6.6.1	win	2022-12-22	19:39:24	19:44:37	311711	60efa510e3cdfbbf4d7c355b	79237636	1	main_z	7	advance_on_keypress_ZEE	96	stimuli_target_squaretriangles.svg	stimuli_distractor_diamondtriangles.svg	7	yes	57	0	145
6.6.1	win	2022-12-22	19:39:24	19:44:38	312859	60efa510e3cdfbbf4d7c355b	79237636	1	main_z	7	main_z	97	stimuli_target_squarediamonds.svg	stimuli_distractor_trianglediamonds.svg	4	yes	44	1	395
6.6.1	win	2022-12-22	19:39:24	19:44:38	312859	60efa510e3cdfbbf4d7c355b	79237636	1	main_z	7	advance_on_keypress_ZEE	98	stimuli_target_squarediamonds.svg	stimuli_distractor_trianglediamonds.svg	4	yes	57	0	110
6.6.1	win	2022-12-22	19:39:24	19:44:39	314006	60efa510e3cdfbbf4d7c355b	79237636	1	main_z	7	main_z	99	stimuli_target_circletriangles.svg	stimuli_distractor_trianglediamonds.svg	1	yes	44	1	429
6.6.1	win	2022-12-22	19:39:24	19:44:39	314006	60efa510e3cdfbbf4d7c355b	79237636	1	main_z	7	advance_on_keypress_ZEE	100	stimuli_target_circletriangles.svg	stimuli_distractor_trianglediamonds.svg	1	yes	57	0	99
6.6.1	win	2022-12-22	19:39:24	19:44:41	315345	60efa510e3cdfbbf4d7c355b	79237636	1	main_z	7	main_z	101	stimuli_target_diamondcircles.svg	stimuli_distractor_diamondtriangles.svg	23	yes	44	1	631
6.6.1	win	2022-12-22	19:39:24	19:44:41	315345	60efa510e3cdfbbf4d7c355b	79237636	1	main_z	7	advance_on_keypress_ZEE	102	stimuli_target_diamondcircles.svg	stimuli_distractor_diamondtriangles.svg	23	yes	57	0	118
6.6.1	win	2022-12-22	19:39:24	19:44:42	316583	60efa510e3cdfbbf4d7c355b	79237636	1	main_z	7	main_z	103	stimuli_target_trianglesquares.svg	stimuli_distractor_diamondtriangles.svg	22	yes	44	1	506
6.6.1	win	2022-12-22	19:39:24	19:44:42	316583	60efa510e3cdfbbf4d7c355b	79237636	1	main_z	7	advance_on_keypress_ZEE	104	stimuli_target_trianglesquares.svg	stimuli_distractor_diamondtriangles.svg	22	yes	57	0	132
6.6.1	win	2022-12-22	19:39:24	19:44:43	318045	60efa510e3cdfbbf4d7c355b	79237636	1	main_z	7	main_z	105	stimuli_distractor_trianglediamonds.svg	stimuli_distractor_diamondtriangles.svg	36	no	44	0	721
6.6.1	win	2022-12-22	19:39:24	19:44:43	318045	60efa510e3cdfbbf4d7c355b	79237636	1	main_z	7	advance_on_keypress_ZEE	106	stimuli_distractor_trianglediamonds.svg	stimuli_distractor_diamondtriangles.svg	36	no	57	0	200
6.6.1	win	2022-12-22	19:39:24	19:44:45	319294	60efa510e3cdfbbf4d7c355b	79237636	1	main_z	7	main_z	107	stimuli_target_circlediamonds.svg	stimuli_distractor_trianglediamonds.svg	2	yes	44	1	439
6.6.1	win	2022-12-22	19:39:24	19:44:45	319294	60efa510e3cdfbbf4d7c355b	79237636	1	main_z	7	advance_on_keypress_ZEE	108	stimuli_target_circlediamonds.svg	stimuli_distractor_trianglediamonds.svg	2	yes	57	0	133
6.6.1	win	2022-12-22	19:39:24	19:44:46	320914	60efa510e3cdfbbf4d7c355b	79237636	1	main_z	7	main_z	109	stimuli_distractor_diamondtriangles.svg	stimuli_target_diamondcircles.svg	31	yes	44	1	875
6.6.1	win	2022-12-22	19:39:24	19:44:46	320914	60efa510e3cdfbbf4d7c355b	79237636	1	main_z	7	advance_on_keypress_ZEE	110	stimuli_distractor_diamondtriangles.svg	stimuli_target_diamondcircles.svg	31	yes	57	0	221
6.6.1	win	2022-12-22	19:39:24	19:44:48	322545	60efa510e3cdfbbf4d7c355b	79237636	1	main_z	7	main_z	111	stimuli_distractor_trianglediamonds.svg	stimuli_target_circlediamonds.svg	10	yes	44	1	800
6.6.1	win	2022-12-22	19:39:24	19:44:48	322545	60efa510e3cdfbbf4d7c355b	79237636	1	main_z	7	advance_on_keypress_ZEE	112	stimuli_distractor_trianglediamonds.svg	stimuli_target_circlediamonds.svg	10	yes	57	0	154
6.6.1	win	2022-12-22	19:39:24	19:44:49	324041	60efa510e3cdfbbf4d7c355b	79237636	1	main_z	7	main_z	113	stimuli_distractor_diamondtriangles.svg	stimuli_target_circlediamonds.svg	14	yes	44	1	732
6.6.1	win	2022-12-22	19:39:24	19:44:49	324041	60efa510e3cdfbbf4d7c355b	79237636	1	main_z	7	advance_on_keypress_ZEE	114	stimuli_distractor_diamondtriangles.svg	stimuli_target_circlediamonds.svg	14	yes	57	0	178
6.6.1	win	2022-12-22	19:39:24	19:44:51	325718	60efa510e3cdfbbf4d7c355b	79237636	1	main_z	7	main_z	115	stimuli_target_trianglecircles.svg	stimuli_distractor_trianglediamonds.svg	17	yes	44	1	890
6.6.1	win	2022-12-22	19:39:24	19:44:51	325718	60efa510e3cdfbbf4d7c355b	79237636	1	main_z	7	advance_on_keypress_ZEE	116	stimuli_target_trianglecircles.svg	stimuli_distractor_trianglediamonds.svg	17	yes	57	0	200
6.6.1	win	2022-12-22	19:39:24	19:44:54	328530	60efa510e3cdfbbf4d7c355b	79237636	1	main_z	7	main_z	117	stimuli_distractor_trianglediamonds.svg	stimuli_distractor_trianglediamonds.svg	33	no	0	1	2003
6.6.1	win	2022-12-22	19:39:24	19:44:54	328530	60efa510e3cdfbbf4d7c355b	79237636	1	main_z	7	advance_on_keypress_ZEE	118	stimuli_distractor_trianglediamonds.svg	stimuli_distractor_trianglediamonds.svg	33	no	57	0	419
6.6.1	win	2022-12-22	19:39:24	19:44:56	330150	60efa510e3cdfbbf4d7c355b	79237636	1	main_z	7	main_z	119	stimuli_distractor_diamondtriangles.svg	stimuli_target_diamondsquares.svg	32	yes	44	1	592
6.6.1	win	2022-12-22	19:39:24	19:44:56	330150	60efa510e3cdfbbf4d7c355b	79237636	1	main_z	7	advance_on_keypress_ZEE	120	stimuli_distractor_diamondtriangles.svg	stimuli_target_diamondsquares.svg	32	yes	57	0	223
6.6.1	win	2022-12-22	19:39:24	19:44:57	331478	60efa510e3cdfbbf4d7c355b	79237636	1	main_z	7	main_z	121	stimuli_distractor_diamondtriangles.svg	stimuli_target_trianglecircles.svg	29	yes	44	1	495
6.6.1	win	2022-12-22	19:39:24	19:44:57	331478	60efa510e3cdfbbf4d7c355b	79237636	1	main_z	7	advance_on_keypress_ZEE	122	stimuli_distractor_diamondtriangles.svg	stimuli_target_trianglecircles.svg	29	yes	57	0	132
6.6.1	win	2022-12-22	19:39:24	19:44:58	332805	60efa510e3cdfbbf4d7c355b	79237636	1	main_z	7	main_z	123	stimuli_target_trianglesquares.svg	stimuli_distractor_trianglediamonds.svg	18	yes	44	1	586
6.6.1	win	2022-12-22	19:39:24	19:44:58	332805	60efa510e3cdfbbf4d7c355b	79237636	1	main_z	7	advance_on_keypress_ZEE	124	stimuli_target_trianglesquares.svg	stimuli_distractor_trianglediamonds.svg	18	yes	57	0	144
6.6.1	win	2022-12-22	19:39:24	19:45:01	335561	60efa510e3cdfbbf4d7c355b	79237636	1	main_z	7	main_z	125	stimuli_distractor_trianglediamonds.svg	stimuli_distractor_diamondtriangles.svg	35	no	0	1	2003
6.6.1	win	2022-12-22	19:39:24	19:45:01	335561	60efa510e3cdfbbf4d7c355b	79237636	1	main_z	7	advance_on_keypress_ZEE	126	stimuli_distractor_trianglediamonds.svg	stimuli_distractor_diamondtriangles.svg	35	no	57	0	361
6.6.1	win	2022-12-22	19:39:24	19:45:04	338535	60efa510e3cdfbbf4d7c355b	79237636	1	main_z	7	main_z	127	stimuli_distractor_trianglediamonds.svg	stimuli_distractor_trianglediamonds.svg	34	no	0	1	2003
6.6.1	win	2022-12-22	19:39:24	19:45:04	338535	60efa510e3cdfbbf4d7c355b	79237636	1	main_z	7	advance_on_keypress_ZEE	128	stimuli_distractor_trianglediamonds.svg	stimuli_distractor_trianglediamonds.svg	34	no	57	0	286
6.6.1	win	2022-12-22	19:39:24	19:45:05	339949	60efa510e3cdfbbf4d7c355b	79237636	1	main_z	7	main_z	129	stimuli_target_circlediamonds.svg	stimuli_distractor_diamondtriangles.svg	6	yes	44	1	518
6.6.1	win	2022-12-22	19:39:24	19:45:05	339949	60efa510e3cdfbbf4d7c355b	79237636	1	main_z	7	advance_on_keypress_ZEE	130	stimuli_target_circlediamonds.svg	stimuli_distractor_diamondtriangles.svg	6	yes	57	0	481
6.6.1	win	2022-12-22	19:39:24	19:45:07	341613	60efa510e3cdfbbf4d7c355b	79237636	1	main_z	7	main_z	131	stimuli_distractor_trianglediamonds.svg	stimuli_target_trianglecircles.svg	25	yes	44	1	574
6.6.1	win	2022-12-22	19:39:24	19:45:07	341613	60efa510e3cdfbbf4d7c355b	79237636	1	main_z	7	advance_on_keypress_ZEE	132	stimuli_distractor_trianglediamonds.svg	stimuli_target_trianglecircles.svg	25	yes	57	0	336
6.6.1	win	2022-12-22	19:39:24	19:45:10	344561	60efa510e3cdfbbf4d7c355b	79237636	1	main_z	7	main_z	133	stimuli_distractor_diamondtriangles.svg	stimuli_distractor_diamondtriangles.svg	39	no	0	1	2003
6.6.1	win	2022-12-22	19:39:24	19:45:10	344561	60efa510e3cdfbbf4d7c355b	79237636	1	main_z	7	advance_on_keypress_ZEE	134	stimuli_distractor_diamondtriangles.svg	stimuli_distractor_diamondtriangles.svg	39	no	57	0	351
6.6.1	win	2022-12-22	19:39:24	19:45:12	346113	60efa510e3cdfbbf4d7c355b	79237636	1	main_z	7	main_z	135	stimuli_distractor_trianglediamonds.svg	stimuli_target_squaretriangles.svg	11	yes	44	1	592
6.6.1	win	2022-12-22	19:39:24	19:45:12	346113	60efa510e3cdfbbf4d7c355b	79237636	1	main_z	7	advance_on_keypress_ZEE	136	stimuli_distractor_trianglediamonds.svg	stimuli_target_squaretriangles.svg	11	yes	57	0	324
6.6.1	win	2022-12-22	19:39:24	19:45:14	348105	60efa510e3cdfbbf4d7c355b	79237636	1	main_z	7	main_z	137	stimuli_distractor_trianglediamonds.svg	stimuli_target_trianglesquares.svg	26	yes	44	1	1058
6.6.1	win	2022-12-22	19:39:24	19:45:14	348105	60efa510e3cdfbbf4d7c355b	79237636	1	main_z	7	advance_on_keypress_ZEE	138	stimuli_distractor_trianglediamonds.svg	stimuli_target_trianglesquares.svg	26	yes	57	0	290
6.6.1	win	2022-12-22	19:39:24	19:45:15	349657	60efa510e3cdfbbf4d7c355b	79237636	1	main_z	7	main_z	139	stimuli_target_diamondsquares.svg	stimuli_distractor_diamondtriangles.svg	24	yes	44	1	654
6.6.1	win	2022-12-22	19:39:24	19:45:15	349657	60efa510e3cdfbbf4d7c355b	79237636	1	main_z	7	advance_on_keypress_ZEE	140	stimuli_target_diamondsquares.svg	stimuli_distractor_diamondtriangles.svg	24	yes	57	0	267
6.6.1	win	2022-12-22	19:39:24	19:45:17	351266	60efa510e3cdfbbf4d7c355b	79237636	1	main_z	7	main_z	141	stimuli_distractor_diamondtriangles.svg	stimuli_target_squaretriangles.svg	15	yes	44	1	732
6.6.1	win	2022-12-22	19:39:24	19:45:17	351266	60efa510e3cdfbbf4d7c355b	79237636	1	main_z	7	advance_on_keypress_ZEE	142	stimuli_distractor_diamondtriangles.svg	stimuli_target_squaretriangles.svg	15	yes	57	0	301
6.6.1	win	2022-12-22	19:39:24	19:45:18	352762	60efa510e3cdfbbf4d7c355b	79237636	1	main_z	7	main_z	143	stimuli_target_diamondcircles.svg	stimuli_distractor_trianglediamonds.svg	19	yes	44	1	585
6.6.1	win	2022-12-22	19:39:24	19:45:18	352762	60efa510e3cdfbbf4d7c355b	79237636	1	main_z	7	advance_on_keypress_ZEE	144	stimuli_target_diamondcircles.svg	stimuli_distractor_trianglediamonds.svg	19	yes	57	0	290
6.6.1	win	2022-12-22	19:39:24	19:45:20	354157	60efa510e3cdfbbf4d7c355b	79237636	1	main_z	7	main_z	145	stimuli_target_squaretriangles.svg	stimuli_distractor_trianglediamonds.svg	3	yes	44	1	496
6.6.1	win	2022-12-22	19:39:24	19:45:20	354157	60efa510e3cdfbbf4d7c355b	79237636	1	main_z	7	advance_on_keypress_ZEE	146	stimuli_target_squaretriangles.svg	stimuli_distractor_trianglediamonds.svg	3	yes	57	0	234
6.6.1	win	2022-12-22	19:39:24	19:45:21	355957	60efa510e3cdfbbf4d7c355b	79237636	1	main_z	7	main_z	147	stimuli_distractor_diamondtriangles.svg	stimuli_target_squarediamonds.svg	16	yes	44	1	956
6.6.1	win	2022-12-22	19:39:24	19:45:21	355957	60efa510e3cdfbbf4d7c355b	79237636	1	main_z	7	advance_on_keypress_ZEE	148	stimuli_distractor_diamondtriangles.svg	stimuli_target_squarediamonds.svg	16	yes	57	0	313
6.6.1	win	2022-12-22	19:39:24	19:45:23	357363	60efa510e3cdfbbf4d7c355b	79237636	1	main_z	7	main_z	149	stimuli_distractor_trianglediamonds.svg	stimuli_target_circletriangles.svg	9	yes	44	1	484
6.6.1	win	2022-12-22	19:39:24	19:45:23	357363	60efa510e3cdfbbf4d7c355b	79237636	1	main_z	7	advance_on_keypress_ZEE	150	stimuli_distractor_trianglediamonds.svg	stimuli_target_circletriangles.svg	9	yes	57	0	358
6.6.1	win	2022-12-22	19:39:24	19:45:26	360334	60efa510e3cdfbbf4d7c355b	79237636	1	main_z	7	main_z	151	stimuli_distractor_diamondtriangles.svg	stimuli_distractor_diamondtriangles.svg	40	no	0	1	2003
6.6.1	win	2022-12-22	19:39:24	19:45:26	360334	60efa510e3cdfbbf4d7c355b	79237636	1	main_z	7	advance_on_keypress_ZEE	152	stimuli_distractor_diamondtriangles.svg	stimuli_distractor_diamondtriangles.svg	40	no	57	0	373
6.6.1	win	2022-12-22	19:39:24	19:45:27	361830	60efa510e3cdfbbf4d7c355b	79237636	1	main_z	7	main_z	153	stimuli_target_squarediamonds.svg	stimuli_distractor_diamondtriangles.svg	8	yes	44	1	513
6.6.1	win	2022-12-22	19:39:24	19:45:27	361830	60efa510e3cdfbbf4d7c355b	79237636	1	main_z	7	advance_on_keypress_ZEE	154	stimuli_target_squarediamonds.svg	stimuli_distractor_diamondtriangles.svg	8	yes	57	0	245
6.6.1	win	2022-12-22	19:39:24	19:45:29	363427	60efa510e3cdfbbf4d7c355b	79237636	1	main_z	7	main_z	155	stimuli_distractor_diamondtriangles.svg	stimuli_distractor_trianglediamonds.svg	37	no	44	0	743
6.6.1	win	2022-12-22	19:39:24	19:45:29	363427	60efa510e3cdfbbf4d7c355b	79237636	1	main_z	7	advance_on_keypress_ZEE	156	stimuli_distractor_diamondtriangles.svg	stimuli_distractor_trianglediamonds.svg	37	no	57	0	369
6.6.1	win	2022-12-22	19:39:24	19:45:30	365037	60efa510e3cdfbbf4d7c355b	79237636	1	main_z	7	main_z	157	stimuli_distractor_trianglediamonds.svg	stimuli_target_diamondsquares.svg	28	yes	44	1	632
6.6.1	win	2022-12-22	19:39:24	19:45:30	365037	60efa510e3cdfbbf4d7c355b	79237636	1	main_z	7	advance_on_keypress_ZEE	158	stimuli_distractor_trianglediamonds.svg	stimuli_target_diamondsquares.svg	28	yes	57	0	334
6.6.1	win	2022-12-22	19:39:24	19:45:33	367984	60efa510e3cdfbbf4d7c355b	79237636	1	main_z	7	main_z	159	stimuli_distractor_diamondtriangles.svg	stimuli_distractor_trianglediamonds.svg	38	no	0	1	2003
6.6.1	win	2022-12-22	19:39:24	19:45:33	367984	60efa510e3cdfbbf4d7c355b	79237636	1	main_z	7	advance_on_keypress_ZEE	160	stimuli_distractor_diamondtriangles.svg	stimuli_distractor_trianglediamonds.svg	38	no	57	0	417
6.6.1	win	2022-12-22	19:39:24	19:45:56	390985	60efa510e3cdfbbf4d7c355b	79237636	1	practice_slash	9	practice_slash	1	stimuli_distractor_diamondtriangles.svg	stimuli_target_trianglecircles.svg	9	yes	53	1	543
6.6.1	win	2022-12-22	19:39:24	19:45:56	390985	60efa510e3cdfbbf4d7c355b	79237636	1	practice_slash	9	advance_on_keypress_SLASH	2	stimuli_distractor_diamondtriangles.svg	stimuli_target_trianglecircles.svg	9	yes	57	0	528
6.6.1	win	2022-12-22	19:39:24	19:45:59	393990	60efa510e3cdfbbf4d7c355b	79237636	1	practice_slash	9	practice_slash	3	stimuli_distractor_trianglediamonds.svg	stimuli_target_circlediamonds.svg	10	yes	53	1	866
6.6.1	win	2022-12-22	19:39:24	19:45:59	393990	60efa510e3cdfbbf4d7c355b	79237636	1	practice_slash	9	advance_on_keypress_SLASH	4	stimuli_distractor_trianglediamonds.svg	stimuli_target_circlediamonds.svg	10	yes	57	0	471
6.6.1	win	2022-12-22	19:39:24	19:46:02	396599	60efa510e3cdfbbf4d7c355b	79237636	1	practice_slash	9	practice_slash	5	stimuli_target_squarediamonds.svg	stimuli_distractor_diamondtriangles.svg	2	yes	53	1	529
6.6.1	win	2022-12-22	19:39:24	19:46:02	396599	60efa510e3cdfbbf4d7c355b	79237636	1	practice_slash	9	advance_on_keypress_SLASH	6	stimuli_target_squarediamonds.svg	stimuli_distractor_diamondtriangles.svg	2	yes	57	0	493
6.6.1	win	2022-12-22	19:39:24	19:46:06	400706	60efa510e3cdfbbf4d7c355b	79237636	1	practice_slash	9	practice_slash	7	stimuli_distractor_trianglediamonds.svg	stimuli_distractor_diamondtriangles.svg	16	no	0	1	2003
6.6.1	win	2022-12-22	19:39:24	19:46:06	400706	60efa510e3cdfbbf4d7c355b	79237636	1	practice_slash	9	advance_on_keypress_SLASH	8	stimuli_distractor_trianglediamonds.svg	stimuli_distractor_diamondtriangles.svg	16	no	57	0	510
6.6.1	win	2022-12-22	19:39:24	19:46:09	403563	60efa510e3cdfbbf4d7c355b	79237636	1	practice_slash	9	practice_slash	9	stimuli_target_diamondsquares.svg	stimuli_distractor_trianglediamonds.svg	6	yes	53	1	662
6.6.1	win	2022-12-22	19:39:24	19:46:09	403563	60efa510e3cdfbbf4d7c355b	79237636	1	practice_slash	9	advance_on_keypress_SLASH	10	stimuli_target_diamondsquares.svg	stimuli_distractor_trianglediamonds.svg	6	yes	57	0	798
6.6.1	win	2022-12-22	19:39:24	19:46:13	407972	60efa510e3cdfbbf4d7c355b	79237636	1	practice_slash	9	practice_slash	11	stimuli_distractor_diamondtriangles.svg	stimuli_distractor_diamondtriangles.svg	13	no	0	1	2003
6.6.1	win	2022-12-22	19:39:24	19:46:13	407972	60efa510e3cdfbbf4d7c355b	79237636	1	practice_slash	9	advance_on_keypress_SLASH	12	stimuli_distractor_diamondtriangles.svg	stimuli_distractor_diamondtriangles.svg	13	no	57	0	577
6.6.1	win	2022-12-22	19:39:24	19:46:18	412164	60efa510e3cdfbbf4d7c355b	79237636	1	practice_slash	9	practice_slash	13	stimuli_distractor_trianglediamonds.svg	stimuli_distractor_trianglediamonds.svg	15	no	0	1	2003
6.6.1	win	2022-12-22	19:39:24	19:46:18	412164	60efa510e3cdfbbf4d7c355b	79237636	1	practice_slash	9	advance_on_keypress_SLASH	14	stimuli_distractor_trianglediamonds.svg	stimuli_distractor_trianglediamonds.svg	15	no	57	0	571
6.6.1	win	2022-12-22	19:39:24	19:46:20	414903	60efa510e3cdfbbf4d7c355b	79237636	1	practice_slash	9	practice_slash	15	stimuli_target_diamondsquares.svg	stimuli_distractor_diamondtriangles.svg	3	yes	53	1	559
6.6.1	win	2022-12-22	19:39:24	19:46:20	414903	60efa510e3cdfbbf4d7c355b	79237636	1	practice_slash	9	advance_on_keypress_SLASH	16	stimuli_target_diamondsquares.svg	stimuli_distractor_diamondtriangles.svg	3	yes	57	0	595
6.6.1	win	2022-12-22	19:39:24	19:46:23	417783	60efa510e3cdfbbf4d7c355b	79237636	1	practice_slash	9	practice_slash	17	stimuli_distractor_trianglediamonds.svg	stimuli_target_diamondcircles.svg	12	yes	53	1	676
6.6.1	win	2022-12-22	19:39:24	19:46:23	417783	60efa510e3cdfbbf4d7c355b	79237636	1	practice_slash	9	advance_on_keypress_SLASH	18	stimuli_distractor_trianglediamonds.svg	stimuli_target_diamondcircles.svg	12	yes	57	0	663
6.6.1	win	2022-12-22	19:39:24	19:46:26	420450	60efa510e3cdfbbf4d7c355b	79237636	1	practice_slash	9	practice_slash	19	stimuli_distractor_diamondtriangles.svg	stimuli_target_diamondcircles.svg	8	yes	53	1	394
6.6.1	win	2022-12-22	19:39:24	19:46:26	420450	60efa510e3cdfbbf4d7c355b	79237636	1	practice_slash	9	advance_on_keypress_SLASH	20	stimuli_distractor_diamondtriangles.svg	stimuli_target_diamondcircles.svg	8	yes	57	0	504
6.6.1	win	2022-12-22	19:39:24	19:46:29	423195	60efa510e3cdfbbf4d7c355b	79237636	1	practice_slash	9	practice_slash	21	stimuli_target_circlediamonds.svg	stimuli_distractor_diamondtriangles.svg	1	yes	53	1	631
6.6.1	win	2022-12-22	19:39:24	19:46:29	423195	60efa510e3cdfbbf4d7c355b	79237636	1	practice_slash	9	advance_on_keypress_SLASH	22	stimuli_target_circlediamonds.svg	stimuli_distractor_diamondtriangles.svg	1	yes	57	0	549
6.6.1	win	2022-12-22	19:39:24	19:46:33	427357	60efa510e3cdfbbf4d7c355b	79237636	1	practice_slash	9	practice_slash	23	stimuli_distractor_diamondtriangles.svg	stimuli_distractor_trianglediamonds.svg	14	no	0	1	2003
6.6.1	win	2022-12-22	19:39:24	19:46:33	427357	60efa510e3cdfbbf4d7c355b	79237636	1	practice_slash	9	advance_on_keypress_SLASH	24	stimuli_distractor_diamondtriangles.svg	stimuli_distractor_trianglediamonds.svg	14	no	57	0	532
6.6.1	win	2022-12-22	19:39:24	19:46:35	430046	60efa510e3cdfbbf4d7c355b	79237636	1	practice_slash	9	practice_slash	25	stimuli_target_circlediamonds.svg	stimuli_distractor_trianglediamonds.svg	4	yes	53	1	547
6.6.1	win	2022-12-22	19:39:24	19:46:35	430046	60efa510e3cdfbbf4d7c355b	79237636	1	practice_slash	9	advance_on_keypress_SLASH	26	stimuli_target_circlediamonds.svg	stimuli_distractor_trianglediamonds.svg	4	yes	57	0	347
6.6.1	win	2022-12-22	19:39:24	19:46:38	432724	60efa510e3cdfbbf4d7c355b	79237636	1	practice_slash	9	practice_slash	27	stimuli_target_squarediamonds.svg	stimuli_distractor_trianglediamonds.svg	5	yes	53	1	721
6.6.1	win	2022-12-22	19:39:24	19:46:38	432724	60efa510e3cdfbbf4d7c355b	79237636	1	practice_slash	9	advance_on_keypress_SLASH	28	stimuli_target_squarediamonds.svg	stimuli_distractor_trianglediamonds.svg	5	yes	57	0	312
6.6.1	win	2022-12-22	19:39:24	19:46:41	435345	60efa510e3cdfbbf4d7c355b	79237636	1	practice_slash	9	practice_slash	29	stimuli_distractor_diamondtriangles.svg	stimuli_target_circletriangles.svg	7	yes	53	1	698
6.6.1	win	2022-12-22	19:39:24	19:46:41	435345	60efa510e3cdfbbf4d7c355b	79237636	1	practice_slash	9	advance_on_keypress_SLASH	30	stimuli_distractor_diamondtriangles.svg	stimuli_target_circletriangles.svg	7	yes	57	0	290
6.6.1	win	2022-12-22	19:39:24	19:46:43	437921	60efa510e3cdfbbf4d7c355b	79237636	1	practice_slash	9	practice_slash	31	stimuli_distractor_trianglediamonds.svg	stimuli_target_squarediamonds.svg	11	yes	53	1	676
6.6.1	win	2022-12-22	19:39:24	19:46:43	437921	60efa510e3cdfbbf4d7c355b	79237636	1	practice_slash	9	advance_on_keypress_SLASH	32	stimuli_distractor_trianglediamonds.svg	stimuli_target_squarediamonds.svg	11	yes	57	0	346
6.6.1	win	2022-12-22	19:39:24	19:46:48	442534	60efa510e3cdfbbf4d7c355b	79237636	1	main_slash	11	main_slash	1	stimuli_target_circlediamonds.svg	stimuli_distractor_trianglediamonds.svg	2	yes	53	1	567
6.6.1	win	2022-12-22	19:39:24	19:46:48	442534	60efa510e3cdfbbf4d7c355b	79237636	1	main_slash	11	advance_on_keypress_SLASH	2	stimuli_target_circlediamonds.svg	stimuli_distractor_trianglediamonds.svg	2	yes	57	0	344
6.6.1	win	2022-12-22	19:39:24	19:46:51	445572	60efa510e3cdfbbf4d7c355b	79237636	1	main_slash	11	main_slash	3	stimuli_distractor_trianglediamonds.svg	stimuli_distractor_diamondtriangles.svg	36	no	0	1	2003
6.6.1	win	2022-12-22	19:39:24	19:46:51	445572	60efa510e3cdfbbf4d7c355b	79237636	1	main_slash	11	advance_on_keypress_SLASH	4	stimuli_distractor_trianglediamonds.svg	stimuli_distractor_diamondtriangles.svg	36	no	57	0	485
6.6.1	win	2022-12-22	19:39:24	19:46:53	447698	60efa510e3cdfbbf4d7c355b	79237636	1	main_slash	11	main_slash	5	stimuli_distractor_trianglediamonds.svg	stimuli_target_diamondsquares.svg	28	yes	53	1	1032
6.6.1	win	2022-12-22	19:39:24	19:46:53	447698	60efa510e3cdfbbf4d7c355b	79237636	1	main_slash	11	advance_on_keypress_SLASH	6	stimuli_distractor_trianglediamonds.svg	stimuli_target_diamondsquares.svg	28	yes	57	0	402
6.6.1	win	2022-12-22	19:39:24	19:46:55	449137	60efa510e3cdfbbf4d7c355b	79237636	1	main_slash	11	main_slash	7	stimuli_target_diamondsquares.svg	stimuli_distractor_diamondtriangles.svg	24	yes	53	1	428
6.6.1	win	2022-12-22	19:39:24	19:46:55	449137	60efa510e3cdfbbf4d7c355b	79237636	1	main_slash	11	advance_on_keypress_SLASH	8	stimuli_target_diamondsquares.svg	stimuli_distractor_diamondtriangles.svg	24	yes	57	0	358
6.6.1	win	2022-12-22	19:39:24	19:46:56	450746	60efa510e3cdfbbf4d7c355b	79237636	1	main_slash	11	main_slash	9	stimuli_distractor_trianglediamonds.svg	stimuli_target_squaretriangles.svg	11	yes	53	1	643
6.6.1	win	2022-12-22	19:39:24	19:46:56	450746	60efa510e3cdfbbf4d7c355b	79237636	1	main_slash	11	advance_on_keypress_SLASH	10	stimuli_distractor_trianglediamonds.svg	stimuli_target_squaretriangles.svg	11	yes	57	0	324
6.6.1	win	2022-12-22	19:39:24	19:46:58	452152	60efa510e3cdfbbf4d7c355b	79237636	1	main_slash	11	main_slash	11	stimuli_target_trianglecircles.svg	stimuli_distractor_trianglediamonds.svg	17	yes	53	1	473
6.6.1	win	2022-12-22	19:39:24	19:46:58	452152	60efa510e3cdfbbf4d7c355b	79237636	1	main_slash	11	advance_on_keypress_SLASH	12	stimuli_target_trianglecircles.svg	stimuli_distractor_trianglediamonds.svg	17	yes	57	0	347
6.6.1	win	2022-12-22	19:39:24	19:46:59	453963	60efa510e3cdfbbf4d7c355b	79237636	1	main_slash	11	main_slash	13	stimuli_distractor_trianglediamonds.svg	stimuli_target_circletriangles.svg	9	yes	53	1	855
6.6.1	win	2022-12-22	19:39:24	19:46:59	453963	60efa510e3cdfbbf4d7c355b	79237636	1	main_slash	11	advance_on_keypress_SLASH	14	stimuli_distractor_trianglediamonds.svg	stimuli_target_circletriangles.svg	9	yes	57	0	302
6.6.1	win	2022-12-22	19:39:24	19:47:02	456878	60efa510e3cdfbbf4d7c355b	79237636	1	main_slash	11	main_slash	15	stimuli_distractor_diamondtriangles.svg	stimuli_distractor_diamondtriangles.svg	40	no	0	1	2003
6.6.1	win	2022-12-22	19:39:24	19:47:02	456878	60efa510e3cdfbbf4d7c355b	79237636	1	main_slash	11	advance_on_keypress_SLASH	16	stimuli_distractor_diamondtriangles.svg	stimuli_distractor_diamondtriangles.svg	40	no	57	0	327
6.6.1	win	2022-12-22	19:39:24	19:47:05	459818	60efa510e3cdfbbf4d7c355b	79237636	1	main_slash	11	main_slash	17	stimuli_distractor_diamondtriangles.svg	stimuli_distractor_diamondtriangles.svg	39	no	0	1	2003
6.6.1	win	2022-12-22	19:39:24	19:47:05	459818	60efa510e3cdfbbf4d7c355b	79237636	1	main_slash	11	advance_on_keypress_SLASH	18	stimuli_distractor_diamondtriangles.svg	stimuli_distractor_diamondtriangles.svg	39	no	57	0	302
6.6.1	win	2022-12-22	19:39:24	19:47:07	461332	60efa510e3cdfbbf4d7c355b	79237636	1	main_slash	11	main_slash	19	stimuli_distractor_diamondtriangles.svg	stimuli_target_trianglesquares.svg	30	yes	53	1	604
6.6.1	win	2022-12-22	19:39:24	19:47:07	461332	60efa510e3cdfbbf4d7c355b	79237636	1	main_slash	11	advance_on_keypress_SLASH	20	stimuli_distractor_diamondtriangles.svg	stimuli_target_trianglesquares.svg	30	yes	57	0	425
6.6.1	win	2022-12-22	19:39:24	19:47:08	462760	60efa510e3cdfbbf4d7c355b	79237636	1	main_slash	11	main_slash	21	stimuli_distractor_diamondtriangles.svg	stimuli_target_diamondsquares.svg	32	yes	53	1	394
6.6.1	win	2022-12-22	19:39:24	19:47:08	462760	60efa510e3cdfbbf4d7c355b	79237636	1	main_slash	11	advance_on_keypress_SLASH	22	stimuli_distractor_diamondtriangles.svg	stimuli_target_diamondsquares.svg	32	yes	57	0	198
6.6.1	win	2022-12-22	19:39:24	19:47:11	465573	60efa510e3cdfbbf4d7c355b	79237636	1	main_slash	11	main_slash	23	stimuli_distractor_diamondtriangles.svg	stimuli_distractor_trianglediamonds.svg	37	no	0	1	2003
6.6.1	win	2022-12-22	19:39:24	19:47:11	465573	60efa510e3cdfbbf4d7c355b	79237636	1	main_slash	11	advance_on_keypress_SLASH	24	stimuli_distractor_diamondtriangles.svg	stimuli_distractor_trianglediamonds.svg	37	no	57	0	610
6.6.1	win	2022-12-22	19:39:24	19:47:13	467306	60efa510e3cdfbbf4d7c355b	79237636	1	main_slash	11	main_slash	25	stimuli_target_circletriangles.svg	stimuli_distractor_diamondtriangles.svg	5	yes	53	1	515
6.6.1	win	2022-12-22	19:39:24	19:47:13	467306	60efa510e3cdfbbf4d7c355b	79237636	1	main_slash	11	advance_on_keypress_SLASH	26	stimuli_target_circletriangles.svg	stimuli_distractor_diamondtriangles.svg	5	yes	57	0	391
6.6.1	win	2022-12-22	19:39:24	19:47:14	468814	60efa510e3cdfbbf4d7c355b	79237636	1	main_slash	11	main_slash	27	stimuli_target_squarediamonds.svg	stimuli_distractor_trianglediamonds.svg	4	yes	53	1	507
6.6.1	win	2022-12-22	19:39:24	19:47:14	468814	60efa510e3cdfbbf4d7c355b	79237636	1	main_slash	11	advance_on_keypress_SLASH	28	stimuli_target_squarediamonds.svg	stimuli_distractor_trianglediamonds.svg	4	yes	57	0	333
6.6.1	win	2022-12-22	19:39:24	19:47:16	470354	60efa510e3cdfbbf4d7c355b	79237636	1	main_slash	11	main_slash	29	stimuli_distractor_diamondtriangles.svg	stimuli_target_circlediamonds.svg	14	yes	53	1	597
6.6.1	win	2022-12-22	19:39:24	19:47:16	470354	60efa510e3cdfbbf4d7c355b	79237636	1	main_slash	11	advance_on_keypress_SLASH	30	stimuli_distractor_diamondtriangles.svg	stimuli_target_circlediamonds.svg	14	yes	57	0	268
6.6.1	win	2022-12-22	19:39:24	19:47:17	471648	60efa510e3cdfbbf4d7c355b	79237636	1	main_slash	11	main_slash	31	stimuli_target_circlediamonds.svg	stimuli_distractor_diamondtriangles.svg	6	yes	53	1	417
6.6.1	win	2022-12-22	19:39:24	19:47:17	471648	60efa510e3cdfbbf4d7c355b	79237636	1	main_slash	11	advance_on_keypress_SLASH	32	stimuli_target_circlediamonds.svg	stimuli_distractor_diamondtriangles.svg	6	yes	57	0	290
6.6.1	win	2022-12-22	19:39:24	19:47:18	473054	60efa510e3cdfbbf4d7c355b	79237636	1	main_slash	11	main_slash	33	stimuli_distractor_trianglediamonds.svg	stimuli_target_trianglesquares.svg	26	yes	53	1	507
6.6.1	win	2022-12-22	19:39:24	19:47:18	473054	60efa510e3cdfbbf4d7c355b	79237636	1	main_slash	11	advance_on_keypress_SLASH	34	stimuli_distractor_trianglediamonds.svg	stimuli_target_trianglesquares.svg	26	yes	57	0	189
6.6.1	win	2022-12-22	19:39:24	19:47:20	474877	60efa510e3cdfbbf4d7c355b	79237636	1	main_slash	11	main_slash	35	stimuli_distractor_diamondtriangles.svg	stimuli_target_squarediamonds.svg	16	yes	53	1	1024
6.6.1	win	2022-12-22	19:39:24	19:47:20	474877	60efa510e3cdfbbf4d7c355b	79237636	1	main_slash	11	advance_on_keypress_SLASH	36	stimuli_distractor_diamondtriangles.svg	stimuli_target_squarediamonds.svg	16	yes	57	0	245
6.6.1	win	2022-12-22	19:39:24	19:47:22	476519	60efa510e3cdfbbf4d7c355b	79237636	1	main_slash	11	main_slash	37	stimuli_target_trianglecircles.svg	stimuli_distractor_diamondtriangles.svg	21	yes	53	1	788
6.6.1	win	2022-12-22	19:39:24	19:47:22	476519	60efa510e3cdfbbf4d7c355b	79237636	1	main_slash	11	advance_on_keypress_SLASH	38	stimuli_target_trianglecircles.svg	stimuli_distractor_diamondtriangles.svg	21	yes	57	0	301
6.6.1	win	2022-12-22	19:39:24	19:47:23	477802	60efa510e3cdfbbf4d7c355b	79237636	1	main_slash	11	main_slash	39	stimuli_target_diamondcircles.svg	stimuli_distractor_trianglediamonds.svg	19	yes	53	1	372
6.6.1	win	2022-12-22	19:39:24	19:47:23	477802	60efa510e3cdfbbf4d7c355b	79237636	1	main_slash	11	advance_on_keypress_SLASH	40	stimuli_target_diamondcircles.svg	stimuli_distractor_trianglediamonds.svg	19	yes	57	0	301
6.6.1	win	2022-12-22	19:39:24	19:47:25	479500	60efa510e3cdfbbf4d7c355b	79237636	1	main_slash	11	main_slash	41	stimuli_target_squaretriangles.svg	stimuli_distractor_diamondtriangles.svg	7	yes	53	1	788
6.6.1	win	2022-12-22	19:39:24	19:47:25	479500	60efa510e3cdfbbf4d7c355b	79237636	1	main_slash	11	advance_on_keypress_SLASH	42	stimuli_target_squaretriangles.svg	stimuli_distractor_diamondtriangles.svg	7	yes	57	0	234
6.6.1	win	2022-12-22	19:39:24	19:47:26	480873	60efa510e3cdfbbf4d7c355b	79237636	1	main_slash	11	main_slash	43	stimuli_distractor_trianglediamonds.svg	stimuli_target_squarediamonds.svg	12	yes	53	1	530
6.6.1	win	2022-12-22	19:39:24	19:47:26	480873	60efa510e3cdfbbf4d7c355b	79237636	1	main_slash	11	advance_on_keypress_SLASH	44	stimuli_distractor_trianglediamonds.svg	stimuli_target_squarediamonds.svg	12	yes	57	0	257
6.6.1	win	2022-12-22	19:39:24	19:47:29	483742	60efa510e3cdfbbf4d7c355b	79237636	1	main_slash	11	main_slash	45	stimuli_distractor_trianglediamonds.svg	stimuli_distractor_trianglediamonds.svg	34	no	0	1	2003
6.6.1	win	2022-12-22	19:39:24	19:47:29	483742	60efa510e3cdfbbf4d7c355b	79237636	1	main_slash	11	advance_on_keypress_SLASH	46	stimuli_distractor_trianglediamonds.svg	stimuli_distractor_trianglediamonds.svg	34	no	57	0	440
6.6.1	win	2022-12-22	19:39:24	19:47:31	485238	60efa510e3cdfbbf4d7c355b	79237636	1	main_slash	11	main_slash	47	stimuli_target_trianglesquares.svg	stimuli_distractor_diamondtriangles.svg	22	yes	53	1	445
6.6.1	win	2022-12-22	19:39:24	19:47:31	485238	60efa510e3cdfbbf4d7c355b	79237636	1	main_slash	11	advance_on_keypress_SLASH	48	stimuli_target_trianglesquares.svg	stimuli_distractor_diamondtriangles.svg	22	yes	57	0	256
6.6.1	win	2022-12-22	19:39:24	19:47:32	486520	60efa510e3cdfbbf4d7c355b	79237636	1	main_slash	11	main_slash	49	stimuli_target_diamondsquares.svg	stimuli_distractor_trianglediamonds.svg	20	yes	53	1	416
6.6.1	win	2022-12-22	19:39:24	19:47:32	486520	60efa510e3cdfbbf4d7c355b	79237636	1	main_slash	11	advance_on_keypress_SLASH	50	stimuli_target_diamondsquares.svg	stimuli_distractor_trianglediamonds.svg	20	yes	57	0	279
6.6.1	win	2022-12-22	19:39:24	19:47:34	488546	60efa510e3cdfbbf4d7c355b	79237636	1	main_slash	11	main_slash	51	stimuli_distractor_diamondtriangles.svg	stimuli_target_squaretriangles.svg	15	yes	53	1	1137
6.6.1	win	2022-12-22	19:39:24	19:47:34	488546	60efa510e3cdfbbf4d7c355b	79237636	1	main_slash	11	advance_on_keypress_SLASH	52	stimuli_distractor_diamondtriangles.svg	stimuli_target_squaretriangles.svg	15	yes	57	0	120
6.6.1	win	2022-12-22	19:39:24	19:47:37	491279	60efa510e3cdfbbf4d7c355b	79237636	1	main_slash	11	main_slash	53	stimuli_distractor_diamondtriangles.svg	stimuli_distractor_trianglediamonds.svg	38	no	0	1	2003
6.6.1	win	2022-12-22	19:39:24	19:47:37	491279	60efa510e3cdfbbf4d7c355b	79237636	1	main_slash	11	advance_on_keypress_SLASH	54	stimuli_distractor_diamondtriangles.svg	stimuli_distractor_trianglediamonds.svg	38	no	57	0	419
6.6.1	win	2022-12-22	19:39:24	19:47:38	492764	60efa510e3cdfbbf4d7c355b	79237636	1	main_slash	11	main_slash	55	stimuli_distractor_trianglediamonds.svg	stimuli_target_circlediamonds.svg	10	yes	53	1	458
6.6.1	win	2022-12-22	19:39:24	19:47:38	492764	60efa510e3cdfbbf4d7c355b	79237636	1	main_slash	11	advance_on_keypress_SLASH	56	stimuli_distractor_trianglediamonds.svg	stimuli_target_circlediamonds.svg	10	yes	57	0	257
6.6.1	win	2022-12-22	19:39:24	19:47:39	494091	60efa510e3cdfbbf4d7c355b	79237636	1	main_slash	11	main_slash	57	stimuli_distractor_trianglediamonds.svg	stimuli_target_diamondcircles.svg	27	yes	53	1	462
6.6.1	win	2022-12-22	19:39:24	19:47:39	494091	60efa510e3cdfbbf4d7c355b	79237636	1	main_slash	11	advance_on_keypress_SLASH	58	stimuli_distractor_trianglediamonds.svg	stimuli_target_diamondcircles.svg	27	yes	57	0	189
6.6.1	win	2022-12-22	19:39:24	19:47:41	495329	60efa510e3cdfbbf4d7c355b	79237636	1	main_slash	11	main_slash	59	stimuli_target_diamondcircles.svg	stimuli_distractor_diamondtriangles.svg	23	yes	53	1	439
6.6.1	win	2022-12-22	19:39:24	19:47:41	495329	60efa510e3cdfbbf4d7c355b	79237636	1	main_slash	11	advance_on_keypress_SLASH	60	stimuli_target_diamondcircles.svg	stimuli_distractor_diamondtriangles.svg	23	yes	57	0	133
6.6.1	win	2022-12-22	19:39:24	19:47:42	496634	60efa510e3cdfbbf4d7c355b	79237636	1	main_slash	11	main_slash	61	stimuli_distractor_trianglediamonds.svg	stimuli_target_trianglecircles.svg	25	yes	53	1	564
6.6.1	win	2022-12-22	19:39:24	19:47:42	496634	60efa510e3cdfbbf4d7c355b	79237636	1	main_slash	11	advance_on_keypress_SLASH	62	stimuli_distractor_trianglediamonds.svg	stimuli_target_trianglecircles.svg	25	yes	57	0	200
6.6.1	win	2022-12-22	19:39:24	19:47:43	497838	60efa510e3cdfbbf4d7c355b	79237636	1	main_slash	11	main_slash	63	stimuli_target_squaretriangles.svg	stimuli_distractor_trianglediamonds.svg	3	yes	53	1	396
6.6.1	win	2022-12-22	19:39:24	19:47:43	497838	60efa510e3cdfbbf4d7c355b	79237636	1	main_slash	11	advance_on_keypress_SLASH	64	stimuli_target_squaretriangles.svg	stimuli_distractor_trianglediamonds.svg	3	yes	57	0	109
6.6.1	win	2022-12-22	19:39:24	19:47:46	500561	60efa510e3cdfbbf4d7c355b	79237636	1	main_slash	11	main_slash	65	stimuli_distractor_trianglediamonds.svg	stimuli_distractor_trianglediamonds.svg	33	no	0	1	2003
6.6.1	win	2022-12-22	19:39:24	19:47:46	500561	60efa510e3cdfbbf4d7c355b	79237636	1	main_slash	11	advance_on_keypress_SLASH	66	stimuli_distractor_trianglediamonds.svg	stimuli_distractor_trianglediamonds.svg	33	no	57	0	931
6.6.1	win	2022-12-22	19:39:24	19:47:48	502664	60efa510e3cdfbbf4d7c355b	79237636	1	main_slash	11	main_slash	67	stimuli_distractor_diamondtriangles.svg	stimuli_target_diamondcircles.svg	31	yes	53	1	564
6.6.1	win	2022-12-22	19:39:24	19:47:48	502664	60efa510e3cdfbbf4d7c355b	79237636	1	main_slash	11	advance_on_keypress_SLASH	68	stimuli_distractor_diamondtriangles.svg	stimuli_target_diamondcircles.svg	31	yes	57	0	369
6.6.1	win	2022-12-22	19:39:24	19:47:51	505646	60efa510e3cdfbbf4d7c355b	79237636	1	main_slash	11	main_slash	69	stimuli_distractor_trianglediamonds.svg	stimuli_distractor_diamondtriangles.svg	35	no	0	1	2003
6.6.1	win	2022-12-22	19:39:24	19:47:51	505646	60efa510e3cdfbbf4d7c355b	79237636	1	main_slash	11	advance_on_keypress_SLASH	70	stimuli_distractor_trianglediamonds.svg	stimuli_distractor_diamondtriangles.svg	35	no	57	0	588
6.6.1	win	2022-12-22	19:39:24	19:47:53	507288	60efa510e3cdfbbf4d7c355b	79237636	1	main_slash	11	main_slash	71	stimuli_distractor_diamondtriangles.svg	stimuli_target_trianglecircles.svg	29	yes	53	1	447
6.6.1	win	2022-12-22	19:39:24	19:47:53	507288	60efa510e3cdfbbf4d7c355b	79237636	1	main_slash	11	advance_on_keypress_SLASH	72	stimuli_distractor_diamondtriangles.svg	stimuli_target_trianglecircles.svg	29	yes	57	0	279
6.6.1	win	2022-12-22	19:39:24	19:47:54	508728	60efa510e3cdfbbf4d7c355b	79237636	1	main_slash	11	main_slash	73	stimuli_target_squarediamonds.svg	stimuli_distractor_diamondtriangles.svg	8	yes	53	1	551
6.6.1	win	2022-12-22	19:39:24	19:47:54	508728	60efa510e3cdfbbf4d7c355b	79237636	1	main_slash	11	advance_on_keypress_SLASH	74	stimuli_target_squarediamonds.svg	stimuli_distractor_diamondtriangles.svg	8	yes	57	0	323
6.6.1	win	2022-12-22	19:39:24	19:47:56	510122	60efa510e3cdfbbf4d7c355b	79237636	1	main_slash	11	main_slash	75	stimuli_distractor_diamondtriangles.svg	stimuli_target_circletriangles.svg	13	yes	53	1	462
6.6.1	win	2022-12-22	19:39:24	19:47:56	510122	60efa510e3cdfbbf4d7c355b	79237636	1	main_slash	11	advance_on_keypress_SLASH	76	stimuli_distractor_diamondtriangles.svg	stimuli_target_circletriangles.svg	13	yes	57	0	348
6.6.1	win	2022-12-22	19:39:24	19:47:57	511596	60efa510e3cdfbbf4d7c355b	79237636	1	main_slash	11	main_slash	77	stimuli_target_circletriangles.svg	stimuli_distractor_trianglediamonds.svg	1	yes	53	1	518
6.6.1	win	2022-12-22	19:39:24	19:47:57	511596	60efa510e3cdfbbf4d7c355b	79237636	1	main_slash	11	advance_on_keypress_SLASH	78	stimuli_target_circletriangles.svg	stimuli_distractor_trianglediamonds.svg	1	yes	57	0	154
6.6.1	win	2022-12-22	19:39:24	19:47:58	512867	60efa510e3cdfbbf4d7c355b	79237636	1	main_slash	11	main_slash	79	stimuli_target_trianglesquares.svg	stimuli_distractor_trianglediamonds.svg	18	yes	53	1	506
6.6.1	win	2022-12-22	19:39:24	19:47:58	512867	60efa510e3cdfbbf4d7c355b	79237636	1	main_slash	11	advance_on_keypress_SLASH	80	stimuli_target_trianglesquares.svg	stimuli_distractor_trianglediamonds.svg	18	yes	57	0	188
6.6.1	win	2022-12-22	19:39:24	19:48:00	514477	60efa510e3cdfbbf4d7c355b	79237636	1	main_slash	11	main_slash	81	stimuli_target_circletriangles.svg	stimuli_distractor_diamondtriangles.svg	5	yes	53	1	807
6.6.1	win	2022-12-22	19:39:24	19:48:00	514477	60efa510e3cdfbbf4d7c355b	79237636	1	main_slash	11	advance_on_keypress_SLASH	82	stimuli_target_circletriangles.svg	stimuli_distractor_diamondtriangles.svg	5	yes	57	0	256
6.6.1	win	2022-12-22	19:39:24	19:48:03	517345	60efa510e3cdfbbf4d7c355b	79237636	1	main_slash	11	main_slash	83	stimuli_distractor_diamondtriangles.svg	stimuli_distractor_diamondtriangles.svg	39	no	0	1	2003
6.6.1	win	2022-12-22	19:39:24	19:48:03	517345	60efa510e3cdfbbf4d7c355b	79237636	1	main_slash	11	advance_on_keypress_SLASH	84	stimuli_distractor_diamondtriangles.svg	stimuli_distractor_diamondtriangles.svg	39	no	57	0	519
6.6.1	win	2022-12-22	19:39:24	19:48:04	518908	60efa510e3cdfbbf4d7c355b	79237636	1	main_slash	11	main_slash	85	stimuli_target_squaretriangles.svg	stimuli_distractor_diamondtriangles.svg	7	yes	53	1	434
6.6.1	win	2022-12-22	19:39:24	19:48:04	518908	60efa510e3cdfbbf4d7c355b	79237636	1	main_slash	11	advance_on_keypress_SLASH	86	stimuli_target_squaretriangles.svg	stimuli_distractor_diamondtriangles.svg	7	yes	57	0	336
6.6.1	win	2022-12-22	19:39:24	19:48:06	520191	60efa510e3cdfbbf4d7c355b	79237636	1	main_slash	11	main_slash	87	stimuli_distractor_trianglediamonds.svg	stimuli_target_trianglesquares.svg	26	yes	53	1	334
6.6.1	win	2022-12-22	19:39:24	19:48:06	520191	60efa510e3cdfbbf4d7c355b	79237636	1	main_slash	11	advance_on_keypress_SLASH	88	stimuli_distractor_trianglediamonds.svg	stimuli_target_trianglesquares.svg	26	yes	57	0	221
6.6.1	win	2022-12-22	19:39:24	19:48:08	523026	60efa510e3cdfbbf4d7c355b	79237636	1	main_slash	11	main_slash	89	stimuli_distractor_diamondtriangles.svg	stimuli_distractor_diamondtriangles.svg	40	no	0	1	2003
6.6.1	win	2022-12-22	19:39:24	19:48:08	523026	60efa510e3cdfbbf4d7c355b	79237636	1	main_slash	11	advance_on_keypress_SLASH	90	stimuli_distractor_diamondtriangles.svg	stimuli_distractor_diamondtriangles.svg	40	no	57	0	340
6.6.1	win	2022-12-22	19:39:24	19:48:10	524501	60efa510e3cdfbbf4d7c355b	79237636	1	main_slash	11	main_slash	91	stimuli_distractor_trianglediamonds.svg	stimuli_target_diamondsquares.svg	28	yes	53	1	527
6.6.1	win	2022-12-22	19:39:24	19:48:10	524501	60efa510e3cdfbbf4d7c355b	79237636	1	main_slash	11	advance_on_keypress_SLASH	92	stimuli_distractor_trianglediamonds.svg	stimuli_target_diamondsquares.svg	28	yes	57	0	333
6.6.1	win	2022-12-22	19:39:24	19:48:11	525951	60efa510e3cdfbbf4d7c355b	79237636	1	main_slash	11	main_slash	93	stimuli_distractor_trianglediamonds.svg	stimuli_target_diamondcircles.svg	27	yes	53	1	507
6.6.1	win	2022-12-22	19:39:24	19:48:11	525951	60efa510e3cdfbbf4d7c355b	79237636	1	main_slash	11	advance_on_keypress_SLASH	94	stimuli_distractor_trianglediamonds.svg	stimuli_target_diamondcircles.svg	27	yes	57	0	189
6.6.1	win	2022-12-22	19:39:24	19:48:13	527121	60efa510e3cdfbbf4d7c355b	79237636	1	main_slash	11	main_slash	95	stimuli_distractor_trianglediamonds.svg	stimuli_target_trianglecircles.svg	25	yes	53	1	369
6.6.1	win	2022-12-22	19:39:24	19:48:13	527121	60efa510e3cdfbbf4d7c355b	79237636	1	main_slash	11	advance_on_keypress_SLASH	96	stimuli_distractor_trianglediamonds.svg	stimuli_target_trianglecircles.svg	25	yes	57	0	176
6.6.1	win	2022-12-22	19:39:24	19:48:14	528325	60efa510e3cdfbbf4d7c355b	79237636	1	main_slash	11	main_slash	97	stimuli_target_trianglecircles.svg	stimuli_distractor_diamondtriangles.svg	21	yes	53	1	417
6.6.1	win	2022-12-22	19:39:24	19:48:14	528325	60efa510e3cdfbbf4d7c355b	79237636	1	main_slash	11	advance_on_keypress_SLASH	98	stimuli_target_trianglecircles.svg	stimuli_distractor_diamondtriangles.svg	21	yes	57	0	211
6.6.1	win	2022-12-22	19:39:24	19:48:15	530091	60efa510e3cdfbbf4d7c355b	79237636	1	main_slash	11	main_slash	99	stimuli_distractor_trianglediamonds.svg	stimuli_distractor_diamondtriangles.svg	36	no	53	0	946
6.6.1	win	2022-12-22	19:39:24	19:48:15	530091	60efa510e3cdfbbf4d7c355b	79237636	1	main_slash	11	advance_on_keypress_SLASH	100	stimuli_distractor_trianglediamonds.svg	stimuli_distractor_diamondtriangles.svg	36	no	57	0	188
6.6.1	win	2022-12-22	19:39:24	19:48:17	531486	60efa510e3cdfbbf4d7c355b	79237636	1	main_slash	11	main_slash	101	stimuli_distractor_trianglediamonds.svg	stimuli_target_circlediamonds.svg	10	yes	53	1	598
6.6.1	win	2022-12-22	19:39:24	19:48:17	531486	60efa510e3cdfbbf4d7c355b	79237636	1	main_slash	11	advance_on_keypress_SLASH	102	stimuli_distractor_trianglediamonds.svg	stimuli_target_circlediamonds.svg	10	yes	57	0	211
6.6.1	win	2022-12-22	19:39:24	19:48:18	533084	60efa510e3cdfbbf4d7c355b	79237636	1	main_slash	11	main_slash	103	stimuli_distractor_diamondtriangles.svg	stimuli_distractor_trianglediamonds.svg	37	no	53	0	777
6.6.1	win	2022-12-22	19:39:24	19:48:18	533084	60efa510e3cdfbbf4d7c355b	79237636	1	main_slash	11	advance_on_keypress_SLASH	104	stimuli_distractor_diamondtriangles.svg	stimuli_distractor_trianglediamonds.svg	37	no	57	0	368
6.6.1	win	2022-12-22	19:39:24	19:48:20	534523	60efa510e3cdfbbf4d7c355b	79237636	1	main_slash	11	main_slash	105	stimuli_distractor_trianglediamonds.svg	stimuli_target_squarediamonds.svg	12	yes	53	1	462
6.6.1	win	2022-12-22	19:39:24	19:48:20	534523	60efa510e3cdfbbf4d7c355b	79237636	1	main_slash	11	advance_on_keypress_SLASH	106	stimuli_distractor_trianglediamonds.svg	stimuli_target_squarediamonds.svg	12	yes	57	0	255
6.6.1	win	2022-12-22	19:39:24	19:48:21	535806	60efa510e3cdfbbf4d7c355b	79237636	1	main_slash	11	main_slash	107	stimuli_distractor_diamondtriangles.svg	stimuli_target_squaretriangles.svg	15	yes	53	1	416
6.6.1	win	2022-12-22	19:39:24	19:48:21	535806	60efa510e3cdfbbf4d7c355b	79237636	1	main_slash	11	advance_on_keypress_SLASH	108	stimuli_distractor_diamondtriangles.svg	stimuli_target_squaretriangles.svg	15	yes	57	0	347
6.6.1	win	2022-12-22	19:39:24	19:48:24	538765	60efa510e3cdfbbf4d7c355b	79237636	1	main_slash	11	main_slash	109	stimuli_distractor_diamondtriangles.svg	stimuli_distractor_trianglediamonds.svg	38	no	0	1	2003
6.6.1	win	2022-12-22	19:39:24	19:48:24	538765	60efa510e3cdfbbf4d7c355b	79237636	1	main_slash	11	advance_on_keypress_SLASH	110	stimuli_distractor_diamondtriangles.svg	stimuli_distractor_trianglediamonds.svg	38	no	57	0	329
6.6.1	win	2022-12-22	19:39:24	19:48:25	540092	60efa510e3cdfbbf4d7c355b	79237636	1	main_slash	11	main_slash	111	stimuli_target_diamondcircles.svg	stimuli_distractor_diamondtriangles.svg	23	yes	53	1	388
6.6.1	win	2022-12-22	19:39:24	19:48:25	540092	60efa510e3cdfbbf4d7c355b	79237636	1	main_slash	11	advance_on_keypress_SLASH	112	stimuli_target_diamondcircles.svg	stimuli_distractor_diamondtriangles.svg	23	yes	57	0	268
6.6.1	win	2022-12-22	19:39:24	19:48:27	541847	60efa510e3cdfbbf4d7c355b	79237636	1	main_slash	11	main_slash	113	stimuli_target_diamondcircles.svg	stimuli_distractor_trianglediamonds.svg	19	yes	53	1	879
6.6.1	win	2022-12-22	19:39:24	19:48:27	541847	60efa510e3cdfbbf4d7c355b	79237636	1	main_slash	11	advance_on_keypress_SLASH	114	stimuli_target_diamondcircles.svg	stimuli_distractor_trianglediamonds.svg	19	yes	57	0	390
6.6.1	win	2022-12-22	19:39:24	19:48:29	543354	60efa510e3cdfbbf4d7c355b	79237636	1	main_slash	11	main_slash	115	stimuli_target_circletriangles.svg	stimuli_distractor_trianglediamonds.svg	1	yes	53	1	507
6.6.1	win	2022-12-22	19:39:24	19:48:29	543354	60efa510e3cdfbbf4d7c355b	79237636	1	main_slash	11	advance_on_keypress_SLASH	116	stimuli_target_circletriangles.svg	stimuli_distractor_trianglediamonds.svg	1	yes	57	0	222
6.6.1	win	2022-12-22	19:39:24	19:48:30	544614	60efa510e3cdfbbf4d7c355b	79237636	1	main_slash	11	main_slash	117	stimuli_distractor_diamondtriangles.svg	stimuli_target_circlediamonds.svg	14	yes	53	1	428
6.6.1	win	2022-12-22	19:39:24	19:48:30	544614	60efa510e3cdfbbf4d7c355b	79237636	1	main_slash	11	advance_on_keypress_SLASH	118	stimuli_distractor_diamondtriangles.svg	stimuli_target_circlediamonds.svg	14	yes	57	0	257
6.6.1	win	2022-12-22	19:39:24	19:48:31	545784	60efa510e3cdfbbf4d7c355b	79237636	1	main_slash	11	main_slash	119	stimuli_distractor_diamondtriangles.svg	stimuli_target_circletriangles.svg	13	yes	53	1	304
6.6.1	win	2022-12-22	19:39:24	19:48:31	545784	60efa510e3cdfbbf4d7c355b	79237636	1	main_slash	11	advance_on_keypress_SLASH	120	stimuli_distractor_diamondtriangles.svg	stimuli_target_circletriangles.svg	13	yes	57	0	218
6.6.1	win	2022-12-22	19:39:24	19:48:33	547416	60efa510e3cdfbbf4d7c355b	79237636	1	main_slash	11	main_slash	121	stimuli_distractor_diamondtriangles.svg	stimuli_target_diamondcircles.svg	31	yes	53	1	799
6.6.1	win	2022-12-22	19:39:24	19:48:33	547416	60efa510e3cdfbbf4d7c355b	79237636	1	main_slash	11	advance_on_keypress_SLASH	122	stimuli_distractor_diamondtriangles.svg	stimuli_target_diamondcircles.svg	31	yes	57	0	234
6.6.1	win	2022-12-22	19:39:24	19:48:34	548946	60efa510e3cdfbbf4d7c355b	79237636	1	main_slash	11	main_slash	123	stimuli_distractor_trianglediamonds.svg	stimuli_target_circletriangles.svg	9	yes	53	1	686
6.6.1	win	2022-12-22	19:39:24	19:48:34	548946	60efa510e3cdfbbf4d7c355b	79237636	1	main_slash	11	advance_on_keypress_SLASH	124	stimuli_distractor_trianglediamonds.svg	stimuli_target_circletriangles.svg	9	yes	57	0	425
6.6.1	win	2022-12-22	19:39:24	19:48:36	550318	60efa510e3cdfbbf4d7c355b	79237636	1	main_slash	11	main_slash	125	stimuli_target_trianglesquares.svg	stimuli_distractor_diamondtriangles.svg	22	yes	53	1	338
6.6.1	win	2022-12-22	19:39:24	19:48:36	550318	60efa510e3cdfbbf4d7c355b	79237636	1	main_slash	11	advance_on_keypress_SLASH	126	stimuli_target_trianglesquares.svg	stimuli_distractor_diamondtriangles.svg	22	yes	57	0	358
6.6.1	win	2022-12-22	19:39:24	19:48:37	551589	60efa510e3cdfbbf4d7c355b	79237636	1	main_slash	11	main_slash	127	stimuli_target_squarediamonds.svg	stimuli_distractor_diamondtriangles.svg	8	yes	53	1	304
6.6.1	win	2022-12-22	19:39:24	19:48:37	551589	60efa510e3cdfbbf4d7c355b	79237636	1	main_slash	11	advance_on_keypress_SLASH	128	stimuli_target_squarediamonds.svg	stimuli_distractor_diamondtriangles.svg	8	yes	57	0	456
6.6.1	win	2022-12-22	19:39:24	19:48:38	552917	60efa510e3cdfbbf4d7c355b	79237636	1	main_slash	11	main_slash	129	stimuli_target_circlediamonds.svg	stimuli_distractor_trianglediamonds.svg	2	yes	53	1	258
6.6.1	win	2022-12-22	19:39:24	19:48:38	552917	60efa510e3cdfbbf4d7c355b	79237636	1	main_slash	11	advance_on_keypress_SLASH	130	stimuli_target_circlediamonds.svg	stimuli_distractor_trianglediamonds.svg	2	yes	57	0	343
6.6.1	win	2022-12-22	19:39:24	19:48:40	554200	60efa510e3cdfbbf4d7c355b	79237636	1	main_slash	11	main_slash	131	stimuli_distractor_diamondtriangles.svg	stimuli_target_trianglecircles.svg	29	yes	53	1	328
6.6.1	win	2022-12-22	19:39:24	19:48:40	554200	60efa510e3cdfbbf4d7c355b	79237636	1	main_slash	11	advance_on_keypress_SLASH	132	stimuli_distractor_diamondtriangles.svg	stimuli_target_trianglecircles.svg	29	yes	57	0	311
6.6.1	win	2022-12-22	19:39:24	19:48:41	555403	60efa510e3cdfbbf4d7c355b	79237636	1	main_slash	11	main_slash	133	stimuli_distractor_diamondtriangles.svg	stimuli_target_squarediamonds.svg	16	yes	53	1	282
6.6.1	win	2022-12-22	19:39:24	19:48:41	555403	60efa510e3cdfbbf4d7c355b	79237636	1	main_slash	11	advance_on_keypress_SLASH	134	stimuli_distractor_diamondtriangles.svg	stimuli_target_squarediamonds.svg	16	yes	57	0	346
6.6.1	win	2022-12-22	19:39:24	19:48:42	556607	60efa510e3cdfbbf4d7c355b	79237636	1	main_slash	11	main_slash	135	stimuli_distractor_trianglediamonds.svg	stimuli_target_squaretriangles.svg	11	yes	53	1	249
6.6.1	win	2022-12-22	19:39:24	19:48:42	556607	60efa510e3cdfbbf4d7c355b	79237636	1	main_slash	11	advance_on_keypress_SLASH	136	stimuli_distractor_trianglediamonds.svg	stimuli_target_squaretriangles.svg	11	yes	57	0	469
6.6.1	win	2022-12-22	19:39:24	19:48:43	557867	60efa510e3cdfbbf4d7c355b	79237636	1	main_slash	11	main_slash	137	stimuli_target_trianglecircles.svg	stimuli_distractor_trianglediamonds.svg	17	yes	53	1	180
6.6.1	win	2022-12-22	19:39:24	19:48:43	557867	60efa510e3cdfbbf4d7c355b	79237636	1	main_slash	11	advance_on_keypress_SLASH	138	stimuli_target_trianglecircles.svg	stimuli_distractor_trianglediamonds.svg	17	yes	57	0	414
6.6.1	win	2022-12-22	19:39:24	19:48:45	559329	60efa510e3cdfbbf4d7c355b	79237636	1	main_slash	11	main_slash	139	stimuli_distractor_trianglediamonds.svg	stimuli_distractor_diamondtriangles.svg	35	no	53	0	439
6.6.1	win	2022-12-22	19:39:24	19:48:45	559329	60efa510e3cdfbbf4d7c355b	79237636	1	main_slash	11	advance_on_keypress_SLASH	140	stimuli_distractor_trianglediamonds.svg	stimuli_distractor_diamondtriangles.svg	35	no	57	0	347
6.6.1	win	2022-12-22	19:39:24	19:48:46	560780	60efa510e3cdfbbf4d7c355b	79237636	1	main_slash	11	main_slash	141	stimuli_target_diamondsquares.svg	stimuli_distractor_trianglediamonds.svg	20	yes	53	1	495
6.6.1	win	2022-12-22	19:39:24	19:48:46	560780	60efa510e3cdfbbf4d7c355b	79237636	1	main_slash	11	advance_on_keypress_SLASH	142	stimuli_target_diamondsquares.svg	stimuli_distractor_trianglediamonds.svg	20	yes	57	0	369
6.6.1	win	2022-12-22	19:39:24	19:48:47	562052	60efa510e3cdfbbf4d7c355b	79237636	1	main_slash	11	main_slash	143	stimuli_distractor_trianglediamonds.svg	stimuli_distractor_trianglediamonds.svg	33	no	53	0	293
6.6.1	win	2022-12-22	19:39:24	19:48:47	562052	60efa510e3cdfbbf4d7c355b	79237636	1	main_slash	11	advance_on_keypress_SLASH	144	stimuli_distractor_trianglediamonds.svg	stimuli_distractor_trianglediamonds.svg	33	no	57	0	335
6.6.1	win	2022-12-22	19:39:24	19:48:49	563480	60efa510e3cdfbbf4d7c355b	79237636	1	main_slash	11	main_slash	145	stimuli_target_squarediamonds.svg	stimuli_distractor_trianglediamonds.svg	4	yes	53	1	484
6.6.1	win	2022-12-22	19:39:24	19:48:49	563480	60efa510e3cdfbbf4d7c355b	79237636	1	main_slash	11	advance_on_keypress_SLASH	146	stimuli_target_squarediamonds.svg	stimuli_distractor_trianglediamonds.svg	4	yes	57	0	366
6.6.1	win	2022-12-22	19:39:24	19:48:51	565326	60efa510e3cdfbbf4d7c355b	79237636	1	main_slash	11	main_slash	147	stimuli_distractor_diamondtriangles.svg	stimuli_target_diamondsquares.svg	32	yes	53	1	867
6.6.1	win	2022-12-22	19:39:24	19:48:51	565326	60efa510e3cdfbbf4d7c355b	79237636	1	main_slash	11	advance_on_keypress_SLASH	148	stimuli_distractor_diamondtriangles.svg	stimuli_target_diamondsquares.svg	32	yes	57	0	369
6.6.1	win	2022-12-22	19:39:24	19:48:52	566799	60efa510e3cdfbbf4d7c355b	79237636	1	main_slash	11	main_slash	149	stimuli_target_diamondsquares.svg	stimuli_distractor_diamondtriangles.svg	24	yes	53	1	496
6.6.1	win	2022-12-22	19:39:24	19:48:52	566799	60efa510e3cdfbbf4d7c355b	79237636	1	main_slash	11	advance_on_keypress_SLASH	150	stimuli_target_diamondsquares.svg	stimuli_distractor_diamondtriangles.svg	24	yes	57	0	290
6.6.1	win	2022-12-22	19:39:24	19:48:54	568239	60efa510e3cdfbbf4d7c355b	79237636	1	main_slash	11	main_slash	151	stimuli_distractor_diamondtriangles.svg	stimuli_target_trianglesquares.svg	30	yes	53	1	541
6.6.1	win	2022-12-22	19:39:24	19:48:54	568239	60efa510e3cdfbbf4d7c355b	79237636	1	main_slash	11	advance_on_keypress_SLASH	152	stimuli_distractor_diamondtriangles.svg	stimuli_target_trianglesquares.svg	30	yes	57	0	356
6.6.1	win	2022-12-22	19:39:24	19:48:55	569690	60efa510e3cdfbbf4d7c355b	79237636	1	main_slash	11	main_slash	153	stimuli_target_circlediamonds.svg	stimuli_distractor_diamondtriangles.svg	6	yes	53	1	484
6.6.1	win	2022-12-22	19:39:24	19:48:55	569690	60efa510e3cdfbbf4d7c355b	79237636	1	main_slash	11	advance_on_keypress_SLASH	154	stimuli_target_circlediamonds.svg	stimuli_distractor_diamondtriangles.svg	6	yes	57	0	321
6.6.1	win	2022-12-22	19:39:24	19:48:57	571131	60efa510e3cdfbbf4d7c355b	79237636	1	main_slash	11	main_slash	155	stimuli_target_trianglesquares.svg	stimuli_distractor_trianglediamonds.svg	18	yes	53	1	507
6.6.1	win	2022-12-22	19:39:24	19:48:57	571131	60efa510e3cdfbbf4d7c355b	79237636	1	main_slash	11	advance_on_keypress_SLASH	156	stimuli_target_trianglesquares.svg	stimuli_distractor_trianglediamonds.svg	18	yes	57	0	344
6.6.1	win	2022-12-22	19:39:24	19:48:58	572717	60efa510e3cdfbbf4d7c355b	79237636	1	main_slash	11	main_slash	157	stimuli_target_squaretriangles.svg	stimuli_distractor_trianglediamonds.svg	3	yes	53	1	631
6.6.1	win	2022-12-22	19:39:24	19:48:58	572717	60efa510e3cdfbbf4d7c355b	79237636	1	main_slash	11	advance_on_keypress_SLASH	158	stimuli_target_squaretriangles.svg	stimuli_distractor_trianglediamonds.svg	3	yes	57	0	342
6.6.1	win	2022-12-22	19:39:24	19:49:01	575675	60efa510e3cdfbbf4d7c355b	79237636	1	main_slash	11	main_slash	159	stimuli_distractor_trianglediamonds.svg	stimuli_distractor_trianglediamonds.svg	34	no	0	1	2003
6.6.1	win	2022-12-22	19:39:24	19:49:01	575675	60efa510e3cdfbbf4d7c355b	79237636	1	main_slash	11	advance_on_keypress_SLASH	160	stimuli_distractor_trianglediamonds.svg	stimuli_distractor_trianglediamonds.svg	34	no	57	0	306