build	computer.platform	date	time	timestamp	time_elapsed_ms	subject	group	session	blockcode	blocknum	trialcode	trialnum	stimulus_left	stimulus_right	stim_index	target_present	response	correct	latency
6.6.1	win	2022-12-15	16:14:27	16:17:01	152085	60ff8160e8f2227f8b200510	86300028	1	practice_z	5	practice_z	1	stimuli_distractor_diamondtriangles.svg	stimuli_target_circletriangles.svg	7	yes	44	1	1218
6.6.1	win	2022-12-15	16:14:27	16:17:01	152085	60ff8160e8f2227f8b200510	86300028	1	practice_z	5	advance_on_keypress_ZEE	2	stimuli_distractor_diamondtriangles.svg	stimuli_target_circletriangles.svg	7	yes	57	0	1111
6.6.1	win	2022-12-15	16:14:27	16:17:05	156174	60ff8160e8f2227f8b200510	86300028	1	practice_z	5	practice_z	3	stimuli_distractor_trianglediamonds.svg	stimuli_target_diamondcircles.svg	12	yes	44	1	1311
6.6.1	win	2022-12-15	16:14:27	16:17:05	156174	60ff8160e8f2227f8b200510	86300028	1	practice_z	5	advance_on_keypress_ZEE	4	stimuli_distractor_trianglediamonds.svg	stimuli_target_diamondcircles.svg	12	yes	57	0	832
6.6.1	win	2022-12-15	16:14:27	16:17:09	160659	60ff8160e8f2227f8b200510	86300028	1	practice_z	5	practice_z	5	stimuli_distractor_trianglediamonds.svg	stimuli_distractor_trianglediamonds.svg	15	no	0	1	2000
6.6.1	win	2022-12-15	16:14:27	16:17:09	160659	60ff8160e8f2227f8b200510	86300028	1	practice_z	5	advance_on_keypress_ZEE	6	stimuli_distractor_trianglediamonds.svg	stimuli_distractor_trianglediamonds.svg	15	no	57	0	690
6.6.1	win	2022-12-15	16:14:27	16:17:13	164015	60ff8160e8f2227f8b200510	86300028	1	practice_z	5	practice_z	7	stimuli_distractor_trianglediamonds.svg	stimuli_target_squarediamonds.svg	11	yes	44	1	1028
6.6.1	win	2022-12-15	16:14:27	16:17:13	164015	60ff8160e8f2227f8b200510	86300028	1	practice_z	5	advance_on_keypress_ZEE	8	stimuli_distractor_trianglediamonds.svg	stimuli_target_squarediamonds.svg	11	yes	57	0	1990
6.6.1	win	2022-12-15	16:14:27	16:17:17	168534	60ff8160e8f2227f8b200510	86300028	1	practice_z	5	practice_z	9	stimuli_target_squarediamonds.svg	stimuli_distractor_diamondtriangles.svg	2	yes	44	1	884
6.6.1	win	2022-12-15	16:14:27	16:17:17	168534	60ff8160e8f2227f8b200510	86300028	1	practice_z	5	advance_on_keypress_ZEE	10	stimuli_target_squarediamonds.svg	stimuli_distractor_diamondtriangles.svg	2	yes	57	0	1073
6.6.1	win	2022-12-15	16:14:27	16:17:21	172627	60ff8160e8f2227f8b200510	86300028	1	practice_z	5	practice_z	11	stimuli_target_diamondsquares.svg	stimuli_distractor_diamondtriangles.svg	3	yes	44	1	1379
6.6.1	win	2022-12-15	16:14:27	16:17:21	172627	60ff8160e8f2227f8b200510	86300028	1	practice_z	5	advance_on_keypress_ZEE	12	stimuli_target_diamondsquares.svg	stimuli_distractor_diamondtriangles.svg	3	yes	57	0	1229
6.6.1	win	2022-12-15	16:14:27	16:17:25	176144	60ff8160e8f2227f8b200510	86300028	1	practice_z	5	practice_z	13	stimuli_target_circlediamonds.svg	stimuli_distractor_trianglediamonds.svg	4	yes	44	1	636
6.6.1	win	2022-12-15	16:14:27	16:17:25	176144	60ff8160e8f2227f8b200510	86300028	1	practice_z	5	advance_on_keypress_ZEE	14	stimuli_target_circlediamonds.svg	stimuli_distractor_trianglediamonds.svg	4	yes	57	0	576
6.6.1	win	2022-12-15	16:14:27	16:17:28	179365	60ff8160e8f2227f8b200510	86300028	1	practice_z	5	practice_z	15	stimuli_distractor_diamondtriangles.svg	stimuli_target_diamondcircles.svg	8	yes	44	1	1007
6.6.1	win	2022-12-15	16:14:27	16:17:28	179365	60ff8160e8f2227f8b200510	86300028	1	practice_z	5	advance_on_keypress_ZEE	16	stimuli_distractor_diamondtriangles.svg	stimuli_target_diamondcircles.svg	8	yes	57	0	618
6.6.1	win	2022-12-15	16:14:27	16:17:32	183127	60ff8160e8f2227f8b200510	86300028	1	practice_z	5	practice_z	17	stimuli_target_diamondsquares.svg	stimuli_distractor_trianglediamonds.svg	6	yes	44	1	1490
6.6.1	win	2022-12-15	16:14:27	16:17:32	183127	60ff8160e8f2227f8b200510	86300028	1	practice_z	5	advance_on_keypress_ZEE	18	stimuli_target_diamondsquares.svg	stimuli_distractor_trianglediamonds.svg	6	yes	57	0	806
6.6.1	win	2022-12-15	16:14:27	16:17:35	186244	60ff8160e8f2227f8b200510	86300028	1	practice_z	5	practice_z	19	stimuli_distractor_trianglediamonds.svg	stimuli_target_circlediamonds.svg	10	yes	44	1	679
6.6.1	win	2022-12-15	16:14:27	16:17:35	186244	60ff8160e8f2227f8b200510	86300028	1	practice_z	5	advance_on_keypress_ZEE	20	stimuli_distractor_trianglediamonds.svg	stimuli_target_circlediamonds.svg	10	yes	57	0	620
6.6.1	win	2022-12-15	16:14:27	16:17:38	189270	60ff8160e8f2227f8b200510	86300028	1	practice_z	5	practice_z	21	stimuli_target_squarediamonds.svg	stimuli_distractor_trianglediamonds.svg	5	yes	44	1	758
6.6.1	win	2022-12-15	16:14:27	16:17:38	189270	60ff8160e8f2227f8b200510	86300028	1	practice_z	5	advance_on_keypress_ZEE	22	stimuli_target_squarediamonds.svg	stimuli_distractor_trianglediamonds.svg	5	yes	57	0	468
6.6.1	win	2022-12-15	16:14:27	16:17:42	192855	60ff8160e8f2227f8b200510	86300028	1	practice_z	5	practice_z	23	stimuli_distractor_diamondtriangles.svg	stimuli_target_trianglecircles.svg	9	yes	44	1	1479
6.6.1	win	2022-12-15	16:14:27	16:17:42	192855	60ff8160e8f2227f8b200510	86300028	1	practice_z	5	advance_on_keypress_ZEE	24	stimuli_distractor_diamondtriangles.svg	stimuli_target_trianglecircles.svg	9	yes	57	0	427
6.6.1	win	2022-12-15	16:14:27	16:17:45	196444	60ff8160e8f2227f8b200510	86300028	1	practice_z	5	practice_z	25	stimuli_distractor_diamondtriangles.svg	stimuli_distractor_diamondtriangles.svg	13	no	44	0	1521
6.6.1	win	2022-12-15	16:14:27	16:17:45	196444	60ff8160e8f2227f8b200510	86300028	1	practice_z	5	advance_on_keypress_ZEE	26	stimuli_distractor_diamondtriangles.svg	stimuli_distractor_diamondtriangles.svg	13	no	57	0	487
6.6.1	win	2022-12-15	16:14:27	16:17:48	199185	60ff8160e8f2227f8b200510	86300028	1	practice_z	5	practice_z	27	stimuli_target_circlediamonds.svg	stimuli_distractor_diamondtriangles.svg	1	yes	44	1	616
6.6.1	win	2022-12-15	16:14:27	16:17:48	199185	60ff8160e8f2227f8b200510	86300028	1	practice_z	5	advance_on_keypress_ZEE	28	stimuli_target_circlediamonds.svg	stimuli_distractor_diamondtriangles.svg	1	yes	57	0	351
6.6.1	win	2022-12-15	16:14:27	16:17:52	203183	60ff8160e8f2227f8b200510	86300028	1	practice_z	5	practice_z	29	stimuli_distractor_diamondtriangles.svg	stimuli_distractor_trianglediamonds.svg	14	no	0	1	2000
6.6.1	win	2022-12-15	16:14:27	16:17:52	203183	60ff8160e8f2227f8b200510	86300028	1	practice_z	5	advance_on_keypress_ZEE	30	stimuli_distractor_diamondtriangles.svg	stimuli_distractor_trianglediamonds.svg	14	no	57	0	426
6.6.1	win	2022-12-15	16:14:27	16:17:56	207245	60ff8160e8f2227f8b200510	86300028	1	practice_z	5	practice_z	31	stimuli_distractor_trianglediamonds.svg	stimuli_distractor_diamondtriangles.svg	16	no	0	1	2000
6.6.1	win	2022-12-15	16:14:27	16:17:56	207245	60ff8160e8f2227f8b200510	86300028	1	practice_z	5	advance_on_keypress_ZEE	32	stimuli_distractor_trianglediamonds.svg	stimuli_distractor_diamondtriangles.svg	16	no	57	0	414
6.6.1	win	2022-12-15	16:14:27	16:18:03	214069	60ff8160e8f2227f8b200510	86300028	1	main_z	7	main_z	1	stimuli_distractor_diamondtriangles.svg	stimuli_target_squarediamonds.svg	16	yes	44	1	1350
6.6.1	win	2022-12-15	16:14:27	16:18:03	214069	60ff8160e8f2227f8b200510	86300028	1	main_z	7	advance_on_keypress_ZEE	2	stimuli_distractor_diamondtriangles.svg	stimuli_target_squarediamonds.svg	16	yes	57	0	971
6.6.1	win	2022-12-15	16:14:27	16:18:06	216852	60ff8160e8f2227f8b200510	86300028	1	main_z	7	main_z	3	stimuli_distractor_trianglediamonds.svg	stimuli_target_diamondcircles.svg	27	yes	44	1	1170
6.6.1	win	2022-12-15	16:14:27	16:18:06	216852	60ff8160e8f2227f8b200510	86300028	1	main_z	7	advance_on_keypress_ZEE	4	stimuli_distractor_trianglediamonds.svg	stimuli_target_diamondcircles.svg	27	yes	57	0	3098
6.6.1	win	2022-12-15	16:14:27	16:18:10	221242	60ff8160e8f2227f8b200510	86300028	1	main_z	7	main_z	5	stimuli_target_circletriangles.svg	stimuli_distractor_trianglediamonds.svg	1	yes	44	1	647
6.6.1	win	2022-12-15	16:14:27	16:18:10	221242	60ff8160e8f2227f8b200510	86300028	1	main_z	7	advance_on_keypress_ZEE	6	stimuli_target_circletriangles.svg	stimuli_distractor_trianglediamonds.svg	1	yes	57	0	598
6.6.1	win	2022-12-15	16:14:27	16:18:13	224492	60ff8160e8f2227f8b200510	86300028	1	main_z	7	main_z	7	stimuli_distractor_diamondtriangles.svg	stimuli_distractor_trianglediamonds.svg	37	no	0	1	2000
6.6.1	win	2022-12-15	16:14:27	16:18:13	224492	60ff8160e8f2227f8b200510	86300028	1	main_z	7	advance_on_keypress_ZEE	8	stimuli_distractor_diamondtriangles.svg	stimuli_distractor_trianglediamonds.svg	37	no	57	0	517
6.6.1	win	2022-12-15	16:14:27	16:18:15	226218	60ff8160e8f2227f8b200510	86300028	1	main_z	7	main_z	9	stimuli_target_trianglecircles.svg	stimuli_distractor_trianglediamonds.svg	17	yes	44	1	562
6.6.1	win	2022-12-15	16:14:27	16:18:15	226218	60ff8160e8f2227f8b200510	86300028	1	main_z	7	advance_on_keypress_ZEE	10	stimuli_target_trianglecircles.svg	stimuli_distractor_trianglediamonds.svg	17	yes	57	0	798
6.6.1	win	2022-12-15	16:14:27	16:18:17	228301	60ff8160e8f2227f8b200510	86300028	1	main_z	7	main_z	11	stimuli_target_squarediamonds.svg	stimuli_distractor_diamondtriangles.svg	8	yes	44	1	630
6.6.1	win	2022-12-15	16:14:27	16:18:17	228301	60ff8160e8f2227f8b200510	86300028	1	main_z	7	advance_on_keypress_ZEE	12	stimuli_target_squarediamonds.svg	stimuli_distractor_diamondtriangles.svg	8	yes	57	0	412
6.6.1	win	2022-12-15	16:14:27	16:18:20	231368	60ff8160e8f2227f8b200510	86300028	1	main_z	7	main_z	13	stimuli_distractor_trianglediamonds.svg	stimuli_distractor_diamondtriangles.svg	36	no	0	1	2000
6.6.1	win	2022-12-15	16:14:27	16:18:20	231368	60ff8160e8f2227f8b200510	86300028	1	main_z	7	advance_on_keypress_ZEE	14	stimuli_distractor_trianglediamonds.svg	stimuli_distractor_diamondtriangles.svg	36	no	57	0	1775
6.6.1	win	2022-12-15	16:14:27	16:18:23	234444	60ff8160e8f2227f8b200510	86300028	1	main_z	7	main_z	15	stimuli_target_squaretriangles.svg	stimuli_distractor_trianglediamonds.svg	3	yes	44	1	663
6.6.1	win	2022-12-15	16:14:27	16:18:23	234444	60ff8160e8f2227f8b200510	86300028	1	main_z	7	advance_on_keypress_ZEE	16	stimuli_target_squaretriangles.svg	stimuli_distractor_trianglediamonds.svg	3	yes	57	0	683
6.6.1	win	2022-12-15	16:14:27	16:18:26	237112	60ff8160e8f2227f8b200510	86300028	1	main_z	7	main_z	17	stimuli_distractor_trianglediamonds.svg	stimuli_target_squaretriangles.svg	11	yes	44	1	1332
6.6.1	win	2022-12-15	16:14:27	16:18:26	237112	60ff8160e8f2227f8b200510	86300028	1	main_z	7	advance_on_keypress_ZEE	18	stimuli_distractor_trianglediamonds.svg	stimuli_target_squaretriangles.svg	11	yes	57	0	565
6.6.1	win	2022-12-15	16:14:27	16:18:28	238929	60ff8160e8f2227f8b200510	86300028	1	main_z	7	main_z	19	stimuli_target_trianglecircles.svg	stimuli_distractor_diamondtriangles.svg	21	yes	44	1	603
6.6.1	win	2022-12-15	16:14:27	16:18:28	238929	60ff8160e8f2227f8b200510	86300028	1	main_z	7	advance_on_keypress_ZEE	20	stimuli_target_trianglecircles.svg	stimuli_distractor_diamondtriangles.svg	21	yes	57	0	251
6.6.1	win	2022-12-15	16:14:27	16:18:29	240450	60ff8160e8f2227f8b200510	86300028	1	main_z	7	main_z	21	stimuli_target_squaretriangles.svg	stimuli_distractor_diamondtriangles.svg	7	yes	44	1	624
6.6.1	win	2022-12-15	16:14:27	16:18:29	240450	60ff8160e8f2227f8b200510	86300028	1	main_z	7	advance_on_keypress_ZEE	22	stimuli_target_squaretriangles.svg	stimuli_distractor_diamondtriangles.svg	7	yes	57	0	178
6.6.1	win	2022-12-15	16:14:27	16:18:31	241894	60ff8160e8f2227f8b200510	86300028	1	main_z	7	main_z	23	stimuli_distractor_diamondtriangles.svg	stimuli_target_squaretriangles.svg	15	yes	44	1	637
6.6.1	win	2022-12-15	16:14:27	16:18:31	241894	60ff8160e8f2227f8b200510	86300028	1	main_z	7	advance_on_keypress_ZEE	24	stimuli_distractor_diamondtriangles.svg	stimuli_target_squaretriangles.svg	15	yes	57	0	132
6.6.1	win	2022-12-15	16:14:27	16:18:33	244673	60ff8160e8f2227f8b200510	86300028	1	main_z	7	main_z	25	stimuli_distractor_trianglediamonds.svg	stimuli_target_trianglesquares.svg	26	yes	0	0	2000
6.6.1	win	2022-12-15	16:14:27	16:18:33	244673	60ff8160e8f2227f8b200510	86300028	1	main_z	7	advance_on_keypress_ZEE	26	stimuli_distractor_trianglediamonds.svg	stimuli_target_trianglesquares.svg	26	yes	57	0	771
6.6.1	win	2022-12-15	16:14:27	16:18:37	248085	60ff8160e8f2227f8b200510	86300028	1	main_z	7	main_z	27	stimuli_distractor_diamondtriangles.svg	stimuli_distractor_diamondtriangles.svg	39	no	0	1	2000
6.6.1	win	2022-12-15	16:14:27	16:18:37	248085	60ff8160e8f2227f8b200510	86300028	1	main_z	7	advance_on_keypress_ZEE	28	stimuli_distractor_diamondtriangles.svg	stimuli_distractor_diamondtriangles.svg	39	no	57	0	540
6.6.1	win	2022-12-15	16:14:27	16:18:39	250221	60ff8160e8f2227f8b200510	86300028	1	main_z	7	main_z	29	stimuli_target_diamondcircles.svg	stimuli_distractor_trianglediamonds.svg	19	yes	44	1	956
6.6.1	win	2022-12-15	16:14:27	16:18:39	250221	60ff8160e8f2227f8b200510	86300028	1	main_z	7	advance_on_keypress_ZEE	30	stimuli_target_diamondcircles.svg	stimuli_distractor_trianglediamonds.svg	19	yes	57	0	436
6.6.1	win	2022-12-15	16:14:27	16:18:41	252083	60ff8160e8f2227f8b200510	86300028	1	main_z	7	main_z	31	stimuli_distractor_diamondtriangles.svg	stimuli_target_trianglesquares.svg	30	yes	44	1	786
6.6.1	win	2022-12-15	16:14:27	16:18:41	252083	60ff8160e8f2227f8b200510	86300028	1	main_z	7	advance_on_keypress_ZEE	32	stimuli_distractor_diamondtriangles.svg	stimuli_target_trianglesquares.svg	30	yes	57	0	366
6.6.1	win	2022-12-15	16:14:27	16:18:42	253720	60ff8160e8f2227f8b200510	86300028	1	main_z	7	main_z	33	stimuli_target_trianglesquares.svg	stimuli_distractor_diamondtriangles.svg	22	yes	44	1	624
6.6.1	win	2022-12-15	16:14:27	16:18:42	253720	60ff8160e8f2227f8b200510	86300028	1	main_z	7	advance_on_keypress_ZEE	34	stimuli_target_trianglesquares.svg	stimuli_distractor_diamondtriangles.svg	22	yes	57	0	328
6.6.1	win	2022-12-15	16:14:27	16:18:44	255290	60ff8160e8f2227f8b200510	86300028	1	main_z	7	main_z	35	stimuli_distractor_trianglediamonds.svg	stimuli_target_circlediamonds.svg	10	yes	44	1	613
6.6.1	win	2022-12-15	16:14:27	16:18:44	255290	60ff8160e8f2227f8b200510	86300028	1	main_z	7	advance_on_keypress_ZEE	36	stimuli_distractor_trianglediamonds.svg	stimuli_target_circlediamonds.svg	10	yes	57	0	195
6.6.1	win	2022-12-15	16:14:27	16:18:47	258125	60ff8160e8f2227f8b200510	86300028	1	main_z	7	main_z	37	stimuli_distractor_trianglediamonds.svg	stimuli_distractor_trianglediamonds.svg	34	no	0	1	2000
6.6.1	win	2022-12-15	16:14:27	16:18:47	258125	60ff8160e8f2227f8b200510	86300028	1	main_z	7	advance_on_keypress_ZEE	38	stimuli_distractor_trianglediamonds.svg	stimuli_distractor_trianglediamonds.svg	34	no	57	0	293
6.6.1	win	2022-12-15	16:14:27	16:18:48	259649	60ff8160e8f2227f8b200510	86300028	1	main_z	7	main_z	39	stimuli_target_circletriangles.svg	stimuli_distractor_diamondtriangles.svg	5	yes	44	1	593
6.6.1	win	2022-12-15	16:14:27	16:18:48	259649	60ff8160e8f2227f8b200510	86300028	1	main_z	7	advance_on_keypress_ZEE	40	stimuli_target_circletriangles.svg	stimuli_distractor_diamondtriangles.svg	5	yes	57	0	226
6.6.1	win	2022-12-15	16:14:27	16:18:51	262505	60ff8160e8f2227f8b200510	86300028	1	main_z	7	main_z	41	stimuli_distractor_trianglediamonds.svg	stimuli_distractor_diamondtriangles.svg	35	no	0	1	2000
6.6.1	win	2022-12-15	16:14:27	16:18:51	262505	60ff8160e8f2227f8b200510	86300028	1	main_z	7	advance_on_keypress_ZEE	42	stimuli_distractor_trianglediamonds.svg	stimuli_distractor_diamondtriangles.svg	35	no	57	0	445
6.6.1	win	2022-12-15	16:14:27	16:18:54	265585	60ff8160e8f2227f8b200510	86300028	1	main_z	7	main_z	43	stimuli_target_diamondsquares.svg	stimuli_distractor_trianglediamonds.svg	20	yes	0	0	2000
6.6.1	win	2022-12-15	16:14:27	16:18:54	265585	60ff8160e8f2227f8b200510	86300028	1	main_z	7	advance_on_keypress_ZEE	44	stimuli_target_diamondsquares.svg	stimuli_distractor_trianglediamonds.svg	20	yes	57	0	651
6.6.1	win	2022-12-15	16:14:27	16:18:56	267456	60ff8160e8f2227f8b200510	86300028	1	main_z	7	main_z	45	stimuli_distractor_diamondtriangles.svg	stimuli_target_circlediamonds.svg	14	yes	44	1	574
6.6.1	win	2022-12-15	16:14:27	16:18:56	267456	60ff8160e8f2227f8b200510	86300028	1	main_z	7	advance_on_keypress_ZEE	46	stimuli_distractor_diamondtriangles.svg	stimuli_target_circlediamonds.svg	14	yes	57	0	322
6.6.1	win	2022-12-15	16:14:27	16:18:58	269057	60ff8160e8f2227f8b200510	86300028	1	main_z	7	main_z	47	stimuli_distractor_diamondtriangles.svg	stimuli_target_circletriangles.svg	13	yes	44	1	644
6.6.1	win	2022-12-15	16:14:27	16:18:58	269057	60ff8160e8f2227f8b200510	86300028	1	main_z	7	advance_on_keypress_ZEE	48	stimuli_distractor_diamondtriangles.svg	stimuli_target_circletriangles.svg	13	yes	57	0	210
6.6.1	win	2022-12-15	16:14:27	16:18:59	270443	60ff8160e8f2227f8b200510	86300028	1	main_z	7	main_z	49	stimuli_target_circlediamonds.svg	stimuli_distractor_diamondtriangles.svg	6	yes	44	1	548
6.6.1	win	2022-12-15	16:14:27	16:18:59	270443	60ff8160e8f2227f8b200510	86300028	1	main_z	7	advance_on_keypress_ZEE	50	stimuli_target_circlediamonds.svg	stimuli_distractor_diamondtriangles.svg	6	yes	57	0	174
6.6.1	win	2022-12-15	16:14:27	16:19:01	271796	60ff8160e8f2227f8b200510	86300028	1	main_z	7	main_z	51	stimuli_target_circlediamonds.svg	stimuli_distractor_trianglediamonds.svg	2	yes	44	1	536
6.6.1	win	2022-12-15	16:14:27	16:19:01	271796	60ff8160e8f2227f8b200510	86300028	1	main_z	7	advance_on_keypress_ZEE	52	stimuli_target_circlediamonds.svg	stimuli_distractor_trianglediamonds.svg	2	yes	57	0	191
6.6.1	win	2022-12-15	16:14:27	16:19:03	274626	60ff8160e8f2227f8b200510	86300028	1	main_z	7	main_z	53	stimuli_distractor_trianglediamonds.svg	stimuli_distractor_trianglediamonds.svg	33	no	0	1	2000
6.6.1	win	2022-12-15	16:14:27	16:19:03	274626	60ff8160e8f2227f8b200510	86300028	1	main_z	7	advance_on_keypress_ZEE	54	stimuli_distractor_trianglediamonds.svg	stimuli_distractor_trianglediamonds.svg	33	no	57	0	298
6.6.1	win	2022-12-15	16:14:27	16:19:06	277574	60ff8160e8f2227f8b200510	86300028	1	main_z	7	main_z	55	stimuli_target_squarediamonds.svg	stimuli_distractor_trianglediamonds.svg	4	yes	0	0	2000
6.6.1	win	2022-12-15	16:14:27	16:19:06	277574	60ff8160e8f2227f8b200510	86300028	1	main_z	7	advance_on_keypress_ZEE	56	stimuli_target_squarediamonds.svg	stimuli_distractor_trianglediamonds.svg	4	yes	57	0	612
6.6.1	win	2022-12-15	16:14:27	16:19:09	279823	60ff8160e8f2227f8b200510	86300028	1	main_z	7	main_z	57	stimuli_distractor_trianglediamonds.svg	stimuli_target_trianglecircles.svg	25	yes	44	1	986
6.6.1	win	2022-12-15	16:14:27	16:19:09	279823	60ff8160e8f2227f8b200510	86300028	1	main_z	7	advance_on_keypress_ZEE	58	stimuli_distractor_trianglediamonds.svg	stimuli_target_trianglecircles.svg	25	yes	57	0	338
6.6.1	win	2022-12-15	16:14:27	16:19:12	282802	60ff8160e8f2227f8b200510	86300028	1	main_z	7	main_z	59	stimuli_target_diamondsquares.svg	stimuli_distractor_diamondtriangles.svg	24	yes	0	0	2000
6.6.1	win	2022-12-15	16:14:27	16:19:12	282802	60ff8160e8f2227f8b200510	86300028	1	main_z	7	advance_on_keypress_ZEE	60	stimuli_target_diamondsquares.svg	stimuli_distractor_diamondtriangles.svg	24	yes	57	0	308
6.6.1	win	2022-12-15	16:14:27	16:19:14	285071	60ff8160e8f2227f8b200510	86300028	1	main_z	7	main_z	61	stimuli_distractor_diamondtriangles.svg	stimuli_target_diamondsquares.svg	32	yes	44	1	1323
6.6.1	win	2022-12-15	16:14:27	16:19:14	285071	60ff8160e8f2227f8b200510	86300028	1	main_z	7	advance_on_keypress_ZEE	62	stimuli_distractor_diamondtriangles.svg	stimuli_target_diamondsquares.svg	32	yes	57	0	324
6.6.1	win	2022-12-15	16:14:27	16:19:15	286723	60ff8160e8f2227f8b200510	86300028	1	main_z	7	main_z	63	stimuli_target_diamondcircles.svg	stimuli_distractor_diamondtriangles.svg	23	yes	44	1	694
6.6.1	win	2022-12-15	16:14:27	16:19:15	286723	60ff8160e8f2227f8b200510	86300028	1	main_z	7	advance_on_keypress_ZEE	64	stimuli_target_diamondcircles.svg	stimuli_distractor_diamondtriangles.svg	23	yes	57	0	420
6.6.1	win	2022-12-15	16:14:27	16:19:17	288661	60ff8160e8f2227f8b200510	86300028	1	main_z	7	main_z	65	stimuli_distractor_diamondtriangles.svg	stimuli_target_diamondcircles.svg	31	yes	44	1	882
6.6.1	win	2022-12-15	16:14:27	16:19:17	288661	60ff8160e8f2227f8b200510	86300028	1	main_z	7	advance_on_keypress_ZEE	66	stimuli_distractor_diamondtriangles.svg	stimuli_target_diamondcircles.svg	31	yes	57	0	338
6.6.1	win	2022-12-15	16:14:27	16:19:20	291643	60ff8160e8f2227f8b200510	86300028	1	main_z	7	main_z	67	stimuli_distractor_trianglediamonds.svg	stimuli_target_diamondsquares.svg	28	yes	0	0	2000
6.6.1	win	2022-12-15	16:14:27	16:19:20	291643	60ff8160e8f2227f8b200510	86300028	1	main_z	7	advance_on_keypress_ZEE	68	stimuli_distractor_trianglediamonds.svg	stimuli_target_diamondsquares.svg	28	yes	57	0	431
6.6.1	win	2022-12-15	16:14:27	16:19:23	293829	60ff8160e8f2227f8b200510	86300028	1	main_z	7	main_z	69	stimuli_target_trianglesquares.svg	stimuli_distractor_trianglediamonds.svg	18	yes	44	1	1106
6.6.1	win	2022-12-15	16:14:27	16:19:23	293829	60ff8160e8f2227f8b200510	86300028	1	main_z	7	advance_on_keypress_ZEE	70	stimuli_target_trianglesquares.svg	stimuli_distractor_trianglediamonds.svg	18	yes	57	0	438
6.6.1	win	2022-12-15	16:14:27	16:19:25	295943	60ff8160e8f2227f8b200510	86300028	1	main_z	7	main_z	71	stimuli_distractor_diamondtriangles.svg	stimuli_target_trianglecircles.svg	29	yes	44	1	1038
6.6.1	win	2022-12-15	16:14:27	16:19:25	295943	60ff8160e8f2227f8b200510	86300028	1	main_z	7	advance_on_keypress_ZEE	72	stimuli_distractor_diamondtriangles.svg	stimuli_target_trianglecircles.svg	29	yes	57	0	304
6.6.1	win	2022-12-15	16:14:27	16:19:27	297862	60ff8160e8f2227f8b200510	86300028	1	main_z	7	main_z	73	stimuli_distractor_trianglediamonds.svg	stimuli_target_circletriangles.svg	9	yes	44	1	977
6.6.1	win	2022-12-15	16:14:27	16:19:27	297862	60ff8160e8f2227f8b200510	86300028	1	main_z	7	advance_on_keypress_ZEE	74	stimuli_distractor_trianglediamonds.svg	stimuli_target_circletriangles.svg	9	yes	57	0	304
6.6.1	win	2022-12-15	16:14:27	16:19:30	300800	60ff8160e8f2227f8b200510	86300028	1	main_z	7	main_z	75	stimuli_distractor_diamondtriangles.svg	stimuli_distractor_diamondtriangles.svg	40	no	0	1	2000
6.6.1	win	2022-12-15	16:14:27	16:19:30	300800	60ff8160e8f2227f8b200510	86300028	1	main_z	7	advance_on_keypress_ZEE	76	stimuli_distractor_diamondtriangles.svg	stimuli_distractor_diamondtriangles.svg	40	no	57	0	506
6.6.1	win	2022-12-15	16:14:27	16:19:32	303203	60ff8160e8f2227f8b200510	86300028	1	main_z	7	main_z	77	stimuli_distractor_diamondtriangles.svg	stimuli_distractor_trianglediamonds.svg	38	no	44	0	1256
6.6.1	win	2022-12-15	16:14:27	16:19:32	303203	60ff8160e8f2227f8b200510	86300028	1	main_z	7	advance_on_keypress_ZEE	78	stimuli_distractor_diamondtriangles.svg	stimuli_distractor_trianglediamonds.svg	38	no	57	0	587
6.6.1	win	2022-12-15	16:14:27	16:19:34	305363	60ff8160e8f2227f8b200510	86300028	1	main_z	7	main_z	79	stimuli_distractor_trianglediamonds.svg	stimuli_target_squarediamonds.svg	12	yes	44	1	936
6.6.1	win	2022-12-15	16:14:27	16:19:34	305363	60ff8160e8f2227f8b200510	86300028	1	main_z	7	advance_on_keypress_ZEE	80	stimuli_distractor_trianglediamonds.svg	stimuli_target_squarediamonds.svg	12	yes	57	0	196
6.6.1	win	2022-12-15	16:14:27	16:19:37	308209	60ff8160e8f2227f8b200510	86300028	1	main_z	7	main_z	81	stimuli_target_trianglesquares.svg	stimuli_distractor_trianglediamonds.svg	18	yes	0	0	2000
6.6.1	win	2022-12-15	16:14:27	16:19:37	308209	60ff8160e8f2227f8b200510	86300028	1	main_z	7	advance_on_keypress_ZEE	82	stimuli_target_trianglesquares.svg	stimuli_distractor_trianglediamonds.svg	18	yes	57	0	526
6.6.1	win	2022-12-15	16:14:27	16:19:40	311372	60ff8160e8f2227f8b200510	86300028	1	main_z	7	main_z	83	stimuli_distractor_diamondtriangles.svg	stimuli_target_diamondsquares.svg	32	yes	0	0	2000
6.6.1	win	2022-12-15	16:14:27	16:19:40	311372	60ff8160e8f2227f8b200510	86300028	1	main_z	7	advance_on_keypress_ZEE	84	stimuli_distractor_diamondtriangles.svg	stimuli_target_diamondsquares.svg	32	yes	57	0	888
6.6.1	win	2022-12-15	16:14:27	16:19:44	314902	60ff8160e8f2227f8b200510	86300028	1	main_z	7	main_z	85	stimuli_distractor_trianglediamonds.svg	stimuli_distractor_trianglediamonds.svg	33	no	0	1	2000
6.6.1	win	2022-12-15	16:14:27	16:19:44	314902	60ff8160e8f2227f8b200510	86300028	1	main_z	7	advance_on_keypress_ZEE	86	stimuli_distractor_trianglediamonds.svg	stimuli_distractor_trianglediamonds.svg	33	no	57	0	483
6.6.1	win	2022-12-15	16:14:27	16:19:47	318032	60ff8160e8f2227f8b200510	86300028	1	main_z	7	main_z	87	stimuli_distractor_diamondtriangles.svg	stimuli_distractor_diamondtriangles.svg	39	no	0	1	2000
6.6.1	win	2022-12-15	16:14:27	16:19:47	318032	60ff8160e8f2227f8b200510	86300028	1	main_z	7	advance_on_keypress_ZEE	88	stimuli_distractor_diamondtriangles.svg	stimuli_distractor_diamondtriangles.svg	39	no	57	0	476
6.6.1	win	2022-12-15	16:14:27	16:19:49	320019	60ff8160e8f2227f8b200510	86300028	1	main_z	7	main_z	89	stimuli_target_diamondsquares.svg	stimuli_distractor_diamondtriangles.svg	24	yes	44	1	873
6.6.1	win	2022-12-15	16:14:27	16:19:49	320019	60ff8160e8f2227f8b200510	86300028	1	main_z	7	advance_on_keypress_ZEE	90	stimuli_target_diamondsquares.svg	stimuli_distractor_diamondtriangles.svg	24	yes	57	0	351
6.6.1	win	2022-12-15	16:14:27	16:19:50	321748	60ff8160e8f2227f8b200510	86300028	1	main_z	7	main_z	91	stimuli_distractor_diamondtriangles.svg	stimuli_distractor_trianglediamonds.svg	38	no	44	0	736
6.6.1	win	2022-12-15	16:14:27	16:19:50	321748	60ff8160e8f2227f8b200510	86300028	1	main_z	7	advance_on_keypress_ZEE	92	stimuli_distractor_diamondtriangles.svg	stimuli_distractor_trianglediamonds.svg	38	no	57	0	362
6.6.1	win	2022-12-15	16:14:27	16:19:52	323380	60ff8160e8f2227f8b200510	86300028	1	main_z	7	main_z	93	stimuli_target_circletriangles.svg	stimuli_distractor_trianglediamonds.svg	1	yes	44	1	638
6.6.1	win	2022-12-15	16:14:27	16:19:52	323380	60ff8160e8f2227f8b200510	86300028	1	main_z	7	advance_on_keypress_ZEE	94	stimuli_target_circletriangles.svg	stimuli_distractor_trianglediamonds.svg	1	yes	57	0	326
6.6.1	win	2022-12-15	16:14:27	16:19:54	324826	60ff8160e8f2227f8b200510	86300028	1	main_z	7	main_z	95	stimuli_target_circlediamonds.svg	stimuli_distractor_diamondtriangles.svg	6	yes	44	1	484
6.6.1	win	2022-12-15	16:14:27	16:19:54	324826	60ff8160e8f2227f8b200510	86300028	1	main_z	7	advance_on_keypress_ZEE	96	stimuli_target_circlediamonds.svg	stimuli_distractor_diamondtriangles.svg	6	yes	57	0	251
6.6.1	win	2022-12-15	16:14:27	16:19:55	326085	60ff8160e8f2227f8b200510	86300028	1	main_z	7	main_z	97	stimuli_target_circlediamonds.svg	stimuli_distractor_trianglediamonds.svg	2	yes	44	1	362
6.6.1	win	2022-12-15	16:14:27	16:19:55	326085	60ff8160e8f2227f8b200510	86300028	1	main_z	7	advance_on_keypress_ZEE	98	stimuli_target_circlediamonds.svg	stimuli_distractor_trianglediamonds.svg	2	yes	57	0	330
6.6.1	win	2022-12-15	16:14:27	16:19:56	327747	60ff8160e8f2227f8b200510	86300028	1	main_z	7	main_z	99	stimuli_target_squaretriangles.svg	stimuli_distractor_trianglediamonds.svg	3	yes	44	1	675
6.6.1	win	2022-12-15	16:14:27	16:19:56	327747	60ff8160e8f2227f8b200510	86300028	1	main_z	7	advance_on_keypress_ZEE	100	stimuli_target_squaretriangles.svg	stimuli_distractor_trianglediamonds.svg	3	yes	57	0	215
6.6.1	win	2022-12-15	16:14:27	16:19:58	329254	60ff8160e8f2227f8b200510	86300028	1	main_z	7	main_z	101	stimuli_distractor_trianglediamonds.svg	stimuli_distractor_diamondtriangles.svg	35	no	44	0	650
6.6.1	win	2022-12-15	16:14:27	16:19:58	329254	60ff8160e8f2227f8b200510	86300028	1	main_z	7	advance_on_keypress_ZEE	102	stimuli_distractor_trianglediamonds.svg	stimuli_distractor_diamondtriangles.svg	35	no	57	0	312
6.6.1	win	2022-12-15	16:14:27	16:20:00	330780	60ff8160e8f2227f8b200510	86300028	1	main_z	7	main_z	103	stimuli_target_trianglecircles.svg	stimuli_distractor_diamondtriangles.svg	21	yes	44	1	577
6.6.1	win	2022-12-15	16:14:27	16:20:00	330780	60ff8160e8f2227f8b200510	86300028	1	main_z	7	advance_on_keypress_ZEE	104	stimuli_target_trianglecircles.svg	stimuli_distractor_diamondtriangles.svg	21	yes	57	0	287
6.6.1	win	2022-12-15	16:14:27	16:20:01	332347	60ff8160e8f2227f8b200510	86300028	1	main_z	7	main_z	105	stimuli_distractor_diamondtriangles.svg	stimuli_target_circletriangles.svg	13	yes	44	1	629
6.6.1	win	2022-12-15	16:14:27	16:20:01	332347	60ff8160e8f2227f8b200510	86300028	1	main_z	7	advance_on_keypress_ZEE	106	stimuli_distractor_diamondtriangles.svg	stimuli_target_circletriangles.svg	13	yes	57	0	301
6.6.1	win	2022-12-15	16:14:27	16:20:03	333876	60ff8160e8f2227f8b200510	86300028	1	main_z	7	main_z	107	stimuli_distractor_diamondtriangles.svg	stimuli_target_circlediamonds.svg	14	yes	44	1	577
6.6.1	win	2022-12-15	16:14:27	16:20:03	333876	60ff8160e8f2227f8b200510	86300028	1	main_z	7	advance_on_keypress_ZEE	108	stimuli_distractor_diamondtriangles.svg	stimuli_target_circlediamonds.svg	14	yes	57	0	226
6.6.1	win	2022-12-15	16:14:27	16:20:04	335390	60ff8160e8f2227f8b200510	86300028	1	main_z	7	main_z	109	stimuli_target_squarediamonds.svg	stimuli_distractor_trianglediamonds.svg	4	yes	44	1	659
6.6.1	win	2022-12-15	16:14:27	16:20:04	335390	60ff8160e8f2227f8b200510	86300028	1	main_z	7	advance_on_keypress_ZEE	110	stimuli_target_squarediamonds.svg	stimuli_distractor_trianglediamonds.svg	4	yes	57	0	285
6.6.1	win	2022-12-15	16:14:27	16:20:06	336981	60ff8160e8f2227f8b200510	86300028	1	main_z	7	main_z	111	stimuli_distractor_diamondtriangles.svg	stimuli_target_diamondcircles.svg	31	yes	44	1	668
6.6.1	win	2022-12-15	16:14:27	16:20:06	336981	60ff8160e8f2227f8b200510	86300028	1	main_z	7	advance_on_keypress_ZEE	112	stimuli_distractor_diamondtriangles.svg	stimuli_target_diamondcircles.svg	31	yes	57	0	286
6.6.1	win	2022-12-15	16:14:27	16:20:07	338528	60ff8160e8f2227f8b200510	86300028	1	main_z	7	main_z	113	stimuli_distractor_trianglediamonds.svg	stimuli_target_circlediamonds.svg	10	yes	44	1	616
6.6.1	win	2022-12-15	16:14:27	16:20:07	338528	60ff8160e8f2227f8b200510	86300028	1	main_z	7	advance_on_keypress_ZEE	114	stimuli_distractor_trianglediamonds.svg	stimuli_target_circlediamonds.svg	10	yes	57	0	291
6.6.1	win	2022-12-15	16:14:27	16:20:09	340120	60ff8160e8f2227f8b200510	86300028	1	main_z	7	main_z	115	stimuli_distractor_trianglediamonds.svg	stimuli_target_squaretriangles.svg	11	yes	44	1	661
6.6.1	win	2022-12-15	16:14:27	16:20:09	340120	60ff8160e8f2227f8b200510	86300028	1	main_z	7	advance_on_keypress_ZEE	116	stimuli_distractor_trianglediamonds.svg	stimuli_target_squaretriangles.svg	11	yes	57	0	330
6.6.1	win	2022-12-15	16:14:27	16:20:10	341697	60ff8160e8f2227f8b200510	86300028	1	main_z	7	main_z	117	stimuli_target_trianglecircles.svg	stimuli_distractor_trianglediamonds.svg	17	yes	44	1	606
6.6.1	win	2022-12-15	16:14:27	16:20:10	341697	60ff8160e8f2227f8b200510	86300028	1	main_z	7	advance_on_keypress_ZEE	118	stimuli_target_trianglecircles.svg	stimuli_distractor_trianglediamonds.svg	17	yes	57	0	316
6.6.1	win	2022-12-15	16:14:27	16:20:12	343140	60ff8160e8f2227f8b200510	86300028	1	main_z	7	main_z	119	stimuli_target_circletriangles.svg	stimuli_distractor_diamondtriangles.svg	5	yes	44	1	484
6.6.1	win	2022-12-15	16:14:27	16:20:12	343140	60ff8160e8f2227f8b200510	86300028	1	main_z	7	advance_on_keypress_ZEE	120	stimuli_target_circletriangles.svg	stimuli_distractor_diamondtriangles.svg	5	yes	57	0	300
6.6.1	win	2022-12-15	16:14:27	16:20:13	344517	60ff8160e8f2227f8b200510	86300028	1	main_z	7	main_z	121	stimuli_target_diamondsquares.svg	stimuli_distractor_trianglediamonds.svg	20	yes	44	1	429
6.6.1	win	2022-12-15	16:14:27	16:20:13	344517	60ff8160e8f2227f8b200510	86300028	1	main_z	7	advance_on_keypress_ZEE	122	stimuli_target_diamondsquares.svg	stimuli_distractor_trianglediamonds.svg	20	yes	57	0	323
6.6.1	win	2022-12-15	16:14:27	16:20:15	345969	60ff8160e8f2227f8b200510	86300028	1	main_z	7	main_z	123	stimuli_distractor_trianglediamonds.svg	stimuli_target_trianglecircles.svg	25	yes	44	1	482
6.6.1	win	2022-12-15	16:14:27	16:20:15	345969	60ff8160e8f2227f8b200510	86300028	1	main_z	7	advance_on_keypress_ZEE	124	stimuli_distractor_trianglediamonds.svg	stimuli_target_trianglecircles.svg	25	yes	57	0	253
6.6.1	win	2022-12-15	16:14:27	16:20:16	347445	60ff8160e8f2227f8b200510	86300028	1	main_z	7	main_z	125	stimuli_distractor_trianglediamonds.svg	stimuli_target_diamondsquares.svg	28	yes	44	1	575
6.6.1	win	2022-12-15	16:14:27	16:20:16	347445	60ff8160e8f2227f8b200510	86300028	1	main_z	7	advance_on_keypress_ZEE	126	stimuli_distractor_trianglediamonds.svg	stimuli_target_diamondsquares.svg	28	yes	57	0	160
6.6.1	win	2022-12-15	16:14:27	16:20:18	348792	60ff8160e8f2227f8b200510	86300028	1	main_z	7	main_z	127	stimuli_distractor_diamondtriangles.svg	stimuli_target_squarediamonds.svg	16	yes	44	1	558
6.6.1	win	2022-12-15	16:14:27	16:20:18	348792	60ff8160e8f2227f8b200510	86300028	1	main_z	7	advance_on_keypress_ZEE	128	stimuli_distractor_diamondtriangles.svg	stimuli_target_squarediamonds.svg	16	yes	57	0	218
6.6.1	win	2022-12-15	16:14:27	16:20:20	351650	60ff8160e8f2227f8b200510	86300028	1	main_z	7	main_z	129	stimuli_distractor_trianglediamonds.svg	stimuli_distractor_trianglediamonds.svg	34	no	0	1	2000
6.6.1	win	2022-12-15	16:14:27	16:20:20	351650	60ff8160e8f2227f8b200510	86300028	1	main_z	7	advance_on_keypress_ZEE	130	stimuli_distractor_trianglediamonds.svg	stimuli_distractor_trianglediamonds.svg	34	no	57	0	668
6.6.1	win	2022-12-15	16:14:27	16:20:22	353635	60ff8160e8f2227f8b200510	86300028	1	main_z	7	main_z	131	stimuli_distractor_diamondtriangles.svg	stimuli_target_trianglecircles.svg	29	yes	44	1	671
6.6.1	win	2022-12-15	16:14:27	16:20:22	353635	60ff8160e8f2227f8b200510	86300028	1	main_z	7	advance_on_keypress_ZEE	132	stimuli_distractor_diamondtriangles.svg	stimuli_target_trianglecircles.svg	29	yes	57	0	137
6.6.1	win	2022-12-15	16:14:27	16:20:24	354881	60ff8160e8f2227f8b200510	86300028	1	main_z	7	main_z	133	stimuli_distractor_trianglediamonds.svg	stimuli_target_circletriangles.svg	9	yes	44	1	469
6.6.1	win	2022-12-15	16:14:27	16:20:24	354881	60ff8160e8f2227f8b200510	86300028	1	main_z	7	advance_on_keypress_ZEE	134	stimuli_distractor_trianglediamonds.svg	stimuli_target_circletriangles.svg	9	yes	57	0	124
6.6.1	win	2022-12-15	16:14:27	16:20:25	356511	60ff8160e8f2227f8b200510	86300028	1	main_z	7	main_z	135	stimuli_distractor_diamondtriangles.svg	stimuli_target_trianglesquares.svg	30	yes	44	1	867
6.6.1	win	2022-12-15	16:14:27	16:20:25	356511	60ff8160e8f2227f8b200510	86300028	1	main_z	7	advance_on_keypress_ZEE	136	stimuli_distractor_diamondtriangles.svg	stimuli_target_trianglesquares.svg	30	yes	57	0	128
6.6.1	win	2022-12-15	16:14:27	16:20:28	359275	60ff8160e8f2227f8b200510	86300028	1	main_z	7	main_z	137	stimuli_distractor_diamondtriangles.svg	stimuli_distractor_diamondtriangles.svg	40	no	0	1	2000
6.6.1	win	2022-12-15	16:14:27	16:20:28	359275	60ff8160e8f2227f8b200510	86300028	1	main_z	7	advance_on_keypress_ZEE	138	stimuli_distractor_diamondtriangles.svg	stimuli_distractor_diamondtriangles.svg	40	no	57	0	542
6.6.1	win	2022-12-15	16:14:27	16:20:30	361513	60ff8160e8f2227f8b200510	86300028	1	main_z	7	main_z	139	stimuli_distractor_trianglediamonds.svg	stimuli_target_trianglesquares.svg	26	yes	44	1	1058
6.6.1	win	2022-12-15	16:14:27	16:20:30	361513	60ff8160e8f2227f8b200510	86300028	1	main_z	7	advance_on_keypress_ZEE	140	stimuli_distractor_trianglediamonds.svg	stimuli_target_trianglesquares.svg	26	yes	57	0	177
6.6.1	win	2022-12-15	16:14:27	16:20:32	362792	60ff8160e8f2227f8b200510	86300028	1	main_z	7	main_z	141	stimuli_target_diamondcircles.svg	stimuli_distractor_diamondtriangles.svg	23	yes	44	1	472
6.6.1	win	2022-12-15	16:14:27	16:20:32	362792	60ff8160e8f2227f8b200510	86300028	1	main_z	7	advance_on_keypress_ZEE	142	stimuli_target_diamondcircles.svg	stimuli_distractor_diamondtriangles.svg	23	yes	57	0	116
6.6.1	win	2022-12-15	16:14:27	16:20:33	364716	60ff8160e8f2227f8b200510	86300028	1	main_z	7	main_z	143	stimuli_target_trianglesquares.svg	stimuli_distractor_diamondtriangles.svg	22	yes	44	1	1162
6.6.1	win	2022-12-15	16:14:27	16:20:33	364716	60ff8160e8f2227f8b200510	86300028	1	main_z	7	advance_on_keypress_ZEE	144	stimuli_target_trianglesquares.svg	stimuli_distractor_diamondtriangles.svg	22	yes	57	0	183
6.6.1	win	2022-12-15	16:14:27	16:20:35	366237	60ff8160e8f2227f8b200510	86300028	1	main_z	7	main_z	145	stimuli_distractor_trianglediamonds.svg	stimuli_target_squarediamonds.svg	12	yes	44	1	687
6.6.1	win	2022-12-15	16:14:27	16:20:35	366237	60ff8160e8f2227f8b200510	86300028	1	main_z	7	advance_on_keypress_ZEE	146	stimuli_distractor_trianglediamonds.svg	stimuli_target_squarediamonds.svg	12	yes	57	0	229
6.6.1	win	2022-12-15	16:14:27	16:20:38	369098	60ff8160e8f2227f8b200510	86300028	1	main_z	7	main_z	147	stimuli_distractor_diamondtriangles.svg	stimuli_target_squaretriangles.svg	15	yes	0	0	2000
6.6.1	win	2022-12-15	16:14:27	16:20:38	369098	60ff8160e8f2227f8b200510	86300028	1	main_z	7	advance_on_keypress_ZEE	148	stimuli_distractor_diamondtriangles.svg	stimuli_target_squaretriangles.svg	15	yes	57	0	1272
6.6.1	win	2022-12-15	16:14:27	16:20:41	371746	60ff8160e8f2227f8b200510	86300028	1	main_z	7	main_z	149	stimuli_target_squaretriangles.svg	stimuli_distractor_diamondtriangles.svg	7	yes	44	1	733
6.6.1	win	2022-12-15	16:14:27	16:20:41	371746	60ff8160e8f2227f8b200510	86300028	1	main_z	7	advance_on_keypress_ZEE	150	stimuli_target_squaretriangles.svg	stimuli_distractor_diamondtriangles.svg	7	yes	57	0	111
6.6.1	win	2022-12-15	16:14:27	16:20:42	373214	60ff8160e8f2227f8b200510	86300028	1	main_z	7	main_z	151	stimuli_distractor_diamondtriangles.svg	stimuli_distractor_trianglediamonds.svg	37	no	44	0	720
6.6.1	win	2022-12-15	16:14:27	16:20:42	373214	60ff8160e8f2227f8b200510	86300028	1	main_z	7	advance_on_keypress_ZEE	152	stimuli_distractor_diamondtriangles.svg	stimuli_distractor_trianglediamonds.svg	37	no	57	0	111
6.6.1	win	2022-12-15	16:14:27	16:20:43	374545	60ff8160e8f2227f8b200510	86300028	1	main_z	7	main_z	153	stimuli_target_diamondcircles.svg	stimuli_distractor_trianglediamonds.svg	19	yes	44	1	586
6.6.1	win	2022-12-15	16:14:27	16:20:43	374545	60ff8160e8f2227f8b200510	86300028	1	main_z	7	advance_on_keypress_ZEE	154	stimuli_target_diamondcircles.svg	stimuli_distractor_trianglediamonds.svg	19	yes	57	0	104
6.6.1	win	2022-12-15	16:14:27	16:20:45	375751	60ff8160e8f2227f8b200510	86300028	1	main_z	7	main_z	155	stimuli_distractor_trianglediamonds.svg	stimuli_target_diamondcircles.svg	27	yes	44	1	459
6.6.1	win	2022-12-15	16:14:27	16:20:45	375751	60ff8160e8f2227f8b200510	86300028	1	main_z	7	advance_on_keypress_ZEE	156	stimuli_distractor_trianglediamonds.svg	stimuli_target_diamondcircles.svg	27	yes	57	0	80
6.6.1	win	2022-12-15	16:14:27	16:20:46	377113	60ff8160e8f2227f8b200510	86300028	1	main_z	7	main_z	157	stimuli_target_squarediamonds.svg	stimuli_distractor_diamondtriangles.svg	8	yes	44	1	640
6.6.1	win	2022-12-15	16:14:27	16:20:46	377113	60ff8160e8f2227f8b200510	86300028	1	main_z	7	advance_on_keypress_ZEE	158	stimuli_target_squarediamonds.svg	stimuli_distractor_diamondtriangles.svg	8	yes	57	0	121
6.6.1	win	2022-12-15	16:14:27	16:20:49	379872	60ff8160e8f2227f8b200510	86300028	1	main_z	7	main_z	159	stimuli_distractor_trianglediamonds.svg	stimuli_distractor_diamondtriangles.svg	36	no	0	1	2000
6.6.1	win	2022-12-15	16:14:27	16:20:49	379872	60ff8160e8f2227f8b200510	86300028	1	main_z	7	advance_on_keypress_ZEE	160	stimuli_distractor_trianglediamonds.svg	stimuli_distractor_diamondtriangles.svg	36	no	57	0	469
6.6.1	win	2022-12-15	16:14:27	16:21:09	399968	60ff8160e8f2227f8b200510	86300028	1	practice_slash	9	practice_slash	1	stimuli_target_diamondsquares.svg	stimuli_distractor_trianglediamonds.svg	6	yes	53	1	615
6.6.1	win	2022-12-15	16:14:27	16:21:09	399968	60ff8160e8f2227f8b200510	86300028	1	practice_slash	9	advance_on_keypress_SLASH	2	stimuli_target_diamondsquares.svg	stimuli_distractor_trianglediamonds.svg	6	yes	57	0	663
6.6.1	win	2022-12-15	16:14:27	16:21:12	402891	60ff8160e8f2227f8b200510	86300028	1	practice_slash	9	practice_slash	3	stimuli_target_squarediamonds.svg	stimuli_distractor_trianglediamonds.svg	5	yes	53	1	607
6.6.1	win	2022-12-15	16:14:27	16:21:12	402891	60ff8160e8f2227f8b200510	86300028	1	practice_slash	9	advance_on_keypress_SLASH	4	stimuli_target_squarediamonds.svg	stimuli_distractor_trianglediamonds.svg	5	yes	57	0	441
6.6.1	win	2022-12-15	16:14:27	16:21:14	405408	60ff8160e8f2227f8b200510	86300028	1	practice_slash	9	practice_slash	5	stimuli_target_circlediamonds.svg	stimuli_distractor_trianglediamonds.svg	4	yes	53	1	444
6.6.1	win	2022-12-15	16:14:27	16:21:14	405408	60ff8160e8f2227f8b200510	86300028	1	practice_slash	9	advance_on_keypress_SLASH	6	stimuli_target_circlediamonds.svg	stimuli_distractor_trianglediamonds.svg	4	yes	57	0	511
6.6.1	win	2022-12-15	16:14:27	16:21:17	407940	60ff8160e8f2227f8b200510	86300028	1	practice_slash	9	practice_slash	7	stimuli_distractor_trianglediamonds.svg	stimuli_target_circlediamonds.svg	10	yes	53	1	379
6.6.1	win	2022-12-15	16:14:27	16:21:17	407940	60ff8160e8f2227f8b200510	86300028	1	practice_slash	9	advance_on_keypress_SLASH	8	stimuli_distractor_trianglediamonds.svg	stimuli_target_circlediamonds.svg	10	yes	57	0	521
6.6.1	win	2022-12-15	16:14:27	16:21:20	410863	60ff8160e8f2227f8b200510	86300028	1	practice_slash	9	practice_slash	9	stimuli_distractor_diamondtriangles.svg	stimuli_target_trianglecircles.svg	9	yes	53	1	753
6.6.1	win	2022-12-15	16:14:27	16:21:20	410863	60ff8160e8f2227f8b200510	86300028	1	practice_slash	9	advance_on_keypress_SLASH	10	stimuli_distractor_diamondtriangles.svg	stimuli_target_trianglecircles.svg	9	yes	57	0	633
6.6.1	win	2022-12-15	16:14:27	16:21:24	415140	60ff8160e8f2227f8b200510	86300028	1	practice_slash	9	practice_slash	11	stimuli_target_diamondsquares.svg	stimuli_distractor_diamondtriangles.svg	3	yes	0	0	2000
6.6.1	win	2022-12-15	16:14:27	16:21:24	415140	60ff8160e8f2227f8b200510	86300028	1	practice_slash	9	advance_on_keypress_SLASH	12	stimuli_target_diamondsquares.svg	stimuli_distractor_diamondtriangles.svg	3	yes	57	0	479
6.6.1	win	2022-12-15	16:14:27	16:21:27	418037	60ff8160e8f2227f8b200510	86300028	1	practice_slash	9	practice_slash	13	stimuli_distractor_trianglediamonds.svg	stimuli_distractor_diamondtriangles.svg	16	no	53	0	769
6.6.1	win	2022-12-15	16:14:27	16:21:27	418037	60ff8160e8f2227f8b200510	86300028	1	practice_slash	9	advance_on_keypress_SLASH	14	stimuli_distractor_trianglediamonds.svg	stimuli_distractor_diamondtriangles.svg	16	no	57	0	385
6.6.1	win	2022-12-15	16:14:27	16:21:31	422065	60ff8160e8f2227f8b200510	86300028	1	practice_slash	9	practice_slash	15	stimuli_distractor_diamondtriangles.svg	stimuli_distractor_diamondtriangles.svg	13	no	0	1	2000
6.6.1	win	2022-12-15	16:14:27	16:21:31	422065	60ff8160e8f2227f8b200510	86300028	1	practice_slash	9	advance_on_keypress_SLASH	16	stimuli_distractor_diamondtriangles.svg	stimuli_distractor_diamondtriangles.svg	13	no	57	0	482
6.6.1	win	2022-12-15	16:14:27	16:21:33	424666	60ff8160e8f2227f8b200510	86300028	1	practice_slash	9	practice_slash	17	stimuli_target_circlediamonds.svg	stimuli_distractor_diamondtriangles.svg	1	yes	53	1	470
6.6.1	win	2022-12-15	16:14:27	16:21:33	424666	60ff8160e8f2227f8b200510	86300028	1	practice_slash	9	advance_on_keypress_SLASH	18	stimuli_target_circlediamonds.svg	stimuli_distractor_diamondtriangles.svg	1	yes	57	0	458
6.6.1	win	2022-12-15	16:14:27	16:21:36	427473	60ff8160e8f2227f8b200510	86300028	1	practice_slash	9	practice_slash	19	stimuli_distractor_trianglediamonds.svg	stimuli_target_squarediamonds.svg	11	yes	53	1	714
6.6.1	win	2022-12-15	16:14:27	16:21:36	427473	60ff8160e8f2227f8b200510	86300028	1	practice_slash	9	advance_on_keypress_SLASH	20	stimuli_distractor_trianglediamonds.svg	stimuli_target_squarediamonds.svg	11	yes	57	0	504
6.6.1	win	2022-12-15	16:14:27	16:21:40	431624	60ff8160e8f2227f8b200510	86300028	1	practice_slash	9	practice_slash	21	stimuli_distractor_trianglediamonds.svg	stimuli_distractor_trianglediamonds.svg	15	no	0	1	2000
6.6.1	win	2022-12-15	16:14:27	16:21:40	431624	60ff8160e8f2227f8b200510	86300028	1	practice_slash	9	advance_on_keypress_SLASH	22	stimuli_distractor_trianglediamonds.svg	stimuli_distractor_trianglediamonds.svg	15	no	57	0	742
6.6.1	win	2022-12-15	16:14:27	16:21:43	434556	60ff8160e8f2227f8b200510	86300028	1	practice_slash	9	practice_slash	23	stimuli_target_squarediamonds.svg	stimuli_distractor_diamondtriangles.svg	2	yes	53	1	554
6.6.1	win	2022-12-15	16:14:27	16:21:43	434556	60ff8160e8f2227f8b200510	86300028	1	practice_slash	9	advance_on_keypress_SLASH	24	stimuli_target_squarediamonds.svg	stimuli_distractor_diamondtriangles.svg	2	yes	57	0	441
6.6.1	win	2022-12-15	16:14:27	16:21:46	437459	60ff8160e8f2227f8b200510	86300028	1	practice_slash	9	practice_slash	25	stimuli_distractor_diamondtriangles.svg	stimuli_distractor_trianglediamonds.svg	14	no	53	0	826
6.6.1	win	2022-12-15	16:14:27	16:21:46	437459	60ff8160e8f2227f8b200510	86300028	1	practice_slash	9	advance_on_keypress_SLASH	26	stimuli_distractor_diamondtriangles.svg	stimuli_distractor_trianglediamonds.svg	14	no	57	0	712
6.6.1	win	2022-12-15	16:14:27	16:21:51	441813	60ff8160e8f2227f8b200510	86300028	1	practice_slash	9	practice_slash	27	stimuli_distractor_trianglediamonds.svg	stimuli_target_diamondcircles.svg	12	yes	0	0	2000
6.6.1	win	2022-12-15	16:14:27	16:21:51	441813	60ff8160e8f2227f8b200510	86300028	1	practice_slash	9	advance_on_keypress_SLASH	28	stimuli_distractor_trianglediamonds.svg	stimuli_target_diamondcircles.svg	12	yes	57	0	538
6.6.1	win	2022-12-15	16:14:27	16:21:53	444401	60ff8160e8f2227f8b200510	86300028	1	practice_slash	9	practice_slash	29	stimuli_distractor_diamondtriangles.svg	stimuli_target_circletriangles.svg	7	yes	53	1	409
6.6.1	win	2022-12-15	16:14:27	16:21:53	444401	60ff8160e8f2227f8b200510	86300028	1	practice_slash	9	advance_on_keypress_SLASH	30	stimuli_distractor_diamondtriangles.svg	stimuli_target_circletriangles.svg	7	yes	57	0	591
6.6.1	win	2022-12-15	16:14:27	16:21:56	446952	60ff8160e8f2227f8b200510	86300028	1	practice_slash	9	practice_slash	31	stimuli_distractor_diamondtriangles.svg	stimuli_target_diamondcircles.svg	8	yes	53	1	329
6.6.1	win	2022-12-15	16:14:27	16:21:56	446952	60ff8160e8f2227f8b200510	86300028	1	practice_slash	9	advance_on_keypress_SLASH	32	stimuli_distractor_diamondtriangles.svg	stimuli_target_diamondcircles.svg	8	yes	57	0	505
6.6.1	win	2022-12-15	16:14:27	16:22:01	452065	60ff8160e8f2227f8b200510	86300028	1	main_slash	11	main_slash	1	stimuli_distractor_trianglediamonds.svg	stimuli_target_trianglesquares.svg	26	yes	53	1	733
6.6.1	win	2022-12-15	16:14:27	16:22:01	452065	60ff8160e8f2227f8b200510	86300028	1	main_slash	11	advance_on_keypress_SLASH	2	stimuli_distractor_trianglediamonds.svg	stimuli_target_trianglesquares.svg	26	yes	57	0	252
6.6.1	win	2022-12-15	16:14:27	16:22:02	453422	60ff8160e8f2227f8b200510	86300028	1	main_slash	11	main_slash	3	stimuli_target_trianglecircles.svg	stimuli_distractor_diamondtriangles.svg	21	yes	53	1	459
6.6.1	win	2022-12-15	16:14:27	16:22:02	453422	60ff8160e8f2227f8b200510	86300028	1	main_slash	11	advance_on_keypress_SLASH	4	stimuli_target_trianglecircles.svg	stimuli_distractor_diamondtriangles.svg	21	yes	57	0	190
6.6.1	win	2022-12-15	16:14:27	16:22:03	454675	60ff8160e8f2227f8b200510	86300028	1	main_slash	11	main_slash	5	stimuli_distractor_diamondtriangles.svg	stimuli_distractor_trianglediamonds.svg	37	no	53	0	430
6.6.1	win	2022-12-15	16:14:27	16:22:03	454675	60ff8160e8f2227f8b200510	86300028	1	main_slash	11	advance_on_keypress_SLASH	6	stimuli_distractor_diamondtriangles.svg	stimuli_distractor_trianglediamonds.svg	37	no	57	0	310
6.6.1	win	2022-12-15	16:14:27	16:22:06	457628	60ff8160e8f2227f8b200510	86300028	1	main_slash	11	main_slash	7	stimuli_distractor_diamondtriangles.svg	stimuli_distractor_diamondtriangles.svg	39	no	0	1	2000
6.6.1	win	2022-12-15	16:14:27	16:22:06	457628	60ff8160e8f2227f8b200510	86300028	1	main_slash	11	advance_on_keypress_SLASH	8	stimuli_distractor_diamondtriangles.svg	stimuli_distractor_diamondtriangles.svg	39	no	57	0	268
6.6.1	win	2022-12-15	16:14:27	16:22:08	458899	60ff8160e8f2227f8b200510	86300028	1	main_slash	11	main_slash	9	stimuli_target_diamondcircles.svg	stimuli_distractor_trianglediamonds.svg	19	yes	53	1	358
6.6.1	win	2022-12-15	16:14:27	16:22:08	458899	60ff8160e8f2227f8b200510	86300028	1	main_slash	11	advance_on_keypress_SLASH	10	stimuli_target_diamondcircles.svg	stimuli_distractor_trianglediamonds.svg	19	yes	57	0	167
6.6.1	win	2022-12-15	16:14:27	16:22:09	460134	60ff8160e8f2227f8b200510	86300028	1	main_slash	11	main_slash	11	stimuli_distractor_diamondtriangles.svg	stimuli_target_diamondcircles.svg	31	yes	53	1	428
6.6.1	win	2022-12-15	16:14:27	16:22:09	460134	60ff8160e8f2227f8b200510	86300028	1	main_slash	11	advance_on_keypress_SLASH	12	stimuli_distractor_diamondtriangles.svg	stimuli_target_diamondcircles.svg	31	yes	57	0	131
6.6.1	win	2022-12-15	16:14:27	16:22:10	461247	60ff8160e8f2227f8b200510	86300028	1	main_slash	11	main_slash	13	stimuli_target_circletriangles.svg	stimuli_distractor_diamondtriangles.svg	5	yes	53	1	341
6.6.1	win	2022-12-15	16:14:27	16:22:10	461247	60ff8160e8f2227f8b200510	86300028	1	main_slash	11	advance_on_keypress_SLASH	14	stimuli_target_circletriangles.svg	stimuli_distractor_diamondtriangles.svg	5	yes	57	0	224
6.6.1	win	2022-12-15	16:14:27	16:22:13	464104	60ff8160e8f2227f8b200510	86300028	1	main_slash	11	main_slash	15	stimuli_distractor_trianglediamonds.svg	stimuli_distractor_trianglediamonds.svg	33	no	0	1	2000
6.6.1	win	2022-12-15	16:14:27	16:22:13	464104	60ff8160e8f2227f8b200510	86300028	1	main_slash	11	advance_on_keypress_SLASH	16	stimuli_distractor_trianglediamonds.svg	stimuli_distractor_trianglediamonds.svg	33	no	57	0	282
6.6.1	win	2022-12-15	16:14:27	16:22:14	465489	60ff8160e8f2227f8b200510	86300028	1	main_slash	11	main_slash	17	stimuli_distractor_trianglediamonds.svg	stimuli_target_diamondcircles.svg	27	yes	53	1	454
6.6.1	win	2022-12-15	16:14:27	16:22:14	465489	60ff8160e8f2227f8b200510	86300028	1	main_slash	11	advance_on_keypress_SLASH	18	stimuli_distractor_trianglediamonds.svg	stimuli_target_diamondcircles.svg	27	yes	57	0	183
6.6.1	win	2022-12-15	16:14:27	16:22:15	466649	60ff8160e8f2227f8b200510	86300028	1	main_slash	11	main_slash	19	stimuli_distractor_trianglediamonds.svg	stimuli_target_trianglecircles.svg	25	yes	53	1	331
6.6.1	win	2022-12-15	16:14:27	16:22:15	466649	60ff8160e8f2227f8b200510	86300028	1	main_slash	11	advance_on_keypress_SLASH	20	stimuli_distractor_trianglediamonds.svg	stimuli_target_trianglecircles.svg	25	yes	57	0	174
6.6.1	win	2022-12-15	16:14:27	16:22:17	467863	60ff8160e8f2227f8b200510	86300028	1	main_slash	11	main_slash	21	stimuli_distractor_trianglediamonds.svg	stimuli_target_diamondsquares.svg	28	yes	53	1	397
6.6.1	win	2022-12-15	16:14:27	16:22:17	467863	60ff8160e8f2227f8b200510	86300028	1	main_slash	11	advance_on_keypress_SLASH	22	stimuli_distractor_trianglediamonds.svg	stimuli_target_diamondsquares.svg	28	yes	57	0	171
6.6.1	win	2022-12-15	16:14:27	16:22:18	469011	60ff8160e8f2227f8b200510	86300028	1	main_slash	11	main_slash	23	stimuli_target_trianglecircles.svg	stimuli_distractor_trianglediamonds.svg	17	yes	53	1	330
6.6.1	win	2022-12-15	16:14:27	16:22:18	469011	60ff8160e8f2227f8b200510	86300028	1	main_slash	11	advance_on_keypress_SLASH	24	stimuli_target_trianglecircles.svg	stimuli_distractor_trianglediamonds.svg	17	yes	57	0	201
6.6.1	win	2022-12-15	16:14:27	16:22:21	471864	60ff8160e8f2227f8b200510	86300028	1	main_slash	11	main_slash	25	stimuli_distractor_diamondtriangles.svg	stimuli_distractor_diamondtriangles.svg	40	no	0	1	2000
6.6.1	win	2022-12-15	16:14:27	16:22:21	471864	60ff8160e8f2227f8b200510	86300028	1	main_slash	11	advance_on_keypress_SLASH	26	stimuli_distractor_diamondtriangles.svg	stimuli_distractor_diamondtriangles.svg	40	no	57	0	388
6.6.1	win	2022-12-15	16:14:27	16:22:22	473464	60ff8160e8f2227f8b200510	86300028	1	main_slash	11	main_slash	27	stimuli_distractor_trianglediamonds.svg	stimuli_target_squarediamonds.svg	12	yes	53	1	570
6.6.1	win	2022-12-15	16:14:27	16:22:22	473464	60ff8160e8f2227f8b200510	86300028	1	main_slash	11	advance_on_keypress_SLASH	28	stimuli_distractor_trianglediamonds.svg	stimuli_target_squarediamonds.svg	12	yes	57	0	156
6.6.1	win	2022-12-15	16:14:27	16:22:23	474579	60ff8160e8f2227f8b200510	86300028	1	main_slash	11	main_slash	29	stimuli_distractor_diamondtriangles.svg	stimuli_distractor_trianglediamonds.svg	38	no	53	0	320
6.6.1	win	2022-12-15	16:14:27	16:22:23	474579	60ff8160e8f2227f8b200510	86300028	1	main_slash	11	advance_on_keypress_SLASH	30	stimuli_distractor_diamondtriangles.svg	stimuli_distractor_trianglediamonds.svg	38	no	57	0	245
6.6.1	win	2022-12-15	16:14:27	16:22:25	476066	60ff8160e8f2227f8b200510	86300028	1	main_slash	11	main_slash	31	stimuli_distractor_diamondtriangles.svg	stimuli_target_diamondsquares.svg	32	yes	53	1	608
6.6.1	win	2022-12-15	16:14:27	16:22:25	476066	60ff8160e8f2227f8b200510	86300028	1	main_slash	11	advance_on_keypress_SLASH	32	stimuli_distractor_diamondtriangles.svg	stimuli_target_diamondsquares.svg	32	yes	57	0	231
6.6.1	win	2022-12-15	16:14:27	16:22:27	478239	60ff8160e8f2227f8b200510	86300028	1	main_slash	11	main_slash	33	stimuli_target_squaretriangles.svg	stimuli_distractor_diamondtriangles.svg	7	yes	53	1	1300
6.6.1	win	2022-12-15	16:14:27	16:22:27	478239	60ff8160e8f2227f8b200510	86300028	1	main_slash	11	advance_on_keypress_SLASH	34	stimuli_target_squaretriangles.svg	stimuli_distractor_diamondtriangles.svg	7	yes	57	0	247
6.6.1	win	2022-12-15	16:14:27	16:22:30	481137	60ff8160e8f2227f8b200510	86300028	1	main_slash	11	main_slash	35	stimuli_distractor_trianglediamonds.svg	stimuli_distractor_trianglediamonds.svg	34	no	0	1	2000
6.6.1	win	2022-12-15	16:14:27	16:22:30	481137	60ff8160e8f2227f8b200510	86300028	1	main_slash	11	advance_on_keypress_SLASH	36	stimuli_distractor_trianglediamonds.svg	stimuli_distractor_trianglediamonds.svg	34	no	57	0	261
6.6.1	win	2022-12-15	16:14:27	16:22:31	482635	60ff8160e8f2227f8b200510	86300028	1	main_slash	11	main_slash	37	stimuli_distractor_diamondtriangles.svg	stimuli_target_trianglesquares.svg	30	yes	53	1	600
6.6.1	win	2022-12-15	16:14:27	16:22:31	482635	60ff8160e8f2227f8b200510	86300028	1	main_slash	11	advance_on_keypress_SLASH	38	stimuli_distractor_diamondtriangles.svg	stimuli_target_trianglesquares.svg	30	yes	57	0	166
6.6.1	win	2022-12-15	16:14:27	16:22:33	484071	60ff8160e8f2227f8b200510	86300028	1	main_slash	11	main_slash	39	stimuli_target_circlediamonds.svg	stimuli_distractor_trianglediamonds.svg	2	yes	53	1	621
6.6.1	win	2022-12-15	16:14:27	16:22:33	484071	60ff8160e8f2227f8b200510	86300028	1	main_slash	11	advance_on_keypress_SLASH	40	stimuli_target_circlediamonds.svg	stimuli_distractor_trianglediamonds.svg	2	yes	57	0	188
6.6.1	win	2022-12-15	16:14:27	16:22:36	486899	60ff8160e8f2227f8b200510	86300028	1	main_slash	11	main_slash	41	stimuli_distractor_diamondtriangles.svg	stimuli_target_squaretriangles.svg	15	yes	0	0	2000
6.6.1	win	2022-12-15	16:14:27	16:22:36	486899	60ff8160e8f2227f8b200510	86300028	1	main_slash	11	advance_on_keypress_SLASH	42	stimuli_distractor_diamondtriangles.svg	stimuli_target_squaretriangles.svg	15	yes	57	0	181
6.6.1	win	2022-12-15	16:14:27	16:22:37	488150	60ff8160e8f2227f8b200510	86300028	1	main_slash	11	main_slash	43	stimuli_distractor_trianglediamonds.svg	stimuli_target_circletriangles.svg	9	yes	53	1	421
6.6.1	win	2022-12-15	16:14:27	16:22:37	488150	60ff8160e8f2227f8b200510	86300028	1	main_slash	11	advance_on_keypress_SLASH	44	stimuli_distractor_trianglediamonds.svg	stimuli_target_circletriangles.svg	9	yes	57	0	172
6.6.1	win	2022-12-15	16:14:27	16:22:38	489285	60ff8160e8f2227f8b200510	86300028	1	main_slash	11	main_slash	45	stimuli_distractor_trianglediamonds.svg	stimuli_target_circlediamonds.svg	10	yes	53	1	324
6.6.1	win	2022-12-15	16:14:27	16:22:38	489285	60ff8160e8f2227f8b200510	86300028	1	main_slash	11	advance_on_keypress_SLASH	46	stimuli_distractor_trianglediamonds.svg	stimuli_target_circlediamonds.svg	10	yes	57	0	233
6.6.1	win	2022-12-15	16:14:27	16:22:41	492160	60ff8160e8f2227f8b200510	86300028	1	main_slash	11	main_slash	47	stimuli_distractor_trianglediamonds.svg	stimuli_distractor_diamondtriangles.svg	35	no	0	1	2000
6.6.1	win	2022-12-15	16:14:27	16:22:41	492160	60ff8160e8f2227f8b200510	86300028	1	main_slash	11	advance_on_keypress_SLASH	48	stimuli_distractor_trianglediamonds.svg	stimuli_distractor_diamondtriangles.svg	35	no	57	0	315
6.6.1	win	2022-12-15	16:14:27	16:22:42	493622	60ff8160e8f2227f8b200510	86300028	1	main_slash	11	main_slash	49	stimuli_target_diamondcircles.svg	stimuli_distractor_diamondtriangles.svg	23	yes	53	1	498
6.6.1	win	2022-12-15	16:14:27	16:22:42	493622	60ff8160e8f2227f8b200510	86300028	1	main_slash	11	advance_on_keypress_SLASH	50	stimuli_target_diamondcircles.svg	stimuli_distractor_diamondtriangles.svg	23	yes	57	0	202
6.6.1	win	2022-12-15	16:14:27	16:22:44	495085	60ff8160e8f2227f8b200510	86300028	1	main_slash	11	main_slash	51	stimuli_target_diamondsquares.svg	stimuli_distractor_trianglediamonds.svg	20	yes	53	1	613
6.6.1	win	2022-12-15	16:14:27	16:22:44	495085	60ff8160e8f2227f8b200510	86300028	1	main_slash	11	advance_on_keypress_SLASH	52	stimuli_target_diamondsquares.svg	stimuli_distractor_trianglediamonds.svg	20	yes	57	0	173
6.6.1	win	2022-12-15	16:14:27	16:22:45	496457	60ff8160e8f2227f8b200510	86300028	1	main_slash	11	main_slash	53	stimuli_distractor_diamondtriangles.svg	stimuli_target_squarediamonds.svg	16	yes	53	1	553
6.6.1	win	2022-12-15	16:14:27	16:22:45	496457	60ff8160e8f2227f8b200510	86300028	1	main_slash	11	advance_on_keypress_SLASH	54	stimuli_distractor_diamondtriangles.svg	stimuli_target_squarediamonds.svg	16	yes	57	0	166
6.6.1	win	2022-12-15	16:14:27	16:22:46	497627	60ff8160e8f2227f8b200510	86300028	1	main_slash	11	main_slash	55	stimuli_distractor_diamondtriangles.svg	stimuli_target_circlediamonds.svg	14	yes	53	1	358
6.6.1	win	2022-12-15	16:14:27	16:22:46	497627	60ff8160e8f2227f8b200510	86300028	1	main_slash	11	advance_on_keypress_SLASH	56	stimuli_distractor_diamondtriangles.svg	stimuli_target_circlediamonds.svg	14	yes	57	0	237
6.6.1	win	2022-12-15	16:14:27	16:22:48	499043	60ff8160e8f2227f8b200510	86300028	1	main_slash	11	main_slash	57	stimuli_target_squaretriangles.svg	stimuli_distractor_trianglediamonds.svg	3	yes	53	1	543
6.6.1	win	2022-12-15	16:14:27	16:22:48	499043	60ff8160e8f2227f8b200510	86300028	1	main_slash	11	advance_on_keypress_SLASH	58	stimuli_target_squaretriangles.svg	stimuli_distractor_trianglediamonds.svg	3	yes	57	0	241
6.6.1	win	2022-12-15	16:14:27	16:22:51	501917	60ff8160e8f2227f8b200510	86300028	1	main_slash	11	main_slash	59	stimuli_distractor_diamondtriangles.svg	stimuli_target_trianglecircles.svg	29	yes	0	0	2000
6.6.1	win	2022-12-15	16:14:27	16:22:51	501917	60ff8160e8f2227f8b200510	86300028	1	main_slash	11	advance_on_keypress_SLASH	60	stimuli_distractor_diamondtriangles.svg	stimuli_target_trianglecircles.svg	29	yes	57	0	642
6.6.1	win	2022-12-15	16:14:27	16:22:52	503682	60ff8160e8f2227f8b200510	86300028	1	main_slash	11	main_slash	61	stimuli_target_circletriangles.svg	stimuli_distractor_trianglediamonds.svg	1	yes	53	1	484
6.6.1	win	2022-12-15	16:14:27	16:22:52	503682	60ff8160e8f2227f8b200510	86300028	1	main_slash	11	advance_on_keypress_SLASH	62	stimuli_target_circletriangles.svg	stimuli_distractor_trianglediamonds.svg	1	yes	57	0	221
6.6.1	win	2022-12-15	16:14:27	16:22:54	505093	60ff8160e8f2227f8b200510	86300028	1	main_slash	11	main_slash	63	stimuli_target_squarediamonds.svg	stimuli_distractor_diamondtriangles.svg	8	yes	53	1	548
6.6.1	win	2022-12-15	16:14:27	16:22:54	505093	60ff8160e8f2227f8b200510	86300028	1	main_slash	11	advance_on_keypress_SLASH	64	stimuli_target_squarediamonds.svg	stimuli_distractor_diamondtriangles.svg	8	yes	57	0	194
6.6.1	win	2022-12-15	16:14:27	16:22:55	506528	60ff8160e8f2227f8b200510	86300028	1	main_slash	11	main_slash	65	stimuli_target_diamondsquares.svg	stimuli_distractor_diamondtriangles.svg	24	yes	53	1	601
6.6.1	win	2022-12-15	16:14:27	16:22:55	506528	60ff8160e8f2227f8b200510	86300028	1	main_slash	11	advance_on_keypress_SLASH	66	stimuli_target_diamondsquares.svg	stimuli_distractor_diamondtriangles.svg	24	yes	57	0	207
6.6.1	win	2022-12-15	16:14:27	16:22:57	507942	60ff8160e8f2227f8b200510	86300028	1	main_slash	11	main_slash	67	stimuli_target_trianglesquares.svg	stimuli_distractor_diamondtriangles.svg	22	yes	53	1	566
6.6.1	win	2022-12-15	16:14:27	16:22:57	507942	60ff8160e8f2227f8b200510	86300028	1	main_slash	11	advance_on_keypress_SLASH	68	stimuli_target_trianglesquares.svg	stimuli_distractor_diamondtriangles.svg	22	yes	57	0	314
6.6.1	win	2022-12-15	16:14:27	16:22:58	509553	60ff8160e8f2227f8b200510	86300028	1	main_slash	11	main_slash	69	stimuli_distractor_diamondtriangles.svg	stimuli_target_circletriangles.svg	13	yes	53	1	645
6.6.1	win	2022-12-15	16:14:27	16:22:58	509553	60ff8160e8f2227f8b200510	86300028	1	main_slash	11	advance_on_keypress_SLASH	70	stimuli_distractor_diamondtriangles.svg	stimuli_target_circletriangles.svg	13	yes	57	0	212
6.6.1	win	2022-12-15	16:14:27	16:23:00	510862	60ff8160e8f2227f8b200510	86300028	1	main_slash	11	main_slash	71	stimuli_target_squarediamonds.svg	stimuli_distractor_trianglediamonds.svg	4	yes	53	1	456
6.6.1	win	2022-12-15	16:14:27	16:23:00	510862	60ff8160e8f2227f8b200510	86300028	1	main_slash	11	advance_on_keypress_SLASH	72	stimuli_target_squarediamonds.svg	stimuli_distractor_trianglediamonds.svg	4	yes	57	0	197
6.6.1	win	2022-12-15	16:14:27	16:23:01	512040	60ff8160e8f2227f8b200510	86300028	1	main_slash	11	main_slash	73	stimuli_target_circlediamonds.svg	stimuli_distractor_diamondtriangles.svg	6	yes	53	1	335
6.6.1	win	2022-12-15	16:14:27	16:23:01	512040	60ff8160e8f2227f8b200510	86300028	1	main_slash	11	advance_on_keypress_SLASH	74	stimuli_target_circlediamonds.svg	stimuli_distractor_diamondtriangles.svg	6	yes	57	0	187
6.6.1	win	2022-12-15	16:14:27	16:23:02	513272	60ff8160e8f2227f8b200510	86300028	1	main_slash	11	main_slash	75	stimuli_distractor_trianglediamonds.svg	stimuli_target_squaretriangles.svg	11	yes	53	1	403
6.6.1	win	2022-12-15	16:14:27	16:23:02	513272	60ff8160e8f2227f8b200510	86300028	1	main_slash	11	advance_on_keypress_SLASH	76	stimuli_distractor_trianglediamonds.svg	stimuli_target_squaretriangles.svg	11	yes	57	0	197
6.6.1	win	2022-12-15	16:14:27	16:23:05	516119	60ff8160e8f2227f8b200510	86300028	1	main_slash	11	main_slash	77	stimuli_distractor_trianglediamonds.svg	stimuli_distractor_diamondtriangles.svg	36	no	0	1	2000
6.6.1	win	2022-12-15	16:14:27	16:23:05	516119	60ff8160e8f2227f8b200510	86300028	1	main_slash	11	advance_on_keypress_SLASH	78	stimuli_distractor_trianglediamonds.svg	stimuli_distractor_diamondtriangles.svg	36	no	57	0	349
6.6.1	win	2022-12-15	16:14:27	16:23:07	517987	60ff8160e8f2227f8b200510	86300028	1	main_slash	11	main_slash	79	stimuli_target_trianglesquares.svg	stimuli_distractor_trianglediamonds.svg	18	yes	53	1	871
6.6.1	win	2022-12-15	16:14:27	16:23:07	517987	60ff8160e8f2227f8b200510	86300028	1	main_slash	11	advance_on_keypress_SLASH	80	stimuli_target_trianglesquares.svg	stimuli_distractor_trianglediamonds.svg	18	yes	57	0	201
6.6.1	win	2022-12-15	16:14:27	16:23:08	519163	60ff8160e8f2227f8b200510	86300028	1	main_slash	11	main_slash	81	stimuli_distractor_trianglediamonds.svg	stimuli_distractor_diamondtriangles.svg	36	no	53	0	332
6.6.1	win	2022-12-15	16:14:27	16:23:08	519163	60ff8160e8f2227f8b200510	86300028	1	main_slash	11	advance_on_keypress_SLASH	82	stimuli_distractor_trianglediamonds.svg	stimuli_distractor_diamondtriangles.svg	36	no	57	0	263
6.6.1	win	2022-12-15	16:14:27	16:23:11	522063	60ff8160e8f2227f8b200510	86300028	1	main_slash	11	main_slash	83	stimuli_distractor_trianglediamonds.svg	stimuli_target_trianglecircles.svg	25	yes	0	0	2000
6.6.1	win	2022-12-15	16:14:27	16:23:11	522063	60ff8160e8f2227f8b200510	86300028	1	main_slash	11	advance_on_keypress_SLASH	84	stimuli_distractor_trianglediamonds.svg	stimuli_target_trianglecircles.svg	25	yes	57	0	336
6.6.1	win	2022-12-15	16:14:27	16:23:14	525044	60ff8160e8f2227f8b200510	86300028	1	main_slash	11	main_slash	85	stimuli_distractor_diamondtriangles.svg	stimuli_distractor_trianglediamonds.svg	38	no	0	1	2000
6.6.1	win	2022-12-15	16:14:27	16:23:14	525044	60ff8160e8f2227f8b200510	86300028	1	main_slash	11	advance_on_keypress_SLASH	86	stimuli_distractor_diamondtriangles.svg	stimuli_distractor_trianglediamonds.svg	38	no	57	0	463
6.6.1	win	2022-12-15	16:14:27	16:23:17	528157	60ff8160e8f2227f8b200510	86300028	1	main_slash	11	main_slash	87	stimuli_distractor_trianglediamonds.svg	stimuli_target_squarediamonds.svg	12	yes	0	0	2000
6.6.1	win	2022-12-15	16:14:27	16:23:17	528157	60ff8160e8f2227f8b200510	86300028	1	main_slash	11	advance_on_keypress_SLASH	88	stimuli_distractor_trianglediamonds.svg	stimuli_target_squarediamonds.svg	12	yes	57	0	765
6.6.1	win	2022-12-15	16:14:27	16:23:20	531571	60ff8160e8f2227f8b200510	86300028	1	main_slash	11	main_slash	89	stimuli_distractor_diamondtriangles.svg	stimuli_target_trianglesquares.svg	30	yes	0	0	2000
6.6.1	win	2022-12-15	16:14:27	16:23:20	531571	60ff8160e8f2227f8b200510	86300028	1	main_slash	11	advance_on_keypress_SLASH	90	stimuli_distractor_diamondtriangles.svg	stimuli_target_trianglesquares.svg	30	yes	57	0	513
6.6.1	win	2022-12-15	16:14:27	16:23:22	533456	60ff8160e8f2227f8b200510	86300028	1	main_slash	11	main_slash	91	stimuli_target_squarediamonds.svg	stimuli_distractor_trianglediamonds.svg	4	yes	53	1	722
6.6.1	win	2022-12-15	16:14:27	16:23:22	533456	60ff8160e8f2227f8b200510	86300028	1	main_slash	11	advance_on_keypress_SLASH	92	stimuli_target_squarediamonds.svg	stimuli_distractor_trianglediamonds.svg	4	yes	57	0	185
6.6.1	win	2022-12-15	16:14:27	16:23:23	534666	60ff8160e8f2227f8b200510	86300028	1	main_slash	11	main_slash	93	stimuli_target_trianglesquares.svg	stimuli_distractor_diamondtriangles.svg	22	yes	53	1	383
6.6.1	win	2022-12-15	16:14:27	16:23:23	534666	60ff8160e8f2227f8b200510	86300028	1	main_slash	11	advance_on_keypress_SLASH	94	stimuli_target_trianglesquares.svg	stimuli_distractor_diamondtriangles.svg	22	yes	57	0	231
6.6.1	win	2022-12-15	16:14:27	16:23:25	536464	60ff8160e8f2227f8b200510	86300028	1	main_slash	11	main_slash	95	stimuli_target_diamondcircles.svg	stimuli_distractor_diamondtriangles.svg	23	yes	53	1	916
6.6.1	win	2022-12-15	16:14:27	16:23:25	536464	60ff8160e8f2227f8b200510	86300028	1	main_slash	11	advance_on_keypress_SLASH	96	stimuli_target_diamondcircles.svg	stimuli_distractor_diamondtriangles.svg	23	yes	57	0	220
6.6.1	win	2022-12-15	16:14:27	16:23:27	538147	60ff8160e8f2227f8b200510	86300028	1	main_slash	11	main_slash	97	stimuli_distractor_diamondtriangles.svg	stimuli_target_diamondsquares.svg	32	yes	53	1	817
6.6.1	win	2022-12-15	16:14:27	16:23:27	538147	60ff8160e8f2227f8b200510	86300028	1	main_slash	11	advance_on_keypress_SLASH	98	stimuli_distractor_diamondtriangles.svg	stimuli_target_diamondsquares.svg	32	yes	57	0	295
6.6.1	win	2022-12-15	16:14:27	16:23:28	539567	60ff8160e8f2227f8b200510	86300028	1	main_slash	11	main_slash	99	stimuli_distractor_diamondtriangles.svg	stimuli_target_squaretriangles.svg	15	yes	53	1	489
6.6.1	win	2022-12-15	16:14:27	16:23:28	539567	60ff8160e8f2227f8b200510	86300028	1	main_slash	11	advance_on_keypress_SLASH	100	stimuli_distractor_diamondtriangles.svg	stimuli_target_squaretriangles.svg	15	yes	57	0	171
6.6.1	win	2022-12-15	16:14:27	16:23:30	540817	60ff8160e8f2227f8b200510	86300028	1	main_slash	11	main_slash	101	stimuli_distractor_trianglediamonds.svg	stimuli_target_circlediamonds.svg	10	yes	53	1	439
6.6.1	win	2022-12-15	16:14:27	16:23:30	540817	60ff8160e8f2227f8b200510	86300028	1	main_slash	11	advance_on_keypress_SLASH	102	stimuli_distractor_trianglediamonds.svg	stimuli_target_circlediamonds.svg	10	yes	57	0	152
6.6.1	win	2022-12-15	16:14:27	16:23:31	541986	60ff8160e8f2227f8b200510	86300028	1	main_slash	11	main_slash	103	stimuli_distractor_diamondtriangles.svg	stimuli_target_diamondcircles.svg	31	yes	53	1	378
6.6.1	win	2022-12-15	16:14:27	16:23:31	541986	60ff8160e8f2227f8b200510	86300028	1	main_slash	11	advance_on_keypress_SLASH	104	stimuli_distractor_diamondtriangles.svg	stimuli_target_diamondcircles.svg	31	yes	57	0	192
6.6.1	win	2022-12-15	16:14:27	16:23:32	543304	60ff8160e8f2227f8b200510	86300028	1	main_slash	11	main_slash	105	stimuli_distractor_trianglediamonds.svg	stimuli_target_squaretriangles.svg	11	yes	53	1	495
6.6.1	win	2022-12-15	16:14:27	16:23:32	543304	60ff8160e8f2227f8b200510	86300028	1	main_slash	11	advance_on_keypress_SLASH	106	stimuli_distractor_trianglediamonds.svg	stimuli_target_squaretriangles.svg	11	yes	57	0	159
6.6.1	win	2022-12-15	16:14:27	16:23:33	544742	60ff8160e8f2227f8b200510	86300028	1	main_slash	11	main_slash	107	stimuli_target_diamondcircles.svg	stimuli_distractor_trianglediamonds.svg	19	yes	53	1	635
6.6.1	win	2022-12-15	16:14:27	16:23:33	544742	60ff8160e8f2227f8b200510	86300028	1	main_slash	11	advance_on_keypress_SLASH	108	stimuli_target_diamondcircles.svg	stimuli_distractor_trianglediamonds.svg	19	yes	57	0	152
6.6.1	win	2022-12-15	16:14:27	16:23:35	545998	60ff8160e8f2227f8b200510	86300028	1	main_slash	11	main_slash	109	stimuli_target_squarediamonds.svg	stimuli_distractor_diamondtriangles.svg	8	yes	53	1	461
6.6.1	win	2022-12-15	16:14:27	16:23:35	545998	60ff8160e8f2227f8b200510	86300028	1	main_slash	11	advance_on_keypress_SLASH	110	stimuli_target_squarediamonds.svg	stimuli_distractor_diamondtriangles.svg	8	yes	57	0	216
6.6.1	win	2022-12-15	16:14:27	16:23:38	548854	60ff8160e8f2227f8b200510	86300028	1	main_slash	11	main_slash	111	stimuli_distractor_trianglediamonds.svg	stimuli_distractor_diamondtriangles.svg	35	no	0	1	2000
6.6.1	win	2022-12-15	16:14:27	16:23:38	548854	60ff8160e8f2227f8b200510	86300028	1	main_slash	11	advance_on_keypress_SLASH	112	stimuli_distractor_trianglediamonds.svg	stimuli_distractor_diamondtriangles.svg	35	no	57	0	359
6.6.1	win	2022-12-15	16:14:27	16:23:39	550659	60ff8160e8f2227f8b200510	86300028	1	main_slash	11	main_slash	113	stimuli_distractor_trianglediamonds.svg	stimuli_distractor_trianglediamonds.svg	33	no	53	0	808
6.6.1	win	2022-12-15	16:14:27	16:23:39	550659	60ff8160e8f2227f8b200510	86300028	1	main_slash	11	advance_on_keypress_SLASH	114	stimuli_distractor_trianglediamonds.svg	stimuli_distractor_trianglediamonds.svg	33	no	57	0	490
6.6.1	win	2022-12-15	16:14:27	16:23:41	552493	60ff8160e8f2227f8b200510	86300028	1	main_slash	11	main_slash	115	stimuli_distractor_diamondtriangles.svg	stimuli_distractor_trianglediamonds.svg	37	no	53	0	711
6.6.1	win	2022-12-15	16:14:27	16:23:41	552493	60ff8160e8f2227f8b200510	86300028	1	main_slash	11	advance_on_keypress_SLASH	116	stimuli_distractor_diamondtriangles.svg	stimuli_distractor_trianglediamonds.svg	37	no	57	0	337
6.6.1	win	2022-12-15	16:14:27	16:23:43	554528	60ff8160e8f2227f8b200510	86300028	1	main_slash	11	main_slash	117	stimuli_target_squaretriangles.svg	stimuli_distractor_trianglediamonds.svg	3	yes	53	1	1063
6.6.1	win	2022-12-15	16:14:27	16:23:43	554528	60ff8160e8f2227f8b200510	86300028	1	main_slash	11	advance_on_keypress_SLASH	118	stimuli_target_squaretriangles.svg	stimuli_distractor_trianglediamonds.svg	3	yes	57	0	371
6.6.1	win	2022-12-15	16:14:27	16:23:46	557117	60ff8160e8f2227f8b200510	86300028	1	main_slash	11	main_slash	119	stimuli_distractor_trianglediamonds.svg	stimuli_target_diamondsquares.svg	28	yes	53	1	1571
6.6.1	win	2022-12-15	16:14:27	16:23:46	557117	60ff8160e8f2227f8b200510	86300028	1	main_slash	11	advance_on_keypress_SLASH	120	stimuli_distractor_trianglediamonds.svg	stimuli_target_diamondsquares.svg	28	yes	57	0	316
6.6.1	win	2022-12-15	16:14:27	16:23:47	558659	60ff8160e8f2227f8b200510	86300028	1	main_slash	11	main_slash	121	stimuli_target_diamondsquares.svg	stimuli_distractor_trianglediamonds.svg	20	yes	53	1	583
6.6.1	win	2022-12-15	16:14:27	16:23:47	558659	60ff8160e8f2227f8b200510	86300028	1	main_slash	11	advance_on_keypress_SLASH	122	stimuli_target_diamondsquares.svg	stimuli_distractor_trianglediamonds.svg	20	yes	57	0	175
6.6.1	win	2022-12-15	16:14:27	16:23:49	559766	60ff8160e8f2227f8b200510	86300028	1	main_slash	11	main_slash	123	stimuli_distractor_diamondtriangles.svg	stimuli_target_trianglecircles.svg	29	yes	53	1	291
6.6.1	win	2022-12-15	16:14:27	16:23:49	559766	60ff8160e8f2227f8b200510	86300028	1	main_slash	11	advance_on_keypress_SLASH	124	stimuli_distractor_diamondtriangles.svg	stimuli_target_trianglecircles.svg	29	yes	57	0	170
6.6.1	win	2022-12-15	16:14:27	16:23:50	560846	60ff8160e8f2227f8b200510	86300028	1	main_slash	11	main_slash	125	stimuli_target_diamondsquares.svg	stimuli_distractor_diamondtriangles.svg	24	yes	53	1	272
6.6.1	win	2022-12-15	16:14:27	16:23:50	560846	60ff8160e8f2227f8b200510	86300028	1	main_slash	11	advance_on_keypress_SLASH	126	stimuli_target_diamondsquares.svg	stimuli_distractor_diamondtriangles.svg	24	yes	57	0	167
6.6.1	win	2022-12-15	16:14:27	16:23:51	561837	60ff8160e8f2227f8b200510	86300028	1	main_slash	11	main_slash	127	stimuli_distractor_diamondtriangles.svg	stimuli_distractor_diamondtriangles.svg	40	no	53	0	181
6.6.1	win	2022-12-15	16:14:27	16:23:51	561837	60ff8160e8f2227f8b200510	86300028	1	main_slash	11	advance_on_keypress_SLASH	128	stimuli_distractor_diamondtriangles.svg	stimuli_distractor_diamondtriangles.svg	40	no	57	0	174
6.6.1	win	2022-12-15	16:14:27	16:23:53	564655	60ff8160e8f2227f8b200510	86300028	1	main_slash	11	main_slash	129	stimuli_distractor_diamondtriangles.svg	stimuli_distractor_diamondtriangles.svg	39	no	0	1	2000
6.6.1	win	2022-12-15	16:14:27	16:23:53	564655	60ff8160e8f2227f8b200510	86300028	1	main_slash	11	advance_on_keypress_SLASH	130	stimuli_distractor_diamondtriangles.svg	stimuli_distractor_diamondtriangles.svg	39	no	57	0	343
6.6.1	win	2022-12-15	16:14:27	16:23:55	566202	60ff8160e8f2227f8b200510	86300028	1	main_slash	11	main_slash	131	stimuli_distractor_diamondtriangles.svg	stimuli_target_circletriangles.svg	13	yes	53	1	567
6.6.1	win	2022-12-15	16:14:27	16:23:55	566202	60ff8160e8f2227f8b200510	86300028	1	main_slash	11	advance_on_keypress_SLASH	132	stimuli_distractor_diamondtriangles.svg	stimuli_target_circletriangles.svg	13	yes	57	0	111
6.6.1	win	2022-12-15	16:14:27	16:23:56	567383	60ff8160e8f2227f8b200510	86300028	1	main_slash	11	main_slash	133	stimuli_target_trianglecircles.svg	stimuli_distractor_trianglediamonds.svg	17	yes	53	1	433
6.6.1	win	2022-12-15	16:14:27	16:23:56	567383	60ff8160e8f2227f8b200510	86300028	1	main_slash	11	advance_on_keypress_SLASH	134	stimuli_target_trianglecircles.svg	stimuli_distractor_trianglediamonds.svg	17	yes	57	0	138
6.6.1	win	2022-12-15	16:14:27	16:23:57	568513	60ff8160e8f2227f8b200510	86300028	1	main_slash	11	main_slash	135	stimuli_target_circletriangles.svg	stimuli_distractor_trianglediamonds.svg	1	yes	53	1	346
6.6.1	win	2022-12-15	16:14:27	16:23:57	568513	60ff8160e8f2227f8b200510	86300028	1	main_slash	11	advance_on_keypress_SLASH	136	stimuli_target_circletriangles.svg	stimuli_distractor_trianglediamonds.svg	1	yes	57	0	173
6.6.1	win	2022-12-15	16:14:27	16:23:59	569794	60ff8160e8f2227f8b200510	86300028	1	main_slash	11	main_slash	137	stimuli_distractor_trianglediamonds.svg	stimuli_target_trianglesquares.svg	26	yes	53	1	462
6.6.1	win	2022-12-15	16:14:27	16:23:59	569794	60ff8160e8f2227f8b200510	86300028	1	main_slash	11	advance_on_keypress_SLASH	138	stimuli_distractor_trianglediamonds.svg	stimuli_target_trianglesquares.svg	26	yes	57	0	217
6.6.1	win	2022-12-15	16:14:27	16:24:00	571018	60ff8160e8f2227f8b200510	86300028	1	main_slash	11	main_slash	139	stimuli_distractor_diamondtriangles.svg	stimuli_target_circlediamonds.svg	14	yes	53	1	354
6.6.1	win	2022-12-15	16:14:27	16:24:00	571018	60ff8160e8f2227f8b200510	86300028	1	main_slash	11	advance_on_keypress_SLASH	140	stimuli_distractor_diamondtriangles.svg	stimuli_target_circlediamonds.svg	14	yes	57	0	210
6.6.1	win	2022-12-15	16:14:27	16:24:01	572451	60ff8160e8f2227f8b200510	86300028	1	main_slash	11	main_slash	141	stimuli_target_trianglesquares.svg	stimuli_distractor_trianglediamonds.svg	18	yes	53	1	589
6.6.1	win	2022-12-15	16:14:27	16:24:01	572451	60ff8160e8f2227f8b200510	86300028	1	main_slash	11	advance_on_keypress_SLASH	142	stimuli_target_trianglesquares.svg	stimuli_distractor_trianglediamonds.svg	18	yes	57	0	182
6.6.1	win	2022-12-15	16:14:27	16:24:02	573690	60ff8160e8f2227f8b200510	86300028	1	main_slash	11	main_slash	143	stimuli_target_squaretriangles.svg	stimuli_distractor_diamondtriangles.svg	7	yes	53	1	414
6.6.1	win	2022-12-15	16:14:27	16:24:02	573690	60ff8160e8f2227f8b200510	86300028	1	main_slash	11	advance_on_keypress_SLASH	144	stimuli_target_squaretriangles.svg	stimuli_distractor_diamondtriangles.svg	7	yes	57	0	207
6.6.1	win	2022-12-15	16:14:27	16:24:04	575017	60ff8160e8f2227f8b200510	86300028	1	main_slash	11	main_slash	145	stimuli_distractor_diamondtriangles.svg	stimuli_target_squarediamonds.svg	16	yes	53	1	473
6.6.1	win	2022-12-15	16:14:27	16:24:04	575017	60ff8160e8f2227f8b200510	86300028	1	main_slash	11	advance_on_keypress_SLASH	146	stimuli_distractor_diamondtriangles.svg	stimuli_target_squarediamonds.svg	16	yes	57	0	143
6.6.1	win	2022-12-15	16:14:27	16:24:05	576281	60ff8160e8f2227f8b200510	86300028	1	main_slash	11	main_slash	147	stimuli_target_circlediamonds.svg	stimuli_distractor_diamondtriangles.svg	6	yes	53	1	490
6.6.1	win	2022-12-15	16:14:27	16:24:05	576281	60ff8160e8f2227f8b200510	86300028	1	main_slash	11	advance_on_keypress_SLASH	148	stimuli_target_circlediamonds.svg	stimuli_distractor_diamondtriangles.svg	6	yes	57	0	191
6.6.1	win	2022-12-15	16:14:27	16:24:06	577477	60ff8160e8f2227f8b200510	86300028	1	main_slash	11	main_slash	149	stimuli_distractor_trianglediamonds.svg	stimuli_target_circletriangles.svg	9	yes	53	1	369
6.6.1	win	2022-12-15	16:14:27	16:24:06	577477	60ff8160e8f2227f8b200510	86300028	1	main_slash	11	advance_on_keypress_SLASH	150	stimuli_distractor_trianglediamonds.svg	stimuli_target_circletriangles.svg	9	yes	57	0	179
6.6.1	win	2022-12-15	16:14:27	16:24:07	578655	60ff8160e8f2227f8b200510	86300028	1	main_slash	11	main_slash	151	stimuli_target_circlediamonds.svg	stimuli_distractor_trianglediamonds.svg	2	yes	53	1	348
6.6.1	win	2022-12-15	16:14:27	16:24:07	578655	60ff8160e8f2227f8b200510	86300028	1	main_slash	11	advance_on_keypress_SLASH	152	stimuli_target_circlediamonds.svg	stimuli_distractor_trianglediamonds.svg	2	yes	57	0	189
6.6.1	win	2022-12-15	16:14:27	16:24:09	579885	60ff8160e8f2227f8b200510	86300028	1	main_slash	11	main_slash	153	stimuli_target_circletriangles.svg	stimuli_distractor_diamondtriangles.svg	5	yes	53	1	397
6.6.1	win	2022-12-15	16:14:27	16:24:09	579885	60ff8160e8f2227f8b200510	86300028	1	main_slash	11	advance_on_keypress_SLASH	154	stimuli_target_circletriangles.svg	stimuli_distractor_diamondtriangles.svg	5	yes	57	0	191
6.6.1	win	2022-12-15	16:14:27	16:24:10	581055	60ff8160e8f2227f8b200510	86300028	1	main_slash	11	main_slash	155	stimuli_target_trianglecircles.svg	stimuli_distractor_diamondtriangles.svg	21	yes	53	1	334
6.6.1	win	2022-12-15	16:14:27	16:24:10	581055	60ff8160e8f2227f8b200510	86300028	1	main_slash	11	advance_on_keypress_SLASH	156	stimuli_target_trianglecircles.svg	stimuli_distractor_diamondtriangles.svg	21	yes	57	0	316
6.6.1	win	2022-12-15	16:14:27	16:24:13	584018	60ff8160e8f2227f8b200510	86300028	1	main_slash	11	main_slash	157	stimuli_distractor_trianglediamonds.svg	stimuli_distractor_trianglediamonds.svg	34	no	0	1	2000
6.6.1	win	2022-12-15	16:14:27	16:24:13	584018	60ff8160e8f2227f8b200510	86300028	1	main_slash	11	advance_on_keypress_SLASH	158	stimuli_distractor_trianglediamonds.svg	stimuli_distractor_trianglediamonds.svg	34	no	57	0	478
6.6.1	win	2022-12-15	16:14:27	16:24:14	585673	60ff8160e8f2227f8b200510	86300028	1	main_slash	11	main_slash	159	stimuli_distractor_trianglediamonds.svg	stimuli_target_diamondcircles.svg	27	yes	53	1	525
6.6.1	win	2022-12-15	16:14:27	16:24:14	585673	60ff8160e8f2227f8b200510	86300028	1	main_slash	11	advance_on_keypress_SLASH	160	stimuli_distractor_trianglediamonds.svg	stimuli_target_diamondcircles.svg	27	yes	57	0	219