build	computer.platform	date	time	timestamp	time_elapsed_ms	subject	group	session	blockcode	blocknum	trialcode	trialnum	stimulus_left	stimulus_right	stim_index	target_present	response	correct	latency
6.6.1	ios	2022-12-19	14:51:28	14:55:14	217378	5f130f09fb14da018aa6bd19	715488197	1	practice_slash	5	practice_slash	1	stimuli_distractor_trianglediamonds.svg	stimuli_target_circlediamonds.svg	10	yes	0	0	2000
6.6.1	ios	2022-12-19	14:51:28	14:55:14	217378	5f130f09fb14da018aa6bd19	715488197	1	practice_slash	5	advance_on_keypress_SLASH	2	stimuli_distractor_trianglediamonds.svg	stimuli_target_circlediamonds.svg	10	yes	57	0	1023
6.6.1	ios	2022-12-19	14:51:28	14:55:18	220929	5f130f09fb14da018aa6bd19	715488197	1	practice_slash	5	practice_slash	3	stimuli_target_circlediamonds.svg	stimuli_distractor_diamondtriangles.svg	1	yes	53	1	814
6.6.1	ios	2022-12-19	14:51:28	14:55:18	220929	5f130f09fb14da018aa6bd19	715488197	1	practice_slash	5	advance_on_keypress_SLASH	4	stimuli_target_circlediamonds.svg	stimuli_distractor_diamondtriangles.svg	1	yes	57	0	1182
6.6.1	ios	2022-12-19	14:51:28	14:55:21	224557	5f130f09fb14da018aa6bd19	715488197	1	practice_slash	5	practice_slash	5	stimuli_target_squarediamonds.svg	stimuli_distractor_diamondtriangles.svg	2	yes	53	1	756
6.6.1	ios	2022-12-19	14:51:28	14:55:21	224557	5f130f09fb14da018aa6bd19	715488197	1	practice_slash	5	advance_on_keypress_SLASH	6	stimuli_target_squarediamonds.svg	stimuli_distractor_diamondtriangles.svg	2	yes	57	0	2143
6.6.1	ios	2022-12-19	14:51:28	14:55:27	230410	5f130f09fb14da018aa6bd19	715488197	1	practice_slash	5	practice_slash	7	stimuli_distractor_trianglediamonds.svg	stimuli_distractor_trianglediamonds.svg	15	no	0	1	2000
6.6.1	ios	2022-12-19	14:51:28	14:55:27	230410	5f130f09fb14da018aa6bd19	715488197	1	practice_slash	5	advance_on_keypress_SLASH	8	stimuli_distractor_trianglediamonds.svg	stimuli_distractor_trianglediamonds.svg	15	no	57	0	664
6.6.1	ios	2022-12-19	14:51:28	14:55:30	233477	5f130f09fb14da018aa6bd19	715488197	1	practice_slash	5	practice_slash	9	stimuli_distractor_diamondtriangles.svg	stimuli_target_circletriangles.svg	7	yes	53	1	697
6.6.1	ios	2022-12-19	14:51:28	14:55:30	233477	5f130f09fb14da018aa6bd19	715488197	1	practice_slash	5	advance_on_keypress_SLASH	10	stimuli_distractor_diamondtriangles.svg	stimuli_target_circletriangles.svg	7	yes	57	0	556
6.6.1	ios	2022-12-19	14:51:28	14:55:35	237736	5f130f09fb14da018aa6bd19	715488197	1	practice_slash	5	practice_slash	11	stimuli_target_squarediamonds.svg	stimuli_distractor_trianglediamonds.svg	5	yes	0	0	2000
6.6.1	ios	2022-12-19	14:51:28	14:55:35	237736	5f130f09fb14da018aa6bd19	715488197	1	practice_slash	5	advance_on_keypress_SLASH	12	stimuli_target_squarediamonds.svg	stimuli_distractor_trianglediamonds.svg	5	yes	57	0	523
6.6.1	ios	2022-12-19	14:51:28	14:55:38	241293	5f130f09fb14da018aa6bd19	715488197	1	practice_slash	5	practice_slash	13	stimuli_distractor_trianglediamonds.svg	stimuli_target_diamondcircles.svg	12	yes	53	1	1339
6.6.1	ios	2022-12-19	14:51:28	14:55:38	241293	5f130f09fb14da018aa6bd19	715488197	1	practice_slash	5	advance_on_keypress_SLASH	14	stimuli_distractor_trianglediamonds.svg	stimuli_target_diamondcircles.svg	12	yes	57	0	557
6.6.1	ios	2022-12-19	14:51:28	14:55:42	245544	5f130f09fb14da018aa6bd19	715488197	1	practice_slash	5	practice_slash	15	stimuli_distractor_trianglediamonds.svg	stimuli_distractor_diamondtriangles.svg	16	no	0	1	2000
6.6.1	ios	2022-12-19	14:51:28	14:55:42	245544	5f130f09fb14da018aa6bd19	715488197	1	practice_slash	5	advance_on_keypress_SLASH	16	stimuli_distractor_trianglediamonds.svg	stimuli_distractor_diamondtriangles.svg	16	no	57	0	498
6.6.1	ios	2022-12-19	14:51:28	14:55:47	249749	5f130f09fb14da018aa6bd19	715488197	1	practice_slash	5	practice_slash	17	stimuli_target_diamondsquares.svg	stimuli_distractor_diamondtriangles.svg	3	yes	0	0	2000
6.6.1	ios	2022-12-19	14:51:28	14:55:47	249749	5f130f09fb14da018aa6bd19	715488197	1	practice_slash	5	advance_on_keypress_SLASH	18	stimuli_target_diamondsquares.svg	stimuli_distractor_diamondtriangles.svg	3	yes	57	0	348
6.6.1	ios	2022-12-19	14:51:28	14:55:50	253000	5f130f09fb14da018aa6bd19	715488197	1	practice_slash	5	practice_slash	19	stimuli_distractor_trianglediamonds.svg	stimuli_target_squarediamonds.svg	11	yes	53	1	1199
6.6.1	ios	2022-12-19	14:51:28	14:55:50	253000	5f130f09fb14da018aa6bd19	715488197	1	practice_slash	5	advance_on_keypress_SLASH	20	stimuli_distractor_trianglediamonds.svg	stimuli_target_squarediamonds.svg	11	yes	57	0	590
6.6.1	ios	2022-12-19	14:51:28	14:55:53	256219	5f130f09fb14da018aa6bd19	715488197	1	practice_slash	5	practice_slash	21	stimuli_distractor_diamondtriangles.svg	stimuli_target_diamondcircles.svg	8	yes	53	1	931
6.6.1	ios	2022-12-19	14:51:28	14:55:53	256219	5f130f09fb14da018aa6bd19	715488197	1	practice_slash	5	advance_on_keypress_SLASH	22	stimuli_distractor_diamondtriangles.svg	stimuli_target_diamondcircles.svg	8	yes	57	0	880
6.6.1	ios	2022-12-19	14:51:28	14:55:58	260796	5f130f09fb14da018aa6bd19	715488197	1	practice_slash	5	practice_slash	23	stimuli_distractor_diamondtriangles.svg	stimuli_distractor_diamondtriangles.svg	13	no	0	1	2000
6.6.1	ios	2022-12-19	14:51:28	14:55:58	260796	5f130f09fb14da018aa6bd19	715488197	1	practice_slash	5	advance_on_keypress_SLASH	24	stimuli_distractor_diamondtriangles.svg	stimuli_distractor_diamondtriangles.svg	13	no	57	0	2525
6.6.1	ios	2022-12-19	14:51:28	14:56:04	267021	5f130f09fb14da018aa6bd19	715488197	1	practice_slash	5	practice_slash	25	stimuli_target_diamondsquares.svg	stimuli_distractor_trianglediamonds.svg	6	yes	0	0	2000
6.6.1	ios	2022-12-19	14:51:28	14:56:04	267021	5f130f09fb14da018aa6bd19	715488197	1	practice_slash	5	advance_on_keypress_SLASH	26	stimuli_target_diamondsquares.svg	stimuli_distractor_trianglediamonds.svg	6	yes	57	0	539
6.6.1	ios	2022-12-19	14:51:28	14:56:07	270137	5f130f09fb14da018aa6bd19	715488197	1	practice_slash	5	practice_slash	27	stimuli_target_circlediamonds.svg	stimuli_distractor_trianglediamonds.svg	4	yes	53	1	848
6.6.1	ios	2022-12-19	14:51:28	14:56:07	270137	5f130f09fb14da018aa6bd19	715488197	1	practice_slash	5	advance_on_keypress_SLASH	28	stimuli_target_circlediamonds.svg	stimuli_distractor_trianglediamonds.svg	4	yes	57	0	463
6.6.1	ios	2022-12-19	14:51:28	14:56:10	272848	5f130f09fb14da018aa6bd19	715488197	1	practice_slash	5	practice_slash	29	stimuli_distractor_diamondtriangles.svg	stimuli_target_trianglecircles.svg	9	yes	53	1	555
6.6.1	ios	2022-12-19	14:51:28	14:56:10	272848	5f130f09fb14da018aa6bd19	715488197	1	practice_slash	5	advance_on_keypress_SLASH	30	stimuli_distractor_diamondtriangles.svg	stimuli_target_trianglecircles.svg	9	yes	57	0	398
6.6.1	ios	2022-12-19	14:51:28	14:56:14	276950	5f130f09fb14da018aa6bd19	715488197	1	practice_slash	5	practice_slash	31	stimuli_distractor_diamondtriangles.svg	stimuli_distractor_trianglediamonds.svg	14	no	0	1	2000
6.6.1	ios	2022-12-19	14:51:28	14:56:14	276950	5f130f09fb14da018aa6bd19	715488197	1	practice_slash	5	advance_on_keypress_SLASH	32	stimuli_distractor_diamondtriangles.svg	stimuli_distractor_trianglediamonds.svg	14	no	57	0	272
6.6.1	ios	2022-12-19	14:51:28	14:56:23	286163	5f130f09fb14da018aa6bd19	715488197	1	main_slash	7	main_slash	1	stimuli_distractor_diamondtriangles.svg	stimuli_distractor_trianglediamonds.svg	38	no	0	1	2000
6.6.1	ios	2022-12-19	14:51:28	14:56:23	286163	5f130f09fb14da018aa6bd19	715488197	1	main_slash	7	advance_on_keypress_SLASH	2	stimuli_distractor_diamondtriangles.svg	stimuli_distractor_trianglediamonds.svg	38	no	57	0	540
6.6.1	ios	2022-12-19	14:51:28	14:56:25	287792	5f130f09fb14da018aa6bd19	715488197	1	main_slash	7	main_slash	3	stimuli_target_trianglecircles.svg	stimuli_distractor_diamondtriangles.svg	21	yes	53	1	413
6.6.1	ios	2022-12-19	14:51:28	14:56:25	287792	5f130f09fb14da018aa6bd19	715488197	1	main_slash	7	advance_on_keypress_SLASH	4	stimuli_target_trianglecircles.svg	stimuli_distractor_diamondtriangles.svg	21	yes	57	0	1073
6.6.1	ios	2022-12-19	14:51:28	14:56:27	290572	5f130f09fb14da018aa6bd19	715488197	1	main_slash	7	main_slash	5	stimuli_distractor_trianglediamonds.svg	stimuli_target_trianglesquares.svg	26	yes	53	1	1007
6.6.1	ios	2022-12-19	14:51:28	14:56:27	290572	5f130f09fb14da018aa6bd19	715488197	1	main_slash	7	advance_on_keypress_SLASH	6	stimuli_distractor_trianglediamonds.svg	stimuli_target_trianglesquares.svg	26	yes	57	0	1024
6.6.1	ios	2022-12-19	14:51:28	14:56:30	293133	5f130f09fb14da018aa6bd19	715488197	1	main_slash	7	main_slash	7	stimuli_distractor_trianglediamonds.svg	stimuli_target_squaretriangles.svg	11	yes	53	1	831
6.6.1	ios	2022-12-19	14:51:28	14:56:30	293133	5f130f09fb14da018aa6bd19	715488197	1	main_slash	7	advance_on_keypress_SLASH	8	stimuli_distractor_trianglediamonds.svg	stimuli_target_squaretriangles.svg	11	yes	57	0	1975
6.6.1	ios	2022-12-19	14:51:28	14:56:33	296245	5f130f09fb14da018aa6bd19	715488197	1	main_slash	7	main_slash	9	stimuli_target_circlediamonds.svg	stimuli_distractor_trianglediamonds.svg	2	yes	53	1	405
6.6.1	ios	2022-12-19	14:51:28	14:56:33	296245	5f130f09fb14da018aa6bd19	715488197	1	main_slash	7	advance_on_keypress_SLASH	10	stimuli_target_circlediamonds.svg	stimuli_distractor_trianglediamonds.svg	2	yes	57	0	773
6.6.1	ios	2022-12-19	14:51:28	14:56:37	299746	5f130f09fb14da018aa6bd19	715488197	1	main_slash	7	main_slash	11	stimuli_distractor_diamondtriangles.svg	stimuli_distractor_trianglediamonds.svg	37	no	0	1	2000
6.6.1	ios	2022-12-19	14:51:28	14:56:37	299746	5f130f09fb14da018aa6bd19	715488197	1	main_slash	7	advance_on_keypress_SLASH	12	stimuli_distractor_diamondtriangles.svg	stimuli_distractor_trianglediamonds.svg	37	no	57	0	623
6.6.1	ios	2022-12-19	14:51:28	14:56:39	301811	5f130f09fb14da018aa6bd19	715488197	1	main_slash	7	main_slash	13	stimuli_distractor_diamondtriangles.svg	stimuli_target_trianglecircles.svg	29	yes	53	1	764
6.6.1	ios	2022-12-19	14:51:28	14:56:39	301811	5f130f09fb14da018aa6bd19	715488197	1	main_slash	7	advance_on_keypress_SLASH	14	stimuli_distractor_diamondtriangles.svg	stimuli_target_trianglecircles.svg	29	yes	57	0	864
6.6.1	ios	2022-12-19	14:51:28	14:56:41	303914	5f130f09fb14da018aa6bd19	715488197	1	main_slash	7	main_slash	15	stimuli_distractor_trianglediamonds.svg	stimuli_target_squarediamonds.svg	12	yes	53	1	514
6.6.1	ios	2022-12-19	14:51:28	14:56:41	303914	5f130f09fb14da018aa6bd19	715488197	1	main_slash	7	advance_on_keypress_SLASH	16	stimuli_distractor_trianglediamonds.svg	stimuli_target_squarediamonds.svg	12	yes	57	0	562
6.6.1	ios	2022-12-19	14:51:28	14:56:43	305640	5f130f09fb14da018aa6bd19	715488197	1	main_slash	7	main_slash	17	stimuli_distractor_diamondtriangles.svg	stimuli_target_squaretriangles.svg	15	yes	53	1	438
6.6.1	ios	2022-12-19	14:51:28	14:56:43	305640	5f130f09fb14da018aa6bd19	715488197	1	main_slash	7	advance_on_keypress_SLASH	18	stimuli_distractor_diamondtriangles.svg	stimuli_target_squaretriangles.svg	15	yes	57	0	656
6.6.1	ios	2022-12-19	14:51:28	14:56:45	307751	5f130f09fb14da018aa6bd19	715488197	1	main_slash	7	main_slash	19	stimuli_distractor_trianglediamonds.svg	stimuli_target_circlediamonds.svg	10	yes	53	1	731
6.6.1	ios	2022-12-19	14:51:28	14:56:45	307751	5f130f09fb14da018aa6bd19	715488197	1	main_slash	7	advance_on_keypress_SLASH	20	stimuli_distractor_trianglediamonds.svg	stimuli_target_circlediamonds.svg	10	yes	57	0	614
6.6.1	ios	2022-12-19	14:51:28	14:56:48	311092	5f130f09fb14da018aa6bd19	715488197	1	main_slash	7	main_slash	21	stimuli_distractor_trianglediamonds.svg	stimuli_distractor_diamondtriangles.svg	35	no	0	1	2000
6.6.1	ios	2022-12-19	14:51:28	14:56:48	311092	5f130f09fb14da018aa6bd19	715488197	1	main_slash	7	advance_on_keypress_SLASH	22	stimuli_distractor_trianglediamonds.svg	stimuli_distractor_diamondtriangles.svg	35	no	57	0	498
6.6.1	ios	2022-12-19	14:51:28	14:56:50	312983	5f130f09fb14da018aa6bd19	715488197	1	main_slash	7	main_slash	23	stimuli_distractor_diamondtriangles.svg	stimuli_target_diamondcircles.svg	31	yes	53	1	706
6.6.1	ios	2022-12-19	14:51:28	14:56:50	312983	5f130f09fb14da018aa6bd19	715488197	1	main_slash	7	advance_on_keypress_SLASH	24	stimuli_distractor_diamondtriangles.svg	stimuli_target_diamondcircles.svg	31	yes	57	0	731
6.6.1	ios	2022-12-19	14:51:28	14:56:53	315887	5f130f09fb14da018aa6bd19	715488197	1	main_slash	7	main_slash	25	stimuli_distractor_diamondtriangles.svg	stimuli_target_trianglesquares.svg	30	yes	53	1	1440
6.6.1	ios	2022-12-19	14:51:28	14:56:53	315887	5f130f09fb14da018aa6bd19	715488197	1	main_slash	7	advance_on_keypress_SLASH	26	stimuli_distractor_diamondtriangles.svg	stimuli_target_trianglesquares.svg	30	yes	57	0	990
6.6.1	ios	2022-12-19	14:51:28	14:56:57	319604	5f130f09fb14da018aa6bd19	715488197	1	main_slash	7	main_slash	27	stimuli_distractor_trianglediamonds.svg	stimuli_distractor_trianglediamonds.svg	33	no	0	1	2000
6.6.1	ios	2022-12-19	14:51:28	14:56:57	319604	5f130f09fb14da018aa6bd19	715488197	1	main_slash	7	advance_on_keypress_SLASH	28	stimuli_distractor_trianglediamonds.svg	stimuli_distractor_trianglediamonds.svg	33	no	57	0	439
6.6.1	ios	2022-12-19	14:51:28	14:57:00	322740	5f130f09fb14da018aa6bd19	715488197	1	main_slash	7	main_slash	29	stimuli_target_trianglesquares.svg	stimuli_distractor_trianglediamonds.svg	18	yes	0	0	2000
6.6.1	ios	2022-12-19	14:51:28	14:57:00	322740	5f130f09fb14da018aa6bd19	715488197	1	main_slash	7	advance_on_keypress_SLASH	30	stimuli_target_trianglesquares.svg	stimuli_distractor_trianglediamonds.svg	18	yes	57	0	615
6.6.1	ios	2022-12-19	14:51:28	14:57:02	325065	5f130f09fb14da018aa6bd19	715488197	1	main_slash	7	main_slash	31	stimuli_target_squaretriangles.svg	stimuli_distractor_trianglediamonds.svg	3	yes	53	1	1023
6.6.1	ios	2022-12-19	14:51:28	14:57:02	325065	5f130f09fb14da018aa6bd19	715488197	1	main_slash	7	advance_on_keypress_SLASH	32	stimuli_target_squaretriangles.svg	stimuli_distractor_trianglediamonds.svg	3	yes	57	0	831
6.6.1	ios	2022-12-19	14:51:28	14:57:06	328631	5f130f09fb14da018aa6bd19	715488197	1	main_slash	7	main_slash	33	stimuli_target_diamondsquares.svg	stimuli_distractor_trianglediamonds.svg	20	yes	0	0	2000
6.6.1	ios	2022-12-19	14:51:28	14:57:06	328631	5f130f09fb14da018aa6bd19	715488197	1	main_slash	7	advance_on_keypress_SLASH	34	stimuli_target_diamondsquares.svg	stimuli_distractor_trianglediamonds.svg	20	yes	57	0	314
6.6.1	ios	2022-12-19	14:51:28	14:57:08	330647	5f130f09fb14da018aa6bd19	715488197	1	main_slash	7	main_slash	35	stimuli_target_squaretriangles.svg	stimuli_distractor_diamondtriangles.svg	7	yes	53	1	998
6.6.1	ios	2022-12-19	14:51:28	14:57:08	330647	5f130f09fb14da018aa6bd19	715488197	1	main_slash	7	advance_on_keypress_SLASH	36	stimuli_target_squaretriangles.svg	stimuli_distractor_diamondtriangles.svg	7	yes	57	0	1115
6.6.1	ios	2022-12-19	14:51:28	14:57:10	333190	5f130f09fb14da018aa6bd19	715488197	1	main_slash	7	main_slash	37	stimuli_target_circletriangles.svg	stimuli_distractor_trianglediamonds.svg	1	yes	53	1	689
6.6.1	ios	2022-12-19	14:51:28	14:57:10	333190	5f130f09fb14da018aa6bd19	715488197	1	main_slash	7	advance_on_keypress_SLASH	38	stimuli_target_circletriangles.svg	stimuli_distractor_trianglediamonds.svg	1	yes	57	0	572
6.6.1	ios	2022-12-19	14:51:28	14:57:12	334992	5f130f09fb14da018aa6bd19	715488197	1	main_slash	7	main_slash	39	stimuli_distractor_trianglediamonds.svg	stimuli_target_diamondcircles.svg	27	yes	53	1	521
6.6.1	ios	2022-12-19	14:51:28	14:57:12	334992	5f130f09fb14da018aa6bd19	715488197	1	main_slash	7	advance_on_keypress_SLASH	40	stimuli_distractor_trianglediamonds.svg	stimuli_target_diamondcircles.svg	27	yes	57	0	880
6.6.1	ios	2022-12-19	14:51:28	14:57:14	337161	5f130f09fb14da018aa6bd19	715488197	1	main_slash	7	main_slash	41	stimuli_distractor_diamondtriangles.svg	stimuli_target_circlediamonds.svg	14	yes	53	1	555
6.6.1	ios	2022-12-19	14:51:28	14:57:14	337161	5f130f09fb14da018aa6bd19	715488197	1	main_slash	7	advance_on_keypress_SLASH	42	stimuli_distractor_diamondtriangles.svg	stimuli_target_circlediamonds.svg	14	yes	57	0	597
6.6.1	ios	2022-12-19	14:51:28	14:57:16	338921	5f130f09fb14da018aa6bd19	715488197	1	main_slash	7	main_slash	43	stimuli_distractor_trianglediamonds.svg	stimuli_target_trianglecircles.svg	25	yes	53	1	430
6.6.1	ios	2022-12-19	14:51:28	14:57:16	338921	5f130f09fb14da018aa6bd19	715488197	1	main_slash	7	advance_on_keypress_SLASH	44	stimuli_distractor_trianglediamonds.svg	stimuli_target_trianglecircles.svg	25	yes	57	0	445
6.6.1	ios	2022-12-19	14:51:28	14:57:19	342080	5f130f09fb14da018aa6bd19	715488197	1	main_slash	7	main_slash	45	stimuli_distractor_diamondtriangles.svg	stimuli_distractor_diamondtriangles.svg	40	no	0	1	2000
6.6.1	ios	2022-12-19	14:51:28	14:57:19	342080	5f130f09fb14da018aa6bd19	715488197	1	main_slash	7	advance_on_keypress_SLASH	46	stimuli_distractor_diamondtriangles.svg	stimuli_distractor_diamondtriangles.svg	40	no	57	0	506
6.6.1	ios	2022-12-19	14:51:28	14:57:21	344071	5f130f09fb14da018aa6bd19	715488197	1	main_slash	7	main_slash	47	stimuli_target_diamondcircles.svg	stimuli_distractor_trianglediamonds.svg	19	yes	53	1	806
6.6.1	ios	2022-12-19	14:51:28	14:57:21	344071	5f130f09fb14da018aa6bd19	715488197	1	main_slash	7	advance_on_keypress_SLASH	48	stimuli_target_diamondcircles.svg	stimuli_distractor_trianglediamonds.svg	19	yes	57	0	397
6.6.1	ios	2022-12-19	14:51:28	14:57:23	346081	5f130f09fb14da018aa6bd19	715488197	1	main_slash	7	main_slash	49	stimuli_distractor_diamondtriangles.svg	stimuli_target_diamondsquares.svg	32	yes	53	1	881
6.6.1	ios	2022-12-19	14:51:28	14:57:23	346081	5f130f09fb14da018aa6bd19	715488197	1	main_slash	7	advance_on_keypress_SLASH	50	stimuli_distractor_diamondtriangles.svg	stimuli_target_diamondsquares.svg	32	yes	57	0	406
6.6.1	ios	2022-12-19	14:51:28	14:57:25	348292	5f130f09fb14da018aa6bd19	715488197	1	main_slash	7	main_slash	51	stimuli_target_diamondsquares.svg	stimuli_distractor_diamondtriangles.svg	24	yes	53	1	1089
6.6.1	ios	2022-12-19	14:51:28	14:57:25	348292	5f130f09fb14da018aa6bd19	715488197	1	main_slash	7	advance_on_keypress_SLASH	52	stimuli_target_diamondsquares.svg	stimuli_distractor_diamondtriangles.svg	24	yes	57	0	431
6.6.1	ios	2022-12-19	14:51:28	14:57:27	350345	5f130f09fb14da018aa6bd19	715488197	1	main_slash	7	main_slash	53	stimuli_target_circletriangles.svg	stimuli_distractor_diamondtriangles.svg	5	yes	53	1	907
6.6.1	ios	2022-12-19	14:51:28	14:57:27	350345	5f130f09fb14da018aa6bd19	715488197	1	main_slash	7	advance_on_keypress_SLASH	54	stimuli_target_circletriangles.svg	stimuli_distractor_diamondtriangles.svg	5	yes	57	0	414
6.6.1	ios	2022-12-19	14:51:28	14:57:30	353478	5f130f09fb14da018aa6bd19	715488197	1	main_slash	7	main_slash	55	stimuli_distractor_trianglediamonds.svg	stimuli_distractor_diamondtriangles.svg	36	no	0	1	2000
6.6.1	ios	2022-12-19	14:51:28	14:57:30	353478	5f130f09fb14da018aa6bd19	715488197	1	main_slash	7	advance_on_keypress_SLASH	56	stimuli_distractor_trianglediamonds.svg	stimuli_distractor_diamondtriangles.svg	36	no	57	0	856
6.6.1	ios	2022-12-19	14:51:28	14:57:34	357015	5f130f09fb14da018aa6bd19	715488197	1	main_slash	7	main_slash	57	stimuli_distractor_diamondtriangles.svg	stimuli_distractor_diamondtriangles.svg	39	no	0	1	2000
6.6.1	ios	2022-12-19	14:51:28	14:57:34	357015	5f130f09fb14da018aa6bd19	715488197	1	main_slash	7	advance_on_keypress_SLASH	58	stimuli_distractor_diamondtriangles.svg	stimuli_distractor_diamondtriangles.svg	39	no	57	0	406
6.6.1	ios	2022-12-19	14:51:28	14:57:36	358764	5f130f09fb14da018aa6bd19	715488197	1	main_slash	7	main_slash	59	stimuli_target_diamondcircles.svg	stimuli_distractor_diamondtriangles.svg	23	yes	53	1	664
6.6.1	ios	2022-12-19	14:51:28	14:57:36	358764	5f130f09fb14da018aa6bd19	715488197	1	main_slash	7	advance_on_keypress_SLASH	60	stimuli_target_diamondcircles.svg	stimuli_distractor_diamondtriangles.svg	23	yes	57	0	630
6.6.1	ios	2022-12-19	14:51:28	14:57:38	361376	5f130f09fb14da018aa6bd19	715488197	1	main_slash	7	main_slash	61	stimuli_target_trianglesquares.svg	stimuli_distractor_diamondtriangles.svg	22	yes	53	1	1256
6.6.1	ios	2022-12-19	14:51:28	14:57:38	361376	5f130f09fb14da018aa6bd19	715488197	1	main_slash	7	advance_on_keypress_SLASH	62	stimuli_target_trianglesquares.svg	stimuli_distractor_diamondtriangles.svg	22	yes	57	0	380
6.6.1	ios	2022-12-19	14:51:28	14:57:41	363778	5f130f09fb14da018aa6bd19	715488197	1	main_slash	7	main_slash	63	stimuli_target_squarediamonds.svg	stimuli_distractor_trianglediamonds.svg	4	yes	53	1	1307
6.6.1	ios	2022-12-19	14:51:28	14:57:41	363778	5f130f09fb14da018aa6bd19	715488197	1	main_slash	7	advance_on_keypress_SLASH	64	stimuli_target_squarediamonds.svg	stimuli_distractor_trianglediamonds.svg	4	yes	57	0	372
6.6.1	ios	2022-12-19	14:51:28	14:57:44	366860	5f130f09fb14da018aa6bd19	715488197	1	main_slash	7	main_slash	65	stimuli_distractor_trianglediamonds.svg	stimuli_distractor_trianglediamonds.svg	34	no	0	1	2000
6.6.1	ios	2022-12-19	14:51:28	14:57:44	366860	5f130f09fb14da018aa6bd19	715488197	1	main_slash	7	advance_on_keypress_SLASH	66	stimuli_distractor_trianglediamonds.svg	stimuli_distractor_trianglediamonds.svg	34	no	57	0	798
6.6.1	ios	2022-12-19	14:51:28	14:57:46	369370	5f130f09fb14da018aa6bd19	715488197	1	main_slash	7	main_slash	67	stimuli_distractor_diamondtriangles.svg	stimuli_target_squarediamonds.svg	16	yes	53	1	1023
6.6.1	ios	2022-12-19	14:51:28	14:57:46	369370	5f130f09fb14da018aa6bd19	715488197	1	main_slash	7	advance_on_keypress_SLASH	68	stimuli_distractor_diamondtriangles.svg	stimuli_target_squarediamonds.svg	16	yes	57	0	1041
6.6.1	ios	2022-12-19	14:51:28	14:57:49	371789	5f130f09fb14da018aa6bd19	715488197	1	main_slash	7	main_slash	69	stimuli_distractor_diamondtriangles.svg	stimuli_target_circletriangles.svg	13	yes	53	1	640
6.6.1	ios	2022-12-19	14:51:28	14:57:49	371789	5f130f09fb14da018aa6bd19	715488197	1	main_slash	7	advance_on_keypress_SLASH	70	stimuli_distractor_diamondtriangles.svg	stimuli_target_circletriangles.svg	13	yes	57	0	389
6.6.1	ios	2022-12-19	14:51:28	14:57:50	373465	5f130f09fb14da018aa6bd19	715488197	1	main_slash	7	main_slash	71	stimuli_distractor_trianglediamonds.svg	stimuli_target_circletriangles.svg	9	yes	53	1	596
6.6.1	ios	2022-12-19	14:51:28	14:57:50	373465	5f130f09fb14da018aa6bd19	715488197	1	main_slash	7	advance_on_keypress_SLASH	72	stimuli_distractor_trianglediamonds.svg	stimuli_target_circletriangles.svg	9	yes	57	0	347
6.6.1	ios	2022-12-19	14:51:28	14:57:52	375017	5f130f09fb14da018aa6bd19	715488197	1	main_slash	7	main_slash	73	stimuli_target_circlediamonds.svg	stimuli_distractor_diamondtriangles.svg	6	yes	53	1	480
6.6.1	ios	2022-12-19	14:51:28	14:57:52	375017	5f130f09fb14da018aa6bd19	715488197	1	main_slash	7	advance_on_keypress_SLASH	74	stimuli_target_circlediamonds.svg	stimuli_distractor_diamondtriangles.svg	6	yes	57	0	472
6.6.1	ios	2022-12-19	14:51:28	14:57:54	376686	5f130f09fb14da018aa6bd19	715488197	1	main_slash	7	main_slash	75	stimuli_distractor_trianglediamonds.svg	stimuli_target_diamondsquares.svg	28	yes	53	1	480
6.6.1	ios	2022-12-19	14:51:28	14:57:54	376686	5f130f09fb14da018aa6bd19	715488197	1	main_slash	7	advance_on_keypress_SLASH	76	stimuli_distractor_trianglediamonds.svg	stimuli_target_diamondsquares.svg	28	yes	57	0	279
6.6.1	ios	2022-12-19	14:51:28	14:57:55	378313	5f130f09fb14da018aa6bd19	715488197	1	main_slash	7	main_slash	77	stimuli_target_squarediamonds.svg	stimuli_distractor_diamondtriangles.svg	8	yes	53	1	639
6.6.1	ios	2022-12-19	14:51:28	14:57:55	378313	5f130f09fb14da018aa6bd19	715488197	1	main_slash	7	advance_on_keypress_SLASH	78	stimuli_target_squarediamonds.svg	stimuli_distractor_diamondtriangles.svg	8	yes	57	0	138
6.6.1	ios	2022-12-19	14:51:28	14:57:57	379657	5f130f09fb14da018aa6bd19	715488197	1	main_slash	7	main_slash	79	stimuli_target_trianglecircles.svg	stimuli_distractor_trianglediamonds.svg	17	yes	53	1	497
6.6.1	ios	2022-12-19	14:51:28	14:57:57	379657	5f130f09fb14da018aa6bd19	715488197	1	main_slash	7	advance_on_keypress_SLASH	80	stimuli_target_trianglecircles.svg	stimuli_distractor_trianglediamonds.svg	17	yes	57	0	146
6.6.1	ios	2022-12-19	14:51:28	14:57:58	381125	5f130f09fb14da018aa6bd19	715488197	1	main_slash	7	main_slash	81	stimuli_distractor_trianglediamonds.svg	stimuli_target_squaretriangles.svg	11	yes	53	1	563
6.6.1	ios	2022-12-19	14:51:28	14:57:58	381125	5f130f09fb14da018aa6bd19	715488197	1	main_slash	7	advance_on_keypress_SLASH	82	stimuli_distractor_trianglediamonds.svg	stimuli_target_squaretriangles.svg	11	yes	57	0	119
6.6.1	ios	2022-12-19	14:51:28	14:57:59	382409	5f130f09fb14da018aa6bd19	715488197	1	main_slash	7	main_slash	83	stimuli_target_squaretriangles.svg	stimuli_distractor_trianglediamonds.svg	3	yes	53	1	447
6.6.1	ios	2022-12-19	14:51:28	14:57:59	382409	5f130f09fb14da018aa6bd19	715488197	1	main_slash	7	advance_on_keypress_SLASH	84	stimuli_target_squaretriangles.svg	stimuli_distractor_trianglediamonds.svg	3	yes	57	0	122
6.6.1	ios	2022-12-19	14:51:28	14:58:01	383652	5f130f09fb14da018aa6bd19	715488197	1	main_slash	7	main_slash	85	stimuli_distractor_trianglediamonds.svg	stimuli_target_circletriangles.svg	9	yes	53	1	405
6.6.1	ios	2022-12-19	14:51:28	14:58:01	383652	5f130f09fb14da018aa6bd19	715488197	1	main_slash	7	advance_on_keypress_SLASH	86	stimuli_distractor_trianglediamonds.svg	stimuli_target_circletriangles.svg	9	yes	57	0	130
6.6.1	ios	2022-12-19	14:51:28	14:58:02	384954	5f130f09fb14da018aa6bd19	715488197	1	main_slash	7	main_slash	87	stimuli_distractor_diamondtriangles.svg	stimuli_target_circlediamonds.svg	14	yes	53	1	421
6.6.1	ios	2022-12-19	14:51:28	14:58:02	384954	5f130f09fb14da018aa6bd19	715488197	1	main_slash	7	advance_on_keypress_SLASH	88	stimuli_distractor_diamondtriangles.svg	stimuli_target_circlediamonds.svg	14	yes	57	0	122
6.6.1	ios	2022-12-19	14:51:28	14:58:03	386264	5f130f09fb14da018aa6bd19	715488197	1	main_slash	7	main_slash	89	stimuli_distractor_diamondtriangles.svg	stimuli_target_squaretriangles.svg	15	yes	53	1	446
6.6.1	ios	2022-12-19	14:51:28	14:58:03	386264	5f130f09fb14da018aa6bd19	715488197	1	main_slash	7	advance_on_keypress_SLASH	90	stimuli_distractor_diamondtriangles.svg	stimuli_target_squaretriangles.svg	15	yes	57	0	271
6.6.1	ios	2022-12-19	14:51:28	14:58:05	387782	5f130f09fb14da018aa6bd19	715488197	1	main_slash	7	main_slash	91	stimuli_distractor_trianglediamonds.svg	stimuli_target_diamondcircles.svg	27	yes	53	1	528
6.6.1	ios	2022-12-19	14:51:28	14:58:05	387782	5f130f09fb14da018aa6bd19	715488197	1	main_slash	7	advance_on_keypress_SLASH	92	stimuli_distractor_trianglediamonds.svg	stimuli_target_diamondcircles.svg	27	yes	57	0	231
6.6.1	ios	2022-12-19	14:51:28	14:58:06	389308	5f130f09fb14da018aa6bd19	715488197	1	main_slash	7	main_slash	93	stimuli_target_trianglesquares.svg	stimuli_distractor_diamondtriangles.svg	22	yes	53	1	554
6.6.1	ios	2022-12-19	14:51:28	14:58:06	389308	5f130f09fb14da018aa6bd19	715488197	1	main_slash	7	advance_on_keypress_SLASH	94	stimuli_target_trianglesquares.svg	stimuli_distractor_diamondtriangles.svg	22	yes	57	0	138
6.6.1	ios	2022-12-19	14:51:28	14:58:07	390543	5f130f09fb14da018aa6bd19	715488197	1	main_slash	7	main_slash	95	stimuli_distractor_trianglediamonds.svg	stimuli_distractor_diamondtriangles.svg	35	no	53	0	371
6.6.1	ios	2022-12-19	14:51:28	14:58:07	390543	5f130f09fb14da018aa6bd19	715488197	1	main_slash	7	advance_on_keypress_SLASH	96	stimuli_distractor_trianglediamonds.svg	stimuli_distractor_diamondtriangles.svg	35	no	57	0	672
6.6.1	ios	2022-12-19	14:51:28	14:58:10	392647	5f130f09fb14da018aa6bd19	715488197	1	main_slash	7	main_slash	97	stimuli_target_circlediamonds.svg	stimuli_distractor_diamondtriangles.svg	6	yes	53	1	723
6.6.1	ios	2022-12-19	14:51:28	14:58:10	392647	5f130f09fb14da018aa6bd19	715488197	1	main_slash	7	advance_on_keypress_SLASH	98	stimuli_target_circlediamonds.svg	stimuli_distractor_diamondtriangles.svg	6	yes	57	0	589
6.6.1	ios	2022-12-19	14:51:28	14:58:11	394467	5f130f09fb14da018aa6bd19	715488197	1	main_slash	7	main_slash	99	stimuli_distractor_diamondtriangles.svg	stimuli_target_squarediamonds.svg	16	yes	53	1	506
6.6.1	ios	2022-12-19	14:51:28	14:58:11	394467	5f130f09fb14da018aa6bd19	715488197	1	main_slash	7	advance_on_keypress_SLASH	100	stimuli_distractor_diamondtriangles.svg	stimuli_target_squarediamonds.svg	16	yes	57	0	263
6.6.1	ios	2022-12-19	14:51:28	14:58:13	396034	5f130f09fb14da018aa6bd19	715488197	1	main_slash	7	main_slash	101	stimuli_target_circletriangles.svg	stimuli_distractor_trianglediamonds.svg	1	yes	53	1	588
6.6.1	ios	2022-12-19	14:51:28	14:58:13	396034	5f130f09fb14da018aa6bd19	715488197	1	main_slash	7	advance_on_keypress_SLASH	102	stimuli_target_circletriangles.svg	stimuli_distractor_trianglediamonds.svg	1	yes	57	0	597
6.6.1	ios	2022-12-19	14:51:28	14:58:16	399368	5f130f09fb14da018aa6bd19	715488197	1	main_slash	7	main_slash	103	stimuli_distractor_trianglediamonds.svg	stimuli_target_trianglesquares.svg	26	yes	0	0	2000
6.6.1	ios	2022-12-19	14:51:28	14:58:16	399368	5f130f09fb14da018aa6bd19	715488197	1	main_slash	7	advance_on_keypress_SLASH	104	stimuli_distractor_trianglediamonds.svg	stimuli_target_trianglesquares.svg	26	yes	57	0	348
6.6.1	ios	2022-12-19	14:51:28	14:58:18	400781	5f130f09fb14da018aa6bd19	715488197	1	main_slash	7	main_slash	105	stimuli_distractor_diamondtriangles.svg	stimuli_target_trianglecircles.svg	29	yes	53	1	380
6.6.1	ios	2022-12-19	14:51:28	14:58:18	400781	5f130f09fb14da018aa6bd19	715488197	1	main_slash	7	advance_on_keypress_SLASH	106	stimuli_distractor_diamondtriangles.svg	stimuli_target_trianglecircles.svg	29	yes	57	0	396
6.6.1	ios	2022-12-19	14:51:28	14:58:21	403889	5f130f09fb14da018aa6bd19	715488197	1	main_slash	7	main_slash	107	stimuli_distractor_diamondtriangles.svg	stimuli_distractor_diamondtriangles.svg	39	no	0	1	2000
6.6.1	ios	2022-12-19	14:51:28	14:58:21	403889	5f130f09fb14da018aa6bd19	715488197	1	main_slash	7	advance_on_keypress_SLASH	108	stimuli_distractor_diamondtriangles.svg	stimuli_distractor_diamondtriangles.svg	39	no	57	0	781
6.6.1	ios	2022-12-19	14:51:28	14:58:24	407378	5f130f09fb14da018aa6bd19	715488197	1	main_slash	7	main_slash	109	stimuli_target_diamondsquares.svg	stimuli_distractor_trianglediamonds.svg	20	yes	0	0	2000
6.6.1	ios	2022-12-19	14:51:28	14:58:24	407378	5f130f09fb14da018aa6bd19	715488197	1	main_slash	7	advance_on_keypress_SLASH	110	stimuli_target_diamondsquares.svg	stimuli_distractor_trianglediamonds.svg	20	yes	57	0	541
6.6.1	ios	2022-12-19	14:51:28	14:58:28	410613	5f130f09fb14da018aa6bd19	715488197	1	main_slash	7	main_slash	111	stimuli_distractor_trianglediamonds.svg	stimuli_distractor_trianglediamonds.svg	33	no	0	1	2000
6.6.1	ios	2022-12-19	14:51:28	14:58:28	410613	5f130f09fb14da018aa6bd19	715488197	1	main_slash	7	advance_on_keypress_SLASH	112	stimuli_distractor_trianglediamonds.svg	stimuli_distractor_trianglediamonds.svg	33	no	57	0	1634
6.6.1	ios	2022-12-19	14:51:28	14:58:32	414986	5f130f09fb14da018aa6bd19	715488197	1	main_slash	7	main_slash	113	stimuli_distractor_trianglediamonds.svg	stimuli_distractor_trianglediamonds.svg	34	no	0	1	2000
6.6.1	ios	2022-12-19	14:51:28	14:58:32	414986	5f130f09fb14da018aa6bd19	715488197	1	main_slash	7	advance_on_keypress_SLASH	114	stimuli_distractor_trianglediamonds.svg	stimuli_distractor_trianglediamonds.svg	34	no	57	0	289
6.6.1	ios	2022-12-19	14:51:28	14:58:33	416451	5f130f09fb14da018aa6bd19	715488197	1	main_slash	7	main_slash	115	stimuli_target_squarediamonds.svg	stimuli_distractor_trianglediamonds.svg	4	yes	53	1	481
6.6.1	ios	2022-12-19	14:51:28	14:58:33	416451	5f130f09fb14da018aa6bd19	715488197	1	main_slash	7	advance_on_keypress_SLASH	116	stimuli_target_squarediamonds.svg	stimuli_distractor_trianglediamonds.svg	4	yes	57	0	339
6.6.1	ios	2022-12-19	14:51:28	14:58:36	419525	5f130f09fb14da018aa6bd19	715488197	1	main_slash	7	main_slash	117	stimuli_distractor_diamondtriangles.svg	stimuli_distractor_trianglediamonds.svg	38	no	0	1	2000
6.6.1	ios	2022-12-19	14:51:28	14:58:36	419525	5f130f09fb14da018aa6bd19	715488197	1	main_slash	7	advance_on_keypress_SLASH	118	stimuli_distractor_diamondtriangles.svg	stimuli_distractor_trianglediamonds.svg	38	no	57	0	265
6.6.1	ios	2022-12-19	14:51:28	14:58:38	420997	5f130f09fb14da018aa6bd19	715488197	1	main_slash	7	main_slash	119	stimuli_target_circlediamonds.svg	stimuli_distractor_trianglediamonds.svg	2	yes	53	1	521
6.6.1	ios	2022-12-19	14:51:28	14:58:38	420997	5f130f09fb14da018aa6bd19	715488197	1	main_slash	7	advance_on_keypress_SLASH	120	stimuli_target_circlediamonds.svg	stimuli_distractor_trianglediamonds.svg	2	yes	57	0	722
6.6.1	ios	2022-12-19	14:51:28	14:58:40	422908	5f130f09fb14da018aa6bd19	715488197	1	main_slash	7	main_slash	121	stimuli_distractor_trianglediamonds.svg	stimuli_target_circlediamonds.svg	10	yes	53	1	463
6.6.1	ios	2022-12-19	14:51:28	14:58:40	422908	5f130f09fb14da018aa6bd19	715488197	1	main_slash	7	advance_on_keypress_SLASH	122	stimuli_distractor_trianglediamonds.svg	stimuli_target_circlediamonds.svg	10	yes	57	0	547
6.6.1	ios	2022-12-19	14:51:28	14:58:42	424869	5f130f09fb14da018aa6bd19	715488197	1	main_slash	7	main_slash	123	stimuli_distractor_trianglediamonds.svg	stimuli_target_trianglecircles.svg	25	yes	53	1	689
6.6.1	ios	2022-12-19	14:51:28	14:58:42	424869	5f130f09fb14da018aa6bd19	715488197	1	main_slash	7	advance_on_keypress_SLASH	124	stimuli_distractor_trianglediamonds.svg	stimuli_target_trianglecircles.svg	25	yes	57	0	414
6.6.1	ios	2022-12-19	14:51:28	14:58:43	426504	5f130f09fb14da018aa6bd19	715488197	1	main_slash	7	main_slash	125	stimuli_distractor_diamondtriangles.svg	stimuli_target_diamondsquares.svg	32	yes	53	1	505
6.6.1	ios	2022-12-19	14:51:28	14:58:43	426504	5f130f09fb14da018aa6bd19	715488197	1	main_slash	7	advance_on_keypress_SLASH	126	stimuli_distractor_diamondtriangles.svg	stimuli_target_diamondsquares.svg	32	yes	57	0	172
6.6.1	ios	2022-12-19	14:51:28	14:58:45	427864	5f130f09fb14da018aa6bd19	715488197	1	main_slash	7	main_slash	127	stimuli_target_diamondcircles.svg	stimuli_distractor_trianglediamonds.svg	19	yes	53	1	447
6.6.1	ios	2022-12-19	14:51:28	14:58:45	427864	5f130f09fb14da018aa6bd19	715488197	1	main_slash	7	advance_on_keypress_SLASH	128	stimuli_target_diamondcircles.svg	stimuli_distractor_trianglediamonds.svg	19	yes	57	0	614
6.6.1	ios	2022-12-19	14:51:28	14:58:47	429983	5f130f09fb14da018aa6bd19	715488197	1	main_slash	7	main_slash	129	stimuli_target_diamondsquares.svg	stimuli_distractor_diamondtriangles.svg	24	yes	53	1	781
6.6.1	ios	2022-12-19	14:51:28	14:58:47	429983	5f130f09fb14da018aa6bd19	715488197	1	main_slash	7	advance_on_keypress_SLASH	130	stimuli_target_diamondsquares.svg	stimuli_distractor_diamondtriangles.svg	24	yes	57	0	473
6.6.1	ios	2022-12-19	14:51:28	14:58:49	431585	5f130f09fb14da018aa6bd19	715488197	1	main_slash	7	main_slash	131	stimuli_target_trianglecircles.svg	stimuli_distractor_diamondtriangles.svg	21	yes	53	1	412
6.6.1	ios	2022-12-19	14:51:28	14:58:49	431585	5f130f09fb14da018aa6bd19	715488197	1	main_slash	7	advance_on_keypress_SLASH	132	stimuli_target_trianglecircles.svg	stimuli_distractor_diamondtriangles.svg	21	yes	57	0	371
6.6.1	ios	2022-12-19	14:51:28	14:58:50	433572	5f130f09fb14da018aa6bd19	715488197	1	main_slash	7	main_slash	133	stimuli_target_squarediamonds.svg	stimuli_distractor_diamondtriangles.svg	8	yes	53	1	898
6.6.1	ios	2022-12-19	14:51:28	14:58:50	433572	5f130f09fb14da018aa6bd19	715488197	1	main_slash	7	advance_on_keypress_SLASH	134	stimuli_target_squarediamonds.svg	stimuli_distractor_diamondtriangles.svg	8	yes	57	0	472
6.6.1	ios	2022-12-19	14:51:28	14:58:52	435432	5f130f09fb14da018aa6bd19	715488197	1	main_slash	7	main_slash	135	stimuli_target_trianglesquares.svg	stimuli_distractor_trianglediamonds.svg	18	yes	53	1	673
6.6.1	ios	2022-12-19	14:51:28	14:58:52	435432	5f130f09fb14da018aa6bd19	715488197	1	main_slash	7	advance_on_keypress_SLASH	136	stimuli_target_trianglesquares.svg	stimuli_distractor_trianglediamonds.svg	18	yes	57	0	272
6.6.1	ios	2022-12-19	14:51:28	14:58:54	436856	5f130f09fb14da018aa6bd19	715488197	1	main_slash	7	main_slash	137	stimuli_target_diamondcircles.svg	stimuli_distractor_diamondtriangles.svg	23	yes	53	1	428
6.6.1	ios	2022-12-19	14:51:28	14:58:54	436856	5f130f09fb14da018aa6bd19	715488197	1	main_slash	7	advance_on_keypress_SLASH	138	stimuli_target_diamondcircles.svg	stimuli_distractor_diamondtriangles.svg	23	yes	57	0	322
6.6.1	ios	2022-12-19	14:51:28	14:58:55	438334	5f130f09fb14da018aa6bd19	715488197	1	main_slash	7	main_slash	139	stimuli_distractor_diamondtriangles.svg	stimuli_target_trianglesquares.svg	30	yes	53	1	438
6.6.1	ios	2022-12-19	14:51:28	14:58:55	438334	5f130f09fb14da018aa6bd19	715488197	1	main_slash	7	advance_on_keypress_SLASH	140	stimuli_distractor_diamondtriangles.svg	stimuli_target_trianglesquares.svg	30	yes	57	0	230
6.6.1	ios	2022-12-19	14:51:28	14:58:57	439685	5f130f09fb14da018aa6bd19	715488197	1	main_slash	7	main_slash	141	stimuli_distractor_diamondtriangles.svg	stimuli_target_diamondcircles.svg	31	yes	53	1	387
6.6.1	ios	2022-12-19	14:51:28	14:58:57	439685	5f130f09fb14da018aa6bd19	715488197	1	main_slash	7	advance_on_keypress_SLASH	142	stimuli_distractor_diamondtriangles.svg	stimuli_target_diamondcircles.svg	31	yes	57	0	255
6.6.1	ios	2022-12-19	14:51:28	14:58:58	441405	5f130f09fb14da018aa6bd19	715488197	1	main_slash	7	main_slash	143	stimuli_distractor_diamondtriangles.svg	stimuli_distractor_trianglediamonds.svg	37	no	53	0	739
6.6.1	ios	2022-12-19	14:51:28	14:58:58	441405	5f130f09fb14da018aa6bd19	715488197	1	main_slash	7	advance_on_keypress_SLASH	144	stimuli_distractor_diamondtriangles.svg	stimuli_distractor_trianglediamonds.svg	37	no	57	0	246
6.6.1	ios	2022-12-19	14:51:28	14:59:01	444388	5f130f09fb14da018aa6bd19	715488197	1	main_slash	7	main_slash	145	stimuli_distractor_diamondtriangles.svg	stimuli_target_circletriangles.svg	13	yes	0	0	2000
6.6.1	ios	2022-12-19	14:51:28	14:59:01	444388	5f130f09fb14da018aa6bd19	715488197	1	main_slash	7	advance_on_keypress_SLASH	146	stimuli_distractor_diamondtriangles.svg	stimuli_target_circletriangles.svg	13	yes	57	0	612
6.6.1	ios	2022-12-19	14:51:28	14:59:03	446219	5f130f09fb14da018aa6bd19	715488197	1	main_slash	7	main_slash	147	stimuli_target_squaretriangles.svg	stimuli_distractor_diamondtriangles.svg	7	yes	53	1	546
6.6.1	ios	2022-12-19	14:51:28	14:59:03	446219	5f130f09fb14da018aa6bd19	715488197	1	main_slash	7	advance_on_keypress_SLASH	148	stimuli_target_squaretriangles.svg	stimuli_distractor_diamondtriangles.svg	7	yes	57	0	405
6.6.1	ios	2022-12-19	14:51:28	14:59:06	449343	5f130f09fb14da018aa6bd19	715488197	1	main_slash	7	main_slash	149	stimuli_distractor_trianglediamonds.svg	stimuli_distractor_diamondtriangles.svg	36	no	0	1	2000
6.6.1	ios	2022-12-19	14:51:28	14:59:06	449343	5f130f09fb14da018aa6bd19	715488197	1	main_slash	7	advance_on_keypress_SLASH	150	stimuli_distractor_trianglediamonds.svg	stimuli_distractor_diamondtriangles.svg	36	no	57	0	364
6.6.1	ios	2022-12-19	14:51:28	14:59:08	450849	5f130f09fb14da018aa6bd19	715488197	1	main_slash	7	main_slash	151	stimuli_distractor_trianglediamonds.svg	stimuli_target_squarediamonds.svg	12	yes	53	1	455
6.6.1	ios	2022-12-19	14:51:28	14:59:08	450849	5f130f09fb14da018aa6bd19	715488197	1	main_slash	7	advance_on_keypress_SLASH	152	stimuli_distractor_trianglediamonds.svg	stimuli_target_squarediamonds.svg	12	yes	57	0	347
6.6.1	ios	2022-12-19	14:51:28	14:59:11	453916	5f130f09fb14da018aa6bd19	715488197	1	main_slash	7	main_slash	153	stimuli_distractor_trianglediamonds.svg	stimuli_target_diamondsquares.svg	28	yes	0	0	2000
6.6.1	ios	2022-12-19	14:51:28	14:59:11	453916	5f130f09fb14da018aa6bd19	715488197	1	main_slash	7	advance_on_keypress_SLASH	154	stimuli_distractor_trianglediamonds.svg	stimuli_target_diamondsquares.svg	28	yes	57	0	647
6.6.1	ios	2022-12-19	14:51:28	14:59:13	455687	5f130f09fb14da018aa6bd19	715488197	1	main_slash	7	main_slash	155	stimuli_target_circletriangles.svg	stimuli_distractor_diamondtriangles.svg	5	yes	53	1	438
6.6.1	ios	2022-12-19	14:51:28	14:59:13	455687	5f130f09fb14da018aa6bd19	715488197	1	main_slash	7	advance_on_keypress_SLASH	156	stimuli_target_circletriangles.svg	stimuli_distractor_diamondtriangles.svg	5	yes	57	0	321
6.6.1	ios	2022-12-19	14:51:28	14:59:14	457105	5f130f09fb14da018aa6bd19	715488197	1	main_slash	7	main_slash	157	stimuli_target_trianglecircles.svg	stimuli_distractor_trianglediamonds.svg	17	yes	53	1	388
6.6.1	ios	2022-12-19	14:51:28	14:59:14	457105	5f130f09fb14da018aa6bd19	715488197	1	main_slash	7	advance_on_keypress_SLASH	158	stimuli_target_trianglecircles.svg	stimuli_distractor_trianglediamonds.svg	17	yes	57	0	263
6.6.1	ios	2022-12-19	14:51:28	14:59:17	460107	5f130f09fb14da018aa6bd19	715488197	1	main_slash	7	main_slash	159	stimuli_distractor_diamondtriangles.svg	stimuli_distractor_diamondtriangles.svg	40	no	0	1	2000
6.6.1	ios	2022-12-19	14:51:28	14:59:17	460107	5f130f09fb14da018aa6bd19	715488197	1	main_slash	7	advance_on_keypress_SLASH	160	stimuli_distractor_diamondtriangles.svg	stimuli_distractor_diamondtriangles.svg	40	no	57	0	832
6.6.1	ios	2022-12-19	14:51:28	14:59:44	487369	5f130f09fb14da018aa6bd19	715488197	1	practice_z	9	practice_z	1	stimuli_target_diamondsquares.svg	stimuli_distractor_trianglediamonds.svg	6	yes	44	1	482
6.6.1	ios	2022-12-19	14:51:28	14:59:44	487369	5f130f09fb14da018aa6bd19	715488197	1	practice_z	9	advance_on_keypress_ZEE	2	stimuli_target_diamondsquares.svg	stimuli_distractor_trianglediamonds.svg	6	yes	57	0	1952
6.6.1	ios	2022-12-19	14:51:28	14:59:48	491414	5f130f09fb14da018aa6bd19	715488197	1	practice_z	9	practice_z	3	stimuli_distractor_diamondtriangles.svg	stimuli_target_circletriangles.svg	7	yes	44	1	372
6.6.1	ios	2022-12-19	14:51:28	14:59:48	491414	5f130f09fb14da018aa6bd19	715488197	1	practice_z	9	advance_on_keypress_ZEE	4	stimuli_distractor_diamondtriangles.svg	stimuli_target_circletriangles.svg	7	yes	57	0	548
6.6.1	ios	2022-12-19	14:51:28	14:59:51	494443	5f130f09fb14da018aa6bd19	715488197	1	practice_z	9	practice_z	5	stimuli_target_diamondsquares.svg	stimuli_distractor_diamondtriangles.svg	3	yes	44	1	781
6.6.1	ios	2022-12-19	14:51:28	14:59:51	494443	5f130f09fb14da018aa6bd19	715488197	1	practice_z	9	advance_on_keypress_ZEE	6	stimuli_target_diamondsquares.svg	stimuli_distractor_diamondtriangles.svg	3	yes	57	0	489
6.6.1	ios	2022-12-19	14:51:28	14:59:54	497179	5f130f09fb14da018aa6bd19	715488197	1	practice_z	9	practice_z	7	stimuli_distractor_trianglediamonds.svg	stimuli_target_circlediamonds.svg	10	yes	44	1	546
6.6.1	ios	2022-12-19	14:51:28	14:59:54	497179	5f130f09fb14da018aa6bd19	715488197	1	practice_z	9	advance_on_keypress_ZEE	8	stimuli_distractor_trianglediamonds.svg	stimuli_target_circlediamonds.svg	10	yes	57	0	448
6.6.1	ios	2022-12-19	14:51:28	14:59:57	500150	5f130f09fb14da018aa6bd19	715488197	1	practice_z	9	practice_z	9	stimuli_target_squarediamonds.svg	stimuli_distractor_trianglediamonds.svg	5	yes	44	1	815
6.6.1	ios	2022-12-19	14:51:28	14:59:57	500150	5f130f09fb14da018aa6bd19	715488197	1	practice_z	9	advance_on_keypress_ZEE	10	stimuli_target_squarediamonds.svg	stimuli_distractor_trianglediamonds.svg	5	yes	57	0	380
6.6.1	ios	2022-12-19	14:51:28	15:00:00	502669	5f130f09fb14da018aa6bd19	715488197	1	practice_z	9	practice_z	11	stimuli_distractor_diamondtriangles.svg	stimuli_target_diamondcircles.svg	8	yes	44	1	447
6.6.1	ios	2022-12-19	14:51:28	15:00:00	502669	5f130f09fb14da018aa6bd19	715488197	1	practice_z	9	advance_on_keypress_ZEE	12	stimuli_distractor_diamondtriangles.svg	stimuli_target_diamondcircles.svg	8	yes	57	0	246
6.6.1	ios	2022-12-19	14:51:28	15:00:02	505164	5f130f09fb14da018aa6bd19	715488197	1	practice_z	9	practice_z	13	stimuli_target_squarediamonds.svg	stimuli_distractor_diamondtriangles.svg	2	yes	44	1	537
6.6.1	ios	2022-12-19	14:51:28	15:00:02	505164	5f130f09fb14da018aa6bd19	715488197	1	practice_z	9	advance_on_keypress_ZEE	14	stimuli_target_squarediamonds.svg	stimuli_distractor_diamondtriangles.svg	2	yes	57	0	357
6.6.1	ios	2022-12-19	14:51:28	15:00:05	508186	5f130f09fb14da018aa6bd19	715488197	1	practice_z	9	practice_z	15	stimuli_distractor_trianglediamonds.svg	stimuli_target_squarediamonds.svg	11	yes	44	1	973
6.6.1	ios	2022-12-19	14:51:28	15:00:05	508186	5f130f09fb14da018aa6bd19	715488197	1	practice_z	9	advance_on_keypress_ZEE	16	stimuli_distractor_trianglediamonds.svg	stimuli_target_squarediamonds.svg	11	yes	57	0	364
6.6.1	ios	2022-12-19	14:51:28	15:00:08	510788	5f130f09fb14da018aa6bd19	715488197	1	practice_z	9	practice_z	17	stimuli_distractor_trianglediamonds.svg	stimuli_target_diamondcircles.svg	12	yes	44	1	538
6.6.1	ios	2022-12-19	14:51:28	15:00:08	510788	5f130f09fb14da018aa6bd19	715488197	1	practice_z	9	advance_on_keypress_ZEE	18	stimuli_distractor_trianglediamonds.svg	stimuli_target_diamondcircles.svg	12	yes	57	0	682
6.6.1	ios	2022-12-19	14:51:28	15:00:12	515174	5f130f09fb14da018aa6bd19	715488197	1	practice_z	9	practice_z	19	stimuli_distractor_diamondtriangles.svg	stimuli_distractor_trianglediamonds.svg	14	no	0	1	2000
6.6.1	ios	2022-12-19	14:51:28	15:00:12	515174	5f130f09fb14da018aa6bd19	715488197	1	practice_z	9	advance_on_keypress_ZEE	20	stimuli_distractor_diamondtriangles.svg	stimuli_distractor_trianglediamonds.svg	14	no	57	0	280
6.6.1	ios	2022-12-19	14:51:28	15:00:16	519161	5f130f09fb14da018aa6bd19	715488197	1	practice_z	9	practice_z	21	stimuli_distractor_diamondtriangles.svg	stimuli_distractor_diamondtriangles.svg	13	no	0	1	2000
6.6.1	ios	2022-12-19	14:51:28	15:00:16	519161	5f130f09fb14da018aa6bd19	715488197	1	practice_z	9	advance_on_keypress_ZEE	22	stimuli_distractor_diamondtriangles.svg	stimuli_distractor_diamondtriangles.svg	13	no	57	0	439
6.6.1	ios	2022-12-19	14:51:28	15:00:19	521886	5f130f09fb14da018aa6bd19	715488197	1	practice_z	9	practice_z	23	stimuli_distractor_diamondtriangles.svg	stimuli_target_trianglecircles.svg	9	yes	44	1	571
6.6.1	ios	2022-12-19	14:51:28	15:00:19	521886	5f130f09fb14da018aa6bd19	715488197	1	practice_z	9	advance_on_keypress_ZEE	24	stimuli_distractor_diamondtriangles.svg	stimuli_target_trianglecircles.svg	9	yes	57	0	448
6.6.1	ios	2022-12-19	14:51:28	15:00:21	524569	5f130f09fb14da018aa6bd19	715488197	1	practice_z	9	practice_z	25	stimuli_target_circlediamonds.svg	stimuli_distractor_trianglediamonds.svg	4	yes	44	1	536
6.6.1	ios	2022-12-19	14:51:28	15:00:21	524569	5f130f09fb14da018aa6bd19	715488197	1	practice_z	9	advance_on_keypress_ZEE	26	stimuli_target_circlediamonds.svg	stimuli_distractor_trianglediamonds.svg	4	yes	57	0	531
6.6.1	ios	2022-12-19	14:51:28	15:00:26	528806	5f130f09fb14da018aa6bd19	715488197	1	practice_z	9	practice_z	27	stimuli_distractor_trianglediamonds.svg	stimuli_distractor_trianglediamonds.svg	15	no	0	1	2000
6.6.1	ios	2022-12-19	14:51:28	15:00:26	528806	5f130f09fb14da018aa6bd19	715488197	1	practice_z	9	advance_on_keypress_ZEE	28	stimuli_distractor_trianglediamonds.svg	stimuli_distractor_trianglediamonds.svg	15	no	57	0	624
6.6.1	ios	2022-12-19	14:51:28	15:00:29	532316	5f130f09fb14da018aa6bd19	715488197	1	practice_z	9	practice_z	29	stimuli_distractor_trianglediamonds.svg	stimuli_distractor_diamondtriangles.svg	16	no	44	0	1173
6.6.1	ios	2022-12-19	14:51:28	15:00:29	532316	5f130f09fb14da018aa6bd19	715488197	1	practice_z	9	advance_on_keypress_ZEE	30	stimuli_distractor_trianglediamonds.svg	stimuli_distractor_diamondtriangles.svg	16	no	57	0	765
6.6.1	ios	2022-12-19	14:51:28	15:00:32	535335	5f130f09fb14da018aa6bd19	715488197	1	practice_z	9	practice_z	31	stimuli_target_circlediamonds.svg	stimuli_distractor_diamondtriangles.svg	1	yes	44	1	555
6.6.1	ios	2022-12-19	14:51:28	15:00:32	535335	5f130f09fb14da018aa6bd19	715488197	1	practice_z	9	advance_on_keypress_ZEE	32	stimuli_target_circlediamonds.svg	stimuli_distractor_diamondtriangles.svg	1	yes	57	0	548
6.6.1	ios	2022-12-19	14:51:28	15:00:37	540416	5f130f09fb14da018aa6bd19	715488197	1	main_z	11	main_z	1	stimuli_distractor_trianglediamonds.svg	stimuli_distractor_diamondtriangles.svg	36	no	44	0	562
6.6.1	ios	2022-12-19	14:51:28	15:00:37	540416	5f130f09fb14da018aa6bd19	715488197	1	main_z	11	advance_on_keypress_ZEE	2	stimuli_distractor_trianglediamonds.svg	stimuli_distractor_diamondtriangles.svg	36	no	57	0	106
6.6.1	ios	2022-12-19	14:51:28	15:00:39	541810	5f130f09fb14da018aa6bd19	715488197	1	main_z	11	main_z	3	stimuli_distractor_trianglediamonds.svg	stimuli_target_diamondcircles.svg	27	yes	44	1	554
6.6.1	ios	2022-12-19	14:51:28	15:00:39	541810	5f130f09fb14da018aa6bd19	715488197	1	main_z	11	advance_on_keypress_ZEE	4	stimuli_distractor_trianglediamonds.svg	stimuli_target_diamondcircles.svg	27	yes	57	0	2177
6.6.1	ios	2022-12-19	14:51:28	15:00:42	545207	5f130f09fb14da018aa6bd19	715488197	1	main_z	11	main_z	5	stimuli_target_circletriangles.svg	stimuli_distractor_diamondtriangles.svg	5	yes	44	1	497
6.6.1	ios	2022-12-19	14:51:28	15:00:42	545207	5f130f09fb14da018aa6bd19	715488197	1	main_z	11	advance_on_keypress_ZEE	6	stimuli_target_circletriangles.svg	stimuli_distractor_diamondtriangles.svg	5	yes	57	0	770
6.6.1	ios	2022-12-19	14:51:28	15:00:44	547141	5f130f09fb14da018aa6bd19	715488197	1	main_z	11	main_z	7	stimuli_distractor_diamondtriangles.svg	stimuli_target_diamondcircles.svg	31	yes	44	1	430
6.6.1	ios	2022-12-19	14:51:28	15:00:44	547141	5f130f09fb14da018aa6bd19	715488197	1	main_z	11	advance_on_keypress_ZEE	8	stimuli_distractor_diamondtriangles.svg	stimuli_target_diamondcircles.svg	31	yes	57	0	389
6.6.1	ios	2022-12-19	14:51:28	15:00:46	549370	5f130f09fb14da018aa6bd19	715488197	1	main_z	11	main_z	9	stimuli_distractor_trianglediamonds.svg	stimuli_target_diamondsquares.svg	28	yes	44	1	1124
6.6.1	ios	2022-12-19	14:51:28	15:00:46	549370	5f130f09fb14da018aa6bd19	715488197	1	main_z	11	advance_on_keypress_ZEE	10	stimuli_distractor_trianglediamonds.svg	stimuli_target_diamondsquares.svg	28	yes	57	0	381
6.6.1	ios	2022-12-19	14:51:28	15:00:48	551221	5f130f09fb14da018aa6bd19	715488197	1	main_z	11	main_z	11	stimuli_distractor_trianglediamonds.svg	stimuli_target_circletriangles.svg	9	yes	44	1	752
6.6.1	ios	2022-12-19	14:51:28	15:00:48	551221	5f130f09fb14da018aa6bd19	715488197	1	main_z	11	advance_on_keypress_ZEE	12	stimuli_distractor_trianglediamonds.svg	stimuli_target_circletriangles.svg	9	yes	57	0	313
6.6.1	ios	2022-12-19	14:51:28	15:00:51	554255	5f130f09fb14da018aa6bd19	715488197	1	main_z	11	main_z	13	stimuli_distractor_diamondtriangles.svg	stimuli_target_trianglesquares.svg	30	yes	0	0	2000
6.6.1	ios	2022-12-19	14:51:28	15:00:51	554255	5f130f09fb14da018aa6bd19	715488197	1	main_z	11	advance_on_keypress_ZEE	14	stimuli_distractor_diamondtriangles.svg	stimuli_target_trianglesquares.svg	30	yes	57	0	498
6.6.1	ios	2022-12-19	14:51:28	15:00:53	555952	5f130f09fb14da018aa6bd19	715488197	1	main_z	11	main_z	15	stimuli_target_trianglesquares.svg	stimuli_distractor_trianglediamonds.svg	18	yes	44	1	497
6.6.1	ios	2022-12-19	14:51:28	15:00:53	555952	5f130f09fb14da018aa6bd19	715488197	1	main_z	11	advance_on_keypress_ZEE	16	stimuli_target_trianglesquares.svg	stimuli_distractor_trianglediamonds.svg	18	yes	57	0	805
6.6.1	ios	2022-12-19	14:51:28	15:00:55	558055	5f130f09fb14da018aa6bd19	715488197	1	main_z	11	main_z	17	stimuli_target_squarediamonds.svg	stimuli_distractor_trianglediamonds.svg	4	yes	44	1	580
6.6.1	ios	2022-12-19	14:51:28	15:00:55	558055	5f130f09fb14da018aa6bd19	715488197	1	main_z	11	advance_on_keypress_ZEE	18	stimuli_target_squarediamonds.svg	stimuli_distractor_trianglediamonds.svg	4	yes	57	0	355
6.6.1	ios	2022-12-19	14:51:28	15:00:56	559539	5f130f09fb14da018aa6bd19	715488197	1	main_z	11	main_z	19	stimuli_target_trianglecircles.svg	stimuli_distractor_diamondtriangles.svg	21	yes	44	1	413
6.6.1	ios	2022-12-19	14:51:28	15:00:56	559539	5f130f09fb14da018aa6bd19	715488197	1	main_z	11	advance_on_keypress_ZEE	20	stimuli_target_trianglecircles.svg	stimuli_distractor_diamondtriangles.svg	21	yes	57	0	297
6.6.1	ios	2022-12-19	14:51:28	15:00:58	561501	5f130f09fb14da018aa6bd19	715488197	1	main_z	11	main_z	21	stimuli_target_diamondsquares.svg	stimuli_distractor_trianglediamonds.svg	20	yes	44	1	940
6.6.1	ios	2022-12-19	14:51:28	15:00:58	561501	5f130f09fb14da018aa6bd19	715488197	1	main_z	11	advance_on_keypress_ZEE	22	stimuli_target_diamondsquares.svg	stimuli_distractor_trianglediamonds.svg	20	yes	57	0	222
6.6.1	ios	2022-12-19	14:51:28	15:01:00	562918	5f130f09fb14da018aa6bd19	715488197	1	main_z	11	main_z	23	stimuli_target_squarediamonds.svg	stimuli_distractor_diamondtriangles.svg	8	yes	44	1	487
6.6.1	ios	2022-12-19	14:51:28	15:01:00	562918	5f130f09fb14da018aa6bd19	715488197	1	main_z	11	advance_on_keypress_ZEE	24	stimuli_target_squarediamonds.svg	stimuli_distractor_diamondtriangles.svg	8	yes	57	0	446
6.6.1	ios	2022-12-19	14:51:28	15:01:01	564537	5f130f09fb14da018aa6bd19	715488197	1	main_z	11	main_z	25	stimuli_target_trianglecircles.svg	stimuli_distractor_trianglediamonds.svg	17	yes	44	1	455
6.6.1	ios	2022-12-19	14:51:28	15:01:01	564537	5f130f09fb14da018aa6bd19	715488197	1	main_z	11	advance_on_keypress_ZEE	26	stimuli_target_trianglecircles.svg	stimuli_distractor_trianglediamonds.svg	17	yes	57	0	222
6.6.1	ios	2022-12-19	14:51:28	15:01:03	566148	5f130f09fb14da018aa6bd19	715488197	1	main_z	11	main_z	27	stimuli_distractor_diamondtriangles.svg	stimuli_target_circlediamonds.svg	14	yes	44	1	665
6.6.1	ios	2022-12-19	14:51:28	15:01:03	566148	5f130f09fb14da018aa6bd19	715488197	1	main_z	11	advance_on_keypress_ZEE	28	stimuli_distractor_diamondtriangles.svg	stimuli_target_circlediamonds.svg	14	yes	57	0	147
6.6.1	ios	2022-12-19	14:51:28	15:01:05	567624	5f130f09fb14da018aa6bd19	715488197	1	main_z	11	main_z	29	stimuli_distractor_diamondtriangles.svg	stimuli_target_squaretriangles.svg	15	yes	44	1	572
6.6.1	ios	2022-12-19	14:51:28	15:01:05	567624	5f130f09fb14da018aa6bd19	715488197	1	main_z	11	advance_on_keypress_ZEE	30	stimuli_distractor_diamondtriangles.svg	stimuli_target_squaretriangles.svg	15	yes	57	0	187
6.6.1	ios	2022-12-19	14:51:28	15:01:06	569084	5f130f09fb14da018aa6bd19	715488197	1	main_z	11	main_z	31	stimuli_target_squaretriangles.svg	stimuli_distractor_diamondtriangles.svg	7	yes	44	1	546
6.6.1	ios	2022-12-19	14:51:28	15:01:06	569084	5f130f09fb14da018aa6bd19	715488197	1	main_z	11	advance_on_keypress_ZEE	32	stimuli_target_squaretriangles.svg	stimuli_distractor_diamondtriangles.svg	7	yes	57	0	422
6.6.1	ios	2022-12-19	14:51:28	15:01:08	570887	5f130f09fb14da018aa6bd19	715488197	1	main_z	11	main_z	33	stimuli_distractor_diamondtriangles.svg	stimuli_target_circletriangles.svg	13	yes	44	1	664
6.6.1	ios	2022-12-19	14:51:28	15:01:08	570887	5f130f09fb14da018aa6bd19	715488197	1	main_z	11	advance_on_keypress_ZEE	34	stimuli_distractor_diamondtriangles.svg	stimuli_target_circletriangles.svg	13	yes	57	0	214
6.6.1	ios	2022-12-19	14:51:28	15:01:09	572380	5f130f09fb14da018aa6bd19	715488197	1	main_z	11	main_z	35	stimuli_target_diamondcircles.svg	stimuli_distractor_diamondtriangles.svg	23	yes	44	1	572
6.6.1	ios	2022-12-19	14:51:28	15:01:09	572380	5f130f09fb14da018aa6bd19	715488197	1	main_z	11	advance_on_keypress_ZEE	36	stimuli_target_diamondcircles.svg	stimuli_distractor_diamondtriangles.svg	23	yes	57	0	363
6.6.1	ios	2022-12-19	14:51:28	15:01:12	575479	5f130f09fb14da018aa6bd19	715488197	1	main_z	11	main_z	37	stimuli_distractor_diamondtriangles.svg	stimuli_distractor_trianglediamonds.svg	37	no	0	1	2000
6.6.1	ios	2022-12-19	14:51:28	15:01:12	575479	5f130f09fb14da018aa6bd19	715488197	1	main_z	11	advance_on_keypress_ZEE	38	stimuli_distractor_diamondtriangles.svg	stimuli_distractor_trianglediamonds.svg	37	no	57	0	465
6.6.1	ios	2022-12-19	14:51:28	15:01:14	577287	5f130f09fb14da018aa6bd19	715488197	1	main_z	11	main_z	39	stimuli_distractor_trianglediamonds.svg	stimuli_target_trianglecircles.svg	25	yes	44	1	656
6.6.1	ios	2022-12-19	14:51:28	15:01:14	577287	5f130f09fb14da018aa6bd19	715488197	1	main_z	11	advance_on_keypress_ZEE	40	stimuli_distractor_trianglediamonds.svg	stimuli_target_trianglecircles.svg	25	yes	57	0	522
6.6.1	ios	2022-12-19	14:51:28	15:01:17	580536	5f130f09fb14da018aa6bd19	715488197	1	main_z	11	main_z	41	stimuli_distractor_trianglediamonds.svg	stimuli_distractor_trianglediamonds.svg	34	no	0	1	2000
6.6.1	ios	2022-12-19	14:51:28	15:01:17	580536	5f130f09fb14da018aa6bd19	715488197	1	main_z	11	advance_on_keypress_ZEE	42	stimuli_distractor_trianglediamonds.svg	stimuli_distractor_trianglediamonds.svg	34	no	57	0	657
6.6.1	ios	2022-12-19	14:51:28	15:01:19	582392	5f130f09fb14da018aa6bd19	715488197	1	main_z	11	main_z	43	stimuli_target_diamondsquares.svg	stimuli_distractor_diamondtriangles.svg	24	yes	44	1	520
6.6.1	ios	2022-12-19	14:51:28	15:01:19	582392	5f130f09fb14da018aa6bd19	715488197	1	main_z	11	advance_on_keypress_ZEE	44	stimuli_target_diamondsquares.svg	stimuli_distractor_diamondtriangles.svg	24	yes	57	0	880
6.6.1	ios	2022-12-19	14:51:28	15:01:23	586009	5f130f09fb14da018aa6bd19	715488197	1	main_z	11	main_z	45	stimuli_distractor_trianglediamonds.svg	stimuli_distractor_diamondtriangles.svg	35	no	0	1	2000
6.6.1	ios	2022-12-19	14:51:28	15:01:23	586009	5f130f09fb14da018aa6bd19	715488197	1	main_z	11	advance_on_keypress_ZEE	46	stimuli_distractor_trianglediamonds.svg	stimuli_distractor_diamondtriangles.svg	35	no	57	0	589
6.6.1	ios	2022-12-19	14:51:28	15:01:25	587825	5f130f09fb14da018aa6bd19	715488197	1	main_z	11	main_z	47	stimuli_distractor_diamondtriangles.svg	stimuli_target_trianglecircles.svg	29	yes	44	1	547
6.6.1	ios	2022-12-19	14:51:28	15:01:25	587825	5f130f09fb14da018aa6bd19	715488197	1	main_z	11	advance_on_keypress_ZEE	48	stimuli_distractor_diamondtriangles.svg	stimuli_target_trianglecircles.svg	29	yes	57	0	503
6.6.1	ios	2022-12-19	14:51:28	15:01:28	591049	5f130f09fb14da018aa6bd19	715488197	1	main_z	11	main_z	49	stimuli_distractor_diamondtriangles.svg	stimuli_distractor_diamondtriangles.svg	39	no	0	1	2000
6.6.1	ios	2022-12-19	14:51:28	15:01:28	591049	5f130f09fb14da018aa6bd19	715488197	1	main_z	11	advance_on_keypress_ZEE	50	stimuli_distractor_diamondtriangles.svg	stimuli_distractor_diamondtriangles.svg	39	no	57	0	215
6.6.1	ios	2022-12-19	14:51:28	15:01:29	592405	5f130f09fb14da018aa6bd19	715488197	1	main_z	11	main_z	51	stimuli_target_circlediamonds.svg	stimuli_distractor_trianglediamonds.svg	2	yes	44	1	439
6.6.1	ios	2022-12-19	14:51:28	15:01:29	592405	5f130f09fb14da018aa6bd19	715488197	1	main_z	11	advance_on_keypress_ZEE	52	stimuli_target_circlediamonds.svg	stimuli_distractor_trianglediamonds.svg	2	yes	57	0	673
6.6.1	ios	2022-12-19	14:51:28	15:01:31	594199	5f130f09fb14da018aa6bd19	715488197	1	main_z	11	main_z	53	stimuli_target_diamondcircles.svg	stimuli_distractor_trianglediamonds.svg	19	yes	44	1	430
6.6.1	ios	2022-12-19	14:51:28	15:01:31	594199	5f130f09fb14da018aa6bd19	715488197	1	main_z	11	advance_on_keypress_ZEE	54	stimuli_target_diamondcircles.svg	stimuli_distractor_trianglediamonds.svg	19	yes	57	0	388
6.6.1	ios	2022-12-19	14:51:28	15:01:33	595917	5f130f09fb14da018aa6bd19	715488197	1	main_z	11	main_z	55	stimuli_distractor_trianglediamonds.svg	stimuli_target_squarediamonds.svg	12	yes	44	1	614
6.6.1	ios	2022-12-19	14:51:28	15:01:33	595917	5f130f09fb14da018aa6bd19	715488197	1	main_z	11	advance_on_keypress_ZEE	56	stimuli_distractor_trianglediamonds.svg	stimuli_target_squarediamonds.svg	12	yes	57	0	322
6.6.1	ios	2022-12-19	14:51:28	15:01:34	597520	5f130f09fb14da018aa6bd19	715488197	1	main_z	11	main_z	57	stimuli_target_circletriangles.svg	stimuli_distractor_trianglediamonds.svg	1	yes	44	1	564
6.6.1	ios	2022-12-19	14:51:28	15:01:34	597520	5f130f09fb14da018aa6bd19	715488197	1	main_z	11	advance_on_keypress_ZEE	58	stimuli_target_circletriangles.svg	stimuli_distractor_trianglediamonds.svg	1	yes	57	0	1015
6.6.1	ios	2022-12-19	14:51:28	15:01:37	599731	5f130f09fb14da018aa6bd19	715488197	1	main_z	11	main_z	59	stimuli_target_trianglesquares.svg	stimuli_distractor_diamondtriangles.svg	22	yes	44	1	472
6.6.1	ios	2022-12-19	14:51:28	15:01:37	599731	5f130f09fb14da018aa6bd19	715488197	1	main_z	11	advance_on_keypress_ZEE	60	stimuli_target_trianglesquares.svg	stimuli_distractor_diamondtriangles.svg	22	yes	57	0	422
6.6.1	ios	2022-12-19	14:51:28	15:01:40	602864	5f130f09fb14da018aa6bd19	715488197	1	main_z	11	main_z	61	stimuli_target_circlediamonds.svg	stimuli_distractor_diamondtriangles.svg	6	yes	0	0	2000
6.6.1	ios	2022-12-19	14:51:28	15:01:40	602864	5f130f09fb14da018aa6bd19	715488197	1	main_z	11	advance_on_keypress_ZEE	62	stimuli_target_circlediamonds.svg	stimuli_distractor_diamondtriangles.svg	6	yes	57	0	389
6.6.1	ios	2022-12-19	14:51:28	15:01:42	605381	5f130f09fb14da018aa6bd19	715488197	1	main_z	11	main_z	63	stimuli_distractor_diamondtriangles.svg	stimuli_distractor_trianglediamonds.svg	38	no	44	0	1449
6.6.1	ios	2022-12-19	14:51:28	15:01:42	605381	5f130f09fb14da018aa6bd19	715488197	1	main_z	11	advance_on_keypress_ZEE	64	stimuli_distractor_diamondtriangles.svg	stimuli_distractor_trianglediamonds.svg	38	no	57	0	698
6.6.1	ios	2022-12-19	14:51:28	15:01:46	608822	5f130f09fb14da018aa6bd19	715488197	1	main_z	11	main_z	65	stimuli_distractor_diamondtriangles.svg	stimuli_distractor_diamondtriangles.svg	40	no	0	1	2000
6.6.1	ios	2022-12-19	14:51:28	15:01:46	608822	5f130f09fb14da018aa6bd19	715488197	1	main_z	11	advance_on_keypress_ZEE	66	stimuli_distractor_diamondtriangles.svg	stimuli_distractor_diamondtriangles.svg	40	no	57	0	248
6.6.1	ios	2022-12-19	14:51:28	15:01:47	610346	5f130f09fb14da018aa6bd19	715488197	1	main_z	11	main_z	67	stimuli_distractor_trianglediamonds.svg	stimuli_target_circlediamonds.svg	10	yes	44	1	590
6.6.1	ios	2022-12-19	14:51:28	15:01:47	610346	5f130f09fb14da018aa6bd19	715488197	1	main_z	11	advance_on_keypress_ZEE	68	stimuli_distractor_trianglediamonds.svg	stimuli_target_circlediamonds.svg	10	yes	57	0	747
6.6.1	ios	2022-12-19	14:51:28	15:01:51	613659	5f130f09fb14da018aa6bd19	715488197	1	main_z	11	main_z	69	stimuli_distractor_trianglediamonds.svg	stimuli_target_squaretriangles.svg	11	yes	44	1	1834
6.6.1	ios	2022-12-19	14:51:28	15:01:51	613659	5f130f09fb14da018aa6bd19	715488197	1	main_z	11	advance_on_keypress_ZEE	70	stimuli_distractor_trianglediamonds.svg	stimuli_target_squaretriangles.svg	11	yes	57	0	973
6.6.1	ios	2022-12-19	14:51:28	15:01:53	615709	5f130f09fb14da018aa6bd19	715488197	1	main_z	11	main_z	71	stimuli_distractor_diamondtriangles.svg	stimuli_target_squarediamonds.svg	16	yes	44	1	346
6.6.1	ios	2022-12-19	14:51:28	15:01:53	615709	5f130f09fb14da018aa6bd19	715488197	1	main_z	11	advance_on_keypress_ZEE	72	stimuli_distractor_diamondtriangles.svg	stimuli_target_squarediamonds.svg	16	yes	57	0	448
6.6.1	ios	2022-12-19	14:51:28	15:01:56	618868	5f130f09fb14da018aa6bd19	715488197	1	main_z	11	main_z	73	stimuli_distractor_trianglediamonds.svg	stimuli_distractor_trianglediamonds.svg	33	no	0	1	2000
6.6.1	ios	2022-12-19	14:51:28	15:01:56	618868	5f130f09fb14da018aa6bd19	715488197	1	main_z	11	advance_on_keypress_ZEE	74	stimuli_distractor_trianglediamonds.svg	stimuli_distractor_trianglediamonds.svg	33	no	57	0	297
6.6.1	ios	2022-12-19	14:51:28	15:01:57	620492	5f130f09fb14da018aa6bd19	715488197	1	main_z	11	main_z	75	stimuli_distractor_diamondtriangles.svg	stimuli_target_diamondsquares.svg	32	yes	44	1	639
6.6.1	ios	2022-12-19	14:51:28	15:01:57	620492	5f130f09fb14da018aa6bd19	715488197	1	main_z	11	advance_on_keypress_ZEE	76	stimuli_distractor_diamondtriangles.svg	stimuli_target_diamondsquares.svg	32	yes	57	0	422
6.6.1	ios	2022-12-19	14:51:28	15:01:59	622158	5f130f09fb14da018aa6bd19	715488197	1	main_z	11	main_z	77	stimuli_distractor_trianglediamonds.svg	stimuli_target_trianglesquares.svg	26	yes	44	1	520
6.6.1	ios	2022-12-19	14:51:28	15:01:59	622158	5f130f09fb14da018aa6bd19	715488197	1	main_z	11	advance_on_keypress_ZEE	78	stimuli_distractor_trianglediamonds.svg	stimuli_target_trianglesquares.svg	26	yes	57	0	280
6.6.1	ios	2022-12-19	14:51:28	15:02:01	623787	5f130f09fb14da018aa6bd19	715488197	1	main_z	11	main_z	79	stimuli_target_squaretriangles.svg	stimuli_distractor_trianglediamonds.svg	3	yes	44	1	614
6.6.1	ios	2022-12-19	14:51:28	15:02:01	623787	5f130f09fb14da018aa6bd19	715488197	1	main_z	11	advance_on_keypress_ZEE	80	stimuli_target_squaretriangles.svg	stimuli_distractor_trianglediamonds.svg	3	yes	57	0	247
6.6.1	ios	2022-12-19	14:51:28	15:02:02	625272	5f130f09fb14da018aa6bd19	715488197	1	main_z	11	main_z	81	stimuli_target_trianglecircles.svg	stimuli_distractor_trianglediamonds.svg	17	yes	44	1	513
6.6.1	ios	2022-12-19	14:51:28	15:02:02	625272	5f130f09fb14da018aa6bd19	715488197	1	main_z	11	advance_on_keypress_ZEE	82	stimuli_target_trianglecircles.svg	stimuli_distractor_trianglediamonds.svg	17	yes	57	0	230
6.6.1	ios	2022-12-19	14:51:28	15:02:05	627902	5f130f09fb14da018aa6bd19	715488197	1	main_z	11	main_z	83	stimuli_distractor_trianglediamonds.svg	stimuli_distractor_diamondtriangles.svg	36	no	44	0	1658
6.6.1	ios	2022-12-19	14:51:28	15:02:05	627902	5f130f09fb14da018aa6bd19	715488197	1	main_z	11	advance_on_keypress_ZEE	84	stimuli_distractor_trianglediamonds.svg	stimuli_distractor_diamondtriangles.svg	36	no	57	0	455
6.6.1	ios	2022-12-19	14:51:28	15:02:08	631066	5f130f09fb14da018aa6bd19	715488197	1	main_z	11	main_z	85	stimuli_distractor_diamondtriangles.svg	stimuli_distractor_trianglediamonds.svg	38	no	0	1	2000
6.6.1	ios	2022-12-19	14:51:28	15:02:08	631066	5f130f09fb14da018aa6bd19	715488197	1	main_z	11	advance_on_keypress_ZEE	86	stimuli_distractor_diamondtriangles.svg	stimuli_distractor_trianglediamonds.svg	38	no	57	0	1768
6.6.1	ios	2022-12-19	14:51:28	15:02:12	635539	5f130f09fb14da018aa6bd19	715488197	1	main_z	11	main_z	87	stimuli_distractor_trianglediamonds.svg	stimuli_distractor_trianglediamonds.svg	34	no	0	1	2000
6.6.1	ios	2022-12-19	14:51:28	15:02:12	635539	5f130f09fb14da018aa6bd19	715488197	1	main_z	11	advance_on_keypress_ZEE	88	stimuli_distractor_trianglediamonds.svg	stimuli_distractor_trianglediamonds.svg	34	no	57	0	721
6.6.1	ios	2022-12-19	14:51:28	15:02:14	637538	5f130f09fb14da018aa6bd19	715488197	1	main_z	11	main_z	89	stimuli_target_circlediamonds.svg	stimuli_distractor_trianglediamonds.svg	2	yes	44	1	598
6.6.1	ios	2022-12-19	14:51:28	15:02:14	637538	5f130f09fb14da018aa6bd19	715488197	1	main_z	11	advance_on_keypress_ZEE	90	stimuli_target_circlediamonds.svg	stimuli_distractor_trianglediamonds.svg	2	yes	57	0	370
6.6.1	ios	2022-12-19	14:51:28	15:02:16	639255	5f130f09fb14da018aa6bd19	715488197	1	main_z	11	main_z	91	stimuli_target_squaretriangles.svg	stimuli_distractor_trianglediamonds.svg	3	yes	44	1	629
6.6.1	ios	2022-12-19	14:51:28	15:02:16	639255	5f130f09fb14da018aa6bd19	715488197	1	main_z	11	advance_on_keypress_ZEE	92	stimuli_target_squaretriangles.svg	stimuli_distractor_trianglediamonds.svg	3	yes	57	0	305
6.6.1	ios	2022-12-19	14:51:28	15:02:19	642264	5f130f09fb14da018aa6bd19	715488197	1	main_z	11	main_z	93	stimuli_distractor_diamondtriangles.svg	stimuli_distractor_trianglediamonds.svg	37	no	0	1	2000
6.6.1	ios	2022-12-19	14:51:28	15:02:19	642264	5f130f09fb14da018aa6bd19	715488197	1	main_z	11	advance_on_keypress_ZEE	94	stimuli_distractor_diamondtriangles.svg	stimuli_distractor_trianglediamonds.svg	37	no	57	0	640
6.6.1	ios	2022-12-19	14:51:28	15:02:21	644195	5f130f09fb14da018aa6bd19	715488197	1	main_z	11	main_z	95	stimuli_target_trianglesquares.svg	stimuli_distractor_trianglediamonds.svg	18	yes	44	1	630
6.6.1	ios	2022-12-19	14:51:28	15:02:21	644195	5f130f09fb14da018aa6bd19	715488197	1	main_z	11	advance_on_keypress_ZEE	96	stimuli_target_trianglesquares.svg	stimuli_distractor_trianglediamonds.svg	18	yes	57	0	314
6.6.1	ios	2022-12-19	14:51:28	15:02:23	645830	5f130f09fb14da018aa6bd19	715488197	1	main_z	11	main_z	97	stimuli_target_diamondsquares.svg	stimuli_distractor_trianglediamonds.svg	20	yes	44	1	596
6.6.1	ios	2022-12-19	14:51:28	15:02:23	645830	5f130f09fb14da018aa6bd19	715488197	1	main_z	11	advance_on_keypress_ZEE	98	stimuli_target_diamondsquares.svg	stimuli_distractor_trianglediamonds.svg	20	yes	57	0	362
6.6.1	ios	2022-12-19	14:51:28	15:02:24	647532	5f130f09fb14da018aa6bd19	715488197	1	main_z	11	main_z	99	stimuli_distractor_trianglediamonds.svg	stimuli_target_squaretriangles.svg	11	yes	44	1	630
6.6.1	ios	2022-12-19	14:51:28	15:02:24	647532	5f130f09fb14da018aa6bd19	715488197	1	main_z	11	advance_on_keypress_ZEE	100	stimuli_distractor_trianglediamonds.svg	stimuli_target_squaretriangles.svg	11	yes	57	0	354
6.6.1	ios	2022-12-19	14:51:28	15:02:26	649008	5f130f09fb14da018aa6bd19	715488197	1	main_z	11	main_z	101	stimuli_distractor_trianglediamonds.svg	stimuli_target_trianglecircles.svg	25	yes	44	1	422
6.6.1	ios	2022-12-19	14:51:28	15:02:26	649008	5f130f09fb14da018aa6bd19	715488197	1	main_z	11	advance_on_keypress_ZEE	102	stimuli_distractor_trianglediamonds.svg	stimuli_target_trianglecircles.svg	25	yes	57	0	939
6.6.1	ios	2022-12-19	14:51:28	15:02:28	651262	5f130f09fb14da018aa6bd19	715488197	1	main_z	11	main_z	103	stimuli_target_squarediamonds.svg	stimuli_distractor_diamondtriangles.svg	8	yes	44	1	589
6.6.1	ios	2022-12-19	14:51:28	15:02:28	651262	5f130f09fb14da018aa6bd19	715488197	1	main_z	11	advance_on_keypress_ZEE	104	stimuli_target_squarediamonds.svg	stimuli_distractor_diamondtriangles.svg	8	yes	57	0	439
6.6.1	ios	2022-12-19	14:51:28	15:02:30	653014	5f130f09fb14da018aa6bd19	715488197	1	main_z	11	main_z	105	stimuli_distractor_diamondtriangles.svg	stimuli_target_trianglesquares.svg	30	yes	44	1	589
6.6.1	ios	2022-12-19	14:51:28	15:02:30	653014	5f130f09fb14da018aa6bd19	715488197	1	main_z	11	advance_on_keypress_ZEE	106	stimuli_distractor_diamondtriangles.svg	stimuli_target_trianglesquares.svg	30	yes	57	0	853
6.6.1	ios	2022-12-19	14:51:28	15:02:32	654958	5f130f09fb14da018aa6bd19	715488197	1	main_z	11	main_z	107	stimuli_distractor_trianglediamonds.svg	stimuli_target_diamondcircles.svg	27	yes	44	1	381
6.6.1	ios	2022-12-19	14:51:28	15:02:32	654958	5f130f09fb14da018aa6bd19	715488197	1	main_z	11	advance_on_keypress_ZEE	108	stimuli_distractor_trianglediamonds.svg	stimuli_target_diamondcircles.svg	27	yes	57	0	264
6.6.1	ios	2022-12-19	14:51:28	15:02:33	656534	5f130f09fb14da018aa6bd19	715488197	1	main_z	11	main_z	109	stimuli_distractor_diamondtriangles.svg	stimuli_target_circletriangles.svg	13	yes	44	1	572
6.6.1	ios	2022-12-19	14:51:28	15:02:33	656534	5f130f09fb14da018aa6bd19	715488197	1	main_z	11	advance_on_keypress_ZEE	110	stimuli_distractor_diamondtriangles.svg	stimuli_target_circletriangles.svg	13	yes	57	0	281
6.6.1	ios	2022-12-19	14:51:28	15:02:35	658429	5f130f09fb14da018aa6bd19	715488197	1	main_z	11	main_z	111	stimuli_target_diamondsquares.svg	stimuli_distractor_diamondtriangles.svg	24	yes	44	1	882
6.6.1	ios	2022-12-19	14:51:28	15:02:35	658429	5f130f09fb14da018aa6bd19	715488197	1	main_z	11	advance_on_keypress_ZEE	112	stimuli_target_diamondsquares.svg	stimuli_distractor_diamondtriangles.svg	24	yes	57	0	414
6.6.1	ios	2022-12-19	14:51:28	15:02:38	661570	5f130f09fb14da018aa6bd19	715488197	1	main_z	11	main_z	113	stimuli_distractor_trianglediamonds.svg	stimuli_distractor_diamondtriangles.svg	35	no	0	1	2000
6.6.1	ios	2022-12-19	14:51:28	15:02:38	661570	5f130f09fb14da018aa6bd19	715488197	1	main_z	11	advance_on_keypress_ZEE	114	stimuli_distractor_trianglediamonds.svg	stimuli_distractor_diamondtriangles.svg	35	no	57	0	515
6.6.1	ios	2022-12-19	14:51:28	15:02:40	663353	5f130f09fb14da018aa6bd19	715488197	1	main_z	11	main_z	115	stimuli_target_trianglecircles.svg	stimuli_distractor_diamondtriangles.svg	21	yes	44	1	581
6.6.1	ios	2022-12-19	14:51:28	15:02:40	663353	5f130f09fb14da018aa6bd19	715488197	1	main_z	11	advance_on_keypress_ZEE	116	stimuli_target_trianglecircles.svg	stimuli_distractor_diamondtriangles.svg	21	yes	57	0	422
6.6.1	ios	2022-12-19	14:51:28	15:02:42	665086	5f130f09fb14da018aa6bd19	715488197	1	main_z	11	main_z	117	stimuli_target_circletriangles.svg	stimuli_distractor_trianglediamonds.svg	1	yes	44	1	580
6.6.1	ios	2022-12-19	14:51:28	15:02:42	665086	5f130f09fb14da018aa6bd19	715488197	1	main_z	11	advance_on_keypress_ZEE	118	stimuli_target_circletriangles.svg	stimuli_distractor_trianglediamonds.svg	1	yes	57	0	263
6.6.1	ios	2022-12-19	14:51:28	15:02:44	666629	5f130f09fb14da018aa6bd19	715488197	1	main_z	11	main_z	119	stimuli_target_squarediamonds.svg	stimuli_distractor_trianglediamonds.svg	4	yes	44	1	554
6.6.1	ios	2022-12-19	14:51:28	15:02:44	666629	5f130f09fb14da018aa6bd19	715488197	1	main_z	11	advance_on_keypress_ZEE	120	stimuli_target_squarediamonds.svg	stimuli_distractor_trianglediamonds.svg	4	yes	57	0	312
6.6.1	ios	2022-12-19	14:51:28	15:02:45	668357	5f130f09fb14da018aa6bd19	715488197	1	main_z	11	main_z	121	stimuli_distractor_trianglediamonds.svg	stimuli_target_circlediamonds.svg	10	yes	44	1	698
6.6.1	ios	2022-12-19	14:51:28	15:02:45	668357	5f130f09fb14da018aa6bd19	715488197	1	main_z	11	advance_on_keypress_ZEE	122	stimuli_distractor_trianglediamonds.svg	stimuli_target_circlediamonds.svg	10	yes	57	0	288
6.6.1	ios	2022-12-19	14:51:28	15:02:47	670117	5f130f09fb14da018aa6bd19	715488197	1	main_z	11	main_z	123	stimuli_distractor_diamondtriangles.svg	stimuli_target_squarediamonds.svg	16	yes	44	1	756
6.6.1	ios	2022-12-19	14:51:28	15:02:47	670117	5f130f09fb14da018aa6bd19	715488197	1	main_z	11	advance_on_keypress_ZEE	124	stimuli_distractor_diamondtriangles.svg	stimuli_target_squarediamonds.svg	16	yes	57	0	237
6.6.1	ios	2022-12-19	14:51:28	15:02:50	673067	5f130f09fb14da018aa6bd19	715488197	1	main_z	11	main_z	125	stimuli_distractor_diamondtriangles.svg	stimuli_target_circlediamonds.svg	14	yes	0	0	2000
6.6.1	ios	2022-12-19	14:51:28	15:02:50	673067	5f130f09fb14da018aa6bd19	715488197	1	main_z	11	advance_on_keypress_ZEE	126	stimuli_distractor_diamondtriangles.svg	stimuli_target_circlediamonds.svg	14	yes	57	0	648
6.6.1	ios	2022-12-19	14:51:28	15:02:52	674907	5f130f09fb14da018aa6bd19	715488197	1	main_z	11	main_z	127	stimuli_target_diamondcircles.svg	stimuli_distractor_trianglediamonds.svg	19	yes	44	1	505
6.6.1	ios	2022-12-19	14:51:28	15:02:52	674907	5f130f09fb14da018aa6bd19	715488197	1	main_z	11	advance_on_keypress_ZEE	128	stimuli_target_diamondcircles.svg	stimuli_distractor_trianglediamonds.svg	19	yes	57	0	380
6.6.1	ios	2022-12-19	14:51:28	15:02:54	677009	5f130f09fb14da018aa6bd19	715488197	1	main_z	11	main_z	129	stimuli_distractor_diamondtriangles.svg	stimuli_target_diamondsquares.svg	32	yes	44	1	990
6.6.1	ios	2022-12-19	14:51:28	15:02:54	677009	5f130f09fb14da018aa6bd19	715488197	1	main_z	11	advance_on_keypress_ZEE	130	stimuli_distractor_diamondtriangles.svg	stimuli_target_diamondsquares.svg	32	yes	57	0	172
6.6.1	ios	2022-12-19	14:51:28	15:02:56	678719	5f130f09fb14da018aa6bd19	715488197	1	main_z	11	main_z	131	stimuli_target_circletriangles.svg	stimuli_distractor_diamondtriangles.svg	5	yes	44	1	814
6.6.1	ios	2022-12-19	14:51:28	15:02:56	678719	5f130f09fb14da018aa6bd19	715488197	1	main_z	11	advance_on_keypress_ZEE	132	stimuli_target_circletriangles.svg	stimuli_distractor_diamondtriangles.svg	5	yes	57	0	313
6.6.1	ios	2022-12-19	14:51:28	15:02:57	680389	5f130f09fb14da018aa6bd19	715488197	1	main_z	11	main_z	133	stimuli_distractor_trianglediamonds.svg	stimuli_target_squarediamonds.svg	12	yes	44	1	631
6.6.1	ios	2022-12-19	14:51:28	15:02:57	680389	5f130f09fb14da018aa6bd19	715488197	1	main_z	11	advance_on_keypress_ZEE	134	stimuli_distractor_trianglediamonds.svg	stimuli_target_squarediamonds.svg	12	yes	57	0	397
6.6.1	ios	2022-12-19	14:51:28	15:02:59	682033	5f130f09fb14da018aa6bd19	715488197	1	main_z	11	main_z	135	stimuli_distractor_diamondtriangles.svg	stimuli_target_trianglecircles.svg	29	yes	44	1	507
6.6.1	ios	2022-12-19	14:51:28	15:02:59	682033	5f130f09fb14da018aa6bd19	715488197	1	main_z	11	advance_on_keypress_ZEE	136	stimuli_distractor_diamondtriangles.svg	stimuli_target_trianglecircles.svg	29	yes	57	0	222
6.6.1	ios	2022-12-19	14:51:28	15:03:00	683433	5f130f09fb14da018aa6bd19	715488197	1	main_z	11	main_z	137	stimuli_target_diamondcircles.svg	stimuli_distractor_diamondtriangles.svg	23	yes	44	1	438
6.6.1	ios	2022-12-19	14:51:28	15:03:00	683433	5f130f09fb14da018aa6bd19	715488197	1	main_z	11	advance_on_keypress_ZEE	138	stimuli_target_diamondcircles.svg	stimuli_distractor_diamondtriangles.svg	23	yes	57	0	356
6.6.1	ios	2022-12-19	14:51:28	15:03:02	685252	5f130f09fb14da018aa6bd19	715488197	1	main_z	11	main_z	139	stimuli_distractor_diamondtriangles.svg	stimuli_target_squaretriangles.svg	15	yes	44	1	739
6.6.1	ios	2022-12-19	14:51:28	15:03:02	685252	5f130f09fb14da018aa6bd19	715488197	1	main_z	11	advance_on_keypress_ZEE	140	stimuli_distractor_diamondtriangles.svg	stimuli_target_squaretriangles.svg	15	yes	57	0	214
6.6.1	ios	2022-12-19	14:51:28	15:03:04	686871	5f130f09fb14da018aa6bd19	715488197	1	main_z	11	main_z	141	stimuli_distractor_trianglediamonds.svg	stimuli_target_circletriangles.svg	9	yes	44	1	689
6.6.1	ios	2022-12-19	14:51:28	15:03:04	686871	5f130f09fb14da018aa6bd19	715488197	1	main_z	11	advance_on_keypress_ZEE	142	stimuli_distractor_trianglediamonds.svg	stimuli_target_circletriangles.svg	9	yes	57	0	313
6.6.1	ios	2022-12-19	14:51:28	15:03:06	688590	5f130f09fb14da018aa6bd19	715488197	1	main_z	11	main_z	143	stimuli_distractor_trianglediamonds.svg	stimuli_target_trianglesquares.svg	26	yes	44	1	690
6.6.1	ios	2022-12-19	14:51:28	15:03:06	688590	5f130f09fb14da018aa6bd19	715488197	1	main_z	11	advance_on_keypress_ZEE	144	stimuli_distractor_trianglediamonds.svg	stimuli_target_trianglesquares.svg	26	yes	57	0	697
6.6.1	ios	2022-12-19	14:51:28	15:03:08	690918	5f130f09fb14da018aa6bd19	715488197	1	main_z	11	main_z	145	stimuli_distractor_trianglediamonds.svg	stimuli_target_diamondsquares.svg	28	yes	44	1	915
6.6.1	ios	2022-12-19	14:51:28	15:03:08	690918	5f130f09fb14da018aa6bd19	715488197	1	main_z	11	advance_on_keypress_ZEE	146	stimuli_distractor_trianglediamonds.svg	stimuli_target_diamondsquares.svg	28	yes	57	0	398
6.6.1	ios	2022-12-19	14:51:28	15:03:11	694042	5f130f09fb14da018aa6bd19	715488197	1	main_z	11	main_z	147	stimuli_target_circlediamonds.svg	stimuli_distractor_diamondtriangles.svg	6	yes	0	0	2000
6.6.1	ios	2022-12-19	14:51:28	15:03:11	694042	5f130f09fb14da018aa6bd19	715488197	1	main_z	11	advance_on_keypress_ZEE	148	stimuli_target_circlediamonds.svg	stimuli_distractor_diamondtriangles.svg	6	yes	57	0	623
6.6.1	ios	2022-12-19	14:51:28	15:03:13	695715	5f130f09fb14da018aa6bd19	715488197	1	main_z	11	main_z	149	stimuli_distractor_diamondtriangles.svg	stimuli_target_diamondcircles.svg	31	yes	44	1	355
6.6.1	ios	2022-12-19	14:51:28	15:03:13	695715	5f130f09fb14da018aa6bd19	715488197	1	main_z	11	advance_on_keypress_ZEE	150	stimuli_distractor_diamondtriangles.svg	stimuli_target_diamondcircles.svg	31	yes	57	0	262
6.6.1	ios	2022-12-19	14:51:28	15:03:16	698681	5f130f09fb14da018aa6bd19	715488197	1	main_z	11	main_z	151	stimuli_distractor_diamondtriangles.svg	stimuli_distractor_diamondtriangles.svg	39	no	0	1	2000
6.6.1	ios	2022-12-19	14:51:28	15:03:16	698681	5f130f09fb14da018aa6bd19	715488197	1	main_z	11	advance_on_keypress_ZEE	152	stimuli_distractor_diamondtriangles.svg	stimuli_distractor_diamondtriangles.svg	39	no	57	0	615
6.6.1	ios	2022-12-19	14:51:28	15:03:19	701985	5f130f09fb14da018aa6bd19	715488197	1	main_z	11	main_z	153	stimuli_distractor_trianglediamonds.svg	stimuli_distractor_trianglediamonds.svg	33	no	0	1	2000
6.6.1	ios	2022-12-19	14:51:28	15:03:19	701985	5f130f09fb14da018aa6bd19	715488197	1	main_z	11	advance_on_keypress_ZEE	154	stimuli_distractor_trianglediamonds.svg	stimuli_distractor_trianglediamonds.svg	33	no	57	0	239
6.6.1	ios	2022-12-19	14:51:28	15:03:20	703534	5f130f09fb14da018aa6bd19	715488197	1	main_z	11	main_z	155	stimuli_target_squaretriangles.svg	stimuli_distractor_diamondtriangles.svg	7	yes	44	1	631
6.6.1	ios	2022-12-19	14:51:28	15:03:20	703534	5f130f09fb14da018aa6bd19	715488197	1	main_z	11	advance_on_keypress_ZEE	156	stimuli_target_squaretriangles.svg	stimuli_distractor_diamondtriangles.svg	7	yes	57	0	386
6.6.1	ios	2022-12-19	14:51:28	15:03:24	706642	5f130f09fb14da018aa6bd19	715488197	1	main_z	11	main_z	157	stimuli_distractor_diamondtriangles.svg	stimuli_distractor_diamondtriangles.svg	40	no	0	1	2000
6.6.1	ios	2022-12-19	14:51:28	15:03:24	706642	5f130f09fb14da018aa6bd19	715488197	1	main_z	11	advance_on_keypress_ZEE	158	stimuli_distractor_diamondtriangles.svg	stimuli_distractor_diamondtriangles.svg	40	no	57	0	239
6.6.1	ios	2022-12-19	14:51:28	15:03:26	708657	5f130f09fb14da018aa6bd19	715488197	1	main_z	11	main_z	159	stimuli_target_trianglesquares.svg	stimuli_distractor_diamondtriangles.svg	22	yes	44	1	1098
6.6.1	ios	2022-12-19	14:51:28	15:03:26	708657	5f130f09fb14da018aa6bd19	715488197	1	main_z	11	advance_on_keypress_ZEE	160	stimuli_target_trianglesquares.svg	stimuli_distractor_diamondtriangles.svg	22	yes	57	0	389