build	computer.platform	date	time	timestamp	time_elapsed_ms	subject	group	session	blockcode	blocknum	trialcode	trialnum	stimulus_left	stimulus_right	stim_index	target_present	response	correct	latency
6.6.1	win	2022-12-14	19:32:45	19:38:15	327305	5af309960eca060001b15b47	612812249	1	practice_slash	5	practice_slash	1	stimuli_distractor_diamondtriangles.svg	stimuli_target_diamondcircles.svg	8	yes	0	0	2000
6.6.1	win	2022-12-14	19:32:45	19:38:15	327305	5af309960eca060001b15b47	612812249	1	practice_slash	5	advance_on_keypress_SLASH	2	stimuli_distractor_diamondtriangles.svg	stimuli_target_diamondcircles.svg	8	yes	57	0	1010
6.6.1	win	2022-12-14	19:32:45	19:38:18	330648	5af309960eca060001b15b47	612812249	1	practice_slash	5	practice_slash	3	stimuli_target_circlediamonds.svg	stimuli_distractor_trianglediamonds.svg	4	yes	53	1	660
6.6.1	win	2022-12-14	19:32:45	19:38:18	330648	5af309960eca060001b15b47	612812249	1	practice_slash	5	advance_on_keypress_SLASH	4	stimuli_target_circlediamonds.svg	stimuli_distractor_trianglediamonds.svg	4	yes	57	0	585
6.6.1	win	2022-12-14	19:32:45	19:38:21	333271	5af309960eca060001b15b47	612812249	1	practice_slash	5	practice_slash	5	stimuli_target_circlediamonds.svg	stimuli_distractor_diamondtriangles.svg	1	yes	53	1	372
6.6.1	win	2022-12-14	19:32:45	19:38:21	333271	5af309960eca060001b15b47	612812249	1	practice_slash	5	advance_on_keypress_SLASH	6	stimuli_target_circlediamonds.svg	stimuli_distractor_diamondtriangles.svg	1	yes	57	0	378
6.6.1	win	2022-12-14	19:32:45	19:38:24	335898	5af309960eca060001b15b47	612812249	1	practice_slash	5	practice_slash	7	stimuli_distractor_trianglediamonds.svg	stimuli_target_diamondcircles.svg	12	yes	53	1	593
6.6.1	win	2022-12-14	19:32:45	19:38:24	335898	5af309960eca060001b15b47	612812249	1	practice_slash	5	advance_on_keypress_SLASH	8	stimuli_distractor_trianglediamonds.svg	stimuli_target_diamondcircles.svg	12	yes	57	0	295
6.6.1	win	2022-12-14	19:32:45	19:38:28	339855	5af309960eca060001b15b47	612812249	1	practice_slash	5	practice_slash	9	stimuli_distractor_trianglediamonds.svg	stimuli_target_circlediamonds.svg	10	yes	0	0	2000
6.6.1	win	2022-12-14	19:32:45	19:38:28	339855	5af309960eca060001b15b47	612812249	1	practice_slash	5	advance_on_keypress_SLASH	10	stimuli_distractor_trianglediamonds.svg	stimuli_target_circlediamonds.svg	10	yes	57	0	333
6.6.1	win	2022-12-14	19:32:45	19:38:30	342822	5af309960eca060001b15b47	612812249	1	practice_slash	5	practice_slash	11	stimuli_target_squarediamonds.svg	stimuli_distractor_diamondtriangles.svg	2	yes	53	1	984
6.6.1	win	2022-12-14	19:32:45	19:38:30	342822	5af309960eca060001b15b47	612812249	1	practice_slash	5	advance_on_keypress_SLASH	12	stimuli_target_squarediamonds.svg	stimuli_distractor_diamondtriangles.svg	2	yes	57	0	330
6.6.1	win	2022-12-14	19:32:45	19:38:34	346805	5af309960eca060001b15b47	612812249	1	practice_slash	5	practice_slash	13	stimuli_target_squarediamonds.svg	stimuli_distractor_trianglediamonds.svg	5	yes	0	0	2000
6.6.1	win	2022-12-14	19:32:45	19:38:34	346805	5af309960eca060001b15b47	612812249	1	practice_slash	5	advance_on_keypress_SLASH	14	stimuli_target_squarediamonds.svg	stimuli_distractor_trianglediamonds.svg	5	yes	57	0	1173
6.6.1	win	2022-12-14	19:32:45	19:38:38	350224	5af309960eca060001b15b47	612812249	1	practice_slash	5	practice_slash	15	stimuli_distractor_diamondtriangles.svg	stimuli_target_trianglecircles.svg	9	yes	53	1	586
6.6.1	win	2022-12-14	19:32:45	19:38:38	350224	5af309960eca060001b15b47	612812249	1	practice_slash	5	advance_on_keypress_SLASH	16	stimuli_distractor_diamondtriangles.svg	stimuli_target_trianglecircles.svg	9	yes	57	0	319
6.6.1	win	2022-12-14	19:32:45	19:38:41	353000	5af309960eca060001b15b47	612812249	1	practice_slash	5	practice_slash	17	stimuli_distractor_trianglediamonds.svg	stimuli_target_squarediamonds.svg	11	yes	53	1	795
6.6.1	win	2022-12-14	19:32:45	19:38:41	353000	5af309960eca060001b15b47	612812249	1	practice_slash	5	advance_on_keypress_SLASH	18	stimuli_distractor_trianglediamonds.svg	stimuli_target_squarediamonds.svg	11	yes	57	0	252
6.6.1	win	2022-12-14	19:32:45	19:38:45	356906	5af309960eca060001b15b47	612812249	1	practice_slash	5	practice_slash	19	stimuli_distractor_trianglediamonds.svg	stimuli_distractor_trianglediamonds.svg	15	no	0	1	2000
6.6.1	win	2022-12-14	19:32:45	19:38:45	356906	5af309960eca060001b15b47	612812249	1	practice_slash	5	advance_on_keypress_SLASH	20	stimuli_distractor_trianglediamonds.svg	stimuli_distractor_trianglediamonds.svg	15	no	57	0	370
6.6.1	win	2022-12-14	19:32:45	19:38:49	360922	5af309960eca060001b15b47	612812249	1	practice_slash	5	practice_slash	21	stimuli_distractor_diamondtriangles.svg	stimuli_distractor_trianglediamonds.svg	14	no	0	1	2000
6.6.1	win	2022-12-14	19:32:45	19:38:49	360922	5af309960eca060001b15b47	612812249	1	practice_slash	5	advance_on_keypress_SLASH	22	stimuli_distractor_diamondtriangles.svg	stimuli_distractor_trianglediamonds.svg	14	no	57	0	263
6.6.1	win	2022-12-14	19:32:45	19:38:52	364839	5af309960eca060001b15b47	612812249	1	practice_slash	5	practice_slash	23	stimuli_distractor_trianglediamonds.svg	stimuli_distractor_diamondtriangles.svg	16	no	0	1	2000
6.6.1	win	2022-12-14	19:32:45	19:38:52	364839	5af309960eca060001b15b47	612812249	1	practice_slash	5	advance_on_keypress_SLASH	24	stimuli_distractor_trianglediamonds.svg	stimuli_distractor_diamondtriangles.svg	16	no	57	0	311
6.6.1	win	2022-12-14	19:32:45	19:38:55	367791	5af309960eca060001b15b47	612812249	1	practice_slash	5	practice_slash	25	stimuli_distractor_diamondtriangles.svg	stimuli_target_circletriangles.svg	7	yes	53	1	985
6.6.1	win	2022-12-14	19:32:45	19:38:55	367791	5af309960eca060001b15b47	612812249	1	practice_slash	5	advance_on_keypress_SLASH	26	stimuli_distractor_diamondtriangles.svg	stimuli_target_circletriangles.svg	7	yes	57	0	436
6.6.1	win	2022-12-14	19:32:45	19:39:00	371873	5af309960eca060001b15b47	612812249	1	practice_slash	5	practice_slash	27	stimuli_distractor_diamondtriangles.svg	stimuli_distractor_diamondtriangles.svg	13	no	0	1	2000
6.6.1	win	2022-12-14	19:32:45	19:39:00	371873	5af309960eca060001b15b47	612812249	1	practice_slash	5	advance_on_keypress_SLASH	28	stimuli_distractor_diamondtriangles.svg	stimuli_distractor_diamondtriangles.svg	13	no	57	0	467
6.6.1	win	2022-12-14	19:32:45	19:39:03	375325	5af309960eca060001b15b47	612812249	1	practice_slash	5	practice_slash	29	stimuli_target_diamondsquares.svg	stimuli_distractor_diamondtriangles.svg	3	yes	53	1	1320
6.6.1	win	2022-12-14	19:32:45	19:39:03	375325	5af309960eca060001b15b47	612812249	1	practice_slash	5	advance_on_keypress_SLASH	30	stimuli_target_diamondsquares.svg	stimuli_distractor_diamondtriangles.svg	3	yes	57	0	320
6.6.1	win	2022-12-14	19:32:45	19:39:07	379261	5af309960eca060001b15b47	612812249	1	practice_slash	5	practice_slash	31	stimuli_target_diamondsquares.svg	stimuli_distractor_trianglediamonds.svg	6	yes	53	1	1971
6.6.1	win	2022-12-14	19:32:45	19:39:07	379261	5af309960eca060001b15b47	612812249	1	practice_slash	5	advance_on_keypress_SLASH	32	stimuli_target_diamondsquares.svg	stimuli_distractor_trianglediamonds.svg	6	yes	57	0	327
6.6.1	win	2022-12-14	19:32:45	19:39:17	389057	5af309960eca060001b15b47	612812249	1	main_slash	7	main_slash	1	stimuli_distractor_trianglediamonds.svg	stimuli_target_squaretriangles.svg	11	yes	53	1	537
6.6.1	win	2022-12-14	19:32:45	19:39:17	389057	5af309960eca060001b15b47	612812249	1	main_slash	7	advance_on_keypress_SLASH	2	stimuli_distractor_trianglediamonds.svg	stimuli_target_squaretriangles.svg	11	yes	57	0	1101
6.6.1	win	2022-12-14	19:32:45	19:39:19	391212	5af309960eca060001b15b47	612812249	1	main_slash	7	main_slash	3	stimuli_target_circlediamonds.svg	stimuli_distractor_trianglediamonds.svg	2	yes	53	1	409
6.6.1	win	2022-12-14	19:32:45	19:39:19	391212	5af309960eca060001b15b47	612812249	1	main_slash	7	advance_on_keypress_SLASH	4	stimuli_target_circlediamonds.svg	stimuli_distractor_trianglediamonds.svg	2	yes	57	0	450
6.6.1	win	2022-12-14	19:32:45	19:39:20	392768	5af309960eca060001b15b47	612812249	1	main_slash	7	main_slash	5	stimuli_distractor_trianglediamonds.svg	stimuli_target_circlediamonds.svg	10	yes	53	1	464
6.6.1	win	2022-12-14	19:32:45	19:39:20	392768	5af309960eca060001b15b47	612812249	1	main_slash	7	advance_on_keypress_SLASH	6	stimuli_distractor_trianglediamonds.svg	stimuli_target_circlediamonds.svg	10	yes	57	0	526
6.6.1	win	2022-12-14	19:32:45	19:39:22	394453	5af309960eca060001b15b47	612812249	1	main_slash	7	main_slash	7	stimuli_target_trianglesquares.svg	stimuli_distractor_trianglediamonds.svg	18	yes	53	1	515
6.6.1	win	2022-12-14	19:32:45	19:39:22	394453	5af309960eca060001b15b47	612812249	1	main_slash	7	advance_on_keypress_SLASH	8	stimuli_target_trianglesquares.svg	stimuli_distractor_trianglediamonds.svg	18	yes	57	0	326
6.6.1	win	2022-12-14	19:32:45	19:39:24	396142	5af309960eca060001b15b47	612812249	1	main_slash	7	main_slash	9	stimuli_distractor_diamondtriangles.svg	stimuli_target_circletriangles.svg	13	yes	53	1	705
6.6.1	win	2022-12-14	19:32:45	19:39:24	396142	5af309960eca060001b15b47	612812249	1	main_slash	7	advance_on_keypress_SLASH	10	stimuli_distractor_diamondtriangles.svg	stimuli_target_circletriangles.svg	13	yes	57	0	301
6.6.1	win	2022-12-14	19:32:45	19:39:25	397606	5af309960eca060001b15b47	612812249	1	main_slash	7	main_slash	11	stimuli_distractor_diamondtriangles.svg	stimuli_target_trianglesquares.svg	30	yes	53	1	517
6.6.1	win	2022-12-14	19:32:45	19:39:25	397606	5af309960eca060001b15b47	612812249	1	main_slash	7	advance_on_keypress_SLASH	12	stimuli_distractor_diamondtriangles.svg	stimuli_target_trianglesquares.svg	30	yes	57	0	296
6.6.1	win	2022-12-14	19:32:45	19:39:27	399121	5af309960eca060001b15b47	612812249	1	main_slash	7	main_slash	13	stimuli_target_diamondcircles.svg	stimuli_distractor_diamondtriangles.svg	23	yes	53	1	567
6.6.1	win	2022-12-14	19:32:45	19:39:27	399121	5af309960eca060001b15b47	612812249	1	main_slash	7	advance_on_keypress_SLASH	14	stimuli_target_diamondcircles.svg	stimuli_distractor_diamondtriangles.svg	23	yes	57	0	302
6.6.1	win	2022-12-14	19:32:45	19:39:28	400696	5af309960eca060001b15b47	612812249	1	main_slash	7	main_slash	15	stimuli_target_trianglecircles.svg	stimuli_distractor_diamondtriangles.svg	21	yes	53	1	626
6.6.1	win	2022-12-14	19:32:45	19:39:28	400696	5af309960eca060001b15b47	612812249	1	main_slash	7	advance_on_keypress_SLASH	16	stimuli_target_trianglecircles.svg	stimuli_distractor_diamondtriangles.svg	21	yes	57	0	269
6.6.1	win	2022-12-14	19:32:45	19:39:30	402361	5af309960eca060001b15b47	612812249	1	main_slash	7	main_slash	17	stimuli_distractor_trianglediamonds.svg	stimuli_target_circletriangles.svg	9	yes	53	1	758
6.6.1	win	2022-12-14	19:32:45	19:39:30	402361	5af309960eca060001b15b47	612812249	1	main_slash	7	advance_on_keypress_SLASH	18	stimuli_distractor_trianglediamonds.svg	stimuli_target_circletriangles.svg	9	yes	57	0	319
6.6.1	win	2022-12-14	19:32:45	19:39:32	403864	5af309960eca060001b15b47	612812249	1	main_slash	7	main_slash	19	stimuli_target_squaretriangles.svg	stimuli_distractor_trianglediamonds.svg	3	yes	53	1	542
6.6.1	win	2022-12-14	19:32:45	19:39:32	403864	5af309960eca060001b15b47	612812249	1	main_slash	7	advance_on_keypress_SLASH	20	stimuli_target_squaretriangles.svg	stimuli_distractor_trianglediamonds.svg	3	yes	57	0	319
6.6.1	win	2022-12-14	19:32:45	19:39:34	406821	5af309960eca060001b15b47	612812249	1	main_slash	7	main_slash	21	stimuli_distractor_diamondtriangles.svg	stimuli_target_squaretriangles.svg	15	yes	0	0	2000
6.6.1	win	2022-12-14	19:32:45	19:39:34	406821	5af309960eca060001b15b47	612812249	1	main_slash	7	advance_on_keypress_SLASH	22	stimuli_distractor_diamondtriangles.svg	stimuli_target_squaretriangles.svg	15	yes	57	0	335
6.6.1	win	2022-12-14	19:32:45	19:39:37	409804	5af309960eca060001b15b47	612812249	1	main_slash	7	main_slash	23	stimuli_distractor_trianglediamonds.svg	stimuli_distractor_trianglediamonds.svg	34	no	0	1	2000
6.6.1	win	2022-12-14	19:32:45	19:39:37	409804	5af309960eca060001b15b47	612812249	1	main_slash	7	advance_on_keypress_SLASH	24	stimuli_distractor_trianglediamonds.svg	stimuli_distractor_trianglediamonds.svg	34	no	57	0	469
6.6.1	win	2022-12-14	19:32:45	19:39:39	411388	5af309960eca060001b15b47	612812249	1	main_slash	7	main_slash	25	stimuli_target_trianglecircles.svg	stimuli_distractor_trianglediamonds.svg	17	yes	53	1	468
6.6.1	win	2022-12-14	19:32:45	19:39:39	411388	5af309960eca060001b15b47	612812249	1	main_slash	7	advance_on_keypress_SLASH	26	stimuli_target_trianglecircles.svg	stimuli_distractor_trianglediamonds.svg	17	yes	57	0	317
6.6.1	win	2022-12-14	19:32:45	19:39:41	413766	5af309960eca060001b15b47	612812249	1	main_slash	7	main_slash	27	stimuli_distractor_trianglediamonds.svg	stimuli_target_diamondsquares.svg	28	yes	53	1	1413
6.6.1	win	2022-12-14	19:32:45	19:39:41	413766	5af309960eca060001b15b47	612812249	1	main_slash	7	advance_on_keypress_SLASH	28	stimuli_distractor_trianglediamonds.svg	stimuli_target_diamondsquares.svg	28	yes	57	0	251
6.6.1	win	2022-12-14	19:32:45	19:39:43	415272	5af309960eca060001b15b47	612812249	1	main_slash	7	main_slash	29	stimuli_target_circletriangles.svg	stimuli_distractor_trianglediamonds.svg	1	yes	53	1	602
6.6.1	win	2022-12-14	19:32:45	19:39:43	415272	5af309960eca060001b15b47	612812249	1	main_slash	7	advance_on_keypress_SLASH	30	stimuli_target_circletriangles.svg	stimuli_distractor_trianglediamonds.svg	1	yes	57	0	235
6.6.1	win	2022-12-14	19:32:45	19:39:45	417081	5af309960eca060001b15b47	612812249	1	main_slash	7	main_slash	31	stimuli_distractor_diamondtriangles.svg	stimuli_target_trianglecircles.svg	29	yes	53	1	927
6.6.1	win	2022-12-14	19:32:45	19:39:45	417081	5af309960eca060001b15b47	612812249	1	main_slash	7	advance_on_keypress_SLASH	32	stimuli_distractor_diamondtriangles.svg	stimuli_target_trianglecircles.svg	29	yes	57	0	286
6.6.1	win	2022-12-14	19:32:45	19:39:46	418563	5af309960eca060001b15b47	612812249	1	main_slash	7	main_slash	33	stimuli_target_trianglesquares.svg	stimuli_distractor_diamondtriangles.svg	22	yes	53	1	559
6.6.1	win	2022-12-14	19:32:45	19:39:46	418563	5af309960eca060001b15b47	612812249	1	main_slash	7	advance_on_keypress_SLASH	34	stimuli_target_trianglesquares.svg	stimuli_distractor_diamondtriangles.svg	22	yes	57	0	252
6.6.1	win	2022-12-14	19:32:45	19:39:49	421454	5af309960eca060001b15b47	612812249	1	main_slash	7	main_slash	35	stimuli_distractor_diamondtriangles.svg	stimuli_distractor_diamondtriangles.svg	39	no	0	1	2000
6.6.1	win	2022-12-14	19:32:45	19:39:49	421454	5af309960eca060001b15b47	612812249	1	main_slash	7	advance_on_keypress_SLASH	36	stimuli_distractor_diamondtriangles.svg	stimuli_distractor_diamondtriangles.svg	39	no	57	0	304
6.6.1	win	2022-12-14	19:32:45	19:39:51	422889	5af309960eca060001b15b47	612812249	1	main_slash	7	main_slash	37	stimuli_distractor_diamondtriangles.svg	stimuli_target_diamondcircles.svg	31	yes	53	1	484
6.6.1	win	2022-12-14	19:32:45	19:39:51	422889	5af309960eca060001b15b47	612812249	1	main_slash	7	advance_on_keypress_SLASH	38	stimuli_distractor_diamondtriangles.svg	stimuli_target_diamondcircles.svg	31	yes	57	0	451
6.6.1	win	2022-12-14	19:32:45	19:39:52	424656	5af309960eca060001b15b47	612812249	1	main_slash	7	main_slash	39	stimuli_distractor_diamondtriangles.svg	stimuli_target_diamondsquares.svg	32	yes	53	1	669
6.6.1	win	2022-12-14	19:32:45	19:39:52	424656	5af309960eca060001b15b47	612812249	1	main_slash	7	advance_on_keypress_SLASH	40	stimuli_distractor_diamondtriangles.svg	stimuli_target_diamondsquares.svg	32	yes	57	0	210
6.6.1	win	2022-12-14	19:32:45	19:39:55	427521	5af309960eca060001b15b47	612812249	1	main_slash	7	main_slash	41	stimuli_distractor_trianglediamonds.svg	stimuli_distractor_diamondtriangles.svg	36	no	0	1	2000
6.6.1	win	2022-12-14	19:32:45	19:39:55	427521	5af309960eca060001b15b47	612812249	1	main_slash	7	advance_on_keypress_SLASH	42	stimuli_distractor_trianglediamonds.svg	stimuli_distractor_diamondtriangles.svg	36	no	57	0	429
6.6.1	win	2022-12-14	19:32:45	19:39:57	429157	5af309960eca060001b15b47	612812249	1	main_slash	7	main_slash	43	stimuli_distractor_trianglediamonds.svg	stimuli_target_trianglesquares.svg	26	yes	53	1	552
6.6.1	win	2022-12-14	19:32:45	19:39:57	429157	5af309960eca060001b15b47	612812249	1	main_slash	7	advance_on_keypress_SLASH	44	stimuli_distractor_trianglediamonds.svg	stimuli_target_trianglesquares.svg	26	yes	57	0	431
6.6.1	win	2022-12-14	19:32:45	19:39:58	430813	5af309960eca060001b15b47	612812249	1	main_slash	7	main_slash	45	stimuli_target_diamondsquares.svg	stimuli_distractor_diamondtriangles.svg	24	yes	53	1	576
6.6.1	win	2022-12-14	19:32:45	19:39:58	430813	5af309960eca060001b15b47	612812249	1	main_slash	7	advance_on_keypress_SLASH	46	stimuli_target_diamondsquares.svg	stimuli_distractor_diamondtriangles.svg	24	yes	57	0	235
6.6.1	win	2022-12-14	19:32:45	19:40:00	432308	5af309960eca060001b15b47	612812249	1	main_slash	7	main_slash	47	stimuli_target_diamondsquares.svg	stimuli_distractor_trianglediamonds.svg	20	yes	53	1	620
6.6.1	win	2022-12-14	19:32:45	19:40:00	432308	5af309960eca060001b15b47	612812249	1	main_slash	7	advance_on_keypress_SLASH	48	stimuli_target_diamondsquares.svg	stimuli_distractor_trianglediamonds.svg	20	yes	57	0	210
6.6.1	win	2022-12-14	19:32:45	19:40:02	434265	5af309960eca060001b15b47	612812249	1	main_slash	7	main_slash	49	stimuli_target_squarediamonds.svg	stimuli_distractor_trianglediamonds.svg	4	yes	53	1	1110
6.6.1	win	2022-12-14	19:32:45	19:40:02	434265	5af309960eca060001b15b47	612812249	1	main_slash	7	advance_on_keypress_SLASH	50	stimuli_target_squarediamonds.svg	stimuli_distractor_trianglediamonds.svg	4	yes	57	0	234
6.6.1	win	2022-12-14	19:32:45	19:40:04	435900	5af309960eca060001b15b47	612812249	1	main_slash	7	main_slash	51	stimuli_target_circletriangles.svg	stimuli_distractor_diamondtriangles.svg	5	yes	53	1	762
6.6.1	win	2022-12-14	19:32:45	19:40:04	435900	5af309960eca060001b15b47	612812249	1	main_slash	7	advance_on_keypress_SLASH	52	stimuli_target_circletriangles.svg	stimuli_distractor_diamondtriangles.svg	5	yes	57	0	287
6.6.1	win	2022-12-14	19:32:45	19:40:05	437581	5af309960eca060001b15b47	612812249	1	main_slash	7	main_slash	53	stimuli_distractor_diamondtriangles.svg	stimuli_distractor_trianglediamonds.svg	38	no	53	0	744
6.6.1	win	2022-12-14	19:32:45	19:40:05	437581	5af309960eca060001b15b47	612812249	1	main_slash	7	advance_on_keypress_SLASH	54	stimuli_distractor_diamondtriangles.svg	stimuli_distractor_trianglediamonds.svg	38	no	57	0	209
6.6.1	win	2022-12-14	19:32:45	19:40:07	439331	5af309960eca060001b15b47	612812249	1	main_slash	7	main_slash	55	stimuli_distractor_trianglediamonds.svg	stimuli_distractor_diamondtriangles.svg	35	no	53	0	893
6.6.1	win	2022-12-14	19:32:45	19:40:07	439331	5af309960eca060001b15b47	612812249	1	main_slash	7	advance_on_keypress_SLASH	56	stimuli_distractor_trianglediamonds.svg	stimuli_distractor_diamondtriangles.svg	35	no	57	0	244
6.6.1	win	2022-12-14	19:32:45	19:40:09	441172	5af309960eca060001b15b47	612812249	1	main_slash	7	main_slash	57	stimuli_target_circlediamonds.svg	stimuli_distractor_diamondtriangles.svg	6	yes	53	1	967
6.6.1	win	2022-12-14	19:32:45	19:40:09	441172	5af309960eca060001b15b47	612812249	1	main_slash	7	advance_on_keypress_SLASH	58	stimuli_target_circlediamonds.svg	stimuli_distractor_diamondtriangles.svg	6	yes	57	0	240
6.6.1	win	2022-12-14	19:32:45	19:40:10	442616	5af309960eca060001b15b47	612812249	1	main_slash	7	main_slash	59	stimuli_distractor_trianglediamonds.svg	stimuli_target_diamondcircles.svg	27	yes	53	1	561
6.6.1	win	2022-12-14	19:32:45	19:40:10	442616	5af309960eca060001b15b47	612812249	1	main_slash	7	advance_on_keypress_SLASH	60	stimuli_distractor_trianglediamonds.svg	stimuli_target_diamondcircles.svg	27	yes	57	0	218
6.6.1	win	2022-12-14	19:32:45	19:40:13	445489	5af309960eca060001b15b47	612812249	1	main_slash	7	main_slash	61	stimuli_distractor_diamondtriangles.svg	stimuli_target_circlediamonds.svg	14	yes	0	0	2000
6.6.1	win	2022-12-14	19:32:45	19:40:13	445489	5af309960eca060001b15b47	612812249	1	main_slash	7	advance_on_keypress_SLASH	62	stimuli_distractor_diamondtriangles.svg	stimuli_target_circlediamonds.svg	14	yes	57	0	390
6.6.1	win	2022-12-14	19:32:45	19:40:15	447738	5af309960eca060001b15b47	612812249	1	main_slash	7	main_slash	63	stimuli_distractor_trianglediamonds.svg	stimuli_target_squarediamonds.svg	12	yes	53	1	1217
6.6.1	win	2022-12-14	19:32:45	19:40:15	447738	5af309960eca060001b15b47	612812249	1	main_slash	7	advance_on_keypress_SLASH	64	stimuli_distractor_trianglediamonds.svg	stimuli_target_squarediamonds.svg	12	yes	57	0	227
6.6.1	win	2022-12-14	19:32:45	19:40:17	449145	5af309960eca060001b15b47	612812249	1	main_slash	7	main_slash	65	stimuli_target_diamondcircles.svg	stimuli_distractor_trianglediamonds.svg	19	yes	53	1	523
6.6.1	win	2022-12-14	19:32:45	19:40:17	449145	5af309960eca060001b15b47	612812249	1	main_slash	7	advance_on_keypress_SLASH	66	stimuli_target_diamondcircles.svg	stimuli_distractor_trianglediamonds.svg	19	yes	57	0	195
6.6.1	win	2022-12-14	19:32:45	19:40:20	451988	5af309960eca060001b15b47	612812249	1	main_slash	7	main_slash	67	stimuli_distractor_trianglediamonds.svg	stimuli_distractor_trianglediamonds.svg	33	no	0	1	2000
6.6.1	win	2022-12-14	19:32:45	19:40:20	451988	5af309960eca060001b15b47	612812249	1	main_slash	7	advance_on_keypress_SLASH	68	stimuli_distractor_trianglediamonds.svg	stimuli_distractor_trianglediamonds.svg	33	no	57	0	308
6.6.1	win	2022-12-14	19:32:45	19:40:21	453430	5af309960eca060001b15b47	612812249	1	main_slash	7	main_slash	69	stimuli_target_squarediamonds.svg	stimuli_distractor_diamondtriangles.svg	8	yes	53	1	491
6.6.1	win	2022-12-14	19:32:45	19:40:21	453430	5af309960eca060001b15b47	612812249	1	main_slash	7	advance_on_keypress_SLASH	70	stimuli_target_squarediamonds.svg	stimuli_distractor_diamondtriangles.svg	8	yes	57	0	235
6.6.1	win	2022-12-14	19:32:45	19:40:23	455391	5af309960eca060001b15b47	612812249	1	main_slash	7	main_slash	71	stimuli_distractor_diamondtriangles.svg	stimuli_distractor_diamondtriangles.svg	40	no	53	0	1086
6.6.1	win	2022-12-14	19:32:45	19:40:23	455391	5af309960eca060001b15b47	612812249	1	main_slash	7	advance_on_keypress_SLASH	72	stimuli_distractor_diamondtriangles.svg	stimuli_distractor_diamondtriangles.svg	40	no	57	0	435
6.6.1	win	2022-12-14	19:32:45	19:40:25	457012	5af309960eca060001b15b47	612812249	1	main_slash	7	main_slash	73	stimuli_target_squaretriangles.svg	stimuli_distractor_diamondtriangles.svg	7	yes	53	1	541
6.6.1	win	2022-12-14	19:32:45	19:40:25	457012	5af309960eca060001b15b47	612812249	1	main_slash	7	advance_on_keypress_SLASH	74	stimuli_target_squaretriangles.svg	stimuli_distractor_diamondtriangles.svg	7	yes	57	0	212
6.6.1	win	2022-12-14	19:32:45	19:40:28	459872	5af309960eca060001b15b47	612812249	1	main_slash	7	main_slash	75	stimuli_distractor_diamondtriangles.svg	stimuli_distractor_trianglediamonds.svg	37	no	0	1	2000
6.6.1	win	2022-12-14	19:32:45	19:40:28	459872	5af309960eca060001b15b47	612812249	1	main_slash	7	advance_on_keypress_SLASH	76	stimuli_distractor_diamondtriangles.svg	stimuli_distractor_trianglediamonds.svg	37	no	57	0	323
6.6.1	win	2022-12-14	19:32:45	19:40:29	461333	5af309960eca060001b15b47	612812249	1	main_slash	7	main_slash	77	stimuli_distractor_trianglediamonds.svg	stimuli_target_trianglecircles.svg	25	yes	53	1	494
6.6.1	win	2022-12-14	19:32:45	19:40:29	461333	5af309960eca060001b15b47	612812249	1	main_slash	7	advance_on_keypress_SLASH	78	stimuli_distractor_trianglediamonds.svg	stimuli_target_trianglecircles.svg	25	yes	57	0	227
6.6.1	win	2022-12-14	19:32:45	19:40:31	463171	5af309960eca060001b15b47	612812249	1	main_slash	7	main_slash	79	stimuli_distractor_diamondtriangles.svg	stimuli_target_squarediamonds.svg	16	yes	53	1	966
6.6.1	win	2022-12-14	19:32:45	19:40:31	463171	5af309960eca060001b15b47	612812249	1	main_slash	7	advance_on_keypress_SLASH	80	stimuli_distractor_diamondtriangles.svg	stimuli_target_squarediamonds.svg	16	yes	57	0	157
6.6.1	win	2022-12-14	19:32:45	19:40:33	464924	5af309960eca060001b15b47	612812249	1	main_slash	7	main_slash	81	stimuli_target_squaretriangles.svg	stimuli_distractor_diamondtriangles.svg	7	yes	53	1	953
6.6.1	win	2022-12-14	19:32:45	19:40:33	464924	5af309960eca060001b15b47	612812249	1	main_slash	7	advance_on_keypress_SLASH	82	stimuli_target_squaretriangles.svg	stimuli_distractor_diamondtriangles.svg	7	yes	57	0	175
6.6.1	win	2022-12-14	19:32:45	19:40:34	466392	5af309960eca060001b15b47	612812249	1	main_slash	7	main_slash	83	stimuli_distractor_diamondtriangles.svg	stimuli_target_diamondcircles.svg	31	yes	53	1	653
6.6.1	win	2022-12-14	19:32:45	19:40:34	466392	5af309960eca060001b15b47	612812249	1	main_slash	7	advance_on_keypress_SLASH	84	stimuli_distractor_diamondtriangles.svg	stimuli_target_diamondcircles.svg	31	yes	57	0	151
6.6.1	win	2022-12-14	19:32:45	19:40:35	467800	5af309960eca060001b15b47	612812249	1	main_slash	7	main_slash	85	stimuli_distractor_diamondtriangles.svg	stimuli_target_squarediamonds.svg	16	yes	53	1	611
6.6.1	win	2022-12-14	19:32:45	19:40:35	467800	5af309960eca060001b15b47	612812249	1	main_slash	7	advance_on_keypress_SLASH	86	stimuli_distractor_diamondtriangles.svg	stimuli_target_squarediamonds.svg	16	yes	57	0	202
6.6.1	win	2022-12-14	19:32:45	19:40:37	469107	5af309960eca060001b15b47	612812249	1	main_slash	7	main_slash	87	stimuli_target_circlediamonds.svg	stimuli_distractor_diamondtriangles.svg	6	yes	53	1	452
6.6.1	win	2022-12-14	19:32:45	19:40:37	469107	5af309960eca060001b15b47	612812249	1	main_slash	7	advance_on_keypress_SLASH	88	stimuli_target_circlediamonds.svg	stimuli_distractor_diamondtriangles.svg	6	yes	57	0	268
6.6.1	win	2022-12-14	19:32:45	19:40:38	470683	5af309960eca060001b15b47	612812249	1	main_slash	7	main_slash	89	stimuli_distractor_trianglediamonds.svg	stimuli_target_circletriangles.svg	9	yes	53	1	661
6.6.1	win	2022-12-14	19:32:45	19:40:38	470683	5af309960eca060001b15b47	612812249	1	main_slash	7	advance_on_keypress_SLASH	90	stimuli_distractor_trianglediamonds.svg	stimuli_target_circletriangles.svg	9	yes	57	0	226
6.6.1	win	2022-12-14	19:32:45	19:40:41	473556	5af309960eca060001b15b47	612812249	1	main_slash	7	main_slash	91	stimuli_distractor_diamondtriangles.svg	stimuli_distractor_trianglediamonds.svg	38	no	0	1	2000
6.6.1	win	2022-12-14	19:32:45	19:40:41	473556	5af309960eca060001b15b47	612812249	1	main_slash	7	advance_on_keypress_SLASH	92	stimuli_distractor_diamondtriangles.svg	stimuli_distractor_trianglediamonds.svg	38	no	57	0	445
6.6.1	win	2022-12-14	19:32:45	19:40:44	476656	5af309960eca060001b15b47	612812249	1	main_slash	7	main_slash	93	stimuli_distractor_trianglediamonds.svg	stimuli_distractor_diamondtriangles.svg	35	no	0	1	2000
6.6.1	win	2022-12-14	19:32:45	19:40:44	476656	5af309960eca060001b15b47	612812249	1	main_slash	7	advance_on_keypress_SLASH	94	stimuli_distractor_trianglediamonds.svg	stimuli_distractor_diamondtriangles.svg	35	no	57	0	328
6.6.1	win	2022-12-14	19:32:45	19:40:46	478225	5af309960eca060001b15b47	612812249	1	main_slash	7	main_slash	95	stimuli_distractor_diamondtriangles.svg	stimuli_target_squaretriangles.svg	15	yes	53	1	587
6.6.1	win	2022-12-14	19:32:45	19:40:46	478225	5af309960eca060001b15b47	612812249	1	main_slash	7	advance_on_keypress_SLASH	96	stimuli_distractor_diamondtriangles.svg	stimuli_target_squaretriangles.svg	15	yes	57	0	229
6.6.1	win	2022-12-14	19:32:45	19:40:49	481105	5af309960eca060001b15b47	612812249	1	main_slash	7	main_slash	97	stimuli_distractor_diamondtriangles.svg	stimuli_distractor_trianglediamonds.svg	37	no	0	1	2000
6.6.1	win	2022-12-14	19:32:45	19:40:49	481105	5af309960eca060001b15b47	612812249	1	main_slash	7	advance_on_keypress_SLASH	98	stimuli_distractor_diamondtriangles.svg	stimuli_distractor_trianglediamonds.svg	37	no	57	0	302
6.6.1	win	2022-12-14	19:32:45	19:40:52	484056	5af309960eca060001b15b47	612812249	1	main_slash	7	main_slash	99	stimuli_distractor_diamondtriangles.svg	stimuli_distractor_diamondtriangles.svg	39	no	0	1	2000
6.6.1	win	2022-12-14	19:32:45	19:40:52	484056	5af309960eca060001b15b47	612812249	1	main_slash	7	advance_on_keypress_SLASH	100	stimuli_distractor_diamondtriangles.svg	stimuli_distractor_diamondtriangles.svg	39	no	57	0	291
6.6.1	win	2022-12-14	19:32:45	19:40:53	485572	5af309960eca060001b15b47	612812249	1	main_slash	7	main_slash	101	stimuli_target_circletriangles.svg	stimuli_distractor_diamondtriangles.svg	5	yes	53	1	584
6.6.1	win	2022-12-14	19:32:45	19:40:53	485572	5af309960eca060001b15b47	612812249	1	main_slash	7	advance_on_keypress_SLASH	102	stimuli_target_circletriangles.svg	stimuli_distractor_diamondtriangles.svg	5	yes	57	0	220
6.6.1	win	2022-12-14	19:32:45	19:40:55	486902	5af309960eca060001b15b47	612812249	1	main_slash	7	main_slash	103	stimuli_target_squarediamonds.svg	stimuli_distractor_diamondtriangles.svg	8	yes	53	1	464
6.6.1	win	2022-12-14	19:32:45	19:40:55	486902	5af309960eca060001b15b47	612812249	1	main_slash	7	advance_on_keypress_SLASH	104	stimuli_target_squarediamonds.svg	stimuli_distractor_diamondtriangles.svg	8	yes	57	0	209
6.6.1	win	2022-12-14	19:32:45	19:40:56	488178	5af309960eca060001b15b47	612812249	1	main_slash	7	main_slash	105	stimuli_target_trianglecircles.svg	stimuli_distractor_diamondtriangles.svg	21	yes	53	1	423
6.6.1	win	2022-12-14	19:32:45	19:40:56	488178	5af309960eca060001b15b47	612812249	1	main_slash	7	advance_on_keypress_SLASH	106	stimuli_target_trianglecircles.svg	stimuli_distractor_diamondtriangles.svg	21	yes	57	0	239
6.6.1	win	2022-12-14	19:32:45	19:40:57	489503	5af309960eca060001b15b47	612812249	1	main_slash	7	main_slash	107	stimuli_target_trianglesquares.svg	stimuli_distractor_trianglediamonds.svg	18	yes	53	1	448
6.6.1	win	2022-12-14	19:32:45	19:40:57	489503	5af309960eca060001b15b47	612812249	1	main_slash	7	advance_on_keypress_SLASH	108	stimuli_target_trianglesquares.svg	stimuli_distractor_trianglediamonds.svg	18	yes	57	0	194
6.6.1	win	2022-12-14	19:32:45	19:40:59	490855	5af309960eca060001b15b47	612812249	1	main_slash	7	main_slash	109	stimuli_distractor_diamondtriangles.svg	stimuli_target_circlediamonds.svg	14	yes	53	1	505
6.6.1	win	2022-12-14	19:32:45	19:40:59	490855	5af309960eca060001b15b47	612812249	1	main_slash	7	advance_on_keypress_SLASH	110	stimuli_distractor_diamondtriangles.svg	stimuli_target_circlediamonds.svg	14	yes	57	0	236
6.6.1	win	2022-12-14	19:32:45	19:41:00	492515	5af309960eca060001b15b47	612812249	1	main_slash	7	main_slash	111	stimuli_distractor_trianglediamonds.svg	stimuli_target_diamondcircles.svg	27	yes	53	1	775
6.6.1	win	2022-12-14	19:32:45	19:41:00	492515	5af309960eca060001b15b47	612812249	1	main_slash	7	advance_on_keypress_SLASH	112	stimuli_distractor_trianglediamonds.svg	stimuli_target_diamondcircles.svg	27	yes	57	0	168
6.6.1	win	2022-12-14	19:32:45	19:41:01	493807	5af309960eca060001b15b47	612812249	1	main_slash	7	main_slash	113	stimuli_distractor_trianglediamonds.svg	stimuli_target_squaretriangles.svg	11	yes	53	1	485
6.6.1	win	2022-12-14	19:32:45	19:41:01	493807	5af309960eca060001b15b47	612812249	1	main_slash	7	advance_on_keypress_SLASH	114	stimuli_distractor_trianglediamonds.svg	stimuli_target_squaretriangles.svg	11	yes	57	0	234
6.6.1	win	2022-12-14	19:32:45	19:41:03	495224	5af309960eca060001b15b47	612812249	1	main_slash	7	main_slash	115	stimuli_target_squaretriangles.svg	stimuli_distractor_trianglediamonds.svg	3	yes	53	1	535
6.6.1	win	2022-12-14	19:32:45	19:41:03	495224	5af309960eca060001b15b47	612812249	1	main_slash	7	advance_on_keypress_SLASH	116	stimuli_target_squaretriangles.svg	stimuli_distractor_trianglediamonds.svg	3	yes	57	0	222
6.6.1	win	2022-12-14	19:32:45	19:41:04	496614	5af309960eca060001b15b47	612812249	1	main_slash	7	main_slash	117	stimuli_target_squarediamonds.svg	stimuli_distractor_trianglediamonds.svg	4	yes	53	1	525
6.6.1	win	2022-12-14	19:32:45	19:41:04	496614	5af309960eca060001b15b47	612812249	1	main_slash	7	advance_on_keypress_SLASH	118	stimuli_target_squarediamonds.svg	stimuli_distractor_trianglediamonds.svg	4	yes	57	0	207
6.6.1	win	2022-12-14	19:32:45	19:41:06	497985	5af309960eca060001b15b47	612812249	1	main_slash	7	main_slash	119	stimuli_target_trianglesquares.svg	stimuli_distractor_diamondtriangles.svg	22	yes	53	1	530
6.6.1	win	2022-12-14	19:32:45	19:41:06	497985	5af309960eca060001b15b47	612812249	1	main_slash	7	advance_on_keypress_SLASH	120	stimuli_target_trianglesquares.svg	stimuli_distractor_diamondtriangles.svg	22	yes	57	0	178
6.6.1	win	2022-12-14	19:32:45	19:41:07	499258	5af309960eca060001b15b47	612812249	1	main_slash	7	main_slash	121	stimuli_target_circlediamonds.svg	stimuli_distractor_trianglediamonds.svg	2	yes	53	1	436
6.6.1	win	2022-12-14	19:32:45	19:41:07	499258	5af309960eca060001b15b47	612812249	1	main_slash	7	advance_on_keypress_SLASH	122	stimuli_target_circlediamonds.svg	stimuli_distractor_trianglediamonds.svg	2	yes	57	0	194
6.6.1	win	2022-12-14	19:32:45	19:41:08	500483	5af309960eca060001b15b47	612812249	1	main_slash	7	main_slash	123	stimuli_target_circletriangles.svg	stimuli_distractor_trianglediamonds.svg	1	yes	53	1	393
6.6.1	win	2022-12-14	19:32:45	19:41:08	500483	5af309960eca060001b15b47	612812249	1	main_slash	7	advance_on_keypress_SLASH	124	stimuli_target_circletriangles.svg	stimuli_distractor_trianglediamonds.svg	1	yes	57	0	193
6.6.1	win	2022-12-14	19:32:45	19:41:10	501879	5af309960eca060001b15b47	612812249	1	main_slash	7	main_slash	125	stimuli_distractor_trianglediamonds.svg	stimuli_target_trianglesquares.svg	26	yes	53	1	540
6.6.1	win	2022-12-14	19:32:45	19:41:10	501879	5af309960eca060001b15b47	612812249	1	main_slash	7	advance_on_keypress_SLASH	126	stimuli_distractor_trianglediamonds.svg	stimuli_target_trianglesquares.svg	26	yes	57	0	194
6.6.1	win	2022-12-14	19:32:45	19:41:11	503117	5af309960eca060001b15b47	612812249	1	main_slash	7	main_slash	127	stimuli_distractor_trianglediamonds.svg	stimuli_target_circlediamonds.svg	10	yes	53	1	412
6.6.1	win	2022-12-14	19:32:45	19:41:11	503117	5af309960eca060001b15b47	612812249	1	main_slash	7	advance_on_keypress_SLASH	128	stimuli_distractor_trianglediamonds.svg	stimuli_target_circlediamonds.svg	10	yes	57	0	196
6.6.1	win	2022-12-14	19:32:45	19:41:12	504399	5af309960eca060001b15b47	612812249	1	main_slash	7	main_slash	129	stimuli_distractor_trianglediamonds.svg	stimuli_distractor_trianglediamonds.svg	34	no	53	0	427
6.6.1	win	2022-12-14	19:32:45	19:41:12	504399	5af309960eca060001b15b47	612812249	1	main_slash	7	advance_on_keypress_SLASH	130	stimuli_distractor_trianglediamonds.svg	stimuli_distractor_trianglediamonds.svg	34	no	57	0	535
6.6.1	win	2022-12-14	19:32:45	19:41:14	506135	5af309960eca060001b15b47	612812249	1	main_slash	7	main_slash	131	stimuli_distractor_trianglediamonds.svg	stimuli_target_trianglecircles.svg	25	yes	53	1	562
6.6.1	win	2022-12-14	19:32:45	19:41:14	506135	5af309960eca060001b15b47	612812249	1	main_slash	7	advance_on_keypress_SLASH	132	stimuli_distractor_trianglediamonds.svg	stimuli_target_trianglecircles.svg	25	yes	57	0	230
6.6.1	win	2022-12-14	19:32:45	19:41:17	509023	5af309960eca060001b15b47	612812249	1	main_slash	7	main_slash	133	stimuli_distractor_trianglediamonds.svg	stimuli_distractor_diamondtriangles.svg	36	no	0	1	2000
6.6.1	win	2022-12-14	19:32:45	19:41:17	509023	5af309960eca060001b15b47	612812249	1	main_slash	7	advance_on_keypress_SLASH	134	stimuli_distractor_trianglediamonds.svg	stimuli_distractor_diamondtriangles.svg	36	no	57	0	339
6.6.1	win	2022-12-14	19:32:45	19:41:19	511141	5af309960eca060001b15b47	612812249	1	main_slash	7	main_slash	135	stimuli_distractor_diamondtriangles.svg	stimuli_distractor_diamondtriangles.svg	40	no	53	0	1135
6.6.1	win	2022-12-14	19:32:45	19:41:19	511141	5af309960eca060001b15b47	612812249	1	main_slash	7	advance_on_keypress_SLASH	136	stimuli_distractor_diamondtriangles.svg	stimuli_distractor_diamondtriangles.svg	40	no	57	0	185
6.6.1	win	2022-12-14	19:32:45	19:41:20	512539	5af309960eca060001b15b47	612812249	1	main_slash	7	main_slash	137	stimuli_target_diamondcircles.svg	stimuli_distractor_trianglediamonds.svg	19	yes	53	1	567
6.6.1	win	2022-12-14	19:32:45	19:41:20	512539	5af309960eca060001b15b47	612812249	1	main_slash	7	advance_on_keypress_SLASH	138	stimuli_target_diamondcircles.svg	stimuli_distractor_trianglediamonds.svg	19	yes	57	0	180
6.6.1	win	2022-12-14	19:32:45	19:41:22	513940	5af309960eca060001b15b47	612812249	1	main_slash	7	main_slash	139	stimuli_target_diamondsquares.svg	stimuli_distractor_diamondtriangles.svg	24	yes	53	1	568
6.6.1	win	2022-12-14	19:32:45	19:41:22	513940	5af309960eca060001b15b47	612812249	1	main_slash	7	advance_on_keypress_SLASH	140	stimuli_target_diamondsquares.svg	stimuli_distractor_diamondtriangles.svg	24	yes	57	0	268
6.6.1	win	2022-12-14	19:32:45	19:41:23	515373	5af309960eca060001b15b47	612812249	1	main_slash	7	main_slash	141	stimuli_distractor_diamondtriangles.svg	stimuli_target_trianglecircles.svg	29	yes	53	1	516
6.6.1	win	2022-12-14	19:32:45	19:41:23	515373	5af309960eca060001b15b47	612812249	1	main_slash	7	advance_on_keypress_SLASH	142	stimuli_distractor_diamondtriangles.svg	stimuli_target_trianglecircles.svg	29	yes	57	0	206
6.6.1	win	2022-12-14	19:32:45	19:41:26	518223	5af309960eca060001b15b47	612812249	1	main_slash	7	main_slash	143	stimuli_distractor_trianglediamonds.svg	stimuli_distractor_trianglediamonds.svg	33	no	0	1	2000
6.6.1	win	2022-12-14	19:32:45	19:41:26	518223	5af309960eca060001b15b47	612812249	1	main_slash	7	advance_on_keypress_SLASH	144	stimuli_distractor_trianglediamonds.svg	stimuli_distractor_trianglediamonds.svg	33	no	57	0	340
6.6.1	win	2022-12-14	19:32:45	19:41:27	519678	5af309960eca060001b15b47	612812249	1	main_slash	7	main_slash	145	stimuli_distractor_trianglediamonds.svg	stimuli_target_diamondsquares.svg	28	yes	53	1	471
6.6.1	win	2022-12-14	19:32:45	19:41:27	519678	5af309960eca060001b15b47	612812249	1	main_slash	7	advance_on_keypress_SLASH	146	stimuli_distractor_trianglediamonds.svg	stimuli_target_diamondsquares.svg	28	yes	57	0	330
6.6.1	win	2022-12-14	19:32:45	19:41:29	521143	5af309960eca060001b15b47	612812249	1	main_slash	7	main_slash	147	stimuli_distractor_trianglediamonds.svg	stimuli_target_squarediamonds.svg	12	yes	53	1	487
6.6.1	win	2022-12-14	19:32:45	19:41:29	521143	5af309960eca060001b15b47	612812249	1	main_slash	7	advance_on_keypress_SLASH	148	stimuli_distractor_trianglediamonds.svg	stimuli_target_squarediamonds.svg	12	yes	57	0	651
6.6.1	win	2022-12-14	19:32:45	19:41:31	523481	5af309960eca060001b15b47	612812249	1	main_slash	7	main_slash	149	stimuli_target_diamondsquares.svg	stimuli_distractor_trianglediamonds.svg	20	yes	53	1	1041
6.6.1	win	2022-12-14	19:32:45	19:41:31	523481	5af309960eca060001b15b47	612812249	1	main_slash	7	advance_on_keypress_SLASH	150	stimuli_target_diamondsquares.svg	stimuli_distractor_trianglediamonds.svg	20	yes	57	0	957
6.6.1	win	2022-12-14	19:32:45	19:41:33	525491	5af309960eca060001b15b47	612812249	1	main_slash	7	main_slash	151	stimuli_target_trianglecircles.svg	stimuli_distractor_trianglediamonds.svg	17	yes	53	1	418
6.6.1	win	2022-12-14	19:32:45	19:41:33	525491	5af309960eca060001b15b47	612812249	1	main_slash	7	advance_on_keypress_SLASH	152	stimuli_target_trianglecircles.svg	stimuli_distractor_trianglediamonds.svg	17	yes	57	0	161
6.6.1	win	2022-12-14	19:32:45	19:41:34	526757	5af309960eca060001b15b47	612812249	1	main_slash	7	main_slash	153	stimuli_distractor_diamondtriangles.svg	stimuli_target_circletriangles.svg	13	yes	53	1	451
6.6.1	win	2022-12-14	19:32:45	19:41:34	526757	5af309960eca060001b15b47	612812249	1	main_slash	7	advance_on_keypress_SLASH	154	stimuli_distractor_diamondtriangles.svg	stimuli_target_circletriangles.svg	13	yes	57	0	194
6.6.1	win	2022-12-14	19:32:45	19:41:36	528533	5af309960eca060001b15b47	612812249	1	main_slash	7	main_slash	155	stimuli_distractor_diamondtriangles.svg	stimuli_target_diamondsquares.svg	32	yes	53	1	927
6.6.1	win	2022-12-14	19:32:45	19:41:36	528533	5af309960eca060001b15b47	612812249	1	main_slash	7	advance_on_keypress_SLASH	156	stimuli_distractor_diamondtriangles.svg	stimuli_target_diamondsquares.svg	32	yes	57	0	219
6.6.1	win	2022-12-14	19:32:45	19:41:38	529883	5af309960eca060001b15b47	612812249	1	main_slash	7	main_slash	157	stimuli_distractor_diamondtriangles.svg	stimuli_target_trianglesquares.svg	30	yes	53	1	494
6.6.1	win	2022-12-14	19:32:45	19:41:38	529883	5af309960eca060001b15b47	612812249	1	main_slash	7	advance_on_keypress_SLASH	158	stimuli_distractor_diamondtriangles.svg	stimuli_target_trianglesquares.svg	30	yes	57	0	182
6.6.1	win	2022-12-14	19:32:45	19:41:39	531306	5af309960eca060001b15b47	612812249	1	main_slash	7	main_slash	159	stimuli_target_diamondcircles.svg	stimuli_distractor_diamondtriangles.svg	23	yes	53	1	599
6.6.1	win	2022-12-14	19:32:45	19:41:39	531306	5af309960eca060001b15b47	612812249	1	main_slash	7	advance_on_keypress_SLASH	160	stimuli_target_diamondcircles.svg	stimuli_distractor_diamondtriangles.svg	23	yes	57	0	412
6.6.1	win	2022-12-14	19:32:45	19:42:03	555090	5af309960eca060001b15b47	612812249	1	practice_z	9	practice_z	1	stimuli_distractor_diamondtriangles.svg	stimuli_distractor_trianglediamonds.svg	14	no	44	0	730
6.6.1	win	2022-12-14	19:32:45	19:42:03	555090	5af309960eca060001b15b47	612812249	1	practice_z	9	advance_on_keypress_ZEE	2	stimuli_distractor_diamondtriangles.svg	stimuli_distractor_trianglediamonds.svg	14	no	57	0	518
6.6.1	win	2022-12-14	19:32:45	19:42:05	557709	5af309960eca060001b15b47	612812249	1	practice_z	9	practice_z	3	stimuli_distractor_trianglediamonds.svg	stimuli_target_circlediamonds.svg	10	yes	44	1	433
6.6.1	win	2022-12-14	19:32:45	19:42:05	557709	5af309960eca060001b15b47	612812249	1	practice_z	9	advance_on_keypress_ZEE	4	stimuli_distractor_trianglediamonds.svg	stimuli_target_circlediamonds.svg	10	yes	57	0	543
6.6.1	win	2022-12-14	19:32:45	19:42:10	561909	5af309960eca060001b15b47	612812249	1	practice_z	9	practice_z	5	stimuli_distractor_trianglediamonds.svg	stimuli_distractor_trianglediamonds.svg	15	no	0	1	2000
6.6.1	win	2022-12-14	19:32:45	19:42:10	561909	5af309960eca060001b15b47	612812249	1	practice_z	9	advance_on_keypress_ZEE	6	stimuli_distractor_trianglediamonds.svg	stimuli_distractor_trianglediamonds.svg	15	no	57	0	296
6.6.1	win	2022-12-14	19:32:45	19:42:12	564278	5af309960eca060001b15b47	612812249	1	practice_z	9	practice_z	7	stimuli_distractor_trianglediamonds.svg	stimuli_target_diamondcircles.svg	12	yes	44	1	418
6.6.1	win	2022-12-14	19:32:45	19:42:12	564278	5af309960eca060001b15b47	612812249	1	practice_z	9	advance_on_keypress_ZEE	8	stimuli_distractor_trianglediamonds.svg	stimuli_target_diamondcircles.svg	12	yes	57	0	252
6.6.1	win	2022-12-14	19:32:45	19:42:14	566586	5af309960eca060001b15b47	612812249	1	practice_z	9	practice_z	9	stimuli_target_squarediamonds.svg	stimuli_distractor_trianglediamonds.svg	5	yes	44	1	410
6.6.1	win	2022-12-14	19:32:45	19:42:14	566586	5af309960eca060001b15b47	612812249	1	practice_z	9	advance_on_keypress_ZEE	10	stimuli_target_squarediamonds.svg	stimuli_distractor_trianglediamonds.svg	5	yes	57	0	201
6.6.1	win	2022-12-14	19:32:45	19:42:17	568845	5af309960eca060001b15b47	612812249	1	practice_z	9	practice_z	11	stimuli_distractor_diamondtriangles.svg	stimuli_target_diamondcircles.svg	8	yes	44	1	402
6.6.1	win	2022-12-14	19:32:45	19:42:17	568845	5af309960eca060001b15b47	612812249	1	practice_z	9	advance_on_keypress_ZEE	12	stimuli_distractor_diamondtriangles.svg	stimuli_target_diamondcircles.svg	8	yes	57	0	136
6.6.1	win	2022-12-14	19:32:45	19:42:19	571009	5af309960eca060001b15b47	612812249	1	practice_z	9	practice_z	13	stimuli_distractor_diamondtriangles.svg	stimuli_target_circletriangles.svg	7	yes	44	1	371
6.6.1	win	2022-12-14	19:32:45	19:42:19	571009	5af309960eca060001b15b47	612812249	1	practice_z	9	advance_on_keypress_ZEE	14	stimuli_distractor_diamondtriangles.svg	stimuli_target_circletriangles.svg	7	yes	57	0	290
6.6.1	win	2022-12-14	19:32:45	19:42:21	573381	5af309960eca060001b15b47	612812249	1	practice_z	9	practice_z	15	stimuli_distractor_diamondtriangles.svg	stimuli_distractor_diamondtriangles.svg	13	no	44	0	421
6.6.1	win	2022-12-14	19:32:45	19:42:21	573381	5af309960eca060001b15b47	612812249	1	practice_z	9	advance_on_keypress_ZEE	16	stimuli_distractor_diamondtriangles.svg	stimuli_distractor_diamondtriangles.svg	13	no	57	0	252
6.6.1	win	2022-12-14	19:32:45	19:42:25	577140	5af309960eca060001b15b47	612812249	1	practice_z	9	practice_z	17	stimuli_distractor_trianglediamonds.svg	stimuli_target_squarediamonds.svg	11	yes	44	1	1863
6.6.1	win	2022-12-14	19:32:45	19:42:25	577140	5af309960eca060001b15b47	612812249	1	practice_z	9	advance_on_keypress_ZEE	18	stimuli_distractor_trianglediamonds.svg	stimuli_target_squarediamonds.svg	11	yes	57	0	96
6.6.1	win	2022-12-14	19:32:45	19:42:27	579415	5af309960eca060001b15b47	612812249	1	practice_z	9	practice_z	19	stimuli_target_diamondsquares.svg	stimuli_distractor_diamondtriangles.svg	3	yes	44	1	522
6.6.1	win	2022-12-14	19:32:45	19:42:27	579415	5af309960eca060001b15b47	612812249	1	practice_z	9	advance_on_keypress_ZEE	20	stimuli_target_diamondsquares.svg	stimuli_distractor_diamondtriangles.svg	3	yes	57	0	109
6.6.1	win	2022-12-14	19:32:45	19:42:29	581603	5af309960eca060001b15b47	612812249	1	practice_z	9	practice_z	21	stimuli_distractor_trianglediamonds.svg	stimuli_distractor_diamondtriangles.svg	16	no	44	0	426
6.6.1	win	2022-12-14	19:32:45	19:42:29	581603	5af309960eca060001b15b47	612812249	1	practice_z	9	advance_on_keypress_ZEE	22	stimuli_distractor_trianglediamonds.svg	stimuli_distractor_diamondtriangles.svg	16	no	57	0	35
6.6.1	win	2022-12-14	19:32:45	19:42:31	583712	5af309960eca060001b15b47	612812249	1	practice_z	9	practice_z	23	stimuli_target_circlediamonds.svg	stimuli_distractor_trianglediamonds.svg	4	yes	44	1	419
6.6.1	win	2022-12-14	19:32:45	19:42:31	583712	5af309960eca060001b15b47	612812249	1	practice_z	9	advance_on_keypress_ZEE	24	stimuli_target_circlediamonds.svg	stimuli_distractor_trianglediamonds.svg	4	yes	57	0	6
6.6.1	win	2022-12-14	19:32:45	19:42:34	585860	5af309960eca060001b15b47	612812249	1	practice_z	9	practice_z	25	stimuli_distractor_diamondtriangles.svg	stimuli_target_trianglecircles.svg	9	yes	44	1	483
6.6.1	win	2022-12-14	19:32:45	19:42:34	585860	5af309960eca060001b15b47	612812249	1	practice_z	9	advance_on_keypress_ZEE	26	stimuli_distractor_diamondtriangles.svg	stimuli_target_trianglecircles.svg	9	yes	57	0	259
6.6.1	win	2022-12-14	19:32:45	19:42:36	588158	5af309960eca060001b15b47	612812249	1	practice_z	9	practice_z	27	stimuli_target_circlediamonds.svg	stimuli_distractor_diamondtriangles.svg	1	yes	44	1	376
6.6.1	win	2022-12-14	19:32:45	19:42:36	588158	5af309960eca060001b15b47	612812249	1	practice_z	9	advance_on_keypress_ZEE	28	stimuli_target_circlediamonds.svg	stimuli_distractor_diamondtriangles.svg	1	yes	57	0	244
6.6.1	win	2022-12-14	19:32:45	19:42:38	590660	5af309960eca060001b15b47	612812249	1	practice_z	9	practice_z	29	stimuli_target_diamondsquares.svg	stimuli_distractor_trianglediamonds.svg	6	yes	44	1	601
6.6.1	win	2022-12-14	19:32:45	19:42:38	590660	5af309960eca060001b15b47	612812249	1	practice_z	9	advance_on_keypress_ZEE	30	stimuli_target_diamondsquares.svg	stimuli_distractor_trianglediamonds.svg	6	yes	57	0	22
6.6.1	win	2022-12-14	19:32:45	19:42:40	592735	5af309960eca060001b15b47	612812249	1	practice_z	9	practice_z	31	stimuli_target_squarediamonds.svg	stimuli_distractor_diamondtriangles.svg	2	yes	44	1	409
6.6.1	win	2022-12-14	19:32:45	19:42:40	592735	5af309960eca060001b15b47	612812249	1	practice_z	9	advance_on_keypress_ZEE	32	stimuli_target_squarediamonds.svg	stimuli_distractor_diamondtriangles.svg	2	yes	57	0	139
6.6.1	win	2022-12-14	19:32:45	19:42:44	596461	5af309960eca060001b15b47	612812249	1	main_z	11	main_z	1	stimuli_distractor_trianglediamonds.svg	stimuli_distractor_diamondtriangles.svg	35	no	44	0	536
6.6.1	win	2022-12-14	19:32:45	19:42:44	596461	5af309960eca060001b15b47	612812249	1	main_z	11	advance_on_keypress_ZEE	2	stimuli_distractor_trianglediamonds.svg	stimuli_distractor_diamondtriangles.svg	35	no	57	0	1440
6.6.1	win	2022-12-14	19:32:45	19:42:47	598886	5af309960eca060001b15b47	612812249	1	main_z	11	main_z	3	stimuli_distractor_diamondtriangles.svg	stimuli_target_trianglesquares.svg	30	yes	44	1	345
6.6.1	win	2022-12-14	19:32:45	19:42:47	598886	5af309960eca060001b15b47	612812249	1	main_z	11	advance_on_keypress_ZEE	4	stimuli_distractor_diamondtriangles.svg	stimuli_target_trianglesquares.svg	30	yes	57	0	568
6.6.1	win	2022-12-14	19:32:45	19:42:48	600494	5af309960eca060001b15b47	612812249	1	main_z	11	main_z	5	stimuli_distractor_diamondtriangles.svg	stimuli_target_trianglecircles.svg	29	yes	44	1	386
6.6.1	win	2022-12-14	19:32:45	19:42:48	600494	5af309960eca060001b15b47	612812249	1	main_z	11	advance_on_keypress_ZEE	6	stimuli_distractor_diamondtriangles.svg	stimuli_target_trianglecircles.svg	29	yes	57	0	502
6.6.1	win	2022-12-14	19:32:45	19:42:50	602023	5af309960eca060001b15b47	612812249	1	main_z	11	main_z	7	stimuli_distractor_trianglediamonds.svg	stimuli_target_trianglecircles.svg	25	yes	44	1	371
6.6.1	win	2022-12-14	19:32:45	19:42:50	602023	5af309960eca060001b15b47	612812249	1	main_z	11	advance_on_keypress_ZEE	8	stimuli_distractor_trianglediamonds.svg	stimuli_target_trianglecircles.svg	25	yes	57	0	403
6.6.1	win	2022-12-14	19:32:45	19:42:51	603410	5af309960eca060001b15b47	612812249	1	main_z	11	main_z	9	stimuli_distractor_trianglediamonds.svg	stimuli_target_squarediamonds.svg	12	yes	44	1	335
6.6.1	win	2022-12-14	19:32:45	19:42:51	603410	5af309960eca060001b15b47	612812249	1	main_z	11	advance_on_keypress_ZEE	10	stimuli_distractor_trianglediamonds.svg	stimuli_target_squarediamonds.svg	12	yes	57	0	442
6.6.1	win	2022-12-14	19:32:45	19:42:54	606491	5af309960eca060001b15b47	612812249	1	main_z	11	main_z	11	stimuli_distractor_diamondtriangles.svg	stimuli_distractor_trianglediamonds.svg	38	no	0	1	2000
6.6.1	win	2022-12-14	19:32:45	19:42:54	606491	5af309960eca060001b15b47	612812249	1	main_z	11	advance_on_keypress_ZEE	12	stimuli_distractor_diamondtriangles.svg	stimuli_distractor_trianglediamonds.svg	38	no	57	0	285
6.6.1	win	2022-12-14	19:32:45	19:42:56	607844	5af309960eca060001b15b47	612812249	1	main_z	11	main_z	13	stimuli_distractor_trianglediamonds.svg	stimuli_target_trianglesquares.svg	26	yes	44	1	419
6.6.1	win	2022-12-14	19:32:45	19:42:56	607844	5af309960eca060001b15b47	612812249	1	main_z	11	advance_on_keypress_ZEE	14	stimuli_distractor_trianglediamonds.svg	stimuli_target_trianglesquares.svg	26	yes	57	0	560
6.6.1	win	2022-12-14	19:32:45	19:42:57	609450	5af309960eca060001b15b47	612812249	1	main_z	11	main_z	15	stimuli_distractor_trianglediamonds.svg	stimuli_target_diamondsquares.svg	28	yes	44	1	409
6.6.1	win	2022-12-14	19:32:45	19:42:57	609450	5af309960eca060001b15b47	612812249	1	main_z	11	advance_on_keypress_ZEE	16	stimuli_distractor_trianglediamonds.svg	stimuli_target_diamondsquares.svg	28	yes	57	0	486
6.6.1	win	2022-12-14	19:32:45	19:43:00	612575	5af309960eca060001b15b47	612812249	1	main_z	11	main_z	17	stimuli_target_circletriangles.svg	stimuli_distractor_diamondtriangles.svg	5	yes	0	0	2000
6.6.1	win	2022-12-14	19:32:45	19:43:00	612575	5af309960eca060001b15b47	612812249	1	main_z	11	advance_on_keypress_ZEE	18	stimuli_target_circletriangles.svg	stimuli_distractor_diamondtriangles.svg	5	yes	57	0	996
6.6.1	win	2022-12-14	19:32:45	19:43:02	614672	5af309960eca060001b15b47	612812249	1	main_z	11	main_z	19	stimuli_distractor_trianglediamonds.svg	stimuli_target_diamondcircles.svg	27	yes	44	1	447
6.6.1	win	2022-12-14	19:32:45	19:43:02	614672	5af309960eca060001b15b47	612812249	1	main_z	11	advance_on_keypress_ZEE	20	stimuli_distractor_trianglediamonds.svg	stimuli_target_diamondcircles.svg	27	yes	57	0	381
6.6.1	win	2022-12-14	19:32:45	19:43:04	616090	5af309960eca060001b15b47	612812249	1	main_z	11	main_z	21	stimuli_distractor_diamondtriangles.svg	stimuli_distractor_diamondtriangles.svg	39	no	44	0	374
6.6.1	win	2022-12-14	19:32:45	19:43:04	616090	5af309960eca060001b15b47	612812249	1	main_z	11	advance_on_keypress_ZEE	22	stimuli_distractor_diamondtriangles.svg	stimuli_distractor_diamondtriangles.svg	39	no	57	0	284
6.6.1	win	2022-12-14	19:32:45	19:43:07	619025	5af309960eca060001b15b47	612812249	1	main_z	11	main_z	23	stimuli_distractor_trianglediamonds.svg	stimuli_distractor_trianglediamonds.svg	34	no	0	1	2000
6.6.1	win	2022-12-14	19:32:45	19:43:07	619025	5af309960eca060001b15b47	612812249	1	main_z	11	advance_on_keypress_ZEE	24	stimuli_distractor_trianglediamonds.svg	stimuli_distractor_trianglediamonds.svg	34	no	57	0	317
6.6.1	win	2022-12-14	19:32:45	19:43:08	620301	5af309960eca060001b15b47	612812249	1	main_z	11	main_z	25	stimuli_target_diamondsquares.svg	stimuli_distractor_diamondtriangles.svg	24	yes	44	1	310
6.6.1	win	2022-12-14	19:32:45	19:43:08	620301	5af309960eca060001b15b47	612812249	1	main_z	11	advance_on_keypress_ZEE	26	stimuli_target_diamondsquares.svg	stimuli_distractor_diamondtriangles.svg	24	yes	57	0	654
6.6.1	win	2022-12-14	19:32:45	19:43:10	622111	5af309960eca060001b15b47	612812249	1	main_z	11	main_z	27	stimuli_distractor_diamondtriangles.svg	stimuli_target_circlediamonds.svg	14	yes	44	1	519
6.6.1	win	2022-12-14	19:32:45	19:43:10	622111	5af309960eca060001b15b47	612812249	1	main_z	11	advance_on_keypress_ZEE	28	stimuli_distractor_diamondtriangles.svg	stimuli_target_circlediamonds.svg	14	yes	57	0	447
6.6.1	win	2022-12-14	19:32:45	19:43:12	624675	5af309960eca060001b15b47	612812249	1	main_z	11	main_z	29	stimuli_target_circlediamonds.svg	stimuli_distractor_diamondtriangles.svg	6	yes	44	1	1467
6.6.1	win	2022-12-14	19:32:45	19:43:12	624675	5af309960eca060001b15b47	612812249	1	main_z	11	advance_on_keypress_ZEE	30	stimuli_target_circlediamonds.svg	stimuli_distractor_diamondtriangles.svg	6	yes	57	0	412
6.6.1	win	2022-12-14	19:32:45	19:43:14	626257	5af309960eca060001b15b47	612812249	1	main_z	11	main_z	31	stimuli_distractor_diamondtriangles.svg	stimuli_target_diamondsquares.svg	32	yes	44	1	510
6.6.1	win	2022-12-14	19:32:45	19:43:14	626257	5af309960eca060001b15b47	612812249	1	main_z	11	advance_on_keypress_ZEE	32	stimuli_distractor_diamondtriangles.svg	stimuli_target_diamondsquares.svg	32	yes	57	0	249
6.6.1	win	2022-12-14	19:32:45	19:43:15	627593	5af309960eca060001b15b47	612812249	1	main_z	11	main_z	33	stimuli_target_squaretriangles.svg	stimuli_distractor_diamondtriangles.svg	7	yes	44	1	435
6.6.1	win	2022-12-14	19:32:45	19:43:15	627593	5af309960eca060001b15b47	612812249	1	main_z	11	advance_on_keypress_ZEE	34	stimuli_target_squaretriangles.svg	stimuli_distractor_diamondtriangles.svg	7	yes	57	0	327
6.6.1	win	2022-12-14	19:32:45	19:43:17	628990	5af309960eca060001b15b47	612812249	1	main_z	11	main_z	35	stimuli_target_trianglecircles.svg	stimuli_distractor_trianglediamonds.svg	17	yes	44	1	414
6.6.1	win	2022-12-14	19:32:45	19:43:17	628990	5af309960eca060001b15b47	612812249	1	main_z	11	advance_on_keypress_ZEE	36	stimuli_target_trianglecircles.svg	stimuli_distractor_trianglediamonds.svg	17	yes	57	0	336
6.6.1	win	2022-12-14	19:32:45	19:43:18	630376	5af309960eca060001b15b47	612812249	1	main_z	11	main_z	37	stimuli_target_squaretriangles.svg	stimuli_distractor_trianglediamonds.svg	3	yes	44	1	401
6.6.1	win	2022-12-14	19:32:45	19:43:18	630376	5af309960eca060001b15b47	612812249	1	main_z	11	advance_on_keypress_ZEE	38	stimuli_target_squaretriangles.svg	stimuli_distractor_trianglediamonds.svg	3	yes	57	0	303
6.6.1	win	2022-12-14	19:32:45	19:43:20	631868	5af309960eca060001b15b47	612812249	1	main_z	11	main_z	39	stimuli_distractor_diamondtriangles.svg	stimuli_distractor_diamondtriangles.svg	40	no	44	0	543
6.6.1	win	2022-12-14	19:32:45	19:43:20	631868	5af309960eca060001b15b47	612812249	1	main_z	11	advance_on_keypress_ZEE	40	stimuli_distractor_diamondtriangles.svg	stimuli_distractor_diamondtriangles.svg	40	no	57	0	326
6.6.1	win	2022-12-14	19:32:45	19:43:21	633234	5af309960eca060001b15b47	612812249	1	main_z	11	main_z	41	stimuli_target_diamondcircles.svg	stimuli_distractor_diamondtriangles.svg	23	yes	44	1	409
6.6.1	win	2022-12-14	19:32:45	19:43:21	633234	5af309960eca060001b15b47	612812249	1	main_z	11	advance_on_keypress_ZEE	42	stimuli_target_diamondcircles.svg	stimuli_distractor_diamondtriangles.svg	23	yes	57	0	386
6.6.1	win	2022-12-14	19:32:45	19:43:23	634860	5af309960eca060001b15b47	612812249	1	main_z	11	main_z	43	stimuli_distractor_trianglediamonds.svg	stimuli_distractor_diamondtriangles.svg	36	no	44	0	601
6.6.1	win	2022-12-14	19:32:45	19:43:23	634860	5af309960eca060001b15b47	612812249	1	main_z	11	advance_on_keypress_ZEE	44	stimuli_distractor_trianglediamonds.svg	stimuli_distractor_diamondtriangles.svg	36	no	57	0	435
6.6.1	win	2022-12-14	19:32:45	19:43:25	637078	5af309960eca060001b15b47	612812249	1	main_z	11	main_z	45	stimuli_distractor_trianglediamonds.svg	stimuli_target_circlediamonds.svg	10	yes	44	1	1136
6.6.1	win	2022-12-14	19:32:45	19:43:25	637078	5af309960eca060001b15b47	612812249	1	main_z	11	advance_on_keypress_ZEE	46	stimuli_distractor_trianglediamonds.svg	stimuli_target_circlediamonds.svg	10	yes	57	0	311
6.6.1	win	2022-12-14	19:32:45	19:43:26	638503	5af309960eca060001b15b47	612812249	1	main_z	11	main_z	47	stimuli_distractor_diamondtriangles.svg	stimuli_target_circletriangles.svg	13	yes	44	1	461
6.6.1	win	2022-12-14	19:32:45	19:43:26	638503	5af309960eca060001b15b47	612812249	1	main_z	11	advance_on_keypress_ZEE	48	stimuli_distractor_diamondtriangles.svg	stimuli_target_circletriangles.svg	13	yes	57	0	293
6.6.1	win	2022-12-14	19:32:45	19:43:28	639919	5af309960eca060001b15b47	612812249	1	main_z	11	main_z	49	stimuli_target_trianglesquares.svg	stimuli_distractor_trianglediamonds.svg	18	yes	44	1	477
6.6.1	win	2022-12-14	19:32:45	19:43:28	639919	5af309960eca060001b15b47	612812249	1	main_z	11	advance_on_keypress_ZEE	50	stimuli_target_trianglesquares.svg	stimuli_distractor_trianglediamonds.svg	18	yes	57	0	410
6.6.1	win	2022-12-14	19:32:45	19:43:29	641810	5af309960eca060001b15b47	612812249	1	main_z	11	main_z	51	stimuli_distractor_trianglediamonds.svg	stimuli_target_squaretriangles.svg	11	yes	44	1	818
6.6.1	win	2022-12-14	19:32:45	19:43:29	641810	5af309960eca060001b15b47	612812249	1	main_z	11	advance_on_keypress_ZEE	52	stimuli_distractor_trianglediamonds.svg	stimuli_target_squaretriangles.svg	11	yes	57	0	276
6.6.1	win	2022-12-14	19:32:45	19:43:31	643241	5af309960eca060001b15b47	612812249	1	main_z	11	main_z	53	stimuli_distractor_diamondtriangles.svg	stimuli_target_squaretriangles.svg	15	yes	44	1	504
6.6.1	win	2022-12-14	19:32:45	19:43:31	643241	5af309960eca060001b15b47	612812249	1	main_z	11	advance_on_keypress_ZEE	54	stimuli_distractor_diamondtriangles.svg	stimuli_target_squaretriangles.svg	15	yes	57	0	243
6.6.1	win	2022-12-14	19:32:45	19:43:32	644620	5af309960eca060001b15b47	612812249	1	main_z	11	main_z	55	stimuli_target_squarediamonds.svg	stimuli_distractor_trianglediamonds.svg	4	yes	44	1	495
6.6.1	win	2022-12-14	19:32:45	19:43:32	644620	5af309960eca060001b15b47	612812249	1	main_z	11	advance_on_keypress_ZEE	56	stimuli_target_squarediamonds.svg	stimuli_distractor_trianglediamonds.svg	4	yes	57	0	308
6.6.1	win	2022-12-14	19:32:45	19:43:34	646016	5af309960eca060001b15b47	612812249	1	main_z	11	main_z	57	stimuli_target_trianglecircles.svg	stimuli_distractor_diamondtriangles.svg	21	yes	44	1	440
6.6.1	win	2022-12-14	19:32:45	19:43:34	646016	5af309960eca060001b15b47	612812249	1	main_z	11	advance_on_keypress_ZEE	58	stimuli_target_trianglecircles.svg	stimuli_distractor_diamondtriangles.svg	21	yes	57	0	243
6.6.1	win	2022-12-14	19:32:45	19:43:37	648892	5af309960eca060001b15b47	612812249	1	main_z	11	main_z	59	stimuli_distractor_diamondtriangles.svg	stimuli_distractor_trianglediamonds.svg	37	no	0	1	2000
6.6.1	win	2022-12-14	19:32:45	19:43:37	648892	5af309960eca060001b15b47	612812249	1	main_z	11	advance_on_keypress_ZEE	60	stimuli_distractor_diamondtriangles.svg	stimuli_distractor_trianglediamonds.svg	37	no	57	0	315
6.6.1	win	2022-12-14	19:32:45	19:43:38	650352	5af309960eca060001b15b47	612812249	1	main_z	11	main_z	61	stimuli_distractor_diamondtriangles.svg	stimuli_target_squarediamonds.svg	16	yes	44	1	494
6.6.1	win	2022-12-14	19:32:45	19:43:38	650352	5af309960eca060001b15b47	612812249	1	main_z	11	advance_on_keypress_ZEE	62	stimuli_distractor_diamondtriangles.svg	stimuli_target_squarediamonds.svg	16	yes	57	0	303
6.6.1	win	2022-12-14	19:32:45	19:43:39	651728	5af309960eca060001b15b47	612812249	1	main_z	11	main_z	63	stimuli_target_squarediamonds.svg	stimuli_distractor_diamondtriangles.svg	8	yes	44	1	436
6.6.1	win	2022-12-14	19:32:45	19:43:39	651728	5af309960eca060001b15b47	612812249	1	main_z	11	advance_on_keypress_ZEE	64	stimuli_target_squarediamonds.svg	stimuli_distractor_diamondtriangles.svg	8	yes	57	0	292
6.6.1	win	2022-12-14	19:32:45	19:43:41	653175	5af309960eca060001b15b47	612812249	1	main_z	11	main_z	65	stimuli_distractor_diamondtriangles.svg	stimuli_target_diamondcircles.svg	31	yes	44	1	513
6.6.1	win	2022-12-14	19:32:45	19:43:41	653175	5af309960eca060001b15b47	612812249	1	main_z	11	advance_on_keypress_ZEE	66	stimuli_distractor_diamondtriangles.svg	stimuli_target_diamondcircles.svg	31	yes	57	0	235
6.6.1	win	2022-12-14	19:32:45	19:43:42	654469	5af309960eca060001b15b47	612812249	1	main_z	11	main_z	67	stimuli_target_circlediamonds.svg	stimuli_distractor_trianglediamonds.svg	2	yes	44	1	411
6.6.1	win	2022-12-14	19:32:45	19:43:42	654469	5af309960eca060001b15b47	612812249	1	main_z	11	advance_on_keypress_ZEE	68	stimuli_target_circlediamonds.svg	stimuli_distractor_trianglediamonds.svg	2	yes	57	0	251
6.6.1	win	2022-12-14	19:32:45	19:43:44	656017	5af309960eca060001b15b47	612812249	1	main_z	11	main_z	69	stimuli_target_diamondcircles.svg	stimuli_distractor_trianglediamonds.svg	19	yes	44	1	659
6.6.1	win	2022-12-14	19:32:45	19:43:44	656017	5af309960eca060001b15b47	612812249	1	main_z	11	advance_on_keypress_ZEE	70	stimuli_target_diamondcircles.svg	stimuli_distractor_trianglediamonds.svg	19	yes	57	0	243
6.6.1	win	2022-12-14	19:32:45	19:43:45	657220	5af309960eca060001b15b47	612812249	1	main_z	11	main_z	71	stimuli_target_circletriangles.svg	stimuli_distractor_trianglediamonds.svg	1	yes	44	1	328
6.6.1	win	2022-12-14	19:32:45	19:43:45	657220	5af309960eca060001b15b47	612812249	1	main_z	11	advance_on_keypress_ZEE	72	stimuli_target_circletriangles.svg	stimuli_distractor_trianglediamonds.svg	1	yes	57	0	193
6.6.1	win	2022-12-14	19:32:45	19:43:46	658477	5af309960eca060001b15b47	612812249	1	main_z	11	main_z	73	stimuli_distractor_trianglediamonds.svg	stimuli_target_circletriangles.svg	9	yes	44	1	434
6.6.1	win	2022-12-14	19:32:45	19:43:46	658477	5af309960eca060001b15b47	612812249	1	main_z	11	advance_on_keypress_ZEE	74	stimuli_distractor_trianglediamonds.svg	stimuli_target_circletriangles.svg	9	yes	57	0	180
6.6.1	win	2022-12-14	19:32:45	19:43:48	660258	5af309960eca060001b15b47	612812249	1	main_z	11	main_z	75	stimuli_distractor_trianglediamonds.svg	stimuli_distractor_trianglediamonds.svg	33	no	44	0	949
6.6.1	win	2022-12-14	19:32:45	19:43:48	660258	5af309960eca060001b15b47	612812249	1	main_z	11	advance_on_keypress_ZEE	76	stimuli_distractor_trianglediamonds.svg	stimuli_distractor_trianglediamonds.svg	33	no	57	0	285
6.6.1	win	2022-12-14	19:32:45	19:43:49	661652	5af309960eca060001b15b47	612812249	1	main_z	11	main_z	77	stimuli_target_diamondsquares.svg	stimuli_distractor_trianglediamonds.svg	20	yes	44	1	460
6.6.1	win	2022-12-14	19:32:45	19:43:49	661652	5af309960eca060001b15b47	612812249	1	main_z	11	advance_on_keypress_ZEE	78	stimuli_target_diamondsquares.svg	stimuli_distractor_trianglediamonds.svg	20	yes	57	0	227
6.6.1	win	2022-12-14	19:32:45	19:43:51	663002	5af309960eca060001b15b47	612812249	1	main_z	11	main_z	79	stimuli_target_trianglesquares.svg	stimuli_distractor_diamondtriangles.svg	22	yes	44	1	476
6.6.1	win	2022-12-14	19:32:45	19:43:51	663002	5af309960eca060001b15b47	612812249	1	main_z	11	advance_on_keypress_ZEE	80	stimuli_target_trianglesquares.svg	stimuli_distractor_diamondtriangles.svg	22	yes	57	0	261
6.6.1	win	2022-12-14	19:32:45	19:43:54	665909	5af309960eca060001b15b47	612812249	1	main_z	11	main_z	81	stimuli_distractor_trianglediamonds.svg	stimuli_distractor_trianglediamonds.svg	34	no	0	1	2000
6.6.1	win	2022-12-14	19:32:45	19:43:54	665909	5af309960eca060001b15b47	612812249	1	main_z	11	advance_on_keypress_ZEE	82	stimuli_distractor_trianglediamonds.svg	stimuli_distractor_trianglediamonds.svg	34	no	57	0	383
6.6.1	win	2022-12-14	19:32:45	19:43:55	667354	5af309960eca060001b15b47	612812249	1	main_z	11	main_z	83	stimuli_distractor_diamondtriangles.svg	stimuli_distractor_trianglediamonds.svg	38	no	44	0	412
6.6.1	win	2022-12-14	19:32:45	19:43:55	667354	5af309960eca060001b15b47	612812249	1	main_z	11	advance_on_keypress_ZEE	84	stimuli_distractor_diamondtriangles.svg	stimuli_distractor_trianglediamonds.svg	38	no	57	0	450
6.6.1	win	2022-12-14	19:32:45	19:43:57	668929	5af309960eca060001b15b47	612812249	1	main_z	11	main_z	85	stimuli_distractor_trianglediamonds.svg	stimuli_target_squarediamonds.svg	12	yes	44	1	468
6.6.1	win	2022-12-14	19:32:45	19:43:57	668929	5af309960eca060001b15b47	612812249	1	main_z	11	advance_on_keypress_ZEE	86	stimuli_distractor_trianglediamonds.svg	stimuli_target_squarediamonds.svg	12	yes	57	0	2469
6.6.1	win	2022-12-14	19:32:45	19:44:00	672435	5af309960eca060001b15b47	612812249	1	main_z	11	main_z	87	stimuli_distractor_trianglediamonds.svg	stimuli_target_circletriangles.svg	9	yes	44	1	393
6.6.1	win	2022-12-14	19:32:45	19:44:00	672435	5af309960eca060001b15b47	612812249	1	main_z	11	advance_on_keypress_ZEE	88	stimuli_distractor_trianglediamonds.svg	stimuli_target_circletriangles.svg	9	yes	57	0	377
6.6.1	win	2022-12-14	19:32:45	19:44:02	673913	5af309960eca060001b15b47	612812249	1	main_z	11	main_z	89	stimuli_target_circletriangles.svg	stimuli_distractor_trianglediamonds.svg	1	yes	44	1	470
6.6.1	win	2022-12-14	19:32:45	19:44:02	673913	5af309960eca060001b15b47	612812249	1	main_z	11	advance_on_keypress_ZEE	90	stimuli_target_circletriangles.svg	stimuli_distractor_trianglediamonds.svg	1	yes	57	0	176
6.6.1	win	2022-12-14	19:32:45	19:44:03	675186	5af309960eca060001b15b47	612812249	1	main_z	11	main_z	91	stimuli_distractor_trianglediamonds.svg	stimuli_target_diamondsquares.svg	28	yes	44	1	443
6.6.1	win	2022-12-14	19:32:45	19:44:03	675186	5af309960eca060001b15b47	612812249	1	main_z	11	advance_on_keypress_ZEE	92	stimuli_distractor_trianglediamonds.svg	stimuli_target_diamondsquares.svg	28	yes	57	0	172
6.6.1	win	2022-12-14	19:32:45	19:44:06	677994	5af309960eca060001b15b47	612812249	1	main_z	11	main_z	93	stimuli_distractor_diamondtriangles.svg	stimuli_distractor_diamondtriangles.svg	39	no	0	1	2000
6.6.1	win	2022-12-14	19:32:45	19:44:06	677994	5af309960eca060001b15b47	612812249	1	main_z	11	advance_on_keypress_ZEE	94	stimuli_distractor_diamondtriangles.svg	stimuli_distractor_diamondtriangles.svg	39	no	57	0	445
6.6.1	win	2022-12-14	19:32:45	19:44:07	679537	5af309960eca060001b15b47	612812249	1	main_z	11	main_z	95	stimuli_distractor_trianglediamonds.svg	stimuli_target_circlediamonds.svg	10	yes	44	1	444
6.6.1	win	2022-12-14	19:32:45	19:44:07	679537	5af309960eca060001b15b47	612812249	1	main_z	11	advance_on_keypress_ZEE	96	stimuli_distractor_trianglediamonds.svg	stimuli_target_circlediamonds.svg	10	yes	57	0	170
6.6.1	win	2022-12-14	19:32:45	19:44:08	680723	5af309960eca060001b15b47	612812249	1	main_z	11	main_z	97	stimuli_distractor_diamondtriangles.svg	stimuli_target_squarediamonds.svg	16	yes	44	1	362
6.6.1	win	2022-12-14	19:32:45	19:44:08	680723	5af309960eca060001b15b47	612812249	1	main_z	11	advance_on_keypress_ZEE	98	stimuli_distractor_diamondtriangles.svg	stimuli_target_squarediamonds.svg	16	yes	57	0	183
6.6.1	win	2022-12-14	19:32:45	19:44:10	681986	5af309960eca060001b15b47	612812249	1	main_z	11	main_z	99	stimuli_distractor_trianglediamonds.svg	stimuli_target_trianglecircles.svg	25	yes	44	1	426
6.6.1	win	2022-12-14	19:32:45	19:44:10	681986	5af309960eca060001b15b47	612812249	1	main_z	11	advance_on_keypress_ZEE	100	stimuli_distractor_trianglediamonds.svg	stimuli_target_trianglecircles.svg	25	yes	57	0	202
6.6.1	win	2022-12-14	19:32:45	19:44:12	684826	5af309960eca060001b15b47	612812249	1	main_z	11	main_z	101	stimuli_distractor_trianglediamonds.svg	stimuli_distractor_diamondtriangles.svg	36	no	0	1	2000
6.6.1	win	2022-12-14	19:32:45	19:44:12	684826	5af309960eca060001b15b47	612812249	1	main_z	11	advance_on_keypress_ZEE	102	stimuli_distractor_trianglediamonds.svg	stimuli_distractor_diamondtriangles.svg	36	no	57	0	329
6.6.1	win	2022-12-14	19:32:45	19:44:14	686124	5af309960eca060001b15b47	612812249	1	main_z	11	main_z	103	stimuli_distractor_diamondtriangles.svg	stimuli_target_circletriangles.svg	13	yes	44	1	315
6.6.1	win	2022-12-14	19:32:45	19:44:14	686124	5af309960eca060001b15b47	612812249	1	main_z	11	advance_on_keypress_ZEE	104	stimuli_distractor_diamondtriangles.svg	stimuli_target_circletriangles.svg	13	yes	57	0	344
6.6.1	win	2022-12-14	19:32:45	19:44:15	687444	5af309960eca060001b15b47	612812249	1	main_z	11	main_z	105	stimuli_target_squarediamonds.svg	stimuli_distractor_diamondtriangles.svg	8	yes	44	1	318
6.6.1	win	2022-12-14	19:32:45	19:44:15	687444	5af309960eca060001b15b47	612812249	1	main_z	11	advance_on_keypress_ZEE	106	stimuli_target_squarediamonds.svg	stimuli_distractor_diamondtriangles.svg	8	yes	57	0	143
6.6.1	win	2022-12-14	19:32:45	19:44:16	688627	5af309960eca060001b15b47	612812249	1	main_z	11	main_z	107	stimuli_target_squaretriangles.svg	stimuli_distractor_diamondtriangles.svg	7	yes	44	1	400
6.6.1	win	2022-12-14	19:32:45	19:44:16	688627	5af309960eca060001b15b47	612812249	1	main_z	11	advance_on_keypress_ZEE	108	stimuli_target_squaretriangles.svg	stimuli_distractor_diamondtriangles.svg	7	yes	57	0	126
6.6.1	win	2022-12-14	19:32:45	19:44:17	689808	5af309960eca060001b15b47	612812249	1	main_z	11	main_z	109	stimuli_target_squarediamonds.svg	stimuli_distractor_trianglediamonds.svg	4	yes	44	1	414
6.6.1	win	2022-12-14	19:32:45	19:44:17	689808	5af309960eca060001b15b47	612812249	1	main_z	11	advance_on_keypress_ZEE	110	stimuli_target_squarediamonds.svg	stimuli_distractor_trianglediamonds.svg	4	yes	57	0	152
6.6.1	win	2022-12-14	19:32:45	19:44:19	691062	5af309960eca060001b15b47	612812249	1	main_z	11	main_z	111	stimuli_distractor_trianglediamonds.svg	stimuli_distractor_diamondtriangles.svg	35	no	44	0	451
6.6.1	win	2022-12-14	19:32:45	19:44:19	691062	5af309960eca060001b15b47	612812249	1	main_z	11	advance_on_keypress_ZEE	112	stimuli_distractor_trianglediamonds.svg	stimuli_distractor_diamondtriangles.svg	35	no	57	0	368
6.6.1	win	2022-12-14	19:32:45	19:44:20	692459	5af309960eca060001b15b47	612812249	1	main_z	11	main_z	113	stimuli_target_circlediamonds.svg	stimuli_distractor_trianglediamonds.svg	2	yes	44	1	371
6.6.1	win	2022-12-14	19:32:45	19:44:20	692459	5af309960eca060001b15b47	612812249	1	main_z	11	advance_on_keypress_ZEE	114	stimuli_target_circlediamonds.svg	stimuli_distractor_trianglediamonds.svg	2	yes	57	0	226
6.6.1	win	2022-12-14	19:32:45	19:44:22	693945	5af309960eca060001b15b47	612812249	1	main_z	11	main_z	115	stimuli_distractor_diamondtriangles.svg	stimuli_target_trianglecircles.svg	29	yes	44	1	618
6.6.1	win	2022-12-14	19:32:45	19:44:22	693945	5af309960eca060001b15b47	612812249	1	main_z	11	advance_on_keypress_ZEE	116	stimuli_distractor_diamondtriangles.svg	stimuli_target_trianglecircles.svg	29	yes	57	0	195
6.6.1	win	2022-12-14	19:32:45	19:44:23	695261	5af309960eca060001b15b47	612812249	1	main_z	11	main_z	117	stimuli_target_diamondcircles.svg	stimuli_distractor_trianglediamonds.svg	19	yes	44	1	468
6.6.1	win	2022-12-14	19:32:45	19:44:23	695261	5af309960eca060001b15b47	612812249	1	main_z	11	advance_on_keypress_ZEE	118	stimuli_target_diamondcircles.svg	stimuli_distractor_trianglediamonds.svg	19	yes	57	0	146
6.6.1	win	2022-12-14	19:32:45	19:44:24	696804	5af309960eca060001b15b47	612812249	1	main_z	11	main_z	119	stimuli_target_trianglesquares.svg	stimuli_distractor_trianglediamonds.svg	18	yes	44	1	745
6.6.1	win	2022-12-14	19:32:45	19:44:24	696804	5af309960eca060001b15b47	612812249	1	main_z	11	advance_on_keypress_ZEE	120	stimuli_target_trianglesquares.svg	stimuli_distractor_trianglediamonds.svg	18	yes	57	0	363
6.6.1	win	2022-12-14	19:32:45	19:44:26	698185	5af309960eca060001b15b47	612812249	1	main_z	11	main_z	121	stimuli_target_diamondcircles.svg	stimuli_distractor_diamondtriangles.svg	23	yes	44	1	359
6.6.1	win	2022-12-14	19:32:45	19:44:26	698185	5af309960eca060001b15b47	612812249	1	main_z	11	advance_on_keypress_ZEE	122	stimuli_target_diamondcircles.svg	stimuli_distractor_diamondtriangles.svg	23	yes	57	0	176
6.6.1	win	2022-12-14	19:32:45	19:44:27	699519	5af309960eca060001b15b47	612812249	1	main_z	11	main_z	123	stimuli_distractor_trianglediamonds.svg	stimuli_target_diamondcircles.svg	27	yes	44	1	526
6.6.1	win	2022-12-14	19:32:45	19:44:27	699519	5af309960eca060001b15b47	612812249	1	main_z	11	advance_on_keypress_ZEE	124	stimuli_distractor_trianglediamonds.svg	stimuli_target_diamondcircles.svg	27	yes	57	0	143
6.6.1	win	2022-12-14	19:32:45	19:44:28	700676	5af309960eca060001b15b47	612812249	1	main_z	11	main_z	125	stimuli_target_trianglesquares.svg	stimuli_distractor_diamondtriangles.svg	22	yes	44	1	372
6.6.1	win	2022-12-14	19:32:45	19:44:28	700676	5af309960eca060001b15b47	612812249	1	main_z	11	advance_on_keypress_ZEE	126	stimuli_target_trianglesquares.svg	stimuli_distractor_diamondtriangles.svg	22	yes	57	0	92
6.6.1	win	2022-12-14	19:32:45	19:44:31	703410	5af309960eca060001b15b47	612812249	1	main_z	11	main_z	127	stimuli_distractor_diamondtriangles.svg	stimuli_target_squaretriangles.svg	15	yes	0	0	2000
6.6.1	win	2022-12-14	19:32:45	19:44:31	703410	5af309960eca060001b15b47	612812249	1	main_z	11	advance_on_keypress_ZEE	128	stimuli_distractor_diamondtriangles.svg	stimuli_target_squaretriangles.svg	15	yes	57	0	308
6.6.1	win	2022-12-14	19:32:45	19:44:34	706360	5af309960eca060001b15b47	612812249	1	main_z	11	main_z	129	stimuli_distractor_diamondtriangles.svg	stimuli_target_trianglesquares.svg	30	yes	0	0	2000
6.6.1	win	2022-12-14	19:32:45	19:44:34	706360	5af309960eca060001b15b47	612812249	1	main_z	11	advance_on_keypress_ZEE	130	stimuli_distractor_diamondtriangles.svg	stimuli_target_trianglesquares.svg	30	yes	57	0	285
6.6.1	win	2022-12-14	19:32:45	19:44:36	707904	5af309960eca060001b15b47	612812249	1	main_z	11	main_z	131	stimuli_distractor_diamondtriangles.svg	stimuli_target_diamondsquares.svg	32	yes	44	1	610
6.6.1	win	2022-12-14	19:32:45	19:44:36	707904	5af309960eca060001b15b47	612812249	1	main_z	11	advance_on_keypress_ZEE	132	stimuli_distractor_diamondtriangles.svg	stimuli_target_diamondsquares.svg	32	yes	57	0	143
6.6.1	win	2022-12-14	19:32:45	19:44:37	709103	5af309960eca060001b15b47	612812249	1	main_z	11	main_z	133	stimuli_distractor_trianglediamonds.svg	stimuli_distractor_trianglediamonds.svg	33	no	44	0	392
6.6.1	win	2022-12-14	19:32:45	19:44:37	709103	5af309960eca060001b15b47	612812249	1	main_z	11	advance_on_keypress_ZEE	134	stimuli_distractor_trianglediamonds.svg	stimuli_distractor_trianglediamonds.svg	33	no	57	0	179
6.6.1	win	2022-12-14	19:32:45	19:44:38	710477	5af309960eca060001b15b47	612812249	1	main_z	11	main_z	135	stimuli_distractor_trianglediamonds.svg	stimuli_target_trianglesquares.svg	26	yes	44	1	549
6.6.1	win	2022-12-14	19:32:45	19:44:38	710477	5af309960eca060001b15b47	612812249	1	main_z	11	advance_on_keypress_ZEE	136	stimuli_distractor_trianglediamonds.svg	stimuli_target_trianglesquares.svg	26	yes	57	0	126
6.6.1	win	2022-12-14	19:32:45	19:44:40	712403	5af309960eca060001b15b47	612812249	1	main_z	11	main_z	137	stimuli_target_circlediamonds.svg	stimuli_distractor_diamondtriangles.svg	6	yes	44	1	1160
6.6.1	win	2022-12-14	19:32:45	19:44:40	712403	5af309960eca060001b15b47	612812249	1	main_z	11	advance_on_keypress_ZEE	138	stimuli_target_circlediamonds.svg	stimuli_distractor_diamondtriangles.svg	6	yes	57	0	196
6.6.1	win	2022-12-14	19:32:45	19:44:43	715244	5af309960eca060001b15b47	612812249	1	main_z	11	main_z	139	stimuli_distractor_diamondtriangles.svg	stimuli_distractor_diamondtriangles.svg	40	no	0	1	2000
6.6.1	win	2022-12-14	19:32:45	19:44:43	715244	5af309960eca060001b15b47	612812249	1	main_z	11	advance_on_keypress_ZEE	140	stimuli_distractor_diamondtriangles.svg	stimuli_distractor_diamondtriangles.svg	40	no	57	0	441
6.6.1	win	2022-12-14	19:32:45	19:44:44	716670	5af309960eca060001b15b47	612812249	1	main_z	11	main_z	141	stimuli_target_trianglecircles.svg	stimuli_distractor_diamondtriangles.svg	21	yes	44	1	343
6.6.1	win	2022-12-14	19:32:45	19:44:44	716670	5af309960eca060001b15b47	612812249	1	main_z	11	advance_on_keypress_ZEE	142	stimuli_target_trianglecircles.svg	stimuli_distractor_diamondtriangles.svg	21	yes	57	0	202
6.6.1	win	2022-12-14	19:32:45	19:44:45	717835	5af309960eca060001b15b47	612812249	1	main_z	11	main_z	143	stimuli_distractor_diamondtriangles.svg	stimuli_target_circlediamonds.svg	14	yes	44	1	325
6.6.1	win	2022-12-14	19:32:45	19:44:45	717835	5af309960eca060001b15b47	612812249	1	main_z	11	advance_on_keypress_ZEE	144	stimuli_distractor_diamondtriangles.svg	stimuli_target_circlediamonds.svg	14	yes	57	0	245
6.6.1	win	2022-12-14	19:32:45	19:44:47	719114	5af309960eca060001b15b47	612812249	1	main_z	11	main_z	145	stimuli_distractor_trianglediamonds.svg	stimuli_target_squaretriangles.svg	11	yes	44	1	386
6.6.1	win	2022-12-14	19:32:45	19:44:47	719114	5af309960eca060001b15b47	612812249	1	main_z	11	advance_on_keypress_ZEE	146	stimuli_distractor_trianglediamonds.svg	stimuli_target_squaretriangles.svg	11	yes	57	0	219
6.6.1	win	2022-12-14	19:32:45	19:44:48	720304	5af309960eca060001b15b47	612812249	1	main_z	11	main_z	147	stimuli_target_diamondsquares.svg	stimuli_distractor_trianglediamonds.svg	20	yes	44	1	328
6.6.1	win	2022-12-14	19:32:45	19:44:48	720304	5af309960eca060001b15b47	612812249	1	main_z	11	advance_on_keypress_ZEE	148	stimuli_target_diamondsquares.svg	stimuli_distractor_trianglediamonds.svg	20	yes	57	0	319
6.6.1	win	2022-12-14	19:32:45	19:44:49	721724	5af309960eca060001b15b47	612812249	1	main_z	11	main_z	149	stimuli_target_squaretriangles.svg	stimuli_distractor_trianglediamonds.svg	3	yes	44	1	463
6.6.1	win	2022-12-14	19:32:45	19:44:49	721724	5af309960eca060001b15b47	612812249	1	main_z	11	advance_on_keypress_ZEE	150	stimuli_target_squaretriangles.svg	stimuli_distractor_trianglediamonds.svg	3	yes	57	0	294
6.6.1	win	2022-12-14	19:32:45	19:44:51	723337	5af309960eca060001b15b47	612812249	1	main_z	11	main_z	151	stimuli_target_diamondsquares.svg	stimuli_distractor_diamondtriangles.svg	24	yes	44	1	660
6.6.1	win	2022-12-14	19:32:45	19:44:51	723337	5af309960eca060001b15b47	612812249	1	main_z	11	advance_on_keypress_ZEE	152	stimuli_target_diamondsquares.svg	stimuli_distractor_diamondtriangles.svg	24	yes	57	0	260
6.6.1	win	2022-12-14	19:32:45	19:44:54	726227	5af309960eca060001b15b47	612812249	1	main_z	11	main_z	153	stimuli_distractor_diamondtriangles.svg	stimuli_distractor_trianglediamonds.svg	37	no	0	1	2000
6.6.1	win	2022-12-14	19:32:45	19:44:54	726227	5af309960eca060001b15b47	612812249	1	main_z	11	advance_on_keypress_ZEE	154	stimuli_distractor_diamondtriangles.svg	stimuli_distractor_trianglediamonds.svg	37	no	57	0	286
6.6.1	win	2022-12-14	19:32:45	19:44:55	727507	5af309960eca060001b15b47	612812249	1	main_z	11	main_z	155	stimuli_target_circletriangles.svg	stimuli_distractor_diamondtriangles.svg	5	yes	44	1	346
6.6.1	win	2022-12-14	19:32:45	19:44:55	727507	5af309960eca060001b15b47	612812249	1	main_z	11	advance_on_keypress_ZEE	156	stimuli_target_circletriangles.svg	stimuli_distractor_diamondtriangles.svg	5	yes	57	0	2509
6.6.1	win	2022-12-14	19:32:45	19:44:59	731229	5af309960eca060001b15b47	612812249	1	main_z	11	main_z	157	stimuli_target_trianglecircles.svg	stimuli_distractor_trianglediamonds.svg	17	yes	44	1	568
6.6.1	win	2022-12-14	19:32:45	19:44:59	731229	5af309960eca060001b15b47	612812249	1	main_z	11	advance_on_keypress_ZEE	158	stimuli_target_trianglecircles.svg	stimuli_distractor_trianglediamonds.svg	17	yes	57	0	280
6.6.1	win	2022-12-14	19:32:45	19:45:00	732525	5af309960eca060001b15b47	612812249	1	main_z	11	main_z	159	stimuli_distractor_diamondtriangles.svg	stimuli_target_diamondcircles.svg	31	yes	44	1	365
6.6.1	win	2022-12-14	19:32:45	19:45:00	732525	5af309960eca060001b15b47	612812249	1	main_z	11	advance_on_keypress_ZEE	160	stimuli_distractor_diamondtriangles.svg	stimuli_target_diamondcircles.svg	31	yes	57	0	507