build	computer.platform	date	time	timestamp	time_elapsed_ms	subject	group	session	blockcode	blocknum	trialcode	trialnum	stimulus_left	stimulus_right	stim_index	target_present	response	correct	latency
6.6.0	win	2022-12-14	13:36:37	13:39:28	170631	6101930ddd5330f83b898c61	98492890	1	practice_z	5	practice_z	1	stimuli_target_circlediamonds.svg	stimuli_distractor_trianglediamonds.svg	4	yes	44	1	528
6.6.0	win	2022-12-14	13:36:37	13:39:28	170631	6101930ddd5330f83b898c61	98492890	1	practice_z	5	advance_on_keypress_ZEE	2	stimuli_target_circlediamonds.svg	stimuli_distractor_trianglediamonds.svg	4	yes	57	0	1951
6.6.0	win	2022-12-14	13:36:37	13:39:33	174847	6101930ddd5330f83b898c61	98492890	1	practice_z	5	practice_z	3	stimuli_distractor_diamondtriangles.svg	stimuli_target_diamondcircles.svg	8	yes	44	1	606
6.6.0	win	2022-12-14	13:36:37	13:39:33	174847	6101930ddd5330f83b898c61	98492890	1	practice_z	5	advance_on_keypress_ZEE	4	stimuli_distractor_diamondtriangles.svg	stimuli_target_diamondcircles.svg	8	yes	57	0	867
6.6.0	win	2022-12-14	13:36:37	13:39:36	178086	6101930ddd5330f83b898c61	98492890	1	practice_z	5	practice_z	5	stimuli_target_circlediamonds.svg	stimuli_distractor_diamondtriangles.svg	1	yes	44	1	726
6.6.0	win	2022-12-14	13:36:37	13:39:36	178086	6101930ddd5330f83b898c61	98492890	1	practice_z	5	advance_on_keypress_ZEE	6	stimuli_target_circlediamonds.svg	stimuli_distractor_diamondtriangles.svg	1	yes	57	0	575
6.6.0	win	2022-12-14	13:36:37	13:39:39	181111	6101930ddd5330f83b898c61	98492890	1	practice_z	5	practice_z	7	stimuli_distractor_diamondtriangles.svg	stimuli_target_circletriangles.svg	7	yes	44	1	797
6.6.0	win	2022-12-14	13:36:37	13:39:39	181111	6101930ddd5330f83b898c61	98492890	1	practice_z	5	advance_on_keypress_ZEE	8	stimuli_distractor_diamondtriangles.svg	stimuli_target_circletriangles.svg	7	yes	57	0	466
6.6.0	win	2022-12-14	13:36:37	13:39:43	185233	6101930ddd5330f83b898c61	98492890	1	practice_z	5	practice_z	9	stimuli_distractor_trianglediamonds.svg	stimuli_distractor_trianglediamonds.svg	15	no	0	1	2000
6.6.0	win	2022-12-14	13:36:37	13:39:43	185233	6101930ddd5330f83b898c61	98492890	1	practice_z	5	advance_on_keypress_ZEE	10	stimuli_distractor_trianglediamonds.svg	stimuli_distractor_trianglediamonds.svg	15	no	57	0	425
6.6.0	win	2022-12-14	13:36:37	13:39:47	189304	6101930ddd5330f83b898c61	98492890	1	practice_z	5	practice_z	11	stimuli_distractor_diamondtriangles.svg	stimuli_distractor_diamondtriangles.svg	13	no	0	1	2000
6.6.0	win	2022-12-14	13:36:37	13:39:47	189304	6101930ddd5330f83b898c61	98492890	1	practice_z	5	advance_on_keypress_ZEE	12	stimuli_distractor_diamondtriangles.svg	stimuli_distractor_diamondtriangles.svg	13	no	57	0	451
6.6.0	win	2022-12-14	13:36:37	13:39:50	192256	6101930ddd5330f83b898c61	98492890	1	practice_z	5	practice_z	13	stimuli_distractor_trianglediamonds.svg	stimuli_target_squarediamonds.svg	11	yes	44	1	848
6.6.0	win	2022-12-14	13:36:37	13:39:50	192256	6101930ddd5330f83b898c61	98492890	1	practice_z	5	advance_on_keypress_ZEE	14	stimuli_distractor_trianglediamonds.svg	stimuli_target_squarediamonds.svg	11	yes	57	0	642
6.6.0	win	2022-12-14	13:36:37	13:39:53	195077	6101930ddd5330f83b898c61	98492890	1	practice_z	5	practice_z	15	stimuli_distractor_diamondtriangles.svg	stimuli_target_trianglecircles.svg	9	yes	44	1	504
6.6.0	win	2022-12-14	13:36:37	13:39:53	195077	6101930ddd5330f83b898c61	98492890	1	practice_z	5	advance_on_keypress_ZEE	16	stimuli_distractor_diamondtriangles.svg	stimuli_target_trianglecircles.svg	9	yes	57	0	446
6.6.0	win	2022-12-14	13:36:37	13:39:55	197599	6101930ddd5330f83b898c61	98492890	1	practice_z	5	practice_z	17	stimuli_distractor_trianglediamonds.svg	stimuli_target_circlediamonds.svg	10	yes	44	1	419
6.6.0	win	2022-12-14	13:36:37	13:39:55	197599	6101930ddd5330f83b898c61	98492890	1	practice_z	5	advance_on_keypress_ZEE	18	stimuli_distractor_trianglediamonds.svg	stimuli_target_circlediamonds.svg	10	yes	57	0	415
6.6.0	win	2022-12-14	13:36:37	13:39:58	200207	6101930ddd5330f83b898c61	98492890	1	practice_z	5	practice_z	19	stimuli_distractor_trianglediamonds.svg	stimuli_target_diamondcircles.svg	12	yes	44	1	541
6.6.0	win	2022-12-14	13:36:37	13:39:58	200207	6101930ddd5330f83b898c61	98492890	1	practice_z	5	advance_on_keypress_ZEE	20	stimuli_distractor_trianglediamonds.svg	stimuli_target_diamondcircles.svg	12	yes	57	0	365
6.6.0	win	2022-12-14	13:36:37	13:40:02	204218	6101930ddd5330f83b898c61	98492890	1	practice_z	5	practice_z	21	stimuli_distractor_diamondtriangles.svg	stimuli_distractor_trianglediamonds.svg	14	no	0	1	2000
6.6.0	win	2022-12-14	13:36:37	13:40:02	204218	6101930ddd5330f83b898c61	98492890	1	practice_z	5	advance_on_keypress_ZEE	22	stimuli_distractor_diamondtriangles.svg	stimuli_distractor_trianglediamonds.svg	14	no	57	0	376
6.6.0	win	2022-12-14	13:36:37	13:40:06	208239	6101930ddd5330f83b898c61	98492890	1	practice_z	5	practice_z	23	stimuli_distractor_trianglediamonds.svg	stimuli_distractor_diamondtriangles.svg	16	no	0	1	2000
6.6.0	win	2022-12-14	13:36:37	13:40:06	208239	6101930ddd5330f83b898c61	98492890	1	practice_z	5	advance_on_keypress_ZEE	24	stimuli_distractor_trianglediamonds.svg	stimuli_distractor_diamondtriangles.svg	16	no	57	0	363
6.6.0	win	2022-12-14	13:36:37	13:40:09	210703	6101930ddd5330f83b898c61	98492890	1	practice_z	5	practice_z	25	stimuli_target_diamondsquares.svg	stimuli_distractor_diamondtriangles.svg	3	yes	44	1	443
6.6.0	win	2022-12-14	13:36:37	13:40:09	210703	6101930ddd5330f83b898c61	98492890	1	practice_z	5	advance_on_keypress_ZEE	26	stimuli_target_diamondsquares.svg	stimuli_distractor_diamondtriangles.svg	3	yes	57	0	423
6.6.0	win	2022-12-14	13:36:37	13:40:11	213489	6101930ddd5330f83b898c61	98492890	1	practice_z	5	practice_z	27	stimuli_target_squarediamonds.svg	stimuli_distractor_trianglediamonds.svg	5	yes	44	1	724
6.6.0	win	2022-12-14	13:36:37	13:40:11	213489	6101930ddd5330f83b898c61	98492890	1	practice_z	5	advance_on_keypress_ZEE	28	stimuli_target_squarediamonds.svg	stimuli_distractor_trianglediamonds.svg	5	yes	57	0	402
6.6.0	win	2022-12-14	13:36:37	13:40:14	216398	6101930ddd5330f83b898c61	98492890	1	practice_z	5	practice_z	29	stimuli_target_squarediamonds.svg	stimuli_distractor_diamondtriangles.svg	2	yes	44	1	850
6.6.0	win	2022-12-14	13:36:37	13:40:14	216398	6101930ddd5330f83b898c61	98492890	1	practice_z	5	advance_on_keypress_ZEE	30	stimuli_target_squarediamonds.svg	stimuli_distractor_diamondtriangles.svg	2	yes	57	0	309
6.6.0	win	2022-12-14	13:36:37	13:40:17	218959	6101930ddd5330f83b898c61	98492890	1	practice_z	5	practice_z	31	stimuli_target_diamondsquares.svg	stimuli_distractor_trianglediamonds.svg	6	yes	44	1	607
6.6.0	win	2022-12-14	13:36:37	13:40:17	218959	6101930ddd5330f83b898c61	98492890	1	practice_z	5	advance_on_keypress_ZEE	32	stimuli_target_diamondsquares.svg	stimuli_distractor_trianglediamonds.svg	6	yes	57	0	309
6.6.0	win	2022-12-14	13:36:37	13:40:25	227596	6101930ddd5330f83b898c61	98492890	1	main_z	7	main_z	1	stimuli_distractor_diamondtriangles.svg	stimuli_target_circletriangles.svg	13	yes	44	1	404
6.6.0	win	2022-12-14	13:36:37	13:40:25	227596	6101930ddd5330f83b898c61	98492890	1	main_z	7	advance_on_keypress_ZEE	2	stimuli_distractor_diamondtriangles.svg	stimuli_target_circletriangles.svg	13	yes	57	0	1755
6.6.0	win	2022-12-14	13:36:37	13:40:28	230533	6101930ddd5330f83b898c61	98492890	1	main_z	7	main_z	3	stimuli_target_circlediamonds.svg	stimuli_distractor_diamondtriangles.svg	6	yes	44	1	537
6.6.0	win	2022-12-14	13:36:37	13:40:28	230533	6101930ddd5330f83b898c61	98492890	1	main_z	7	advance_on_keypress_ZEE	4	stimuli_target_circlediamonds.svg	stimuli_distractor_diamondtriangles.svg	6	yes	57	0	498
6.6.0	win	2022-12-14	13:36:37	13:40:30	232196	6101930ddd5330f83b898c61	98492890	1	main_z	7	main_z	5	stimuli_target_trianglesquares.svg	stimuli_distractor_trianglediamonds.svg	18	yes	44	1	503
6.6.0	win	2022-12-14	13:36:37	13:40:30	232196	6101930ddd5330f83b898c61	98492890	1	main_z	7	advance_on_keypress_ZEE	6	stimuli_target_trianglesquares.svg	stimuli_distractor_trianglediamonds.svg	18	yes	57	0	454
6.6.0	win	2022-12-14	13:36:37	13:40:32	233853	6101930ddd5330f83b898c61	98492890	1	main_z	7	main_z	7	stimuli_target_trianglesquares.svg	stimuli_distractor_diamondtriangles.svg	22	yes	44	1	554
6.6.0	win	2022-12-14	13:36:37	13:40:32	233853	6101930ddd5330f83b898c61	98492890	1	main_z	7	advance_on_keypress_ZEE	8	stimuli_target_trianglesquares.svg	stimuli_distractor_diamondtriangles.svg	22	yes	57	0	410
6.6.0	win	2022-12-14	13:36:37	13:40:35	236900	6101930ddd5330f83b898c61	98492890	1	main_z	7	main_z	9	stimuli_distractor_diamondtriangles.svg	stimuli_distractor_diamondtriangles.svg	39	no	0	1	2000
6.6.0	win	2022-12-14	13:36:37	13:40:35	236900	6101930ddd5330f83b898c61	98492890	1	main_z	7	advance_on_keypress_ZEE	10	stimuli_distractor_diamondtriangles.svg	stimuli_distractor_diamondtriangles.svg	39	no	57	0	493
6.6.0	win	2022-12-14	13:36:37	13:40:38	240037	6101930ddd5330f83b898c61	98492890	1	main_z	7	main_z	11	stimuli_distractor_trianglediamonds.svg	stimuli_distractor_trianglediamonds.svg	33	no	0	1	2000
6.6.0	win	2022-12-14	13:36:37	13:40:38	240037	6101930ddd5330f83b898c61	98492890	1	main_z	7	advance_on_keypress_ZEE	12	stimuli_distractor_trianglediamonds.svg	stimuli_distractor_trianglediamonds.svg	33	no	57	0	325
6.6.0	win	2022-12-14	13:36:37	13:40:39	241588	6101930ddd5330f83b898c61	98492890	1	main_z	7	main_z	13	stimuli_target_trianglecircles.svg	stimuli_distractor_diamondtriangles.svg	21	yes	44	1	582
6.6.0	win	2022-12-14	13:36:37	13:40:39	241588	6101930ddd5330f83b898c61	98492890	1	main_z	7	advance_on_keypress_ZEE	14	stimuli_target_trianglecircles.svg	stimuli_distractor_diamondtriangles.svg	21	yes	57	0	981
6.6.0	win	2022-12-14	13:36:37	13:40:42	243885	6101930ddd5330f83b898c61	98492890	1	main_z	7	main_z	15	stimuli_target_diamondcircles.svg	stimuli_distractor_diamondtriangles.svg	23	yes	44	1	660
6.6.0	win	2022-12-14	13:36:37	13:40:42	243885	6101930ddd5330f83b898c61	98492890	1	main_z	7	advance_on_keypress_ZEE	16	stimuli_target_diamondcircles.svg	stimuli_distractor_diamondtriangles.svg	23	yes	57	0	479
6.6.0	win	2022-12-14	13:36:37	13:40:44	245796	6101930ddd5330f83b898c61	98492890	1	main_z	7	main_z	17	stimuli_distractor_diamondtriangles.svg	stimuli_target_trianglesquares.svg	30	yes	44	1	786
6.6.0	win	2022-12-14	13:36:37	13:40:44	245796	6101930ddd5330f83b898c61	98492890	1	main_z	7	advance_on_keypress_ZEE	18	stimuli_distractor_diamondtriangles.svg	stimuli_target_trianglesquares.svg	30	yes	57	0	529
6.6.0	win	2022-12-14	13:36:37	13:40:46	247716	6101930ddd5330f83b898c61	98492890	1	main_z	7	main_z	19	stimuli_target_trianglecircles.svg	stimuli_distractor_trianglediamonds.svg	17	yes	44	1	755
6.6.0	win	2022-12-14	13:36:37	13:40:46	247716	6101930ddd5330f83b898c61	98492890	1	main_z	7	advance_on_keypress_ZEE	20	stimuli_target_trianglecircles.svg	stimuli_distractor_trianglediamonds.svg	17	yes	57	0	586
6.6.0	win	2022-12-14	13:36:37	13:40:47	249652	6101930ddd5330f83b898c61	98492890	1	main_z	7	main_z	21	stimuli_target_squaretriangles.svg	stimuli_distractor_trianglediamonds.svg	3	yes	44	1	705
6.6.0	win	2022-12-14	13:36:37	13:40:47	249652	6101930ddd5330f83b898c61	98492890	1	main_z	7	advance_on_keypress_ZEE	22	stimuli_target_squaretriangles.svg	stimuli_distractor_trianglediamonds.svg	3	yes	57	0	475
6.6.0	win	2022-12-14	13:36:37	13:40:49	251452	6101930ddd5330f83b898c61	98492890	1	main_z	7	main_z	23	stimuli_distractor_trianglediamonds.svg	stimuli_target_diamondcircles.svg	27	yes	44	1	687
6.6.0	win	2022-12-14	13:36:37	13:40:49	251452	6101930ddd5330f83b898c61	98492890	1	main_z	7	advance_on_keypress_ZEE	24	stimuli_distractor_trianglediamonds.svg	stimuli_target_diamondcircles.svg	27	yes	57	0	393
6.6.0	win	2022-12-14	13:36:37	13:40:51	253133	6101930ddd5330f83b898c61	98492890	1	main_z	7	main_z	25	stimuli_target_squaretriangles.svg	stimuli_distractor_diamondtriangles.svg	7	yes	44	1	648
6.6.0	win	2022-12-14	13:36:37	13:40:51	253133	6101930ddd5330f83b898c61	98492890	1	main_z	7	advance_on_keypress_ZEE	26	stimuli_target_squaretriangles.svg	stimuli_distractor_diamondtriangles.svg	7	yes	57	0	364
6.6.0	win	2022-12-14	13:36:37	13:40:52	254548	6101930ddd5330f83b898c61	98492890	1	main_z	7	main_z	27	stimuli_distractor_diamondtriangles.svg	stimuli_target_trianglecircles.svg	29	yes	44	1	396
6.6.0	win	2022-12-14	13:36:37	13:40:52	254548	6101930ddd5330f83b898c61	98492890	1	main_z	7	advance_on_keypress_ZEE	28	stimuli_distractor_diamondtriangles.svg	stimuli_target_trianglecircles.svg	29	yes	57	0	387
6.6.0	win	2022-12-14	13:36:37	13:40:54	256086	6101930ddd5330f83b898c61	98492890	1	main_z	7	main_z	29	stimuli_distractor_diamondtriangles.svg	stimuli_target_circlediamonds.svg	14	yes	44	1	506
6.6.0	win	2022-12-14	13:36:37	13:40:54	256086	6101930ddd5330f83b898c61	98492890	1	main_z	7	advance_on_keypress_ZEE	30	stimuli_distractor_diamondtriangles.svg	stimuli_target_circlediamonds.svg	14	yes	57	0	339
6.6.0	win	2022-12-14	13:36:37	13:40:55	257532	6101930ddd5330f83b898c61	98492890	1	main_z	7	main_z	31	stimuli_distractor_trianglediamonds.svg	stimuli_target_circlediamonds.svg	10	yes	44	1	460
6.6.0	win	2022-12-14	13:36:37	13:40:55	257532	6101930ddd5330f83b898c61	98492890	1	main_z	7	advance_on_keypress_ZEE	32	stimuli_distractor_trianglediamonds.svg	stimuli_target_circlediamonds.svg	10	yes	57	0	328
6.6.0	win	2022-12-14	13:36:37	13:40:57	259204	6101930ddd5330f83b898c61	98492890	1	main_z	7	main_z	33	stimuli_target_squarediamonds.svg	stimuli_distractor_trianglediamonds.svg	4	yes	44	1	714
6.6.0	win	2022-12-14	13:36:37	13:40:57	259204	6101930ddd5330f83b898c61	98492890	1	main_z	7	advance_on_keypress_ZEE	34	stimuli_target_squarediamonds.svg	stimuli_distractor_trianglediamonds.svg	4	yes	57	0	340
6.6.0	win	2022-12-14	13:36:37	13:40:59	261036	6101930ddd5330f83b898c61	98492890	1	main_z	7	main_z	35	stimuli_target_circletriangles.svg	stimuli_distractor_trianglediamonds.svg	1	yes	44	1	845
6.6.0	win	2022-12-14	13:36:37	13:40:59	261036	6101930ddd5330f83b898c61	98492890	1	main_z	7	advance_on_keypress_ZEE	36	stimuli_target_circletriangles.svg	stimuli_distractor_trianglediamonds.svg	1	yes	57	0	353
6.6.0	win	2022-12-14	13:36:37	13:41:00	262629	6101930ddd5330f83b898c61	98492890	1	main_z	7	main_z	37	stimuli_distractor_trianglediamonds.svg	stimuli_target_diamondsquares.svg	28	yes	44	1	601
6.6.0	win	2022-12-14	13:36:37	13:41:00	262629	6101930ddd5330f83b898c61	98492890	1	main_z	7	advance_on_keypress_ZEE	38	stimuli_distractor_trianglediamonds.svg	stimuli_target_diamondsquares.svg	28	yes	57	0	368
6.6.0	win	2022-12-14	13:36:37	13:41:02	264188	6101930ddd5330f83b898c61	98492890	1	main_z	7	main_z	39	stimuli_distractor_diamondtriangles.svg	stimuli_target_diamondcircles.svg	31	yes	44	1	543
6.6.0	win	2022-12-14	13:36:37	13:41:02	264188	6101930ddd5330f83b898c61	98492890	1	main_z	7	advance_on_keypress_ZEE	40	stimuli_distractor_diamondtriangles.svg	stimuli_target_diamondcircles.svg	31	yes	57	0	360
6.6.0	win	2022-12-14	13:36:37	13:41:04	265909	6101930ddd5330f83b898c61	98492890	1	main_z	7	main_z	41	stimuli_distractor_trianglediamonds.svg	stimuli_target_squaretriangles.svg	11	yes	44	1	728
6.6.0	win	2022-12-14	13:36:37	13:41:04	265909	6101930ddd5330f83b898c61	98492890	1	main_z	7	advance_on_keypress_ZEE	42	stimuli_distractor_trianglediamonds.svg	stimuli_target_squaretriangles.svg	11	yes	57	0	353
6.6.0	win	2022-12-14	13:36:37	13:41:05	267414	6101930ddd5330f83b898c61	98492890	1	main_z	7	main_z	43	stimuli_target_diamondcircles.svg	stimuli_distractor_trianglediamonds.svg	19	yes	44	1	514
6.6.0	win	2022-12-14	13:36:37	13:41:05	267414	6101930ddd5330f83b898c61	98492890	1	main_z	7	advance_on_keypress_ZEE	44	stimuli_target_diamondcircles.svg	stimuli_distractor_trianglediamonds.svg	19	yes	57	0	339
6.6.0	win	2022-12-14	13:36:37	13:41:08	270400	6101930ddd5330f83b898c61	98492890	1	main_z	7	main_z	45	stimuli_distractor_diamondtriangles.svg	stimuli_distractor_diamondtriangles.svg	40	no	0	1	2000
6.6.0	win	2022-12-14	13:36:37	13:41:08	270400	6101930ddd5330f83b898c61	98492890	1	main_z	7	advance_on_keypress_ZEE	46	stimuli_distractor_diamondtriangles.svg	stimuli_distractor_diamondtriangles.svg	40	no	57	0	521
6.6.0	win	2022-12-14	13:36:37	13:41:11	273570	6101930ddd5330f83b898c61	98492890	1	main_z	7	main_z	47	stimuli_distractor_trianglediamonds.svg	stimuli_distractor_trianglediamonds.svg	34	no	0	1	2000
6.6.0	win	2022-12-14	13:36:37	13:41:11	273570	6101930ddd5330f83b898c61	98492890	1	main_z	7	advance_on_keypress_ZEE	48	stimuli_distractor_trianglediamonds.svg	stimuli_distractor_trianglediamonds.svg	34	no	57	0	967
6.6.0	win	2022-12-14	13:36:37	13:41:13	275589	6101930ddd5330f83b898c61	98492890	1	main_z	7	main_z	49	stimuli_distractor_trianglediamonds.svg	stimuli_target_squarediamonds.svg	12	yes	44	1	398
6.6.0	win	2022-12-14	13:36:37	13:41:13	275589	6101930ddd5330f83b898c61	98492890	1	main_z	7	advance_on_keypress_ZEE	50	stimuli_distractor_trianglediamonds.svg	stimuli_target_squarediamonds.svg	12	yes	57	0	341
6.6.0	win	2022-12-14	13:36:37	13:41:15	276932	6101930ddd5330f83b898c61	98492890	1	main_z	7	main_z	51	stimuli_target_circlediamonds.svg	stimuli_distractor_trianglediamonds.svg	2	yes	44	1	358
6.6.0	win	2022-12-14	13:36:37	13:41:15	276932	6101930ddd5330f83b898c61	98492890	1	main_z	7	advance_on_keypress_ZEE	52	stimuli_target_circlediamonds.svg	stimuli_distractor_trianglediamonds.svg	2	yes	57	0	350
6.6.0	win	2022-12-14	13:36:37	13:41:16	278284	6101930ddd5330f83b898c61	98492890	1	main_z	7	main_z	53	stimuli_distractor_trianglediamonds.svg	stimuli_target_trianglecircles.svg	25	yes	44	1	358
6.6.0	win	2022-12-14	13:36:37	13:41:16	278284	6101930ddd5330f83b898c61	98492890	1	main_z	7	advance_on_keypress_ZEE	54	stimuli_distractor_trianglediamonds.svg	stimuli_target_trianglecircles.svg	25	yes	57	0	319
6.6.0	win	2022-12-14	13:36:37	13:41:17	279660	6101930ddd5330f83b898c61	98492890	1	main_z	7	main_z	55	stimuli_distractor_trianglediamonds.svg	stimuli_target_circletriangles.svg	9	yes	44	1	416
6.6.0	win	2022-12-14	13:36:37	13:41:17	279660	6101930ddd5330f83b898c61	98492890	1	main_z	7	advance_on_keypress_ZEE	56	stimuli_distractor_trianglediamonds.svg	stimuli_target_circletriangles.svg	9	yes	57	0	326
6.6.0	win	2022-12-14	13:36:37	13:41:20	282629	6101930ddd5330f83b898c61	98492890	1	main_z	7	main_z	57	stimuli_distractor_trianglediamonds.svg	stimuli_distractor_diamondtriangles.svg	35	no	0	1	2000
6.6.0	win	2022-12-14	13:36:37	13:41:20	282629	6101930ddd5330f83b898c61	98492890	1	main_z	7	advance_on_keypress_ZEE	58	stimuli_distractor_trianglediamonds.svg	stimuli_distractor_diamondtriangles.svg	35	no	57	0	444
6.6.0	win	2022-12-14	13:36:37	13:41:22	284102	6101930ddd5330f83b898c61	98492890	1	main_z	7	main_z	59	stimuli_target_squarediamonds.svg	stimuli_distractor_diamondtriangles.svg	8	yes	44	1	385
6.6.0	win	2022-12-14	13:36:37	13:41:22	284102	6101930ddd5330f83b898c61	98492890	1	main_z	7	advance_on_keypress_ZEE	60	stimuli_target_squarediamonds.svg	stimuli_distractor_diamondtriangles.svg	8	yes	57	0	304
6.6.0	win	2022-12-14	13:36:37	13:41:23	285532	6101930ddd5330f83b898c61	98492890	1	main_z	7	main_z	61	stimuli_distractor_diamondtriangles.svg	stimuli_target_diamondsquares.svg	32	yes	44	1	482
6.6.0	win	2022-12-14	13:36:37	13:41:23	285532	6101930ddd5330f83b898c61	98492890	1	main_z	7	advance_on_keypress_ZEE	62	stimuli_distractor_diamondtriangles.svg	stimuli_target_diamondsquares.svg	32	yes	57	0	309
6.6.0	win	2022-12-14	13:36:37	13:41:26	288485	6101930ddd5330f83b898c61	98492890	1	main_z	7	main_z	63	stimuli_distractor_trianglediamonds.svg	stimuli_distractor_diamondtriangles.svg	36	no	0	1	2000
6.6.0	win	2022-12-14	13:36:37	13:41:26	288485	6101930ddd5330f83b898c61	98492890	1	main_z	7	advance_on_keypress_ZEE	64	stimuli_distractor_trianglediamonds.svg	stimuli_distractor_diamondtriangles.svg	36	no	57	0	508
6.6.0	win	2022-12-14	13:36:37	13:41:28	289957	6101930ddd5330f83b898c61	98492890	1	main_z	7	main_z	65	stimuli_distractor_diamondtriangles.svg	stimuli_target_squarediamonds.svg	16	yes	44	1	319
6.6.0	win	2022-12-14	13:36:37	13:41:28	289957	6101930ddd5330f83b898c61	98492890	1	main_z	7	advance_on_keypress_ZEE	66	stimuli_distractor_diamondtriangles.svg	stimuli_target_squarediamonds.svg	16	yes	57	0	328
6.6.0	win	2022-12-14	13:36:37	13:41:31	292923	6101930ddd5330f83b898c61	98492890	1	main_z	7	main_z	67	stimuli_target_diamondsquares.svg	stimuli_distractor_trianglediamonds.svg	20	yes	0	0	2000
6.6.0	win	2022-12-14	13:36:37	13:41:31	292923	6101930ddd5330f83b898c61	98492890	1	main_z	7	advance_on_keypress_ZEE	68	stimuli_target_diamondsquares.svg	stimuli_distractor_trianglediamonds.svg	20	yes	57	0	575
6.6.0	win	2022-12-14	13:36:37	13:41:32	294460	6101930ddd5330f83b898c61	98492890	1	main_z	7	main_z	69	stimuli_distractor_trianglediamonds.svg	stimuli_target_trianglesquares.svg	26	yes	44	1	318
6.6.0	win	2022-12-14	13:36:37	13:41:32	294460	6101930ddd5330f83b898c61	98492890	1	main_z	7	advance_on_keypress_ZEE	70	stimuli_distractor_trianglediamonds.svg	stimuli_target_trianglesquares.svg	26	yes	57	0	392
6.6.0	win	2022-12-14	13:36:37	13:41:34	296029	6101930ddd5330f83b898c61	98492890	1	main_z	7	main_z	71	stimuli_target_circletriangles.svg	stimuli_distractor_diamondtriangles.svg	5	yes	44	1	535
6.6.0	win	2022-12-14	13:36:37	13:41:34	296029	6101930ddd5330f83b898c61	98492890	1	main_z	7	advance_on_keypress_ZEE	72	stimuli_target_circletriangles.svg	stimuli_distractor_diamondtriangles.svg	5	yes	57	0	319
6.6.0	win	2022-12-14	13:36:37	13:41:37	298995	6101930ddd5330f83b898c61	98492890	1	main_z	7	main_z	73	stimuli_distractor_diamondtriangles.svg	stimuli_distractor_trianglediamonds.svg	38	no	0	1	2000
6.6.0	win	2022-12-14	13:36:37	13:41:37	298995	6101930ddd5330f83b898c61	98492890	1	main_z	7	advance_on_keypress_ZEE	74	stimuli_distractor_diamondtriangles.svg	stimuli_distractor_trianglediamonds.svg	38	no	57	0	1118
6.6.0	win	2022-12-14	13:36:37	13:41:41	302766	6101930ddd5330f83b898c61	98492890	1	main_z	7	main_z	75	stimuli_distractor_diamondtriangles.svg	stimuli_distractor_trianglediamonds.svg	37	no	0	1	2000
6.6.0	win	2022-12-14	13:36:37	13:41:41	302766	6101930ddd5330f83b898c61	98492890	1	main_z	7	advance_on_keypress_ZEE	76	stimuli_distractor_diamondtriangles.svg	stimuli_distractor_trianglediamonds.svg	37	no	57	0	387
6.6.0	win	2022-12-14	13:36:37	13:41:42	304357	6101930ddd5330f83b898c61	98492890	1	main_z	7	main_z	77	stimuli_distractor_diamondtriangles.svg	stimuli_target_squaretriangles.svg	15	yes	44	1	554
6.6.0	win	2022-12-14	13:36:37	13:41:42	304357	6101930ddd5330f83b898c61	98492890	1	main_z	7	advance_on_keypress_ZEE	78	stimuli_distractor_diamondtriangles.svg	stimuli_target_squaretriangles.svg	15	yes	57	0	330
6.6.0	win	2022-12-14	13:36:37	13:41:44	306068	6101930ddd5330f83b898c61	98492890	1	main_z	7	main_z	79	stimuli_target_diamondsquares.svg	stimuli_distractor_diamondtriangles.svg	24	yes	44	1	732
6.6.0	win	2022-12-14	13:36:37	13:41:44	306068	6101930ddd5330f83b898c61	98492890	1	main_z	7	advance_on_keypress_ZEE	80	stimuli_target_diamondsquares.svg	stimuli_distractor_diamondtriangles.svg	24	yes	57	0	340
6.6.0	win	2022-12-14	13:36:37	13:41:46	307676	6101930ddd5330f83b898c61	98492890	1	main_z	7	main_z	81	stimuli_target_diamondsquares.svg	stimuli_distractor_trianglediamonds.svg	20	yes	44	1	621
6.6.0	win	2022-12-14	13:36:37	13:41:46	307676	6101930ddd5330f83b898c61	98492890	1	main_z	7	advance_on_keypress_ZEE	82	stimuli_target_diamondsquares.svg	stimuli_distractor_trianglediamonds.svg	20	yes	57	0	355
6.6.0	win	2022-12-14	13:36:37	13:41:47	309212	6101930ddd5330f83b898c61	98492890	1	main_z	7	main_z	83	stimuli_target_squaretriangles.svg	stimuli_distractor_diamondtriangles.svg	7	yes	44	1	539
6.6.0	win	2022-12-14	13:36:37	13:41:47	309212	6101930ddd5330f83b898c61	98492890	1	main_z	7	advance_on_keypress_ZEE	84	stimuli_target_squaretriangles.svg	stimuli_distractor_diamondtriangles.svg	7	yes	57	0	332
6.6.0	win	2022-12-14	13:36:37	13:41:48	310621	6101930ddd5330f83b898c61	98492890	1	main_z	7	main_z	85	stimuli_target_circletriangles.svg	stimuli_distractor_trianglediamonds.svg	1	yes	44	1	429
6.6.0	win	2022-12-14	13:36:37	13:41:48	310621	6101930ddd5330f83b898c61	98492890	1	main_z	7	advance_on_keypress_ZEE	86	stimuli_target_circletriangles.svg	stimuli_distractor_trianglediamonds.svg	1	yes	57	0	362
6.6.0	win	2022-12-14	13:36:37	13:41:51	313610	6101930ddd5330f83b898c61	98492890	1	main_z	7	main_z	87	stimuli_distractor_diamondtriangles.svg	stimuli_distractor_trianglediamonds.svg	37	no	0	1	2000
6.6.0	win	2022-12-14	13:36:37	13:41:51	313610	6101930ddd5330f83b898c61	98492890	1	main_z	7	advance_on_keypress_ZEE	88	stimuli_distractor_diamondtriangles.svg	stimuli_distractor_trianglediamonds.svg	37	no	57	0	495
6.6.0	win	2022-12-14	13:36:37	13:41:53	315128	6101930ddd5330f83b898c61	98492890	1	main_z	7	main_z	89	stimuli_distractor_trianglediamonds.svg	stimuli_target_trianglesquares.svg	26	yes	44	1	378
6.6.0	win	2022-12-14	13:36:37	13:41:53	315128	6101930ddd5330f83b898c61	98492890	1	main_z	7	advance_on_keypress_ZEE	90	stimuli_distractor_trianglediamonds.svg	stimuli_target_trianglesquares.svg	26	yes	57	0	377
6.6.0	win	2022-12-14	13:36:37	13:41:54	316644	6101930ddd5330f83b898c61	98492890	1	main_z	7	main_z	91	stimuli_target_squarediamonds.svg	stimuli_distractor_diamondtriangles.svg	8	yes	44	1	497
6.6.0	win	2022-12-14	13:36:37	13:41:54	316644	6101930ddd5330f83b898c61	98492890	1	main_z	7	advance_on_keypress_ZEE	92	stimuli_target_squarediamonds.svg	stimuli_distractor_diamondtriangles.svg	8	yes	57	0	340
6.6.0	win	2022-12-14	13:36:37	13:41:56	318045	6101930ddd5330f83b898c61	98492890	1	main_z	7	main_z	93	stimuli_distractor_trianglediamonds.svg	stimuli_target_circletriangles.svg	9	yes	44	1	429
6.6.0	win	2022-12-14	13:36:37	13:41:56	318045	6101930ddd5330f83b898c61	98492890	1	main_z	7	advance_on_keypress_ZEE	94	stimuli_distractor_trianglediamonds.svg	stimuli_target_circletriangles.svg	9	yes	57	0	338
6.6.0	win	2022-12-14	13:36:37	13:41:57	319469	6101930ddd5330f83b898c61	98492890	1	main_z	7	main_z	95	stimuli_target_trianglecircles.svg	stimuli_distractor_trianglediamonds.svg	17	yes	44	1	451
6.6.0	win	2022-12-14	13:36:37	13:41:57	319469	6101930ddd5330f83b898c61	98492890	1	main_z	7	advance_on_keypress_ZEE	96	stimuli_target_trianglecircles.svg	stimuli_distractor_trianglediamonds.svg	17	yes	57	0	367
6.6.0	win	2022-12-14	13:36:37	13:41:59	321117	6101930ddd5330f83b898c61	98492890	1	main_z	7	main_z	97	stimuli_distractor_trianglediamonds.svg	stimuli_target_squarediamonds.svg	12	yes	44	1	631
6.6.0	win	2022-12-14	13:36:37	13:41:59	321117	6101930ddd5330f83b898c61	98492890	1	main_z	7	advance_on_keypress_ZEE	98	stimuli_distractor_trianglediamonds.svg	stimuli_target_squarediamonds.svg	12	yes	57	0	324
6.6.0	win	2022-12-14	13:36:37	13:42:02	324087	6101930ddd5330f83b898c61	98492890	1	main_z	7	main_z	99	stimuli_distractor_diamondtriangles.svg	stimuli_distractor_diamondtriangles.svg	40	no	0	1	2000
6.6.0	win	2022-12-14	13:36:37	13:42:02	324087	6101930ddd5330f83b898c61	98492890	1	main_z	7	advance_on_keypress_ZEE	100	stimuli_distractor_diamondtriangles.svg	stimuli_distractor_diamondtriangles.svg	40	no	57	0	922
6.6.0	win	2022-12-14	13:36:37	13:42:05	327657	6101930ddd5330f83b898c61	98492890	1	main_z	7	main_z	101	stimuli_distractor_trianglediamonds.svg	stimuli_distractor_trianglediamonds.svg	34	no	0	1	2000
6.6.0	win	2022-12-14	13:36:37	13:42:05	327657	6101930ddd5330f83b898c61	98492890	1	main_z	7	advance_on_keypress_ZEE	102	stimuli_distractor_trianglediamonds.svg	stimuli_distractor_trianglediamonds.svg	34	no	57	0	632
6.6.0	win	2022-12-14	13:36:37	13:42:07	329333	6101930ddd5330f83b898c61	98492890	1	main_z	7	main_z	103	stimuli_distractor_trianglediamonds.svg	stimuli_target_squaretriangles.svg	11	yes	44	1	389
6.6.0	win	2022-12-14	13:36:37	13:42:07	329333	6101930ddd5330f83b898c61	98492890	1	main_z	7	advance_on_keypress_ZEE	104	stimuli_distractor_trianglediamonds.svg	stimuli_target_squaretriangles.svg	11	yes	57	0	316
6.6.0	win	2022-12-14	13:36:37	13:42:09	330741	6101930ddd5330f83b898c61	98492890	1	main_z	7	main_z	105	stimuli_target_squaretriangles.svg	stimuli_distractor_trianglediamonds.svg	3	yes	44	1	445
6.6.0	win	2022-12-14	13:36:37	13:42:09	330741	6101930ddd5330f83b898c61	98492890	1	main_z	7	advance_on_keypress_ZEE	106	stimuli_target_squaretriangles.svg	stimuli_distractor_trianglediamonds.svg	3	yes	57	0	306
6.6.0	win	2022-12-14	13:36:37	13:42:10	332012	6101930ddd5330f83b898c61	98492890	1	main_z	7	main_z	107	stimuli_distractor_diamondtriangles.svg	stimuli_target_trianglecircles.svg	29	yes	44	1	333
6.6.0	win	2022-12-14	13:36:37	13:42:10	332012	6101930ddd5330f83b898c61	98492890	1	main_z	7	advance_on_keypress_ZEE	108	stimuli_distractor_diamondtriangles.svg	stimuli_target_trianglecircles.svg	29	yes	57	0	350
6.6.0	win	2022-12-14	13:36:37	13:42:13	335015	6101930ddd5330f83b898c61	98492890	1	main_z	7	main_z	109	stimuli_distractor_trianglediamonds.svg	stimuli_distractor_trianglediamonds.svg	33	no	0	1	2000
6.6.0	win	2022-12-14	13:36:37	13:42:13	335015	6101930ddd5330f83b898c61	98492890	1	main_z	7	advance_on_keypress_ZEE	110	stimuli_distractor_trianglediamonds.svg	stimuli_distractor_trianglediamonds.svg	33	no	57	0	483
6.6.0	win	2022-12-14	13:36:37	13:42:14	336589	6101930ddd5330f83b898c61	98492890	1	main_z	7	main_z	111	stimuli_target_trianglesquares.svg	stimuli_distractor_diamondtriangles.svg	22	yes	44	1	437
6.6.0	win	2022-12-14	13:36:37	13:42:14	336589	6101930ddd5330f83b898c61	98492890	1	main_z	7	advance_on_keypress_ZEE	112	stimuli_target_trianglesquares.svg	stimuli_distractor_diamondtriangles.svg	22	yes	57	0	314
6.6.0	win	2022-12-14	13:36:37	13:42:16	337972	6101930ddd5330f83b898c61	98492890	1	main_z	7	main_z	113	stimuli_distractor_diamondtriangles.svg	stimuli_target_trianglesquares.svg	30	yes	44	1	420
6.6.0	win	2022-12-14	13:36:37	13:42:16	337972	6101930ddd5330f83b898c61	98492890	1	main_z	7	advance_on_keypress_ZEE	114	stimuli_distractor_diamondtriangles.svg	stimuli_target_trianglesquares.svg	30	yes	57	0	330
6.6.0	win	2022-12-14	13:36:37	13:42:17	339336	6101930ddd5330f83b898c61	98492890	1	main_z	7	main_z	115	stimuli_target_circlediamonds.svg	stimuli_distractor_trianglediamonds.svg	2	yes	44	1	379
6.6.0	win	2022-12-14	13:36:37	13:42:17	339336	6101930ddd5330f83b898c61	98492890	1	main_z	7	advance_on_keypress_ZEE	116	stimuli_target_circlediamonds.svg	stimuli_distractor_trianglediamonds.svg	2	yes	57	0	337
6.6.0	win	2022-12-14	13:36:37	13:42:19	340716	6101930ddd5330f83b898c61	98492890	1	main_z	7	main_z	117	stimuli_distractor_trianglediamonds.svg	stimuli_target_circlediamonds.svg	10	yes	44	1	395
6.6.0	win	2022-12-14	13:36:37	13:42:19	340716	6101930ddd5330f83b898c61	98492890	1	main_z	7	advance_on_keypress_ZEE	118	stimuli_distractor_trianglediamonds.svg	stimuli_target_circlediamonds.svg	10	yes	57	0	369
6.6.0	win	2022-12-14	13:36:37	13:42:20	342105	6101930ddd5330f83b898c61	98492890	1	main_z	7	main_z	119	stimuli_target_diamondcircles.svg	stimuli_distractor_trianglediamonds.svg	19	yes	44	1	377
6.6.0	win	2022-12-14	13:36:37	13:42:20	342105	6101930ddd5330f83b898c61	98492890	1	main_z	7	advance_on_keypress_ZEE	120	stimuli_target_diamondcircles.svg	stimuli_distractor_trianglediamonds.svg	19	yes	57	0	336
6.6.0	win	2022-12-14	13:36:37	13:42:21	343540	6101930ddd5330f83b898c61	98492890	1	main_z	7	main_z	121	stimuli_distractor_trianglediamonds.svg	stimuli_target_diamondsquares.svg	28	yes	44	1	449
6.6.0	win	2022-12-14	13:36:37	13:42:21	343540	6101930ddd5330f83b898c61	98492890	1	main_z	7	advance_on_keypress_ZEE	122	stimuli_distractor_trianglediamonds.svg	stimuli_target_diamondsquares.svg	28	yes	57	0	333
6.6.0	win	2022-12-14	13:36:37	13:42:23	345085	6101930ddd5330f83b898c61	98492890	1	main_z	7	main_z	123	stimuli_target_circlediamonds.svg	stimuli_distractor_diamondtriangles.svg	6	yes	44	1	558
6.6.0	win	2022-12-14	13:36:37	13:42:23	345085	6101930ddd5330f83b898c61	98492890	1	main_z	7	advance_on_keypress_ZEE	124	stimuli_target_circlediamonds.svg	stimuli_distractor_diamondtriangles.svg	6	yes	57	0	326
6.6.0	win	2022-12-14	13:36:37	13:42:26	348044	6101930ddd5330f83b898c61	98492890	1	main_z	7	main_z	125	stimuli_distractor_trianglediamonds.svg	stimuli_distractor_diamondtriangles.svg	36	no	0	1	2000
6.6.0	win	2022-12-14	13:36:37	13:42:26	348044	6101930ddd5330f83b898c61	98492890	1	main_z	7	advance_on_keypress_ZEE	126	stimuli_distractor_trianglediamonds.svg	stimuli_distractor_diamondtriangles.svg	36	no	57	0	565
6.6.0	win	2022-12-14	13:36:37	13:42:28	349668	6101930ddd5330f83b898c61	98492890	1	main_z	7	main_z	127	stimuli_distractor_diamondtriangles.svg	stimuli_target_circletriangles.svg	13	yes	44	1	404
6.6.0	win	2022-12-14	13:36:37	13:42:28	349668	6101930ddd5330f83b898c61	98492890	1	main_z	7	advance_on_keypress_ZEE	128	stimuli_distractor_diamondtriangles.svg	stimuli_target_circletriangles.svg	13	yes	57	0	307
6.6.0	win	2022-12-14	13:36:37	13:42:30	352616	6101930ddd5330f83b898c61	98492890	1	main_z	7	main_z	129	stimuli_distractor_trianglediamonds.svg	stimuli_distractor_diamondtriangles.svg	35	no	0	1	2000
6.6.0	win	2022-12-14	13:36:37	13:42:30	352616	6101930ddd5330f83b898c61	98492890	1	main_z	7	advance_on_keypress_ZEE	130	stimuli_distractor_trianglediamonds.svg	stimuli_distractor_diamondtriangles.svg	35	no	57	0	434
6.6.0	win	2022-12-14	13:36:37	13:42:32	354060	6101930ddd5330f83b898c61	98492890	1	main_z	7	main_z	131	stimuli_distractor_diamondtriangles.svg	stimuli_target_squaretriangles.svg	15	yes	44	1	359
6.6.0	win	2022-12-14	13:36:37	13:42:32	354060	6101930ddd5330f83b898c61	98492890	1	main_z	7	advance_on_keypress_ZEE	132	stimuli_distractor_diamondtriangles.svg	stimuli_target_squaretriangles.svg	15	yes	57	0	319
6.6.0	win	2022-12-14	13:36:37	13:42:33	355460	6101930ddd5330f83b898c61	98492890	1	main_z	7	main_z	133	stimuli_target_trianglesquares.svg	stimuli_distractor_trianglediamonds.svg	18	yes	44	1	440
6.6.0	win	2022-12-14	13:36:37	13:42:33	355460	6101930ddd5330f83b898c61	98492890	1	main_z	7	advance_on_keypress_ZEE	134	stimuli_target_trianglesquares.svg	stimuli_distractor_trianglediamonds.svg	18	yes	57	0	317
6.6.0	win	2022-12-14	13:36:37	13:42:36	358421	6101930ddd5330f83b898c61	98492890	1	main_z	7	main_z	135	stimuli_distractor_diamondtriangles.svg	stimuli_distractor_diamondtriangles.svg	39	no	0	1	2000
6.6.0	win	2022-12-14	13:36:37	13:42:36	358421	6101930ddd5330f83b898c61	98492890	1	main_z	7	advance_on_keypress_ZEE	136	stimuli_distractor_diamondtriangles.svg	stimuli_distractor_diamondtriangles.svg	39	no	57	0	444
6.6.0	win	2022-12-14	13:36:37	13:42:38	359917	6101930ddd5330f83b898c61	98492890	1	main_z	7	main_z	137	stimuli_distractor_diamondtriangles.svg	stimuli_target_squarediamonds.svg	16	yes	44	1	409
6.6.0	win	2022-12-14	13:36:37	13:42:38	359917	6101930ddd5330f83b898c61	98492890	1	main_z	7	advance_on_keypress_ZEE	138	stimuli_distractor_diamondtriangles.svg	stimuli_target_squarediamonds.svg	16	yes	57	0	311
6.6.0	win	2022-12-14	13:36:37	13:42:39	361324	6101930ddd5330f83b898c61	98492890	1	main_z	7	main_z	139	stimuli_target_trianglecircles.svg	stimuli_distractor_diamondtriangles.svg	21	yes	44	1	465
6.6.0	win	2022-12-14	13:36:37	13:42:39	361324	6101930ddd5330f83b898c61	98492890	1	main_z	7	advance_on_keypress_ZEE	140	stimuli_target_trianglecircles.svg	stimuli_distractor_diamondtriangles.svg	21	yes	57	0	325
6.6.0	win	2022-12-14	13:36:37	13:42:41	362852	6101930ddd5330f83b898c61	98492890	1	main_z	7	main_z	141	stimuli_target_diamondsquares.svg	stimuli_distractor_diamondtriangles.svg	24	yes	44	1	559
6.6.0	win	2022-12-14	13:36:37	13:42:41	362852	6101930ddd5330f83b898c61	98492890	1	main_z	7	advance_on_keypress_ZEE	142	stimuli_target_diamondsquares.svg	stimuli_distractor_diamondtriangles.svg	24	yes	57	0	327
6.6.0	win	2022-12-14	13:36:37	13:42:42	364308	6101930ddd5330f83b898c61	98492890	1	main_z	7	main_z	143	stimuli_distractor_diamondtriangles.svg	stimuli_target_diamondsquares.svg	32	yes	44	1	496
6.6.0	win	2022-12-14	13:36:37	13:42:42	364308	6101930ddd5330f83b898c61	98492890	1	main_z	7	advance_on_keypress_ZEE	144	stimuli_distractor_diamondtriangles.svg	stimuli_target_diamondsquares.svg	32	yes	57	0	339
6.6.0	win	2022-12-14	13:36:37	13:42:45	367280	6101930ddd5330f83b898c61	98492890	1	main_z	7	main_z	145	stimuli_distractor_diamondtriangles.svg	stimuli_target_diamondcircles.svg	31	yes	0	0	2000
6.6.0	win	2022-12-14	13:36:37	13:42:45	367280	6101930ddd5330f83b898c61	98492890	1	main_z	7	advance_on_keypress_ZEE	146	stimuli_distractor_diamondtriangles.svg	stimuli_target_diamondcircles.svg	31	yes	57	0	1529
6.6.0	win	2022-12-14	13:36:37	13:42:48	370069	6101930ddd5330f83b898c61	98492890	1	main_z	7	main_z	147	stimuli_target_squarediamonds.svg	stimuli_distractor_trianglediamonds.svg	4	yes	44	1	617
6.6.0	win	2022-12-14	13:36:37	13:42:48	370069	6101930ddd5330f83b898c61	98492890	1	main_z	7	advance_on_keypress_ZEE	148	stimuli_target_squarediamonds.svg	stimuli_distractor_trianglediamonds.svg	4	yes	57	0	303
6.6.0	win	2022-12-14	13:36:37	13:42:51	373019	6101930ddd5330f83b898c61	98492890	1	main_z	7	main_z	149	stimuli_distractor_diamondtriangles.svg	stimuli_distractor_trianglediamonds.svg	38	no	0	1	2000
6.6.0	win	2022-12-14	13:36:37	13:42:51	373019	6101930ddd5330f83b898c61	98492890	1	main_z	7	advance_on_keypress_ZEE	150	stimuli_distractor_diamondtriangles.svg	stimuli_distractor_trianglediamonds.svg	38	no	57	0	478
6.6.0	win	2022-12-14	13:36:37	13:42:52	374521	6101930ddd5330f83b898c61	98492890	1	main_z	7	main_z	151	stimuli_distractor_trianglediamonds.svg	stimuli_target_diamondcircles.svg	27	yes	44	1	369
6.6.0	win	2022-12-14	13:36:37	13:42:52	374521	6101930ddd5330f83b898c61	98492890	1	main_z	7	advance_on_keypress_ZEE	152	stimuli_distractor_trianglediamonds.svg	stimuli_target_diamondcircles.svg	27	yes	57	0	296
6.6.0	win	2022-12-14	13:36:37	13:42:54	375941	6101930ddd5330f83b898c61	98492890	1	main_z	7	main_z	153	stimuli_distractor_trianglediamonds.svg	stimuli_target_trianglecircles.svg	25	yes	44	1	467
6.6.0	win	2022-12-14	13:36:37	13:42:54	375941	6101930ddd5330f83b898c61	98492890	1	main_z	7	advance_on_keypress_ZEE	154	stimuli_distractor_trianglediamonds.svg	stimuli_target_trianglecircles.svg	25	yes	57	0	278
6.6.0	win	2022-12-14	13:36:37	13:42:55	377436	6101930ddd5330f83b898c61	98492890	1	main_z	7	main_z	155	stimuli_distractor_diamondtriangles.svg	stimuli_target_circlediamonds.svg	14	yes	44	1	578
6.6.0	win	2022-12-14	13:36:37	13:42:55	377436	6101930ddd5330f83b898c61	98492890	1	main_z	7	advance_on_keypress_ZEE	156	stimuli_distractor_diamondtriangles.svg	stimuli_target_circlediamonds.svg	14	yes	57	0	305
6.6.0	win	2022-12-14	13:36:37	13:42:57	378759	6101930ddd5330f83b898c61	98492890	1	main_z	7	main_z	157	stimuli_target_diamondcircles.svg	stimuli_distractor_diamondtriangles.svg	23	yes	44	1	380
6.6.0	win	2022-12-14	13:36:37	13:42:57	378759	6101930ddd5330f83b898c61	98492890	1	main_z	7	advance_on_keypress_ZEE	158	stimuli_target_diamondcircles.svg	stimuli_distractor_diamondtriangles.svg	23	yes	57	0	315
6.6.0	win	2022-12-14	13:36:37	13:42:58	380196	6101930ddd5330f83b898c61	98492890	1	main_z	7	main_z	159	stimuli_target_circletriangles.svg	stimuli_distractor_diamondtriangles.svg	5	yes	44	1	469
6.6.0	win	2022-12-14	13:36:37	13:42:58	380196	6101930ddd5330f83b898c61	98492890	1	main_z	7	advance_on_keypress_ZEE	160	stimuli_target_circletriangles.svg	stimuli_distractor_diamondtriangles.svg	5	yes	57	0	312
6.6.0	win	2022-12-14	13:36:37	13:43:30	411919	6101930ddd5330f83b898c61	98492890	1	practice_slash	9	practice_slash	1	stimuli_distractor_trianglediamonds.svg	stimuli_target_diamondcircles.svg	12	yes	53	1	358
6.6.0	win	2022-12-14	13:36:37	13:43:30	411919	6101930ddd5330f83b898c61	98492890	1	practice_slash	9	advance_on_keypress_SLASH	2	stimuli_distractor_trianglediamonds.svg	stimuli_target_diamondcircles.svg	12	yes	57	0	372
6.6.0	win	2022-12-14	13:36:37	13:43:32	414329	6101930ddd5330f83b898c61	98492890	1	practice_slash	9	practice_slash	3	stimuli_distractor_trianglediamonds.svg	stimuli_target_squarediamonds.svg	11	yes	53	1	372
6.6.0	win	2022-12-14	13:36:37	13:43:32	414329	6101930ddd5330f83b898c61	98492890	1	practice_slash	9	advance_on_keypress_SLASH	4	stimuli_distractor_trianglediamonds.svg	stimuli_target_squarediamonds.svg	11	yes	57	0	274
6.6.0	win	2022-12-14	13:36:37	13:43:36	418249	6101930ddd5330f83b898c61	98492890	1	practice_slash	9	practice_slash	5	stimuli_distractor_diamondtriangles.svg	stimuli_distractor_diamondtriangles.svg	13	no	0	1	2000
6.6.0	win	2022-12-14	13:36:37	13:43:36	418249	6101930ddd5330f83b898c61	98492890	1	practice_slash	9	advance_on_keypress_SLASH	6	stimuli_distractor_diamondtriangles.svg	stimuli_distractor_diamondtriangles.svg	13	no	57	0	561
6.6.0	win	2022-12-14	13:36:37	13:43:39	420847	6101930ddd5330f83b898c61	98492890	1	practice_slash	9	practice_slash	7	stimuli_target_circlediamonds.svg	stimuli_distractor_diamondtriangles.svg	1	yes	53	1	394
6.6.0	win	2022-12-14	13:36:37	13:43:39	420847	6101930ddd5330f83b898c61	98492890	1	practice_slash	9	advance_on_keypress_SLASH	8	stimuli_target_circlediamonds.svg	stimuli_distractor_diamondtriangles.svg	1	yes	57	0	687
6.6.0	win	2022-12-14	13:36:37	13:43:41	423559	6101930ddd5330f83b898c61	98492890	1	practice_slash	9	practice_slash	9	stimuli_distractor_diamondtriangles.svg	stimuli_target_trianglecircles.svg	9	yes	53	1	387
6.6.0	win	2022-12-14	13:36:37	13:43:41	423559	6101930ddd5330f83b898c61	98492890	1	practice_slash	9	advance_on_keypress_SLASH	10	stimuli_distractor_diamondtriangles.svg	stimuli_target_trianglecircles.svg	9	yes	57	0	336
6.6.0	win	2022-12-14	13:36:37	13:43:44	425855	6101930ddd5330f83b898c61	98492890	1	practice_slash	9	practice_slash	11	stimuli_distractor_diamondtriangles.svg	stimuli_target_diamondcircles.svg	8	yes	53	1	313
6.6.0	win	2022-12-14	13:36:37	13:43:44	425855	6101930ddd5330f83b898c61	98492890	1	practice_slash	9	advance_on_keypress_SLASH	12	stimuli_distractor_diamondtriangles.svg	stimuli_target_diamondcircles.svg	8	yes	57	0	282
6.6.0	win	2022-12-14	13:36:37	13:43:48	429794	6101930ddd5330f83b898c61	98492890	1	practice_slash	9	practice_slash	13	stimuli_distractor_trianglediamonds.svg	stimuli_distractor_trianglediamonds.svg	15	no	0	1	2000
6.6.0	win	2022-12-14	13:36:37	13:43:48	429794	6101930ddd5330f83b898c61	98492890	1	practice_slash	9	advance_on_keypress_SLASH	14	stimuli_distractor_trianglediamonds.svg	stimuli_distractor_trianglediamonds.svg	15	no	57	0	456
6.6.0	win	2022-12-14	13:36:37	13:43:50	432280	6101930ddd5330f83b898c61	98492890	1	practice_slash	9	practice_slash	15	stimuli_distractor_diamondtriangles.svg	stimuli_target_circletriangles.svg	7	yes	53	1	373
6.6.0	win	2022-12-14	13:36:37	13:43:50	432280	6101930ddd5330f83b898c61	98492890	1	practice_slash	9	advance_on_keypress_SLASH	16	stimuli_distractor_diamondtriangles.svg	stimuli_target_circletriangles.svg	7	yes	57	0	291
6.6.0	win	2022-12-14	13:36:37	13:43:52	434647	6101930ddd5330f83b898c61	98492890	1	practice_slash	9	practice_slash	17	stimuli_target_circlediamonds.svg	stimuli_distractor_trianglediamonds.svg	4	yes	53	1	430
6.6.0	win	2022-12-14	13:36:37	13:43:52	434647	6101930ddd5330f83b898c61	98492890	1	practice_slash	9	advance_on_keypress_SLASH	18	stimuli_target_circlediamonds.svg	stimuli_distractor_trianglediamonds.svg	4	yes	57	0	298
6.6.0	win	2022-12-14	13:36:37	13:43:55	436998	6101930ddd5330f83b898c61	98492890	1	practice_slash	9	practice_slash	19	stimuli_target_diamondsquares.svg	stimuli_distractor_diamondtriangles.svg	3	yes	53	1	396
6.6.0	win	2022-12-14	13:36:37	13:43:55	436998	6101930ddd5330f83b898c61	98492890	1	practice_slash	9	advance_on_keypress_SLASH	20	stimuli_target_diamondsquares.svg	stimuli_distractor_diamondtriangles.svg	3	yes	57	0	265
6.6.0	win	2022-12-14	13:36:37	13:43:57	439304	6101930ddd5330f83b898c61	98492890	1	practice_slash	9	practice_slash	21	stimuli_target_diamondsquares.svg	stimuli_distractor_trianglediamonds.svg	6	yes	53	1	381
6.6.0	win	2022-12-14	13:36:37	13:43:57	439304	6101930ddd5330f83b898c61	98492890	1	practice_slash	9	advance_on_keypress_SLASH	22	stimuli_target_diamondsquares.svg	stimuli_distractor_trianglediamonds.svg	6	yes	57	0	275
6.6.0	win	2022-12-14	13:36:37	13:43:59	441559	6101930ddd5330f83b898c61	98492890	1	practice_slash	9	practice_slash	23	stimuli_distractor_trianglediamonds.svg	stimuli_target_circlediamonds.svg	10	yes	53	1	336
6.6.0	win	2022-12-14	13:36:37	13:43:59	441559	6101930ddd5330f83b898c61	98492890	1	practice_slash	9	advance_on_keypress_SLASH	24	stimuli_distractor_trianglediamonds.svg	stimuli_target_circlediamonds.svg	10	yes	57	0	239
6.6.0	win	2022-12-14	13:36:37	13:44:03	445443	6101930ddd5330f83b898c61	98492890	1	practice_slash	9	practice_slash	25	stimuli_distractor_trianglediamonds.svg	stimuli_distractor_diamondtriangles.svg	16	no	0	1	2000
6.6.0	win	2022-12-14	13:36:37	13:44:03	445443	6101930ddd5330f83b898c61	98492890	1	practice_slash	9	advance_on_keypress_SLASH	26	stimuli_distractor_trianglediamonds.svg	stimuli_distractor_diamondtriangles.svg	16	no	57	0	584
6.6.0	win	2022-12-14	13:36:37	13:44:06	448062	6101930ddd5330f83b898c61	98492890	1	practice_slash	9	practice_slash	27	stimuli_target_squarediamonds.svg	stimuli_distractor_diamondtriangles.svg	2	yes	53	1	374
6.6.0	win	2022-12-14	13:36:37	13:44:06	448062	6101930ddd5330f83b898c61	98492890	1	practice_slash	9	advance_on_keypress_SLASH	28	stimuli_target_squarediamonds.svg	stimuli_distractor_diamondtriangles.svg	2	yes	57	0	268
6.6.0	win	2022-12-14	13:36:37	13:44:08	450319	6101930ddd5330f83b898c61	98492890	1	practice_slash	9	practice_slash	29	stimuli_target_squarediamonds.svg	stimuli_distractor_trianglediamonds.svg	5	yes	53	1	336
6.6.0	win	2022-12-14	13:36:37	13:44:08	450319	6101930ddd5330f83b898c61	98492890	1	practice_slash	9	advance_on_keypress_SLASH	30	stimuli_target_squarediamonds.svg	stimuli_distractor_trianglediamonds.svg	5	yes	57	0	264
6.6.0	win	2022-12-14	13:36:37	13:44:10	452535	6101930ddd5330f83b898c61	98492890	1	practice_slash	9	practice_slash	31	stimuli_distractor_diamondtriangles.svg	stimuli_distractor_trianglediamonds.svg	14	no	53	0	300
6.6.0	win	2022-12-14	13:36:37	13:44:10	452535	6101930ddd5330f83b898c61	98492890	1	practice_slash	9	advance_on_keypress_SLASH	32	stimuli_distractor_diamondtriangles.svg	stimuli_distractor_trianglediamonds.svg	14	no	57	0	453
6.6.0	win	2022-12-14	13:36:37	13:44:41	483348	6101930ddd5330f83b898c61	98492890	1	main_slash	11	main_slash	1	stimuli_target_diamondsquares.svg	stimuli_distractor_diamondtriangles.svg	24	yes	53	1	434
6.6.0	win	2022-12-14	13:36:37	13:44:41	483348	6101930ddd5330f83b898c61	98492890	1	main_slash	11	advance_on_keypress_SLASH	2	stimuli_target_diamondsquares.svg	stimuli_distractor_diamondtriangles.svg	24	yes	57	0	455
6.6.0	win	2022-12-14	13:36:37	13:44:43	484852	6101930ddd5330f83b898c61	98492890	1	main_slash	11	main_slash	3	stimuli_distractor_trianglediamonds.svg	stimuli_target_circlediamonds.svg	10	yes	53	1	403
6.6.0	win	2022-12-14	13:36:37	13:44:43	484852	6101930ddd5330f83b898c61	98492890	1	main_slash	11	advance_on_keypress_SLASH	4	stimuli_distractor_trianglediamonds.svg	stimuli_target_circlediamonds.svg	10	yes	57	0	394
6.6.0	win	2022-12-14	13:36:37	13:44:44	486236	6101930ddd5330f83b898c61	98492890	1	main_slash	11	main_slash	5	stimuli_distractor_diamondtriangles.svg	stimuli_target_trianglecircles.svg	29	yes	53	1	352
6.6.0	win	2022-12-14	13:36:37	13:44:44	486236	6101930ddd5330f83b898c61	98492890	1	main_slash	11	advance_on_keypress_SLASH	6	stimuli_distractor_diamondtriangles.svg	stimuli_target_trianglecircles.svg	29	yes	57	0	393
6.6.0	win	2022-12-14	13:36:37	13:44:45	487655	6101930ddd5330f83b898c61	98492890	1	main_slash	11	main_slash	7	stimuli_target_circlediamonds.svg	stimuli_distractor_diamondtriangles.svg	6	yes	53	1	384
6.6.0	win	2022-12-14	13:36:37	13:44:45	487655	6101930ddd5330f83b898c61	98492890	1	main_slash	11	advance_on_keypress_SLASH	8	stimuli_target_circlediamonds.svg	stimuli_distractor_diamondtriangles.svg	6	yes	57	0	367
6.6.0	win	2022-12-14	13:36:37	13:44:47	489190	6101930ddd5330f83b898c61	98492890	1	main_slash	11	main_slash	9	stimuli_target_squaretriangles.svg	stimuli_distractor_trianglediamonds.svg	3	yes	53	1	518
6.6.0	win	2022-12-14	13:36:37	13:44:47	489190	6101930ddd5330f83b898c61	98492890	1	main_slash	11	advance_on_keypress_SLASH	10	stimuli_target_squaretriangles.svg	stimuli_distractor_trianglediamonds.svg	3	yes	57	0	384
6.6.0	win	2022-12-14	13:36:37	13:44:48	490580	6101930ddd5330f83b898c61	98492890	1	main_slash	11	main_slash	11	stimuli_distractor_trianglediamonds.svg	stimuli_target_diamondcircles.svg	27	yes	53	1	359
6.6.0	win	2022-12-14	13:36:37	13:44:48	490580	6101930ddd5330f83b898c61	98492890	1	main_slash	11	advance_on_keypress_SLASH	12	stimuli_distractor_trianglediamonds.svg	stimuli_target_diamondcircles.svg	27	yes	57	0	447
6.6.0	win	2022-12-14	13:36:37	13:44:50	492092	6101930ddd5330f83b898c61	98492890	1	main_slash	11	main_slash	13	stimuli_target_squarediamonds.svg	stimuli_distractor_diamondtriangles.svg	8	yes	53	1	419
6.6.0	win	2022-12-14	13:36:37	13:44:50	492092	6101930ddd5330f83b898c61	98492890	1	main_slash	11	advance_on_keypress_SLASH	14	stimuli_target_squarediamonds.svg	stimuli_distractor_diamondtriangles.svg	8	yes	57	0	385
6.6.0	win	2022-12-14	13:36:37	13:44:52	493732	6101930ddd5330f83b898c61	98492890	1	main_slash	11	main_slash	15	stimuli_target_squaretriangles.svg	stimuli_distractor_diamondtriangles.svg	7	yes	53	1	608
6.6.0	win	2022-12-14	13:36:37	13:44:52	493732	6101930ddd5330f83b898c61	98492890	1	main_slash	11	advance_on_keypress_SLASH	16	stimuli_target_squaretriangles.svg	stimuli_distractor_diamondtriangles.svg	7	yes	57	0	350
6.6.0	win	2022-12-14	13:36:37	13:44:53	495108	6101930ddd5330f83b898c61	98492890	1	main_slash	11	main_slash	17	stimuli_target_trianglecircles.svg	stimuli_distractor_trianglediamonds.svg	17	yes	53	1	374
6.6.0	win	2022-12-14	13:36:37	13:44:53	495108	6101930ddd5330f83b898c61	98492890	1	main_slash	11	advance_on_keypress_SLASH	18	stimuli_target_trianglecircles.svg	stimuli_distractor_trianglediamonds.svg	17	yes	57	0	437
6.6.0	win	2022-12-14	13:36:37	13:44:54	496576	6101930ddd5330f83b898c61	98492890	1	main_slash	11	main_slash	19	stimuli_distractor_trianglediamonds.svg	stimuli_target_trianglecircles.svg	25	yes	53	1	378
6.6.0	win	2022-12-14	13:36:37	13:44:54	496576	6101930ddd5330f83b898c61	98492890	1	main_slash	11	advance_on_keypress_SLASH	20	stimuli_distractor_trianglediamonds.svg	stimuli_target_trianglecircles.svg	25	yes	57	0	417
6.6.0	win	2022-12-14	13:36:37	13:44:57	499646	6101930ddd5330f83b898c61	98492890	1	main_slash	11	main_slash	21	stimuli_distractor_diamondtriangles.svg	stimuli_distractor_trianglediamonds.svg	37	no	0	1	2000
6.6.0	win	2022-12-14	13:36:37	13:44:57	499646	6101930ddd5330f83b898c61	98492890	1	main_slash	11	advance_on_keypress_SLASH	22	stimuli_distractor_diamondtriangles.svg	stimuli_distractor_trianglediamonds.svg	37	no	57	0	387
6.6.0	win	2022-12-14	13:36:37	13:45:01	502682	6101930ddd5330f83b898c61	98492890	1	main_slash	11	main_slash	23	stimuli_distractor_diamondtriangles.svg	stimuli_distractor_diamondtriangles.svg	40	no	0	1	2000
6.6.0	win	2022-12-14	13:36:37	13:45:01	502682	6101930ddd5330f83b898c61	98492890	1	main_slash	11	advance_on_keypress_SLASH	24	stimuli_distractor_diamondtriangles.svg	stimuli_distractor_diamondtriangles.svg	40	no	57	0	431
6.6.0	win	2022-12-14	13:36:37	13:45:03	504668	6101930ddd5330f83b898c61	98492890	1	main_slash	11	main_slash	25	stimuli_distractor_diamondtriangles.svg	stimuli_target_circlediamonds.svg	14	yes	53	1	900
6.6.0	win	2022-12-14	13:36:37	13:45:03	504668	6101930ddd5330f83b898c61	98492890	1	main_slash	11	advance_on_keypress_SLASH	26	stimuli_distractor_diamondtriangles.svg	stimuli_target_circlediamonds.svg	14	yes	57	0	414
6.6.0	win	2022-12-14	13:36:37	13:45:04	506572	6101930ddd5330f83b898c61	98492890	1	main_slash	11	main_slash	27	stimuli_distractor_diamondtriangles.svg	stimuli_target_squarediamonds.svg	16	yes	53	1	835
6.6.0	win	2022-12-14	13:36:37	13:45:04	506572	6101930ddd5330f83b898c61	98492890	1	main_slash	11	advance_on_keypress_SLASH	28	stimuli_distractor_diamondtriangles.svg	stimuli_target_squarediamonds.svg	16	yes	57	0	408
6.6.0	win	2022-12-14	13:36:37	13:45:06	508142	6101930ddd5330f83b898c61	98492890	1	main_slash	11	main_slash	29	stimuli_target_trianglesquares.svg	stimuli_distractor_diamondtriangles.svg	22	yes	53	1	518
6.6.0	win	2022-12-14	13:36:37	13:45:06	508142	6101930ddd5330f83b898c61	98492890	1	main_slash	11	advance_on_keypress_SLASH	30	stimuli_target_trianglesquares.svg	stimuli_distractor_diamondtriangles.svg	22	yes	57	0	456
6.6.0	win	2022-12-14	13:36:37	13:45:08	509668	6101930ddd5330f83b898c61	98492890	1	main_slash	11	main_slash	31	stimuli_target_trianglecircles.svg	stimuli_distractor_diamondtriangles.svg	21	yes	53	1	428
6.6.0	win	2022-12-14	13:36:37	13:45:08	509668	6101930ddd5330f83b898c61	98492890	1	main_slash	11	advance_on_keypress_SLASH	32	stimuli_target_trianglecircles.svg	stimuli_distractor_diamondtriangles.svg	21	yes	57	0	433
6.6.0	win	2022-12-14	13:36:37	13:45:09	511188	6101930ddd5330f83b898c61	98492890	1	main_slash	11	main_slash	33	stimuli_target_circletriangles.svg	stimuli_distractor_diamondtriangles.svg	5	yes	53	1	446
6.6.0	win	2022-12-14	13:36:37	13:45:09	511188	6101930ddd5330f83b898c61	98492890	1	main_slash	11	advance_on_keypress_SLASH	34	stimuli_target_circletriangles.svg	stimuli_distractor_diamondtriangles.svg	5	yes	57	0	467
6.6.0	win	2022-12-14	13:36:37	13:45:11	512764	6101930ddd5330f83b898c61	98492890	1	main_slash	11	main_slash	35	stimuli_target_circletriangles.svg	stimuli_distractor_trianglediamonds.svg	1	yes	53	1	471
6.6.0	win	2022-12-14	13:36:37	13:45:11	512764	6101930ddd5330f83b898c61	98492890	1	main_slash	11	advance_on_keypress_SLASH	36	stimuli_target_circletriangles.svg	stimuli_distractor_trianglediamonds.svg	1	yes	57	0	410
6.6.0	win	2022-12-14	13:36:37	13:45:12	514332	6101930ddd5330f83b898c61	98492890	1	main_slash	11	main_slash	37	stimuli_target_circlediamonds.svg	stimuli_distractor_trianglediamonds.svg	2	yes	53	1	521
6.6.0	win	2022-12-14	13:36:37	13:45:12	514332	6101930ddd5330f83b898c61	98492890	1	main_slash	11	advance_on_keypress_SLASH	38	stimuli_target_circlediamonds.svg	stimuli_distractor_trianglediamonds.svg	2	yes	57	0	386
6.6.0	win	2022-12-14	13:36:37	13:45:14	515924	6101930ddd5330f83b898c61	98492890	1	main_slash	11	main_slash	39	stimuli_distractor_trianglediamonds.svg	stimuli_target_trianglesquares.svg	26	yes	53	1	561
6.6.0	win	2022-12-14	13:36:37	13:45:14	515924	6101930ddd5330f83b898c61	98492890	1	main_slash	11	advance_on_keypress_SLASH	40	stimuli_distractor_trianglediamonds.svg	stimuli_target_trianglesquares.svg	26	yes	57	0	409
6.6.0	win	2022-12-14	13:36:37	13:45:17	518965	6101930ddd5330f83b898c61	98492890	1	main_slash	11	main_slash	41	stimuli_distractor_diamondtriangles.svg	stimuli_distractor_trianglediamonds.svg	38	no	0	1	2000
6.6.0	win	2022-12-14	13:36:37	13:45:17	518965	6101930ddd5330f83b898c61	98492890	1	main_slash	11	advance_on_keypress_SLASH	42	stimuli_distractor_diamondtriangles.svg	stimuli_distractor_trianglediamonds.svg	38	no	57	0	588
6.6.0	win	2022-12-14	13:36:37	13:45:18	520584	6101930ddd5330f83b898c61	98492890	1	main_slash	11	main_slash	43	stimuli_distractor_diamondtriangles.svg	stimuli_target_diamondcircles.svg	31	yes	53	1	371
6.6.0	win	2022-12-14	13:36:37	13:45:18	520584	6101930ddd5330f83b898c61	98492890	1	main_slash	11	advance_on_keypress_SLASH	44	stimuli_distractor_diamondtriangles.svg	stimuli_target_diamondcircles.svg	31	yes	57	0	394
6.6.0	win	2022-12-14	13:36:37	13:45:20	522156	6101930ddd5330f83b898c61	98492890	1	main_slash	11	main_slash	45	stimuli_distractor_trianglediamonds.svg	stimuli_target_squarediamonds.svg	12	yes	53	1	537
6.6.0	win	2022-12-14	13:36:37	13:45:20	522156	6101930ddd5330f83b898c61	98492890	1	main_slash	11	advance_on_keypress_SLASH	46	stimuli_distractor_trianglediamonds.svg	stimuli_target_squarediamonds.svg	12	yes	57	0	418
6.6.0	win	2022-12-14	13:36:37	13:45:21	523629	6101930ddd5330f83b898c61	98492890	1	main_slash	11	main_slash	47	stimuli_distractor_diamondtriangles.svg	stimuli_target_squaretriangles.svg	15	yes	53	1	407
6.6.0	win	2022-12-14	13:36:37	13:45:21	523629	6101930ddd5330f83b898c61	98492890	1	main_slash	11	advance_on_keypress_SLASH	48	stimuli_distractor_diamondtriangles.svg	stimuli_target_squaretriangles.svg	15	yes	57	0	485
6.6.0	win	2022-12-14	13:36:37	13:45:25	526756	6101930ddd5330f83b898c61	98492890	1	main_slash	11	main_slash	49	stimuli_distractor_trianglediamonds.svg	stimuli_distractor_trianglediamonds.svg	33	no	0	1	2000
6.6.0	win	2022-12-14	13:36:37	13:45:25	526756	6101930ddd5330f83b898c61	98492890	1	main_slash	11	advance_on_keypress_SLASH	50	stimuli_distractor_trianglediamonds.svg	stimuli_distractor_trianglediamonds.svg	33	no	57	0	605
6.6.0	win	2022-12-14	13:36:37	13:45:26	528476	6101930ddd5330f83b898c61	98492890	1	main_slash	11	main_slash	51	stimuli_distractor_diamondtriangles.svg	stimuli_target_diamondsquares.svg	32	yes	53	1	467
6.6.0	win	2022-12-14	13:36:37	13:45:26	528476	6101930ddd5330f83b898c61	98492890	1	main_slash	11	advance_on_keypress_SLASH	52	stimuli_distractor_diamondtriangles.svg	stimuli_target_diamondsquares.svg	32	yes	57	0	415
6.6.0	win	2022-12-14	13:36:37	13:45:28	529949	6101930ddd5330f83b898c61	98492890	1	main_slash	11	main_slash	53	stimuli_distractor_diamondtriangles.svg	stimuli_target_trianglesquares.svg	30	yes	53	1	404
6.6.0	win	2022-12-14	13:36:37	13:45:28	529949	6101930ddd5330f83b898c61	98492890	1	main_slash	11	advance_on_keypress_SLASH	54	stimuli_distractor_diamondtriangles.svg	stimuli_target_trianglesquares.svg	30	yes	57	0	466
6.6.0	win	2022-12-14	13:36:37	13:45:29	531508	6101930ddd5330f83b898c61	98492890	1	main_slash	11	main_slash	55	stimuli_distractor_trianglediamonds.svg	stimuli_target_circletriangles.svg	9	yes	53	1	446
6.6.0	win	2022-12-14	13:36:37	13:45:29	531508	6101930ddd5330f83b898c61	98492890	1	main_slash	11	advance_on_keypress_SLASH	56	stimuli_distractor_trianglediamonds.svg	stimuli_target_circletriangles.svg	9	yes	57	0	435
6.6.0	win	2022-12-14	13:36:37	13:45:31	532924	6101930ddd5330f83b898c61	98492890	1	main_slash	11	main_slash	57	stimuli_distractor_diamondtriangles.svg	stimuli_target_circletriangles.svg	13	yes	53	1	344
6.6.0	win	2022-12-14	13:36:37	13:45:31	532924	6101930ddd5330f83b898c61	98492890	1	main_slash	11	advance_on_keypress_SLASH	58	stimuli_distractor_diamondtriangles.svg	stimuli_target_circletriangles.svg	13	yes	57	0	425
6.6.0	win	2022-12-14	13:36:37	13:45:34	535982	6101930ddd5330f83b898c61	98492890	1	main_slash	11	main_slash	59	stimuli_distractor_trianglediamonds.svg	stimuli_distractor_trianglediamonds.svg	34	no	0	1	2000
6.6.0	win	2022-12-14	13:36:37	13:45:34	535982	6101930ddd5330f83b898c61	98492890	1	main_slash	11	advance_on_keypress_SLASH	60	stimuli_distractor_trianglediamonds.svg	stimuli_distractor_trianglediamonds.svg	34	no	57	0	315
6.6.0	win	2022-12-14	13:36:37	13:45:35	537334	6101930ddd5330f83b898c61	98492890	1	main_slash	11	main_slash	61	stimuli_target_diamondcircles.svg	stimuli_distractor_diamondtriangles.svg	23	yes	53	1	373
6.6.0	win	2022-12-14	13:36:37	13:45:35	537334	6101930ddd5330f83b898c61	98492890	1	main_slash	11	advance_on_keypress_SLASH	62	stimuli_target_diamondcircles.svg	stimuli_distractor_diamondtriangles.svg	23	yes	57	0	404
6.6.0	win	2022-12-14	13:36:37	13:45:37	538769	6101930ddd5330f83b898c61	98492890	1	main_slash	11	main_slash	63	stimuli_distractor_trianglediamonds.svg	stimuli_target_diamondsquares.svg	28	yes	53	1	370
6.6.0	win	2022-12-14	13:36:37	13:45:37	538769	6101930ddd5330f83b898c61	98492890	1	main_slash	11	advance_on_keypress_SLASH	64	stimuli_distractor_trianglediamonds.svg	stimuli_target_diamondsquares.svg	28	yes	57	0	433
6.6.0	win	2022-12-14	13:36:37	13:45:40	541855	6101930ddd5330f83b898c61	98492890	1	main_slash	11	main_slash	65	stimuli_distractor_trianglediamonds.svg	stimuli_distractor_diamondtriangles.svg	35	no	0	1	2000
6.6.0	win	2022-12-14	13:36:37	13:45:40	541855	6101930ddd5330f83b898c61	98492890	1	main_slash	11	advance_on_keypress_SLASH	66	stimuli_distractor_trianglediamonds.svg	stimuli_distractor_diamondtriangles.svg	35	no	57	0	371
6.6.0	win	2022-12-14	13:36:37	13:45:43	544874	6101930ddd5330f83b898c61	98492890	1	main_slash	11	main_slash	67	stimuli_distractor_diamondtriangles.svg	stimuli_distractor_diamondtriangles.svg	39	no	0	1	2000
6.6.0	win	2022-12-14	13:36:37	13:45:43	544874	6101930ddd5330f83b898c61	98492890	1	main_slash	11	advance_on_keypress_SLASH	68	stimuli_distractor_diamondtriangles.svg	stimuli_distractor_diamondtriangles.svg	39	no	57	0	399
6.6.0	win	2022-12-14	13:36:37	13:45:44	546324	6101930ddd5330f83b898c61	98492890	1	main_slash	11	main_slash	69	stimuli_distractor_trianglediamonds.svg	stimuli_target_squaretriangles.svg	11	yes	53	1	397
6.6.0	win	2022-12-14	13:36:37	13:45:44	546324	6101930ddd5330f83b898c61	98492890	1	main_slash	11	advance_on_keypress_SLASH	70	stimuli_distractor_trianglediamonds.svg	stimuli_target_squaretriangles.svg	11	yes	57	0	427
6.6.0	win	2022-12-14	13:36:37	13:45:46	547740	6101930ddd5330f83b898c61	98492890	1	main_slash	11	main_slash	71	stimuli_target_diamondcircles.svg	stimuli_distractor_trianglediamonds.svg	19	yes	53	1	345
6.6.0	win	2022-12-14	13:36:37	13:45:46	547740	6101930ddd5330f83b898c61	98492890	1	main_slash	11	advance_on_keypress_SLASH	72	stimuli_target_diamondcircles.svg	stimuli_distractor_trianglediamonds.svg	19	yes	57	0	418
6.6.0	win	2022-12-14	13:36:37	13:45:47	549108	6101930ddd5330f83b898c61	98492890	1	main_slash	11	main_slash	73	stimuli_target_squarediamonds.svg	stimuli_distractor_trianglediamonds.svg	4	yes	53	1	312
6.6.0	win	2022-12-14	13:36:37	13:45:47	549108	6101930ddd5330f83b898c61	98492890	1	main_slash	11	advance_on_keypress_SLASH	74	stimuli_target_squarediamonds.svg	stimuli_distractor_trianglediamonds.svg	4	yes	57	0	450
6.6.0	win	2022-12-14	13:36:37	13:45:50	552198	6101930ddd5330f83b898c61	98492890	1	main_slash	11	main_slash	75	stimuli_distractor_trianglediamonds.svg	stimuli_distractor_diamondtriangles.svg	36	no	0	1	2000
6.6.0	win	2022-12-14	13:36:37	13:45:50	552198	6101930ddd5330f83b898c61	98492890	1	main_slash	11	advance_on_keypress_SLASH	76	stimuli_distractor_trianglediamonds.svg	stimuli_distractor_diamondtriangles.svg	36	no	57	0	475
6.6.0	win	2022-12-14	13:36:37	13:45:52	553844	6101930ddd5330f83b898c61	98492890	1	main_slash	11	main_slash	77	stimuli_target_trianglesquares.svg	stimuli_distractor_trianglediamonds.svg	18	yes	53	1	527
6.6.0	win	2022-12-14	13:36:37	13:45:52	553844	6101930ddd5330f83b898c61	98492890	1	main_slash	11	advance_on_keypress_SLASH	78	stimuli_target_trianglesquares.svg	stimuli_distractor_trianglediamonds.svg	18	yes	57	0	416
6.6.0	win	2022-12-14	13:36:37	13:45:53	555244	6101930ddd5330f83b898c61	98492890	1	main_slash	11	main_slash	79	stimuli_target_diamondsquares.svg	stimuli_distractor_trianglediamonds.svg	20	yes	53	1	342
6.6.0	win	2022-12-14	13:36:37	13:45:53	555244	6101930ddd5330f83b898c61	98492890	1	main_slash	11	advance_on_keypress_SLASH	80	stimuli_target_diamondsquares.svg	stimuli_distractor_trianglediamonds.svg	20	yes	57	0	431
6.6.0	win	2022-12-14	13:36:37	13:45:55	556852	6101930ddd5330f83b898c61	98492890	1	main_slash	11	main_slash	81	stimuli_distractor_diamondtriangles.svg	stimuli_target_squaretriangles.svg	15	yes	53	1	531
6.6.0	win	2022-12-14	13:36:37	13:45:55	556852	6101930ddd5330f83b898c61	98492890	1	main_slash	11	advance_on_keypress_SLASH	82	stimuli_distractor_diamondtriangles.svg	stimuli_target_squaretriangles.svg	15	yes	57	0	396
6.6.0	win	2022-12-14	13:36:37	13:45:56	558252	6101930ddd5330f83b898c61	98492890	1	main_slash	11	main_slash	83	stimuli_target_circletriangles.svg	stimuli_distractor_diamondtriangles.svg	5	yes	53	1	347
6.6.0	win	2022-12-14	13:36:37	13:45:56	558252	6101930ddd5330f83b898c61	98492890	1	main_slash	11	advance_on_keypress_SLASH	84	stimuli_target_circletriangles.svg	stimuli_distractor_diamondtriangles.svg	5	yes	57	0	436
6.6.0	win	2022-12-14	13:36:37	13:45:58	559780	6101930ddd5330f83b898c61	98492890	1	main_slash	11	main_slash	85	stimuli_distractor_diamondtriangles.svg	stimuli_target_squarediamonds.svg	16	yes	53	1	457
6.6.0	win	2022-12-14	13:36:37	13:45:58	559780	6101930ddd5330f83b898c61	98492890	1	main_slash	11	advance_on_keypress_SLASH	86	stimuli_distractor_diamondtriangles.svg	stimuli_target_squarediamonds.svg	16	yes	57	0	437
6.6.0	win	2022-12-14	13:36:37	13:45:59	561180	6101930ddd5330f83b898c61	98492890	1	main_slash	11	main_slash	87	stimuli_distractor_diamondtriangles.svg	stimuli_target_circletriangles.svg	13	yes	53	1	322
6.6.0	win	2022-12-14	13:36:37	13:45:59	561180	6101930ddd5330f83b898c61	98492890	1	main_slash	11	advance_on_keypress_SLASH	88	stimuli_distractor_diamondtriangles.svg	stimuli_target_circletriangles.svg	13	yes	57	0	443
6.6.0	win	2022-12-14	13:36:37	13:46:00	562588	6101930ddd5330f83b898c61	98492890	1	main_slash	11	main_slash	89	stimuli_distractor_trianglediamonds.svg	stimuli_target_diamondcircles.svg	27	yes	53	1	328
6.6.0	win	2022-12-14	13:36:37	13:46:00	562588	6101930ddd5330f83b898c61	98492890	1	main_slash	11	advance_on_keypress_SLASH	90	stimuli_distractor_trianglediamonds.svg	stimuli_target_diamondcircles.svg	27	yes	57	0	442
6.6.0	win	2022-12-14	13:36:37	13:46:03	565662	6101930ddd5330f83b898c61	98492890	1	main_slash	11	main_slash	91	stimuli_distractor_diamondtriangles.svg	stimuli_distractor_trianglediamonds.svg	38	no	0	1	2000
6.6.0	win	2022-12-14	13:36:37	13:46:03	565662	6101930ddd5330f83b898c61	98492890	1	main_slash	11	advance_on_keypress_SLASH	92	stimuli_distractor_diamondtriangles.svg	stimuli_distractor_trianglediamonds.svg	38	no	57	0	2340
6.6.0	win	2022-12-14	13:36:37	13:46:07	568956	6101930ddd5330f83b898c61	98492890	1	main_slash	11	main_slash	93	stimuli_distractor_diamondtriangles.svg	stimuli_target_trianglecircles.svg	29	yes	53	1	307
6.6.0	win	2022-12-14	13:36:37	13:46:07	568956	6101930ddd5330f83b898c61	98492890	1	main_slash	11	advance_on_keypress_SLASH	94	stimuli_distractor_diamondtriangles.svg	stimuli_target_trianglecircles.svg	29	yes	57	0	437
6.6.0	win	2022-12-14	13:36:37	13:46:08	570417	6101930ddd5330f83b898c61	98492890	1	main_slash	11	main_slash	95	stimuli_target_diamondcircles.svg	stimuli_distractor_trianglediamonds.svg	19	yes	53	1	378
6.6.0	win	2022-12-14	13:36:37	13:46:08	570417	6101930ddd5330f83b898c61	98492890	1	main_slash	11	advance_on_keypress_SLASH	96	stimuli_target_diamondcircles.svg	stimuli_distractor_trianglediamonds.svg	19	yes	57	0	393
6.6.0	win	2022-12-14	13:36:37	13:46:10	571876	6101930ddd5330f83b898c61	98492890	1	main_slash	11	main_slash	97	stimuli_target_trianglesquares.svg	stimuli_distractor_trianglediamonds.svg	18	yes	53	1	424
6.6.0	win	2022-12-14	13:36:37	13:46:10	571876	6101930ddd5330f83b898c61	98492890	1	main_slash	11	advance_on_keypress_SLASH	98	stimuli_target_trianglesquares.svg	stimuli_distractor_trianglediamonds.svg	18	yes	57	0	389
6.6.0	win	2022-12-14	13:36:37	13:46:11	573180	6101930ddd5330f83b898c61	98492890	1	main_slash	11	main_slash	99	stimuli_distractor_trianglediamonds.svg	stimuli_target_circlediamonds.svg	10	yes	53	1	276
6.6.0	win	2022-12-14	13:36:37	13:46:11	573180	6101930ddd5330f83b898c61	98492890	1	main_slash	11	advance_on_keypress_SLASH	100	stimuli_distractor_trianglediamonds.svg	stimuli_target_circlediamonds.svg	10	yes	57	0	416
6.6.0	win	2022-12-14	13:36:37	13:46:12	574524	6101930ddd5330f83b898c61	98492890	1	main_slash	11	main_slash	101	stimuli_distractor_diamondtriangles.svg	stimuli_target_circlediamonds.svg	14	yes	53	1	286
6.6.0	win	2022-12-14	13:36:37	13:46:12	574524	6101930ddd5330f83b898c61	98492890	1	main_slash	11	advance_on_keypress_SLASH	102	stimuli_distractor_diamondtriangles.svg	stimuli_target_circlediamonds.svg	14	yes	57	0	409
6.6.0	win	2022-12-14	13:36:37	13:46:14	575916	6101930ddd5330f83b898c61	98492890	1	main_slash	11	main_slash	103	stimuli_target_trianglesquares.svg	stimuli_distractor_diamondtriangles.svg	22	yes	53	1	343
6.6.0	win	2022-12-14	13:36:37	13:46:14	575916	6101930ddd5330f83b898c61	98492890	1	main_slash	11	advance_on_keypress_SLASH	104	stimuli_target_trianglesquares.svg	stimuli_distractor_diamondtriangles.svg	22	yes	57	0	360
6.6.0	win	2022-12-14	13:36:37	13:46:15	577429	6101930ddd5330f83b898c61	98492890	1	main_slash	11	main_slash	105	stimuli_distractor_trianglediamonds.svg	stimuli_target_trianglecircles.svg	25	yes	53	1	520
6.6.0	win	2022-12-14	13:36:37	13:46:15	577429	6101930ddd5330f83b898c61	98492890	1	main_slash	11	advance_on_keypress_SLASH	106	stimuli_distractor_trianglediamonds.svg	stimuli_target_trianglecircles.svg	25	yes	57	0	370
6.6.0	win	2022-12-14	13:36:37	13:46:17	578845	6101930ddd5330f83b898c61	98492890	1	main_slash	11	main_slash	107	stimuli_target_trianglecircles.svg	stimuli_distractor_trianglediamonds.svg	17	yes	53	1	401
6.6.0	win	2022-12-14	13:36:37	13:46:17	578845	6101930ddd5330f83b898c61	98492890	1	main_slash	11	advance_on_keypress_SLASH	108	stimuli_target_trianglecircles.svg	stimuli_distractor_trianglediamonds.svg	17	yes	57	0	360
6.6.0	win	2022-12-14	13:36:37	13:46:18	580204	6101930ddd5330f83b898c61	98492890	1	main_slash	11	main_slash	109	stimuli_distractor_diamondtriangles.svg	stimuli_target_trianglesquares.svg	30	yes	53	1	360
6.6.0	win	2022-12-14	13:36:37	13:46:18	580204	6101930ddd5330f83b898c61	98492890	1	main_slash	11	advance_on_keypress_SLASH	110	stimuli_distractor_diamondtriangles.svg	stimuli_target_trianglesquares.svg	30	yes	57	0	385
6.6.0	win	2022-12-14	13:36:37	13:46:19	581636	6101930ddd5330f83b898c61	98492890	1	main_slash	11	main_slash	111	stimuli_target_circlediamonds.svg	stimuli_distractor_diamondtriangles.svg	6	yes	53	1	407
6.6.0	win	2022-12-14	13:36:37	13:46:19	581636	6101930ddd5330f83b898c61	98492890	1	main_slash	11	advance_on_keypress_SLASH	112	stimuli_target_circlediamonds.svg	stimuli_distractor_diamondtriangles.svg	6	yes	57	0	398
6.6.0	win	2022-12-14	13:36:37	13:46:21	583124	6101930ddd5330f83b898c61	98492890	1	main_slash	11	main_slash	113	stimuli_target_diamondsquares.svg	stimuli_distractor_diamondtriangles.svg	24	yes	53	1	444
6.6.0	win	2022-12-14	13:36:37	13:46:21	583124	6101930ddd5330f83b898c61	98492890	1	main_slash	11	advance_on_keypress_SLASH	114	stimuli_target_diamondsquares.svg	stimuli_distractor_diamondtriangles.svg	24	yes	57	0	377
6.6.0	win	2022-12-14	13:36:37	13:46:23	584853	6101930ddd5330f83b898c61	98492890	1	main_slash	11	main_slash	115	stimuli_target_squaretriangles.svg	stimuli_distractor_diamondtriangles.svg	7	yes	53	1	720
6.6.0	win	2022-12-14	13:36:37	13:46:23	584853	6101930ddd5330f83b898c61	98492890	1	main_slash	11	advance_on_keypress_SLASH	116	stimuli_target_squaretriangles.svg	stimuli_distractor_diamondtriangles.svg	7	yes	57	0	386
6.6.0	win	2022-12-14	13:36:37	13:46:24	586266	6101930ddd5330f83b898c61	98492890	1	main_slash	11	main_slash	117	stimuli_distractor_trianglediamonds.svg	stimuli_target_squaretriangles.svg	11	yes	53	1	377
6.6.0	win	2022-12-14	13:36:37	13:46:24	586266	6101930ddd5330f83b898c61	98492890	1	main_slash	11	advance_on_keypress_SLASH	118	stimuli_distractor_trianglediamonds.svg	stimuli_target_squaretriangles.svg	11	yes	57	0	400
6.6.0	win	2022-12-14	13:36:37	13:46:26	587676	6101930ddd5330f83b898c61	98492890	1	main_slash	11	main_slash	119	stimuli_distractor_diamondtriangles.svg	stimuli_target_diamondcircles.svg	31	yes	53	1	358
6.6.0	win	2022-12-14	13:36:37	13:46:26	587676	6101930ddd5330f83b898c61	98492890	1	main_slash	11	advance_on_keypress_SLASH	120	stimuli_distractor_diamondtriangles.svg	stimuli_target_diamondcircles.svg	31	yes	57	0	382
6.6.0	win	2022-12-14	13:36:37	13:46:27	589052	6101930ddd5330f83b898c61	98492890	1	main_slash	11	main_slash	121	stimuli_distractor_trianglediamonds.svg	stimuli_distractor_diamondtriangles.svg	35	no	53	0	349
6.6.0	win	2022-12-14	13:36:37	13:46:27	589052	6101930ddd5330f83b898c61	98492890	1	main_slash	11	advance_on_keypress_SLASH	122	stimuli_distractor_trianglediamonds.svg	stimuli_distractor_diamondtriangles.svg	35	no	57	0	1206
6.6.0	win	2022-12-14	13:36:37	13:46:29	591436	6101930ddd5330f83b898c61	98492890	1	main_slash	11	main_slash	123	stimuli_target_squarediamonds.svg	stimuli_distractor_diamondtriangles.svg	8	yes	53	1	531
6.6.0	win	2022-12-14	13:36:37	13:46:29	591436	6101930ddd5330f83b898c61	98492890	1	main_slash	11	advance_on_keypress_SLASH	124	stimuli_target_squarediamonds.svg	stimuli_distractor_diamondtriangles.svg	8	yes	57	0	404
6.6.0	win	2022-12-14	13:36:37	13:46:31	592878	6101930ddd5330f83b898c61	98492890	1	main_slash	11	main_slash	125	stimuli_distractor_trianglediamonds.svg	stimuli_target_trianglesquares.svg	26	yes	53	1	387
6.6.0	win	2022-12-14	13:36:37	13:46:31	592878	6101930ddd5330f83b898c61	98492890	1	main_slash	11	advance_on_keypress_SLASH	126	stimuli_distractor_trianglediamonds.svg	stimuli_target_trianglesquares.svg	26	yes	57	0	409
6.6.0	win	2022-12-14	13:36:37	13:46:34	595925	6101930ddd5330f83b898c61	98492890	1	main_slash	11	main_slash	127	stimuli_distractor_diamondtriangles.svg	stimuli_distractor_diamondtriangles.svg	40	no	0	1	2000
6.6.0	win	2022-12-14	13:36:37	13:46:34	595925	6101930ddd5330f83b898c61	98492890	1	main_slash	11	advance_on_keypress_SLASH	128	stimuli_distractor_diamondtriangles.svg	stimuli_distractor_diamondtriangles.svg	40	no	57	0	884
6.6.0	win	2022-12-14	13:36:37	13:46:36	597828	6101930ddd5330f83b898c61	98492890	1	main_slash	11	main_slash	129	stimuli_distractor_trianglediamonds.svg	stimuli_target_diamondsquares.svg	28	yes	53	1	366
6.6.0	win	2022-12-14	13:36:37	13:46:36	597828	6101930ddd5330f83b898c61	98492890	1	main_slash	11	advance_on_keypress_SLASH	130	stimuli_distractor_trianglediamonds.svg	stimuli_target_diamondsquares.svg	28	yes	57	0	374
6.6.0	win	2022-12-14	13:36:37	13:46:37	599276	6101930ddd5330f83b898c61	98492890	1	main_slash	11	main_slash	131	stimuli_target_diamondcircles.svg	stimuli_distractor_diamondtriangles.svg	23	yes	53	1	430
6.6.0	win	2022-12-14	13:36:37	13:46:37	599276	6101930ddd5330f83b898c61	98492890	1	main_slash	11	advance_on_keypress_SLASH	132	stimuli_target_diamondcircles.svg	stimuli_distractor_diamondtriangles.svg	23	yes	57	0	379
6.6.0	win	2022-12-14	13:36:37	13:46:40	602298	6101930ddd5330f83b898c61	98492890	1	main_slash	11	main_slash	133	stimuli_distractor_trianglediamonds.svg	stimuli_distractor_trianglediamonds.svg	33	no	0	1	2000
6.6.0	win	2022-12-14	13:36:37	13:46:40	602298	6101930ddd5330f83b898c61	98492890	1	main_slash	11	advance_on_keypress_SLASH	134	stimuli_distractor_trianglediamonds.svg	stimuli_distractor_trianglediamonds.svg	33	no	57	0	463
6.6.0	win	2022-12-14	13:36:37	13:46:42	603828	6101930ddd5330f83b898c61	98492890	1	main_slash	11	main_slash	135	stimuli_distractor_trianglediamonds.svg	stimuli_target_circletriangles.svg	9	yes	53	1	410
6.6.0	win	2022-12-14	13:36:37	13:46:42	603828	6101930ddd5330f83b898c61	98492890	1	main_slash	11	advance_on_keypress_SLASH	136	stimuli_distractor_trianglediamonds.svg	stimuli_target_circletriangles.svg	9	yes	57	0	337
6.6.0	win	2022-12-14	13:36:37	13:46:43	605196	6101930ddd5330f83b898c61	98492890	1	main_slash	11	main_slash	137	stimuli_target_trianglecircles.svg	stimuli_distractor_diamondtriangles.svg	21	yes	53	1	394
6.6.0	win	2022-12-14	13:36:37	13:46:43	605196	6101930ddd5330f83b898c61	98492890	1	main_slash	11	advance_on_keypress_SLASH	138	stimuli_target_trianglecircles.svg	stimuli_distractor_diamondtriangles.svg	21	yes	57	0	368
6.6.0	win	2022-12-14	13:36:37	13:46:44	606548	6101930ddd5330f83b898c61	98492890	1	main_slash	11	main_slash	139	stimuli_distractor_diamondtriangles.svg	stimuli_target_diamondsquares.svg	32	yes	53	1	344
6.6.0	win	2022-12-14	13:36:37	13:46:44	606548	6101930ddd5330f83b898c61	98492890	1	main_slash	11	advance_on_keypress_SLASH	140	stimuli_distractor_diamondtriangles.svg	stimuli_target_diamondsquares.svg	32	yes	57	0	385
6.6.0	win	2022-12-14	13:36:37	13:46:47	609572	6101930ddd5330f83b898c61	98492890	1	main_slash	11	main_slash	141	stimuli_distractor_trianglediamonds.svg	stimuli_distractor_trianglediamonds.svg	34	no	0	1	2000
6.6.0	win	2022-12-14	13:36:37	13:46:47	609572	6101930ddd5330f83b898c61	98492890	1	main_slash	11	advance_on_keypress_SLASH	142	stimuli_distractor_trianglediamonds.svg	stimuli_distractor_trianglediamonds.svg	34	no	57	0	413
6.6.0	win	2022-12-14	13:36:37	13:46:49	610996	6101930ddd5330f83b898c61	98492890	1	main_slash	11	main_slash	143	stimuli_distractor_trianglediamonds.svg	stimuli_target_squarediamonds.svg	12	yes	53	1	355
6.6.0	win	2022-12-14	13:36:37	13:46:49	610996	6101930ddd5330f83b898c61	98492890	1	main_slash	11	advance_on_keypress_SLASH	144	stimuli_distractor_trianglediamonds.svg	stimuli_target_squarediamonds.svg	12	yes	57	0	395
6.6.0	win	2022-12-14	13:36:37	13:46:50	612604	6101930ddd5330f83b898c61	98492890	1	main_slash	11	main_slash	145	stimuli_distractor_trianglediamonds.svg	stimuli_distractor_diamondtriangles.svg	36	no	53	0	578
6.6.0	win	2022-12-14	13:36:37	13:46:50	612604	6101930ddd5330f83b898c61	98492890	1	main_slash	11	advance_on_keypress_SLASH	146	stimuli_distractor_trianglediamonds.svg	stimuli_distractor_diamondtriangles.svg	36	no	57	0	993
6.6.0	win	2022-12-14	13:36:37	13:46:53	614804	6101930ddd5330f83b898c61	98492890	1	main_slash	11	main_slash	147	stimuli_target_squaretriangles.svg	stimuli_distractor_trianglediamonds.svg	3	yes	53	1	576
6.6.0	win	2022-12-14	13:36:37	13:46:53	614804	6101930ddd5330f83b898c61	98492890	1	main_slash	11	advance_on_keypress_SLASH	148	stimuli_target_squaretriangles.svg	stimuli_distractor_trianglediamonds.svg	3	yes	57	0	383
6.6.0	win	2022-12-14	13:36:37	13:46:54	616252	6101930ddd5330f83b898c61	98492890	1	main_slash	11	main_slash	149	stimuli_target_squarediamonds.svg	stimuli_distractor_trianglediamonds.svg	4	yes	53	1	422
6.6.0	win	2022-12-14	13:36:37	13:46:54	616252	6101930ddd5330f83b898c61	98492890	1	main_slash	11	advance_on_keypress_SLASH	150	stimuli_target_squarediamonds.svg	stimuli_distractor_trianglediamonds.svg	4	yes	57	0	404
6.6.0	win	2022-12-14	13:36:37	13:46:56	617956	6101930ddd5330f83b898c61	98492890	1	main_slash	11	main_slash	151	stimuli_target_diamondsquares.svg	stimuli_distractor_trianglediamonds.svg	20	yes	53	1	658
6.6.0	win	2022-12-14	13:36:37	13:46:56	617956	6101930ddd5330f83b898c61	98492890	1	main_slash	11	advance_on_keypress_SLASH	152	stimuli_target_diamondsquares.svg	stimuli_distractor_trianglediamonds.svg	20	yes	57	0	342
6.6.0	win	2022-12-14	13:36:37	13:46:59	620934	6101930ddd5330f83b898c61	98492890	1	main_slash	11	main_slash	153	stimuli_distractor_diamondtriangles.svg	stimuli_distractor_trianglediamonds.svg	37	no	0	1	2000
6.6.0	win	2022-12-14	13:36:37	13:46:59	620934	6101930ddd5330f83b898c61	98492890	1	main_slash	11	advance_on_keypress_SLASH	154	stimuli_distractor_diamondtriangles.svg	stimuli_distractor_trianglediamonds.svg	37	no	57	0	748
6.6.0	win	2022-12-14	13:36:37	13:47:01	622804	6101930ddd5330f83b898c61	98492890	1	main_slash	11	main_slash	155	stimuli_target_circletriangles.svg	stimuli_distractor_trianglediamonds.svg	1	yes	53	1	468
6.6.0	win	2022-12-14	13:36:37	13:47:01	622804	6101930ddd5330f83b898c61	98492890	1	main_slash	11	advance_on_keypress_SLASH	156	stimuli_target_circletriangles.svg	stimuli_distractor_trianglediamonds.svg	1	yes	57	0	375
6.6.0	win	2022-12-14	13:36:37	13:47:02	624220	6101930ddd5330f83b898c61	98492890	1	main_slash	11	main_slash	157	stimuli_distractor_diamondtriangles.svg	stimuli_distractor_diamondtriangles.svg	39	no	53	0	399
6.6.0	win	2022-12-14	13:36:37	13:47:02	624220	6101930ddd5330f83b898c61	98492890	1	main_slash	11	advance_on_keypress_SLASH	158	stimuli_distractor_diamondtriangles.svg	stimuli_distractor_diamondtriangles.svg	39	no	57	0	604
6.6.0	win	2022-12-14	13:36:37	13:47:04	625964	6101930ddd5330f83b898c61	98492890	1	main_slash	11	main_slash	159	stimuli_target_circlediamonds.svg	stimuli_distractor_trianglediamonds.svg	2	yes	53	1	491
6.6.0	win	2022-12-14	13:36:37	13:47:04	625964	6101930ddd5330f83b898c61	98492890	1	main_slash	11	advance_on_keypress_SLASH	160	stimuli_target_circlediamonds.svg	stimuli_distractor_trianglediamonds.svg	2	yes	57	0	358