build	computer.platform	date	time	timestamp	time_elapsed_ms	subject	group	session	blockcode	blocknum	trialcode	trialnum	stimulus_left	stimulus_right	stim_index	target_present	response	correct	latency
6.6.1	win	2022-12-14	19:12:18	19:25:48	808394	5e6d07de9cf1952cdc94bf61	255644342	1	practice_z	5	practice_z	1	stimuli_distractor_trianglediamonds.svg	stimuli_target_squarediamonds.svg	11	yes	0	0	2000
6.6.1	win	2022-12-14	19:12:18	19:25:48	808394	5e6d07de9cf1952cdc94bf61	255644342	1	practice_z	5	advance_on_keypress_ZEE	2	stimuli_distractor_trianglediamonds.svg	stimuli_target_squarediamonds.svg	11	yes	57	0	1828
6.6.1	win	2022-12-14	19:12:18	19:25:53	813223	5e6d07de9cf1952cdc94bf61	255644342	1	practice_z	5	practice_z	3	stimuli_target_diamondsquares.svg	stimuli_distractor_diamondtriangles.svg	3	yes	44	1	1346
6.6.1	win	2022-12-14	19:12:18	19:25:53	813223	5e6d07de9cf1952cdc94bf61	255644342	1	practice_z	5	advance_on_keypress_ZEE	4	stimuli_target_diamondsquares.svg	stimuli_distractor_diamondtriangles.svg	3	yes	57	0	611
6.6.1	win	2022-12-14	19:12:18	19:25:56	816071	5e6d07de9cf1952cdc94bf61	255644342	1	practice_z	5	practice_z	5	stimuli_target_squarediamonds.svg	stimuli_distractor_diamondtriangles.svg	2	yes	44	1	594
6.6.1	win	2022-12-14	19:12:18	19:25:56	816071	5e6d07de9cf1952cdc94bf61	255644342	1	practice_z	5	advance_on_keypress_ZEE	6	stimuli_target_squarediamonds.svg	stimuli_distractor_diamondtriangles.svg	2	yes	57	0	833
6.6.1	win	2022-12-14	19:12:18	19:25:59	819143	5e6d07de9cf1952cdc94bf61	255644342	1	practice_z	5	practice_z	7	stimuli_target_circlediamonds.svg	stimuli_distractor_diamondtriangles.svg	1	yes	44	1	582
6.6.1	win	2022-12-14	19:12:18	19:25:59	819143	5e6d07de9cf1952cdc94bf61	255644342	1	practice_z	5	advance_on_keypress_ZEE	8	stimuli_target_circlediamonds.svg	stimuli_distractor_diamondtriangles.svg	1	yes	57	0	566
6.6.1	win	2022-12-14	19:12:18	19:26:02	821879	5e6d07de9cf1952cdc94bf61	255644342	1	practice_z	5	practice_z	9	stimuli_target_squarediamonds.svg	stimuli_distractor_trianglediamonds.svg	5	yes	44	1	519
6.6.1	win	2022-12-14	19:12:18	19:26:02	821879	5e6d07de9cf1952cdc94bf61	255644342	1	practice_z	5	advance_on_keypress_ZEE	10	stimuli_target_squarediamonds.svg	stimuli_distractor_trianglediamonds.svg	5	yes	57	0	377
6.6.1	win	2022-12-14	19:12:18	19:26:04	824470	5e6d07de9cf1952cdc94bf61	255644342	1	practice_z	5	practice_z	11	stimuli_distractor_diamondtriangles.svg	stimuli_target_circletriangles.svg	7	yes	44	1	560
6.6.1	win	2022-12-14	19:12:18	19:26:04	824470	5e6d07de9cf1952cdc94bf61	255644342	1	practice_z	5	advance_on_keypress_ZEE	12	stimuli_distractor_diamondtriangles.svg	stimuli_target_circletriangles.svg	7	yes	57	0	513
6.6.1	win	2022-12-14	19:12:18	19:26:08	828627	5e6d07de9cf1952cdc94bf61	255644342	1	practice_z	5	practice_z	13	stimuli_distractor_diamondtriangles.svg	stimuli_distractor_trianglediamonds.svg	14	no	0	1	2000
6.6.1	win	2022-12-14	19:12:18	19:26:08	828627	5e6d07de9cf1952cdc94bf61	255644342	1	practice_z	5	advance_on_keypress_ZEE	14	stimuli_distractor_diamondtriangles.svg	stimuli_distractor_trianglediamonds.svg	14	no	57	0	443
6.6.1	win	2022-12-14	19:12:18	19:26:12	831942	5e6d07de9cf1952cdc94bf61	255644342	1	practice_z	5	practice_z	15	stimuli_distractor_trianglediamonds.svg	stimuli_distractor_trianglediamonds.svg	15	no	44	0	1232
6.6.1	win	2022-12-14	19:12:18	19:26:12	831942	5e6d07de9cf1952cdc94bf61	255644342	1	practice_z	5	advance_on_keypress_ZEE	16	stimuli_distractor_trianglediamonds.svg	stimuli_distractor_trianglediamonds.svg	15	no	57	0	662
6.6.1	win	2022-12-14	19:12:18	19:26:15	835175	5e6d07de9cf1952cdc94bf61	255644342	1	practice_z	5	practice_z	17	stimuli_distractor_diamondtriangles.svg	stimuli_target_diamondcircles.svg	8	yes	44	1	914
6.6.1	win	2022-12-14	19:12:18	19:26:15	835175	5e6d07de9cf1952cdc94bf61	255644342	1	practice_z	5	advance_on_keypress_ZEE	18	stimuli_distractor_diamondtriangles.svg	stimuli_target_diamondcircles.svg	8	yes	57	0	389
6.6.1	win	2022-12-14	19:12:18	19:26:18	837687	5e6d07de9cf1952cdc94bf61	255644342	1	practice_z	5	practice_z	19	stimuli_distractor_trianglediamonds.svg	stimuli_target_circlediamonds.svg	10	yes	44	1	476
6.6.1	win	2022-12-14	19:12:18	19:26:18	837687	5e6d07de9cf1952cdc94bf61	255644342	1	practice_z	5	advance_on_keypress_ZEE	20	stimuli_distractor_trianglediamonds.svg	stimuli_target_circlediamonds.svg	10	yes	57	0	545
6.6.1	win	2022-12-14	19:12:18	19:26:20	840535	5e6d07de9cf1952cdc94bf61	255644342	1	practice_z	5	practice_z	21	stimuli_distractor_trianglediamonds.svg	stimuli_target_diamondcircles.svg	12	yes	44	1	657
6.6.1	win	2022-12-14	19:12:18	19:26:20	840535	5e6d07de9cf1952cdc94bf61	255644342	1	practice_z	5	advance_on_keypress_ZEE	22	stimuli_distractor_trianglediamonds.svg	stimuli_target_diamondcircles.svg	12	yes	57	0	398
6.6.1	win	2022-12-14	19:12:18	19:26:24	844039	5e6d07de9cf1952cdc94bf61	255644342	1	practice_z	5	practice_z	23	stimuli_target_diamondsquares.svg	stimuli_distractor_trianglediamonds.svg	6	yes	44	1	1461
6.6.1	win	2022-12-14	19:12:18	19:26:24	844039	5e6d07de9cf1952cdc94bf61	255644342	1	practice_z	5	advance_on_keypress_ZEE	24	stimuli_target_diamondsquares.svg	stimuli_distractor_trianglediamonds.svg	6	yes	57	0	466
6.6.1	win	2022-12-14	19:12:18	19:26:26	846599	5e6d07de9cf1952cdc94bf61	255644342	1	practice_z	5	practice_z	25	stimuli_distractor_diamondtriangles.svg	stimuli_target_trianglecircles.svg	9	yes	44	1	421
6.6.1	win	2022-12-14	19:12:18	19:26:26	846599	5e6d07de9cf1952cdc94bf61	255644342	1	practice_z	5	advance_on_keypress_ZEE	26	stimuli_distractor_diamondtriangles.svg	stimuli_target_trianglecircles.svg	9	yes	57	0	444
6.6.1	win	2022-12-14	19:12:18	19:26:29	849271	5e6d07de9cf1952cdc94bf61	255644342	1	practice_z	5	practice_z	27	stimuli_distractor_diamondtriangles.svg	stimuli_distractor_diamondtriangles.svg	13	no	44	0	593
6.6.1	win	2022-12-14	19:12:18	19:26:29	849271	5e6d07de9cf1952cdc94bf61	255644342	1	practice_z	5	advance_on_keypress_ZEE	28	stimuli_distractor_diamondtriangles.svg	stimuli_distractor_diamondtriangles.svg	13	no	57	0	497
6.6.1	win	2022-12-14	19:12:18	19:26:33	853427	5e6d07de9cf1952cdc94bf61	255644342	1	practice_z	5	practice_z	29	stimuli_distractor_trianglediamonds.svg	stimuli_distractor_diamondtriangles.svg	16	no	0	1	2000
6.6.1	win	2022-12-14	19:12:18	19:26:33	853427	5e6d07de9cf1952cdc94bf61	255644342	1	practice_z	5	advance_on_keypress_ZEE	30	stimuli_distractor_trianglediamonds.svg	stimuli_distractor_diamondtriangles.svg	16	no	57	0	699
6.6.1	win	2022-12-14	19:12:18	19:26:36	856231	5e6d07de9cf1952cdc94bf61	255644342	1	practice_z	5	practice_z	31	stimuli_target_circlediamonds.svg	stimuli_distractor_trianglediamonds.svg	4	yes	44	1	453
6.6.1	win	2022-12-14	19:12:18	19:26:36	856231	5e6d07de9cf1952cdc94bf61	255644342	1	practice_z	5	advance_on_keypress_ZEE	32	stimuli_target_circlediamonds.svg	stimuli_distractor_trianglediamonds.svg	4	yes	57	0	2315
6.6.1	win	2022-12-14	19:12:18	19:26:47	867261	5e6d07de9cf1952cdc94bf61	255644342	1	main_z	7	main_z	1	stimuli_target_squarediamonds.svg	stimuli_distractor_trianglediamonds.svg	4	yes	44	1	485
6.6.1	win	2022-12-14	19:12:18	19:26:47	867261	5e6d07de9cf1952cdc94bf61	255644342	1	main_z	7	advance_on_keypress_ZEE	2	stimuli_target_squarediamonds.svg	stimuli_distractor_trianglediamonds.svg	4	yes	57	0	1041
6.6.1	win	2022-12-14	19:12:18	19:26:50	870093	5e6d07de9cf1952cdc94bf61	255644342	1	main_z	7	main_z	3	stimuli_distractor_diamondtriangles.svg	stimuli_distractor_trianglediamonds.svg	37	no	44	0	1150
6.6.1	win	2022-12-14	19:12:18	19:26:50	870093	5e6d07de9cf1952cdc94bf61	255644342	1	main_z	7	advance_on_keypress_ZEE	4	stimuli_distractor_diamondtriangles.svg	stimuli_distractor_trianglediamonds.svg	37	no	57	0	976
6.6.1	win	2022-12-14	19:12:18	19:26:52	872205	5e6d07de9cf1952cdc94bf61	255644342	1	main_z	7	main_z	5	stimuli_target_diamondcircles.svg	stimuli_distractor_trianglediamonds.svg	19	yes	44	1	496
6.6.1	win	2022-12-14	19:12:18	19:26:52	872205	5e6d07de9cf1952cdc94bf61	255644342	1	main_z	7	advance_on_keypress_ZEE	6	stimuli_target_diamondcircles.svg	stimuli_distractor_trianglediamonds.svg	19	yes	57	0	715
6.6.1	win	2022-12-14	19:12:18	19:26:55	874861	5e6d07de9cf1952cdc94bf61	255644342	1	main_z	7	main_z	7	stimuli_target_trianglesquares.svg	stimuli_distractor_diamondtriangles.svg	22	yes	44	1	1285
6.6.1	win	2022-12-14	19:12:18	19:26:55	874861	5e6d07de9cf1952cdc94bf61	255644342	1	main_z	7	advance_on_keypress_ZEE	8	stimuli_target_trianglesquares.svg	stimuli_distractor_diamondtriangles.svg	22	yes	57	0	465
6.6.1	win	2022-12-14	19:12:18	19:26:57	877133	5e6d07de9cf1952cdc94bf61	255644342	1	main_z	7	main_z	9	stimuli_target_squarediamonds.svg	stimuli_distractor_diamondtriangles.svg	8	yes	44	1	1157
6.6.1	win	2022-12-14	19:12:18	19:26:57	877133	5e6d07de9cf1952cdc94bf61	255644342	1	main_z	7	advance_on_keypress_ZEE	10	stimuli_target_squarediamonds.svg	stimuli_distractor_diamondtriangles.svg	8	yes	57	0	726
6.6.1	win	2022-12-14	19:12:18	19:26:59	879006	5e6d07de9cf1952cdc94bf61	255644342	1	main_z	7	main_z	11	stimuli_distractor_diamondtriangles.svg	stimuli_target_circlediamonds.svg	14	yes	44	1	512
6.6.1	win	2022-12-14	19:12:18	19:26:59	879006	5e6d07de9cf1952cdc94bf61	255644342	1	main_z	7	advance_on_keypress_ZEE	12	stimuli_distractor_diamondtriangles.svg	stimuli_target_circlediamonds.svg	14	yes	57	0	651
6.6.1	win	2022-12-14	19:12:18	19:27:01	880877	5e6d07de9cf1952cdc94bf61	255644342	1	main_z	7	main_z	13	stimuli_distractor_trianglediamonds.svg	stimuli_target_trianglecircles.svg	25	yes	44	1	568
6.6.1	win	2022-12-14	19:12:18	19:27:01	880877	5e6d07de9cf1952cdc94bf61	255644342	1	main_z	7	advance_on_keypress_ZEE	14	stimuli_distractor_trianglediamonds.svg	stimuli_target_trianglecircles.svg	25	yes	57	0	816
6.6.1	win	2022-12-14	19:12:18	19:27:04	884342	5e6d07de9cf1952cdc94bf61	255644342	1	main_z	7	main_z	15	stimuli_distractor_trianglediamonds.svg	stimuli_target_diamondsquares.svg	28	yes	0	0	2000
6.6.1	win	2022-12-14	19:12:18	19:27:04	884342	5e6d07de9cf1952cdc94bf61	255644342	1	main_z	7	advance_on_keypress_ZEE	16	stimuli_distractor_trianglediamonds.svg	stimuli_target_diamondsquares.svg	28	yes	57	0	102
6.6.1	win	2022-12-14	19:12:18	19:27:06	886285	5e6d07de9cf1952cdc94bf61	255644342	1	main_z	7	main_z	17	stimuli_distractor_trianglediamonds.svg	stimuli_target_trianglesquares.svg	26	yes	44	1	1192
6.6.1	win	2022-12-14	19:12:18	19:27:06	886285	5e6d07de9cf1952cdc94bf61	255644342	1	main_z	7	advance_on_keypress_ZEE	18	stimuli_distractor_trianglediamonds.svg	stimuli_target_trianglesquares.svg	26	yes	57	0	728
6.6.1	win	2022-12-14	19:12:18	19:27:08	888189	5e6d07de9cf1952cdc94bf61	255644342	1	main_z	7	main_z	19	stimuli_target_diamondsquares.svg	stimuli_distractor_trianglediamonds.svg	20	yes	44	1	530
6.6.1	win	2022-12-14	19:12:18	19:27:08	888189	5e6d07de9cf1952cdc94bf61	255644342	1	main_z	7	advance_on_keypress_ZEE	20	stimuli_target_diamondsquares.svg	stimuli_distractor_trianglediamonds.svg	20	yes	57	0	780
6.6.1	win	2022-12-14	19:12:18	19:27:11	891625	5e6d07de9cf1952cdc94bf61	255644342	1	main_z	7	main_z	21	stimuli_distractor_trianglediamonds.svg	stimuli_distractor_trianglediamonds.svg	34	no	0	1	2000
6.6.1	win	2022-12-14	19:12:18	19:27:11	891625	5e6d07de9cf1952cdc94bf61	255644342	1	main_z	7	advance_on_keypress_ZEE	22	stimuli_distractor_trianglediamonds.svg	stimuli_distractor_trianglediamonds.svg	34	no	57	0	643
6.6.1	win	2022-12-14	19:12:18	19:27:13	893325	5e6d07de9cf1952cdc94bf61	255644342	1	main_z	7	main_z	23	stimuli_distractor_diamondtriangles.svg	stimuli_target_squarediamonds.svg	16	yes	44	1	416
6.6.1	win	2022-12-14	19:12:18	19:27:13	893325	5e6d07de9cf1952cdc94bf61	255644342	1	main_z	7	advance_on_keypress_ZEE	24	stimuli_distractor_diamondtriangles.svg	stimuli_target_squarediamonds.svg	16	yes	57	0	606
6.6.1	win	2022-12-14	19:12:18	19:27:15	895069	5e6d07de9cf1952cdc94bf61	255644342	1	main_z	7	main_z	25	stimuli_target_trianglecircles.svg	stimuli_distractor_diamondtriangles.svg	21	yes	44	1	493
6.6.1	win	2022-12-14	19:12:18	19:27:15	895069	5e6d07de9cf1952cdc94bf61	255644342	1	main_z	7	advance_on_keypress_ZEE	26	stimuli_target_trianglecircles.svg	stimuli_distractor_diamondtriangles.svg	21	yes	57	0	1018
6.6.1	win	2022-12-14	19:12:18	19:27:19	898726	5e6d07de9cf1952cdc94bf61	255644342	1	main_z	7	main_z	27	stimuli_distractor_diamondtriangles.svg	stimuli_distractor_diamondtriangles.svg	40	no	0	1	2000
6.6.1	win	2022-12-14	19:12:18	19:27:19	898726	5e6d07de9cf1952cdc94bf61	255644342	1	main_z	7	advance_on_keypress_ZEE	28	stimuli_distractor_diamondtriangles.svg	stimuli_distractor_diamondtriangles.svg	40	no	57	0	406
6.6.1	win	2022-12-14	19:12:18	19:27:21	901261	5e6d07de9cf1952cdc94bf61	255644342	1	main_z	7	main_z	29	stimuli_target_squaretriangles.svg	stimuli_distractor_trianglediamonds.svg	3	yes	44	1	1469
6.6.1	win	2022-12-14	19:12:18	19:27:21	901261	5e6d07de9cf1952cdc94bf61	255644342	1	main_z	7	advance_on_keypress_ZEE	30	stimuli_target_squaretriangles.svg	stimuli_distractor_trianglediamonds.svg	3	yes	57	0	481
6.6.1	win	2022-12-14	19:12:18	19:27:23	902717	5e6d07de9cf1952cdc94bf61	255644342	1	main_z	7	main_z	31	stimuli_distractor_diamondtriangles.svg	stimuli_target_trianglecircles.svg	29	yes	44	1	325
6.6.1	win	2022-12-14	19:12:18	19:27:23	902717	5e6d07de9cf1952cdc94bf61	255644342	1	main_z	7	advance_on_keypress_ZEE	32	stimuli_distractor_diamondtriangles.svg	stimuli_target_trianglecircles.svg	29	yes	57	0	1031
6.6.1	win	2022-12-14	19:12:18	19:27:26	906392	5e6d07de9cf1952cdc94bf61	255644342	1	main_z	7	main_z	33	stimuli_distractor_trianglediamonds.svg	stimuli_distractor_diamondtriangles.svg	35	no	0	1	2000
6.6.1	win	2022-12-14	19:12:18	19:27:26	906392	5e6d07de9cf1952cdc94bf61	255644342	1	main_z	7	advance_on_keypress_ZEE	34	stimuli_distractor_trianglediamonds.svg	stimuli_distractor_diamondtriangles.svg	35	no	57	0	548
6.6.1	win	2022-12-14	19:12:18	19:27:29	909592	5e6d07de9cf1952cdc94bf61	255644342	1	main_z	7	main_z	35	stimuli_distractor_trianglediamonds.svg	stimuli_target_squaretriangles.svg	11	yes	0	0	2000
6.6.1	win	2022-12-14	19:12:18	19:27:29	909592	5e6d07de9cf1952cdc94bf61	255644342	1	main_z	7	advance_on_keypress_ZEE	36	stimuli_distractor_trianglediamonds.svg	stimuli_target_squaretriangles.svg	11	yes	57	0	499
6.6.1	win	2022-12-14	19:12:18	19:27:31	911149	5e6d07de9cf1952cdc94bf61	255644342	1	main_z	7	main_z	37	stimuli_target_circletriangles.svg	stimuli_distractor_trianglediamonds.svg	1	yes	44	1	407
6.6.1	win	2022-12-14	19:12:18	19:27:31	911149	5e6d07de9cf1952cdc94bf61	255644342	1	main_z	7	advance_on_keypress_ZEE	38	stimuli_target_circletriangles.svg	stimuli_distractor_trianglediamonds.svg	1	yes	57	0	1351
6.6.1	win	2022-12-14	19:12:18	19:27:33	913597	5e6d07de9cf1952cdc94bf61	255644342	1	main_z	7	main_z	39	stimuli_target_trianglesquares.svg	stimuli_distractor_trianglediamonds.svg	18	yes	44	1	455
6.6.1	win	2022-12-14	19:12:18	19:27:33	913597	5e6d07de9cf1952cdc94bf61	255644342	1	main_z	7	advance_on_keypress_ZEE	40	stimuli_target_trianglesquares.svg	stimuli_distractor_trianglediamonds.svg	18	yes	57	0	1045
6.6.1	win	2022-12-14	19:12:18	19:27:35	915629	5e6d07de9cf1952cdc94bf61	255644342	1	main_z	7	main_z	41	stimuli_target_diamondcircles.svg	stimuli_distractor_diamondtriangles.svg	23	yes	44	1	354
6.6.1	win	2022-12-14	19:12:18	19:27:35	915629	5e6d07de9cf1952cdc94bf61	255644342	1	main_z	7	advance_on_keypress_ZEE	42	stimuli_target_diamondcircles.svg	stimuli_distractor_diamondtriangles.svg	23	yes	57	0	1235
6.6.1	win	2022-12-14	19:12:18	19:27:38	917917	5e6d07de9cf1952cdc94bf61	255644342	1	main_z	7	main_z	43	stimuli_target_squaretriangles.svg	stimuli_distractor_diamondtriangles.svg	7	yes	44	1	409
6.6.1	win	2022-12-14	19:12:18	19:27:38	917917	5e6d07de9cf1952cdc94bf61	255644342	1	main_z	7	advance_on_keypress_ZEE	44	stimuli_target_squaretriangles.svg	stimuli_distractor_diamondtriangles.svg	7	yes	57	0	920
6.6.1	win	2022-12-14	19:12:18	19:27:40	919869	5e6d07de9cf1952cdc94bf61	255644342	1	main_z	7	main_z	45	stimuli_distractor_diamondtriangles.svg	stimuli_target_trianglesquares.svg	30	yes	44	1	394
6.6.1	win	2022-12-14	19:12:18	19:27:40	919869	5e6d07de9cf1952cdc94bf61	255644342	1	main_z	7	advance_on_keypress_ZEE	46	stimuli_distractor_diamondtriangles.svg	stimuli_target_trianglesquares.svg	30	yes	57	0	714
6.6.1	win	2022-12-14	19:12:18	19:27:41	921613	5e6d07de9cf1952cdc94bf61	255644342	1	main_z	7	main_z	47	stimuli_target_trianglecircles.svg	stimuli_distractor_trianglediamonds.svg	17	yes	44	1	388
6.6.1	win	2022-12-14	19:12:18	19:27:41	921613	5e6d07de9cf1952cdc94bf61	255644342	1	main_z	7	advance_on_keypress_ZEE	48	stimuli_target_trianglecircles.svg	stimuli_distractor_trianglediamonds.svg	17	yes	57	0	724
6.6.1	win	2022-12-14	19:12:18	19:27:43	923490	5e6d07de9cf1952cdc94bf61	255644342	1	main_z	7	main_z	49	stimuli_distractor_diamondtriangles.svg	stimuli_target_diamondsquares.svg	32	yes	44	1	510
6.6.1	win	2022-12-14	19:12:18	19:27:43	923490	5e6d07de9cf1952cdc94bf61	255644342	1	main_z	7	advance_on_keypress_ZEE	50	stimuli_distractor_diamondtriangles.svg	stimuli_target_diamondsquares.svg	32	yes	57	0	984
6.6.1	win	2022-12-14	19:12:18	19:27:45	925469	5e6d07de9cf1952cdc94bf61	255644342	1	main_z	7	main_z	51	stimuli_distractor_trianglediamonds.svg	stimuli_target_circlediamonds.svg	10	yes	44	1	344
6.6.1	win	2022-12-14	19:12:18	19:27:45	925469	5e6d07de9cf1952cdc94bf61	255644342	1	main_z	7	advance_on_keypress_ZEE	52	stimuli_distractor_trianglediamonds.svg	stimuli_target_circlediamonds.svg	10	yes	57	0	842
6.6.1	win	2022-12-14	19:12:18	19:27:47	927327	5e6d07de9cf1952cdc94bf61	255644342	1	main_z	7	main_z	53	stimuli_distractor_trianglediamonds.svg	stimuli_distractor_diamondtriangles.svg	36	no	44	0	383
6.6.1	win	2022-12-14	19:12:18	19:27:47	927327	5e6d07de9cf1952cdc94bf61	255644342	1	main_z	7	advance_on_keypress_ZEE	54	stimuli_distractor_trianglediamonds.svg	stimuli_distractor_diamondtriangles.svg	36	no	57	0	831
6.6.1	win	2022-12-14	19:12:18	19:27:49	929117	5e6d07de9cf1952cdc94bf61	255644342	1	main_z	7	main_z	55	stimuli_target_circlediamonds.svg	stimuli_distractor_trianglediamonds.svg	2	yes	44	1	308
6.6.1	win	2022-12-14	19:12:18	19:27:49	929117	5e6d07de9cf1952cdc94bf61	255644342	1	main_z	7	advance_on_keypress_ZEE	56	stimuli_target_circlediamonds.svg	stimuli_distractor_trianglediamonds.svg	2	yes	57	0	616
6.6.1	win	2022-12-14	19:12:18	19:27:51	930957	5e6d07de9cf1952cdc94bf61	255644342	1	main_z	7	main_z	57	stimuli_distractor_trianglediamonds.svg	stimuli_target_squarediamonds.svg	12	yes	44	1	582
6.6.1	win	2022-12-14	19:12:18	19:27:51	930957	5e6d07de9cf1952cdc94bf61	255644342	1	main_z	7	advance_on_keypress_ZEE	58	stimuli_distractor_trianglediamonds.svg	stimuli_target_squarediamonds.svg	12	yes	57	0	974
6.6.1	win	2022-12-14	19:12:18	19:27:53	932925	5e6d07de9cf1952cdc94bf61	255644342	1	main_z	7	main_z	59	stimuli_target_diamondsquares.svg	stimuli_distractor_diamondtriangles.svg	24	yes	44	1	350
6.6.1	win	2022-12-14	19:12:18	19:27:53	932925	5e6d07de9cf1952cdc94bf61	255644342	1	main_z	7	advance_on_keypress_ZEE	60	stimuli_target_diamondsquares.svg	stimuli_distractor_diamondtriangles.svg	24	yes	57	0	527
6.6.1	win	2022-12-14	19:12:18	19:27:56	936093	5e6d07de9cf1952cdc94bf61	255644342	1	main_z	7	main_z	61	stimuli_distractor_diamondtriangles.svg	stimuli_target_squaretriangles.svg	15	yes	0	0	2000
6.6.1	win	2022-12-14	19:12:18	19:27:56	936093	5e6d07de9cf1952cdc94bf61	255644342	1	main_z	7	advance_on_keypress_ZEE	62	stimuli_distractor_diamondtriangles.svg	stimuli_target_squaretriangles.svg	15	yes	57	0	112
6.6.1	win	2022-12-14	19:12:18	19:27:59	938859	5e6d07de9cf1952cdc94bf61	255644342	1	main_z	7	main_z	63	stimuli_distractor_diamondtriangles.svg	stimuli_distractor_trianglediamonds.svg	38	no	0	1	2000
6.6.1	win	2022-12-14	19:12:18	19:27:59	938859	5e6d07de9cf1952cdc94bf61	255644342	1	main_z	7	advance_on_keypress_ZEE	64	stimuli_distractor_diamondtriangles.svg	stimuli_distractor_trianglediamonds.svg	38	no	57	0	706
6.6.1	win	2022-12-14	19:12:18	19:28:02	942209	5e6d07de9cf1952cdc94bf61	255644342	1	main_z	7	main_z	65	stimuli_distractor_trianglediamonds.svg	stimuli_distractor_trianglediamonds.svg	33	no	0	1	2000
6.6.1	win	2022-12-14	19:12:18	19:28:02	942209	5e6d07de9cf1952cdc94bf61	255644342	1	main_z	7	advance_on_keypress_ZEE	66	stimuli_distractor_trianglediamonds.svg	stimuli_distractor_trianglediamonds.svg	33	no	57	0	44
6.6.1	win	2022-12-14	19:12:18	19:28:03	943341	5e6d07de9cf1952cdc94bf61	255644342	1	main_z	7	main_z	67	stimuli_distractor_diamondtriangles.svg	stimuli_target_diamondcircles.svg	31	yes	44	1	449
6.6.1	win	2022-12-14	19:12:18	19:28:03	943341	5e6d07de9cf1952cdc94bf61	255644342	1	main_z	7	advance_on_keypress_ZEE	68	stimuli_distractor_diamondtriangles.svg	stimuli_target_diamondcircles.svg	31	yes	57	0	766
6.6.1	win	2022-12-14	19:12:18	19:28:07	946759	5e6d07de9cf1952cdc94bf61	255644342	1	main_z	7	main_z	69	stimuli_distractor_diamondtriangles.svg	stimuli_distractor_diamondtriangles.svg	39	no	0	1	2000
6.6.1	win	2022-12-14	19:12:18	19:28:07	946759	5e6d07de9cf1952cdc94bf61	255644342	1	main_z	7	advance_on_keypress_ZEE	70	stimuli_distractor_diamondtriangles.svg	stimuli_distractor_diamondtriangles.svg	39	no	57	0	518
6.6.1	win	2022-12-14	19:12:18	19:28:08	948317	5e6d07de9cf1952cdc94bf61	255644342	1	main_z	7	main_z	71	stimuli_distractor_trianglediamonds.svg	stimuli_target_diamondcircles.svg	27	yes	44	1	392
6.6.1	win	2022-12-14	19:12:18	19:28:08	948317	5e6d07de9cf1952cdc94bf61	255644342	1	main_z	7	advance_on_keypress_ZEE	72	stimuli_distractor_trianglediamonds.svg	stimuli_target_diamondcircles.svg	27	yes	57	0	936
6.6.1	win	2022-12-14	19:12:18	19:28:10	950285	5e6d07de9cf1952cdc94bf61	255644342	1	main_z	7	main_z	73	stimuli_target_circletriangles.svg	stimuli_distractor_diamondtriangles.svg	5	yes	44	1	393
6.6.1	win	2022-12-14	19:12:18	19:28:10	950285	5e6d07de9cf1952cdc94bf61	255644342	1	main_z	7	advance_on_keypress_ZEE	74	stimuli_target_circletriangles.svg	stimuli_distractor_diamondtriangles.svg	5	yes	57	0	729
6.6.1	win	2022-12-14	19:12:18	19:28:12	952040	5e6d07de9cf1952cdc94bf61	255644342	1	main_z	7	main_z	75	stimuli_distractor_trianglediamonds.svg	stimuli_target_circletriangles.svg	9	yes	44	1	370
6.6.1	win	2022-12-14	19:12:18	19:28:12	952040	5e6d07de9cf1952cdc94bf61	255644342	1	main_z	7	advance_on_keypress_ZEE	76	stimuli_distractor_trianglediamonds.svg	stimuli_target_circletriangles.svg	9	yes	57	0	498
6.6.1	win	2022-12-14	19:12:18	19:28:13	953573	5e6d07de9cf1952cdc94bf61	255644342	1	main_z	7	main_z	77	stimuli_target_circlediamonds.svg	stimuli_distractor_diamondtriangles.svg	6	yes	44	1	374
6.6.1	win	2022-12-14	19:12:18	19:28:13	953573	5e6d07de9cf1952cdc94bf61	255644342	1	main_z	7	advance_on_keypress_ZEE	78	stimuli_target_circlediamonds.svg	stimuli_distractor_diamondtriangles.svg	6	yes	57	0	453
6.6.1	win	2022-12-14	19:12:18	19:28:15	955102	5e6d07de9cf1952cdc94bf61	255644342	1	main_z	7	main_z	79	stimuli_distractor_diamondtriangles.svg	stimuli_target_circletriangles.svg	13	yes	44	1	426
6.6.1	win	2022-12-14	19:12:18	19:28:15	955102	5e6d07de9cf1952cdc94bf61	255644342	1	main_z	7	advance_on_keypress_ZEE	80	stimuli_distractor_diamondtriangles.svg	stimuli_target_circletriangles.svg	13	yes	57	0	664
6.6.1	win	2022-12-14	19:12:18	19:28:17	956861	5e6d07de9cf1952cdc94bf61	255644342	1	main_z	7	main_z	81	stimuli_distractor_diamondtriangles.svg	stimuli_target_squarediamonds.svg	16	yes	44	1	452
6.6.1	win	2022-12-14	19:12:18	19:28:17	956861	5e6d07de9cf1952cdc94bf61	255644342	1	main_z	7	advance_on_keypress_ZEE	82	stimuli_distractor_diamondtriangles.svg	stimuli_target_squarediamonds.svg	16	yes	57	0	722
6.6.1	win	2022-12-14	19:12:18	19:28:18	958557	5e6d07de9cf1952cdc94bf61	255644342	1	main_z	7	main_z	83	stimuli_target_diamondcircles.svg	stimuli_distractor_trianglediamonds.svg	19	yes	44	1	332
6.6.1	win	2022-12-14	19:12:18	19:28:18	958557	5e6d07de9cf1952cdc94bf61	255644342	1	main_z	7	advance_on_keypress_ZEE	84	stimuli_target_diamondcircles.svg	stimuli_distractor_trianglediamonds.svg	19	yes	57	0	1149
6.6.1	win	2022-12-14	19:12:18	19:28:21	960893	5e6d07de9cf1952cdc94bf61	255644342	1	main_z	7	main_z	85	stimuli_distractor_diamondtriangles.svg	stimuli_distractor_diamondtriangles.svg	39	no	44	0	534
6.6.1	win	2022-12-14	19:12:18	19:28:21	960893	5e6d07de9cf1952cdc94bf61	255644342	1	main_z	7	advance_on_keypress_ZEE	86	stimuli_distractor_diamondtriangles.svg	stimuli_distractor_diamondtriangles.svg	39	no	57	0	576
6.6.1	win	2022-12-14	19:12:18	19:28:22	962429	5e6d07de9cf1952cdc94bf61	255644342	1	main_z	7	main_z	87	stimuli_target_trianglecircles.svg	stimuli_distractor_diamondtriangles.svg	21	yes	44	1	320
6.6.1	win	2022-12-14	19:12:18	19:28:22	962429	5e6d07de9cf1952cdc94bf61	255644342	1	main_z	7	advance_on_keypress_ZEE	88	stimuli_target_trianglecircles.svg	stimuli_distractor_diamondtriangles.svg	21	yes	57	0	563
6.6.1	win	2022-12-14	19:12:18	19:28:24	964125	5e6d07de9cf1952cdc94bf61	255644342	1	main_z	7	main_z	89	stimuli_target_squaretriangles.svg	stimuli_distractor_diamondtriangles.svg	7	yes	44	1	483
6.6.1	win	2022-12-14	19:12:18	19:28:24	964125	5e6d07de9cf1952cdc94bf61	255644342	1	main_z	7	advance_on_keypress_ZEE	90	stimuli_target_squaretriangles.svg	stimuli_distractor_diamondtriangles.svg	7	yes	57	0	463
6.6.1	win	2022-12-14	19:12:18	19:28:26	965805	5e6d07de9cf1952cdc94bf61	255644342	1	main_z	7	main_z	91	stimuli_target_trianglesquares.svg	stimuli_distractor_trianglediamonds.svg	18	yes	44	1	563
6.6.1	win	2022-12-14	19:12:18	19:28:26	965805	5e6d07de9cf1952cdc94bf61	255644342	1	main_z	7	advance_on_keypress_ZEE	92	stimuli_target_trianglesquares.svg	stimuli_distractor_trianglediamonds.svg	18	yes	57	0	636
6.6.1	win	2022-12-14	19:12:18	19:28:29	969093	5e6d07de9cf1952cdc94bf61	255644342	1	main_z	7	main_z	93	stimuli_distractor_trianglediamonds.svg	stimuli_distractor_trianglediamonds.svg	33	no	0	1	2000
6.6.1	win	2022-12-14	19:12:18	19:28:29	969093	5e6d07de9cf1952cdc94bf61	255644342	1	main_z	7	advance_on_keypress_ZEE	94	stimuli_distractor_trianglediamonds.svg	stimuli_distractor_trianglediamonds.svg	33	no	57	0	392
6.6.1	win	2022-12-14	19:12:18	19:28:30	970542	5e6d07de9cf1952cdc94bf61	255644342	1	main_z	7	main_z	95	stimuli_distractor_diamondtriangles.svg	stimuli_target_trianglesquares.svg	30	yes	44	1	416
6.6.1	win	2022-12-14	19:12:18	19:28:30	970542	5e6d07de9cf1952cdc94bf61	255644342	1	main_z	7	advance_on_keypress_ZEE	96	stimuli_distractor_diamondtriangles.svg	stimuli_target_trianglesquares.svg	30	yes	57	0	590
6.6.1	win	2022-12-14	19:12:18	19:28:32	972221	5e6d07de9cf1952cdc94bf61	255644342	1	main_z	7	main_z	97	stimuli_target_diamondsquares.svg	stimuli_distractor_diamondtriangles.svg	24	yes	44	1	445
6.6.1	win	2022-12-14	19:12:18	19:28:32	972221	5e6d07de9cf1952cdc94bf61	255644342	1	main_z	7	advance_on_keypress_ZEE	98	stimuli_target_diamondsquares.svg	stimuli_distractor_diamondtriangles.svg	24	yes	57	0	443
6.6.1	win	2022-12-14	19:12:18	19:28:35	975309	5e6d07de9cf1952cdc94bf61	255644342	1	main_z	7	main_z	99	stimuli_distractor_trianglediamonds.svg	stimuli_distractor_trianglediamonds.svg	34	no	0	1	2000
6.6.1	win	2022-12-14	19:12:18	19:28:35	975309	5e6d07de9cf1952cdc94bf61	255644342	1	main_z	7	advance_on_keypress_ZEE	100	stimuli_distractor_trianglediamonds.svg	stimuli_distractor_trianglediamonds.svg	34	no	57	0	383
6.6.1	win	2022-12-14	19:12:18	19:28:37	976749	5e6d07de9cf1952cdc94bf61	255644342	1	main_z	7	main_z	101	stimuli_distractor_trianglediamonds.svg	stimuli_target_circlediamonds.svg	10	yes	44	1	407
6.6.1	win	2022-12-14	19:12:18	19:28:37	976749	5e6d07de9cf1952cdc94bf61	255644342	1	main_z	7	advance_on_keypress_ZEE	102	stimuli_distractor_trianglediamonds.svg	stimuli_target_circlediamonds.svg	10	yes	57	0	486
6.6.1	win	2022-12-14	19:12:18	19:28:39	979534	5e6d07de9cf1952cdc94bf61	255644342	1	main_z	7	main_z	103	stimuli_distractor_diamondtriangles.svg	stimuli_target_squaretriangles.svg	15	yes	44	1	1657
6.6.1	win	2022-12-14	19:12:18	19:28:39	979534	5e6d07de9cf1952cdc94bf61	255644342	1	main_z	7	advance_on_keypress_ZEE	104	stimuli_distractor_diamondtriangles.svg	stimuli_target_squaretriangles.svg	15	yes	57	0	887
6.6.1	win	2022-12-14	19:12:18	19:28:41	981501	5e6d07de9cf1952cdc94bf61	255644342	1	main_z	7	main_z	105	stimuli_distractor_diamondtriangles.svg	stimuli_distractor_trianglediamonds.svg	37	no	44	0	442
6.6.1	win	2022-12-14	19:12:18	19:28:41	981501	5e6d07de9cf1952cdc94bf61	255644342	1	main_z	7	advance_on_keypress_ZEE	106	stimuli_distractor_diamondtriangles.svg	stimuli_distractor_trianglediamonds.svg	37	no	57	0	1096
6.6.1	win	2022-12-14	19:12:18	19:28:44	983693	5e6d07de9cf1952cdc94bf61	255644342	1	main_z	7	main_z	107	stimuli_distractor_trianglediamonds.svg	stimuli_target_trianglecircles.svg	25	yes	44	1	451
6.6.1	win	2022-12-14	19:12:18	19:28:44	983693	5e6d07de9cf1952cdc94bf61	255644342	1	main_z	7	advance_on_keypress_ZEE	108	stimuli_distractor_trianglediamonds.svg	stimuli_target_trianglecircles.svg	25	yes	57	0	448
6.6.1	win	2022-12-14	19:12:18	19:28:45	985174	5e6d07de9cf1952cdc94bf61	255644342	1	main_z	7	main_z	109	stimuli_target_circletriangles.svg	stimuli_distractor_trianglediamonds.svg	1	yes	44	1	374
6.6.1	win	2022-12-14	19:12:18	19:28:45	985174	5e6d07de9cf1952cdc94bf61	255644342	1	main_z	7	advance_on_keypress_ZEE	110	stimuli_target_circletriangles.svg	stimuli_distractor_trianglediamonds.svg	1	yes	57	0	437
6.6.1	win	2022-12-14	19:12:18	19:28:47	986670	5e6d07de9cf1952cdc94bf61	255644342	1	main_z	7	main_z	111	stimuli_distractor_diamondtriangles.svg	stimuli_target_diamondcircles.svg	31	yes	44	1	410
6.6.1	win	2022-12-14	19:12:18	19:28:47	986670	5e6d07de9cf1952cdc94bf61	255644342	1	main_z	7	advance_on_keypress_ZEE	112	stimuli_distractor_diamondtriangles.svg	stimuli_target_diamondcircles.svg	31	yes	57	0	441
6.6.1	win	2022-12-14	19:12:18	19:28:48	988127	5e6d07de9cf1952cdc94bf61	255644342	1	main_z	7	main_z	113	stimuli_distractor_trianglediamonds.svg	stimuli_target_circletriangles.svg	9	yes	44	1	383
6.6.1	win	2022-12-14	19:12:18	19:28:48	988127	5e6d07de9cf1952cdc94bf61	255644342	1	main_z	7	advance_on_keypress_ZEE	114	stimuli_distractor_trianglediamonds.svg	stimuli_target_circletriangles.svg	9	yes	57	0	367
6.6.1	win	2022-12-14	19:12:18	19:28:50	989662	5e6d07de9cf1952cdc94bf61	255644342	1	main_z	7	main_z	115	stimuli_distractor_trianglediamonds.svg	stimuli_target_trianglesquares.svg	26	yes	44	1	519
6.6.1	win	2022-12-14	19:12:18	19:28:50	989662	5e6d07de9cf1952cdc94bf61	255644342	1	main_z	7	advance_on_keypress_ZEE	116	stimuli_distractor_trianglediamonds.svg	stimuli_target_trianglesquares.svg	26	yes	57	0	529
6.6.1	win	2022-12-14	19:12:18	19:28:51	991229	5e6d07de9cf1952cdc94bf61	255644342	1	main_z	7	main_z	117	stimuli_target_circlediamonds.svg	stimuli_distractor_trianglediamonds.svg	2	yes	44	1	387
6.6.1	win	2022-12-14	19:12:18	19:28:51	991229	5e6d07de9cf1952cdc94bf61	255644342	1	main_z	7	advance_on_keypress_ZEE	118	stimuli_target_circlediamonds.svg	stimuli_distractor_trianglediamonds.svg	2	yes	57	0	403
6.6.1	win	2022-12-14	19:12:18	19:28:53	992958	5e6d07de9cf1952cdc94bf61	255644342	1	main_z	7	main_z	119	stimuli_distractor_diamondtriangles.svg	stimuli_distractor_trianglediamonds.svg	38	no	44	0	681
6.6.1	win	2022-12-14	19:12:18	19:28:53	992958	5e6d07de9cf1952cdc94bf61	255644342	1	main_z	7	advance_on_keypress_ZEE	120	stimuli_distractor_diamondtriangles.svg	stimuli_distractor_trianglediamonds.svg	38	no	57	0	477
6.6.1	win	2022-12-14	19:12:18	19:28:56	996076	5e6d07de9cf1952cdc94bf61	255644342	1	main_z	7	main_z	121	stimuli_distractor_diamondtriangles.svg	stimuli_distractor_diamondtriangles.svg	40	no	0	1	2000
6.6.1	win	2022-12-14	19:12:18	19:28:56	996076	5e6d07de9cf1952cdc94bf61	255644342	1	main_z	7	advance_on_keypress_ZEE	122	stimuli_distractor_diamondtriangles.svg	stimuli_distractor_diamondtriangles.svg	40	no	57	0	369
6.6.1	win	2022-12-14	19:12:18	19:28:57	997501	5e6d07de9cf1952cdc94bf61	255644342	1	main_z	7	main_z	123	stimuli_distractor_trianglediamonds.svg	stimuli_target_diamondcircles.svg	27	yes	44	1	409
6.6.1	win	2022-12-14	19:12:18	19:28:57	997501	5e6d07de9cf1952cdc94bf61	255644342	1	main_z	7	advance_on_keypress_ZEE	124	stimuli_distractor_trianglediamonds.svg	stimuli_target_diamondcircles.svg	27	yes	57	0	504
6.6.1	win	2022-12-14	19:12:18	19:28:59	999262	5e6d07de9cf1952cdc94bf61	255644342	1	main_z	7	main_z	125	stimuli_target_squarediamonds.svg	stimuli_distractor_diamondtriangles.svg	8	yes	44	1	619
6.6.1	win	2022-12-14	19:12:18	19:28:59	999262	5e6d07de9cf1952cdc94bf61	255644342	1	main_z	7	advance_on_keypress_ZEE	126	stimuli_target_squarediamonds.svg	stimuli_distractor_diamondtriangles.svg	8	yes	57	0	417
6.6.1	win	2022-12-14	19:12:18	19:29:01	1000749	5e6d07de9cf1952cdc94bf61	255644342	1	main_z	7	main_z	127	stimuli_target_squaretriangles.svg	stimuli_distractor_trianglediamonds.svg	3	yes	44	1	423
6.6.1	win	2022-12-14	19:12:18	19:29:01	1000749	5e6d07de9cf1952cdc94bf61	255644342	1	main_z	7	advance_on_keypress_ZEE	128	stimuli_target_squaretriangles.svg	stimuli_distractor_trianglediamonds.svg	3	yes	57	0	646
6.6.1	win	2022-12-14	19:12:18	19:29:02	1002424	5e6d07de9cf1952cdc94bf61	255644342	1	main_z	7	main_z	129	stimuli_target_circlediamonds.svg	stimuli_distractor_diamondtriangles.svg	6	yes	44	1	371
6.6.1	win	2022-12-14	19:12:18	19:29:02	1002424	5e6d07de9cf1952cdc94bf61	255644342	1	main_z	7	advance_on_keypress_ZEE	130	stimuli_target_circlediamonds.svg	stimuli_distractor_diamondtriangles.svg	6	yes	57	0	563
6.6.1	win	2022-12-14	19:12:18	19:29:04	1004141	5e6d07de9cf1952cdc94bf61	255644342	1	main_z	7	main_z	131	stimuli_distractor_trianglediamonds.svg	stimuli_target_diamondsquares.svg	28	yes	44	1	499
6.6.1	win	2022-12-14	19:12:18	19:29:04	1004141	5e6d07de9cf1952cdc94bf61	255644342	1	main_z	7	advance_on_keypress_ZEE	132	stimuli_distractor_trianglediamonds.svg	stimuli_target_diamondsquares.svg	28	yes	57	0	878
6.6.1	win	2022-12-14	19:12:18	19:29:06	1005981	5e6d07de9cf1952cdc94bf61	255644342	1	main_z	7	main_z	133	stimuli_distractor_diamondtriangles.svg	stimuli_target_circlediamonds.svg	14	yes	44	1	322
6.6.1	win	2022-12-14	19:12:18	19:29:06	1005981	5e6d07de9cf1952cdc94bf61	255644342	1	main_z	7	advance_on_keypress_ZEE	134	stimuli_distractor_diamondtriangles.svg	stimuli_target_circlediamonds.svg	14	yes	57	0	437
6.6.1	win	2022-12-14	19:12:18	19:29:07	1007470	5e6d07de9cf1952cdc94bf61	255644342	1	main_z	7	main_z	135	stimuli_distractor_trianglediamonds.svg	stimuli_target_squarediamonds.svg	12	yes	44	1	410
6.6.1	win	2022-12-14	19:12:18	19:29:07	1007470	5e6d07de9cf1952cdc94bf61	255644342	1	main_z	7	advance_on_keypress_ZEE	136	stimuli_distractor_trianglediamonds.svg	stimuli_target_squarediamonds.svg	12	yes	57	0	521
6.6.1	win	2022-12-14	19:12:18	19:29:09	1008909	5e6d07de9cf1952cdc94bf61	255644342	1	main_z	7	main_z	137	stimuli_target_diamondcircles.svg	stimuli_distractor_diamondtriangles.svg	23	yes	44	1	283
6.6.1	win	2022-12-14	19:12:18	19:29:09	1008909	5e6d07de9cf1952cdc94bf61	255644342	1	main_z	7	advance_on_keypress_ZEE	138	stimuli_target_diamondcircles.svg	stimuli_distractor_diamondtriangles.svg	23	yes	57	0	479
6.6.1	win	2022-12-14	19:12:18	19:29:10	1010461	5e6d07de9cf1952cdc94bf61	255644342	1	main_z	7	main_z	139	stimuli_target_diamondsquares.svg	stimuli_distractor_trianglediamonds.svg	20	yes	44	1	419
6.6.1	win	2022-12-14	19:12:18	19:29:10	1010461	5e6d07de9cf1952cdc94bf61	255644342	1	main_z	7	advance_on_keypress_ZEE	140	stimuli_target_diamondsquares.svg	stimuli_distractor_trianglediamonds.svg	20	yes	57	0	561
6.6.1	win	2022-12-14	19:12:18	19:29:12	1012269	5e6d07de9cf1952cdc94bf61	255644342	1	main_z	7	main_z	141	stimuli_distractor_diamondtriangles.svg	stimuli_target_circletriangles.svg	13	yes	44	1	610
6.6.1	win	2022-12-14	19:12:18	19:29:12	1012269	5e6d07de9cf1952cdc94bf61	255644342	1	main_z	7	advance_on_keypress_ZEE	142	stimuli_distractor_diamondtriangles.svg	stimuli_target_circletriangles.svg	13	yes	57	0	521
6.6.1	win	2022-12-14	19:12:18	19:29:14	1013901	5e6d07de9cf1952cdc94bf61	255644342	1	main_z	7	main_z	143	stimuli_distractor_trianglediamonds.svg	stimuli_distractor_diamondtriangles.svg	35	no	44	0	475
6.6.1	win	2022-12-14	19:12:18	19:29:14	1013901	5e6d07de9cf1952cdc94bf61	255644342	1	main_z	7	advance_on_keypress_ZEE	144	stimuli_distractor_trianglediamonds.svg	stimuli_distractor_diamondtriangles.svg	35	no	57	0	584
6.6.1	win	2022-12-14	19:12:18	19:29:15	1015517	5e6d07de9cf1952cdc94bf61	255644342	1	main_z	7	main_z	145	stimuli_distractor_diamondtriangles.svg	stimuli_target_trianglecircles.svg	29	yes	44	1	391
6.6.1	win	2022-12-14	19:12:18	19:29:15	1015517	5e6d07de9cf1952cdc94bf61	255644342	1	main_z	7	advance_on_keypress_ZEE	146	stimuli_distractor_diamondtriangles.svg	stimuli_target_trianglecircles.svg	29	yes	57	0	583
6.6.1	win	2022-12-14	19:12:18	19:29:17	1017085	5e6d07de9cf1952cdc94bf61	255644342	1	main_z	7	main_z	147	stimuli_target_circletriangles.svg	stimuli_distractor_diamondtriangles.svg	5	yes	44	1	343
6.6.1	win	2022-12-14	19:12:18	19:29:17	1017085	5e6d07de9cf1952cdc94bf61	255644342	1	main_z	7	advance_on_keypress_ZEE	148	stimuli_target_circletriangles.svg	stimuli_distractor_diamondtriangles.svg	5	yes	57	0	568
6.6.1	win	2022-12-14	19:12:18	19:29:19	1018765	5e6d07de9cf1952cdc94bf61	255644342	1	main_z	7	main_z	149	stimuli_distractor_trianglediamonds.svg	stimuli_distractor_diamondtriangles.svg	36	no	44	0	473
6.6.1	win	2022-12-14	19:12:18	19:29:19	1018765	5e6d07de9cf1952cdc94bf61	255644342	1	main_z	7	advance_on_keypress_ZEE	150	stimuli_distractor_trianglediamonds.svg	stimuli_distractor_diamondtriangles.svg	36	no	57	0	629
6.6.1	win	2022-12-14	19:12:18	19:29:20	1020526	5e6d07de9cf1952cdc94bf61	255644342	1	main_z	7	main_z	151	stimuli_target_trianglesquares.svg	stimuli_distractor_diamondtriangles.svg	22	yes	44	1	483
6.6.1	win	2022-12-14	19:12:18	19:29:20	1020526	5e6d07de9cf1952cdc94bf61	255644342	1	main_z	7	advance_on_keypress_ZEE	152	stimuli_target_trianglesquares.svg	stimuli_distractor_diamondtriangles.svg	22	yes	57	0	527
6.6.1	win	2022-12-14	19:12:18	19:29:24	1023693	5e6d07de9cf1952cdc94bf61	255644342	1	main_z	7	main_z	153	stimuli_distractor_trianglediamonds.svg	stimuli_target_squaretriangles.svg	11	yes	0	0	2000
6.6.1	win	2022-12-14	19:12:18	19:29:24	1023693	5e6d07de9cf1952cdc94bf61	255644342	1	main_z	7	advance_on_keypress_ZEE	154	stimuli_distractor_trianglediamonds.svg	stimuli_target_squaretriangles.svg	11	yes	57	0	416
6.6.1	win	2022-12-14	19:12:18	19:29:25	1025518	5e6d07de9cf1952cdc94bf61	255644342	1	main_z	7	main_z	155	stimuli_distractor_diamondtriangles.svg	stimuli_target_diamondsquares.svg	32	yes	44	1	758
6.6.1	win	2022-12-14	19:12:18	19:29:25	1025518	5e6d07de9cf1952cdc94bf61	255644342	1	main_z	7	advance_on_keypress_ZEE	156	stimuli_distractor_diamondtriangles.svg	stimuli_target_diamondsquares.svg	32	yes	57	0	439
6.6.1	win	2022-12-14	19:12:18	19:29:27	1027550	5e6d07de9cf1952cdc94bf61	255644342	1	main_z	7	main_z	157	stimuli_target_squarediamonds.svg	stimuli_distractor_trianglediamonds.svg	4	yes	44	1	956
6.6.1	win	2022-12-14	19:12:18	19:29:27	1027550	5e6d07de9cf1952cdc94bf61	255644342	1	main_z	7	advance_on_keypress_ZEE	158	stimuli_target_squarediamonds.svg	stimuli_distractor_trianglediamonds.svg	4	yes	57	0	566
6.6.1	win	2022-12-14	19:12:18	19:29:29	1029166	5e6d07de9cf1952cdc94bf61	255644342	1	main_z	7	main_z	159	stimuli_target_trianglecircles.svg	stimuli_distractor_trianglediamonds.svg	17	yes	44	1	406
6.6.1	win	2022-12-14	19:12:18	19:29:29	1029166	5e6d07de9cf1952cdc94bf61	255644342	1	main_z	7	advance_on_keypress_ZEE	160	stimuli_target_trianglecircles.svg	stimuli_distractor_trianglediamonds.svg	17	yes	57	0	501
6.6.1	win	2022-12-14	19:12:18	19:29:48	1048259	5e6d07de9cf1952cdc94bf61	255644342	1	practice_slash	9	practice_slash	1	stimuli_target_squarediamonds.svg	stimuli_distractor_trianglediamonds.svg	5	yes	53	1	503
6.6.1	win	2022-12-14	19:12:18	19:29:48	1048259	5e6d07de9cf1952cdc94bf61	255644342	1	practice_slash	9	advance_on_keypress_SLASH	2	stimuli_target_squarediamonds.svg	stimuli_distractor_trianglediamonds.svg	5	yes	57	0	1033
6.6.1	win	2022-12-14	19:12:18	19:29:51	1051326	5e6d07de9cf1952cdc94bf61	255644342	1	practice_slash	9	practice_slash	3	stimuli_target_squarediamonds.svg	stimuli_distractor_diamondtriangles.svg	2	yes	53	1	374
6.6.1	win	2022-12-14	19:12:18	19:29:51	1051326	5e6d07de9cf1952cdc94bf61	255644342	1	practice_slash	9	advance_on_keypress_SLASH	4	stimuli_target_squarediamonds.svg	stimuli_distractor_diamondtriangles.svg	2	yes	57	0	2174
6.6.1	win	2022-12-14	19:12:18	19:29:55	1055526	5e6d07de9cf1952cdc94bf61	255644342	1	practice_slash	9	practice_slash	5	stimuli_distractor_trianglediamonds.svg	stimuli_distractor_diamondtriangles.svg	16	no	53	0	366
6.6.1	win	2022-12-14	19:12:18	19:29:55	1055526	5e6d07de9cf1952cdc94bf61	255644342	1	practice_slash	9	advance_on_keypress_SLASH	6	stimuli_distractor_trianglediamonds.svg	stimuli_distractor_diamondtriangles.svg	16	no	57	0	1446
6.6.1	win	2022-12-14	19:12:18	19:29:59	1058904	5e6d07de9cf1952cdc94bf61	255644342	1	practice_slash	9	practice_slash	7	stimuli_target_circlediamonds.svg	stimuli_distractor_diamondtriangles.svg	1	yes	53	1	275
6.6.1	win	2022-12-14	19:12:18	19:29:59	1058904	5e6d07de9cf1952cdc94bf61	255644342	1	practice_slash	9	advance_on_keypress_SLASH	8	stimuli_target_circlediamonds.svg	stimuli_distractor_diamondtriangles.svg	1	yes	57	0	783
6.6.1	win	2022-12-14	19:12:18	19:30:03	1063329	5e6d07de9cf1952cdc94bf61	255644342	1	practice_slash	9	practice_slash	9	stimuli_target_diamondsquares.svg	stimuli_distractor_diamondtriangles.svg	3	yes	0	0	2000
6.6.1	win	2022-12-14	19:12:18	19:30:03	1063329	5e6d07de9cf1952cdc94bf61	255644342	1	practice_slash	9	advance_on_keypress_SLASH	10	stimuli_target_diamondsquares.svg	stimuli_distractor_diamondtriangles.svg	3	yes	57	0	830
6.6.1	win	2022-12-14	19:12:18	19:30:06	1066232	5e6d07de9cf1952cdc94bf61	255644342	1	practice_slash	9	practice_slash	11	stimuli_distractor_diamondtriangles.svg	stimuli_target_diamondcircles.svg	8	yes	53	1	420
6.6.1	win	2022-12-14	19:12:18	19:30:06	1066232	5e6d07de9cf1952cdc94bf61	255644342	1	practice_slash	9	advance_on_keypress_SLASH	12	stimuli_distractor_diamondtriangles.svg	stimuli_target_diamondcircles.svg	8	yes	57	0	810
6.6.1	win	2022-12-14	19:12:18	19:30:09	1069032	5e6d07de9cf1952cdc94bf61	255644342	1	practice_slash	9	practice_slash	13	stimuli_distractor_diamondtriangles.svg	stimuli_target_circletriangles.svg	7	yes	53	1	336
6.6.1	win	2022-12-14	19:12:18	19:30:09	1069032	5e6d07de9cf1952cdc94bf61	255644342	1	practice_slash	9	advance_on_keypress_SLASH	14	stimuli_distractor_diamondtriangles.svg	stimuli_target_circletriangles.svg	7	yes	57	0	474
6.6.1	win	2022-12-14	19:12:18	19:30:13	1073145	5e6d07de9cf1952cdc94bf61	255644342	1	practice_slash	9	practice_slash	15	stimuli_distractor_diamondtriangles.svg	stimuli_distractor_diamondtriangles.svg	13	no	0	1	2000
6.6.1	win	2022-12-14	19:12:18	19:30:13	1073145	5e6d07de9cf1952cdc94bf61	255644342	1	practice_slash	9	advance_on_keypress_SLASH	16	stimuli_distractor_diamondtriangles.svg	stimuli_distractor_diamondtriangles.svg	13	no	57	0	517
6.6.1	win	2022-12-14	19:12:18	19:30:16	1075720	5e6d07de9cf1952cdc94bf61	255644342	1	practice_slash	9	practice_slash	17	stimuli_distractor_trianglediamonds.svg	stimuli_target_circlediamonds.svg	10	yes	53	1	407
6.6.1	win	2022-12-14	19:12:18	19:30:16	1075720	5e6d07de9cf1952cdc94bf61	255644342	1	practice_slash	9	advance_on_keypress_SLASH	18	stimuli_distractor_trianglediamonds.svg	stimuli_target_circlediamonds.svg	10	yes	57	0	494
6.6.1	win	2022-12-14	19:12:18	19:30:18	1078264	5e6d07de9cf1952cdc94bf61	255644342	1	practice_slash	9	practice_slash	19	stimuli_target_diamondsquares.svg	stimuli_distractor_trianglediamonds.svg	6	yes	53	1	402
6.6.1	win	2022-12-14	19:12:18	19:30:18	1078264	5e6d07de9cf1952cdc94bf61	255644342	1	practice_slash	9	advance_on_keypress_SLASH	20	stimuli_target_diamondsquares.svg	stimuli_distractor_trianglediamonds.svg	6	yes	57	0	569
6.6.1	win	2022-12-14	19:12:18	19:30:21	1080776	5e6d07de9cf1952cdc94bf61	255644342	1	practice_slash	9	practice_slash	21	stimuli_distractor_trianglediamonds.svg	stimuli_target_squarediamonds.svg	11	yes	53	1	297
6.6.1	win	2022-12-14	19:12:18	19:30:21	1080776	5e6d07de9cf1952cdc94bf61	255644342	1	practice_slash	9	advance_on_keypress_SLASH	22	stimuli_distractor_trianglediamonds.svg	stimuli_target_squarediamonds.svg	11	yes	57	0	452
6.6.1	win	2022-12-14	19:12:18	19:30:25	1084879	5e6d07de9cf1952cdc94bf61	255644342	1	practice_slash	9	practice_slash	23	stimuli_distractor_trianglediamonds.svg	stimuli_distractor_trianglediamonds.svg	15	no	0	1	2000
6.6.1	win	2022-12-14	19:12:18	19:30:25	1084879	5e6d07de9cf1952cdc94bf61	255644342	1	practice_slash	9	advance_on_keypress_SLASH	24	stimuli_distractor_trianglediamonds.svg	stimuli_distractor_trianglediamonds.svg	15	no	57	0	656
6.6.1	win	2022-12-14	19:12:18	19:30:27	1087576	5e6d07de9cf1952cdc94bf61	255644342	1	practice_slash	9	practice_slash	25	stimuli_distractor_diamondtriangles.svg	stimuli_target_trianglecircles.svg	9	yes	53	1	397
6.6.1	win	2022-12-14	19:12:18	19:30:27	1087576	5e6d07de9cf1952cdc94bf61	255644342	1	practice_slash	9	advance_on_keypress_SLASH	26	stimuli_distractor_diamondtriangles.svg	stimuli_target_trianglecircles.svg	9	yes	57	0	628
6.6.1	win	2022-12-14	19:12:18	19:30:30	1090296	5e6d07de9cf1952cdc94bf61	255644342	1	practice_slash	9	practice_slash	27	stimuli_distractor_trianglediamonds.svg	stimuli_target_diamondcircles.svg	12	yes	53	1	433
6.6.1	win	2022-12-14	19:12:18	19:30:30	1090296	5e6d07de9cf1952cdc94bf61	255644342	1	practice_slash	9	advance_on_keypress_SLASH	28	stimuli_distractor_trianglediamonds.svg	stimuli_target_diamondcircles.svg	12	yes	57	0	440
6.6.1	win	2022-12-14	19:12:18	19:30:33	1092776	5e6d07de9cf1952cdc94bf61	255644342	1	practice_slash	9	practice_slash	29	stimuli_target_circlediamonds.svg	stimuli_distractor_trianglediamonds.svg	4	yes	53	1	397
6.6.1	win	2022-12-14	19:12:18	19:30:33	1092776	5e6d07de9cf1952cdc94bf61	255644342	1	practice_slash	9	advance_on_keypress_SLASH	30	stimuli_target_circlediamonds.svg	stimuli_distractor_trianglediamonds.svg	4	yes	57	0	501
6.6.1	win	2022-12-14	19:12:18	19:30:35	1095352	5e6d07de9cf1952cdc94bf61	255644342	1	practice_slash	9	practice_slash	31	stimuli_distractor_diamondtriangles.svg	stimuli_distractor_trianglediamonds.svg	14	no	53	0	424
6.6.1	win	2022-12-14	19:12:18	19:30:35	1095352	5e6d07de9cf1952cdc94bf61	255644342	1	practice_slash	9	advance_on_keypress_SLASH	32	stimuli_distractor_diamondtriangles.svg	stimuli_distractor_trianglediamonds.svg	14	no	57	0	510
6.6.1	win	2022-12-14	19:12:18	19:30:39	1099454	5e6d07de9cf1952cdc94bf61	255644342	1	main_slash	11	main_slash	1	stimuli_target_trianglecircles.svg	stimuli_distractor_trianglediamonds.svg	17	yes	53	1	461
6.6.1	win	2022-12-14	19:12:18	19:30:39	1099454	5e6d07de9cf1952cdc94bf61	255644342	1	main_slash	11	advance_on_keypress_SLASH	2	stimuli_target_trianglecircles.svg	stimuli_distractor_trianglediamonds.svg	17	yes	57	0	666
6.6.1	win	2022-12-14	19:12:18	19:30:41	1101070	5e6d07de9cf1952cdc94bf61	255644342	1	main_slash	11	main_slash	3	stimuli_distractor_diamondtriangles.svg	stimuli_target_circlediamonds.svg	14	yes	53	1	294
6.6.1	win	2022-12-14	19:12:18	19:30:41	1101070	5e6d07de9cf1952cdc94bf61	255644342	1	main_slash	11	advance_on_keypress_SLASH	4	stimuli_distractor_diamondtriangles.svg	stimuli_target_circlediamonds.svg	14	yes	57	0	584
6.6.1	win	2022-12-14	19:12:18	19:30:43	1102638	5e6d07de9cf1952cdc94bf61	255644342	1	main_slash	11	main_slash	5	stimuli_target_diamondsquares.svg	stimuli_distractor_trianglediamonds.svg	20	yes	53	1	345
6.6.1	win	2022-12-14	19:12:18	19:30:43	1102638	5e6d07de9cf1952cdc94bf61	255644342	1	main_slash	11	advance_on_keypress_SLASH	6	stimuli_target_diamondsquares.svg	stimuli_distractor_trianglediamonds.svg	20	yes	57	0	587
6.6.1	win	2022-12-14	19:12:18	19:30:44	1104190	5e6d07de9cf1952cdc94bf61	255644342	1	main_slash	11	main_slash	7	stimuli_target_circletriangles.svg	stimuli_distractor_trianglediamonds.svg	1	yes	53	1	330
6.6.1	win	2022-12-14	19:12:18	19:30:44	1104190	5e6d07de9cf1952cdc94bf61	255644342	1	main_slash	11	advance_on_keypress_SLASH	8	stimuli_target_circletriangles.svg	stimuli_distractor_trianglediamonds.svg	1	yes	57	0	508
6.6.1	win	2022-12-14	19:12:18	19:30:45	1105614	5e6d07de9cf1952cdc94bf61	255644342	1	main_slash	11	main_slash	9	stimuli_distractor_diamondtriangles.svg	stimuli_distractor_diamondtriangles.svg	39	no	53	0	271
6.6.1	win	2022-12-14	19:12:18	19:30:45	1105614	5e6d07de9cf1952cdc94bf61	255644342	1	main_slash	11	advance_on_keypress_SLASH	10	stimuli_distractor_diamondtriangles.svg	stimuli_distractor_diamondtriangles.svg	39	no	57	0	580
6.6.1	win	2022-12-14	19:12:18	19:30:47	1107198	5e6d07de9cf1952cdc94bf61	255644342	1	main_slash	11	main_slash	11	stimuli_distractor_trianglediamonds.svg	stimuli_target_circlediamonds.svg	10	yes	53	1	355
6.6.1	win	2022-12-14	19:12:18	19:30:47	1107198	5e6d07de9cf1952cdc94bf61	255644342	1	main_slash	11	advance_on_keypress_SLASH	12	stimuli_distractor_trianglediamonds.svg	stimuli_target_circlediamonds.svg	10	yes	57	0	436
6.6.1	win	2022-12-14	19:12:18	19:30:49	1108926	5e6d07de9cf1952cdc94bf61	255644342	1	main_slash	11	main_slash	13	stimuli_target_squarediamonds.svg	stimuli_distractor_trianglediamonds.svg	4	yes	53	1	650
6.6.1	win	2022-12-14	19:12:18	19:30:49	1108926	5e6d07de9cf1952cdc94bf61	255644342	1	main_slash	11	advance_on_keypress_SLASH	14	stimuli_target_squarediamonds.svg	stimuli_distractor_trianglediamonds.svg	4	yes	57	0	527
6.6.1	win	2022-12-14	19:12:18	19:30:50	1110382	5e6d07de9cf1952cdc94bf61	255644342	1	main_slash	11	main_slash	15	stimuli_distractor_trianglediamonds.svg	stimuli_distractor_trianglediamonds.svg	33	no	53	0	289
6.6.1	win	2022-12-14	19:12:18	19:30:50	1110382	5e6d07de9cf1952cdc94bf61	255644342	1	main_slash	11	advance_on_keypress_SLASH	16	stimuli_distractor_trianglediamonds.svg	stimuli_distractor_trianglediamonds.svg	33	no	57	0	437
6.6.1	win	2022-12-14	19:12:18	19:30:52	1111854	5e6d07de9cf1952cdc94bf61	255644342	1	main_slash	11	main_slash	17	stimuli_target_circlediamonds.svg	stimuli_distractor_diamondtriangles.svg	6	yes	53	1	394
6.6.1	win	2022-12-14	19:12:18	19:30:52	1111854	5e6d07de9cf1952cdc94bf61	255644342	1	main_slash	11	advance_on_keypress_SLASH	18	stimuli_target_circlediamonds.svg	stimuli_distractor_diamondtriangles.svg	6	yes	57	0	474
6.6.1	win	2022-12-14	19:12:18	19:30:53	1113406	5e6d07de9cf1952cdc94bf61	255644342	1	main_slash	11	main_slash	19	stimuli_distractor_trianglediamonds.svg	stimuli_target_trianglecircles.svg	25	yes	53	1	446
6.6.1	win	2022-12-14	19:12:18	19:30:53	1113406	5e6d07de9cf1952cdc94bf61	255644342	1	main_slash	11	advance_on_keypress_SLASH	20	stimuli_distractor_trianglediamonds.svg	stimuli_target_trianglecircles.svg	25	yes	57	0	476
6.6.1	win	2022-12-14	19:12:18	19:30:55	1114908	5e6d07de9cf1952cdc94bf61	255644342	1	main_slash	11	main_slash	21	stimuli_distractor_trianglediamonds.svg	stimuli_distractor_diamondtriangles.svg	36	no	53	0	370
6.6.1	win	2022-12-14	19:12:18	19:30:55	1114908	5e6d07de9cf1952cdc94bf61	255644342	1	main_slash	11	advance_on_keypress_SLASH	22	stimuli_distractor_trianglediamonds.svg	stimuli_distractor_diamondtriangles.svg	36	no	57	0	480
6.6.1	win	2022-12-14	19:12:18	19:30:58	1118044	5e6d07de9cf1952cdc94bf61	255644342	1	main_slash	11	main_slash	23	stimuli_distractor_trianglediamonds.svg	stimuli_distractor_diamondtriangles.svg	35	no	0	1	2000
6.6.1	win	2022-12-14	19:12:18	19:30:58	1118044	5e6d07de9cf1952cdc94bf61	255644342	1	main_slash	11	advance_on_keypress_SLASH	24	stimuli_distractor_trianglediamonds.svg	stimuli_distractor_diamondtriangles.svg	35	no	57	0	418
6.6.1	win	2022-12-14	19:12:18	19:30:59	1119625	5e6d07de9cf1952cdc94bf61	255644342	1	main_slash	11	main_slash	25	stimuli_target_squarediamonds.svg	stimuli_distractor_diamondtriangles.svg	8	yes	53	1	504
6.6.1	win	2022-12-14	19:12:18	19:30:59	1119625	5e6d07de9cf1952cdc94bf61	255644342	1	main_slash	11	advance_on_keypress_SLASH	26	stimuli_target_squarediamonds.svg	stimuli_distractor_diamondtriangles.svg	8	yes	57	0	467
6.6.1	win	2022-12-14	19:12:18	19:31:01	1121182	5e6d07de9cf1952cdc94bf61	255644342	1	main_slash	11	main_slash	27	stimuli_distractor_trianglediamonds.svg	stimuli_target_diamondcircles.svg	27	yes	53	1	439
6.6.1	win	2022-12-14	19:12:18	19:31:01	1121182	5e6d07de9cf1952cdc94bf61	255644342	1	main_slash	11	advance_on_keypress_SLASH	28	stimuli_distractor_trianglediamonds.svg	stimuli_target_diamondcircles.svg	27	yes	57	0	437
6.6.1	win	2022-12-14	19:12:18	19:31:03	1122670	5e6d07de9cf1952cdc94bf61	255644342	1	main_slash	11	main_slash	29	stimuli_distractor_diamondtriangles.svg	stimuli_target_diamondcircles.svg	31	yes	53	1	410
6.6.1	win	2022-12-14	19:12:18	19:31:03	1122670	5e6d07de9cf1952cdc94bf61	255644342	1	main_slash	11	advance_on_keypress_SLASH	30	stimuli_distractor_diamondtriangles.svg	stimuli_target_diamondcircles.svg	31	yes	57	0	425
6.6.1	win	2022-12-14	19:12:18	19:31:05	1124654	5e6d07de9cf1952cdc94bf61	255644342	1	main_slash	11	main_slash	31	stimuli_distractor_trianglediamonds.svg	stimuli_target_trianglesquares.svg	26	yes	53	1	928
6.6.1	win	2022-12-14	19:12:18	19:31:05	1124654	5e6d07de9cf1952cdc94bf61	255644342	1	main_slash	11	advance_on_keypress_SLASH	32	stimuli_distractor_trianglediamonds.svg	stimuli_target_trianglesquares.svg	26	yes	57	0	538
6.6.1	win	2022-12-14	19:12:18	19:31:06	1126318	5e6d07de9cf1952cdc94bf61	255644342	1	main_slash	11	main_slash	33	stimuli_distractor_trianglediamonds.svg	stimuli_target_squarediamonds.svg	12	yes	53	1	492
6.6.1	win	2022-12-14	19:12:18	19:31:06	1126318	5e6d07de9cf1952cdc94bf61	255644342	1	main_slash	11	advance_on_keypress_SLASH	34	stimuli_distractor_trianglediamonds.svg	stimuli_target_squarediamonds.svg	12	yes	57	0	552
6.6.1	win	2022-12-14	19:12:18	19:31:08	1127982	5e6d07de9cf1952cdc94bf61	255644342	1	main_slash	11	main_slash	35	stimuli_target_trianglecircles.svg	stimuli_distractor_diamondtriangles.svg	21	yes	53	1	472
6.6.1	win	2022-12-14	19:12:18	19:31:08	1127982	5e6d07de9cf1952cdc94bf61	255644342	1	main_slash	11	advance_on_keypress_SLASH	36	stimuli_target_trianglecircles.svg	stimuli_distractor_diamondtriangles.svg	21	yes	57	0	421
6.6.1	win	2022-12-14	19:12:18	19:31:09	1129454	5e6d07de9cf1952cdc94bf61	255644342	1	main_slash	11	main_slash	37	stimuli_target_diamondcircles.svg	stimuli_distractor_trianglediamonds.svg	19	yes	53	1	411
6.6.1	win	2022-12-14	19:12:18	19:31:09	1129454	5e6d07de9cf1952cdc94bf61	255644342	1	main_slash	11	advance_on_keypress_SLASH	38	stimuli_target_diamondcircles.svg	stimuli_distractor_trianglediamonds.svg	19	yes	57	0	410
6.6.1	win	2022-12-14	19:12:18	19:31:11	1130910	5e6d07de9cf1952cdc94bf61	255644342	1	main_slash	11	main_slash	39	stimuli_distractor_trianglediamonds.svg	stimuli_target_squaretriangles.svg	11	yes	53	1	417
6.6.1	win	2022-12-14	19:12:18	19:31:11	1130910	5e6d07de9cf1952cdc94bf61	255644342	1	main_slash	11	advance_on_keypress_SLASH	40	stimuli_distractor_trianglediamonds.svg	stimuli_target_squaretriangles.svg	11	yes	57	0	351
6.6.1	win	2022-12-14	19:12:18	19:31:12	1132318	5e6d07de9cf1952cdc94bf61	255644342	1	main_slash	11	main_slash	41	stimuli_target_circletriangles.svg	stimuli_distractor_diamondtriangles.svg	5	yes	53	1	408
6.6.1	win	2022-12-14	19:12:18	19:31:12	1132318	5e6d07de9cf1952cdc94bf61	255644342	1	main_slash	11	advance_on_keypress_SLASH	42	stimuli_target_circletriangles.svg	stimuli_distractor_diamondtriangles.svg	5	yes	57	0	391
6.6.1	win	2022-12-14	19:12:18	19:31:13	1133598	5e6d07de9cf1952cdc94bf61	255644342	1	main_slash	11	main_slash	43	stimuli_distractor_diamondtriangles.svg	stimuli_target_squarediamonds.svg	16	yes	53	1	255
6.6.1	win	2022-12-14	19:12:18	19:31:13	1133598	5e6d07de9cf1952cdc94bf61	255644342	1	main_slash	11	advance_on_keypress_SLASH	44	stimuli_distractor_diamondtriangles.svg	stimuli_target_squarediamonds.svg	16	yes	57	0	452
6.6.1	win	2022-12-14	19:12:18	19:31:15	1135006	5e6d07de9cf1952cdc94bf61	255644342	1	main_slash	11	main_slash	45	stimuli_distractor_diamondtriangles.svg	stimuli_distractor_diamondtriangles.svg	40	no	53	0	313
6.6.1	win	2022-12-14	19:12:18	19:31:15	1135006	5e6d07de9cf1952cdc94bf61	255644342	1	main_slash	11	advance_on_keypress_SLASH	46	stimuli_distractor_diamondtriangles.svg	stimuli_distractor_diamondtriangles.svg	40	no	57	0	459
6.6.1	win	2022-12-14	19:12:18	19:31:17	1136654	5e6d07de9cf1952cdc94bf61	255644342	1	main_slash	11	main_slash	47	stimuli_distractor_diamondtriangles.svg	stimuli_target_diamondsquares.svg	32	yes	53	1	544
6.6.1	win	2022-12-14	19:12:18	19:31:17	1136654	5e6d07de9cf1952cdc94bf61	255644342	1	main_slash	11	advance_on_keypress_SLASH	48	stimuli_distractor_diamondtriangles.svg	stimuli_target_diamondsquares.svg	32	yes	57	0	58
6.6.1	win	2022-12-14	19:12:18	19:31:19	1139344	5e6d07de9cf1952cdc94bf61	255644342	1	main_slash	11	main_slash	49	stimuli_distractor_trianglediamonds.svg	stimuli_distractor_trianglediamonds.svg	34	no	0	1	2000
6.6.1	win	2022-12-14	19:12:18	19:31:19	1139344	5e6d07de9cf1952cdc94bf61	255644342	1	main_slash	11	advance_on_keypress_SLASH	50	stimuli_distractor_trianglediamonds.svg	stimuli_distractor_trianglediamonds.svg	34	no	57	0	510
6.6.1	win	2022-12-14	19:12:18	19:31:21	1141102	5e6d07de9cf1952cdc94bf61	255644342	1	main_slash	11	main_slash	51	stimuli_distractor_diamondtriangles.svg	stimuli_target_squaretriangles.svg	15	yes	53	1	609
6.6.1	win	2022-12-14	19:12:18	19:31:21	1141102	5e6d07de9cf1952cdc94bf61	255644342	1	main_slash	11	advance_on_keypress_SLASH	52	stimuli_distractor_diamondtriangles.svg	stimuli_target_squaretriangles.svg	15	yes	57	0	728
6.6.1	win	2022-12-14	19:12:18	19:31:23	1142782	5e6d07de9cf1952cdc94bf61	255644342	1	main_slash	11	main_slash	53	stimuli_distractor_diamondtriangles.svg	stimuli_target_trianglesquares.svg	30	yes	53	1	322
6.6.1	win	2022-12-14	19:12:18	19:31:23	1142782	5e6d07de9cf1952cdc94bf61	255644342	1	main_slash	11	advance_on_keypress_SLASH	54	stimuli_distractor_diamondtriangles.svg	stimuli_target_trianglesquares.svg	30	yes	57	0	565
6.6.1	win	2022-12-14	19:12:18	19:31:25	1144638	5e6d07de9cf1952cdc94bf61	255644342	1	main_slash	11	main_slash	55	stimuli_distractor_trianglediamonds.svg	stimuli_target_diamondsquares.svg	28	yes	53	1	645
6.6.1	win	2022-12-14	19:12:18	19:31:25	1144638	5e6d07de9cf1952cdc94bf61	255644342	1	main_slash	11	advance_on_keypress_SLASH	56	stimuli_distractor_trianglediamonds.svg	stimuli_target_diamondsquares.svg	28	yes	57	0	507
6.6.1	win	2022-12-14	19:12:18	19:31:26	1146350	5e6d07de9cf1952cdc94bf61	255644342	1	main_slash	11	main_slash	57	stimuli_target_squaretriangles.svg	stimuli_distractor_diamondtriangles.svg	7	yes	53	1	573
6.6.1	win	2022-12-14	19:12:18	19:31:26	1146350	5e6d07de9cf1952cdc94bf61	255644342	1	main_slash	11	advance_on_keypress_SLASH	58	stimuli_target_squaretriangles.svg	stimuli_distractor_diamondtriangles.svg	7	yes	57	0	550
6.6.1	win	2022-12-14	19:12:18	19:31:28	1147886	5e6d07de9cf1952cdc94bf61	255644342	1	main_slash	11	main_slash	59	stimuli_target_circlediamonds.svg	stimuli_distractor_trianglediamonds.svg	2	yes	53	1	343
6.6.1	win	2022-12-14	19:12:18	19:31:28	1147886	5e6d07de9cf1952cdc94bf61	255644342	1	main_slash	11	advance_on_keypress_SLASH	60	stimuli_target_circlediamonds.svg	stimuli_distractor_trianglediamonds.svg	2	yes	57	0	537
6.6.1	win	2022-12-14	19:12:18	19:31:29	1149471	5e6d07de9cf1952cdc94bf61	255644342	1	main_slash	11	main_slash	61	stimuli_distractor_diamondtriangles.svg	stimuli_target_trianglecircles.svg	29	yes	53	1	410
6.6.1	win	2022-12-14	19:12:18	19:31:29	1149471	5e6d07de9cf1952cdc94bf61	255644342	1	main_slash	11	advance_on_keypress_SLASH	62	stimuli_distractor_diamondtriangles.svg	stimuli_target_trianglecircles.svg	29	yes	57	0	489
6.6.1	win	2022-12-14	19:12:18	19:31:31	1150814	5e6d07de9cf1952cdc94bf61	255644342	1	main_slash	11	main_slash	63	stimuli_distractor_trianglediamonds.svg	stimuli_target_circletriangles.svg	9	yes	53	1	221
6.6.1	win	2022-12-14	19:12:18	19:31:31	1150814	5e6d07de9cf1952cdc94bf61	255644342	1	main_slash	11	advance_on_keypress_SLASH	64	stimuli_distractor_trianglediamonds.svg	stimuli_target_circletriangles.svg	9	yes	57	0	659
6.6.1	win	2022-12-14	19:12:18	19:31:32	1152430	5e6d07de9cf1952cdc94bf61	255644342	1	main_slash	11	main_slash	65	stimuli_target_squaretriangles.svg	stimuli_distractor_trianglediamonds.svg	3	yes	53	1	320
6.6.1	win	2022-12-14	19:12:18	19:31:32	1152430	5e6d07de9cf1952cdc94bf61	255644342	1	main_slash	11	advance_on_keypress_SLASH	66	stimuli_target_squaretriangles.svg	stimuli_distractor_trianglediamonds.svg	3	yes	57	0	563
6.6.1	win	2022-12-14	19:12:18	19:31:34	1153870	5e6d07de9cf1952cdc94bf61	255644342	1	main_slash	11	main_slash	67	stimuli_target_trianglesquares.svg	stimuli_distractor_diamondtriangles.svg	22	yes	53	1	227
6.6.1	win	2022-12-14	19:12:18	19:31:34	1153870	5e6d07de9cf1952cdc94bf61	255644342	1	main_slash	11	advance_on_keypress_SLASH	68	stimuli_target_trianglesquares.svg	stimuli_distractor_diamondtriangles.svg	22	yes	57	0	793
6.6.1	win	2022-12-14	19:12:18	19:31:36	1155758	5e6d07de9cf1952cdc94bf61	255644342	1	main_slash	11	main_slash	69	stimuli_distractor_diamondtriangles.svg	stimuli_target_circletriangles.svg	13	yes	53	1	465
6.6.1	win	2022-12-14	19:12:18	19:31:36	1155758	5e6d07de9cf1952cdc94bf61	255644342	1	main_slash	11	advance_on_keypress_SLASH	70	stimuli_distractor_diamondtriangles.svg	stimuli_target_circletriangles.svg	13	yes	57	0	637
6.6.1	win	2022-12-14	19:12:18	19:31:38	1157646	5e6d07de9cf1952cdc94bf61	255644342	1	main_slash	11	main_slash	71	stimuli_target_diamondcircles.svg	stimuli_distractor_diamondtriangles.svg	23	yes	53	1	603
6.6.1	win	2022-12-14	19:12:18	19:31:38	1157646	5e6d07de9cf1952cdc94bf61	255644342	1	main_slash	11	advance_on_keypress_SLASH	72	stimuli_target_diamondcircles.svg	stimuli_distractor_diamondtriangles.svg	23	yes	57	0	642
6.6.1	win	2022-12-14	19:12:18	19:31:41	1160927	5e6d07de9cf1952cdc94bf61	255644342	1	main_slash	11	main_slash	73	stimuli_target_trianglesquares.svg	stimuli_distractor_trianglediamonds.svg	18	yes	0	0	2000
6.6.1	win	2022-12-14	19:12:18	19:31:41	1160927	5e6d07de9cf1952cdc94bf61	255644342	1	main_slash	11	advance_on_keypress_SLASH	74	stimuli_target_trianglesquares.svg	stimuli_distractor_trianglediamonds.svg	18	yes	57	0	319
6.6.1	win	2022-12-14	19:12:18	19:31:42	1162408	5e6d07de9cf1952cdc94bf61	255644342	1	main_slash	11	main_slash	75	stimuli_target_diamondsquares.svg	stimuli_distractor_diamondtriangles.svg	24	yes	53	1	505
6.6.1	win	2022-12-14	19:12:18	19:31:42	1162408	5e6d07de9cf1952cdc94bf61	255644342	1	main_slash	11	advance_on_keypress_SLASH	76	stimuli_target_diamondsquares.svg	stimuli_distractor_diamondtriangles.svg	24	yes	57	0	531
6.6.1	win	2022-12-14	19:12:18	19:31:44	1163975	5e6d07de9cf1952cdc94bf61	255644342	1	main_slash	11	main_slash	77	stimuli_distractor_diamondtriangles.svg	stimuli_distractor_trianglediamonds.svg	37	no	53	0	374
6.6.1	win	2022-12-14	19:12:18	19:31:44	1163975	5e6d07de9cf1952cdc94bf61	255644342	1	main_slash	11	advance_on_keypress_SLASH	78	stimuli_distractor_diamondtriangles.svg	stimuli_distractor_trianglediamonds.svg	37	no	57	0	549
6.6.1	win	2022-12-14	19:12:18	19:31:47	1167177	5e6d07de9cf1952cdc94bf61	255644342	1	main_slash	11	main_slash	79	stimuli_distractor_diamondtriangles.svg	stimuli_distractor_trianglediamonds.svg	38	no	0	1	2000
6.6.1	win	2022-12-14	19:12:18	19:31:47	1167177	5e6d07de9cf1952cdc94bf61	255644342	1	main_slash	11	advance_on_keypress_SLASH	80	stimuli_distractor_diamondtriangles.svg	stimuli_distractor_trianglediamonds.svg	38	no	57	0	581
6.6.1	win	2022-12-14	19:12:18	19:31:49	1168942	5e6d07de9cf1952cdc94bf61	255644342	1	main_slash	11	main_slash	81	stimuli_distractor_diamondtriangles.svg	stimuli_target_squarediamonds.svg	16	yes	53	1	532
6.6.1	win	2022-12-14	19:12:18	19:31:49	1168942	5e6d07de9cf1952cdc94bf61	255644342	1	main_slash	11	advance_on_keypress_SLASH	82	stimuli_distractor_diamondtriangles.svg	stimuli_target_squarediamonds.svg	16	yes	57	0	702
6.6.1	win	2022-12-14	19:12:18	19:31:51	1171358	5e6d07de9cf1952cdc94bf61	255644342	1	main_slash	11	main_slash	83	stimuli_distractor_trianglediamonds.svg	stimuli_target_diamondsquares.svg	28	yes	53	1	1065
6.6.1	win	2022-12-14	19:12:18	19:31:51	1171358	5e6d07de9cf1952cdc94bf61	255644342	1	main_slash	11	advance_on_keypress_SLASH	84	stimuli_distractor_trianglediamonds.svg	stimuli_target_diamondsquares.svg	28	yes	57	0	477
6.6.1	win	2022-12-14	19:12:18	19:31:53	1173006	5e6d07de9cf1952cdc94bf61	255644342	1	main_slash	11	main_slash	85	stimuli_distractor_trianglediamonds.svg	stimuli_target_squaretriangles.svg	11	yes	53	1	529
6.6.1	win	2022-12-14	19:12:18	19:31:53	1173006	5e6d07de9cf1952cdc94bf61	255644342	1	main_slash	11	advance_on_keypress_SLASH	86	stimuli_distractor_trianglediamonds.svg	stimuli_target_squaretriangles.svg	11	yes	57	0	539
6.6.1	win	2022-12-14	19:12:18	19:31:56	1176194	5e6d07de9cf1952cdc94bf61	255644342	1	main_slash	11	main_slash	87	stimuli_distractor_diamondtriangles.svg	stimuli_distractor_diamondtriangles.svg	40	no	0	1	2000
6.6.1	win	2022-12-14	19:12:18	19:31:56	1176194	5e6d07de9cf1952cdc94bf61	255644342	1	main_slash	11	advance_on_keypress_SLASH	88	stimuli_distractor_diamondtriangles.svg	stimuli_distractor_diamondtriangles.svg	40	no	57	0	316
6.6.1	win	2022-12-14	19:12:18	19:31:58	1177647	5e6d07de9cf1952cdc94bf61	255644342	1	main_slash	11	main_slash	89	stimuli_target_squarediamonds.svg	stimuli_distractor_trianglediamonds.svg	4	yes	53	1	486
6.6.1	win	2022-12-14	19:12:18	19:31:58	1177647	5e6d07de9cf1952cdc94bf61	255644342	1	main_slash	11	advance_on_keypress_SLASH	90	stimuli_target_squarediamonds.svg	stimuli_distractor_trianglediamonds.svg	4	yes	57	0	546
6.6.1	win	2022-12-14	19:12:18	19:31:59	1179278	5e6d07de9cf1952cdc94bf61	255644342	1	main_slash	11	main_slash	91	stimuli_target_squaretriangles.svg	stimuli_distractor_diamondtriangles.svg	7	yes	53	1	434
6.6.1	win	2022-12-14	19:12:18	19:31:59	1179278	5e6d07de9cf1952cdc94bf61	255644342	1	main_slash	11	advance_on_keypress_SLASH	92	stimuli_target_squaretriangles.svg	stimuli_distractor_diamondtriangles.svg	7	yes	57	0	656
6.6.1	win	2022-12-14	19:12:18	19:32:01	1180894	5e6d07de9cf1952cdc94bf61	255644342	1	main_slash	11	main_slash	93	stimuli_target_circletriangles.svg	stimuli_distractor_diamondtriangles.svg	5	yes	53	1	317
6.6.1	win	2022-12-14	19:12:18	19:32:01	1180894	5e6d07de9cf1952cdc94bf61	255644342	1	main_slash	11	advance_on_keypress_SLASH	94	stimuli_target_circletriangles.svg	stimuli_distractor_diamondtriangles.svg	5	yes	57	0	464
6.6.1	win	2022-12-14	19:12:18	19:32:02	1182446	5e6d07de9cf1952cdc94bf61	255644342	1	main_slash	11	main_slash	95	stimuli_distractor_diamondtriangles.svg	stimuli_target_circlediamonds.svg	14	yes	53	1	436
6.6.1	win	2022-12-14	19:12:18	19:32:02	1182446	5e6d07de9cf1952cdc94bf61	255644342	1	main_slash	11	advance_on_keypress_SLASH	96	stimuli_distractor_diamondtriangles.svg	stimuli_target_circlediamonds.svg	14	yes	57	0	402
6.6.1	win	2022-12-14	19:12:18	19:32:05	1185494	5e6d07de9cf1952cdc94bf61	255644342	1	main_slash	11	main_slash	97	stimuli_distractor_diamondtriangles.svg	stimuli_distractor_diamondtriangles.svg	39	no	0	1	2000
6.6.1	win	2022-12-14	19:12:18	19:32:05	1185494	5e6d07de9cf1952cdc94bf61	255644342	1	main_slash	11	advance_on_keypress_SLASH	98	stimuli_distractor_diamondtriangles.svg	stimuli_distractor_diamondtriangles.svg	39	no	57	0	360
6.6.1	win	2022-12-14	19:12:18	19:32:07	1186974	5e6d07de9cf1952cdc94bf61	255644342	1	main_slash	11	main_slash	99	stimuli_distractor_diamondtriangles.svg	stimuli_distractor_trianglediamonds.svg	38	no	53	0	480
6.6.1	win	2022-12-14	19:12:18	19:32:07	1186974	5e6d07de9cf1952cdc94bf61	255644342	1	main_slash	11	advance_on_keypress_SLASH	100	stimuli_distractor_diamondtriangles.svg	stimuli_distractor_trianglediamonds.svg	38	no	57	0	764
6.6.1	win	2022-12-14	19:12:18	19:32:10	1190394	5e6d07de9cf1952cdc94bf61	255644342	1	main_slash	11	main_slash	101	stimuli_distractor_trianglediamonds.svg	stimuli_distractor_trianglediamonds.svg	34	no	0	1	2000
6.6.1	win	2022-12-14	19:12:18	19:32:10	1190394	5e6d07de9cf1952cdc94bf61	255644342	1	main_slash	11	advance_on_keypress_SLASH	102	stimuli_distractor_trianglediamonds.svg	stimuli_distractor_trianglediamonds.svg	34	no	57	0	484
6.6.1	win	2022-12-14	19:12:18	19:32:12	1191918	5e6d07de9cf1952cdc94bf61	255644342	1	main_slash	11	main_slash	103	stimuli_distractor_diamondtriangles.svg	stimuli_target_circletriangles.svg	13	yes	53	1	391
6.6.1	win	2022-12-14	19:12:18	19:32:12	1191918	5e6d07de9cf1952cdc94bf61	255644342	1	main_slash	11	advance_on_keypress_SLASH	104	stimuli_distractor_diamondtriangles.svg	stimuli_target_circletriangles.svg	13	yes	57	0	567
6.6.1	win	2022-12-14	19:12:18	19:32:14	1193823	5e6d07de9cf1952cdc94bf61	255644342	1	main_slash	11	main_slash	105	stimuli_distractor_trianglediamonds.svg	stimuli_target_trianglesquares.svg	26	yes	53	1	695
6.6.1	win	2022-12-14	19:12:18	19:32:14	1193823	5e6d07de9cf1952cdc94bf61	255644342	1	main_slash	11	advance_on_keypress_SLASH	106	stimuli_distractor_trianglediamonds.svg	stimuli_target_trianglesquares.svg	26	yes	57	0	522
6.6.1	win	2022-12-14	19:12:18	19:32:15	1195438	5e6d07de9cf1952cdc94bf61	255644342	1	main_slash	11	main_slash	107	stimuli_target_trianglecircles.svg	stimuli_distractor_diamondtriangles.svg	21	yes	53	1	444
6.6.1	win	2022-12-14	19:12:18	19:32:15	1195438	5e6d07de9cf1952cdc94bf61	255644342	1	main_slash	11	advance_on_keypress_SLASH	108	stimuli_target_trianglecircles.svg	stimuli_distractor_diamondtriangles.svg	21	yes	57	0	474
6.6.1	win	2022-12-14	19:12:18	19:32:17	1197630	5e6d07de9cf1952cdc94bf61	255644342	1	main_slash	11	main_slash	109	stimuli_distractor_trianglediamonds.svg	stimuli_target_squarediamonds.svg	12	yes	53	1	1086
6.6.1	win	2022-12-14	19:12:18	19:32:17	1197630	5e6d07de9cf1952cdc94bf61	255644342	1	main_slash	11	advance_on_keypress_SLASH	110	stimuli_distractor_trianglediamonds.svg	stimuli_target_squarediamonds.svg	12	yes	57	0	562
6.6.1	win	2022-12-14	19:12:18	19:32:19	1199247	5e6d07de9cf1952cdc94bf61	255644342	1	main_slash	11	main_slash	111	stimuli_target_diamondsquares.svg	stimuli_distractor_trianglediamonds.svg	20	yes	53	1	402
6.6.1	win	2022-12-14	19:12:18	19:32:19	1199247	5e6d07de9cf1952cdc94bf61	255644342	1	main_slash	11	advance_on_keypress_SLASH	112	stimuli_target_diamondsquares.svg	stimuli_distractor_trianglediamonds.svg	20	yes	57	0	562
6.6.1	win	2022-12-14	19:12:18	19:32:21	1200943	5e6d07de9cf1952cdc94bf61	255644342	1	main_slash	11	main_slash	113	stimuli_target_squaretriangles.svg	stimuli_distractor_trianglediamonds.svg	3	yes	53	1	498
6.6.1	win	2022-12-14	19:12:18	19:32:21	1200943	5e6d07de9cf1952cdc94bf61	255644342	1	main_slash	11	advance_on_keypress_SLASH	114	stimuli_target_squaretriangles.svg	stimuli_distractor_trianglediamonds.svg	3	yes	57	0	14
6.6.1	win	2022-12-14	19:12:18	19:32:22	1202334	5e6d07de9cf1952cdc94bf61	255644342	1	main_slash	11	main_slash	115	stimuli_target_trianglesquares.svg	stimuli_distractor_diamondtriangles.svg	22	yes	53	1	724
6.6.1	win	2022-12-14	19:12:18	19:32:22	1202334	5e6d07de9cf1952cdc94bf61	255644342	1	main_slash	11	advance_on_keypress_SLASH	116	stimuli_target_trianglesquares.svg	stimuli_distractor_diamondtriangles.svg	22	yes	57	0	678
6.6.1	win	2022-12-14	19:12:18	19:32:24	1203982	5e6d07de9cf1952cdc94bf61	255644342	1	main_slash	11	main_slash	117	stimuli_target_diamondcircles.svg	stimuli_distractor_diamondtriangles.svg	23	yes	53	1	338
6.6.1	win	2022-12-14	19:12:18	19:32:24	1203982	5e6d07de9cf1952cdc94bf61	255644342	1	main_slash	11	advance_on_keypress_SLASH	118	stimuli_target_diamondcircles.svg	stimuli_distractor_diamondtriangles.svg	23	yes	57	0	868
6.6.1	win	2022-12-14	19:12:18	19:32:26	1205951	5e6d07de9cf1952cdc94bf61	255644342	1	main_slash	11	main_slash	119	stimuli_distractor_diamondtriangles.svg	stimuli_target_diamondsquares.svg	32	yes	53	1	456
6.6.1	win	2022-12-14	19:12:18	19:32:26	1205951	5e6d07de9cf1952cdc94bf61	255644342	1	main_slash	11	advance_on_keypress_SLASH	120	stimuli_distractor_diamondtriangles.svg	stimuli_target_diamondsquares.svg	32	yes	57	0	1029
6.6.1	win	2022-12-14	19:12:18	19:32:29	1209627	5e6d07de9cf1952cdc94bf61	255644342	1	main_slash	11	main_slash	121	stimuli_distractor_trianglediamonds.svg	stimuli_distractor_trianglediamonds.svg	33	no	0	1	2000
6.6.1	win	2022-12-14	19:12:18	19:32:29	1209627	5e6d07de9cf1952cdc94bf61	255644342	1	main_slash	11	advance_on_keypress_SLASH	122	stimuli_distractor_trianglediamonds.svg	stimuli_distractor_trianglediamonds.svg	33	no	57	0	626
6.6.1	win	2022-12-14	19:12:18	19:32:31	1211311	5e6d07de9cf1952cdc94bf61	255644342	1	main_slash	11	main_slash	123	stimuli_target_trianglecircles.svg	stimuli_distractor_trianglediamonds.svg	17	yes	53	1	416
6.6.1	win	2022-12-14	19:12:18	19:32:31	1211311	5e6d07de9cf1952cdc94bf61	255644342	1	main_slash	11	advance_on_keypress_SLASH	124	stimuli_target_trianglecircles.svg	stimuli_distractor_trianglediamonds.svg	17	yes	57	0	527
6.6.1	win	2022-12-14	19:12:18	19:32:34	1214478	5e6d07de9cf1952cdc94bf61	255644342	1	main_slash	11	main_slash	125	stimuli_distractor_diamondtriangles.svg	stimuli_distractor_trianglediamonds.svg	37	no	0	1	2000
6.6.1	win	2022-12-14	19:12:18	19:32:34	1214478	5e6d07de9cf1952cdc94bf61	255644342	1	main_slash	11	advance_on_keypress_SLASH	126	stimuli_distractor_diamondtriangles.svg	stimuli_distractor_trianglediamonds.svg	37	no	57	0	448
6.6.1	win	2022-12-14	19:12:18	19:32:36	1216092	5e6d07de9cf1952cdc94bf61	255644342	1	main_slash	11	main_slash	127	stimuli_target_trianglesquares.svg	stimuli_distractor_trianglediamonds.svg	18	yes	53	1	504
6.6.1	win	2022-12-14	19:12:18	19:32:36	1216092	5e6d07de9cf1952cdc94bf61	255644342	1	main_slash	11	advance_on_keypress_SLASH	128	stimuli_target_trianglesquares.svg	stimuli_distractor_trianglediamonds.svg	18	yes	57	0	544
6.6.1	win	2022-12-14	19:12:18	19:32:38	1218047	5e6d07de9cf1952cdc94bf61	255644342	1	main_slash	11	main_slash	129	stimuli_distractor_diamondtriangles.svg	stimuli_target_squaretriangles.svg	15	yes	53	1	769
6.6.1	win	2022-12-14	19:12:18	19:32:38	1218047	5e6d07de9cf1952cdc94bf61	255644342	1	main_slash	11	advance_on_keypress_SLASH	130	stimuli_distractor_diamondtriangles.svg	stimuli_target_squaretriangles.svg	15	yes	57	0	530
6.6.1	win	2022-12-14	19:12:18	19:32:40	1219727	5e6d07de9cf1952cdc94bf61	255644342	1	main_slash	11	main_slash	131	stimuli_distractor_diamondtriangles.svg	stimuli_target_trianglecircles.svg	29	yes	53	1	499
6.6.1	win	2022-12-14	19:12:18	19:32:40	1219727	5e6d07de9cf1952cdc94bf61	255644342	1	main_slash	11	advance_on_keypress_SLASH	132	stimuli_distractor_diamondtriangles.svg	stimuli_target_trianglecircles.svg	29	yes	57	0	478
6.6.1	win	2022-12-14	19:12:18	19:32:41	1221199	5e6d07de9cf1952cdc94bf61	255644342	1	main_slash	11	main_slash	133	stimuli_distractor_trianglediamonds.svg	stimuli_target_trianglecircles.svg	25	yes	53	1	354
6.6.1	win	2022-12-14	19:12:18	19:32:41	1221199	5e6d07de9cf1952cdc94bf61	255644342	1	main_slash	11	advance_on_keypress_SLASH	134	stimuli_distractor_trianglediamonds.svg	stimuli_target_trianglecircles.svg	25	yes	57	0	452
6.6.1	win	2022-12-14	19:12:18	19:32:42	1222607	5e6d07de9cf1952cdc94bf61	255644342	1	main_slash	11	main_slash	135	stimuli_distractor_diamondtriangles.svg	stimuli_target_diamondcircles.svg	31	yes	53	1	312
6.6.1	win	2022-12-14	19:12:18	19:32:42	1222607	5e6d07de9cf1952cdc94bf61	255644342	1	main_slash	11	advance_on_keypress_SLASH	136	stimuli_distractor_diamondtriangles.svg	stimuli_target_diamondcircles.svg	31	yes	57	0	507
6.6.1	win	2022-12-14	19:12:18	19:32:44	1224095	5e6d07de9cf1952cdc94bf61	255644342	1	main_slash	11	main_slash	137	stimuli_distractor_trianglediamonds.svg	stimuli_target_circlediamonds.svg	10	yes	53	1	334
6.6.1	win	2022-12-14	19:12:18	19:32:44	1224095	5e6d07de9cf1952cdc94bf61	255644342	1	main_slash	11	advance_on_keypress_SLASH	138	stimuli_distractor_trianglediamonds.svg	stimuli_target_circlediamonds.svg	10	yes	57	0	416
6.6.1	win	2022-12-14	19:12:18	19:32:45	1225487	5e6d07de9cf1952cdc94bf61	255644342	1	main_slash	11	main_slash	139	stimuli_distractor_trianglediamonds.svg	stimuli_distractor_diamondtriangles.svg	36	no	53	0	325
6.6.1	win	2022-12-14	19:12:18	19:32:45	1225487	5e6d07de9cf1952cdc94bf61	255644342	1	main_slash	11	advance_on_keypress_SLASH	140	stimuli_distractor_trianglediamonds.svg	stimuli_distractor_diamondtriangles.svg	36	no	57	0	504
6.6.1	win	2022-12-14	19:12:18	19:32:47	1226943	5e6d07de9cf1952cdc94bf61	255644342	1	main_slash	11	main_slash	141	stimuli_target_diamondcircles.svg	stimuli_distractor_trianglediamonds.svg	19	yes	53	1	315
6.6.1	win	2022-12-14	19:12:18	19:32:47	1226943	5e6d07de9cf1952cdc94bf61	255644342	1	main_slash	11	advance_on_keypress_SLASH	142	stimuli_target_diamondcircles.svg	stimuli_distractor_trianglediamonds.svg	19	yes	57	0	462
6.6.1	win	2022-12-14	19:12:18	19:32:48	1228399	5e6d07de9cf1952cdc94bf61	255644342	1	main_slash	11	main_slash	143	stimuli_target_squarediamonds.svg	stimuli_distractor_diamondtriangles.svg	8	yes	53	1	337
6.6.1	win	2022-12-14	19:12:18	19:32:48	1228399	5e6d07de9cf1952cdc94bf61	255644342	1	main_slash	11	advance_on_keypress_SLASH	144	stimuli_target_squarediamonds.svg	stimuli_distractor_diamondtriangles.svg	8	yes	57	0	611
6.6.1	win	2022-12-14	19:12:18	19:32:50	1229982	5e6d07de9cf1952cdc94bf61	255644342	1	main_slash	11	main_slash	145	stimuli_distractor_diamondtriangles.svg	stimuli_target_trianglesquares.svg	30	yes	53	1	321
6.6.1	win	2022-12-14	19:12:18	19:32:50	1229982	5e6d07de9cf1952cdc94bf61	255644342	1	main_slash	11	advance_on_keypress_SLASH	146	stimuli_distractor_diamondtriangles.svg	stimuli_target_trianglesquares.svg	30	yes	57	0	516
6.6.1	win	2022-12-14	19:12:18	19:32:51	1231583	5e6d07de9cf1952cdc94bf61	255644342	1	main_slash	11	main_slash	147	stimuli_distractor_trianglediamonds.svg	stimuli_distractor_diamondtriangles.svg	35	no	53	0	438
6.6.1	win	2022-12-14	19:12:18	19:32:51	1231583	5e6d07de9cf1952cdc94bf61	255644342	1	main_slash	11	advance_on_keypress_SLASH	148	stimuli_distractor_trianglediamonds.svg	stimuli_distractor_diamondtriangles.svg	35	no	57	0	484
6.6.1	win	2022-12-14	19:12:18	19:32:53	1233007	5e6d07de9cf1952cdc94bf61	255644342	1	main_slash	11	main_slash	149	stimuli_distractor_trianglediamonds.svg	stimuli_target_circletriangles.svg	9	yes	53	1	295
6.6.1	win	2022-12-14	19:12:18	19:32:53	1233007	5e6d07de9cf1952cdc94bf61	255644342	1	main_slash	11	advance_on_keypress_SLASH	150	stimuli_distractor_trianglediamonds.svg	stimuli_target_circletriangles.svg	9	yes	57	0	523
6.6.1	win	2022-12-14	19:12:18	19:32:54	1234623	5e6d07de9cf1952cdc94bf61	255644342	1	main_slash	11	main_slash	151	stimuli_target_diamondsquares.svg	stimuli_distractor_diamondtriangles.svg	24	yes	53	1	445
6.6.1	win	2022-12-14	19:12:18	19:32:54	1234623	5e6d07de9cf1952cdc94bf61	255644342	1	main_slash	11	advance_on_keypress_SLASH	152	stimuli_target_diamondsquares.svg	stimuli_distractor_diamondtriangles.svg	24	yes	57	0	459
6.6.1	win	2022-12-14	19:12:18	19:32:56	1236207	5e6d07de9cf1952cdc94bf61	255644342	1	main_slash	11	main_slash	153	stimuli_distractor_trianglediamonds.svg	stimuli_target_diamondcircles.svg	27	yes	53	1	479
6.6.1	win	2022-12-14	19:12:18	19:32:56	1236207	5e6d07de9cf1952cdc94bf61	255644342	1	main_slash	11	advance_on_keypress_SLASH	154	stimuli_distractor_trianglediamonds.svg	stimuli_target_diamondcircles.svg	27	yes	57	0	443
6.6.1	win	2022-12-14	19:12:18	19:32:58	1237647	5e6d07de9cf1952cdc94bf61	255644342	1	main_slash	11	main_slash	155	stimuli_target_circlediamonds.svg	stimuli_distractor_trianglediamonds.svg	2	yes	53	1	352
6.6.1	win	2022-12-14	19:12:18	19:32:58	1237647	5e6d07de9cf1952cdc94bf61	255644342	1	main_slash	11	advance_on_keypress_SLASH	156	stimuli_target_circlediamonds.svg	stimuli_distractor_trianglediamonds.svg	2	yes	57	0	449
6.6.1	win	2022-12-14	19:12:18	19:32:59	1239071	5e6d07de9cf1952cdc94bf61	255644342	1	main_slash	11	main_slash	157	stimuli_target_circletriangles.svg	stimuli_distractor_trianglediamonds.svg	1	yes	53	1	326
6.6.1	win	2022-12-14	19:12:18	19:32:59	1239071	5e6d07de9cf1952cdc94bf61	255644342	1	main_slash	11	advance_on_keypress_SLASH	158	stimuli_target_circletriangles.svg	stimuli_distractor_trianglediamonds.svg	1	yes	57	0	409
6.6.1	win	2022-12-14	19:12:18	19:33:00	1240431	5e6d07de9cf1952cdc94bf61	255644342	1	main_slash	11	main_slash	159	stimuli_target_circlediamonds.svg	stimuli_distractor_diamondtriangles.svg	6	yes	53	1	319
6.6.1	win	2022-12-14	19:12:18	19:33:00	1240431	5e6d07de9cf1952cdc94bf61	255644342	1	main_slash	11	advance_on_keypress_SLASH	160	stimuli_target_circlediamonds.svg	stimuli_distractor_diamondtriangles.svg	6	yes	57	0	482