build	computer.platform	date	time	timestamp	time_elapsed_ms	subject	group	session	blockcode	blocknum	trialcode	trialnum	stimulus_left	stimulus_right	stim_index	target_present	response	correct	latency
6.6.1	win	2022-12-16	11:21:11	11:24:34	202661	5e6ef5fbf14d264ae2ef3867	993959109	1	practice_slash	5	practice_slash	1	stimuli_distractor_trianglediamonds.svg	stimuli_distractor_diamondtriangles.svg	16	no	53	0	1432
6.6.1	win	2022-12-16	11:21:11	11:24:34	202661	5e6ef5fbf14d264ae2ef3867	993959109	1	practice_slash	5	advance_on_keypress_SLASH	2	stimuli_distractor_trianglediamonds.svg	stimuli_distractor_diamondtriangles.svg	16	no	57	0	1249
6.6.1	win	2022-12-16	11:21:11	11:24:39	207536	5e6ef5fbf14d264ae2ef3867	993959109	1	practice_slash	5	practice_slash	3	stimuli_target_diamondsquares.svg	stimuli_distractor_trianglediamonds.svg	6	yes	0	0	2000
6.6.1	win	2022-12-16	11:21:11	11:24:39	207536	5e6ef5fbf14d264ae2ef3867	993959109	1	practice_slash	5	advance_on_keypress_SLASH	4	stimuli_target_diamondsquares.svg	stimuli_distractor_trianglediamonds.svg	6	yes	57	0	986
6.6.1	win	2022-12-16	11:21:11	11:24:43	210908	5e6ef5fbf14d264ae2ef3867	993959109	1	practice_slash	5	practice_slash	5	stimuli_target_circlediamonds.svg	stimuli_distractor_diamondtriangles.svg	1	yes	53	1	768
6.6.1	win	2022-12-16	11:21:11	11:24:43	210908	5e6ef5fbf14d264ae2ef3867	993959109	1	practice_slash	5	advance_on_keypress_SLASH	6	stimuli_target_circlediamonds.svg	stimuli_distractor_diamondtriangles.svg	1	yes	57	0	621
6.6.1	win	2022-12-16	11:21:11	11:24:46	214070	5e6ef5fbf14d264ae2ef3867	993959109	1	practice_slash	5	practice_slash	7	stimuli_distractor_trianglediamonds.svg	stimuli_target_circlediamonds.svg	10	yes	53	1	920
6.6.1	win	2022-12-16	11:21:11	11:24:46	214070	5e6ef5fbf14d264ae2ef3867	993959109	1	practice_slash	5	advance_on_keypress_SLASH	8	stimuli_distractor_trianglediamonds.svg	stimuli_target_circlediamonds.svg	10	yes	57	0	470
6.6.1	win	2022-12-16	11:21:11	11:24:50	218161	5e6ef5fbf14d264ae2ef3867	993959109	1	practice_slash	5	practice_slash	9	stimuli_distractor_diamondtriangles.svg	stimuli_distractor_diamondtriangles.svg	13	no	0	1	2000
6.6.1	win	2022-12-16	11:21:11	11:24:50	218161	5e6ef5fbf14d264ae2ef3867	993959109	1	practice_slash	5	advance_on_keypress_SLASH	10	stimuli_distractor_diamondtriangles.svg	stimuli_distractor_diamondtriangles.svg	13	no	57	0	1185
6.6.1	win	2022-12-16	11:21:11	11:24:54	221755	5e6ef5fbf14d264ae2ef3867	993959109	1	practice_slash	5	practice_slash	11	stimuli_target_squarediamonds.svg	stimuli_distractor_trianglediamonds.svg	5	yes	53	1	790
6.6.1	win	2022-12-16	11:21:11	11:24:54	221755	5e6ef5fbf14d264ae2ef3867	993959109	1	practice_slash	5	advance_on_keypress_SLASH	12	stimuli_target_squarediamonds.svg	stimuli_distractor_trianglediamonds.svg	5	yes	57	0	489
6.6.1	win	2022-12-16	11:21:11	11:24:56	224677	5e6ef5fbf14d264ae2ef3867	993959109	1	practice_slash	5	practice_slash	13	stimuli_distractor_trianglediamonds.svg	stimuli_target_diamondcircles.svg	12	yes	53	1	811
6.6.1	win	2022-12-16	11:21:11	11:24:56	224677	5e6ef5fbf14d264ae2ef3867	993959109	1	practice_slash	5	advance_on_keypress_SLASH	14	stimuli_distractor_trianglediamonds.svg	stimuli_target_diamondcircles.svg	12	yes	57	0	362
6.6.1	win	2022-12-16	11:21:11	11:24:59	227404	5e6ef5fbf14d264ae2ef3867	993959109	1	practice_slash	5	practice_slash	15	stimuli_target_circlediamonds.svg	stimuli_distractor_trianglediamonds.svg	4	yes	53	1	746
6.6.1	win	2022-12-16	11:21:11	11:24:59	227404	5e6ef5fbf14d264ae2ef3867	993959109	1	practice_slash	5	advance_on_keypress_SLASH	16	stimuli_target_circlediamonds.svg	stimuli_distractor_trianglediamonds.svg	4	yes	57	0	407
6.6.1	win	2022-12-16	11:21:11	11:25:03	231427	5e6ef5fbf14d264ae2ef3867	993959109	1	practice_slash	5	practice_slash	17	stimuli_distractor_diamondtriangles.svg	stimuli_distractor_trianglediamonds.svg	14	no	0	1	2000
6.6.1	win	2022-12-16	11:21:11	11:25:03	231427	5e6ef5fbf14d264ae2ef3867	993959109	1	practice_slash	5	advance_on_keypress_SLASH	18	stimuli_distractor_diamondtriangles.svg	stimuli_distractor_trianglediamonds.svg	14	no	57	0	601
6.6.1	win	2022-12-16	11:21:11	11:25:06	234370	5e6ef5fbf14d264ae2ef3867	993959109	1	practice_slash	5	practice_slash	19	stimuli_distractor_diamondtriangles.svg	stimuli_target_trianglecircles.svg	9	yes	53	1	721
6.6.1	win	2022-12-16	11:21:11	11:25:06	234370	5e6ef5fbf14d264ae2ef3867	993959109	1	practice_slash	5	advance_on_keypress_SLASH	20	stimuli_distractor_diamondtriangles.svg	stimuli_target_trianglecircles.svg	9	yes	57	0	406
6.6.1	win	2022-12-16	11:21:11	11:25:10	238394	5e6ef5fbf14d264ae2ef3867	993959109	1	practice_slash	5	practice_slash	21	stimuli_target_diamondsquares.svg	stimuli_distractor_diamondtriangles.svg	3	yes	0	0	2000
6.6.1	win	2022-12-16	11:21:11	11:25:10	238394	5e6ef5fbf14d264ae2ef3867	993959109	1	practice_slash	5	advance_on_keypress_SLASH	22	stimuli_target_diamondsquares.svg	stimuli_distractor_diamondtriangles.svg	3	yes	57	0	274
6.6.1	win	2022-12-16	11:21:11	11:25:13	241227	5e6ef5fbf14d264ae2ef3867	993959109	1	practice_slash	5	practice_slash	23	stimuli_target_squarediamonds.svg	stimuli_distractor_diamondtriangles.svg	2	yes	53	1	944
6.6.1	win	2022-12-16	11:21:11	11:25:13	241227	5e6ef5fbf14d264ae2ef3867	993959109	1	practice_slash	5	advance_on_keypress_SLASH	24	stimuli_target_squarediamonds.svg	stimuli_distractor_diamondtriangles.svg	2	yes	57	0	232
6.6.1	win	2022-12-16	11:21:11	11:25:16	243824	5e6ef5fbf14d264ae2ef3867	993959109	1	practice_slash	5	practice_slash	25	stimuli_distractor_diamondtriangles.svg	stimuli_target_diamondcircles.svg	8	yes	53	1	750
6.6.1	win	2022-12-16	11:21:11	11:25:16	243824	5e6ef5fbf14d264ae2ef3867	993959109	1	practice_slash	5	advance_on_keypress_SLASH	26	stimuli_distractor_diamondtriangles.svg	stimuli_target_diamondcircles.svg	8	yes	57	0	230
6.6.1	win	2022-12-16	11:21:11	11:25:19	247674	5e6ef5fbf14d264ae2ef3867	993959109	1	practice_slash	5	practice_slash	27	stimuli_distractor_trianglediamonds.svg	stimuli_distractor_trianglediamonds.svg	15	no	0	1	2000
6.6.1	win	2022-12-16	11:21:11	11:25:19	247674	5e6ef5fbf14d264ae2ef3867	993959109	1	practice_slash	5	advance_on_keypress_SLASH	28	stimuli_distractor_trianglediamonds.svg	stimuli_distractor_trianglediamonds.svg	15	no	57	0	232
6.6.1	win	2022-12-16	11:21:11	11:25:22	250293	5e6ef5fbf14d264ae2ef3867	993959109	1	practice_slash	5	practice_slash	29	stimuli_distractor_trianglediamonds.svg	stimuli_target_squarediamonds.svg	11	yes	53	1	766
6.6.1	win	2022-12-16	11:21:11	11:25:22	250293	5e6ef5fbf14d264ae2ef3867	993959109	1	practice_slash	5	advance_on_keypress_SLASH	30	stimuli_distractor_trianglediamonds.svg	stimuli_target_squarediamonds.svg	11	yes	57	0	293
6.6.1	win	2022-12-16	11:21:11	11:25:25	252976	5e6ef5fbf14d264ae2ef3867	993959109	1	practice_slash	5	practice_slash	31	stimuli_distractor_diamondtriangles.svg	stimuli_target_circletriangles.svg	7	yes	53	1	767
6.6.1	win	2022-12-16	11:21:11	11:25:25	252976	5e6ef5fbf14d264ae2ef3867	993959109	1	practice_slash	5	advance_on_keypress_SLASH	32	stimuli_distractor_diamondtriangles.svg	stimuli_target_circletriangles.svg	7	yes	57	0	230
6.6.1	win	2022-12-16	11:21:11	11:25:33	260951	5e6ef5fbf14d264ae2ef3867	993959109	1	main_slash	7	main_slash	1	stimuli_distractor_trianglediamonds.svg	stimuli_distractor_trianglediamonds.svg	33	no	0	1	2000
6.6.1	win	2022-12-16	11:21:11	11:25:33	260951	5e6ef5fbf14d264ae2ef3867	993959109	1	main_slash	7	advance_on_keypress_SLASH	2	stimuli_distractor_trianglediamonds.svg	stimuli_distractor_trianglediamonds.svg	33	no	57	0	409
6.6.1	win	2022-12-16	11:21:11	11:25:35	262768	5e6ef5fbf14d264ae2ef3867	993959109	1	main_slash	7	main_slash	3	stimuli_distractor_trianglediamonds.svg	stimuli_target_squarediamonds.svg	12	yes	53	1	794
6.6.1	win	2022-12-16	11:21:11	11:25:35	262768	5e6ef5fbf14d264ae2ef3867	993959109	1	main_slash	7	advance_on_keypress_SLASH	4	stimuli_distractor_trianglediamonds.svg	stimuli_target_squarediamonds.svg	12	yes	57	0	495
6.6.1	win	2022-12-16	11:21:11	11:25:38	265876	5e6ef5fbf14d264ae2ef3867	993959109	1	main_slash	7	main_slash	5	stimuli_distractor_diamondtriangles.svg	stimuli_distractor_diamondtriangles.svg	40	no	0	1	2000
6.6.1	win	2022-12-16	11:21:11	11:25:38	265876	5e6ef5fbf14d264ae2ef3867	993959109	1	main_slash	7	advance_on_keypress_SLASH	6	stimuli_distractor_diamondtriangles.svg	stimuli_distractor_diamondtriangles.svg	40	no	57	0	280
6.6.1	win	2022-12-16	11:21:11	11:25:39	267543	5e6ef5fbf14d264ae2ef3867	993959109	1	main_slash	7	main_slash	7	stimuli_target_circletriangles.svg	stimuli_distractor_diamondtriangles.svg	5	yes	53	1	771
6.6.1	win	2022-12-16	11:21:11	11:25:39	267543	5e6ef5fbf14d264ae2ef3867	993959109	1	main_slash	7	advance_on_keypress_SLASH	8	stimuli_target_circletriangles.svg	stimuli_distractor_diamondtriangles.svg	5	yes	57	0	496
6.6.1	win	2022-12-16	11:21:11	11:25:41	269467	5e6ef5fbf14d264ae2ef3867	993959109	1	main_slash	7	main_slash	9	stimuli_target_circlediamonds.svg	stimuli_distractor_trianglediamonds.svg	2	yes	53	1	812
6.6.1	win	2022-12-16	11:21:11	11:25:41	269467	5e6ef5fbf14d264ae2ef3867	993959109	1	main_slash	7	advance_on_keypress_SLASH	10	stimuli_target_circlediamonds.svg	stimuli_distractor_trianglediamonds.svg	2	yes	57	0	322
6.6.1	win	2022-12-16	11:21:11	11:25:43	271177	5e6ef5fbf14d264ae2ef3867	993959109	1	main_slash	7	main_slash	11	stimuli_distractor_diamondtriangles.svg	stimuli_target_circlediamonds.svg	14	yes	53	1	771
6.6.1	win	2022-12-16	11:21:11	11:25:43	271177	5e6ef5fbf14d264ae2ef3867	993959109	1	main_slash	7	advance_on_keypress_SLASH	12	stimuli_distractor_diamondtriangles.svg	stimuli_target_circlediamonds.svg	14	yes	57	0	345
6.6.1	win	2022-12-16	11:21:11	11:25:45	272951	5e6ef5fbf14d264ae2ef3867	993959109	1	main_slash	7	main_slash	13	stimuli_target_circlediamonds.svg	stimuli_distractor_diamondtriangles.svg	6	yes	53	1	812
6.6.1	win	2022-12-16	11:21:11	11:25:45	272951	5e6ef5fbf14d264ae2ef3867	993959109	1	main_slash	7	advance_on_keypress_SLASH	14	stimuli_target_circlediamonds.svg	stimuli_distractor_diamondtriangles.svg	6	yes	57	0	343
6.6.1	win	2022-12-16	11:21:11	11:25:46	274702	5e6ef5fbf14d264ae2ef3867	993959109	1	main_slash	7	main_slash	15	stimuli_distractor_diamondtriangles.svg	stimuli_target_squaretriangles.svg	15	yes	53	1	789
6.6.1	win	2022-12-16	11:21:11	11:25:46	274702	5e6ef5fbf14d264ae2ef3867	993959109	1	main_slash	7	advance_on_keypress_SLASH	16	stimuli_distractor_diamondtriangles.svg	stimuli_target_squaretriangles.svg	15	yes	57	0	344
6.6.1	win	2022-12-16	11:21:11	11:25:48	276519	5e6ef5fbf14d264ae2ef3867	993959109	1	main_slash	7	main_slash	17	stimuli_target_diamondsquares.svg	stimuli_distractor_diamondtriangles.svg	24	yes	53	1	855
6.6.1	win	2022-12-16	11:21:11	11:25:48	276519	5e6ef5fbf14d264ae2ef3867	993959109	1	main_slash	7	advance_on_keypress_SLASH	18	stimuli_target_diamondsquares.svg	stimuli_distractor_diamondtriangles.svg	24	yes	57	0	322
6.6.1	win	2022-12-16	11:21:11	11:25:50	278509	5e6ef5fbf14d264ae2ef3867	993959109	1	main_slash	7	main_slash	19	stimuli_target_squarediamonds.svg	stimuli_distractor_diamondtriangles.svg	8	yes	53	1	1052
6.6.1	win	2022-12-16	11:21:11	11:25:50	278509	5e6ef5fbf14d264ae2ef3867	993959109	1	main_slash	7	advance_on_keypress_SLASH	20	stimuli_target_squarediamonds.svg	stimuli_distractor_diamondtriangles.svg	8	yes	57	0	238
6.6.1	win	2022-12-16	11:21:11	11:25:53	281359	5e6ef5fbf14d264ae2ef3867	993959109	1	main_slash	7	main_slash	21	stimuli_target_trianglesquares.svg	stimuli_distractor_trianglediamonds.svg	18	yes	0	0	2000
6.6.1	win	2022-12-16	11:21:11	11:25:53	281359	5e6ef5fbf14d264ae2ef3867	993959109	1	main_slash	7	advance_on_keypress_SLASH	22	stimuli_target_trianglesquares.svg	stimuli_distractor_trianglediamonds.svg	18	yes	57	0	278
6.6.1	win	2022-12-16	11:21:11	11:25:55	283022	5e6ef5fbf14d264ae2ef3867	993959109	1	main_slash	7	main_slash	23	stimuli_distractor_trianglediamonds.svg	stimuli_target_diamondcircles.svg	27	yes	53	1	768
6.6.1	win	2022-12-16	11:21:11	11:25:55	283022	5e6ef5fbf14d264ae2ef3867	993959109	1	main_slash	7	advance_on_keypress_SLASH	24	stimuli_distractor_trianglediamonds.svg	stimuli_target_diamondcircles.svg	27	yes	57	0	277
6.6.1	win	2022-12-16	11:21:11	11:25:57	284752	5e6ef5fbf14d264ae2ef3867	993959109	1	main_slash	7	main_slash	25	stimuli_target_trianglecircles.svg	stimuli_distractor_diamondtriangles.svg	21	yes	53	1	838
6.6.1	win	2022-12-16	11:21:11	11:25:57	284752	5e6ef5fbf14d264ae2ef3867	993959109	1	main_slash	7	advance_on_keypress_SLASH	26	stimuli_target_trianglecircles.svg	stimuli_distractor_diamondtriangles.svg	21	yes	57	0	258
6.6.1	win	2022-12-16	11:21:11	11:25:59	287629	5e6ef5fbf14d264ae2ef3867	993959109	1	main_slash	7	main_slash	27	stimuli_distractor_trianglediamonds.svg	stimuli_distractor_diamondtriangles.svg	36	no	0	1	2000
6.6.1	win	2022-12-16	11:21:11	11:25:59	287629	5e6ef5fbf14d264ae2ef3867	993959109	1	main_slash	7	advance_on_keypress_SLASH	28	stimuli_distractor_trianglediamonds.svg	stimuli_distractor_diamondtriangles.svg	36	no	57	0	274
6.6.1	win	2022-12-16	11:21:11	11:26:01	289223	5e6ef5fbf14d264ae2ef3867	993959109	1	main_slash	7	main_slash	29	stimuli_distractor_trianglediamonds.svg	stimuli_target_squaretriangles.svg	11	yes	53	1	705
6.6.1	win	2022-12-16	11:21:11	11:26:01	289223	5e6ef5fbf14d264ae2ef3867	993959109	1	main_slash	7	advance_on_keypress_SLASH	30	stimuli_distractor_trianglediamonds.svg	stimuli_target_squaretriangles.svg	11	yes	57	0	259
6.6.1	win	2022-12-16	11:21:11	11:26:03	290909	5e6ef5fbf14d264ae2ef3867	993959109	1	main_slash	7	main_slash	31	stimuli_distractor_trianglediamonds.svg	stimuli_target_diamondsquares.svg	28	yes	53	1	810
6.6.1	win	2022-12-16	11:21:11	11:26:03	290909	5e6ef5fbf14d264ae2ef3867	993959109	1	main_slash	7	advance_on_keypress_SLASH	32	stimuli_distractor_trianglediamonds.svg	stimuli_target_diamondsquares.svg	28	yes	57	0	298
6.6.1	win	2022-12-16	11:21:11	11:26:04	292640	5e6ef5fbf14d264ae2ef3867	993959109	1	main_slash	7	main_slash	33	stimuli_target_diamondsquares.svg	stimuli_distractor_trianglediamonds.svg	20	yes	53	1	814
6.6.1	win	2022-12-16	11:21:11	11:26:04	292640	5e6ef5fbf14d264ae2ef3867	993959109	1	main_slash	7	advance_on_keypress_SLASH	34	stimuli_target_diamondsquares.svg	stimuli_distractor_trianglediamonds.svg	20	yes	57	0	236
6.6.1	win	2022-12-16	11:21:11	11:26:06	294326	5e6ef5fbf14d264ae2ef3867	993959109	1	main_slash	7	main_slash	35	stimuli_target_squaretriangles.svg	stimuli_distractor_diamondtriangles.svg	7	yes	53	1	835
6.6.1	win	2022-12-16	11:21:11	11:26:06	294326	5e6ef5fbf14d264ae2ef3867	993959109	1	main_slash	7	advance_on_keypress_SLASH	36	stimuli_target_squaretriangles.svg	stimuli_distractor_diamondtriangles.svg	7	yes	57	0	233
6.6.1	win	2022-12-16	11:21:11	11:26:08	295991	5e6ef5fbf14d264ae2ef3867	993959109	1	main_slash	7	main_slash	37	stimuli_distractor_diamondtriangles.svg	stimuli_target_trianglesquares.svg	30	yes	53	1	816
6.6.1	win	2022-12-16	11:21:11	11:26:08	295991	5e6ef5fbf14d264ae2ef3867	993959109	1	main_slash	7	advance_on_keypress_SLASH	38	stimuli_distractor_diamondtriangles.svg	stimuli_target_trianglesquares.svg	30	yes	57	0	216
6.6.1	win	2022-12-16	11:21:11	11:26:09	297635	5e6ef5fbf14d264ae2ef3867	993959109	1	main_slash	7	main_slash	39	stimuli_target_diamondcircles.svg	stimuli_distractor_trianglediamonds.svg	19	yes	53	1	817
6.6.1	win	2022-12-16	11:21:11	11:26:09	297635	5e6ef5fbf14d264ae2ef3867	993959109	1	main_slash	7	advance_on_keypress_SLASH	40	stimuli_target_diamondcircles.svg	stimuli_distractor_trianglediamonds.svg	19	yes	57	0	212
6.6.1	win	2022-12-16	11:21:11	11:26:11	299495	5e6ef5fbf14d264ae2ef3867	993959109	1	main_slash	7	main_slash	41	stimuli_distractor_trianglediamonds.svg	stimuli_target_circletriangles.svg	9	yes	53	1	1030
6.6.1	win	2022-12-16	11:21:11	11:26:11	299495	5e6ef5fbf14d264ae2ef3867	993959109	1	main_slash	7	advance_on_keypress_SLASH	42	stimuli_distractor_trianglediamonds.svg	stimuli_target_circletriangles.svg	9	yes	57	0	234
6.6.1	win	2022-12-16	11:21:11	11:26:13	301203	5e6ef5fbf14d264ae2ef3867	993959109	1	main_slash	7	main_slash	43	stimuli_target_trianglesquares.svg	stimuli_distractor_diamondtriangles.svg	22	yes	53	1	860
6.6.1	win	2022-12-16	11:21:11	11:26:13	301203	5e6ef5fbf14d264ae2ef3867	993959109	1	main_slash	7	advance_on_keypress_SLASH	44	stimuli_target_trianglesquares.svg	stimuli_distractor_diamondtriangles.svg	22	yes	57	0	213
6.6.1	win	2022-12-16	11:21:11	11:26:15	303127	5e6ef5fbf14d264ae2ef3867	993959109	1	main_slash	7	main_slash	45	stimuli_distractor_diamondtriangles.svg	stimuli_target_squarediamonds.svg	16	yes	53	1	1095
6.6.1	win	2022-12-16	11:21:11	11:26:15	303127	5e6ef5fbf14d264ae2ef3867	993959109	1	main_slash	7	advance_on_keypress_SLASH	46	stimuli_distractor_diamondtriangles.svg	stimuli_target_squarediamonds.svg	16	yes	57	0	232
6.6.1	win	2022-12-16	11:21:11	11:26:17	304793	5e6ef5fbf14d264ae2ef3867	993959109	1	main_slash	7	main_slash	47	stimuli_distractor_trianglediamonds.svg	stimuli_target_trianglecircles.svg	25	yes	53	1	815
6.6.1	win	2022-12-16	11:21:11	11:26:17	304793	5e6ef5fbf14d264ae2ef3867	993959109	1	main_slash	7	advance_on_keypress_SLASH	48	stimuli_distractor_trianglediamonds.svg	stimuli_target_trianglecircles.svg	25	yes	57	0	173
6.6.1	win	2022-12-16	11:21:11	11:26:18	306566	5e6ef5fbf14d264ae2ef3867	993959109	1	main_slash	7	main_slash	49	stimuli_distractor_diamondtriangles.svg	stimuli_target_circletriangles.svg	13	yes	53	1	989
6.6.1	win	2022-12-16	11:21:11	11:26:18	306566	5e6ef5fbf14d264ae2ef3867	993959109	1	main_slash	7	advance_on_keypress_SLASH	50	stimuli_distractor_diamondtriangles.svg	stimuli_target_circletriangles.svg	13	yes	57	0	192
6.6.1	win	2022-12-16	11:21:11	11:26:21	309370	5e6ef5fbf14d264ae2ef3867	993959109	1	main_slash	7	main_slash	51	stimuli_distractor_diamondtriangles.svg	stimuli_distractor_trianglediamonds.svg	38	no	0	1	2000
6.6.1	win	2022-12-16	11:21:11	11:26:21	309370	5e6ef5fbf14d264ae2ef3867	993959109	1	main_slash	7	advance_on_keypress_SLASH	52	stimuli_distractor_diamondtriangles.svg	stimuli_distractor_trianglediamonds.svg	38	no	57	0	280
6.6.1	win	2022-12-16	11:21:11	11:26:23	310970	5e6ef5fbf14d264ae2ef3867	993959109	1	main_slash	7	main_slash	53	stimuli_target_diamondcircles.svg	stimuli_distractor_diamondtriangles.svg	23	yes	53	1	705
6.6.1	win	2022-12-16	11:21:11	11:26:23	310970	5e6ef5fbf14d264ae2ef3867	993959109	1	main_slash	7	advance_on_keypress_SLASH	54	stimuli_target_diamondcircles.svg	stimuli_distractor_diamondtriangles.svg	23	yes	57	0	172
6.6.1	win	2022-12-16	11:21:11	11:26:24	312418	5e6ef5fbf14d264ae2ef3867	993959109	1	main_slash	7	main_slash	55	stimuli_distractor_diamondtriangles.svg	stimuli_target_trianglecircles.svg	29	yes	53	1	663
6.6.1	win	2022-12-16	11:21:11	11:26:24	312418	5e6ef5fbf14d264ae2ef3867	993959109	1	main_slash	7	advance_on_keypress_SLASH	56	stimuli_distractor_diamondtriangles.svg	stimuli_target_trianglecircles.svg	29	yes	57	0	193
6.6.1	win	2022-12-16	11:21:11	11:26:27	315228	5e6ef5fbf14d264ae2ef3867	993959109	1	main_slash	7	main_slash	57	stimuli_distractor_trianglediamonds.svg	stimuli_distractor_diamondtriangles.svg	35	no	0	1	2000
6.6.1	win	2022-12-16	11:21:11	11:26:27	315228	5e6ef5fbf14d264ae2ef3867	993959109	1	main_slash	7	advance_on_keypress_SLASH	58	stimuli_distractor_trianglediamonds.svg	stimuli_distractor_diamondtriangles.svg	35	no	57	0	275
6.6.1	win	2022-12-16	11:21:11	11:26:30	318117	5e6ef5fbf14d264ae2ef3867	993959109	1	main_slash	7	main_slash	59	stimuli_distractor_diamondtriangles.svg	stimuli_distractor_trianglediamonds.svg	37	no	0	1	2000
6.6.1	win	2022-12-16	11:21:11	11:26:30	318117	5e6ef5fbf14d264ae2ef3867	993959109	1	main_slash	7	advance_on_keypress_SLASH	60	stimuli_distractor_diamondtriangles.svg	stimuli_distractor_trianglediamonds.svg	37	no	57	0	279
6.6.1	win	2022-12-16	11:21:11	11:26:32	319782	5e6ef5fbf14d264ae2ef3867	993959109	1	main_slash	7	main_slash	61	stimuli_distractor_trianglediamonds.svg	stimuli_target_circlediamonds.svg	10	yes	53	1	769
6.6.1	win	2022-12-16	11:21:11	11:26:32	319782	5e6ef5fbf14d264ae2ef3867	993959109	1	main_slash	7	advance_on_keypress_SLASH	62	stimuli_distractor_trianglediamonds.svg	stimuli_target_circlediamonds.svg	10	yes	57	0	190
6.6.1	win	2022-12-16	11:21:11	11:26:33	321382	5e6ef5fbf14d264ae2ef3867	993959109	1	main_slash	7	main_slash	63	stimuli_target_trianglecircles.svg	stimuli_distractor_trianglediamonds.svg	17	yes	53	1	794
6.6.1	win	2022-12-16	11:21:11	11:26:33	321382	5e6ef5fbf14d264ae2ef3867	993959109	1	main_slash	7	advance_on_keypress_SLASH	64	stimuli_target_trianglecircles.svg	stimuli_distractor_trianglediamonds.svg	17	yes	57	0	213
6.6.1	win	2022-12-16	11:21:11	11:26:35	322981	5e6ef5fbf14d264ae2ef3867	993959109	1	main_slash	7	main_slash	65	stimuli_distractor_diamondtriangles.svg	stimuli_target_diamondcircles.svg	31	yes	53	1	769
6.6.1	win	2022-12-16	11:21:11	11:26:35	322981	5e6ef5fbf14d264ae2ef3867	993959109	1	main_slash	7	advance_on_keypress_SLASH	66	stimuli_distractor_diamondtriangles.svg	stimuli_target_diamondcircles.svg	31	yes	57	0	169
6.6.1	win	2022-12-16	11:21:11	11:26:36	324581	5e6ef5fbf14d264ae2ef3867	993959109	1	main_slash	7	main_slash	67	stimuli_distractor_diamondtriangles.svg	stimuli_target_diamondsquares.svg	32	yes	53	1	813
6.6.1	win	2022-12-16	11:21:11	11:26:36	324581	5e6ef5fbf14d264ae2ef3867	993959109	1	main_slash	7	advance_on_keypress_SLASH	68	stimuli_distractor_diamondtriangles.svg	stimuli_target_diamondsquares.svg	32	yes	57	0	148
6.6.1	win	2022-12-16	11:21:11	11:26:38	326180	5e6ef5fbf14d264ae2ef3867	993959109	1	main_slash	7	main_slash	69	stimuli_target_squaretriangles.svg	stimuli_distractor_trianglediamonds.svg	3	yes	53	1	837
6.6.1	win	2022-12-16	11:21:11	11:26:38	326180	5e6ef5fbf14d264ae2ef3867	993959109	1	main_slash	7	advance_on_keypress_SLASH	70	stimuli_target_squaretriangles.svg	stimuli_distractor_trianglediamonds.svg	3	yes	57	0	235
6.6.1	win	2022-12-16	11:21:11	11:26:40	327866	5e6ef5fbf14d264ae2ef3867	993959109	1	main_slash	7	main_slash	71	stimuli_target_circletriangles.svg	stimuli_distractor_trianglediamonds.svg	1	yes	53	1	834
6.6.1	win	2022-12-16	11:21:11	11:26:40	327866	5e6ef5fbf14d264ae2ef3867	993959109	1	main_slash	7	advance_on_keypress_SLASH	72	stimuli_target_circletriangles.svg	stimuli_distractor_trianglediamonds.svg	1	yes	57	0	195
6.6.1	win	2022-12-16	11:21:11	11:26:41	329531	5e6ef5fbf14d264ae2ef3867	993959109	1	main_slash	7	main_slash	73	stimuli_distractor_trianglediamonds.svg	stimuli_target_trianglesquares.svg	26	yes	53	1	857
6.6.1	win	2022-12-16	11:21:11	11:26:41	329531	5e6ef5fbf14d264ae2ef3867	993959109	1	main_slash	7	advance_on_keypress_SLASH	74	stimuli_distractor_trianglediamonds.svg	stimuli_target_trianglesquares.svg	26	yes	57	0	215
6.6.1	win	2022-12-16	11:21:11	11:26:44	332359	5e6ef5fbf14d264ae2ef3867	993959109	1	main_slash	7	main_slash	75	stimuli_distractor_diamondtriangles.svg	stimuli_distractor_diamondtriangles.svg	39	no	0	1	2000
6.6.1	win	2022-12-16	11:21:11	11:26:44	332359	5e6ef5fbf14d264ae2ef3867	993959109	1	main_slash	7	advance_on_keypress_SLASH	76	stimuli_distractor_diamondtriangles.svg	stimuli_distractor_diamondtriangles.svg	39	no	57	0	279
6.6.1	win	2022-12-16	11:21:11	11:26:46	334133	5e6ef5fbf14d264ae2ef3867	993959109	1	main_slash	7	main_slash	77	stimuli_target_squarediamonds.svg	stimuli_distractor_trianglediamonds.svg	4	yes	53	1	878
6.6.1	win	2022-12-16	11:21:11	11:26:46	334133	5e6ef5fbf14d264ae2ef3867	993959109	1	main_slash	7	advance_on_keypress_SLASH	78	stimuli_target_squarediamonds.svg	stimuli_distractor_trianglediamonds.svg	4	yes	57	0	148
6.6.1	win	2022-12-16	11:21:11	11:26:49	336896	5e6ef5fbf14d264ae2ef3867	993959109	1	main_slash	7	main_slash	79	stimuli_distractor_trianglediamonds.svg	stimuli_distractor_trianglediamonds.svg	34	no	0	1	2000
6.6.1	win	2022-12-16	11:21:11	11:26:49	336896	5e6ef5fbf14d264ae2ef3867	993959109	1	main_slash	7	advance_on_keypress_SLASH	80	stimuli_distractor_trianglediamonds.svg	stimuli_distractor_trianglediamonds.svg	34	no	57	0	322
6.6.1	win	2022-12-16	11:21:11	11:26:50	338670	5e6ef5fbf14d264ae2ef3867	993959109	1	main_slash	7	main_slash	81	stimuli_distractor_trianglediamonds.svg	stimuli_target_diamondcircles.svg	27	yes	53	1	836
6.6.1	win	2022-12-16	11:21:11	11:26:50	338670	5e6ef5fbf14d264ae2ef3867	993959109	1	main_slash	7	advance_on_keypress_SLASH	82	stimuli_distractor_trianglediamonds.svg	stimuli_target_diamondcircles.svg	27	yes	57	0	169
6.6.1	win	2022-12-16	11:21:11	11:26:52	340269	5e6ef5fbf14d264ae2ef3867	993959109	1	main_slash	7	main_slash	83	stimuli_distractor_diamondtriangles.svg	stimuli_target_circlediamonds.svg	14	yes	53	1	811
6.6.1	win	2022-12-16	11:21:11	11:26:52	340269	5e6ef5fbf14d264ae2ef3867	993959109	1	main_slash	7	advance_on_keypress_SLASH	84	stimuli_distractor_diamondtriangles.svg	stimuli_target_circlediamonds.svg	14	yes	57	0	148
6.6.1	win	2022-12-16	11:21:11	11:26:54	341955	5e6ef5fbf14d264ae2ef3867	993959109	1	main_slash	7	main_slash	85	stimuli_distractor_trianglediamonds.svg	stimuli_target_squaretriangles.svg	11	yes	53	1	923
6.6.1	win	2022-12-16	11:21:11	11:26:54	341955	5e6ef5fbf14d264ae2ef3867	993959109	1	main_slash	7	advance_on_keypress_SLASH	86	stimuli_distractor_trianglediamonds.svg	stimuli_target_squaretriangles.svg	11	yes	57	0	172
6.6.1	win	2022-12-16	11:21:11	11:26:57	344741	5e6ef5fbf14d264ae2ef3867	993959109	1	main_slash	7	main_slash	87	stimuli_distractor_trianglediamonds.svg	stimuli_distractor_trianglediamonds.svg	34	no	0	1	2000
6.6.1	win	2022-12-16	11:21:11	11:26:57	344741	5e6ef5fbf14d264ae2ef3867	993959109	1	main_slash	7	advance_on_keypress_SLASH	88	stimuli_distractor_trianglediamonds.svg	stimuli_distractor_trianglediamonds.svg	34	no	57	0	300
6.6.1	win	2022-12-16	11:21:11	11:26:58	346515	5e6ef5fbf14d264ae2ef3867	993959109	1	main_slash	7	main_slash	89	stimuli_target_squaretriangles.svg	stimuli_distractor_diamondtriangles.svg	7	yes	53	1	860
6.6.1	win	2022-12-16	11:21:11	11:26:58	346515	5e6ef5fbf14d264ae2ef3867	993959109	1	main_slash	7	advance_on_keypress_SLASH	90	stimuli_target_squaretriangles.svg	stimuli_distractor_diamondtriangles.svg	7	yes	57	0	147
6.6.1	win	2022-12-16	11:21:11	11:27:00	348092	5e6ef5fbf14d264ae2ef3867	993959109	1	main_slash	7	main_slash	91	stimuli_distractor_trianglediamonds.svg	stimuli_target_circletriangles.svg	9	yes	53	1	815
6.6.1	win	2022-12-16	11:21:11	11:27:00	348092	5e6ef5fbf14d264ae2ef3867	993959109	1	main_slash	7	advance_on_keypress_SLASH	92	stimuli_distractor_trianglediamonds.svg	stimuli_target_circletriangles.svg	9	yes	57	0	171
6.6.1	win	2022-12-16	11:21:11	11:27:02	350126	5e6ef5fbf14d264ae2ef3867	993959109	1	main_slash	7	main_slash	93	stimuli_distractor_diamondtriangles.svg	stimuli_distractor_diamondtriangles.svg	40	no	53	0	1249
6.6.1	win	2022-12-16	11:21:11	11:27:02	350126	5e6ef5fbf14d264ae2ef3867	993959109	1	main_slash	7	advance_on_keypress_SLASH	94	stimuli_distractor_diamondtriangles.svg	stimuli_distractor_diamondtriangles.svg	40	no	57	0	148
6.6.1	win	2022-12-16	11:21:11	11:27:03	351660	5e6ef5fbf14d264ae2ef3867	993959109	1	main_slash	7	main_slash	95	stimuli_target_trianglecircles.svg	stimuli_distractor_trianglediamonds.svg	17	yes	53	1	772
6.6.1	win	2022-12-16	11:21:11	11:27:03	351660	5e6ef5fbf14d264ae2ef3867	993959109	1	main_slash	7	advance_on_keypress_SLASH	96	stimuli_target_trianglecircles.svg	stimuli_distractor_trianglediamonds.svg	17	yes	57	0	150
6.6.1	win	2022-12-16	11:21:11	11:27:06	354427	5e6ef5fbf14d264ae2ef3867	993959109	1	main_slash	7	main_slash	97	stimuli_distractor_trianglediamonds.svg	stimuli_distractor_trianglediamonds.svg	33	no	0	1	2000
6.6.1	win	2022-12-16	11:21:11	11:27:06	354427	5e6ef5fbf14d264ae2ef3867	993959109	1	main_slash	7	advance_on_keypress_SLASH	98	stimuli_distractor_trianglediamonds.svg	stimuli_distractor_trianglediamonds.svg	33	no	57	0	296
6.6.1	win	2022-12-16	11:21:11	11:27:09	357341	5e6ef5fbf14d264ae2ef3867	993959109	1	main_slash	7	main_slash	99	stimuli_distractor_trianglediamonds.svg	stimuli_distractor_diamondtriangles.svg	36	no	0	1	2000
6.6.1	win	2022-12-16	11:21:11	11:27:09	357341	5e6ef5fbf14d264ae2ef3867	993959109	1	main_slash	7	advance_on_keypress_SLASH	100	stimuli_distractor_trianglediamonds.svg	stimuli_distractor_diamondtriangles.svg	36	no	57	0	232
6.6.1	win	2022-12-16	11:21:11	11:27:11	358980	5e6ef5fbf14d264ae2ef3867	993959109	1	main_slash	7	main_slash	101	stimuli_distractor_diamondtriangles.svg	stimuli_target_squaretriangles.svg	15	yes	53	1	793
6.6.1	win	2022-12-16	11:21:11	11:27:11	358980	5e6ef5fbf14d264ae2ef3867	993959109	1	main_slash	7	advance_on_keypress_SLASH	102	stimuli_distractor_diamondtriangles.svg	stimuli_target_squaretriangles.svg	15	yes	57	0	169
6.6.1	win	2022-12-16	11:21:11	11:27:14	361769	5e6ef5fbf14d264ae2ef3867	993959109	1	main_slash	7	main_slash	103	stimuli_distractor_trianglediamonds.svg	stimuli_distractor_diamondtriangles.svg	35	no	0	1	2000
6.6.1	win	2022-12-16	11:21:11	11:27:14	361769	5e6ef5fbf14d264ae2ef3867	993959109	1	main_slash	7	advance_on_keypress_SLASH	104	stimuli_distractor_trianglediamonds.svg	stimuli_distractor_diamondtriangles.svg	35	no	57	0	232
6.6.1	win	2022-12-16	11:21:11	11:27:15	363365	5e6ef5fbf14d264ae2ef3867	993959109	1	main_slash	7	main_slash	105	stimuli_target_squaretriangles.svg	stimuli_distractor_trianglediamonds.svg	3	yes	53	1	750
6.6.1	win	2022-12-16	11:21:11	11:27:15	363365	5e6ef5fbf14d264ae2ef3867	993959109	1	main_slash	7	advance_on_keypress_SLASH	106	stimuli_target_squaretriangles.svg	stimuli_distractor_trianglediamonds.svg	3	yes	57	0	168
6.6.1	win	2022-12-16	11:21:11	11:27:17	364921	5e6ef5fbf14d264ae2ef3867	993959109	1	main_slash	7	main_slash	107	stimuli_distractor_trianglediamonds.svg	stimuli_target_diamondsquares.svg	28	yes	53	1	773
6.6.1	win	2022-12-16	11:21:11	11:27:17	364921	5e6ef5fbf14d264ae2ef3867	993959109	1	main_slash	7	advance_on_keypress_SLASH	108	stimuli_distractor_trianglediamonds.svg	stimuli_target_diamondsquares.svg	28	yes	57	0	151
6.6.1	win	2022-12-16	11:21:11	11:27:18	366455	5e6ef5fbf14d264ae2ef3867	993959109	1	main_slash	7	main_slash	109	stimuli_distractor_diamondtriangles.svg	stimuli_target_diamondsquares.svg	32	yes	53	1	768
6.6.1	win	2022-12-16	11:21:11	11:27:18	366455	5e6ef5fbf14d264ae2ef3867	993959109	1	main_slash	7	advance_on_keypress_SLASH	110	stimuli_distractor_diamondtriangles.svg	stimuli_target_diamondsquares.svg	32	yes	57	0	189
6.6.1	win	2022-12-16	11:21:11	11:27:20	368076	5e6ef5fbf14d264ae2ef3867	993959109	1	main_slash	7	main_slash	111	stimuli_target_squarediamonds.svg	stimuli_distractor_diamondtriangles.svg	8	yes	53	1	814
6.6.1	win	2022-12-16	11:21:11	11:27:20	368076	5e6ef5fbf14d264ae2ef3867	993959109	1	main_slash	7	advance_on_keypress_SLASH	112	stimuli_target_squarediamonds.svg	stimuli_distractor_diamondtriangles.svg	8	yes	57	0	172
6.6.1	win	2022-12-16	11:21:11	11:27:23	370862	5e6ef5fbf14d264ae2ef3867	993959109	1	main_slash	7	main_slash	113	stimuli_distractor_diamondtriangles.svg	stimuli_distractor_diamondtriangles.svg	39	no	0	1	2000
6.6.1	win	2022-12-16	11:21:11	11:27:23	370862	5e6ef5fbf14d264ae2ef3867	993959109	1	main_slash	7	advance_on_keypress_SLASH	114	stimuli_distractor_diamondtriangles.svg	stimuli_distractor_diamondtriangles.svg	39	no	57	0	300
6.6.1	win	2022-12-16	11:21:11	11:27:24	372570	5e6ef5fbf14d264ae2ef3867	993959109	1	main_slash	7	main_slash	115	stimuli_distractor_trianglediamonds.svg	stimuli_target_trianglecircles.svg	25	yes	53	1	788
6.6.1	win	2022-12-16	11:21:11	11:27:24	372570	5e6ef5fbf14d264ae2ef3867	993959109	1	main_slash	7	advance_on_keypress_SLASH	116	stimuli_distractor_trianglediamonds.svg	stimuli_target_trianglecircles.svg	25	yes	57	0	148
6.6.1	win	2022-12-16	11:21:11	11:27:26	374017	5e6ef5fbf14d264ae2ef3867	993959109	1	main_slash	7	main_slash	117	stimuli_target_trianglesquares.svg	stimuli_distractor_diamondtriangles.svg	22	yes	53	1	685
6.6.1	win	2022-12-16	11:21:11	11:27:26	374017	5e6ef5fbf14d264ae2ef3867	993959109	1	main_slash	7	advance_on_keypress_SLASH	118	stimuli_target_trianglesquares.svg	stimuli_distractor_diamondtriangles.svg	22	yes	57	0	169
6.6.1	win	2022-12-16	11:21:11	11:27:29	376804	5e6ef5fbf14d264ae2ef3867	993959109	1	main_slash	7	main_slash	119	stimuli_distractor_diamondtriangles.svg	stimuli_distractor_trianglediamonds.svg	37	no	0	1	2000
6.6.1	win	2022-12-16	11:21:11	11:27:29	376804	5e6ef5fbf14d264ae2ef3867	993959109	1	main_slash	7	advance_on_keypress_SLASH	120	stimuli_distractor_diamondtriangles.svg	stimuli_distractor_trianglediamonds.svg	37	no	57	0	275
6.6.1	win	2022-12-16	11:21:11	11:27:30	378487	5e6ef5fbf14d264ae2ef3867	993959109	1	main_slash	7	main_slash	121	stimuli_target_circlediamonds.svg	stimuli_distractor_diamondtriangles.svg	6	yes	53	1	793
6.6.1	win	2022-12-16	11:21:11	11:27:30	378487	5e6ef5fbf14d264ae2ef3867	993959109	1	main_slash	7	advance_on_keypress_SLASH	122	stimuli_target_circlediamonds.svg	stimuli_distractor_diamondtriangles.svg	6	yes	57	0	103
6.6.1	win	2022-12-16	11:21:11	11:27:32	379977	5e6ef5fbf14d264ae2ef3867	993959109	1	main_slash	7	main_slash	123	stimuli_target_trianglecircles.svg	stimuli_distractor_diamondtriangles.svg	21	yes	53	1	769
6.6.1	win	2022-12-16	11:21:11	11:27:32	379977	5e6ef5fbf14d264ae2ef3867	993959109	1	main_slash	7	advance_on_keypress_SLASH	124	stimuli_target_trianglecircles.svg	stimuli_distractor_diamondtriangles.svg	21	yes	57	0	126
6.6.1	win	2022-12-16	11:21:11	11:27:33	381512	5e6ef5fbf14d264ae2ef3867	993959109	1	main_slash	7	main_slash	125	stimuli_distractor_trianglediamonds.svg	stimuli_target_squarediamonds.svg	12	yes	53	1	795
6.6.1	win	2022-12-16	11:21:11	11:27:33	381512	5e6ef5fbf14d264ae2ef3867	993959109	1	main_slash	7	advance_on_keypress_SLASH	126	stimuli_distractor_trianglediamonds.svg	stimuli_target_squarediamonds.svg	12	yes	57	0	105
6.6.1	win	2022-12-16	11:21:11	11:27:35	382980	5e6ef5fbf14d264ae2ef3867	993959109	1	main_slash	7	main_slash	127	stimuli_target_diamondcircles.svg	stimuli_distractor_diamondtriangles.svg	23	yes	53	1	750
6.6.1	win	2022-12-16	11:21:11	11:27:35	382980	5e6ef5fbf14d264ae2ef3867	993959109	1	main_slash	7	advance_on_keypress_SLASH	128	stimuli_target_diamondcircles.svg	stimuli_distractor_diamondtriangles.svg	23	yes	57	0	103
6.6.1	win	2022-12-16	11:21:11	11:27:36	384406	5e6ef5fbf14d264ae2ef3867	993959109	1	main_slash	7	main_slash	129	stimuli_target_diamondcircles.svg	stimuli_distractor_trianglediamonds.svg	19	yes	53	1	704
6.6.1	win	2022-12-16	11:21:11	11:27:36	384406	5e6ef5fbf14d264ae2ef3867	993959109	1	main_slash	7	advance_on_keypress_SLASH	130	stimuli_target_diamondcircles.svg	stimuli_distractor_trianglediamonds.svg	19	yes	57	0	106
6.6.1	win	2022-12-16	11:21:11	11:27:38	385854	5e6ef5fbf14d264ae2ef3867	993959109	1	main_slash	7	main_slash	131	stimuli_distractor_diamondtriangles.svg	stimuli_target_circletriangles.svg	13	yes	53	1	728
6.6.1	win	2022-12-16	11:21:11	11:27:38	385854	5e6ef5fbf14d264ae2ef3867	993959109	1	main_slash	7	advance_on_keypress_SLASH	132	stimuli_distractor_diamondtriangles.svg	stimuli_target_circletriangles.svg	13	yes	57	0	128
6.6.1	win	2022-12-16	11:21:11	11:27:39	387324	5e6ef5fbf14d264ae2ef3867	993959109	1	main_slash	7	main_slash	133	stimuli_target_circlediamonds.svg	stimuli_distractor_trianglediamonds.svg	2	yes	53	1	726
6.6.1	win	2022-12-16	11:21:11	11:27:39	387324	5e6ef5fbf14d264ae2ef3867	993959109	1	main_slash	7	advance_on_keypress_SLASH	134	stimuli_target_circlediamonds.svg	stimuli_distractor_trianglediamonds.svg	2	yes	57	0	104
6.6.1	win	2022-12-16	11:21:11	11:27:41	388816	5e6ef5fbf14d264ae2ef3867	993959109	1	main_slash	7	main_slash	135	stimuli_distractor_diamondtriangles.svg	stimuli_target_diamondcircles.svg	31	yes	53	1	770
6.6.1	win	2022-12-16	11:21:11	11:27:41	388816	5e6ef5fbf14d264ae2ef3867	993959109	1	main_slash	7	advance_on_keypress_SLASH	136	stimuli_distractor_diamondtriangles.svg	stimuli_target_diamondcircles.svg	31	yes	57	0	105
6.6.1	win	2022-12-16	11:21:11	11:27:42	390263	5e6ef5fbf14d264ae2ef3867	993959109	1	main_slash	7	main_slash	137	stimuli_target_trianglesquares.svg	stimuli_distractor_trianglediamonds.svg	18	yes	53	1	727
6.6.1	win	2022-12-16	11:21:11	11:27:42	390263	5e6ef5fbf14d264ae2ef3867	993959109	1	main_slash	7	advance_on_keypress_SLASH	138	stimuli_target_trianglesquares.svg	stimuli_distractor_trianglediamonds.svg	18	yes	57	0	126
6.6.1	win	2022-12-16	11:21:11	11:27:43	391646	5e6ef5fbf14d264ae2ef3867	993959109	1	main_slash	7	main_slash	139	stimuli_target_diamondsquares.svg	stimuli_distractor_trianglediamonds.svg	20	yes	53	1	644
6.6.1	win	2022-12-16	11:21:11	11:27:43	391646	5e6ef5fbf14d264ae2ef3867	993959109	1	main_slash	7	advance_on_keypress_SLASH	140	stimuli_target_diamondsquares.svg	stimuli_distractor_trianglediamonds.svg	20	yes	57	0	150
6.6.1	win	2022-12-16	11:21:11	11:27:45	393115	5e6ef5fbf14d264ae2ef3867	993959109	1	main_slash	7	main_slash	141	stimuli_distractor_diamondtriangles.svg	stimuli_target_trianglecircles.svg	29	yes	53	1	708
6.6.1	win	2022-12-16	11:21:11	11:27:45	393115	5e6ef5fbf14d264ae2ef3867	993959109	1	main_slash	7	advance_on_keypress_SLASH	142	stimuli_distractor_diamondtriangles.svg	stimuli_target_trianglecircles.svg	29	yes	57	0	125
6.6.1	win	2022-12-16	11:21:11	11:27:47	394802	5e6ef5fbf14d264ae2ef3867	993959109	1	main_slash	7	main_slash	143	stimuli_distractor_trianglediamonds.svg	stimuli_target_circlediamonds.svg	10	yes	53	1	947
6.6.1	win	2022-12-16	11:21:11	11:27:47	394802	5e6ef5fbf14d264ae2ef3867	993959109	1	main_slash	7	advance_on_keypress_SLASH	144	stimuli_distractor_trianglediamonds.svg	stimuli_target_circlediamonds.svg	10	yes	57	0	107
6.6.1	win	2022-12-16	11:21:11	11:27:48	396250	5e6ef5fbf14d264ae2ef3867	993959109	1	main_slash	7	main_slash	145	stimuli_distractor_trianglediamonds.svg	stimuli_target_trianglesquares.svg	26	yes	53	1	729
6.6.1	win	2022-12-16	11:21:11	11:27:48	396250	5e6ef5fbf14d264ae2ef3867	993959109	1	main_slash	7	advance_on_keypress_SLASH	146	stimuli_distractor_trianglediamonds.svg	stimuli_target_trianglesquares.svg	26	yes	57	0	106
6.6.1	win	2022-12-16	11:21:11	11:27:50	397742	5e6ef5fbf14d264ae2ef3867	993959109	1	main_slash	7	main_slash	147	stimuli_target_circletriangles.svg	stimuli_distractor_trianglediamonds.svg	1	yes	53	1	773
6.6.1	win	2022-12-16	11:21:11	11:27:50	397742	5e6ef5fbf14d264ae2ef3867	993959109	1	main_slash	7	advance_on_keypress_SLASH	148	stimuli_target_circletriangles.svg	stimuli_distractor_trianglediamonds.svg	1	yes	57	0	108
6.6.1	win	2022-12-16	11:21:11	11:27:51	399189	5e6ef5fbf14d264ae2ef3867	993959109	1	main_slash	7	main_slash	149	stimuli_target_circletriangles.svg	stimuli_distractor_diamondtriangles.svg	5	yes	53	1	730
6.6.1	win	2022-12-16	11:21:11	11:27:51	399189	5e6ef5fbf14d264ae2ef3867	993959109	1	main_slash	7	advance_on_keypress_SLASH	150	stimuli_target_circletriangles.svg	stimuli_distractor_diamondtriangles.svg	5	yes	57	0	108
6.6.1	win	2022-12-16	11:21:11	11:27:54	401913	5e6ef5fbf14d264ae2ef3867	993959109	1	main_slash	7	main_slash	151	stimuli_distractor_diamondtriangles.svg	stimuli_distractor_trianglediamonds.svg	38	no	0	1	2000
6.6.1	win	2022-12-16	11:21:11	11:27:54	401913	5e6ef5fbf14d264ae2ef3867	993959109	1	main_slash	7	advance_on_keypress_SLASH	152	stimuli_distractor_diamondtriangles.svg	stimuli_distractor_trianglediamonds.svg	38	no	57	0	275
6.6.1	win	2022-12-16	11:21:11	11:27:55	403248	5e6ef5fbf14d264ae2ef3867	993959109	1	main_slash	7	main_slash	153	stimuli_distractor_diamondtriangles.svg	stimuli_target_trianglesquares.svg	30	yes	53	1	446
6.6.1	win	2022-12-16	11:21:11	11:27:55	403248	5e6ef5fbf14d264ae2ef3867	993959109	1	main_slash	7	advance_on_keypress_SLASH	154	stimuli_distractor_diamondtriangles.svg	stimuli_target_trianglesquares.svg	30	yes	57	0	108
6.6.1	win	2022-12-16	11:21:11	11:27:56	404544	5e6ef5fbf14d264ae2ef3867	993959109	1	main_slash	7	main_slash	155	stimuli_target_diamondsquares.svg	stimuli_distractor_diamondtriangles.svg	24	yes	53	1	573
6.6.1	win	2022-12-16	11:21:11	11:27:56	404544	5e6ef5fbf14d264ae2ef3867	993959109	1	main_slash	7	advance_on_keypress_SLASH	156	stimuli_target_diamondsquares.svg	stimuli_distractor_diamondtriangles.svg	24	yes	57	0	108
6.6.1	win	2022-12-16	11:21:11	11:27:58	405840	5e6ef5fbf14d264ae2ef3867	993959109	1	main_slash	7	main_slash	157	stimuli_target_squarediamonds.svg	stimuli_distractor_trianglediamonds.svg	4	yes	53	1	573
6.6.1	win	2022-12-16	11:21:11	11:27:58	405840	5e6ef5fbf14d264ae2ef3867	993959109	1	main_slash	7	advance_on_keypress_SLASH	158	stimuli_target_squarediamonds.svg	stimuli_distractor_trianglediamonds.svg	4	yes	57	0	81
6.6.1	win	2022-12-16	11:21:11	11:27:59	407092	5e6ef5fbf14d264ae2ef3867	993959109	1	main_slash	7	main_slash	159	stimuli_distractor_diamondtriangles.svg	stimuli_target_squarediamonds.svg	16	yes	53	1	559
6.6.1	win	2022-12-16	11:21:11	11:27:59	407092	5e6ef5fbf14d264ae2ef3867	993959109	1	main_slash	7	advance_on_keypress_SLASH	160	stimuli_distractor_diamondtriangles.svg	stimuli_target_squarediamonds.svg	16	yes	57	0	128
6.6.1	win	2022-12-16	11:21:11	11:28:14	422277	5e6ef5fbf14d264ae2ef3867	993959109	1	practice_z	9	practice_z	1	stimuli_distractor_trianglediamonds.svg	stimuli_target_diamondcircles.svg	12	yes	44	1	543
6.6.1	win	2022-12-16	11:21:11	11:28:14	422277	5e6ef5fbf14d264ae2ef3867	993959109	1	practice_z	9	advance_on_keypress_ZEE	2	stimuli_distractor_trianglediamonds.svg	stimuli_target_diamondcircles.svg	12	yes	57	0	432
6.6.1	win	2022-12-16	11:21:11	11:28:17	424851	5e6ef5fbf14d264ae2ef3867	993959109	1	practice_z	9	practice_z	3	stimuli_distractor_diamondtriangles.svg	stimuli_target_trianglecircles.svg	9	yes	44	1	521
6.6.1	win	2022-12-16	11:21:11	11:28:17	424851	5e6ef5fbf14d264ae2ef3867	993959109	1	practice_z	9	advance_on_keypress_ZEE	4	stimuli_distractor_diamondtriangles.svg	stimuli_target_trianglecircles.svg	9	yes	57	0	246
6.6.1	win	2022-12-16	11:21:11	11:28:20	428720	5e6ef5fbf14d264ae2ef3867	993959109	1	practice_z	9	practice_z	5	stimuli_distractor_diamondtriangles.svg	stimuli_distractor_trianglediamonds.svg	14	no	0	1	2000
6.6.1	win	2022-12-16	11:21:11	11:28:20	428720	5e6ef5fbf14d264ae2ef3867	993959109	1	practice_z	9	advance_on_keypress_ZEE	6	stimuli_distractor_diamondtriangles.svg	stimuli_distractor_trianglediamonds.svg	14	no	57	0	207
6.6.1	win	2022-12-16	11:21:11	11:28:23	431407	5e6ef5fbf14d264ae2ef3867	993959109	1	practice_z	9	practice_z	7	stimuli_target_diamondsquares.svg	stimuli_distractor_diamondtriangles.svg	3	yes	44	1	865
6.6.1	win	2022-12-16	11:21:11	11:28:23	431407	5e6ef5fbf14d264ae2ef3867	993959109	1	practice_z	9	advance_on_keypress_ZEE	8	stimuli_target_diamondsquares.svg	stimuli_distractor_diamondtriangles.svg	3	yes	57	0	338
6.6.1	win	2022-12-16	11:21:11	11:28:26	434424	5e6ef5fbf14d264ae2ef3867	993959109	1	practice_z	9	practice_z	9	stimuli_distractor_diamondtriangles.svg	stimuli_distractor_diamondtriangles.svg	13	no	44	0	1059
6.6.1	win	2022-12-16	11:21:11	11:28:26	434424	5e6ef5fbf14d264ae2ef3867	993959109	1	practice_z	9	advance_on_keypress_ZEE	10	stimuli_distractor_diamondtriangles.svg	stimuli_distractor_diamondtriangles.svg	13	no	57	0	330
6.6.1	win	2022-12-16	11:21:11	11:28:30	438376	5e6ef5fbf14d264ae2ef3867	993959109	1	practice_z	9	practice_z	11	stimuli_distractor_trianglediamonds.svg	stimuli_distractor_diamondtriangles.svg	16	no	0	1	2000
6.6.1	win	2022-12-16	11:21:11	11:28:30	438376	5e6ef5fbf14d264ae2ef3867	993959109	1	practice_z	9	advance_on_keypress_ZEE	12	stimuli_distractor_trianglediamonds.svg	stimuli_distractor_diamondtriangles.svg	16	no	57	0	380
6.6.1	win	2022-12-16	11:21:11	11:28:33	441150	5e6ef5fbf14d264ae2ef3867	993959109	1	practice_z	9	practice_z	13	stimuli_distractor_trianglediamonds.svg	stimuli_target_squarediamonds.svg	11	yes	44	1	776
6.6.1	win	2022-12-16	11:21:11	11:28:33	441150	5e6ef5fbf14d264ae2ef3867	993959109	1	practice_z	9	advance_on_keypress_ZEE	14	stimuli_distractor_trianglediamonds.svg	stimuli_target_squarediamonds.svg	11	yes	57	0	232
6.6.1	win	2022-12-16	11:21:11	11:28:35	443668	5e6ef5fbf14d264ae2ef3867	993959109	1	practice_z	9	practice_z	15	stimuli_target_squarediamonds.svg	stimuli_distractor_diamondtriangles.svg	2	yes	44	1	672
6.6.1	win	2022-12-16	11:21:11	11:28:35	443668	5e6ef5fbf14d264ae2ef3867	993959109	1	practice_z	9	advance_on_keypress_ZEE	16	stimuli_target_squarediamonds.svg	stimuli_distractor_diamondtriangles.svg	2	yes	57	0	244
6.6.1	win	2022-12-16	11:21:11	11:28:38	446135	5e6ef5fbf14d264ae2ef3867	993959109	1	practice_z	9	practice_z	17	stimuli_target_squarediamonds.svg	stimuli_distractor_trianglediamonds.svg	5	yes	44	1	601
6.6.1	win	2022-12-16	11:21:11	11:28:38	446135	5e6ef5fbf14d264ae2ef3867	993959109	1	practice_z	9	advance_on_keypress_ZEE	18	stimuli_target_squarediamonds.svg	stimuli_distractor_trianglediamonds.svg	5	yes	57	0	341
6.6.1	win	2022-12-16	11:21:11	11:28:41	448957	5e6ef5fbf14d264ae2ef3867	993959109	1	practice_z	9	practice_z	19	stimuli_target_diamondsquares.svg	stimuli_distractor_trianglediamonds.svg	6	yes	44	1	866
6.6.1	win	2022-12-16	11:21:11	11:28:41	448957	5e6ef5fbf14d264ae2ef3867	993959109	1	practice_z	9	advance_on_keypress_ZEE	20	stimuli_target_diamondsquares.svg	stimuli_distractor_trianglediamonds.svg	6	yes	57	0	331
6.6.1	win	2022-12-16	11:21:11	11:28:43	451597	5e6ef5fbf14d264ae2ef3867	993959109	1	practice_z	9	practice_z	21	stimuli_distractor_trianglediamonds.svg	stimuli_target_circlediamonds.svg	10	yes	44	1	690
6.6.1	win	2022-12-16	11:21:11	11:28:43	451597	5e6ef5fbf14d264ae2ef3867	993959109	1	practice_z	9	advance_on_keypress_ZEE	22	stimuli_distractor_trianglediamonds.svg	stimuli_target_circlediamonds.svg	10	yes	57	0	352
6.6.1	win	2022-12-16	11:21:11	11:28:46	454368	5e6ef5fbf14d264ae2ef3867	993959109	1	practice_z	9	practice_z	23	stimuli_target_circlediamonds.svg	stimuli_distractor_diamondtriangles.svg	1	yes	44	1	800
6.6.1	win	2022-12-16	11:21:11	11:28:46	454368	5e6ef5fbf14d264ae2ef3867	993959109	1	practice_z	9	advance_on_keypress_ZEE	24	stimuli_target_circlediamonds.svg	stimuli_distractor_diamondtriangles.svg	1	yes	57	0	375
6.6.1	win	2022-12-16	11:21:11	11:28:50	458360	5e6ef5fbf14d264ae2ef3867	993959109	1	practice_z	9	practice_z	25	stimuli_distractor_trianglediamonds.svg	stimuli_distractor_trianglediamonds.svg	15	no	0	1	2000
6.6.1	win	2022-12-16	11:21:11	11:28:50	458360	5e6ef5fbf14d264ae2ef3867	993959109	1	practice_z	9	advance_on_keypress_ZEE	26	stimuli_distractor_trianglediamonds.svg	stimuli_distractor_trianglediamonds.svg	15	no	57	0	316
6.6.1	win	2022-12-16	11:21:11	11:28:53	461243	5e6ef5fbf14d264ae2ef3867	993959109	1	practice_z	9	practice_z	27	stimuli_distractor_diamondtriangles.svg	stimuli_target_diamondcircles.svg	8	yes	44	1	952
6.6.1	win	2022-12-16	11:21:11	11:28:53	461243	5e6ef5fbf14d264ae2ef3867	993959109	1	practice_z	9	advance_on_keypress_ZEE	28	stimuli_distractor_diamondtriangles.svg	stimuli_target_diamondcircles.svg	8	yes	57	0	1244
6.6.1	win	2022-12-16	11:21:11	11:28:56	464665	5e6ef5fbf14d264ae2ef3867	993959109	1	practice_z	9	practice_z	29	stimuli_target_circlediamonds.svg	stimuli_distractor_trianglediamonds.svg	4	yes	44	1	563
6.6.1	win	2022-12-16	11:21:11	11:28:56	464665	5e6ef5fbf14d264ae2ef3867	993959109	1	practice_z	9	advance_on_keypress_ZEE	30	stimuli_target_circlediamonds.svg	stimuli_distractor_trianglediamonds.svg	4	yes	57	0	331
6.6.1	win	2022-12-16	11:21:11	11:28:59	467153	5e6ef5fbf14d264ae2ef3867	993959109	1	practice_z	9	practice_z	31	stimuli_distractor_diamondtriangles.svg	stimuli_target_circletriangles.svg	7	yes	44	1	538
6.6.1	win	2022-12-16	11:21:11	11:28:59	467153	5e6ef5fbf14d264ae2ef3867	993959109	1	practice_z	9	advance_on_keypress_ZEE	32	stimuli_distractor_diamondtriangles.svg	stimuli_target_circletriangles.svg	7	yes	57	0	308
6.6.1	win	2022-12-16	11:21:11	11:29:02	470079	5e6ef5fbf14d264ae2ef3867	993959109	1	main_z	11	main_z	1	stimuli_distractor_trianglediamonds.svg	stimuli_target_trianglecircles.svg	25	yes	44	1	485
6.6.1	win	2022-12-16	11:21:11	11:29:02	470079	5e6ef5fbf14d264ae2ef3867	993959109	1	main_z	11	advance_on_keypress_ZEE	2	stimuli_distractor_trianglediamonds.svg	stimuli_target_trianglecircles.svg	25	yes	57	0	595
6.6.1	win	2022-12-16	11:21:11	11:29:03	471701	5e6ef5fbf14d264ae2ef3867	993959109	1	main_z	11	main_z	3	stimuli_target_circlediamonds.svg	stimuli_distractor_diamondtriangles.svg	6	yes	44	1	411
6.6.1	win	2022-12-16	11:21:11	11:29:03	471701	5e6ef5fbf14d264ae2ef3867	993959109	1	main_z	11	advance_on_keypress_ZEE	4	stimuli_target_circlediamonds.svg	stimuli_distractor_diamondtriangles.svg	6	yes	57	0	267
6.6.1	win	2022-12-16	11:21:11	11:29:05	472953	5e6ef5fbf14d264ae2ef3867	993959109	1	main_z	11	main_z	5	stimuli_target_trianglecircles.svg	stimuli_distractor_diamondtriangles.svg	21	yes	44	1	366
6.6.1	win	2022-12-16	11:21:11	11:29:05	472953	5e6ef5fbf14d264ae2ef3867	993959109	1	main_z	11	advance_on_keypress_ZEE	6	stimuli_target_trianglecircles.svg	stimuli_distractor_diamondtriangles.svg	21	yes	57	0	163
6.6.1	win	2022-12-16	11:21:11	11:29:06	474293	5e6ef5fbf14d264ae2ef3867	993959109	1	main_z	11	main_z	7	stimuli_distractor_diamondtriangles.svg	stimuli_target_circlediamonds.svg	14	yes	44	1	562
6.6.1	win	2022-12-16	11:21:11	11:29:06	474293	5e6ef5fbf14d264ae2ef3867	993959109	1	main_z	11	advance_on_keypress_ZEE	8	stimuli_distractor_diamondtriangles.svg	stimuli_target_circlediamonds.svg	14	yes	57	0	245
6.6.1	win	2022-12-16	11:21:11	11:29:07	475610	5e6ef5fbf14d264ae2ef3867	993959109	1	main_z	11	main_z	9	stimuli_target_squaretriangles.svg	stimuli_distractor_trianglediamonds.svg	3	yes	44	1	455
6.6.1	win	2022-12-16	11:21:11	11:29:07	475610	5e6ef5fbf14d264ae2ef3867	993959109	1	main_z	11	advance_on_keypress_ZEE	10	stimuli_target_squaretriangles.svg	stimuli_distractor_trianglediamonds.svg	3	yes	57	0	161
6.6.1	win	2022-12-16	11:21:11	11:29:09	477014	5e6ef5fbf14d264ae2ef3867	993959109	1	main_z	11	main_z	11	stimuli_target_trianglesquares.svg	stimuli_distractor_trianglediamonds.svg	18	yes	44	1	629
6.6.1	win	2022-12-16	11:21:11	11:29:09	477014	5e6ef5fbf14d264ae2ef3867	993959109	1	main_z	11	advance_on_keypress_ZEE	12	stimuli_target_trianglesquares.svg	stimuli_distractor_trianglediamonds.svg	18	yes	57	0	203
6.6.1	win	2022-12-16	11:21:11	11:29:12	479833	5e6ef5fbf14d264ae2ef3867	993959109	1	main_z	11	main_z	13	stimuli_distractor_diamondtriangles.svg	stimuli_distractor_diamondtriangles.svg	39	no	0	1	2000
6.6.1	win	2022-12-16	11:21:11	11:29:12	479833	5e6ef5fbf14d264ae2ef3867	993959109	1	main_z	11	advance_on_keypress_ZEE	14	stimuli_distractor_diamondtriangles.svg	stimuli_distractor_diamondtriangles.svg	39	no	57	0	236
6.6.1	win	2022-12-16	11:21:11	11:29:13	481095	5e6ef5fbf14d264ae2ef3867	993959109	1	main_z	11	main_z	15	stimuli_distractor_diamondtriangles.svg	stimuli_target_diamondsquares.svg	32	yes	44	1	409
6.6.1	win	2022-12-16	11:21:11	11:29:13	481095	5e6ef5fbf14d264ae2ef3867	993959109	1	main_z	11	advance_on_keypress_ZEE	16	stimuli_distractor_diamondtriangles.svg	stimuli_target_diamondsquares.svg	32	yes	57	0	141
6.6.1	win	2022-12-16	11:21:11	11:29:14	482499	5e6ef5fbf14d264ae2ef3867	993959109	1	main_z	11	main_z	17	stimuli_distractor_trianglediamonds.svg	stimuli_target_squarediamonds.svg	12	yes	44	1	650
6.6.1	win	2022-12-16	11:21:11	11:29:14	482499	5e6ef5fbf14d264ae2ef3867	993959109	1	main_z	11	advance_on_keypress_ZEE	18	stimuli_distractor_trianglediamonds.svg	stimuli_target_squarediamonds.svg	12	yes	57	0	228
6.6.1	win	2022-12-16	11:21:11	11:29:16	483839	5e6ef5fbf14d264ae2ef3867	993959109	1	main_z	11	main_z	19	stimuli_target_diamondcircles.svg	stimuli_distractor_diamondtriangles.svg	23	yes	44	1	500
6.6.1	win	2022-12-16	11:21:11	11:29:16	483839	5e6ef5fbf14d264ae2ef3867	993959109	1	main_z	11	advance_on_keypress_ZEE	20	stimuli_target_diamondcircles.svg	stimuli_distractor_diamondtriangles.svg	23	yes	57	0	228
6.6.1	win	2022-12-16	11:21:11	11:29:18	486678	5e6ef5fbf14d264ae2ef3867	993959109	1	main_z	11	main_z	21	stimuli_distractor_trianglediamonds.svg	stimuli_distractor_trianglediamonds.svg	34	no	0	1	2000
6.6.1	win	2022-12-16	11:21:11	11:29:18	486678	5e6ef5fbf14d264ae2ef3867	993959109	1	main_z	11	advance_on_keypress_ZEE	22	stimuli_distractor_trianglediamonds.svg	stimuli_distractor_trianglediamonds.svg	34	no	57	0	302
6.6.1	win	2022-12-16	11:21:11	11:29:20	488027	5e6ef5fbf14d264ae2ef3867	993959109	1	main_z	11	main_z	23	stimuli_target_squarediamonds.svg	stimuli_distractor_diamondtriangles.svg	8	yes	44	1	430
6.6.1	win	2022-12-16	11:21:11	11:29:20	488027	5e6ef5fbf14d264ae2ef3867	993959109	1	main_z	11	advance_on_keypress_ZEE	24	stimuli_target_squarediamonds.svg	stimuli_distractor_diamondtriangles.svg	8	yes	57	0	138
6.6.1	win	2022-12-16	11:21:11	11:29:23	490786	5e6ef5fbf14d264ae2ef3867	993959109	1	main_z	11	main_z	25	stimuli_distractor_diamondtriangles.svg	stimuli_distractor_trianglediamonds.svg	37	no	0	1	2000
6.6.1	win	2022-12-16	11:21:11	11:29:23	490786	5e6ef5fbf14d264ae2ef3867	993959109	1	main_z	11	advance_on_keypress_ZEE	26	stimuli_distractor_diamondtriangles.svg	stimuli_distractor_trianglediamonds.svg	37	no	57	0	232
6.6.1	win	2022-12-16	11:21:11	11:29:24	492000	5e6ef5fbf14d264ae2ef3867	993959109	1	main_z	11	main_z	27	stimuli_distractor_trianglediamonds.svg	stimuli_target_circlediamonds.svg	10	yes	44	1	367
6.6.1	win	2022-12-16	11:21:11	11:29:24	492000	5e6ef5fbf14d264ae2ef3867	993959109	1	main_z	11	advance_on_keypress_ZEE	28	stimuli_distractor_trianglediamonds.svg	stimuli_target_circlediamonds.svg	10	yes	57	0	113
6.6.1	win	2022-12-16	11:21:11	11:29:25	493100	5e6ef5fbf14d264ae2ef3867	993959109	1	main_z	11	main_z	29	stimuli_target_diamondcircles.svg	stimuli_distractor_trianglediamonds.svg	19	yes	44	1	366
6.6.1	win	2022-12-16	11:21:11	11:29:25	493100	5e6ef5fbf14d264ae2ef3867	993959109	1	main_z	11	advance_on_keypress_ZEE	30	stimuli_target_diamondcircles.svg	stimuli_distractor_trianglediamonds.svg	19	yes	57	0	119
6.6.1	win	2022-12-16	11:21:11	11:29:28	495832	5e6ef5fbf14d264ae2ef3867	993959109	1	main_z	11	main_z	31	stimuli_distractor_diamondtriangles.svg	stimuli_distractor_diamondtriangles.svg	40	no	0	1	2000
6.6.1	win	2022-12-16	11:21:11	11:29:28	495832	5e6ef5fbf14d264ae2ef3867	993959109	1	main_z	11	advance_on_keypress_ZEE	32	stimuli_distractor_diamondtriangles.svg	stimuli_distractor_diamondtriangles.svg	40	no	57	0	258
6.6.1	win	2022-12-16	11:21:11	11:29:29	497202	5e6ef5fbf14d264ae2ef3867	993959109	1	main_z	11	main_z	33	stimuli_distractor_diamondtriangles.svg	stimuli_target_diamondcircles.svg	31	yes	44	1	500
6.6.1	win	2022-12-16	11:21:11	11:29:29	497202	5e6ef5fbf14d264ae2ef3867	993959109	1	main_z	11	advance_on_keypress_ZEE	34	stimuli_distractor_diamondtriangles.svg	stimuli_target_diamondcircles.svg	31	yes	57	0	120
6.6.1	win	2022-12-16	11:21:11	11:29:32	499939	5e6ef5fbf14d264ae2ef3867	993959109	1	main_z	11	main_z	35	stimuli_distractor_trianglediamonds.svg	stimuli_distractor_diamondtriangles.svg	35	no	0	1	2000
6.6.1	win	2022-12-16	11:21:11	11:29:32	499939	5e6ef5fbf14d264ae2ef3867	993959109	1	main_z	11	advance_on_keypress_ZEE	36	stimuli_distractor_trianglediamonds.svg	stimuli_distractor_diamondtriangles.svg	35	no	57	0	230
6.6.1	win	2022-12-16	11:21:11	11:29:33	501195	5e6ef5fbf14d264ae2ef3867	993959109	1	main_z	11	main_z	37	stimuli_target_diamondsquares.svg	stimuli_distractor_diamondtriangles.svg	24	yes	44	1	410
6.6.1	win	2022-12-16	11:21:11	11:29:33	501195	5e6ef5fbf14d264ae2ef3867	993959109	1	main_z	11	advance_on_keypress_ZEE	38	stimuli_target_diamondsquares.svg	stimuli_distractor_diamondtriangles.svg	24	yes	57	0	100
6.6.1	win	2022-12-16	11:21:11	11:29:34	502361	5e6ef5fbf14d264ae2ef3867	993959109	1	main_z	11	main_z	39	stimuli_distractor_trianglediamonds.svg	stimuli_target_squaretriangles.svg	11	yes	44	1	455
6.6.1	win	2022-12-16	11:21:11	11:29:34	502361	5e6ef5fbf14d264ae2ef3867	993959109	1	main_z	11	advance_on_keypress_ZEE	40	stimuli_distractor_trianglediamonds.svg	stimuli_target_squaretriangles.svg	11	yes	57	0	117
6.6.1	win	2022-12-16	11:21:11	11:29:35	503485	5e6ef5fbf14d264ae2ef3867	993959109	1	main_z	11	main_z	41	stimuli_target_squaretriangles.svg	stimuli_distractor_diamondtriangles.svg	7	yes	44	1	391
6.6.1	win	2022-12-16	11:21:11	11:29:35	503485	5e6ef5fbf14d264ae2ef3867	993959109	1	main_z	11	advance_on_keypress_ZEE	42	stimuli_target_squaretriangles.svg	stimuli_distractor_diamondtriangles.svg	7	yes	57	0	99
6.6.1	win	2022-12-16	11:21:11	11:29:36	504542	5e6ef5fbf14d264ae2ef3867	993959109	1	main_z	11	main_z	43	stimuli_distractor_trianglediamonds.svg	stimuli_target_diamondsquares.svg	28	yes	44	1	346
6.6.1	win	2022-12-16	11:21:11	11:29:36	504542	5e6ef5fbf14d264ae2ef3867	993959109	1	main_z	11	advance_on_keypress_ZEE	44	stimuli_distractor_trianglediamonds.svg	stimuli_target_diamondsquares.svg	28	yes	57	0	96
6.6.1	win	2022-12-16	11:21:11	11:29:37	505556	5e6ef5fbf14d264ae2ef3867	993959109	1	main_z	11	main_z	45	stimuli_distractor_diamondtriangles.svg	stimuli_target_trianglesquares.svg	30	yes	44	1	300
6.6.1	win	2022-12-16	11:21:11	11:29:37	505556	5e6ef5fbf14d264ae2ef3867	993959109	1	main_z	11	advance_on_keypress_ZEE	46	stimuli_distractor_diamondtriangles.svg	stimuli_target_trianglesquares.svg	30	yes	57	0	72
6.6.1	win	2022-12-16	11:21:11	11:29:38	506526	5e6ef5fbf14d264ae2ef3867	993959109	1	main_z	11	main_z	47	stimuli_target_circletriangles.svg	stimuli_distractor_diamondtriangles.svg	5	yes	44	1	283
6.6.1	win	2022-12-16	11:21:11	11:29:38	506526	5e6ef5fbf14d264ae2ef3867	993959109	1	main_z	11	advance_on_keypress_ZEE	48	stimuli_target_circletriangles.svg	stimuli_distractor_diamondtriangles.svg	5	yes	57	0	67
6.6.1	win	2022-12-16	11:21:11	11:29:39	507541	5e6ef5fbf14d264ae2ef3867	993959109	1	main_z	11	main_z	49	stimuli_distractor_diamondtriangles.svg	stimuli_target_squaretriangles.svg	15	yes	44	1	328
6.6.1	win	2022-12-16	11:21:11	11:29:39	507541	5e6ef5fbf14d264ae2ef3867	993959109	1	main_z	11	advance_on_keypress_ZEE	50	stimuli_distractor_diamondtriangles.svg	stimuli_target_squaretriangles.svg	15	yes	57	0	73
6.6.1	win	2022-12-16	11:21:11	11:29:40	508597	5e6ef5fbf14d264ae2ef3867	993959109	1	main_z	11	main_z	51	stimuli_target_circletriangles.svg	stimuli_distractor_trianglediamonds.svg	1	yes	44	1	367
6.6.1	win	2022-12-16	11:21:11	11:29:40	508597	5e6ef5fbf14d264ae2ef3867	993959109	1	main_z	11	advance_on_keypress_ZEE	52	stimuli_target_circletriangles.svg	stimuli_distractor_trianglediamonds.svg	1	yes	57	0	98
6.6.1	win	2022-12-16	11:21:11	11:29:41	509611	5e6ef5fbf14d264ae2ef3867	993959109	1	main_z	11	main_z	53	stimuli_distractor_trianglediamonds.svg	stimuli_target_diamondcircles.svg	27	yes	44	1	303
6.6.1	win	2022-12-16	11:21:11	11:29:41	509611	5e6ef5fbf14d264ae2ef3867	993959109	1	main_z	11	advance_on_keypress_ZEE	54	stimuli_distractor_trianglediamonds.svg	stimuli_target_diamondcircles.svg	27	yes	57	0	72
6.6.1	win	2022-12-16	11:21:11	11:29:42	510603	5e6ef5fbf14d264ae2ef3867	993959109	1	main_z	11	main_z	55	stimuli_distractor_diamondtriangles.svg	stimuli_distractor_trianglediamonds.svg	38	no	44	0	302
6.6.1	win	2022-12-16	11:21:11	11:29:42	510603	5e6ef5fbf14d264ae2ef3867	993959109	1	main_z	11	advance_on_keypress_ZEE	56	stimuli_distractor_diamondtriangles.svg	stimuli_distractor_trianglediamonds.svg	38	no	57	0	93
6.6.1	win	2022-12-16	11:21:11	11:29:44	511921	5e6ef5fbf14d264ae2ef3867	993959109	1	main_z	11	main_z	57	stimuli_distractor_diamondtriangles.svg	stimuli_target_squarediamonds.svg	16	yes	44	1	608
6.6.1	win	2022-12-16	11:21:11	11:29:44	511921	5e6ef5fbf14d264ae2ef3867	993959109	1	main_z	11	advance_on_keypress_ZEE	58	stimuli_distractor_diamondtriangles.svg	stimuli_target_squarediamonds.svg	16	yes	57	0	74
6.6.1	win	2022-12-16	11:21:11	11:29:46	514610	5e6ef5fbf14d264ae2ef3867	993959109	1	main_z	11	main_z	59	stimuli_distractor_trianglediamonds.svg	stimuli_distractor_trianglediamonds.svg	33	no	0	1	2000
6.6.1	win	2022-12-16	11:21:11	11:29:46	514610	5e6ef5fbf14d264ae2ef3867	993959109	1	main_z	11	advance_on_keypress_ZEE	60	stimuli_distractor_trianglediamonds.svg	stimuli_distractor_trianglediamonds.svg	33	no	57	0	300
6.6.1	win	2022-12-16	11:21:11	11:29:49	517524	5e6ef5fbf14d264ae2ef3867	993959109	1	main_z	11	main_z	61	stimuli_distractor_trianglediamonds.svg	stimuli_distractor_diamondtriangles.svg	36	no	0	1	2000
6.6.1	win	2022-12-16	11:21:11	11:29:49	517524	5e6ef5fbf14d264ae2ef3867	993959109	1	main_z	11	advance_on_keypress_ZEE	62	stimuli_distractor_trianglediamonds.svg	stimuli_distractor_diamondtriangles.svg	36	no	57	0	235
6.6.1	win	2022-12-16	11:21:11	11:29:51	518896	5e6ef5fbf14d264ae2ef3867	993959109	1	main_z	11	main_z	63	stimuli_distractor_trianglediamonds.svg	stimuli_target_circletriangles.svg	9	yes	44	1	518
6.6.1	win	2022-12-16	11:21:11	11:29:51	518896	5e6ef5fbf14d264ae2ef3867	993959109	1	main_z	11	advance_on_keypress_ZEE	64	stimuli_distractor_trianglediamonds.svg	stimuli_target_circletriangles.svg	9	yes	57	0	69
6.6.1	win	2022-12-16	11:21:11	11:29:52	519930	5e6ef5fbf14d264ae2ef3867	993959109	1	main_z	11	main_z	65	stimuli_target_circlediamonds.svg	stimuli_distractor_trianglediamonds.svg	2	yes	44	1	347
6.6.1	win	2022-12-16	11:21:11	11:29:52	519930	5e6ef5fbf14d264ae2ef3867	993959109	1	main_z	11	advance_on_keypress_ZEE	66	stimuli_target_circlediamonds.svg	stimuli_distractor_trianglediamonds.svg	2	yes	57	0	75
6.6.1	win	2022-12-16	11:21:11	11:29:53	520922	5e6ef5fbf14d264ae2ef3867	993959109	1	main_z	11	main_z	67	stimuli_distractor_diamondtriangles.svg	stimuli_target_circletriangles.svg	13	yes	44	1	304
6.6.1	win	2022-12-16	11:21:11	11:29:53	520922	5e6ef5fbf14d264ae2ef3867	993959109	1	main_z	11	advance_on_keypress_ZEE	68	stimuli_distractor_diamondtriangles.svg	stimuli_target_circletriangles.svg	13	yes	57	0	96
6.6.1	win	2022-12-16	11:21:11	11:29:54	522001	5e6ef5fbf14d264ae2ef3867	993959109	1	main_z	11	main_z	69	stimuli_distractor_trianglediamonds.svg	stimuli_target_trianglesquares.svg	26	yes	44	1	366
6.6.1	win	2022-12-16	11:21:11	11:29:54	522001	5e6ef5fbf14d264ae2ef3867	993959109	1	main_z	11	advance_on_keypress_ZEE	70	stimuli_distractor_trianglediamonds.svg	stimuli_target_trianglesquares.svg	26	yes	57	0	96
6.6.1	win	2022-12-16	11:21:11	11:29:55	523037	5e6ef5fbf14d264ae2ef3867	993959109	1	main_z	11	main_z	71	stimuli_target_trianglesquares.svg	stimuli_distractor_diamondtriangles.svg	22	yes	44	1	323
6.6.1	win	2022-12-16	11:21:11	11:29:55	523037	5e6ef5fbf14d264ae2ef3867	993959109	1	main_z	11	advance_on_keypress_ZEE	72	stimuli_target_trianglesquares.svg	stimuli_distractor_diamondtriangles.svg	22	yes	57	0	97
6.6.1	win	2022-12-16	11:21:11	11:29:56	524051	5e6ef5fbf14d264ae2ef3867	993959109	1	main_z	11	main_z	73	stimuli_target_trianglecircles.svg	stimuli_distractor_trianglediamonds.svg	17	yes	44	1	301
6.6.1	win	2022-12-16	11:21:11	11:29:56	524051	5e6ef5fbf14d264ae2ef3867	993959109	1	main_z	11	advance_on_keypress_ZEE	74	stimuli_target_trianglecircles.svg	stimuli_distractor_trianglediamonds.svg	17	yes	57	0	93
6.6.1	win	2022-12-16	11:21:11	11:29:57	525088	5e6ef5fbf14d264ae2ef3867	993959109	1	main_z	11	main_z	75	stimuli_target_diamondsquares.svg	stimuli_distractor_trianglediamonds.svg	20	yes	44	1	326
6.6.1	win	2022-12-16	11:21:11	11:29:57	525088	5e6ef5fbf14d264ae2ef3867	993959109	1	main_z	11	advance_on_keypress_ZEE	76	stimuli_target_diamondsquares.svg	stimuli_distractor_trianglediamonds.svg	20	yes	57	0	93
6.6.1	win	2022-12-16	11:21:11	11:29:58	526101	5e6ef5fbf14d264ae2ef3867	993959109	1	main_z	11	main_z	77	stimuli_distractor_diamondtriangles.svg	stimuli_target_trianglecircles.svg	29	yes	44	1	304
6.6.1	win	2022-12-16	11:21:11	11:29:58	526101	5e6ef5fbf14d264ae2ef3867	993959109	1	main_z	11	advance_on_keypress_ZEE	78	stimuli_distractor_diamondtriangles.svg	stimuli_target_trianglecircles.svg	29	yes	57	0	91
6.6.1	win	2022-12-16	11:21:11	11:29:59	527158	5e6ef5fbf14d264ae2ef3867	993959109	1	main_z	11	main_z	79	stimuli_target_squarediamonds.svg	stimuli_distractor_trianglediamonds.svg	4	yes	44	1	349
6.6.1	win	2022-12-16	11:21:11	11:29:59	527158	5e6ef5fbf14d264ae2ef3867	993959109	1	main_z	11	advance_on_keypress_ZEE	80	stimuli_target_squarediamonds.svg	stimuli_distractor_trianglediamonds.svg	4	yes	57	0	98
6.6.1	win	2022-12-16	11:21:11	11:30:00	528217	5e6ef5fbf14d264ae2ef3867	993959109	1	main_z	11	main_z	81	stimuli_target_diamondcircles.svg	stimuli_distractor_trianglediamonds.svg	19	yes	44	1	347
6.6.1	win	2022-12-16	11:21:11	11:30:00	528217	5e6ef5fbf14d264ae2ef3867	993959109	1	main_z	11	advance_on_keypress_ZEE	82	stimuli_target_diamondcircles.svg	stimuli_distractor_trianglediamonds.svg	19	yes	57	0	96
6.6.1	win	2022-12-16	11:21:11	11:30:01	529251	5e6ef5fbf14d264ae2ef3867	993959109	1	main_z	11	main_z	83	stimuli_distractor_trianglediamonds.svg	stimuli_target_circlediamonds.svg	10	yes	44	1	322
6.6.1	win	2022-12-16	11:21:11	11:30:01	529251	5e6ef5fbf14d264ae2ef3867	993959109	1	main_z	11	advance_on_keypress_ZEE	84	stimuli_distractor_trianglediamonds.svg	stimuli_target_circlediamonds.svg	10	yes	57	0	96
6.6.1	win	2022-12-16	11:21:11	11:30:02	530244	5e6ef5fbf14d264ae2ef3867	993959109	1	main_z	11	main_z	85	stimuli_target_squarediamonds.svg	stimuli_distractor_diamondtriangles.svg	8	yes	44	1	279
6.6.1	win	2022-12-16	11:21:11	11:30:02	530244	5e6ef5fbf14d264ae2ef3867	993959109	1	main_z	11	advance_on_keypress_ZEE	86	stimuli_target_squarediamonds.svg	stimuli_distractor_diamondtriangles.svg	8	yes	57	0	95
6.6.1	win	2022-12-16	11:21:11	11:30:05	532959	5e6ef5fbf14d264ae2ef3867	993959109	1	main_z	11	main_z	87	stimuli_distractor_diamondtriangles.svg	stimuli_distractor_trianglediamonds.svg	37	no	0	1	2000
6.6.1	win	2022-12-16	11:21:11	11:30:05	532959	5e6ef5fbf14d264ae2ef3867	993959109	1	main_z	11	advance_on_keypress_ZEE	88	stimuli_distractor_diamondtriangles.svg	stimuli_distractor_trianglediamonds.svg	37	no	57	0	361
6.6.1	win	2022-12-16	11:21:11	11:30:06	534325	5e6ef5fbf14d264ae2ef3867	993959109	1	main_z	11	main_z	89	stimuli_target_squarediamonds.svg	stimuli_distractor_trianglediamonds.svg	4	yes	44	1	393
6.6.1	win	2022-12-16	11:21:11	11:30:06	534325	5e6ef5fbf14d264ae2ef3867	993959109	1	main_z	11	advance_on_keypress_ZEE	90	stimuli_target_squarediamonds.svg	stimuli_distractor_trianglediamonds.svg	4	yes	57	0	93
6.6.1	win	2022-12-16	11:21:11	11:30:07	535317	5e6ef5fbf14d264ae2ef3867	993959109	1	main_z	11	main_z	91	stimuli_target_trianglesquares.svg	stimuli_distractor_diamondtriangles.svg	22	yes	44	1	282
6.6.1	win	2022-12-16	11:21:11	11:30:07	535317	5e6ef5fbf14d264ae2ef3867	993959109	1	main_z	11	advance_on_keypress_ZEE	92	stimuli_target_trianglesquares.svg	stimuli_distractor_diamondtriangles.svg	22	yes	57	0	99
6.6.1	win	2022-12-16	11:21:11	11:30:08	536332	5e6ef5fbf14d264ae2ef3867	993959109	1	main_z	11	main_z	93	stimuli_distractor_diamondtriangles.svg	stimuli_target_diamondcircles.svg	31	yes	44	1	303
6.6.1	win	2022-12-16	11:21:11	11:30:08	536332	5e6ef5fbf14d264ae2ef3867	993959109	1	main_z	11	advance_on_keypress_ZEE	94	stimuli_distractor_diamondtriangles.svg	stimuli_target_diamondcircles.svg	31	yes	57	0	73
6.6.1	win	2022-12-16	11:21:11	11:30:09	537367	5e6ef5fbf14d264ae2ef3867	993959109	1	main_z	11	main_z	95	stimuli_target_circlediamonds.svg	stimuli_distractor_diamondtriangles.svg	6	yes	44	1	345
6.6.1	win	2022-12-16	11:21:11	11:30:09	537367	5e6ef5fbf14d264ae2ef3867	993959109	1	main_z	11	advance_on_keypress_ZEE	96	stimuli_target_circlediamonds.svg	stimuli_distractor_diamondtriangles.svg	6	yes	57	0	73
6.6.1	win	2022-12-16	11:21:11	11:30:10	538338	5e6ef5fbf14d264ae2ef3867	993959109	1	main_z	11	main_z	97	stimuli_distractor_diamondtriangles.svg	stimuli_distractor_trianglediamonds.svg	38	no	44	0	280
6.6.1	win	2022-12-16	11:21:11	11:30:10	538338	5e6ef5fbf14d264ae2ef3867	993959109	1	main_z	11	advance_on_keypress_ZEE	98	stimuli_distractor_diamondtriangles.svg	stimuli_distractor_trianglediamonds.svg	38	no	57	0	96
6.6.1	win	2022-12-16	11:21:11	11:30:11	539482	5e6ef5fbf14d264ae2ef3867	993959109	1	main_z	11	main_z	99	stimuli_distractor_trianglediamonds.svg	stimuli_target_trianglesquares.svg	26	yes	44	1	431
6.6.1	win	2022-12-16	11:21:11	11:30:11	539482	5e6ef5fbf14d264ae2ef3867	993959109	1	main_z	11	advance_on_keypress_ZEE	100	stimuli_distractor_trianglediamonds.svg	stimuli_target_trianglesquares.svg	26	yes	57	0	96
6.6.1	win	2022-12-16	11:21:11	11:30:12	540518	5e6ef5fbf14d264ae2ef3867	993959109	1	main_z	11	main_z	101	stimuli_distractor_trianglediamonds.svg	stimuli_target_diamondsquares.svg	28	yes	44	1	322
6.6.1	win	2022-12-16	11:21:11	11:30:12	540518	5e6ef5fbf14d264ae2ef3867	993959109	1	main_z	11	advance_on_keypress_ZEE	102	stimuli_distractor_trianglediamonds.svg	stimuli_target_diamondsquares.svg	28	yes	57	0	96
6.6.1	win	2022-12-16	11:21:11	11:30:13	541597	5e6ef5fbf14d264ae2ef3867	993959109	1	main_z	11	main_z	103	stimuli_distractor_trianglediamonds.svg	stimuli_target_squarediamonds.svg	12	yes	44	1	365
6.6.1	win	2022-12-16	11:21:11	11:30:13	541597	5e6ef5fbf14d264ae2ef3867	993959109	1	main_z	11	advance_on_keypress_ZEE	104	stimuli_distractor_trianglediamonds.svg	stimuli_target_squarediamonds.svg	12	yes	57	0	162
6.6.1	win	2022-12-16	11:21:11	11:30:16	544378	5e6ef5fbf14d264ae2ef3867	993959109	1	main_z	11	main_z	105	stimuli_distractor_diamondtriangles.svg	stimuli_distractor_diamondtriangles.svg	39	no	0	1	2000
6.6.1	win	2022-12-16	11:21:11	11:30:16	544378	5e6ef5fbf14d264ae2ef3867	993959109	1	main_z	11	advance_on_keypress_ZEE	106	stimuli_distractor_diamondtriangles.svg	stimuli_distractor_diamondtriangles.svg	39	no	57	0	253
6.6.1	win	2022-12-16	11:21:11	11:30:17	545700	5e6ef5fbf14d264ae2ef3867	993959109	1	main_z	11	main_z	107	stimuli_target_diamondsquares.svg	stimuli_distractor_diamondtriangles.svg	24	yes	44	1	452
6.6.1	win	2022-12-16	11:21:11	11:30:17	545700	5e6ef5fbf14d264ae2ef3867	993959109	1	main_z	11	advance_on_keypress_ZEE	108	stimuli_target_diamondsquares.svg	stimuli_distractor_diamondtriangles.svg	24	yes	57	0	120
6.6.1	win	2022-12-16	11:21:11	11:30:19	546780	5e6ef5fbf14d264ae2ef3867	993959109	1	main_z	11	main_z	109	stimuli_target_squaretriangles.svg	stimuli_distractor_trianglediamonds.svg	3	yes	44	1	350
6.6.1	win	2022-12-16	11:21:11	11:30:19	546780	5e6ef5fbf14d264ae2ef3867	993959109	1	main_z	11	advance_on_keypress_ZEE	110	stimuli_target_squaretriangles.svg	stimuli_distractor_trianglediamonds.svg	3	yes	57	0	71
6.6.1	win	2022-12-16	11:21:11	11:30:20	547902	5e6ef5fbf14d264ae2ef3867	993959109	1	main_z	11	main_z	111	stimuli_target_circletriangles.svg	stimuli_distractor_diamondtriangles.svg	5	yes	44	1	430
6.6.1	win	2022-12-16	11:21:11	11:30:20	547902	5e6ef5fbf14d264ae2ef3867	993959109	1	main_z	11	advance_on_keypress_ZEE	112	stimuli_target_circletriangles.svg	stimuli_distractor_diamondtriangles.svg	5	yes	57	0	73
6.6.1	win	2022-12-16	11:21:11	11:30:21	548894	5e6ef5fbf14d264ae2ef3867	993959109	1	main_z	11	main_z	113	stimuli_target_squaretriangles.svg	stimuli_distractor_diamondtriangles.svg	7	yes	44	1	302
6.6.1	win	2022-12-16	11:21:11	11:30:21	548894	5e6ef5fbf14d264ae2ef3867	993959109	1	main_z	11	advance_on_keypress_ZEE	114	stimuli_target_squaretriangles.svg	stimuli_distractor_diamondtriangles.svg	7	yes	57	0	92
6.6.1	win	2022-12-16	11:21:11	11:30:22	550190	5e6ef5fbf14d264ae2ef3867	993959109	1	main_z	11	main_z	115	stimuli_target_diamondsquares.svg	stimuli_distractor_trianglediamonds.svg	20	yes	44	1	586
6.6.1	win	2022-12-16	11:21:11	11:30:22	550190	5e6ef5fbf14d264ae2ef3867	993959109	1	main_z	11	advance_on_keypress_ZEE	116	stimuli_target_diamondsquares.svg	stimuli_distractor_trianglediamonds.svg	20	yes	57	0	93
6.6.1	win	2022-12-16	11:21:11	11:30:23	551313	5e6ef5fbf14d264ae2ef3867	993959109	1	main_z	11	main_z	117	stimuli_distractor_diamondtriangles.svg	stimuli_target_squarediamonds.svg	16	yes	44	1	413
6.6.1	win	2022-12-16	11:21:11	11:30:23	551313	5e6ef5fbf14d264ae2ef3867	993959109	1	main_z	11	advance_on_keypress_ZEE	118	stimuli_distractor_diamondtriangles.svg	stimuli_target_squarediamonds.svg	16	yes	57	0	117
6.6.1	win	2022-12-16	11:21:11	11:30:24	552413	5e6ef5fbf14d264ae2ef3867	993959109	1	main_z	11	main_z	119	stimuli_distractor_diamondtriangles.svg	stimuli_target_trianglesquares.svg	30	yes	44	1	368
6.6.1	win	2022-12-16	11:21:11	11:30:24	552413	5e6ef5fbf14d264ae2ef3867	993959109	1	main_z	11	advance_on_keypress_ZEE	120	stimuli_distractor_diamondtriangles.svg	stimuli_target_trianglesquares.svg	30	yes	57	0	137
6.6.1	win	2022-12-16	11:21:11	11:30:25	553537	5e6ef5fbf14d264ae2ef3867	993959109	1	main_z	11	main_z	121	stimuli_target_trianglesquares.svg	stimuli_distractor_trianglediamonds.svg	18	yes	44	1	370
6.6.1	win	2022-12-16	11:21:11	11:30:25	553537	5e6ef5fbf14d264ae2ef3867	993959109	1	main_z	11	advance_on_keypress_ZEE	122	stimuli_target_trianglesquares.svg	stimuli_distractor_trianglediamonds.svg	18	yes	57	0	117
6.6.1	win	2022-12-16	11:21:11	11:30:28	556269	5e6ef5fbf14d264ae2ef3867	993959109	1	main_z	11	main_z	123	stimuli_distractor_diamondtriangles.svg	stimuli_distractor_diamondtriangles.svg	40	no	0	1	2000
6.6.1	win	2022-12-16	11:21:11	11:30:28	556269	5e6ef5fbf14d264ae2ef3867	993959109	1	main_z	11	advance_on_keypress_ZEE	124	stimuli_distractor_diamondtriangles.svg	stimuli_distractor_diamondtriangles.svg	40	no	57	0	256
6.6.1	win	2022-12-16	11:21:11	11:30:29	557552	5e6ef5fbf14d264ae2ef3867	993959109	1	main_z	11	main_z	125	stimuli_distractor_diamondtriangles.svg	stimuli_target_diamondsquares.svg	32	yes	44	1	413
6.6.1	win	2022-12-16	11:21:11	11:30:29	557552	5e6ef5fbf14d264ae2ef3867	993959109	1	main_z	11	advance_on_keypress_ZEE	126	stimuli_distractor_diamondtriangles.svg	stimuli_target_diamondsquares.svg	32	yes	57	0	73
6.6.1	win	2022-12-16	11:21:11	11:30:32	560243	5e6ef5fbf14d264ae2ef3867	993959109	1	main_z	11	main_z	127	stimuli_distractor_trianglediamonds.svg	stimuli_distractor_trianglediamonds.svg	33	no	0	1	2000
6.6.1	win	2022-12-16	11:21:11	11:30:32	560243	5e6ef5fbf14d264ae2ef3867	993959109	1	main_z	11	advance_on_keypress_ZEE	128	stimuli_distractor_trianglediamonds.svg	stimuli_distractor_trianglediamonds.svg	33	no	57	0	255
6.6.1	win	2022-12-16	11:21:11	11:30:33	561524	5e6ef5fbf14d264ae2ef3867	993959109	1	main_z	11	main_z	129	stimuli_distractor_diamondtriangles.svg	stimuli_target_circletriangles.svg	13	yes	44	1	411
6.6.1	win	2022-12-16	11:21:11	11:30:33	561524	5e6ef5fbf14d264ae2ef3867	993959109	1	main_z	11	advance_on_keypress_ZEE	130	stimuli_distractor_diamondtriangles.svg	stimuli_target_circletriangles.svg	13	yes	57	0	92
6.6.1	win	2022-12-16	11:21:11	11:30:34	562560	5e6ef5fbf14d264ae2ef3867	993959109	1	main_z	11	main_z	131	stimuli_target_trianglecircles.svg	stimuli_distractor_trianglediamonds.svg	17	yes	44	1	326
6.6.1	win	2022-12-16	11:21:11	11:30:34	562560	5e6ef5fbf14d264ae2ef3867	993959109	1	main_z	11	advance_on_keypress_ZEE	132	stimuli_target_trianglecircles.svg	stimuli_distractor_trianglediamonds.svg	17	yes	57	0	93
6.6.1	win	2022-12-16	11:21:11	11:30:35	563595	5e6ef5fbf14d264ae2ef3867	993959109	1	main_z	11	main_z	133	stimuli_distractor_trianglediamonds.svg	stimuli_target_squaretriangles.svg	11	yes	44	1	325
6.6.1	win	2022-12-16	11:21:11	11:30:35	563595	5e6ef5fbf14d264ae2ef3867	993959109	1	main_z	11	advance_on_keypress_ZEE	134	stimuli_distractor_trianglediamonds.svg	stimuli_target_squaretriangles.svg	11	yes	57	0	99
6.6.1	win	2022-12-16	11:21:11	11:30:38	566307	5e6ef5fbf14d264ae2ef3867	993959109	1	main_z	11	main_z	135	stimuli_distractor_trianglediamonds.svg	stimuli_distractor_diamondtriangles.svg	35	no	0	1	2000
6.6.1	win	2022-12-16	11:21:11	11:30:38	566307	5e6ef5fbf14d264ae2ef3867	993959109	1	main_z	11	advance_on_keypress_ZEE	136	stimuli_distractor_trianglediamonds.svg	stimuli_distractor_diamondtriangles.svg	35	no	57	0	235
6.6.1	win	2022-12-16	11:21:11	11:30:39	567568	5e6ef5fbf14d264ae2ef3867	993959109	1	main_z	11	main_z	137	stimuli_distractor_trianglediamonds.svg	stimuli_target_trianglecircles.svg	25	yes	44	1	415
6.6.1	win	2022-12-16	11:21:11	11:30:39	567568	5e6ef5fbf14d264ae2ef3867	993959109	1	main_z	11	advance_on_keypress_ZEE	138	stimuli_distractor_trianglediamonds.svg	stimuli_target_trianglecircles.svg	25	yes	57	0	76
6.6.1	win	2022-12-16	11:21:11	11:30:42	570256	5e6ef5fbf14d264ae2ef3867	993959109	1	main_z	11	main_z	139	stimuli_distractor_trianglediamonds.svg	stimuli_distractor_trianglediamonds.svg	34	no	0	1	2000
6.6.1	win	2022-12-16	11:21:11	11:30:42	570256	5e6ef5fbf14d264ae2ef3867	993959109	1	main_z	11	advance_on_keypress_ZEE	140	stimuli_distractor_trianglediamonds.svg	stimuli_distractor_trianglediamonds.svg	34	no	57	0	236
6.6.1	win	2022-12-16	11:21:11	11:30:43	571501	5e6ef5fbf14d264ae2ef3867	993959109	1	main_z	11	main_z	141	stimuli_target_circlediamonds.svg	stimuli_distractor_trianglediamonds.svg	2	yes	44	1	389
6.6.1	win	2022-12-16	11:21:11	11:30:43	571501	5e6ef5fbf14d264ae2ef3867	993959109	1	main_z	11	advance_on_keypress_ZEE	142	stimuli_target_circlediamonds.svg	stimuli_distractor_trianglediamonds.svg	2	yes	57	0	68
6.6.1	win	2022-12-16	11:21:11	11:30:44	572598	5e6ef5fbf14d264ae2ef3867	993959109	1	main_z	11	main_z	143	stimuli_distractor_trianglediamonds.svg	stimuli_distractor_diamondtriangles.svg	36	no	44	0	411
6.6.1	win	2022-12-16	11:21:11	11:30:44	572598	5e6ef5fbf14d264ae2ef3867	993959109	1	main_z	11	advance_on_keypress_ZEE	144	stimuli_distractor_trianglediamonds.svg	stimuli_distractor_diamondtriangles.svg	36	no	57	0	94
6.6.1	win	2022-12-16	11:21:11	11:30:46	573917	5e6ef5fbf14d264ae2ef3867	993959109	1	main_z	11	main_z	145	stimuli_distractor_trianglediamonds.svg	stimuli_target_circletriangles.svg	9	yes	44	1	609
6.6.1	win	2022-12-16	11:21:11	11:30:46	573917	5e6ef5fbf14d264ae2ef3867	993959109	1	main_z	11	advance_on_keypress_ZEE	146	stimuli_distractor_trianglediamonds.svg	stimuli_target_circletriangles.svg	9	yes	57	0	119
6.6.1	win	2022-12-16	11:21:11	11:30:47	574974	5e6ef5fbf14d264ae2ef3867	993959109	1	main_z	11	main_z	147	stimuli_distractor_diamondtriangles.svg	stimuli_target_squaretriangles.svg	15	yes	44	1	328
6.6.1	win	2022-12-16	11:21:11	11:30:47	574974	5e6ef5fbf14d264ae2ef3867	993959109	1	main_z	11	advance_on_keypress_ZEE	148	stimuli_distractor_diamondtriangles.svg	stimuli_target_squaretriangles.svg	15	yes	57	0	72
6.6.1	win	2022-12-16	11:21:11	11:30:48	576054	5e6ef5fbf14d264ae2ef3867	993959109	1	main_z	11	main_z	149	stimuli_distractor_trianglediamonds.svg	stimuli_target_diamondcircles.svg	27	yes	44	1	389
6.6.1	win	2022-12-16	11:21:11	11:30:48	576054	5e6ef5fbf14d264ae2ef3867	993959109	1	main_z	11	advance_on_keypress_ZEE	150	stimuli_distractor_trianglediamonds.svg	stimuli_target_diamondcircles.svg	27	yes	57	0	96
6.6.1	win	2022-12-16	11:21:11	11:30:49	577198	5e6ef5fbf14d264ae2ef3867	993959109	1	main_z	11	main_z	151	stimuli_target_circletriangles.svg	stimuli_distractor_trianglediamonds.svg	1	yes	44	1	431
6.6.1	win	2022-12-16	11:21:11	11:30:49	577198	5e6ef5fbf14d264ae2ef3867	993959109	1	main_z	11	advance_on_keypress_ZEE	152	stimuli_target_circletriangles.svg	stimuli_distractor_trianglediamonds.svg	1	yes	57	0	95
6.6.1	win	2022-12-16	11:21:11	11:30:50	578298	5e6ef5fbf14d264ae2ef3867	993959109	1	main_z	11	main_z	153	stimuli_target_diamondcircles.svg	stimuli_distractor_diamondtriangles.svg	23	yes	44	1	393
6.6.1	win	2022-12-16	11:21:11	11:30:50	578298	5e6ef5fbf14d264ae2ef3867	993959109	1	main_z	11	advance_on_keypress_ZEE	154	stimuli_target_diamondcircles.svg	stimuli_distractor_diamondtriangles.svg	23	yes	57	0	245
6.6.1	win	2022-12-16	11:21:11	11:30:51	579530	5e6ef5fbf14d264ae2ef3867	993959109	1	main_z	11	main_z	155	stimuli_distractor_diamondtriangles.svg	stimuli_target_circlediamonds.svg	14	yes	44	1	370
6.6.1	win	2022-12-16	11:21:11	11:30:51	579530	5e6ef5fbf14d264ae2ef3867	993959109	1	main_z	11	advance_on_keypress_ZEE	156	stimuli_distractor_diamondtriangles.svg	stimuli_target_circlediamonds.svg	14	yes	57	0	74
6.6.1	win	2022-12-16	11:21:11	11:30:52	580630	5e6ef5fbf14d264ae2ef3867	993959109	1	main_z	11	main_z	157	stimuli_distractor_diamondtriangles.svg	stimuli_target_trianglecircles.svg	29	yes	44	1	411
6.6.1	win	2022-12-16	11:21:11	11:30:52	580630	5e6ef5fbf14d264ae2ef3867	993959109	1	main_z	11	advance_on_keypress_ZEE	158	stimuli_distractor_diamondtriangles.svg	stimuli_target_trianglecircles.svg	29	yes	57	0	72
6.6.1	win	2022-12-16	11:21:11	11:30:53	581644	5e6ef5fbf14d264ae2ef3867	993959109	1	main_z	11	main_z	159	stimuli_target_trianglecircles.svg	stimuli_distractor_diamondtriangles.svg	21	yes	44	1	322
6.6.1	win	2022-12-16	11:21:11	11:30:53	581644	5e6ef5fbf14d264ae2ef3867	993959109	1	main_z	11	advance_on_keypress_ZEE	160	stimuli_target_trianglecircles.svg	stimuli_distractor_diamondtriangles.svg	21	yes	57	0	96
6.6.1	win	2022-12-16	11:21:11	11:30:53	581644	5e6ef5fbf14d264ae2ef3867	993959109	1	inst_15_goodbye	15			stimuli_target_trianglecircles.svg	stimuli_distractor_diamondtriangles.svg	21	yes	Ctrl+'Q'		