build	computer.platform	date	time	timestamp	time_elapsed_ms	subject	group	session	blockcode	blocknum	trialcode	trialnum	stimulus_left	stimulus_right	stim_index	target_present	response	correct	latency
6.6.1	mac	2022-12-14	18:05:01	18:08:33	210488	608349d97d46ab71fc6c7111	330150635	1	practice_slash	5	practice_slash	1	stimuli_target_circlediamonds.svg	stimuli_distractor_trianglediamonds.svg	4	yes	53	1	504
6.6.1	mac	2022-12-14	18:05:01	18:08:33	210488	608349d97d46ab71fc6c7111	330150635	1	practice_slash	5	advance_on_keypress_SLASH	2	stimuli_target_circlediamonds.svg	stimuli_distractor_trianglediamonds.svg	4	yes	57	0	6613
6.6.1	mac	2022-12-14	18:05:01	18:08:42	219408	608349d97d46ab71fc6c7111	330150635	1	practice_slash	5	practice_slash	3	stimuli_distractor_trianglediamonds.svg	stimuli_distractor_diamondtriangles.svg	16	no	53	0	671
6.6.1	mac	2022-12-14	18:05:01	18:08:42	219408	608349d97d46ab71fc6c7111	330150635	1	practice_slash	5	advance_on_keypress_SLASH	4	stimuli_distractor_trianglediamonds.svg	stimuli_distractor_diamondtriangles.svg	16	no	57	0	5403
6.6.1	mac	2022-12-14	18:05:01	18:08:49	226810	608349d97d46ab71fc6c7111	330150635	1	practice_slash	5	practice_slash	5	stimuli_distractor_diamondtriangles.svg	stimuli_target_diamondcircles.svg	8	yes	53	1	358
6.6.1	mac	2022-12-14	18:05:01	18:08:49	226810	608349d97d46ab71fc6c7111	330150635	1	practice_slash	5	advance_on_keypress_SLASH	6	stimuli_distractor_diamondtriangles.svg	stimuli_target_diamondcircles.svg	8	yes	57	0	1466
6.6.1	mac	2022-12-14	18:05:01	18:08:53	230186	608349d97d46ab71fc6c7111	330150635	1	practice_slash	5	practice_slash	7	stimuli_target_diamondsquares.svg	stimuli_distractor_trianglediamonds.svg	6	yes	53	1	285
6.6.1	mac	2022-12-14	18:05:01	18:08:53	230186	608349d97d46ab71fc6c7111	330150635	1	practice_slash	5	advance_on_keypress_SLASH	8	stimuli_target_diamondsquares.svg	stimuli_distractor_trianglediamonds.svg	6	yes	57	0	3052
6.6.1	mac	2022-12-14	18:05:01	18:08:58	235196	608349d97d46ab71fc6c7111	330150635	1	practice_slash	5	practice_slash	9	stimuli_distractor_trianglediamonds.svg	stimuli_target_squarediamonds.svg	11	yes	53	1	327
6.6.1	mac	2022-12-14	18:05:01	18:08:58	235196	608349d97d46ab71fc6c7111	330150635	1	practice_slash	5	advance_on_keypress_SLASH	10	stimuli_distractor_trianglediamonds.svg	stimuli_target_squarediamonds.svg	11	yes	57	0	1089
6.6.1	mac	2022-12-14	18:05:01	18:09:01	238395	608349d97d46ab71fc6c7111	330150635	1	practice_slash	5	practice_slash	11	stimuli_target_circlediamonds.svg	stimuli_distractor_diamondtriangles.svg	1	yes	53	1	478
6.6.1	mac	2022-12-14	18:05:01	18:09:01	238395	608349d97d46ab71fc6c7111	330150635	1	practice_slash	5	advance_on_keypress_SLASH	12	stimuli_target_circlediamonds.svg	stimuli_distractor_diamondtriangles.svg	1	yes	57	0	450
6.6.1	mac	2022-12-14	18:05:01	18:09:04	240944	608349d97d46ab71fc6c7111	330150635	1	practice_slash	5	practice_slash	13	stimuli_distractor_trianglediamonds.svg	stimuli_target_circlediamonds.svg	10	yes	53	1	476
6.6.1	mac	2022-12-14	18:05:01	18:09:04	240944	608349d97d46ab71fc6c7111	330150635	1	practice_slash	5	advance_on_keypress_SLASH	14	stimuli_distractor_trianglediamonds.svg	stimuli_target_circlediamonds.svg	10	yes	57	0	913
6.6.1	mac	2022-12-14	18:05:01	18:09:07	243860	608349d97d46ab71fc6c7111	330150635	1	practice_slash	5	practice_slash	15	stimuli_distractor_trianglediamonds.svg	stimuli_target_diamondcircles.svg	12	yes	53	1	375
6.6.1	mac	2022-12-14	18:05:01	18:09:07	243860	608349d97d46ab71fc6c7111	330150635	1	practice_slash	5	advance_on_keypress_SLASH	16	stimuli_distractor_trianglediamonds.svg	stimuli_target_diamondcircles.svg	12	yes	57	0	450
6.6.1	mac	2022-12-14	18:05:01	18:09:09	246521	608349d97d46ab71fc6c7111	330150635	1	practice_slash	5	practice_slash	17	stimuli_target_diamondsquares.svg	stimuli_distractor_diamondtriangles.svg	3	yes	53	1	586
6.6.1	mac	2022-12-14	18:05:01	18:09:09	246521	608349d97d46ab71fc6c7111	330150635	1	practice_slash	5	advance_on_keypress_SLASH	18	stimuli_target_diamondsquares.svg	stimuli_distractor_diamondtriangles.svg	3	yes	57	0	2091
6.6.1	mac	2022-12-14	18:05:01	18:09:13	250633	608349d97d46ab71fc6c7111	330150635	1	practice_slash	5	practice_slash	19	stimuli_distractor_diamondtriangles.svg	stimuli_target_circletriangles.svg	7	yes	53	1	384
6.6.1	mac	2022-12-14	18:05:01	18:09:13	250633	608349d97d46ab71fc6c7111	330150635	1	practice_slash	5	advance_on_keypress_SLASH	20	stimuli_distractor_diamondtriangles.svg	stimuli_target_circletriangles.svg	7	yes	57	0	416
6.6.1	mac	2022-12-14	18:05:01	18:09:16	253079	608349d97d46ab71fc6c7111	330150635	1	practice_slash	5	practice_slash	21	stimuli_distractor_diamondtriangles.svg	stimuli_distractor_diamondtriangles.svg	13	no	53	0	395
6.6.1	mac	2022-12-14	18:05:01	18:09:16	253079	608349d97d46ab71fc6c7111	330150635	1	practice_slash	5	advance_on_keypress_SLASH	22	stimuli_distractor_diamondtriangles.svg	stimuli_distractor_diamondtriangles.svg	13	no	57	0	415
6.6.1	mac	2022-12-14	18:05:01	18:09:20	257134	608349d97d46ab71fc6c7111	330150635	1	practice_slash	5	practice_slash	23	stimuli_distractor_diamondtriangles.svg	stimuli_distractor_trianglediamonds.svg	14	no	0	1	2000
6.6.1	mac	2022-12-14	18:05:01	18:09:20	257134	608349d97d46ab71fc6c7111	330150635	1	practice_slash	5	advance_on_keypress_SLASH	24	stimuli_distractor_diamondtriangles.svg	stimuli_distractor_trianglediamonds.svg	14	no	57	0	1276
6.6.1	mac	2022-12-14	18:05:01	18:09:23	260413	608349d97d46ab71fc6c7111	330150635	1	practice_slash	5	practice_slash	25	stimuli_distractor_diamondtriangles.svg	stimuli_target_trianglecircles.svg	9	yes	53	1	362
6.6.1	mac	2022-12-14	18:05:01	18:09:23	260413	608349d97d46ab71fc6c7111	330150635	1	practice_slash	5	advance_on_keypress_SLASH	26	stimuli_distractor_diamondtriangles.svg	stimuli_target_trianglecircles.svg	9	yes	57	0	825
6.6.1	mac	2022-12-14	18:05:01	18:09:26	263323	608349d97d46ab71fc6c7111	330150635	1	practice_slash	5	practice_slash	27	stimuli_target_squarediamonds.svg	stimuli_distractor_trianglediamonds.svg	5	yes	53	1	455
6.6.1	mac	2022-12-14	18:05:01	18:09:26	263323	608349d97d46ab71fc6c7111	330150635	1	practice_slash	5	advance_on_keypress_SLASH	28	stimuli_target_squarediamonds.svg	stimuli_distractor_trianglediamonds.svg	5	yes	57	0	620
6.6.1	mac	2022-12-14	18:05:01	18:09:30	267569	608349d97d46ab71fc6c7111	330150635	1	practice_slash	5	practice_slash	29	stimuli_target_squarediamonds.svg	stimuli_distractor_diamondtriangles.svg	2	yes	0	0	2000
6.6.1	mac	2022-12-14	18:05:01	18:09:30	267569	608349d97d46ab71fc6c7111	330150635	1	practice_slash	5	advance_on_keypress_SLASH	30	stimuli_target_squarediamonds.svg	stimuli_distractor_diamondtriangles.svg	2	yes	57	0	612
6.6.1	mac	2022-12-14	18:05:01	18:09:33	270419	608349d97d46ab71fc6c7111	330150635	1	practice_slash	5	practice_slash	31	stimuli_distractor_trianglediamonds.svg	stimuli_distractor_trianglediamonds.svg	15	no	53	0	601
6.6.1	mac	2022-12-14	18:05:01	18:09:33	270419	608349d97d46ab71fc6c7111	330150635	1	practice_slash	5	advance_on_keypress_SLASH	32	stimuli_distractor_trianglediamonds.svg	stimuli_distractor_trianglediamonds.svg	15	no	57	0	478
6.6.1	mac	2022-12-14	18:05:01	18:09:52	289289	608349d97d46ab71fc6c7111	330150635	1	main_slash	7	main_slash	1	stimuli_distractor_diamondtriangles.svg	stimuli_distractor_diamondtriangles.svg	39	no	53	0	825
6.6.1	mac	2022-12-14	18:05:01	18:09:52	289289	608349d97d46ab71fc6c7111	330150635	1	main_slash	7	advance_on_keypress_SLASH	2	stimuli_distractor_diamondtriangles.svg	stimuli_distractor_diamondtriangles.svg	39	no	57	0	1359
6.6.1	mac	2022-12-14	18:05:01	18:09:54	291626	608349d97d46ab71fc6c7111	330150635	1	main_slash	7	main_slash	3	stimuli_distractor_trianglediamonds.svg	stimuli_target_diamondsquares.svg	28	yes	53	1	358
6.6.1	mac	2022-12-14	18:05:01	18:09:54	291626	608349d97d46ab71fc6c7111	330150635	1	main_slash	7	advance_on_keypress_SLASH	4	stimuli_distractor_trianglediamonds.svg	stimuli_target_diamondsquares.svg	28	yes	57	0	833
6.6.1	mac	2022-12-14	18:05:01	18:09:56	293708	608349d97d46ab71fc6c7111	330150635	1	main_slash	7	main_slash	5	stimuli_target_squarediamonds.svg	stimuli_distractor_diamondtriangles.svg	8	yes	53	1	623
6.6.1	mac	2022-12-14	18:05:01	18:09:56	293708	608349d97d46ab71fc6c7111	330150635	1	main_slash	7	advance_on_keypress_SLASH	6	stimuli_target_squarediamonds.svg	stimuli_distractor_diamondtriangles.svg	8	yes	57	0	1117
6.6.1	mac	2022-12-14	18:05:01	18:09:58	295806	608349d97d46ab71fc6c7111	330150635	1	main_slash	7	main_slash	7	stimuli_distractor_trianglediamonds.svg	stimuli_target_trianglecircles.svg	25	yes	53	1	354
6.6.1	mac	2022-12-14	18:05:01	18:09:58	295806	608349d97d46ab71fc6c7111	330150635	1	main_slash	7	advance_on_keypress_SLASH	8	stimuli_distractor_trianglediamonds.svg	stimuli_target_trianglecircles.svg	25	yes	57	0	881
6.6.1	mac	2022-12-14	18:05:01	18:10:00	297712	608349d97d46ab71fc6c7111	330150635	1	main_slash	7	main_slash	9	stimuli_distractor_diamondtriangles.svg	stimuli_target_diamondsquares.svg	32	yes	53	1	395
6.6.1	mac	2022-12-14	18:05:01	18:10:00	297712	608349d97d46ab71fc6c7111	330150635	1	main_slash	7	advance_on_keypress_SLASH	10	stimuli_distractor_diamondtriangles.svg	stimuli_target_diamondsquares.svg	32	yes	57	0	1275
6.6.1	mac	2022-12-14	18:05:01	18:10:04	300978	608349d97d46ab71fc6c7111	330150635	1	main_slash	7	main_slash	11	stimuli_target_squaretriangles.svg	stimuli_distractor_diamondtriangles.svg	7	yes	53	1	1359
6.6.1	mac	2022-12-14	18:05:01	18:10:04	300978	608349d97d46ab71fc6c7111	330150635	1	main_slash	7	advance_on_keypress_SLASH	12	stimuli_target_squaretriangles.svg	stimuli_distractor_diamondtriangles.svg	7	yes	57	0	6431
6.6.1	mac	2022-12-14	18:05:01	18:10:11	308356	608349d97d46ab71fc6c7111	330150635	1	main_slash	7	main_slash	13	stimuli_target_diamondsquares.svg	stimuli_distractor_diamondtriangles.svg	24	yes	53	1	324
6.6.1	mac	2022-12-14	18:05:01	18:10:11	308356	608349d97d46ab71fc6c7111	330150635	1	main_slash	7	advance_on_keypress_SLASH	14	stimuli_target_diamondsquares.svg	stimuli_distractor_diamondtriangles.svg	24	yes	57	0	911
6.6.1	mac	2022-12-14	18:05:01	18:10:13	310188	608349d97d46ab71fc6c7111	330150635	1	main_slash	7	main_slash	15	stimuli_target_circletriangles.svg	stimuli_distractor_trianglediamonds.svg	1	yes	53	1	303
6.6.1	mac	2022-12-14	18:05:01	18:10:13	310188	608349d97d46ab71fc6c7111	330150635	1	main_slash	7	advance_on_keypress_SLASH	16	stimuli_target_circletriangles.svg	stimuli_distractor_trianglediamonds.svg	1	yes	57	0	682
6.6.1	mac	2022-12-14	18:05:01	18:10:14	311842	608349d97d46ab71fc6c7111	330150635	1	main_slash	7	main_slash	17	stimuli_distractor_trianglediamonds.svg	stimuli_target_squarediamonds.svg	12	yes	53	1	339
6.6.1	mac	2022-12-14	18:05:01	18:10:14	311842	608349d97d46ab71fc6c7111	330150635	1	main_slash	7	advance_on_keypress_SLASH	18	stimuli_distractor_trianglediamonds.svg	stimuli_target_squarediamonds.svg	12	yes	57	0	5430
6.6.1	mac	2022-12-14	18:05:01	18:10:23	319897	608349d97d46ab71fc6c7111	330150635	1	main_slash	7	main_slash	19	stimuli_distractor_trianglediamonds.svg	stimuli_distractor_trianglediamonds.svg	33	no	0	1	2000
6.6.1	mac	2022-12-14	18:05:01	18:10:23	319897	608349d97d46ab71fc6c7111	330150635	1	main_slash	7	advance_on_keypress_SLASH	20	stimuli_distractor_trianglediamonds.svg	stimuli_distractor_trianglediamonds.svg	33	no	57	0	582
6.6.1	mac	2022-12-14	18:05:01	18:10:24	321523	608349d97d46ab71fc6c7111	330150635	1	main_slash	7	main_slash	21	stimuli_distractor_diamondtriangles.svg	stimuli_target_trianglecircles.svg	29	yes	53	1	404
6.6.1	mac	2022-12-14	18:05:01	18:10:24	321523	608349d97d46ab71fc6c7111	330150635	1	main_slash	7	advance_on_keypress_SLASH	22	stimuli_distractor_diamondtriangles.svg	stimuli_target_trianglecircles.svg	29	yes	57	0	795
6.6.1	mac	2022-12-14	18:05:01	18:10:28	324951	608349d97d46ab71fc6c7111	330150635	1	main_slash	7	main_slash	23	stimuli_distractor_trianglediamonds.svg	stimuli_distractor_diamondtriangles.svg	36	no	0	1	2000
6.6.1	mac	2022-12-14	18:05:01	18:10:28	324951	608349d97d46ab71fc6c7111	330150635	1	main_slash	7	advance_on_keypress_SLASH	24	stimuli_distractor_trianglediamonds.svg	stimuli_distractor_diamondtriangles.svg	36	no	57	0	618
6.6.1	mac	2022-12-14	18:05:01	18:10:29	326687	608349d97d46ab71fc6c7111	330150635	1	main_slash	7	main_slash	25	stimuli_distractor_diamondtriangles.svg	stimuli_target_circlediamonds.svg	14	yes	53	1	486
6.6.1	mac	2022-12-14	18:05:01	18:10:29	326687	608349d97d46ab71fc6c7111	330150635	1	main_slash	7	advance_on_keypress_SLASH	26	stimuli_distractor_diamondtriangles.svg	stimuli_target_circlediamonds.svg	14	yes	57	0	936
6.6.1	mac	2022-12-14	18:05:01	18:10:33	330251	608349d97d46ab71fc6c7111	330150635	1	main_slash	7	main_slash	27	stimuli_distractor_diamondtriangles.svg	stimuli_distractor_trianglediamonds.svg	37	no	0	1	2000
6.6.1	mac	2022-12-14	18:05:01	18:10:33	330251	608349d97d46ab71fc6c7111	330150635	1	main_slash	7	advance_on_keypress_SLASH	28	stimuli_distractor_diamondtriangles.svg	stimuli_distractor_trianglediamonds.svg	37	no	57	0	460
6.6.1	mac	2022-12-14	18:05:01	18:10:34	331743	608349d97d46ab71fc6c7111	330150635	1	main_slash	7	main_slash	29	stimuli_target_trianglecircles.svg	stimuli_distractor_diamondtriangles.svg	21	yes	53	1	408
6.6.1	mac	2022-12-14	18:05:01	18:10:34	331743	608349d97d46ab71fc6c7111	330150635	1	main_slash	7	advance_on_keypress_SLASH	30	stimuli_target_trianglecircles.svg	stimuli_distractor_diamondtriangles.svg	21	yes	57	0	729
6.6.1	mac	2022-12-14	18:05:01	18:10:36	333814	608349d97d46ab71fc6c7111	330150635	1	main_slash	7	main_slash	31	stimuli_distractor_trianglediamonds.svg	stimuli_target_circletriangles.svg	9	yes	53	1	711
6.6.1	mac	2022-12-14	18:05:01	18:10:36	333814	608349d97d46ab71fc6c7111	330150635	1	main_slash	7	advance_on_keypress_SLASH	32	stimuli_distractor_trianglediamonds.svg	stimuli_target_circletriangles.svg	9	yes	57	0	737
6.6.1	mac	2022-12-14	18:05:01	18:10:40	336932	608349d97d46ab71fc6c7111	330150635	1	main_slash	7	main_slash	33	stimuli_target_trianglesquares.svg	stimuli_distractor_diamondtriangles.svg	22	yes	53	1	1746
6.6.1	mac	2022-12-14	18:05:01	18:10:40	336932	608349d97d46ab71fc6c7111	330150635	1	main_slash	7	advance_on_keypress_SLASH	34	stimuli_target_trianglesquares.svg	stimuli_distractor_diamondtriangles.svg	22	yes	57	0	1082
6.6.1	mac	2022-12-14	18:05:01	18:10:42	339733	608349d97d46ab71fc6c7111	330150635	1	main_slash	7	main_slash	35	stimuli_target_circlediamonds.svg	stimuli_distractor_diamondtriangles.svg	6	yes	53	1	1082
6.6.1	mac	2022-12-14	18:05:01	18:10:42	339733	608349d97d46ab71fc6c7111	330150635	1	main_slash	7	advance_on_keypress_SLASH	36	stimuli_target_circlediamonds.svg	stimuli_distractor_diamondtriangles.svg	6	yes	57	0	1034
6.6.1	mac	2022-12-14	18:05:01	18:10:45	341983	608349d97d46ab71fc6c7111	330150635	1	main_slash	7	main_slash	37	stimuli_distractor_diamondtriangles.svg	stimuli_target_squarediamonds.svg	16	yes	53	1	580
6.6.1	mac	2022-12-14	18:05:01	18:10:45	341983	608349d97d46ab71fc6c7111	330150635	1	main_slash	7	advance_on_keypress_SLASH	38	stimuli_distractor_diamondtriangles.svg	stimuli_target_squarediamonds.svg	16	yes	57	0	1058
6.6.1	mac	2022-12-14	18:05:01	18:10:47	344166	608349d97d46ab71fc6c7111	330150635	1	main_slash	7	main_slash	39	stimuli_distractor_trianglediamonds.svg	stimuli_target_diamondcircles.svg	27	yes	53	1	497
6.6.1	mac	2022-12-14	18:05:01	18:10:47	344166	608349d97d46ab71fc6c7111	330150635	1	main_slash	7	advance_on_keypress_SLASH	40	stimuli_distractor_trianglediamonds.svg	stimuli_target_diamondcircles.svg	27	yes	57	0	854
6.6.1	mac	2022-12-14	18:05:01	18:10:50	347651	608349d97d46ab71fc6c7111	330150635	1	main_slash	7	main_slash	41	stimuli_target_squaretriangles.svg	stimuli_distractor_trianglediamonds.svg	3	yes	0	0	2000
6.6.1	mac	2022-12-14	18:05:01	18:10:50	347651	608349d97d46ab71fc6c7111	330150635	1	main_slash	7	advance_on_keypress_SLASH	42	stimuli_target_squaretriangles.svg	stimuli_distractor_trianglediamonds.svg	3	yes	57	0	359
6.6.1	mac	2022-12-14	18:05:01	18:10:52	349074	608349d97d46ab71fc6c7111	330150635	1	main_slash	7	main_slash	43	stimuli_target_circlediamonds.svg	stimuli_distractor_trianglediamonds.svg	2	yes	53	1	438
6.6.1	mac	2022-12-14	18:05:01	18:10:52	349074	608349d97d46ab71fc6c7111	330150635	1	main_slash	7	advance_on_keypress_SLASH	44	stimuli_target_circlediamonds.svg	stimuli_distractor_trianglediamonds.svg	2	yes	57	0	823
6.6.1	mac	2022-12-14	18:05:01	18:10:54	351148	608349d97d46ab71fc6c7111	330150635	1	main_slash	7	main_slash	45	stimuli_target_circletriangles.svg	stimuli_distractor_diamondtriangles.svg	5	yes	53	1	612
6.6.1	mac	2022-12-14	18:05:01	18:10:54	351148	608349d97d46ab71fc6c7111	330150635	1	main_slash	7	advance_on_keypress_SLASH	46	stimuli_target_circletriangles.svg	stimuli_distractor_diamondtriangles.svg	5	yes	57	0	884
6.6.1	mac	2022-12-14	18:05:01	18:10:56	353675	608349d97d46ab71fc6c7111	330150635	1	main_slash	7	main_slash	47	stimuli_distractor_trianglediamonds.svg	stimuli_target_trianglesquares.svg	26	yes	53	1	1006
6.6.1	mac	2022-12-14	18:05:01	18:10:56	353675	608349d97d46ab71fc6c7111	330150635	1	main_slash	7	advance_on_keypress_SLASH	48	stimuli_distractor_trianglediamonds.svg	stimuli_target_trianglesquares.svg	26	yes	57	0	830
6.6.1	mac	2022-12-14	18:05:01	18:10:58	355664	608349d97d46ab71fc6c7111	330150635	1	main_slash	7	main_slash	49	stimuli_target_diamondcircles.svg	stimuli_distractor_trianglediamonds.svg	19	yes	53	1	529
6.6.1	mac	2022-12-14	18:05:01	18:10:58	355664	608349d97d46ab71fc6c7111	330150635	1	main_slash	7	advance_on_keypress_SLASH	50	stimuli_target_diamondcircles.svg	stimuli_distractor_trianglediamonds.svg	19	yes	57	0	675
6.6.1	mac	2022-12-14	18:05:01	18:11:00	357531	608349d97d46ab71fc6c7111	330150635	1	main_slash	7	main_slash	51	stimuli_target_diamondcircles.svg	stimuli_distractor_diamondtriangles.svg	23	yes	53	1	561
6.6.1	mac	2022-12-14	18:05:01	18:11:00	357531	608349d97d46ab71fc6c7111	330150635	1	main_slash	7	advance_on_keypress_SLASH	52	stimuli_target_diamondcircles.svg	stimuli_distractor_diamondtriangles.svg	23	yes	57	0	646
6.6.1	mac	2022-12-14	18:05:01	18:11:02	359203	608349d97d46ab71fc6c7111	330150635	1	main_slash	7	main_slash	53	stimuli_distractor_diamondtriangles.svg	stimuli_target_diamondcircles.svg	31	yes	53	1	400
6.6.1	mac	2022-12-14	18:05:01	18:11:02	359203	608349d97d46ab71fc6c7111	330150635	1	main_slash	7	advance_on_keypress_SLASH	54	stimuli_distractor_diamondtriangles.svg	stimuli_target_diamondcircles.svg	31	yes	57	0	620
6.6.1	mac	2022-12-14	18:05:01	18:11:04	360851	608349d97d46ab71fc6c7111	330150635	1	main_slash	7	main_slash	55	stimuli_target_squarediamonds.svg	stimuli_distractor_trianglediamonds.svg	4	yes	53	1	399
6.6.1	mac	2022-12-14	18:05:01	18:11:04	360851	608349d97d46ab71fc6c7111	330150635	1	main_slash	7	advance_on_keypress_SLASH	56	stimuli_target_squarediamonds.svg	stimuli_distractor_trianglediamonds.svg	4	yes	57	0	595
6.6.1	mac	2022-12-14	18:05:01	18:11:05	362478	608349d97d46ab71fc6c7111	330150635	1	main_slash	7	main_slash	57	stimuli_distractor_diamondtriangles.svg	stimuli_target_circletriangles.svg	13	yes	53	1	389
6.6.1	mac	2022-12-14	18:05:01	18:11:05	362478	608349d97d46ab71fc6c7111	330150635	1	main_slash	7	advance_on_keypress_SLASH	58	stimuli_distractor_diamondtriangles.svg	stimuli_target_circletriangles.svg	13	yes	57	0	696
6.6.1	mac	2022-12-14	18:05:01	18:11:07	364115	608349d97d46ab71fc6c7111	330150635	1	main_slash	7	main_slash	59	stimuli_distractor_diamondtriangles.svg	stimuli_distractor_trianglediamonds.svg	38	no	53	0	311
6.6.1	mac	2022-12-14	18:05:01	18:11:07	364115	608349d97d46ab71fc6c7111	330150635	1	main_slash	7	advance_on_keypress_SLASH	60	stimuli_distractor_diamondtriangles.svg	stimuli_distractor_trianglediamonds.svg	38	no	57	0	1289
6.6.1	mac	2022-12-14	18:05:01	18:11:11	368034	608349d97d46ab71fc6c7111	330150635	1	main_slash	7	main_slash	61	stimuli_distractor_trianglediamonds.svg	stimuli_distractor_diamondtriangles.svg	35	no	0	1	2000
6.6.1	mac	2022-12-14	18:05:01	18:11:11	368034	608349d97d46ab71fc6c7111	330150635	1	main_slash	7	advance_on_keypress_SLASH	62	stimuli_distractor_trianglediamonds.svg	stimuli_distractor_diamondtriangles.svg	35	no	57	0	510
6.6.1	mac	2022-12-14	18:05:01	18:11:14	371185	608349d97d46ab71fc6c7111	330150635	1	main_slash	7	main_slash	63	stimuli_distractor_diamondtriangles.svg	stimuli_distractor_diamondtriangles.svg	40	no	0	1	2000
6.6.1	mac	2022-12-14	18:05:01	18:11:14	371185	608349d97d46ab71fc6c7111	330150635	1	main_slash	7	advance_on_keypress_SLASH	64	stimuli_distractor_diamondtriangles.svg	stimuli_distractor_diamondtriangles.svg	40	no	57	0	324
6.6.1	mac	2022-12-14	18:05:01	18:11:15	372584	608349d97d46ab71fc6c7111	330150635	1	main_slash	7	main_slash	65	stimuli_target_diamondsquares.svg	stimuli_distractor_trianglediamonds.svg	20	yes	53	1	447
6.6.1	mac	2022-12-14	18:05:01	18:11:15	372584	608349d97d46ab71fc6c7111	330150635	1	main_slash	7	advance_on_keypress_SLASH	66	stimuli_target_diamondsquares.svg	stimuli_distractor_trianglediamonds.svg	20	yes	57	0	1081
6.6.1	mac	2022-12-14	18:05:01	18:11:18	375691	608349d97d46ab71fc6c7111	330150635	1	main_slash	7	main_slash	67	stimuli_target_trianglecircles.svg	stimuli_distractor_trianglediamonds.svg	17	yes	53	1	1388
6.6.1	mac	2022-12-14	18:05:01	18:11:18	375691	608349d97d46ab71fc6c7111	330150635	1	main_slash	7	advance_on_keypress_SLASH	68	stimuli_target_trianglecircles.svg	stimuli_distractor_trianglediamonds.svg	17	yes	57	0	651
6.6.1	mac	2022-12-14	18:05:01	18:11:21	378194	608349d97d46ab71fc6c7111	330150635	1	main_slash	7	main_slash	69	stimuli_distractor_trianglediamonds.svg	stimuli_target_squaretriangles.svg	11	yes	53	1	1224
6.6.1	mac	2022-12-14	18:05:01	18:11:21	378194	608349d97d46ab71fc6c7111	330150635	1	main_slash	7	advance_on_keypress_SLASH	70	stimuli_distractor_trianglediamonds.svg	stimuli_target_squaretriangles.svg	11	yes	57	0	690
6.6.1	mac	2022-12-14	18:05:01	18:11:23	380695	608349d97d46ab71fc6c7111	330150635	1	main_slash	7	main_slash	71	stimuli_target_trianglesquares.svg	stimuli_distractor_trianglediamonds.svg	18	yes	53	1	1191
6.6.1	mac	2022-12-14	18:05:01	18:11:23	380695	608349d97d46ab71fc6c7111	330150635	1	main_slash	7	advance_on_keypress_SLASH	72	stimuli_target_trianglesquares.svg	stimuli_distractor_trianglediamonds.svg	18	yes	57	0	939
6.6.1	mac	2022-12-14	18:05:01	18:11:25	382659	608349d97d46ab71fc6c7111	330150635	1	main_slash	7	main_slash	73	stimuli_distractor_trianglediamonds.svg	stimuli_target_circlediamonds.svg	10	yes	53	1	406
6.6.1	mac	2022-12-14	18:05:01	18:11:25	382659	608349d97d46ab71fc6c7111	330150635	1	main_slash	7	advance_on_keypress_SLASH	74	stimuli_distractor_trianglediamonds.svg	stimuli_target_circlediamonds.svg	10	yes	57	0	628
6.6.1	mac	2022-12-14	18:05:01	18:11:29	385919	608349d97d46ab71fc6c7111	330150635	1	main_slash	7	main_slash	75	stimuli_distractor_trianglediamonds.svg	stimuli_distractor_trianglediamonds.svg	34	no	0	1	2000
6.6.1	mac	2022-12-14	18:05:01	18:11:29	385919	608349d97d46ab71fc6c7111	330150635	1	main_slash	7	advance_on_keypress_SLASH	76	stimuli_distractor_trianglediamonds.svg	stimuli_distractor_trianglediamonds.svg	34	no	57	0	452
6.6.1	mac	2022-12-14	18:05:01	18:11:31	388376	608349d97d46ab71fc6c7111	330150635	1	main_slash	7	main_slash	77	stimuli_distractor_diamondtriangles.svg	stimuli_target_squaretriangles.svg	15	yes	53	1	1372
6.6.1	mac	2022-12-14	18:05:01	18:11:31	388376	608349d97d46ab71fc6c7111	330150635	1	main_slash	7	advance_on_keypress_SLASH	78	stimuli_distractor_diamondtriangles.svg	stimuli_target_squaretriangles.svg	15	yes	57	0	865
6.6.1	mac	2022-12-14	18:05:01	18:11:34	390908	608349d97d46ab71fc6c7111	330150635	1	main_slash	7	main_slash	79	stimuli_distractor_diamondtriangles.svg	stimuli_target_trianglesquares.svg	30	yes	53	1	1038
6.6.1	mac	2022-12-14	18:05:01	18:11:34	390908	608349d97d46ab71fc6c7111	330150635	1	main_slash	7	advance_on_keypress_SLASH	80	stimuli_distractor_diamondtriangles.svg	stimuli_target_trianglesquares.svg	30	yes	57	0	565
6.6.1	mac	2022-12-14	18:05:01	18:11:36	392864	608349d97d46ab71fc6c7111	330150635	1	main_slash	7	main_slash	81	stimuli_target_diamondsquares.svg	stimuli_distractor_diamondtriangles.svg	24	yes	53	1	760
6.6.1	mac	2022-12-14	18:05:01	18:11:36	392864	608349d97d46ab71fc6c7111	330150635	1	main_slash	7	advance_on_keypress_SLASH	82	stimuli_target_diamondsquares.svg	stimuli_distractor_diamondtriangles.svg	24	yes	57	0	791
6.6.1	mac	2022-12-14	18:05:01	18:11:38	395591	608349d97d46ab71fc6c7111	330150635	1	main_slash	7	main_slash	83	stimuli_distractor_diamondtriangles.svg	stimuli_target_trianglesquares.svg	30	yes	53	1	1304
6.6.1	mac	2022-12-14	18:05:01	18:11:38	395591	608349d97d46ab71fc6c7111	330150635	1	main_slash	7	advance_on_keypress_SLASH	84	stimuli_distractor_diamondtriangles.svg	stimuli_target_trianglesquares.svg	30	yes	57	0	555
6.6.1	mac	2022-12-14	18:05:01	18:11:40	397378	608349d97d46ab71fc6c7111	330150635	1	main_slash	7	main_slash	85	stimuli_target_squarediamonds.svg	stimuli_distractor_trianglediamonds.svg	4	yes	53	1	607
6.6.1	mac	2022-12-14	18:05:01	18:11:40	397378	608349d97d46ab71fc6c7111	330150635	1	main_slash	7	advance_on_keypress_SLASH	86	stimuli_target_squarediamonds.svg	stimuli_distractor_trianglediamonds.svg	4	yes	57	0	659
6.6.1	mac	2022-12-14	18:05:01	18:11:42	399060	608349d97d46ab71fc6c7111	330150635	1	main_slash	7	main_slash	87	stimuli_target_circletriangles.svg	stimuli_distractor_diamondtriangles.svg	5	yes	53	1	407
6.6.1	mac	2022-12-14	18:05:01	18:11:42	399060	608349d97d46ab71fc6c7111	330150635	1	main_slash	7	advance_on_keypress_SLASH	88	stimuli_target_circletriangles.svg	stimuli_distractor_diamondtriangles.svg	5	yes	57	0	546
6.6.1	mac	2022-12-14	18:05:01	18:11:44	401404	608349d97d46ab71fc6c7111	330150635	1	main_slash	7	main_slash	89	stimuli_target_trianglesquares.svg	stimuli_distractor_trianglediamonds.svg	18	yes	53	1	1166
6.6.1	mac	2022-12-14	18:05:01	18:11:44	401404	608349d97d46ab71fc6c7111	330150635	1	main_slash	7	advance_on_keypress_SLASH	90	stimuli_target_trianglesquares.svg	stimuli_distractor_trianglediamonds.svg	18	yes	57	0	530
6.6.1	mac	2022-12-14	18:05:01	18:11:47	403977	608349d97d46ab71fc6c7111	330150635	1	main_slash	7	main_slash	91	stimuli_target_squaretriangles.svg	stimuli_distractor_trianglediamonds.svg	3	yes	53	1	1406
6.6.1	mac	2022-12-14	18:05:01	18:11:47	403977	608349d97d46ab71fc6c7111	330150635	1	main_slash	7	advance_on_keypress_SLASH	92	stimuli_target_squaretriangles.svg	stimuli_distractor_trianglediamonds.svg	3	yes	57	0	624
6.6.1	mac	2022-12-14	18:05:01	18:11:48	405791	608349d97d46ab71fc6c7111	330150635	1	main_slash	7	main_slash	93	stimuli_target_circletriangles.svg	stimuli_distractor_trianglediamonds.svg	1	yes	53	1	571
6.6.1	mac	2022-12-14	18:05:01	18:11:48	405791	608349d97d46ab71fc6c7111	330150635	1	main_slash	7	advance_on_keypress_SLASH	94	stimuli_target_circletriangles.svg	stimuli_distractor_trianglediamonds.svg	1	yes	57	0	578
6.6.1	mac	2022-12-14	18:05:01	18:11:51	408248	608349d97d46ab71fc6c7111	330150635	1	main_slash	7	main_slash	95	stimuli_target_trianglesquares.svg	stimuli_distractor_diamondtriangles.svg	22	yes	53	1	1243
6.6.1	mac	2022-12-14	18:05:01	18:11:51	408248	608349d97d46ab71fc6c7111	330150635	1	main_slash	7	advance_on_keypress_SLASH	96	stimuli_target_trianglesquares.svg	stimuli_distractor_diamondtriangles.svg	22	yes	57	0	513
6.6.1	mac	2022-12-14	18:05:01	18:11:52	409836	608349d97d46ab71fc6c7111	330150635	1	main_slash	7	main_slash	97	stimuli_target_circlediamonds.svg	stimuli_distractor_trianglediamonds.svg	2	yes	53	1	450
6.6.1	mac	2022-12-14	18:05:01	18:11:52	409836	608349d97d46ab71fc6c7111	330150635	1	main_slash	7	advance_on_keypress_SLASH	98	stimuli_target_circlediamonds.svg	stimuli_distractor_trianglediamonds.svg	2	yes	57	0	620
6.6.1	mac	2022-12-14	18:05:01	18:11:54	411576	608349d97d46ab71fc6c7111	330150635	1	main_slash	7	main_slash	99	stimuli_distractor_diamondtriangles.svg	stimuli_target_circlediamonds.svg	14	yes	53	1	488
6.6.1	mac	2022-12-14	18:05:01	18:11:54	411576	608349d97d46ab71fc6c7111	330150635	1	main_slash	7	advance_on_keypress_SLASH	100	stimuli_distractor_diamondtriangles.svg	stimuli_target_circlediamonds.svg	14	yes	57	0	616
6.6.1	mac	2022-12-14	18:05:01	18:11:56	413508	608349d97d46ab71fc6c7111	330150635	1	main_slash	7	main_slash	101	stimuli_distractor_trianglediamonds.svg	stimuli_target_diamondcircles.svg	27	yes	53	1	687
6.6.1	mac	2022-12-14	18:05:01	18:11:56	413508	608349d97d46ab71fc6c7111	330150635	1	main_slash	7	advance_on_keypress_SLASH	102	stimuli_distractor_trianglediamonds.svg	stimuli_target_diamondcircles.svg	27	yes	57	0	659
6.6.1	mac	2022-12-14	18:05:01	18:11:58	415220	608349d97d46ab71fc6c7111	330150635	1	main_slash	7	main_slash	103	stimuli_target_diamondcircles.svg	stimuli_distractor_diamondtriangles.svg	23	yes	53	1	432
6.6.1	mac	2022-12-14	18:05:01	18:11:58	415220	608349d97d46ab71fc6c7111	330150635	1	main_slash	7	advance_on_keypress_SLASH	104	stimuli_target_diamondcircles.svg	stimuli_distractor_diamondtriangles.svg	23	yes	57	0	527
6.6.1	mac	2022-12-14	18:05:01	18:11:59	416823	608349d97d46ab71fc6c7111	330150635	1	main_slash	7	main_slash	105	stimuli_target_diamondcircles.svg	stimuli_distractor_trianglediamonds.svg	19	yes	53	1	452
6.6.1	mac	2022-12-14	18:05:01	18:11:59	416823	608349d97d46ab71fc6c7111	330150635	1	main_slash	7	advance_on_keypress_SLASH	106	stimuli_target_diamondcircles.svg	stimuli_distractor_trianglediamonds.svg	19	yes	57	0	605
6.6.1	mac	2022-12-14	18:05:01	18:12:01	418643	608349d97d46ab71fc6c7111	330150635	1	main_slash	7	main_slash	107	stimuli_distractor_diamondtriangles.svg	stimuli_distractor_trianglediamonds.svg	38	no	53	0	588
6.6.1	mac	2022-12-14	18:05:01	18:12:01	418643	608349d97d46ab71fc6c7111	330150635	1	main_slash	7	advance_on_keypress_SLASH	108	stimuli_distractor_diamondtriangles.svg	stimuli_distractor_trianglediamonds.svg	38	no	57	0	702
6.6.1	mac	2022-12-14	18:05:01	18:12:05	421970	608349d97d46ab71fc6c7111	330150635	1	main_slash	7	main_slash	109	stimuli_distractor_trianglediamonds.svg	stimuli_distractor_trianglediamonds.svg	34	no	0	1	2000
6.6.1	mac	2022-12-14	18:05:01	18:12:05	421970	608349d97d46ab71fc6c7111	330150635	1	main_slash	7	advance_on_keypress_SLASH	110	stimuli_distractor_trianglediamonds.svg	stimuli_distractor_trianglediamonds.svg	34	no	57	0	381
6.6.1	mac	2022-12-14	18:05:01	18:12:08	424986	608349d97d46ab71fc6c7111	330150635	1	main_slash	7	main_slash	111	stimuli_distractor_diamondtriangles.svg	stimuli_distractor_trianglediamonds.svg	37	no	0	1	2000
6.6.1	mac	2022-12-14	18:05:01	18:12:08	424986	608349d97d46ab71fc6c7111	330150635	1	main_slash	7	advance_on_keypress_SLASH	112	stimuli_distractor_diamondtriangles.svg	stimuli_distractor_trianglediamonds.svg	37	no	57	0	170
6.6.1	mac	2022-12-14	18:05:01	18:12:09	426378	608349d97d46ab71fc6c7111	330150635	1	main_slash	7	main_slash	113	stimuli_target_trianglecircles.svg	stimuli_distractor_diamondtriangles.svg	21	yes	53	1	590
6.6.1	mac	2022-12-14	18:05:01	18:12:09	426378	608349d97d46ab71fc6c7111	330150635	1	main_slash	7	advance_on_keypress_SLASH	114	stimuli_target_trianglecircles.svg	stimuli_distractor_diamondtriangles.svg	21	yes	57	0	590
6.6.1	mac	2022-12-14	18:05:01	18:12:11	428380	608349d97d46ab71fc6c7111	330150635	1	main_slash	7	main_slash	115	stimuli_target_circlediamonds.svg	stimuli_distractor_diamondtriangles.svg	6	yes	53	1	792
6.6.1	mac	2022-12-14	18:05:01	18:12:11	428380	608349d97d46ab71fc6c7111	330150635	1	main_slash	7	advance_on_keypress_SLASH	116	stimuli_target_circlediamonds.svg	stimuli_distractor_diamondtriangles.svg	6	yes	57	0	497
6.6.1	mac	2022-12-14	18:05:01	18:12:13	430117	608349d97d46ab71fc6c7111	330150635	1	main_slash	7	main_slash	117	stimuli_distractor_trianglediamonds.svg	stimuli_target_circlediamonds.svg	10	yes	53	1	612
6.6.1	mac	2022-12-14	18:05:01	18:12:13	430117	608349d97d46ab71fc6c7111	330150635	1	main_slash	7	advance_on_keypress_SLASH	118	stimuli_distractor_trianglediamonds.svg	stimuli_target_circlediamonds.svg	10	yes	57	0	489
6.6.1	mac	2022-12-14	18:05:01	18:12:16	433236	608349d97d46ab71fc6c7111	330150635	1	main_slash	7	main_slash	119	stimuli_distractor_trianglediamonds.svg	stimuli_distractor_diamondtriangles.svg	36	no	0	1	2000
6.6.1	mac	2022-12-14	18:05:01	18:12:16	433236	608349d97d46ab71fc6c7111	330150635	1	main_slash	7	advance_on_keypress_SLASH	120	stimuli_distractor_trianglediamonds.svg	stimuli_distractor_diamondtriangles.svg	36	no	57	0	416
6.6.1	mac	2022-12-14	18:05:01	18:12:19	436287	608349d97d46ab71fc6c7111	330150635	1	main_slash	7	main_slash	121	stimuli_distractor_trianglediamonds.svg	stimuli_distractor_trianglediamonds.svg	33	no	0	1	2000
6.6.1	mac	2022-12-14	18:05:01	18:12:19	436287	608349d97d46ab71fc6c7111	330150635	1	main_slash	7	advance_on_keypress_SLASH	122	stimuli_distractor_trianglediamonds.svg	stimuli_distractor_trianglediamonds.svg	33	no	57	0	621
6.6.1	mac	2022-12-14	18:05:01	18:12:21	438383	608349d97d46ab71fc6c7111	330150635	1	main_slash	7	main_slash	123	stimuli_distractor_diamondtriangles.svg	stimuli_target_circletriangles.svg	13	yes	53	1	845
6.6.1	mac	2022-12-14	18:05:01	18:12:21	438383	608349d97d46ab71fc6c7111	330150635	1	main_slash	7	advance_on_keypress_SLASH	124	stimuli_distractor_diamondtriangles.svg	stimuli_target_circletriangles.svg	13	yes	57	0	533
6.6.1	mac	2022-12-14	18:05:01	18:12:24	441553	608349d97d46ab71fc6c7111	330150635	1	main_slash	7	main_slash	125	stimuli_distractor_diamondtriangles.svg	stimuli_distractor_diamondtriangles.svg	39	no	0	1	2000
6.6.1	mac	2022-12-14	18:05:01	18:12:24	441553	608349d97d46ab71fc6c7111	330150635	1	main_slash	7	advance_on_keypress_SLASH	126	stimuli_distractor_diamondtriangles.svg	stimuli_distractor_diamondtriangles.svg	39	no	57	0	423
6.6.1	mac	2022-12-14	18:05:01	18:12:27	444603	608349d97d46ab71fc6c7111	330150635	1	main_slash	7	main_slash	127	stimuli_distractor_trianglediamonds.svg	stimuli_distractor_diamondtriangles.svg	35	no	0	1	2000
6.6.1	mac	2022-12-14	18:05:01	18:12:27	444603	608349d97d46ab71fc6c7111	330150635	1	main_slash	7	advance_on_keypress_SLASH	128	stimuli_distractor_trianglediamonds.svg	stimuli_distractor_diamondtriangles.svg	35	no	57	0	456
6.6.1	mac	2022-12-14	18:05:01	18:12:29	446377	608349d97d46ab71fc6c7111	330150635	1	main_slash	7	main_slash	129	stimuli_distractor_trianglediamonds.svg	stimuli_target_squarediamonds.svg	12	yes	53	1	689
6.6.1	mac	2022-12-14	18:05:01	18:12:29	446377	608349d97d46ab71fc6c7111	330150635	1	main_slash	7	advance_on_keypress_SLASH	130	stimuli_distractor_trianglediamonds.svg	stimuli_target_squarediamonds.svg	12	yes	57	0	593
6.6.1	mac	2022-12-14	18:05:01	18:12:32	449586	608349d97d46ab71fc6c7111	330150635	1	main_slash	7	main_slash	131	stimuli_distractor_trianglediamonds.svg	stimuli_target_diamondsquares.svg	28	yes	0	0	2000
6.6.1	mac	2022-12-14	18:05:01	18:12:32	449586	608349d97d46ab71fc6c7111	330150635	1	main_slash	7	advance_on_keypress_SLASH	132	stimuli_distractor_trianglediamonds.svg	stimuli_target_diamondsquares.svg	28	yes	57	0	402
6.6.1	mac	2022-12-14	18:05:01	18:12:35	452619	608349d97d46ab71fc6c7111	330150635	1	main_slash	7	main_slash	133	stimuli_distractor_diamondtriangles.svg	stimuli_target_squaretriangles.svg	15	yes	0	0	2000
6.6.1	mac	2022-12-14	18:05:01	18:12:35	452619	608349d97d46ab71fc6c7111	330150635	1	main_slash	7	advance_on_keypress_SLASH	134	stimuli_distractor_diamondtriangles.svg	stimuli_target_squaretriangles.svg	15	yes	57	0	345
6.6.1	mac	2022-12-14	18:05:01	18:12:37	453915	608349d97d46ab71fc6c7111	330150635	1	main_slash	7	main_slash	135	stimuli_target_diamondsquares.svg	stimuli_distractor_trianglediamonds.svg	20	yes	53	1	310
6.6.1	mac	2022-12-14	18:05:01	18:12:37	453915	608349d97d46ab71fc6c7111	330150635	1	main_slash	7	advance_on_keypress_SLASH	136	stimuli_target_diamondsquares.svg	stimuli_distractor_trianglediamonds.svg	20	yes	57	0	1108
6.6.1	mac	2022-12-14	18:05:01	18:12:39	456495	608349d97d46ab71fc6c7111	330150635	1	main_slash	7	main_slash	137	stimuli_target_trianglecircles.svg	stimuli_distractor_trianglediamonds.svg	17	yes	53	1	857
6.6.1	mac	2022-12-14	18:05:01	18:12:39	456495	608349d97d46ab71fc6c7111	330150635	1	main_slash	7	advance_on_keypress_SLASH	138	stimuli_target_trianglecircles.svg	stimuli_distractor_trianglediamonds.svg	17	yes	57	0	605
6.6.1	mac	2022-12-14	18:05:01	18:12:41	458490	608349d97d46ab71fc6c7111	330150635	1	main_slash	7	main_slash	139	stimuli_target_squarediamonds.svg	stimuli_distractor_diamondtriangles.svg	8	yes	53	1	768
6.6.1	mac	2022-12-14	18:05:01	18:12:41	458490	608349d97d46ab71fc6c7111	330150635	1	main_slash	7	advance_on_keypress_SLASH	140	stimuli_target_squarediamonds.svg	stimuli_distractor_diamondtriangles.svg	8	yes	57	0	526
6.6.1	mac	2022-12-14	18:05:01	18:12:44	461637	608349d97d46ab71fc6c7111	330150635	1	main_slash	7	main_slash	141	stimuli_distractor_diamondtriangles.svg	stimuli_target_diamondsquares.svg	32	yes	0	0	2000
6.6.1	mac	2022-12-14	18:05:01	18:12:44	461637	608349d97d46ab71fc6c7111	330150635	1	main_slash	7	advance_on_keypress_SLASH	142	stimuli_distractor_diamondtriangles.svg	stimuli_target_diamondsquares.svg	32	yes	57	0	332
6.6.1	mac	2022-12-14	18:05:01	18:12:47	464604	608349d97d46ab71fc6c7111	330150635	1	main_slash	7	main_slash	143	stimuli_target_squaretriangles.svg	stimuli_distractor_diamondtriangles.svg	7	yes	0	0	2000
6.6.1	mac	2022-12-14	18:05:01	18:12:47	464604	608349d97d46ab71fc6c7111	330150635	1	main_slash	7	advance_on_keypress_SLASH	144	stimuli_target_squaretriangles.svg	stimuli_distractor_diamondtriangles.svg	7	yes	57	0	337
6.6.1	mac	2022-12-14	18:05:01	18:12:49	466481	608349d97d46ab71fc6c7111	330150635	1	main_slash	7	main_slash	145	stimuli_distractor_trianglediamonds.svg	stimuli_target_trianglesquares.svg	26	yes	53	1	909
6.6.1	mac	2022-12-14	18:05:01	18:12:49	466481	608349d97d46ab71fc6c7111	330150635	1	main_slash	7	advance_on_keypress_SLASH	146	stimuli_distractor_trianglediamonds.svg	stimuli_target_trianglesquares.svg	26	yes	57	0	650
6.6.1	mac	2022-12-14	18:05:01	18:12:51	468527	608349d97d46ab71fc6c7111	330150635	1	main_slash	7	main_slash	147	stimuli_distractor_diamondtriangles.svg	stimuli_target_squarediamonds.svg	16	yes	53	1	772
6.6.1	mac	2022-12-14	18:05:01	18:12:51	468527	608349d97d46ab71fc6c7111	330150635	1	main_slash	7	advance_on_keypress_SLASH	148	stimuli_distractor_diamondtriangles.svg	stimuli_target_squarediamonds.svg	16	yes	57	0	529
6.6.1	mac	2022-12-14	18:05:01	18:12:54	471687	608349d97d46ab71fc6c7111	330150635	1	main_slash	7	main_slash	149	stimuli_distractor_diamondtriangles.svg	stimuli_distractor_diamondtriangles.svg	40	no	0	1	2000
6.6.1	mac	2022-12-14	18:05:01	18:12:54	471687	608349d97d46ab71fc6c7111	330150635	1	main_slash	7	advance_on_keypress_SLASH	150	stimuli_distractor_diamondtriangles.svg	stimuli_distractor_diamondtriangles.svg	40	no	57	0	366
6.6.1	mac	2022-12-14	18:05:01	18:12:56	473407	608349d97d46ab71fc6c7111	330150635	1	main_slash	7	main_slash	151	stimuli_distractor_trianglediamonds.svg	stimuli_target_squaretriangles.svg	11	yes	53	1	718
6.6.1	mac	2022-12-14	18:05:01	18:12:56	473407	608349d97d46ab71fc6c7111	330150635	1	main_slash	7	advance_on_keypress_SLASH	152	stimuli_distractor_trianglediamonds.svg	stimuli_target_squaretriangles.svg	11	yes	57	0	482
6.6.1	mac	2022-12-14	18:05:01	18:12:58	475193	608349d97d46ab71fc6c7111	330150635	1	main_slash	7	main_slash	153	stimuli_distractor_trianglediamonds.svg	stimuli_target_trianglecircles.svg	25	yes	53	1	670
6.6.1	mac	2022-12-14	18:05:01	18:12:58	475193	608349d97d46ab71fc6c7111	330150635	1	main_slash	7	advance_on_keypress_SLASH	154	stimuli_distractor_trianglediamonds.svg	stimuli_target_trianglecircles.svg	25	yes	57	0	477
6.6.1	mac	2022-12-14	18:05:01	18:13:00	477066	608349d97d46ab71fc6c7111	330150635	1	main_slash	7	main_slash	155	stimuli_distractor_diamondtriangles.svg	stimuli_target_diamondcircles.svg	31	yes	53	1	777
6.6.1	mac	2022-12-14	18:05:01	18:13:00	477066	608349d97d46ab71fc6c7111	330150635	1	main_slash	7	advance_on_keypress_SLASH	156	stimuli_distractor_diamondtriangles.svg	stimuli_target_diamondcircles.svg	31	yes	57	0	710
6.6.1	mac	2022-12-14	18:05:01	18:13:02	479340	608349d97d46ab71fc6c7111	330150635	1	main_slash	7	main_slash	157	stimuli_distractor_diamondtriangles.svg	stimuli_target_trianglecircles.svg	29	yes	53	1	951
6.6.1	mac	2022-12-14	18:05:01	18:13:02	479340	608349d97d46ab71fc6c7111	330150635	1	main_slash	7	advance_on_keypress_SLASH	158	stimuli_distractor_diamondtriangles.svg	stimuli_target_trianglecircles.svg	29	yes	57	0	505
6.6.1	mac	2022-12-14	18:05:01	18:13:04	480966	608349d97d46ab71fc6c7111	330150635	1	main_slash	7	main_slash	159	stimuli_distractor_trianglediamonds.svg	stimuli_target_circletriangles.svg	9	yes	53	1	493
6.6.1	mac	2022-12-14	18:05:01	18:13:04	480966	608349d97d46ab71fc6c7111	330150635	1	main_slash	7	advance_on_keypress_SLASH	160	stimuli_distractor_trianglediamonds.svg	stimuli_target_circletriangles.svg	9	yes	57	0	444
6.6.1	mac	2022-12-14	18:05:01	18:13:28	504915	608349d97d46ab71fc6c7111	330150635	1	practice_z	9	practice_z	1	stimuli_target_squarediamonds.svg	stimuli_distractor_diamondtriangles.svg	2	yes	44	1	710
6.6.1	mac	2022-12-14	18:05:01	18:13:28	504915	608349d97d46ab71fc6c7111	330150635	1	practice_z	9	advance_on_keypress_ZEE	2	stimuli_target_squarediamonds.svg	stimuli_distractor_diamondtriangles.svg	2	yes	57	0	928
6.6.1	mac	2022-12-14	18:05:01	18:13:31	508774	608349d97d46ab71fc6c7111	330150635	1	practice_z	9	practice_z	3	stimuli_target_squarediamonds.svg	stimuli_distractor_trianglediamonds.svg	5	yes	44	1	1301
6.6.1	mac	2022-12-14	18:05:01	18:13:31	508774	608349d97d46ab71fc6c7111	330150635	1	practice_z	9	advance_on_keypress_ZEE	4	stimuli_target_squarediamonds.svg	stimuli_distractor_trianglediamonds.svg	5	yes	57	0	478
6.6.1	mac	2022-12-14	18:05:01	18:13:34	511623	608349d97d46ab71fc6c7111	330150635	1	practice_z	9	practice_z	5	stimuli_distractor_trianglediamonds.svg	stimuli_target_squarediamonds.svg	11	yes	44	1	733
6.6.1	mac	2022-12-14	18:05:01	18:13:34	511623	608349d97d46ab71fc6c7111	330150635	1	practice_z	9	advance_on_keypress_ZEE	6	stimuli_distractor_trianglediamonds.svg	stimuli_target_squarediamonds.svg	11	yes	57	0	527
6.6.1	mac	2022-12-14	18:05:01	18:13:37	514435	608349d97d46ab71fc6c7111	330150635	1	practice_z	9	practice_z	7	stimuli_target_diamondsquares.svg	stimuli_distractor_diamondtriangles.svg	3	yes	44	1	661
6.6.1	mac	2022-12-14	18:05:01	18:13:37	514435	608349d97d46ab71fc6c7111	330150635	1	practice_z	9	advance_on_keypress_ZEE	8	stimuli_target_diamondsquares.svg	stimuli_distractor_diamondtriangles.svg	3	yes	57	0	595
6.6.1	mac	2022-12-14	18:05:01	18:13:41	518674	608349d97d46ab71fc6c7111	330150635	1	practice_z	9	practice_z	9	stimuli_distractor_diamondtriangles.svg	stimuli_distractor_diamondtriangles.svg	13	no	0	1	2000
6.6.1	mac	2022-12-14	18:05:01	18:13:41	518674	608349d97d46ab71fc6c7111	330150635	1	practice_z	9	advance_on_keypress_ZEE	10	stimuli_distractor_diamondtriangles.svg	stimuli_distractor_diamondtriangles.svg	13	no	57	0	426
6.6.1	mac	2022-12-14	18:05:01	18:13:44	521296	608349d97d46ab71fc6c7111	330150635	1	practice_z	9	practice_z	11	stimuli_distractor_trianglediamonds.svg	stimuli_target_diamondcircles.svg	12	yes	44	1	573
6.6.1	mac	2022-12-14	18:05:01	18:13:44	521296	608349d97d46ab71fc6c7111	330150635	1	practice_z	9	advance_on_keypress_ZEE	12	stimuli_distractor_trianglediamonds.svg	stimuli_target_diamondcircles.svg	12	yes	57	0	559
6.6.1	mac	2022-12-14	18:05:01	18:13:47	524107	608349d97d46ab71fc6c7111	330150635	1	practice_z	9	practice_z	13	stimuli_target_circlediamonds.svg	stimuli_distractor_diamondtriangles.svg	1	yes	44	1	630
6.6.1	mac	2022-12-14	18:05:01	18:13:47	524107	608349d97d46ab71fc6c7111	330150635	1	practice_z	9	advance_on_keypress_ZEE	14	stimuli_target_circlediamonds.svg	stimuli_distractor_diamondtriangles.svg	1	yes	57	0	495
6.6.1	mac	2022-12-14	18:05:01	18:13:50	526934	608349d97d46ab71fc6c7111	330150635	1	practice_z	9	practice_z	15	stimuli_distractor_diamondtriangles.svg	stimuli_target_trianglecircles.svg	9	yes	44	1	692
6.6.1	mac	2022-12-14	18:05:01	18:13:50	526934	608349d97d46ab71fc6c7111	330150635	1	practice_z	9	advance_on_keypress_ZEE	16	stimuli_distractor_diamondtriangles.svg	stimuli_target_trianglecircles.svg	9	yes	57	0	475
6.6.1	mac	2022-12-14	18:05:01	18:13:54	531023	608349d97d46ab71fc6c7111	330150635	1	practice_z	9	practice_z	17	stimuli_distractor_trianglediamonds.svg	stimuli_distractor_trianglediamonds.svg	15	no	0	1	2000
6.6.1	mac	2022-12-14	18:05:01	18:13:54	531023	608349d97d46ab71fc6c7111	330150635	1	practice_z	9	advance_on_keypress_ZEE	18	stimuli_distractor_trianglediamonds.svg	stimuli_distractor_trianglediamonds.svg	15	no	57	0	463
6.6.1	mac	2022-12-14	18:05:01	18:13:56	533745	608349d97d46ab71fc6c7111	330150635	1	practice_z	9	practice_z	19	stimuli_distractor_diamondtriangles.svg	stimuli_target_circletriangles.svg	7	yes	44	1	621
6.6.1	mac	2022-12-14	18:05:01	18:13:56	533745	608349d97d46ab71fc6c7111	330150635	1	practice_z	9	advance_on_keypress_ZEE	20	stimuli_distractor_diamondtriangles.svg	stimuli_target_circletriangles.svg	7	yes	57	0	596
6.6.1	mac	2022-12-14	18:05:01	18:14:00	537165	608349d97d46ab71fc6c7111	330150635	1	practice_z	9	practice_z	21	stimuli_target_diamondsquares.svg	stimuli_distractor_trianglediamonds.svg	6	yes	44	1	1191
6.6.1	mac	2022-12-14	18:05:01	18:14:00	537165	608349d97d46ab71fc6c7111	330150635	1	practice_z	9	advance_on_keypress_ZEE	22	stimuli_target_diamondsquares.svg	stimuli_distractor_trianglediamonds.svg	6	yes	57	0	519
6.6.1	mac	2022-12-14	18:05:01	18:14:04	541307	608349d97d46ab71fc6c7111	330150635	1	practice_z	9	practice_z	23	stimuli_distractor_trianglediamonds.svg	stimuli_distractor_diamondtriangles.svg	16	no	0	1	2000
6.6.1	mac	2022-12-14	18:05:01	18:14:04	541307	608349d97d46ab71fc6c7111	330150635	1	practice_z	9	advance_on_keypress_ZEE	24	stimuli_distractor_trianglediamonds.svg	stimuli_distractor_diamondtriangles.svg	16	no	57	0	600
6.6.1	mac	2022-12-14	18:05:01	18:14:07	544013	608349d97d46ab71fc6c7111	330150635	1	practice_z	9	practice_z	25	stimuli_target_circlediamonds.svg	stimuli_distractor_trianglediamonds.svg	4	yes	44	1	472
6.6.1	mac	2022-12-14	18:05:01	18:14:07	544013	608349d97d46ab71fc6c7111	330150635	1	practice_z	9	advance_on_keypress_ZEE	26	stimuli_target_circlediamonds.svg	stimuli_distractor_trianglediamonds.svg	4	yes	57	0	417
6.6.1	mac	2022-12-14	18:05:01	18:14:11	548057	608349d97d46ab71fc6c7111	330150635	1	practice_z	9	practice_z	27	stimuli_distractor_trianglediamonds.svg	stimuli_target_circlediamonds.svg	10	yes	0	0	2000
6.6.1	mac	2022-12-14	18:05:01	18:14:11	548057	608349d97d46ab71fc6c7111	330150635	1	practice_z	9	advance_on_keypress_ZEE	28	stimuli_distractor_trianglediamonds.svg	stimuli_target_circlediamonds.svg	10	yes	57	0	159
6.6.1	mac	2022-12-14	18:05:01	18:14:14	551840	608349d97d46ab71fc6c7111	330150635	1	practice_z	9	practice_z	29	stimuli_distractor_diamondtriangles.svg	stimuli_target_diamondcircles.svg	8	yes	0	0	2000
6.6.1	mac	2022-12-14	18:05:01	18:14:14	551840	608349d97d46ab71fc6c7111	330150635	1	practice_z	9	advance_on_keypress_ZEE	30	stimuli_distractor_diamondtriangles.svg	stimuli_target_diamondcircles.svg	8	yes	57	0	559
6.6.1	mac	2022-12-14	18:05:01	18:14:19	556024	608349d97d46ab71fc6c7111	330150635	1	practice_z	9	practice_z	31	stimuli_distractor_diamondtriangles.svg	stimuli_distractor_trianglediamonds.svg	14	no	0	1	2000
6.6.1	mac	2022-12-14	18:05:01	18:14:19	556024	608349d97d46ab71fc6c7111	330150635	1	practice_z	9	advance_on_keypress_ZEE	32	stimuli_distractor_diamondtriangles.svg	stimuli_distractor_trianglediamonds.svg	14	no	57	0	450
6.6.1	mac	2022-12-14	18:05:01	18:14:42	579479	608349d97d46ab71fc6c7111	330150635	1	main_z	11	main_z	1	stimuli_target_circlediamonds.svg	stimuli_distractor_diamondtriangles.svg	6	yes	44	1	382
6.6.1	mac	2022-12-14	18:05:01	18:14:42	579479	608349d97d46ab71fc6c7111	330150635	1	main_z	11	advance_on_keypress_ZEE	2	stimuli_target_circlediamonds.svg	stimuli_distractor_diamondtriangles.svg	6	yes	57	0	579
6.6.1	mac	2022-12-14	18:05:01	18:14:44	581267	608349d97d46ab71fc6c7111	330150635	1	main_z	11	main_z	3	stimuli_distractor_diamondtriangles.svg	stimuli_target_diamondcircles.svg	31	yes	44	1	575
6.6.1	mac	2022-12-14	18:05:01	18:14:44	581267	608349d97d46ab71fc6c7111	330150635	1	main_z	11	advance_on_keypress_ZEE	4	stimuli_distractor_diamondtriangles.svg	stimuli_target_diamondcircles.svg	31	yes	57	0	3
6.6.1	mac	2022-12-14	18:05:01	18:14:46	583319	608349d97d46ab71fc6c7111	330150635	1	main_z	11	main_z	5	stimuli_distractor_trianglediamonds.svg	stimuli_target_diamondsquares.svg	28	yes	44	1	1410
6.6.1	mac	2022-12-14	18:05:01	18:14:46	583319	608349d97d46ab71fc6c7111	330150635	1	main_z	11	advance_on_keypress_ZEE	6	stimuli_distractor_trianglediamonds.svg	stimuli_target_diamondsquares.svg	28	yes	57	0	466
6.6.1	mac	2022-12-14	18:05:01	18:14:48	585244	608349d97d46ab71fc6c7111	330150635	1	main_z	11	main_z	7	stimuli_distractor_trianglediamonds.svg	stimuli_target_trianglesquares.svg	26	yes	44	1	836
6.6.1	mac	2022-12-14	18:05:01	18:14:48	585244	608349d97d46ab71fc6c7111	330150635	1	main_z	11	advance_on_keypress_ZEE	8	stimuli_distractor_trianglediamonds.svg	stimuli_target_trianglesquares.svg	26	yes	57	0	657
6.6.1	mac	2022-12-14	18:05:01	18:14:50	587745	608349d97d46ab71fc6c7111	330150635	1	main_z	11	main_z	9	stimuli_distractor_trianglediamonds.svg	stimuli_distractor_diamondtriangles.svg	35	no	44	0	1220
6.6.1	mac	2022-12-14	18:05:01	18:14:50	587745	608349d97d46ab71fc6c7111	330150635	1	main_z	11	advance_on_keypress_ZEE	10	stimuli_distractor_trianglediamonds.svg	stimuli_distractor_diamondtriangles.svg	35	no	57	0	505
6.6.1	mac	2022-12-14	18:05:01	18:14:52	589415	608349d97d46ab71fc6c7111	330150635	1	main_z	11	main_z	11	stimuli_target_diamondcircles.svg	stimuli_distractor_diamondtriangles.svg	23	yes	44	1	540
6.6.1	mac	2022-12-14	18:05:01	18:14:52	589415	608349d97d46ab71fc6c7111	330150635	1	main_z	11	advance_on_keypress_ZEE	12	stimuli_target_diamondcircles.svg	stimuli_distractor_diamondtriangles.svg	23	yes	57	0	435
6.6.1	mac	2022-12-14	18:05:01	18:14:54	591115	608349d97d46ab71fc6c7111	330150635	1	main_z	11	main_z	13	stimuli_distractor_trianglediamonds.svg	stimuli_target_squaretriangles.svg	11	yes	44	1	639
6.6.1	mac	2022-12-14	18:05:01	18:14:54	591115	608349d97d46ab71fc6c7111	330150635	1	main_z	11	advance_on_keypress_ZEE	14	stimuli_distractor_trianglediamonds.svg	stimuli_target_squaretriangles.svg	11	yes	57	0	540
6.6.1	mac	2022-12-14	18:05:01	18:14:55	592680	608349d97d46ab71fc6c7111	330150635	1	main_z	11	main_z	15	stimuli_target_diamondcircles.svg	stimuli_distractor_trianglediamonds.svg	19	yes	44	1	404
6.6.1	mac	2022-12-14	18:05:01	18:14:55	592680	608349d97d46ab71fc6c7111	330150635	1	main_z	11	advance_on_keypress_ZEE	16	stimuli_target_diamondcircles.svg	stimuli_distractor_trianglediamonds.svg	19	yes	57	0	514
6.6.1	mac	2022-12-14	18:05:01	18:14:58	595825	608349d97d46ab71fc6c7111	330150635	1	main_z	11	main_z	17	stimuli_target_squaretriangles.svg	stimuli_distractor_trianglediamonds.svg	3	yes	0	0	2000
6.6.1	mac	2022-12-14	18:05:01	18:14:58	595825	608349d97d46ab71fc6c7111	330150635	1	main_z	11	advance_on_keypress_ZEE	18	stimuli_target_squaretriangles.svg	stimuli_distractor_trianglediamonds.svg	3	yes	57	0	380
6.6.1	mac	2022-12-14	18:05:01	18:15:00	597325	608349d97d46ab71fc6c7111	330150635	1	main_z	11	main_z	19	stimuli_distractor_trianglediamonds.svg	stimuli_target_trianglecircles.svg	25	yes	44	1	483
6.6.1	mac	2022-12-14	18:05:01	18:15:00	597325	608349d97d46ab71fc6c7111	330150635	1	main_z	11	advance_on_keypress_ZEE	20	stimuli_distractor_trianglediamonds.svg	stimuli_target_trianglecircles.svg	25	yes	57	0	578
6.6.1	mac	2022-12-14	18:05:01	18:15:02	599231	608349d97d46ab71fc6c7111	330150635	1	main_z	11	main_z	21	stimuli_target_circletriangles.svg	stimuli_distractor_trianglediamonds.svg	1	yes	44	1	705
6.6.1	mac	2022-12-14	18:05:01	18:15:02	599231	608349d97d46ab71fc6c7111	330150635	1	main_z	11	advance_on_keypress_ZEE	22	stimuli_target_circletriangles.svg	stimuli_distractor_trianglediamonds.svg	1	yes	57	0	522
6.6.1	mac	2022-12-14	18:05:01	18:15:04	600988	608349d97d46ab71fc6c7111	330150635	1	main_z	11	main_z	23	stimuli_distractor_diamondtriangles.svg	stimuli_target_circlediamonds.svg	14	yes	44	1	612
6.6.1	mac	2022-12-14	18:05:01	18:15:04	600988	608349d97d46ab71fc6c7111	330150635	1	main_z	11	advance_on_keypress_ZEE	24	stimuli_distractor_diamondtriangles.svg	stimuli_target_circlediamonds.svg	14	yes	57	0	458
6.6.1	mac	2022-12-14	18:05:01	18:15:05	602709	608349d97d46ab71fc6c7111	330150635	1	main_z	11	main_z	25	stimuli_target_circletriangles.svg	stimuli_distractor_diamondtriangles.svg	5	yes	44	1	633
6.6.1	mac	2022-12-14	18:05:01	18:15:05	602709	608349d97d46ab71fc6c7111	330150635	1	main_z	11	advance_on_keypress_ZEE	26	stimuli_target_circletriangles.svg	stimuli_distractor_diamondtriangles.svg	5	yes	57	0	477
6.6.1	mac	2022-12-14	18:05:01	18:15:08	605808	608349d97d46ab71fc6c7111	330150635	1	main_z	11	main_z	27	stimuli_distractor_trianglediamonds.svg	stimuli_distractor_trianglediamonds.svg	33	no	0	1	2000
6.6.1	mac	2022-12-14	18:05:01	18:15:08	605808	608349d97d46ab71fc6c7111	330150635	1	main_z	11	advance_on_keypress_ZEE	28	stimuli_distractor_trianglediamonds.svg	stimuli_distractor_trianglediamonds.svg	33	no	57	0	545
6.6.1	mac	2022-12-14	18:05:01	18:15:10	607511	608349d97d46ab71fc6c7111	330150635	1	main_z	11	main_z	29	stimuli_distractor_trianglediamonds.svg	stimuli_target_diamondcircles.svg	27	yes	44	1	520
6.6.1	mac	2022-12-14	18:05:01	18:15:10	607511	608349d97d46ab71fc6c7111	330150635	1	main_z	11	advance_on_keypress_ZEE	30	stimuli_distractor_trianglediamonds.svg	stimuli_target_diamondcircles.svg	27	yes	57	0	573
6.6.1	mac	2022-12-14	18:05:01	18:15:12	609274	608349d97d46ab71fc6c7111	330150635	1	main_z	11	main_z	31	stimuli_distractor_trianglediamonds.svg	stimuli_target_squarediamonds.svg	12	yes	44	1	564
6.6.1	mac	2022-12-14	18:05:01	18:15:12	609274	608349d97d46ab71fc6c7111	330150635	1	main_z	11	advance_on_keypress_ZEE	32	stimuli_distractor_trianglediamonds.svg	stimuli_target_squarediamonds.svg	12	yes	57	0	467
6.6.1	mac	2022-12-14	18:05:01	18:15:14	610932	608349d97d46ab71fc6c7111	330150635	1	main_z	11	main_z	33	stimuli_distractor_diamondtriangles.svg	stimuli_target_squaretriangles.svg	15	yes	44	1	557
6.6.1	mac	2022-12-14	18:05:01	18:15:14	610932	608349d97d46ab71fc6c7111	330150635	1	main_z	11	advance_on_keypress_ZEE	34	stimuli_distractor_diamondtriangles.svg	stimuli_target_squaretriangles.svg	15	yes	57	0	501
6.6.1	mac	2022-12-14	18:05:01	18:15:17	614058	608349d97d46ab71fc6c7111	330150635	1	main_z	11	main_z	35	stimuli_distractor_diamondtriangles.svg	stimuli_distractor_trianglediamonds.svg	38	no	0	1	2000
6.6.1	mac	2022-12-14	18:05:01	18:15:17	614058	608349d97d46ab71fc6c7111	330150635	1	main_z	11	advance_on_keypress_ZEE	36	stimuli_distractor_diamondtriangles.svg	stimuli_distractor_trianglediamonds.svg	38	no	57	0	444
6.6.1	mac	2022-12-14	18:05:01	18:15:18	615612	608349d97d46ab71fc6c7111	330150635	1	main_z	11	main_z	37	stimuli_target_squarediamonds.svg	stimuli_distractor_diamondtriangles.svg	8	yes	44	1	469
6.6.1	mac	2022-12-14	18:05:01	18:15:18	615612	608349d97d46ab71fc6c7111	330150635	1	main_z	11	advance_on_keypress_ZEE	38	stimuli_target_squarediamonds.svg	stimuli_distractor_diamondtriangles.svg	8	yes	57	0	612
6.6.1	mac	2022-12-14	18:05:01	18:15:22	618858	608349d97d46ab71fc6c7111	330150635	1	main_z	11	main_z	39	stimuli_target_diamondsquares.svg	stimuli_distractor_diamondtriangles.svg	24	yes	0	0	2000
6.6.1	mac	2022-12-14	18:05:01	18:15:22	618858	608349d97d46ab71fc6c7111	330150635	1	main_z	11	advance_on_keypress_ZEE	40	stimuli_target_diamondsquares.svg	stimuli_distractor_diamondtriangles.svg	24	yes	57	0	420
6.6.1	mac	2022-12-14	18:05:01	18:15:23	620573	608349d97d46ab71fc6c7111	330150635	1	main_z	11	main_z	41	stimuli_target_trianglesquares.svg	stimuli_distractor_diamondtriangles.svg	22	yes	44	1	664
6.6.1	mac	2022-12-14	18:05:01	18:15:23	620573	608349d97d46ab71fc6c7111	330150635	1	main_z	11	advance_on_keypress_ZEE	42	stimuli_target_trianglesquares.svg	stimuli_distractor_diamondtriangles.svg	22	yes	57	0	543
6.6.1	mac	2022-12-14	18:05:01	18:15:26	623742	608349d97d46ab71fc6c7111	330150635	1	main_z	11	main_z	43	stimuli_distractor_trianglediamonds.svg	stimuli_distractor_trianglediamonds.svg	34	no	0	1	2000
6.6.1	mac	2022-12-14	18:05:01	18:15:26	623742	608349d97d46ab71fc6c7111	330150635	1	main_z	11	advance_on_keypress_ZEE	44	stimuli_distractor_trianglediamonds.svg	stimuli_distractor_trianglediamonds.svg	34	no	57	0	411
6.6.1	mac	2022-12-14	18:05:01	18:15:29	626774	608349d97d46ab71fc6c7111	330150635	1	main_z	11	main_z	45	stimuli_distractor_diamondtriangles.svg	stimuli_distractor_diamondtriangles.svg	40	no	0	1	2000
6.6.1	mac	2022-12-14	18:05:01	18:15:29	626774	608349d97d46ab71fc6c7111	330150635	1	main_z	11	advance_on_keypress_ZEE	46	stimuli_distractor_diamondtriangles.svg	stimuli_distractor_diamondtriangles.svg	40	no	57	0	431
6.6.1	mac	2022-12-14	18:05:01	18:15:31	628450	608349d97d46ab71fc6c7111	330150635	1	main_z	11	main_z	47	stimuli_target_squaretriangles.svg	stimuli_distractor_diamondtriangles.svg	7	yes	44	1	607
6.6.1	mac	2022-12-14	18:05:01	18:15:31	628450	608349d97d46ab71fc6c7111	330150635	1	main_z	11	advance_on_keypress_ZEE	48	stimuli_target_squaretriangles.svg	stimuli_distractor_diamondtriangles.svg	7	yes	57	0	498
6.6.1	mac	2022-12-14	18:05:01	18:15:33	630198	608349d97d46ab71fc6c7111	330150635	1	main_z	11	main_z	49	stimuli_distractor_diamondtriangles.svg	stimuli_target_squarediamonds.svg	16	yes	44	1	622
6.6.1	mac	2022-12-14	18:05:01	18:15:33	630198	608349d97d46ab71fc6c7111	330150635	1	main_z	11	advance_on_keypress_ZEE	50	stimuli_distractor_diamondtriangles.svg	stimuli_target_squarediamonds.svg	16	yes	57	0	529
6.6.1	mac	2022-12-14	18:05:01	18:15:35	631938	608349d97d46ab71fc6c7111	330150635	1	main_z	11	main_z	51	stimuli_distractor_diamondtriangles.svg	stimuli_target_circletriangles.svg	13	yes	44	1	578
6.6.1	mac	2022-12-14	18:05:01	18:15:35	631938	608349d97d46ab71fc6c7111	330150635	1	main_z	11	advance_on_keypress_ZEE	52	stimuli_distractor_diamondtriangles.svg	stimuli_target_circletriangles.svg	13	yes	57	0	490
6.6.1	mac	2022-12-14	18:05:01	18:15:36	633622	608349d97d46ab71fc6c7111	330150635	1	main_z	11	main_z	53	stimuli_distractor_diamondtriangles.svg	stimuli_target_trianglecircles.svg	29	yes	44	1	562
6.6.1	mac	2022-12-14	18:05:01	18:15:36	633622	608349d97d46ab71fc6c7111	330150635	1	main_z	11	advance_on_keypress_ZEE	54	stimuli_distractor_diamondtriangles.svg	stimuli_target_trianglecircles.svg	29	yes	57	0	467
6.6.1	mac	2022-12-14	18:05:01	18:15:38	635181	608349d97d46ab71fc6c7111	330150635	1	main_z	11	main_z	55	stimuli_target_trianglecircles.svg	stimuli_distractor_diamondtriangles.svg	21	yes	44	1	454
6.6.1	mac	2022-12-14	18:05:01	18:15:38	635181	608349d97d46ab71fc6c7111	330150635	1	main_z	11	advance_on_keypress_ZEE	56	stimuli_target_trianglecircles.svg	stimuli_distractor_diamondtriangles.svg	21	yes	57	0	508
6.6.1	mac	2022-12-14	18:05:01	18:15:41	638309	608349d97d46ab71fc6c7111	330150635	1	main_z	11	main_z	57	stimuli_distractor_diamondtriangles.svg	stimuli_distractor_diamondtriangles.svg	39	no	0	1	2000
6.6.1	mac	2022-12-14	18:05:01	18:15:41	638309	608349d97d46ab71fc6c7111	330150635	1	main_z	11	advance_on_keypress_ZEE	58	stimuli_distractor_diamondtriangles.svg	stimuli_distractor_diamondtriangles.svg	39	no	57	0	362
6.6.1	mac	2022-12-14	18:05:01	18:15:42	639820	608349d97d46ab71fc6c7111	330150635	1	main_z	11	main_z	59	stimuli_distractor_trianglediamonds.svg	stimuli_target_circletriangles.svg	9	yes	44	1	510
6.6.1	mac	2022-12-14	18:05:01	18:15:42	639820	608349d97d46ab71fc6c7111	330150635	1	main_z	11	advance_on_keypress_ZEE	60	stimuli_distractor_trianglediamonds.svg	stimuli_target_circletriangles.svg	9	yes	57	0	400
6.6.1	mac	2022-12-14	18:05:01	18:15:44	641430	608349d97d46ab71fc6c7111	330150635	1	main_z	11	main_z	61	stimuli_target_trianglecircles.svg	stimuli_distractor_trianglediamonds.svg	17	yes	44	1	571
6.6.1	mac	2022-12-14	18:05:01	18:15:44	641430	608349d97d46ab71fc6c7111	330150635	1	main_z	11	advance_on_keypress_ZEE	62	stimuli_target_trianglecircles.svg	stimuli_distractor_trianglediamonds.svg	17	yes	57	0	395
6.6.1	mac	2022-12-14	18:05:01	18:15:46	643019	608349d97d46ab71fc6c7111	330150635	1	main_z	11	main_z	63	stimuli_target_trianglesquares.svg	stimuli_distractor_trianglediamonds.svg	18	yes	44	1	558
6.6.1	mac	2022-12-14	18:05:01	18:15:46	643019	608349d97d46ab71fc6c7111	330150635	1	main_z	11	advance_on_keypress_ZEE	64	stimuli_target_trianglesquares.svg	stimuli_distractor_trianglediamonds.svg	18	yes	57	0	515
6.6.1	mac	2022-12-14	18:05:01	18:15:47	644595	608349d97d46ab71fc6c7111	330150635	1	main_z	11	main_z	65	stimuli_target_diamondsquares.svg	stimuli_distractor_trianglediamonds.svg	20	yes	44	1	435
6.6.1	mac	2022-12-14	18:05:01	18:15:47	644595	608349d97d46ab71fc6c7111	330150635	1	main_z	11	advance_on_keypress_ZEE	66	stimuli_target_diamondsquares.svg	stimuli_distractor_trianglediamonds.svg	20	yes	57	0	521
6.6.1	mac	2022-12-14	18:05:01	18:15:49	646206	608349d97d46ab71fc6c7111	330150635	1	main_z	11	main_z	67	stimuli_target_circlediamonds.svg	stimuli_distractor_trianglediamonds.svg	2	yes	44	1	462
6.6.1	mac	2022-12-14	18:05:01	18:15:49	646206	608349d97d46ab71fc6c7111	330150635	1	main_z	11	advance_on_keypress_ZEE	68	stimuli_target_circlediamonds.svg	stimuli_distractor_trianglediamonds.svg	2	yes	57	0	390
6.6.1	mac	2022-12-14	18:05:01	18:15:51	647877	608349d97d46ab71fc6c7111	330150635	1	main_z	11	main_z	69	stimuli_target_squarediamonds.svg	stimuli_distractor_trianglediamonds.svg	4	yes	44	1	650
6.6.1	mac	2022-12-14	18:05:01	18:15:51	647877	608349d97d46ab71fc6c7111	330150635	1	main_z	11	advance_on_keypress_ZEE	70	stimuli_target_squarediamonds.svg	stimuli_distractor_trianglediamonds.svg	4	yes	57	0	495
6.6.1	mac	2022-12-14	18:05:01	18:15:54	651009	608349d97d46ab71fc6c7111	330150635	1	main_z	11	main_z	71	stimuli_distractor_trianglediamonds.svg	stimuli_distractor_diamondtriangles.svg	36	no	0	1	2000
6.6.1	mac	2022-12-14	18:05:01	18:15:54	651009	608349d97d46ab71fc6c7111	330150635	1	main_z	11	advance_on_keypress_ZEE	72	stimuli_distractor_trianglediamonds.svg	stimuli_distractor_diamondtriangles.svg	36	no	57	0	396
6.6.1	mac	2022-12-14	18:05:01	18:15:57	654043	608349d97d46ab71fc6c7111	330150635	1	main_z	11	main_z	73	stimuli_distractor_diamondtriangles.svg	stimuli_distractor_trianglediamonds.svg	37	no	0	1	2000
6.6.1	mac	2022-12-14	18:05:01	18:15:57	654043	608349d97d46ab71fc6c7111	330150635	1	main_z	11	advance_on_keypress_ZEE	74	stimuli_distractor_diamondtriangles.svg	stimuli_distractor_trianglediamonds.svg	37	no	57	0	512
6.6.1	mac	2022-12-14	18:05:01	18:15:58	655791	608349d97d46ab71fc6c7111	330150635	1	main_z	11	main_z	75	stimuli_distractor_trianglediamonds.svg	stimuli_target_circlediamonds.svg	10	yes	44	1	597
6.6.1	mac	2022-12-14	18:05:01	18:15:58	655791	608349d97d46ab71fc6c7111	330150635	1	main_z	11	advance_on_keypress_ZEE	76	stimuli_distractor_trianglediamonds.svg	stimuli_target_circlediamonds.svg	10	yes	57	0	127957
6.6.1	mac	2022-12-14	18:05:01	18:18:07	784725	608349d97d46ab71fc6c7111	330150635	1	main_z	11	main_z	77	stimuli_distractor_diamondtriangles.svg	stimuli_target_trianglesquares.svg	30	yes	44	1	346
6.6.1	mac	2022-12-14	18:05:01	18:18:07	784725	608349d97d46ab71fc6c7111	330150635	1	main_z	11	advance_on_keypress_ZEE	78	stimuli_distractor_diamondtriangles.svg	stimuli_target_trianglesquares.svg	30	yes	57	0	768
6.6.1	mac	2022-12-14	18:05:01	18:18:10	786905	608349d97d46ab71fc6c7111	330150635	1	main_z	11	main_z	79	stimuli_distractor_diamondtriangles.svg	stimuli_target_diamondsquares.svg	32	yes	44	1	776
6.6.1	mac	2022-12-14	18:05:01	18:18:10	786905	608349d97d46ab71fc6c7111	330150635	1	main_z	11	advance_on_keypress_ZEE	80	stimuli_distractor_diamondtriangles.svg	stimuli_target_diamondsquares.svg	32	yes	57	0	462
6.6.1	mac	2022-12-14	18:05:01	18:18:11	788583	608349d97d46ab71fc6c7111	330150635	1	main_z	11	main_z	81	stimuli_distractor_trianglediamonds.svg	stimuli_target_squarediamonds.svg	12	yes	44	1	586
6.6.1	mac	2022-12-14	18:05:01	18:18:11	788583	608349d97d46ab71fc6c7111	330150635	1	main_z	11	advance_on_keypress_ZEE	82	stimuli_distractor_trianglediamonds.svg	stimuli_target_squarediamonds.svg	12	yes	57	0	434
6.6.1	mac	2022-12-14	18:05:01	18:18:14	791645	608349d97d46ab71fc6c7111	330150635	1	main_z	11	main_z	83	stimuli_distractor_trianglediamonds.svg	stimuli_distractor_diamondtriangles.svg	35	no	0	1	2000
6.6.1	mac	2022-12-14	18:05:01	18:18:14	791645	608349d97d46ab71fc6c7111	330150635	1	main_z	11	advance_on_keypress_ZEE	84	stimuli_distractor_trianglediamonds.svg	stimuli_distractor_diamondtriangles.svg	35	no	57	0	305
6.6.1	mac	2022-12-14	18:05:01	18:18:17	794579	608349d97d46ab71fc6c7111	330150635	1	main_z	11	main_z	85	stimuli_distractor_diamondtriangles.svg	stimuli_distractor_diamondtriangles.svg	40	no	0	1	2000
6.6.1	mac	2022-12-14	18:05:01	18:18:17	794579	608349d97d46ab71fc6c7111	330150635	1	main_z	11	advance_on_keypress_ZEE	86	stimuli_distractor_diamondtriangles.svg	stimuli_distractor_diamondtriangles.svg	40	no	57	0	342
6.6.1	mac	2022-12-14	18:05:01	18:18:19	796094	608349d97d46ab71fc6c7111	330150635	1	main_z	11	main_z	87	stimuli_distractor_trianglediamonds.svg	stimuli_target_diamondcircles.svg	27	yes	44	1	547
6.6.1	mac	2022-12-14	18:05:01	18:18:19	796094	608349d97d46ab71fc6c7111	330150635	1	main_z	11	advance_on_keypress_ZEE	88	stimuli_distractor_trianglediamonds.svg	stimuli_target_diamondcircles.svg	27	yes	57	0	509
6.6.1	mac	2022-12-14	18:05:01	18:18:20	797744	608349d97d46ab71fc6c7111	330150635	1	main_z	11	main_z	89	stimuli_distractor_trianglediamonds.svg	stimuli_target_trianglecircles.svg	25	yes	44	1	514
6.6.1	mac	2022-12-14	18:05:01	18:18:20	797744	608349d97d46ab71fc6c7111	330150635	1	main_z	11	advance_on_keypress_ZEE	90	stimuli_distractor_trianglediamonds.svg	stimuli_target_trianglecircles.svg	25	yes	57	0	448
6.6.1	mac	2022-12-14	18:05:01	18:18:22	799307	608349d97d46ab71fc6c7111	330150635	1	main_z	11	main_z	91	stimuli_distractor_diamondtriangles.svg	stimuli_target_circletriangles.svg	13	yes	44	1	477
6.6.1	mac	2022-12-14	18:05:01	18:18:22	799307	608349d97d46ab71fc6c7111	330150635	1	main_z	11	advance_on_keypress_ZEE	92	stimuli_distractor_diamondtriangles.svg	stimuli_target_circletriangles.svg	13	yes	57	0	469
6.6.1	mac	2022-12-14	18:05:01	18:18:24	801588	608349d97d46ab71fc6c7111	330150635	1	main_z	11	main_z	93	stimuli_distractor_diamondtriangles.svg	stimuli_target_trianglecircles.svg	29	yes	44	1	1191
6.6.1	mac	2022-12-14	18:05:01	18:18:24	801588	608349d97d46ab71fc6c7111	330150635	1	main_z	11	advance_on_keypress_ZEE	94	stimuli_distractor_diamondtriangles.svg	stimuli_target_trianglecircles.svg	29	yes	57	0	529
6.6.1	mac	2022-12-14	18:05:01	18:18:26	803448	608349d97d46ab71fc6c7111	330150635	1	main_z	11	main_z	95	stimuli_distractor_diamondtriangles.svg	stimuli_target_squarediamonds.svg	16	yes	44	1	701
6.6.1	mac	2022-12-14	18:05:01	18:18:26	803448	608349d97d46ab71fc6c7111	330150635	1	main_z	11	advance_on_keypress_ZEE	96	stimuli_distractor_diamondtriangles.svg	stimuli_target_squarediamonds.svg	16	yes	57	0	549
6.6.1	mac	2022-12-14	18:05:01	18:18:28	805169	608349d97d46ab71fc6c7111	330150635	1	main_z	11	main_z	97	stimuli_distractor_diamondtriangles.svg	stimuli_target_diamondcircles.svg	31	yes	44	1	538
6.6.1	mac	2022-12-14	18:05:01	18:18:28	805169	608349d97d46ab71fc6c7111	330150635	1	main_z	11	advance_on_keypress_ZEE	98	stimuli_distractor_diamondtriangles.svg	stimuli_target_diamondcircles.svg	31	yes	57	0	425
6.6.1	mac	2022-12-14	18:05:01	18:18:30	807524	608349d97d46ab71fc6c7111	330150635	1	main_z	11	main_z	99	stimuli_target_squaretriangles.svg	stimuli_distractor_diamondtriangles.svg	7	yes	44	1	1293
6.6.1	mac	2022-12-14	18:05:01	18:18:30	807524	608349d97d46ab71fc6c7111	330150635	1	main_z	11	advance_on_keypress_ZEE	100	stimuli_target_squaretriangles.svg	stimuli_distractor_diamondtriangles.svg	7	yes	57	0	524
6.6.1	mac	2022-12-14	18:05:01	18:18:32	809245	608349d97d46ab71fc6c7111	330150635	1	main_z	11	main_z	101	stimuli_distractor_diamondtriangles.svg	stimuli_target_circlediamonds.svg	14	yes	44	1	581
6.6.1	mac	2022-12-14	18:05:01	18:18:32	809245	608349d97d46ab71fc6c7111	330150635	1	main_z	11	advance_on_keypress_ZEE	102	stimuli_distractor_diamondtriangles.svg	stimuli_target_circlediamonds.svg	14	yes	57	0	465
6.6.1	mac	2022-12-14	18:05:01	18:18:34	810918	608349d97d46ab71fc6c7111	330150635	1	main_z	11	main_z	103	stimuli_distractor_trianglediamonds.svg	stimuli_target_trianglesquares.svg	26	yes	44	1	571
6.6.1	mac	2022-12-14	18:05:01	18:18:34	810918	608349d97d46ab71fc6c7111	330150635	1	main_z	11	advance_on_keypress_ZEE	104	stimuli_distractor_trianglediamonds.svg	stimuli_target_trianglesquares.svg	26	yes	57	0	408
6.6.1	mac	2022-12-14	18:05:01	18:18:35	812409	608349d97d46ab71fc6c7111	330150635	1	main_z	11	main_z	105	stimuli_target_trianglecircles.svg	stimuli_distractor_diamondtriangles.svg	21	yes	44	1	445
6.6.1	mac	2022-12-14	18:05:01	18:18:35	812409	608349d97d46ab71fc6c7111	330150635	1	main_z	11	advance_on_keypress_ZEE	106	stimuli_target_trianglecircles.svg	stimuli_distractor_diamondtriangles.svg	21	yes	57	0	416
6.6.1	mac	2022-12-14	18:05:01	18:18:37	814021	608349d97d46ab71fc6c7111	330150635	1	main_z	11	main_z	107	stimuli_distractor_trianglediamonds.svg	stimuli_target_squaretriangles.svg	11	yes	44	1	557
6.6.1	mac	2022-12-14	18:05:01	18:18:37	814021	608349d97d46ab71fc6c7111	330150635	1	main_z	11	advance_on_keypress_ZEE	108	stimuli_distractor_trianglediamonds.svg	stimuli_target_squaretriangles.svg	11	yes	57	0	429
6.6.1	mac	2022-12-14	18:05:01	18:18:39	816132	608349d97d46ab71fc6c7111	330150635	1	main_z	11	main_z	109	stimuli_target_squaretriangles.svg	stimuli_distractor_trianglediamonds.svg	3	yes	44	1	1051
6.6.1	mac	2022-12-14	18:05:01	18:18:39	816132	608349d97d46ab71fc6c7111	330150635	1	main_z	11	advance_on_keypress_ZEE	110	stimuli_target_squaretriangles.svg	stimuli_distractor_trianglediamonds.svg	3	yes	57	0	467
6.6.1	mac	2022-12-14	18:05:01	18:18:42	819229	608349d97d46ab71fc6c7111	330150635	1	main_z	11	main_z	111	stimuli_distractor_diamondtriangles.svg	stimuli_distractor_trianglediamonds.svg	38	no	0	1	2000
6.6.1	mac	2022-12-14	18:05:01	18:18:42	819229	608349d97d46ab71fc6c7111	330150635	1	main_z	11	advance_on_keypress_ZEE	112	stimuli_distractor_diamondtriangles.svg	stimuli_distractor_trianglediamonds.svg	38	no	57	0	310
6.6.1	mac	2022-12-14	18:05:01	18:18:43	820567	608349d97d46ab71fc6c7111	330150635	1	main_z	11	main_z	113	stimuli_target_circlediamonds.svg	stimuli_distractor_diamondtriangles.svg	6	yes	44	1	403
6.6.1	mac	2022-12-14	18:05:01	18:18:43	820567	608349d97d46ab71fc6c7111	330150635	1	main_z	11	advance_on_keypress_ZEE	114	stimuli_target_circlediamonds.svg	stimuli_distractor_diamondtriangles.svg	6	yes	57	0	475
6.6.1	mac	2022-12-14	18:05:01	18:18:45	822854	608349d97d46ab71fc6c7111	330150635	1	main_z	11	main_z	115	stimuli_target_squarediamonds.svg	stimuli_distractor_trianglediamonds.svg	4	yes	44	1	1189
6.6.1	mac	2022-12-14	18:05:01	18:18:45	822854	608349d97d46ab71fc6c7111	330150635	1	main_z	11	advance_on_keypress_ZEE	116	stimuli_target_squarediamonds.svg	stimuli_distractor_trianglediamonds.svg	4	yes	57	0	486
6.6.1	mac	2022-12-14	18:05:01	18:18:48	825003	608349d97d46ab71fc6c7111	330150635	1	main_z	11	main_z	117	stimuli_distractor_diamondtriangles.svg	stimuli_target_diamondsquares.svg	32	yes	44	1	1039
6.6.1	mac	2022-12-14	18:05:01	18:18:48	825003	608349d97d46ab71fc6c7111	330150635	1	main_z	11	advance_on_keypress_ZEE	118	stimuli_distractor_diamondtriangles.svg	stimuli_target_diamondsquares.svg	32	yes	57	0	429
6.6.1	mac	2022-12-14	18:05:01	18:18:49	826641	608349d97d46ab71fc6c7111	330150635	1	main_z	11	main_z	119	stimuli_target_squarediamonds.svg	stimuli_distractor_diamondtriangles.svg	8	yes	44	1	578
6.6.1	mac	2022-12-14	18:05:01	18:18:49	826641	608349d97d46ab71fc6c7111	330150635	1	main_z	11	advance_on_keypress_ZEE	120	stimuli_target_squarediamonds.svg	stimuli_distractor_diamondtriangles.svg	8	yes	57	0	463
6.6.1	mac	2022-12-14	18:05:01	18:18:51	828167	608349d97d46ab71fc6c7111	330150635	1	main_z	11	main_z	121	stimuli_target_trianglecircles.svg	stimuli_distractor_trianglediamonds.svg	17	yes	44	1	436
6.6.1	mac	2022-12-14	18:05:01	18:18:51	828167	608349d97d46ab71fc6c7111	330150635	1	main_z	11	advance_on_keypress_ZEE	122	stimuli_target_trianglecircles.svg	stimuli_distractor_trianglediamonds.svg	17	yes	57	0	493
6.6.1	mac	2022-12-14	18:05:01	18:18:53	830333	608349d97d46ab71fc6c7111	330150635	1	main_z	11	main_z	123	stimuli_target_diamondsquares.svg	stimuli_distractor_diamondtriangles.svg	24	yes	44	1	1035
6.6.1	mac	2022-12-14	18:05:01	18:18:53	830333	608349d97d46ab71fc6c7111	330150635	1	main_z	11	advance_on_keypress_ZEE	124	stimuli_target_diamondsquares.svg	stimuli_distractor_diamondtriangles.svg	24	yes	57	0	358
6.6.1	mac	2022-12-14	18:05:01	18:18:54	831770	608349d97d46ab71fc6c7111	330150635	1	main_z	11	main_z	125	stimuli_target_diamondcircles.svg	stimuli_distractor_diamondtriangles.svg	23	yes	44	1	455
6.6.1	mac	2022-12-14	18:05:01	18:18:54	831770	608349d97d46ab71fc6c7111	330150635	1	main_z	11	advance_on_keypress_ZEE	126	stimuli_target_diamondcircles.svg	stimuli_distractor_diamondtriangles.svg	23	yes	57	0	450
6.6.1	mac	2022-12-14	18:05:01	18:18:57	834120	608349d97d46ab71fc6c7111	330150635	1	main_z	11	main_z	127	stimuli_distractor_trianglediamonds.svg	stimuli_target_circlediamonds.svg	10	yes	44	1	1272
6.6.1	mac	2022-12-14	18:05:01	18:18:57	834120	608349d97d46ab71fc6c7111	330150635	1	main_z	11	advance_on_keypress_ZEE	128	stimuli_distractor_trianglediamonds.svg	stimuli_target_circlediamonds.svg	10	yes	57	0	418
6.6.1	mac	2022-12-14	18:05:01	18:19:00	837163	608349d97d46ab71fc6c7111	330150635	1	main_z	11	main_z	129	stimuli_distractor_trianglediamonds.svg	stimuli_distractor_trianglediamonds.svg	34	no	0	1	2000
6.6.1	mac	2022-12-14	18:05:01	18:19:00	837163	608349d97d46ab71fc6c7111	330150635	1	main_z	11	advance_on_keypress_ZEE	130	stimuli_distractor_trianglediamonds.svg	stimuli_distractor_trianglediamonds.svg	34	no	57	0	345
6.6.1	mac	2022-12-14	18:05:01	18:19:01	838582	608349d97d46ab71fc6c7111	330150635	1	main_z	11	main_z	131	stimuli_target_circlediamonds.svg	stimuli_distractor_trianglediamonds.svg	2	yes	44	1	434
6.6.1	mac	2022-12-14	18:05:01	18:19:01	838582	608349d97d46ab71fc6c7111	330150635	1	main_z	11	advance_on_keypress_ZEE	132	stimuli_target_circlediamonds.svg	stimuli_distractor_trianglediamonds.svg	2	yes	57	0	405
6.6.1	mac	2022-12-14	18:05:01	18:19:03	840522	608349d97d46ab71fc6c7111	330150635	1	main_z	11	main_z	133	stimuli_distractor_trianglediamonds.svg	stimuli_target_diamondsquares.svg	28	yes	44	1	907
6.6.1	mac	2022-12-14	18:05:01	18:19:03	840522	608349d97d46ab71fc6c7111	330150635	1	main_z	11	advance_on_keypress_ZEE	134	stimuli_distractor_trianglediamonds.svg	stimuli_target_diamondsquares.svg	28	yes	57	0	404
6.6.1	mac	2022-12-14	18:05:01	18:19:06	843546	608349d97d46ab71fc6c7111	330150635	1	main_z	11	main_z	135	stimuli_distractor_trianglediamonds.svg	stimuli_distractor_trianglediamonds.svg	33	no	0	1	2000
6.6.1	mac	2022-12-14	18:05:01	18:19:06	843546	608349d97d46ab71fc6c7111	330150635	1	main_z	11	advance_on_keypress_ZEE	136	stimuli_distractor_trianglediamonds.svg	stimuli_distractor_trianglediamonds.svg	33	no	57	0	354
6.6.1	mac	2022-12-14	18:05:01	18:19:08	844984	608349d97d46ab71fc6c7111	330150635	1	main_z	11	main_z	137	stimuli_target_diamondcircles.svg	stimuli_distractor_trianglediamonds.svg	19	yes	44	1	453
6.6.1	mac	2022-12-14	18:05:01	18:19:08	844984	608349d97d46ab71fc6c7111	330150635	1	main_z	11	advance_on_keypress_ZEE	138	stimuli_target_diamondcircles.svg	stimuli_distractor_trianglediamonds.svg	19	yes	57	0	466
6.6.1	mac	2022-12-14	18:05:01	18:19:09	846675	608349d97d46ab71fc6c7111	330150635	1	main_z	11	main_z	139	stimuli_distractor_trianglediamonds.svg	stimuli_target_circletriangles.svg	9	yes	44	1	594
6.6.1	mac	2022-12-14	18:05:01	18:19:09	846675	608349d97d46ab71fc6c7111	330150635	1	main_z	11	advance_on_keypress_ZEE	140	stimuli_distractor_trianglediamonds.svg	stimuli_target_circletriangles.svg	9	yes	57	0	438
6.6.1	mac	2022-12-14	18:05:01	18:19:12	849730	608349d97d46ab71fc6c7111	330150635	1	main_z	11	main_z	141	stimuli_distractor_diamondtriangles.svg	stimuli_distractor_trianglediamonds.svg	37	no	0	1	2000
6.6.1	mac	2022-12-14	18:05:01	18:19:12	849730	608349d97d46ab71fc6c7111	330150635	1	main_z	11	advance_on_keypress_ZEE	142	stimuli_distractor_diamondtriangles.svg	stimuli_distractor_trianglediamonds.svg	37	no	57	0	357
6.6.1	mac	2022-12-14	18:05:01	18:19:14	851299	608349d97d46ab71fc6c7111	330150635	1	main_z	11	main_z	143	stimuli_target_trianglesquares.svg	stimuli_distractor_diamondtriangles.svg	22	yes	44	1	584
6.6.1	mac	2022-12-14	18:05:01	18:19:14	851299	608349d97d46ab71fc6c7111	330150635	1	main_z	11	advance_on_keypress_ZEE	144	stimuli_target_trianglesquares.svg	stimuli_distractor_diamondtriangles.svg	22	yes	57	0	467
6.6.1	mac	2022-12-14	18:05:01	18:19:17	854397	608349d97d46ab71fc6c7111	330150635	1	main_z	11	main_z	145	stimuli_distractor_diamondtriangles.svg	stimuli_distractor_diamondtriangles.svg	39	no	0	1	2000
6.6.1	mac	2022-12-14	18:05:01	18:19:17	854397	608349d97d46ab71fc6c7111	330150635	1	main_z	11	advance_on_keypress_ZEE	146	stimuli_distractor_diamondtriangles.svg	stimuli_distractor_diamondtriangles.svg	39	no	57	0	14
6.6.1	mac	2022-12-14	18:05:01	18:19:18	855557	608349d97d46ab71fc6c7111	330150635	1	main_z	11	main_z	147	stimuli_target_circletriangles.svg	stimuli_distractor_trianglediamonds.svg	1	yes	44	1	509
6.6.1	mac	2022-12-14	18:05:01	18:19:18	855557	608349d97d46ab71fc6c7111	330150635	1	main_z	11	advance_on_keypress_ZEE	148	stimuli_target_circletriangles.svg	stimuli_distractor_trianglediamonds.svg	1	yes	57	0	488
6.6.1	mac	2022-12-14	18:05:01	18:19:21	857925	608349d97d46ab71fc6c7111	330150635	1	main_z	11	main_z	149	stimuli_target_diamondsquares.svg	stimuli_distractor_trianglediamonds.svg	20	yes	44	1	1260
6.6.1	mac	2022-12-14	18:05:01	18:19:21	857925	608349d97d46ab71fc6c7111	330150635	1	main_z	11	advance_on_keypress_ZEE	150	stimuli_target_diamondsquares.svg	stimuli_distractor_trianglediamonds.svg	20	yes	57	0	440
6.6.1	mac	2022-12-14	18:05:01	18:19:23	859897	608349d97d46ab71fc6c7111	330150635	1	main_z	11	main_z	151	stimuli_target_trianglesquares.svg	stimuli_distractor_trianglediamonds.svg	18	yes	44	1	916
6.6.1	mac	2022-12-14	18:05:01	18:19:23	859897	608349d97d46ab71fc6c7111	330150635	1	main_z	11	advance_on_keypress_ZEE	152	stimuli_target_trianglesquares.svg	stimuli_distractor_trianglediamonds.svg	18	yes	57	0	394
6.6.1	mac	2022-12-14	18:05:01	18:19:24	861591	608349d97d46ab71fc6c7111	330150635	1	main_z	11	main_z	153	stimuli_distractor_diamondtriangles.svg	stimuli_target_squaretriangles.svg	15	yes	44	1	676
6.6.1	mac	2022-12-14	18:05:01	18:19:24	861591	608349d97d46ab71fc6c7111	330150635	1	main_z	11	advance_on_keypress_ZEE	154	stimuli_distractor_diamondtriangles.svg	stimuli_target_squaretriangles.svg	15	yes	57	0	445
6.6.1	mac	2022-12-14	18:05:01	18:19:26	863010	608349d97d46ab71fc6c7111	330150635	1	main_z	11	main_z	155	stimuli_target_circletriangles.svg	stimuli_distractor_diamondtriangles.svg	5	yes	44	1	346
6.6.1	mac	2022-12-14	18:05:01	18:19:26	863010	608349d97d46ab71fc6c7111	330150635	1	main_z	11	advance_on_keypress_ZEE	156	stimuli_target_circletriangles.svg	stimuli_distractor_diamondtriangles.svg	5	yes	57	0	458
6.6.1	mac	2022-12-14	18:05:01	18:19:28	865592	608349d97d46ab71fc6c7111	330150635	1	main_z	11	main_z	157	stimuli_distractor_trianglediamonds.svg	stimuli_distractor_diamondtriangles.svg	36	no	44	0	1494
6.6.1	mac	2022-12-14	18:05:01	18:19:28	865592	608349d97d46ab71fc6c7111	330150635	1	main_z	11	advance_on_keypress_ZEE	158	stimuli_distractor_trianglediamonds.svg	stimuli_distractor_diamondtriangles.svg	36	no	57	0	622
6.6.1	mac	2022-12-14	18:05:01	18:19:30	867809	608349d97d46ab71fc6c7111	330150635	1	main_z	11	main_z	159	stimuli_distractor_diamondtriangles.svg	stimuli_target_trianglesquares.svg	30	yes	44	1	961
6.6.1	mac	2022-12-14	18:05:01	18:19:30	867809	608349d97d46ab71fc6c7111	330150635	1	main_z	11	advance_on_keypress_ZEE	160	stimuli_distractor_diamondtriangles.svg	stimuli_target_trianglesquares.svg	30	yes	57	0	405