build	computer.platform	date	time	timestamp	time_elapsed_ms	subject	group	session	blockcode	blocknum	trialcode	trialnum	stimulus_left	stimulus_right	stim_index	target_present	response	correct	latency
6.6.1	win	2022-12-14	13:52:10	13:54:07	115446	631c790a9061cd8137fd215b	336786892	1	practice_z	5	practice_z	1	stimuli_distractor_trianglediamonds.svg	stimuli_distractor_diamondtriangles.svg	16	no	0	1	2000
6.6.1	win	2022-12-14	13:52:10	13:54:07	115446	631c790a9061cd8137fd215b	336786892	1	practice_z	5	advance_on_keypress_ZEE	2	stimuli_distractor_trianglediamonds.svg	stimuli_distractor_diamondtriangles.svg	16	no	57	0	1534
6.6.1	win	2022-12-14	13:52:10	13:54:12	120644	631c790a9061cd8137fd215b	336786892	1	practice_z	5	practice_z	3	stimuli_distractor_diamondtriangles.svg	stimuli_distractor_trianglediamonds.svg	14	no	0	1	2000
6.6.1	win	2022-12-14	13:52:10	13:54:12	120644	631c790a9061cd8137fd215b	336786892	1	practice_z	5	advance_on_keypress_ZEE	4	stimuli_distractor_diamondtriangles.svg	stimuli_distractor_trianglediamonds.svg	14	no	57	0	2164
6.6.1	win	2022-12-14	13:52:10	13:54:16	125124	631c790a9061cd8137fd215b	336786892	1	practice_z	5	practice_z	5	stimuli_target_squarediamonds.svg	stimuli_distractor_trianglediamonds.svg	5	yes	44	1	638
6.6.1	win	2022-12-14	13:52:10	13:54:16	125124	631c790a9061cd8137fd215b	336786892	1	practice_z	5	advance_on_keypress_ZEE	6	stimuli_target_squarediamonds.svg	stimuli_distractor_trianglediamonds.svg	5	yes	57	0	1929
6.6.1	win	2022-12-14	13:52:10	13:54:21	129234	631c790a9061cd8137fd215b	336786892	1	practice_z	5	practice_z	7	stimuli_distractor_trianglediamonds.svg	stimuli_target_circlediamonds.svg	10	yes	44	1	508
6.6.1	win	2022-12-14	13:52:10	13:54:21	129234	631c790a9061cd8137fd215b	336786892	1	practice_z	5	advance_on_keypress_ZEE	8	stimuli_distractor_trianglediamonds.svg	stimuli_target_circlediamonds.svg	10	yes	57	0	1023
6.6.1	win	2022-12-14	13:52:10	13:54:24	132396	631c790a9061cd8137fd215b	336786892	1	practice_z	5	practice_z	9	stimuli_distractor_diamondtriangles.svg	stimuli_target_trianglecircles.svg	9	yes	44	1	482
6.6.1	win	2022-12-14	13:52:10	13:54:24	132396	631c790a9061cd8137fd215b	336786892	1	practice_z	5	advance_on_keypress_ZEE	10	stimuli_distractor_diamondtriangles.svg	stimuli_target_trianglecircles.svg	9	yes	57	0	774
6.6.1	win	2022-12-14	13:52:10	13:54:27	136023	631c790a9061cd8137fd215b	336786892	1	practice_z	5	practice_z	11	stimuli_distractor_diamondtriangles.svg	stimuli_target_diamondcircles.svg	8	yes	44	1	1209
6.6.1	win	2022-12-14	13:52:10	13:54:27	136023	631c790a9061cd8137fd215b	336786892	1	practice_z	5	advance_on_keypress_ZEE	12	stimuli_distractor_diamondtriangles.svg	stimuli_target_diamondcircles.svg	8	yes	57	0	959
6.6.1	win	2022-12-14	13:52:10	13:54:32	140614	631c790a9061cd8137fd215b	336786892	1	practice_z	5	practice_z	13	stimuli_distractor_trianglediamonds.svg	stimuli_distractor_trianglediamonds.svg	15	no	0	1	2000
6.6.1	win	2022-12-14	13:52:10	13:54:32	140614	631c790a9061cd8137fd215b	336786892	1	practice_z	5	advance_on_keypress_ZEE	14	stimuli_distractor_trianglediamonds.svg	stimuli_distractor_trianglediamonds.svg	15	no	57	0	574
6.6.1	win	2022-12-14	13:52:10	13:54:35	143671	631c790a9061cd8137fd215b	336786892	1	practice_z	5	practice_z	15	stimuli_target_diamondsquares.svg	stimuli_distractor_trianglediamonds.svg	6	yes	44	1	816
6.6.1	win	2022-12-14	13:52:10	13:54:35	143671	631c790a9061cd8137fd215b	336786892	1	practice_z	5	advance_on_keypress_ZEE	16	stimuli_target_diamondsquares.svg	stimuli_distractor_trianglediamonds.svg	6	yes	57	0	532
6.6.1	win	2022-12-14	13:52:10	13:54:39	147848	631c790a9061cd8137fd215b	336786892	1	practice_z	5	practice_z	17	stimuli_distractor_diamondtriangles.svg	stimuli_distractor_diamondtriangles.svg	13	no	0	1	2000
6.6.1	win	2022-12-14	13:52:10	13:54:39	147848	631c790a9061cd8137fd215b	336786892	1	practice_z	5	advance_on_keypress_ZEE	18	stimuli_distractor_diamondtriangles.svg	stimuli_distractor_diamondtriangles.svg	13	no	57	0	516
6.6.1	win	2022-12-14	13:52:10	13:54:42	150563	631c790a9061cd8137fd215b	336786892	1	practice_z	5	practice_z	19	stimuli_target_squarediamonds.svg	stimuli_distractor_diamondtriangles.svg	2	yes	44	1	528
6.6.1	win	2022-12-14	13:52:10	13:54:42	150563	631c790a9061cd8137fd215b	336786892	1	practice_z	5	advance_on_keypress_ZEE	20	stimuli_target_squarediamonds.svg	stimuli_distractor_diamondtriangles.svg	2	yes	57	0	625
6.6.1	win	2022-12-14	13:52:10	13:54:45	153623	631c790a9061cd8137fd215b	336786892	1	practice_z	5	practice_z	21	stimuli_distractor_trianglediamonds.svg	stimuli_target_diamondcircles.svg	12	yes	44	1	775
6.6.1	win	2022-12-14	13:52:10	13:54:45	153623	631c790a9061cd8137fd215b	336786892	1	practice_z	5	advance_on_keypress_ZEE	22	stimuli_distractor_trianglediamonds.svg	stimuli_target_diamondcircles.svg	12	yes	57	0	536
6.6.1	win	2022-12-14	13:52:10	13:54:48	156442	631c790a9061cd8137fd215b	336786892	1	practice_z	5	practice_z	23	stimuli_target_circlediamonds.svg	stimuli_distractor_diamondtriangles.svg	1	yes	44	1	624
6.6.1	win	2022-12-14	13:52:10	13:54:48	156442	631c790a9061cd8137fd215b	336786892	1	practice_z	5	advance_on_keypress_ZEE	24	stimuli_target_circlediamonds.svg	stimuli_distractor_diamondtriangles.svg	1	yes	57	0	439
6.6.1	win	2022-12-14	13:52:10	13:54:50	159012	631c790a9061cd8137fd215b	336786892	1	practice_z	5	practice_z	25	stimuli_distractor_trianglediamonds.svg	stimuli_target_squarediamonds.svg	11	yes	44	1	482
6.6.1	win	2022-12-14	13:52:10	13:54:50	159012	631c790a9061cd8137fd215b	336786892	1	practice_z	5	advance_on_keypress_ZEE	26	stimuli_distractor_trianglediamonds.svg	stimuli_target_squarediamonds.svg	11	yes	57	0	472
6.6.1	win	2022-12-14	13:52:10	13:54:53	161756	631c790a9061cd8137fd215b	336786892	1	practice_z	5	practice_z	27	stimuli_distractor_diamondtriangles.svg	stimuli_target_circletriangles.svg	7	yes	44	1	618
6.6.1	win	2022-12-14	13:52:10	13:54:53	161756	631c790a9061cd8137fd215b	336786892	1	practice_z	5	advance_on_keypress_ZEE	28	stimuli_distractor_diamondtriangles.svg	stimuli_target_circletriangles.svg	7	yes	57	0	314
6.6.1	win	2022-12-14	13:52:10	13:54:56	164455	631c790a9061cd8137fd215b	336786892	1	practice_z	5	practice_z	29	stimuli_target_diamondsquares.svg	stimuli_distractor_diamondtriangles.svg	3	yes	44	1	724
6.6.1	win	2022-12-14	13:52:10	13:54:56	164455	631c790a9061cd8137fd215b	336786892	1	practice_z	5	advance_on_keypress_ZEE	30	stimuli_target_diamondsquares.svg	stimuli_distractor_diamondtriangles.svg	3	yes	57	0	1086
6.6.1	win	2022-12-14	13:52:10	13:54:59	167773	631c790a9061cd8137fd215b	336786892	1	practice_z	5	practice_z	31	stimuli_target_circlediamonds.svg	stimuli_distractor_trianglediamonds.svg	4	yes	44	1	594
6.6.1	win	2022-12-14	13:52:10	13:54:59	167773	631c790a9061cd8137fd215b	336786892	1	practice_z	5	advance_on_keypress_ZEE	32	stimuli_target_circlediamonds.svg	stimuli_distractor_trianglediamonds.svg	4	yes	57	0	481
6.6.1	win	2022-12-14	13:52:10	13:55:08	176362	631c790a9061cd8137fd215b	336786892	1	main_z	7	main_z	1	stimuli_distractor_trianglediamonds.svg	stimuli_distractor_diamondtriangles.svg	36	no	0	1	2000
6.6.1	win	2022-12-14	13:52:10	13:55:08	176362	631c790a9061cd8137fd215b	336786892	1	main_z	7	advance_on_keypress_ZEE	2	stimuli_distractor_trianglediamonds.svg	stimuli_distractor_diamondtriangles.svg	36	no	57	0	1146
6.6.1	win	2022-12-14	13:52:10	13:55:10	178677	631c790a9061cd8137fd215b	336786892	1	main_z	7	main_z	3	stimuli_target_circletriangles.svg	stimuli_distractor_diamondtriangles.svg	5	yes	44	1	531
6.6.1	win	2022-12-14	13:52:10	13:55:10	178677	631c790a9061cd8137fd215b	336786892	1	main_z	7	advance_on_keypress_ZEE	4	stimuli_target_circletriangles.svg	stimuli_distractor_diamondtriangles.svg	5	yes	57	0	915
6.6.1	win	2022-12-14	13:52:10	13:55:12	180730	631c790a9061cd8137fd215b	336786892	1	main_z	7	main_z	5	stimuli_distractor_trianglediamonds.svg	stimuli_target_squarediamonds.svg	12	yes	44	1	485
6.6.1	win	2022-12-14	13:52:10	13:55:12	180730	631c790a9061cd8137fd215b	336786892	1	main_z	7	advance_on_keypress_ZEE	6	stimuli_distractor_trianglediamonds.svg	stimuli_target_squarediamonds.svg	12	yes	57	0	457
6.6.1	win	2022-12-14	13:52:10	13:55:14	182434	631c790a9061cd8137fd215b	336786892	1	main_z	7	main_z	7	stimuli_distractor_diamondtriangles.svg	stimuli_target_trianglecircles.svg	29	yes	44	1	590
6.6.1	win	2022-12-14	13:52:10	13:55:14	182434	631c790a9061cd8137fd215b	336786892	1	main_z	7	advance_on_keypress_ZEE	8	stimuli_distractor_diamondtriangles.svg	stimuli_target_trianglecircles.svg	29	yes	57	0	479
6.6.1	win	2022-12-14	13:52:10	13:55:17	185545	631c790a9061cd8137fd215b	336786892	1	main_z	7	main_z	9	stimuli_distractor_diamondtriangles.svg	stimuli_distractor_trianglediamonds.svg	38	no	0	1	2000
6.6.1	win	2022-12-14	13:52:10	13:55:17	185545	631c790a9061cd8137fd215b	336786892	1	main_z	7	advance_on_keypress_ZEE	10	stimuli_distractor_diamondtriangles.svg	stimuli_distractor_trianglediamonds.svg	38	no	57	0	659
6.6.1	win	2022-12-14	13:52:10	13:55:20	188847	631c790a9061cd8137fd215b	336786892	1	main_z	7	main_z	11	stimuli_distractor_diamondtriangles.svg	stimuli_distractor_diamondtriangles.svg	40	no	0	1	2000
6.6.1	win	2022-12-14	13:52:10	13:55:20	188847	631c790a9061cd8137fd215b	336786892	1	main_z	7	advance_on_keypress_ZEE	12	stimuli_distractor_diamondtriangles.svg	stimuli_distractor_diamondtriangles.svg	40	no	57	0	551
6.6.1	win	2022-12-14	13:52:10	13:55:22	190581	631c790a9061cd8137fd215b	336786892	1	main_z	7	main_z	13	stimuli_distractor_diamondtriangles.svg	stimuli_target_circlediamonds.svg	14	yes	44	1	510
6.6.1	win	2022-12-14	13:52:10	13:55:22	190581	631c790a9061cd8137fd215b	336786892	1	main_z	7	advance_on_keypress_ZEE	14	stimuli_distractor_diamondtriangles.svg	stimuli_target_circlediamonds.svg	14	yes	57	0	618
6.6.1	win	2022-12-14	13:52:10	13:55:24	193113	631c790a9061cd8137fd215b	336786892	1	main_z	7	main_z	15	stimuli_target_trianglesquares.svg	stimuli_distractor_trianglediamonds.svg	18	yes	44	1	1270
6.6.1	win	2022-12-14	13:52:10	13:55:24	193113	631c790a9061cd8137fd215b	336786892	1	main_z	7	advance_on_keypress_ZEE	16	stimuli_target_trianglesquares.svg	stimuli_distractor_trianglediamonds.svg	18	yes	57	0	667
6.6.1	win	2022-12-14	13:52:10	13:55:26	195093	631c790a9061cd8137fd215b	336786892	1	main_z	7	main_z	17	stimuli_distractor_diamondtriangles.svg	stimuli_target_diamondcircles.svg	31	yes	44	1	663
6.6.1	win	2022-12-14	13:52:10	13:55:26	195093	631c790a9061cd8137fd215b	336786892	1	main_z	7	advance_on_keypress_ZEE	18	stimuli_distractor_diamondtriangles.svg	stimuli_target_diamondcircles.svg	31	yes	57	0	523
6.6.1	win	2022-12-14	13:52:10	13:55:28	196980	631c790a9061cd8137fd215b	336786892	1	main_z	7	main_z	19	stimuli_distractor_trianglediamonds.svg	stimuli_target_squaretriangles.svg	11	yes	44	1	702
6.6.1	win	2022-12-14	13:52:10	13:55:28	196980	631c790a9061cd8137fd215b	336786892	1	main_z	7	advance_on_keypress_ZEE	20	stimuli_distractor_trianglediamonds.svg	stimuli_target_squaretriangles.svg	11	yes	57	0	383
6.6.1	win	2022-12-14	13:52:10	13:55:31	199261	631c790a9061cd8137fd215b	336786892	1	main_z	7	main_z	21	stimuli_distractor_trianglediamonds.svg	stimuli_target_diamondcircles.svg	27	yes	44	1	1248
6.6.1	win	2022-12-14	13:52:10	13:55:31	199261	631c790a9061cd8137fd215b	336786892	1	main_z	7	advance_on_keypress_ZEE	22	stimuli_distractor_trianglediamonds.svg	stimuli_target_diamondcircles.svg	27	yes	57	0	405
6.6.1	win	2022-12-14	13:52:10	13:55:33	201410	631c790a9061cd8137fd215b	336786892	1	main_z	7	main_z	23	stimuli_distractor_diamondtriangles.svg	stimuli_target_trianglesquares.svg	30	yes	44	1	1099
6.6.1	win	2022-12-14	13:52:10	13:55:33	201410	631c790a9061cd8137fd215b	336786892	1	main_z	7	advance_on_keypress_ZEE	24	stimuli_distractor_diamondtriangles.svg	stimuli_target_trianglesquares.svg	30	yes	57	0	328
6.6.1	win	2022-12-14	13:52:10	13:55:34	203034	631c790a9061cd8137fd215b	336786892	1	main_z	7	main_z	25	stimuli_target_squarediamonds.svg	stimuli_distractor_trianglediamonds.svg	4	yes	44	1	640
6.6.1	win	2022-12-14	13:52:10	13:55:34	203034	631c790a9061cd8137fd215b	336786892	1	main_z	7	advance_on_keypress_ZEE	26	stimuli_target_squarediamonds.svg	stimuli_distractor_trianglediamonds.svg	4	yes	57	0	271
6.6.1	win	2022-12-14	13:52:10	13:55:36	204542	631c790a9061cd8137fd215b	336786892	1	main_z	7	main_z	27	stimuli_distractor_trianglediamonds.svg	stimuli_target_trianglecircles.svg	25	yes	44	1	598
6.6.1	win	2022-12-14	13:52:10	13:55:36	204542	631c790a9061cd8137fd215b	336786892	1	main_z	7	advance_on_keypress_ZEE	28	stimuli_distractor_trianglediamonds.svg	stimuli_target_trianglecircles.svg	25	yes	57	0	314
6.6.1	win	2022-12-14	13:52:10	13:55:37	206090	631c790a9061cd8137fd215b	336786892	1	main_z	7	main_z	29	stimuli_target_squarediamonds.svg	stimuli_distractor_diamondtriangles.svg	8	yes	44	1	579
6.6.1	win	2022-12-14	13:52:10	13:55:37	206090	631c790a9061cd8137fd215b	336786892	1	main_z	7	advance_on_keypress_ZEE	30	stimuli_target_squarediamonds.svg	stimuli_distractor_diamondtriangles.svg	8	yes	57	0	443
6.6.1	win	2022-12-14	13:52:10	13:55:39	207752	631c790a9061cd8137fd215b	336786892	1	main_z	7	main_z	31	stimuli_distractor_trianglediamonds.svg	stimuli_target_circlediamonds.svg	10	yes	44	1	561
6.6.1	win	2022-12-14	13:52:10	13:55:39	207752	631c790a9061cd8137fd215b	336786892	1	main_z	7	advance_on_keypress_ZEE	32	stimuli_distractor_trianglediamonds.svg	stimuli_target_circlediamonds.svg	10	yes	57	0	355
6.6.1	win	2022-12-14	13:52:10	13:55:41	209340	631c790a9061cd8137fd215b	336786892	1	main_z	7	main_z	33	stimuli_distractor_trianglediamonds.svg	stimuli_target_trianglesquares.svg	26	yes	44	1	579
6.6.1	win	2022-12-14	13:52:10	13:55:41	209340	631c790a9061cd8137fd215b	336786892	1	main_z	7	advance_on_keypress_ZEE	34	stimuli_distractor_trianglediamonds.svg	stimuli_target_trianglesquares.svg	26	yes	57	0	331
6.6.1	win	2022-12-14	13:52:10	13:55:42	210891	631c790a9061cd8137fd215b	336786892	1	main_z	7	main_z	35	stimuli_target_circletriangles.svg	stimuli_distractor_trianglediamonds.svg	1	yes	44	1	580
6.6.1	win	2022-12-14	13:52:10	13:55:42	210891	631c790a9061cd8137fd215b	336786892	1	main_z	7	advance_on_keypress_ZEE	36	stimuli_target_circletriangles.svg	stimuli_distractor_trianglediamonds.svg	1	yes	57	0	308
6.6.1	win	2022-12-14	13:52:10	13:55:44	212460	631c790a9061cd8137fd215b	336786892	1	main_z	7	main_z	37	stimuli_target_trianglecircles.svg	stimuli_distractor_diamondtriangles.svg	21	yes	44	1	616
6.6.1	win	2022-12-14	13:52:10	13:55:44	212460	631c790a9061cd8137fd215b	336786892	1	main_z	7	advance_on_keypress_ZEE	38	stimuli_target_trianglecircles.svg	stimuli_distractor_diamondtriangles.svg	21	yes	57	0	358
6.6.1	win	2022-12-14	13:52:10	13:55:45	214091	631c790a9061cd8137fd215b	336786892	1	main_z	7	main_z	39	stimuli_target_diamondcircles.svg	stimuli_distractor_diamondtriangles.svg	23	yes	44	1	630
6.6.1	win	2022-12-14	13:52:10	13:55:45	214091	631c790a9061cd8137fd215b	336786892	1	main_z	7	advance_on_keypress_ZEE	40	stimuli_target_diamondcircles.svg	stimuli_distractor_diamondtriangles.svg	23	yes	57	0	317
6.6.1	win	2022-12-14	13:52:10	13:55:47	215580	631c790a9061cd8137fd215b	336786892	1	main_z	7	main_z	41	stimuli_target_trianglecircles.svg	stimuli_distractor_trianglediamonds.svg	17	yes	44	1	520
6.6.1	win	2022-12-14	13:52:10	13:55:47	215580	631c790a9061cd8137fd215b	336786892	1	main_z	7	advance_on_keypress_ZEE	42	stimuli_target_trianglecircles.svg	stimuli_distractor_trianglediamonds.svg	17	yes	57	0	344
6.6.1	win	2022-12-14	13:52:10	13:55:50	218560	631c790a9061cd8137fd215b	336786892	1	main_z	7	main_z	43	stimuli_distractor_trianglediamonds.svg	stimuli_distractor_diamondtriangles.svg	35	no	0	1	2000
6.6.1	win	2022-12-14	13:52:10	13:55:50	218560	631c790a9061cd8137fd215b	336786892	1	main_z	7	advance_on_keypress_ZEE	44	stimuli_distractor_trianglediamonds.svg	stimuli_distractor_diamondtriangles.svg	35	no	57	0	449
6.6.1	win	2022-12-14	13:52:10	13:55:52	220250	631c790a9061cd8137fd215b	336786892	1	main_z	7	main_z	45	stimuli_distractor_trianglediamonds.svg	stimuli_target_circletriangles.svg	9	yes	44	1	590
6.6.1	win	2022-12-14	13:52:10	13:55:52	220250	631c790a9061cd8137fd215b	336786892	1	main_z	7	advance_on_keypress_ZEE	46	stimuli_distractor_trianglediamonds.svg	stimuli_target_circletriangles.svg	9	yes	57	0	375
6.6.1	win	2022-12-14	13:52:10	13:55:55	223260	631c790a9061cd8137fd215b	336786892	1	main_z	7	main_z	47	stimuli_distractor_diamondtriangles.svg	stimuli_distractor_diamondtriangles.svg	39	no	0	1	2000
6.6.1	win	2022-12-14	13:52:10	13:55:55	223260	631c790a9061cd8137fd215b	336786892	1	main_z	7	advance_on_keypress_ZEE	48	stimuli_distractor_diamondtriangles.svg	stimuli_distractor_diamondtriangles.svg	39	no	57	0	423
6.6.1	win	2022-12-14	13:52:10	13:55:56	224777	631c790a9061cd8137fd215b	336786892	1	main_z	7	main_z	49	stimuli_target_circlediamonds.svg	stimuli_distractor_trianglediamonds.svg	2	yes	44	1	451
6.6.1	win	2022-12-14	13:52:10	13:55:56	224777	631c790a9061cd8137fd215b	336786892	1	main_z	7	advance_on_keypress_ZEE	50	stimuli_target_circlediamonds.svg	stimuli_distractor_trianglediamonds.svg	2	yes	57	0	377
6.6.1	win	2022-12-14	13:52:10	13:55:58	226380	631c790a9061cd8137fd215b	336786892	1	main_z	7	main_z	51	stimuli_target_trianglesquares.svg	stimuli_distractor_diamondtriangles.svg	22	yes	44	1	576
6.6.1	win	2022-12-14	13:52:10	13:55:58	226380	631c790a9061cd8137fd215b	336786892	1	main_z	7	advance_on_keypress_ZEE	52	stimuli_target_trianglesquares.svg	stimuli_distractor_diamondtriangles.svg	22	yes	57	0	274
6.6.1	win	2022-12-14	13:52:10	13:56:01	229326	631c790a9061cd8137fd215b	336786892	1	main_z	7	main_z	53	stimuli_distractor_trianglediamonds.svg	stimuli_distractor_trianglediamonds.svg	34	no	0	1	2000
6.6.1	win	2022-12-14	13:52:10	13:56:01	229326	631c790a9061cd8137fd215b	336786892	1	main_z	7	advance_on_keypress_ZEE	54	stimuli_distractor_trianglediamonds.svg	stimuli_distractor_trianglediamonds.svg	34	no	57	0	539
6.6.1	win	2022-12-14	13:52:10	13:56:02	230981	631c790a9061cd8137fd215b	336786892	1	main_z	7	main_z	55	stimuli_distractor_diamondtriangles.svg	stimuli_target_circletriangles.svg	13	yes	44	1	469
6.6.1	win	2022-12-14	13:52:10	13:56:02	230981	631c790a9061cd8137fd215b	336786892	1	main_z	7	advance_on_keypress_ZEE	56	stimuli_distractor_diamondtriangles.svg	stimuli_target_circletriangles.svg	13	yes	57	0	409
6.6.1	win	2022-12-14	13:52:10	13:56:04	232642	631c790a9061cd8137fd215b	336786892	1	main_z	7	main_z	57	stimuli_distractor_diamondtriangles.svg	stimuli_target_diamondsquares.svg	32	yes	44	1	600
6.6.1	win	2022-12-14	13:52:10	13:56:04	232642	631c790a9061cd8137fd215b	336786892	1	main_z	7	advance_on_keypress_ZEE	58	stimuli_distractor_diamondtriangles.svg	stimuli_target_diamondsquares.svg	32	yes	57	0	341
6.6.1	win	2022-12-14	13:52:10	13:56:06	234995	631c790a9061cd8137fd215b	336786892	1	main_z	7	main_z	59	stimuli_distractor_diamondtriangles.svg	stimuli_target_squaretriangles.svg	15	yes	44	1	1359
6.6.1	win	2022-12-14	13:52:10	13:56:06	234995	631c790a9061cd8137fd215b	336786892	1	main_z	7	advance_on_keypress_ZEE	60	stimuli_distractor_diamondtriangles.svg	stimuli_target_squaretriangles.svg	15	yes	57	0	353
6.6.1	win	2022-12-14	13:52:10	13:56:08	236658	631c790a9061cd8137fd215b	336786892	1	main_z	7	main_z	61	stimuli_target_squaretriangles.svg	stimuli_distractor_diamondtriangles.svg	7	yes	44	1	649
6.6.1	win	2022-12-14	13:52:10	13:56:08	236658	631c790a9061cd8137fd215b	336786892	1	main_z	7	advance_on_keypress_ZEE	62	stimuli_target_squaretriangles.svg	stimuli_distractor_diamondtriangles.svg	7	yes	57	0	246
6.6.1	win	2022-12-14	13:52:10	13:56:11	239567	631c790a9061cd8137fd215b	336786892	1	main_z	7	main_z	63	stimuli_distractor_diamondtriangles.svg	stimuli_distractor_trianglediamonds.svg	37	no	0	1	2000
6.6.1	win	2022-12-14	13:52:10	13:56:11	239567	631c790a9061cd8137fd215b	336786892	1	main_z	7	advance_on_keypress_ZEE	64	stimuli_distractor_diamondtriangles.svg	stimuli_distractor_trianglediamonds.svg	37	no	57	0	356
6.6.1	win	2022-12-14	13:52:10	13:56:13	241571	631c790a9061cd8137fd215b	336786892	1	main_z	7	main_z	65	stimuli_target_diamondsquares.svg	stimuli_distractor_trianglediamonds.svg	20	yes	44	1	995
6.6.1	win	2022-12-14	13:52:10	13:56:13	241571	631c790a9061cd8137fd215b	336786892	1	main_z	7	advance_on_keypress_ZEE	66	stimuli_target_diamondsquares.svg	stimuli_distractor_trianglediamonds.svg	20	yes	57	0	332
6.6.1	win	2022-12-14	13:52:10	13:56:16	244543	631c790a9061cd8137fd215b	336786892	1	main_z	7	main_z	67	stimuli_distractor_trianglediamonds.svg	stimuli_distractor_trianglediamonds.svg	33	no	0	1	2000
6.6.1	win	2022-12-14	13:52:10	13:56:16	244543	631c790a9061cd8137fd215b	336786892	1	main_z	7	advance_on_keypress_ZEE	68	stimuli_distractor_trianglediamonds.svg	stimuli_distractor_trianglediamonds.svg	33	no	57	0	491
6.6.1	win	2022-12-14	13:52:10	13:56:17	246139	631c790a9061cd8137fd215b	336786892	1	main_z	7	main_z	69	stimuli_distractor_diamondtriangles.svg	stimuli_target_squarediamonds.svg	16	yes	44	1	463
6.6.1	win	2022-12-14	13:52:10	13:56:17	246139	631c790a9061cd8137fd215b	336786892	1	main_z	7	advance_on_keypress_ZEE	70	stimuli_distractor_diamondtriangles.svg	stimuli_target_squarediamonds.svg	16	yes	57	0	299
6.6.1	win	2022-12-14	13:52:10	13:56:19	247683	631c790a9061cd8137fd215b	336786892	1	main_z	7	main_z	71	stimuli_distractor_trianglediamonds.svg	stimuli_target_diamondsquares.svg	28	yes	44	1	607
6.6.1	win	2022-12-14	13:52:10	13:56:19	247683	631c790a9061cd8137fd215b	336786892	1	main_z	7	advance_on_keypress_ZEE	72	stimuli_distractor_trianglediamonds.svg	stimuli_target_diamondsquares.svg	28	yes	57	0	205
6.6.1	win	2022-12-14	13:52:10	13:56:20	249042	631c790a9061cd8137fd215b	336786892	1	main_z	7	main_z	73	stimuli_target_diamondsquares.svg	stimuli_distractor_diamondtriangles.svg	24	yes	44	1	507
6.6.1	win	2022-12-14	13:52:10	13:56:20	249042	631c790a9061cd8137fd215b	336786892	1	main_z	7	advance_on_keypress_ZEE	74	stimuli_target_diamondsquares.svg	stimuli_distractor_diamondtriangles.svg	24	yes	57	0	310
6.6.1	win	2022-12-14	13:52:10	13:56:22	250676	631c790a9061cd8137fd215b	336786892	1	main_z	7	main_z	75	stimuli_target_circlediamonds.svg	stimuli_distractor_diamondtriangles.svg	6	yes	44	1	683
6.6.1	win	2022-12-14	13:52:10	13:56:22	250676	631c790a9061cd8137fd215b	336786892	1	main_z	7	advance_on_keypress_ZEE	76	stimuli_target_circlediamonds.svg	stimuli_distractor_diamondtriangles.svg	6	yes	57	0	293
6.6.1	win	2022-12-14	13:52:10	13:56:24	252321	631c790a9061cd8137fd215b	336786892	1	main_z	7	main_z	77	stimuli_target_diamondcircles.svg	stimuli_distractor_trianglediamonds.svg	19	yes	44	1	697
6.6.1	win	2022-12-14	13:52:10	13:56:24	252321	631c790a9061cd8137fd215b	336786892	1	main_z	7	advance_on_keypress_ZEE	78	stimuli_target_diamondcircles.svg	stimuli_distractor_trianglediamonds.svg	19	yes	57	0	293
6.6.1	win	2022-12-14	13:52:10	13:56:25	253788	631c790a9061cd8137fd215b	336786892	1	main_z	7	main_z	79	stimuli_target_squaretriangles.svg	stimuli_distractor_trianglediamonds.svg	3	yes	44	1	528
6.6.1	win	2022-12-14	13:52:10	13:56:25	253788	631c790a9061cd8137fd215b	336786892	1	main_z	7	advance_on_keypress_ZEE	80	stimuli_target_squaretriangles.svg	stimuli_distractor_trianglediamonds.svg	3	yes	57	0	272
6.6.1	win	2022-12-14	13:52:10	13:56:27	255249	631c790a9061cd8137fd215b	336786892	1	main_z	7	main_z	81	stimuli_distractor_trianglediamonds.svg	stimuli_target_squaretriangles.svg	11	yes	44	1	556
6.6.1	win	2022-12-14	13:52:10	13:56:27	255249	631c790a9061cd8137fd215b	336786892	1	main_z	7	advance_on_keypress_ZEE	82	stimuli_distractor_trianglediamonds.svg	stimuli_target_squaretriangles.svg	11	yes	57	0	231
6.6.1	win	2022-12-14	13:52:10	13:56:28	256666	631c790a9061cd8137fd215b	336786892	1	main_z	7	main_z	83	stimuli_distractor_diamondtriangles.svg	stimuli_target_circletriangles.svg	13	yes	44	1	541
6.6.1	win	2022-12-14	13:52:10	13:56:28	256666	631c790a9061cd8137fd215b	336786892	1	main_z	7	advance_on_keypress_ZEE	84	stimuli_distractor_diamondtriangles.svg	stimuli_target_circletriangles.svg	13	yes	57	0	326
6.6.1	win	2022-12-14	13:52:10	13:56:30	258238	631c790a9061cd8137fd215b	336786892	1	main_z	7	main_z	85	stimuli_distractor_diamondtriangles.svg	stimuli_target_diamondcircles.svg	31	yes	44	1	609
6.6.1	win	2022-12-14	13:52:10	13:56:30	258238	631c790a9061cd8137fd215b	336786892	1	main_z	7	advance_on_keypress_ZEE	86	stimuli_distractor_diamondtriangles.svg	stimuli_target_diamondcircles.svg	31	yes	57	0	304
6.6.1	win	2022-12-14	13:52:10	13:56:31	259827	631c790a9061cd8137fd215b	336786892	1	main_z	7	main_z	87	stimuli_distractor_trianglediamonds.svg	stimuli_target_circlediamonds.svg	10	yes	44	1	651
6.6.1	win	2022-12-14	13:52:10	13:56:31	259827	631c790a9061cd8137fd215b	336786892	1	main_z	7	advance_on_keypress_ZEE	88	stimuli_distractor_trianglediamonds.svg	stimuli_target_circlediamonds.svg	10	yes	57	0	248
6.6.1	win	2022-12-14	13:52:10	13:56:33	261292	631c790a9061cd8137fd215b	336786892	1	main_z	7	main_z	89	stimuli_target_circletriangles.svg	stimuli_distractor_diamondtriangles.svg	5	yes	44	1	564
6.6.1	win	2022-12-14	13:52:10	13:56:33	261292	631c790a9061cd8137fd215b	336786892	1	main_z	7	advance_on_keypress_ZEE	90	stimuli_target_circletriangles.svg	stimuli_distractor_diamondtriangles.svg	5	yes	57	0	269
6.6.1	win	2022-12-14	13:52:10	13:56:36	264209	631c790a9061cd8137fd215b	336786892	1	main_z	7	main_z	91	stimuli_distractor_diamondtriangles.svg	stimuli_distractor_diamondtriangles.svg	40	no	0	1	2000
6.6.1	win	2022-12-14	13:52:10	13:56:36	264209	631c790a9061cd8137fd215b	336786892	1	main_z	7	advance_on_keypress_ZEE	92	stimuli_distractor_diamondtriangles.svg	stimuli_distractor_diamondtriangles.svg	40	no	57	0	1727
6.6.1	win	2022-12-14	13:52:10	13:56:38	267095	631c790a9061cd8137fd215b	336786892	1	main_z	7	main_z	93	stimuli_distractor_diamondtriangles.svg	stimuli_target_diamondsquares.svg	32	yes	44	1	513
6.6.1	win	2022-12-14	13:52:10	13:56:38	267095	631c790a9061cd8137fd215b	336786892	1	main_z	7	advance_on_keypress_ZEE	94	stimuli_distractor_diamondtriangles.svg	stimuli_target_diamondsquares.svg	32	yes	57	0	470
6.6.1	win	2022-12-14	13:52:10	13:56:40	268878	631c790a9061cd8137fd215b	336786892	1	main_z	7	main_z	95	stimuli_distractor_trianglediamonds.svg	stimuli_distractor_diamondtriangles.svg	35	no	44	0	657
6.6.1	win	2022-12-14	13:52:10	13:56:40	268878	631c790a9061cd8137fd215b	336786892	1	main_z	7	advance_on_keypress_ZEE	96	stimuli_distractor_trianglediamonds.svg	stimuli_distractor_diamondtriangles.svg	35	no	57	0	696
6.6.1	win	2022-12-14	13:52:10	13:56:42	270890	631c790a9061cd8137fd215b	336786892	1	main_z	7	main_z	97	stimuli_target_circlediamonds.svg	stimuli_distractor_trianglediamonds.svg	2	yes	44	1	665
6.6.1	win	2022-12-14	13:52:10	13:56:42	270890	631c790a9061cd8137fd215b	336786892	1	main_z	7	advance_on_keypress_ZEE	98	stimuli_target_circlediamonds.svg	stimuli_distractor_trianglediamonds.svg	2	yes	57	0	309
6.6.1	win	2022-12-14	13:52:10	13:56:44	272423	631c790a9061cd8137fd215b	336786892	1	main_z	7	main_z	99	stimuli_distractor_trianglediamonds.svg	stimuli_target_trianglesquares.svg	26	yes	44	1	559
6.6.1	win	2022-12-14	13:52:10	13:56:44	272423	631c790a9061cd8137fd215b	336786892	1	main_z	7	advance_on_keypress_ZEE	100	stimuli_distractor_trianglediamonds.svg	stimuli_target_trianglesquares.svg	26	yes	57	0	248
6.6.1	win	2022-12-14	13:52:10	13:56:45	273916	631c790a9061cd8137fd215b	336786892	1	main_z	7	main_z	101	stimuli_target_diamondsquares.svg	stimuli_distractor_diamondtriangles.svg	24	yes	44	1	587
6.6.1	win	2022-12-14	13:52:10	13:56:45	273916	631c790a9061cd8137fd215b	336786892	1	main_z	7	advance_on_keypress_ZEE	102	stimuli_target_diamondsquares.svg	stimuli_distractor_diamondtriangles.svg	24	yes	57	0	253
6.6.1	win	2022-12-14	13:52:10	13:56:47	275450	631c790a9061cd8137fd215b	336786892	1	main_z	7	main_z	103	stimuli_target_trianglecircles.svg	stimuli_distractor_diamondtriangles.svg	21	yes	44	1	641
6.6.1	win	2022-12-14	13:52:10	13:56:47	275450	631c790a9061cd8137fd215b	336786892	1	main_z	7	advance_on_keypress_ZEE	104	stimuli_target_trianglecircles.svg	stimuli_distractor_diamondtriangles.svg	21	yes	57	0	343
6.6.1	win	2022-12-14	13:52:10	13:56:50	278442	631c790a9061cd8137fd215b	336786892	1	main_z	7	main_z	105	stimuli_distractor_diamondtriangles.svg	stimuli_distractor_trianglediamonds.svg	37	no	0	1	2000
6.6.1	win	2022-12-14	13:52:10	13:56:50	278442	631c790a9061cd8137fd215b	336786892	1	main_z	7	advance_on_keypress_ZEE	106	stimuli_distractor_diamondtriangles.svg	stimuli_distractor_trianglediamonds.svg	37	no	57	0	551
6.6.1	win	2022-12-14	13:52:10	13:56:52	280178	631c790a9061cd8137fd215b	336786892	1	main_z	7	main_z	107	stimuli_distractor_trianglediamonds.svg	stimuli_target_diamondcircles.svg	27	yes	44	1	536
6.6.1	win	2022-12-14	13:52:10	13:56:52	280178	631c790a9061cd8137fd215b	336786892	1	main_z	7	advance_on_keypress_ZEE	108	stimuli_distractor_trianglediamonds.svg	stimuli_target_diamondcircles.svg	27	yes	57	0	322
6.6.1	win	2022-12-14	13:52:10	13:56:53	281673	631c790a9061cd8137fd215b	336786892	1	main_z	7	main_z	109	stimuli_distractor_trianglediamonds.svg	stimuli_target_diamondsquares.svg	28	yes	44	1	532
6.6.1	win	2022-12-14	13:52:10	13:56:53	281673	631c790a9061cd8137fd215b	336786892	1	main_z	7	advance_on_keypress_ZEE	110	stimuli_distractor_trianglediamonds.svg	stimuli_target_diamondsquares.svg	28	yes	57	0	262
6.6.1	win	2022-12-14	13:52:10	13:56:56	284575	631c790a9061cd8137fd215b	336786892	1	main_z	7	main_z	111	stimuli_distractor_diamondtriangles.svg	stimuli_distractor_diamondtriangles.svg	39	no	0	1	2000
6.6.1	win	2022-12-14	13:52:10	13:56:56	284575	631c790a9061cd8137fd215b	336786892	1	main_z	7	advance_on_keypress_ZEE	112	stimuli_distractor_diamondtriangles.svg	stimuli_distractor_diamondtriangles.svg	39	no	57	0	417
6.6.1	win	2022-12-14	13:52:10	13:56:59	287642	631c790a9061cd8137fd215b	336786892	1	main_z	7	main_z	113	stimuli_distractor_trianglediamonds.svg	stimuli_distractor_trianglediamonds.svg	34	no	0	1	2000
6.6.1	win	2022-12-14	13:52:10	13:56:59	287642	631c790a9061cd8137fd215b	336786892	1	main_z	7	advance_on_keypress_ZEE	114	stimuli_distractor_trianglediamonds.svg	stimuli_distractor_trianglediamonds.svg	34	no	57	0	343
6.6.1	win	2022-12-14	13:52:10	13:57:01	289191	631c790a9061cd8137fd215b	336786892	1	main_z	7	main_z	115	stimuli_distractor_trianglediamonds.svg	stimuli_target_circletriangles.svg	9	yes	44	1	559
6.6.1	win	2022-12-14	13:52:10	13:57:01	289191	631c790a9061cd8137fd215b	336786892	1	main_z	7	advance_on_keypress_ZEE	116	stimuli_distractor_trianglediamonds.svg	stimuli_target_circletriangles.svg	9	yes	57	0	265
6.6.1	win	2022-12-14	13:52:10	13:57:02	290653	631c790a9061cd8137fd215b	336786892	1	main_z	7	main_z	117	stimuli_target_squaretriangles.svg	stimuli_distractor_diamondtriangles.svg	7	yes	44	1	542
6.6.1	win	2022-12-14	13:52:10	13:57:02	290653	631c790a9061cd8137fd215b	336786892	1	main_z	7	advance_on_keypress_ZEE	118	stimuli_target_squaretriangles.svg	stimuli_distractor_diamondtriangles.svg	7	yes	57	0	303
6.6.1	win	2022-12-14	13:52:10	13:57:03	292157	631c790a9061cd8137fd215b	336786892	1	main_z	7	main_z	119	stimuli_distractor_diamondtriangles.svg	stimuli_target_squaretriangles.svg	15	yes	44	1	560
6.6.1	win	2022-12-14	13:52:10	13:57:03	292157	631c790a9061cd8137fd215b	336786892	1	main_z	7	advance_on_keypress_ZEE	120	stimuli_distractor_diamondtriangles.svg	stimuli_target_squaretriangles.svg	15	yes	57	0	251
6.6.1	win	2022-12-14	13:52:10	13:57:05	293835	631c790a9061cd8137fd215b	336786892	1	main_z	7	main_z	121	stimuli_target_trianglesquares.svg	stimuli_distractor_trianglediamonds.svg	18	yes	44	1	777
6.6.1	win	2022-12-14	13:52:10	13:57:05	293835	631c790a9061cd8137fd215b	336786892	1	main_z	7	advance_on_keypress_ZEE	122	stimuli_target_trianglesquares.svg	stimuli_distractor_trianglediamonds.svg	18	yes	57	0	359
6.6.1	win	2022-12-14	13:52:10	13:57:07	295397	631c790a9061cd8137fd215b	336786892	1	main_z	7	main_z	123	stimuli_distractor_diamondtriangles.svg	stimuli_target_trianglesquares.svg	30	yes	44	1	567
6.6.1	win	2022-12-14	13:52:10	13:57:07	295397	631c790a9061cd8137fd215b	336786892	1	main_z	7	advance_on_keypress_ZEE	124	stimuli_distractor_diamondtriangles.svg	stimuli_target_trianglesquares.svg	30	yes	57	0	270
6.6.1	win	2022-12-14	13:52:10	13:57:10	298340	631c790a9061cd8137fd215b	336786892	1	main_z	7	main_z	125	stimuli_distractor_diamondtriangles.svg	stimuli_distractor_trianglediamonds.svg	38	no	0	1	2000
6.6.1	win	2022-12-14	13:52:10	13:57:10	298340	631c790a9061cd8137fd215b	336786892	1	main_z	7	advance_on_keypress_ZEE	126	stimuli_distractor_diamondtriangles.svg	stimuli_distractor_trianglediamonds.svg	38	no	57	0	668
6.6.1	win	2022-12-14	13:52:10	13:57:12	300226	631c790a9061cd8137fd215b	336786892	1	main_z	7	main_z	127	stimuli_target_circletriangles.svg	stimuli_distractor_trianglediamonds.svg	1	yes	44	1	543
6.6.1	win	2022-12-14	13:52:10	13:57:12	300226	631c790a9061cd8137fd215b	336786892	1	main_z	7	advance_on_keypress_ZEE	128	stimuli_target_circletriangles.svg	stimuli_distractor_trianglediamonds.svg	1	yes	57	0	247
6.6.1	win	2022-12-14	13:52:10	13:57:13	301729	631c790a9061cd8137fd215b	336786892	1	main_z	7	main_z	129	stimuli_target_diamondcircles.svg	stimuli_distractor_trianglediamonds.svg	19	yes	44	1	588
6.6.1	win	2022-12-14	13:52:10	13:57:13	301729	631c790a9061cd8137fd215b	336786892	1	main_z	7	advance_on_keypress_ZEE	130	stimuli_target_diamondcircles.svg	stimuli_distractor_trianglediamonds.svg	19	yes	57	0	308
6.6.1	win	2022-12-14	13:52:10	13:57:15	303195	631c790a9061cd8137fd215b	336786892	1	main_z	7	main_z	131	stimuli_target_squaretriangles.svg	stimuli_distractor_trianglediamonds.svg	3	yes	44	1	520
6.6.1	win	2022-12-14	13:52:10	13:57:15	303195	631c790a9061cd8137fd215b	336786892	1	main_z	7	advance_on_keypress_ZEE	132	stimuli_target_squaretriangles.svg	stimuli_distractor_trianglediamonds.svg	3	yes	57	0	266
6.6.1	win	2022-12-14	13:52:10	13:57:16	304639	631c790a9061cd8137fd215b	336786892	1	main_z	7	main_z	133	stimuli_distractor_diamondtriangles.svg	stimuli_target_squarediamonds.svg	16	yes	44	1	532
6.6.1	win	2022-12-14	13:52:10	13:57:16	304639	631c790a9061cd8137fd215b	336786892	1	main_z	7	advance_on_keypress_ZEE	134	stimuli_distractor_diamondtriangles.svg	stimuli_target_squarediamonds.svg	16	yes	57	0	287
6.6.1	win	2022-12-14	13:52:10	13:57:17	306058	631c790a9061cd8137fd215b	336786892	1	main_z	7	main_z	135	stimuli_target_trianglecircles.svg	stimuli_distractor_trianglediamonds.svg	17	yes	44	1	484
6.6.1	win	2022-12-14	13:52:10	13:57:17	306058	631c790a9061cd8137fd215b	336786892	1	main_z	7	advance_on_keypress_ZEE	136	stimuli_target_trianglecircles.svg	stimuli_distractor_trianglediamonds.svg	17	yes	57	0	286
6.6.1	win	2022-12-14	13:52:10	13:57:19	307669	631c790a9061cd8137fd215b	336786892	1	main_z	7	main_z	137	stimuli_target_circlediamonds.svg	stimuli_distractor_diamondtriangles.svg	6	yes	44	1	675
6.6.1	win	2022-12-14	13:52:10	13:57:19	307669	631c790a9061cd8137fd215b	336786892	1	main_z	7	advance_on_keypress_ZEE	138	stimuli_target_circlediamonds.svg	stimuli_distractor_diamondtriangles.svg	6	yes	57	0	438
6.6.1	win	2022-12-14	13:52:10	13:57:21	309288	631c790a9061cd8137fd215b	336786892	1	main_z	7	main_z	139	stimuli_target_diamondcircles.svg	stimuli_distractor_diamondtriangles.svg	23	yes	44	1	530
6.6.1	win	2022-12-14	13:52:10	13:57:21	309288	631c790a9061cd8137fd215b	336786892	1	main_z	7	advance_on_keypress_ZEE	140	stimuli_target_diamondcircles.svg	stimuli_distractor_diamondtriangles.svg	23	yes	57	0	260
6.6.1	win	2022-12-14	13:52:10	13:57:22	310681	631c790a9061cd8137fd215b	336786892	1	main_z	7	main_z	141	stimuli_target_squarediamonds.svg	stimuli_distractor_trianglediamonds.svg	4	yes	44	1	490
6.6.1	win	2022-12-14	13:52:10	13:57:22	310681	631c790a9061cd8137fd215b	336786892	1	main_z	7	advance_on_keypress_ZEE	142	stimuli_target_squarediamonds.svg	stimuli_distractor_trianglediamonds.svg	4	yes	57	0	303
6.6.1	win	2022-12-14	13:52:10	13:57:24	312193	631c790a9061cd8137fd215b	336786892	1	main_z	7	main_z	143	stimuli_target_diamondsquares.svg	stimuli_distractor_trianglediamonds.svg	20	yes	44	1	570
6.6.1	win	2022-12-14	13:52:10	13:57:24	312193	631c790a9061cd8137fd215b	336786892	1	main_z	7	advance_on_keypress_ZEE	144	stimuli_target_diamondsquares.svg	stimuli_distractor_trianglediamonds.svg	20	yes	57	0	298
6.6.1	win	2022-12-14	13:52:10	13:57:26	315141	631c790a9061cd8137fd215b	336786892	1	main_z	7	main_z	145	stimuli_distractor_trianglediamonds.svg	stimuli_distractor_diamondtriangles.svg	36	no	0	1	2000
6.6.1	win	2022-12-14	13:52:10	13:57:26	315141	631c790a9061cd8137fd215b	336786892	1	main_z	7	advance_on_keypress_ZEE	146	stimuli_distractor_trianglediamonds.svg	stimuli_distractor_diamondtriangles.svg	36	no	57	0	396
6.6.1	win	2022-12-14	13:52:10	13:57:30	318174	631c790a9061cd8137fd215b	336786892	1	main_z	7	main_z	147	stimuli_distractor_trianglediamonds.svg	stimuli_distractor_trianglediamonds.svg	33	no	0	1	2000
6.6.1	win	2022-12-14	13:52:10	13:57:30	318174	631c790a9061cd8137fd215b	336786892	1	main_z	7	advance_on_keypress_ZEE	148	stimuli_distractor_trianglediamonds.svg	stimuli_distractor_trianglediamonds.svg	33	no	57	0	322
6.6.1	win	2022-12-14	13:52:10	13:57:31	319713	631c790a9061cd8137fd215b	336786892	1	main_z	7	main_z	149	stimuli_distractor_diamondtriangles.svg	stimuli_target_circlediamonds.svg	14	yes	44	1	572
6.6.1	win	2022-12-14	13:52:10	13:57:31	319713	631c790a9061cd8137fd215b	336786892	1	main_z	7	advance_on_keypress_ZEE	150	stimuli_distractor_diamondtriangles.svg	stimuli_target_circlediamonds.svg	14	yes	57	0	310
6.6.1	win	2022-12-14	13:52:10	13:57:32	321144	631c790a9061cd8137fd215b	336786892	1	main_z	7	main_z	151	stimuli_distractor_diamondtriangles.svg	stimuli_target_trianglecircles.svg	29	yes	44	1	486
6.6.1	win	2022-12-14	13:52:10	13:57:32	321144	631c790a9061cd8137fd215b	336786892	1	main_z	7	advance_on_keypress_ZEE	152	stimuli_distractor_diamondtriangles.svg	stimuli_target_trianglecircles.svg	29	yes	57	0	299
6.6.1	win	2022-12-14	13:52:10	13:57:34	322577	631c790a9061cd8137fd215b	336786892	1	main_z	7	main_z	153	stimuli_target_squarediamonds.svg	stimuli_distractor_diamondtriangles.svg	8	yes	44	1	487
6.6.1	win	2022-12-14	13:52:10	13:57:34	322577	631c790a9061cd8137fd215b	336786892	1	main_z	7	advance_on_keypress_ZEE	154	stimuli_target_squarediamonds.svg	stimuli_distractor_diamondtriangles.svg	8	yes	57	0	226
6.6.1	win	2022-12-14	13:52:10	13:57:35	323937	631c790a9061cd8137fd215b	336786892	1	main_z	7	main_z	155	stimuli_distractor_trianglediamonds.svg	stimuli_target_trianglecircles.svg	25	yes	44	1	496
6.6.1	win	2022-12-14	13:52:10	13:57:35	323937	631c790a9061cd8137fd215b	336786892	1	main_z	7	advance_on_keypress_ZEE	156	stimuli_distractor_trianglediamonds.svg	stimuli_target_trianglecircles.svg	25	yes	57	0	268
6.6.1	win	2022-12-14	13:52:10	13:57:37	325422	631c790a9061cd8137fd215b	336786892	1	main_z	7	main_z	157	stimuli_distractor_trianglediamonds.svg	stimuli_target_squarediamonds.svg	12	yes	44	1	561
6.6.1	win	2022-12-14	13:52:10	13:57:37	325422	631c790a9061cd8137fd215b	336786892	1	main_z	7	advance_on_keypress_ZEE	158	stimuli_distractor_trianglediamonds.svg	stimuli_target_squarediamonds.svg	12	yes	57	0	400
6.6.1	win	2022-12-14	13:52:10	13:57:38	326903	631c790a9061cd8137fd215b	336786892	1	main_z	7	main_z	159	stimuli_target_trianglesquares.svg	stimuli_distractor_diamondtriangles.svg	22	yes	44	1	413
6.6.1	win	2022-12-14	13:52:10	13:57:38	326903	631c790a9061cd8137fd215b	336786892	1	main_z	7	advance_on_keypress_ZEE	160	stimuli_target_trianglesquares.svg	stimuli_distractor_diamondtriangles.svg	22	yes	57	0	646
6.6.1	win	2022-12-14	13:52:10	13:57:59	347858	631c790a9061cd8137fd215b	336786892	1	practice_slash	9	practice_slash	1	stimuli_distractor_trianglediamonds.svg	stimuli_distractor_trianglediamonds.svg	15	no	0	1	2000
6.6.1	win	2022-12-14	13:52:10	13:57:59	347858	631c790a9061cd8137fd215b	336786892	1	practice_slash	9	advance_on_keypress_SLASH	2	stimuli_distractor_trianglediamonds.svg	stimuli_distractor_trianglediamonds.svg	15	no	57	0	430
6.6.1	win	2022-12-14	13:52:10	13:58:02	350642	631c790a9061cd8137fd215b	336786892	1	practice_slash	9	practice_slash	3	stimuli_target_circlediamonds.svg	stimuli_distractor_diamondtriangles.svg	1	yes	53	1	684
6.6.1	win	2022-12-14	13:52:10	13:58:02	350642	631c790a9061cd8137fd215b	336786892	1	practice_slash	9	advance_on_keypress_SLASH	4	stimuli_target_circlediamonds.svg	stimuli_distractor_diamondtriangles.svg	1	yes	57	0	408
6.6.1	win	2022-12-14	13:52:10	13:58:05	353253	631c790a9061cd8137fd215b	336786892	1	practice_slash	9	practice_slash	5	stimuli_distractor_trianglediamonds.svg	stimuli_target_diamondcircles.svg	12	yes	53	1	533
6.6.1	win	2022-12-14	13:52:10	13:58:05	353253	631c790a9061cd8137fd215b	336786892	1	practice_slash	9	advance_on_keypress_SLASH	6	stimuli_distractor_trianglediamonds.svg	stimuli_target_diamondcircles.svg	12	yes	57	0	320
6.6.1	win	2022-12-14	13:52:10	13:58:07	355667	631c790a9061cd8137fd215b	336786892	1	practice_slash	9	practice_slash	7	stimuli_distractor_trianglediamonds.svg	stimuli_target_squarediamonds.svg	11	yes	53	1	441
6.6.1	win	2022-12-14	13:52:10	13:58:07	355667	631c790a9061cd8137fd215b	336786892	1	practice_slash	9	advance_on_keypress_SLASH	8	stimuli_distractor_trianglediamonds.svg	stimuli_target_squarediamonds.svg	11	yes	57	0	328
6.6.1	win	2022-12-14	13:52:10	13:58:11	359666	631c790a9061cd8137fd215b	336786892	1	practice_slash	9	practice_slash	9	stimuli_distractor_diamondtriangles.svg	stimuli_distractor_diamondtriangles.svg	13	no	0	1	2000
6.6.1	win	2022-12-14	13:52:10	13:58:11	359666	631c790a9061cd8137fd215b	336786892	1	practice_slash	9	advance_on_keypress_SLASH	10	stimuli_distractor_diamondtriangles.svg	stimuli_distractor_diamondtriangles.svg	13	no	57	0	624
6.6.1	win	2022-12-14	13:52:10	13:58:14	362449	631c790a9061cd8137fd215b	336786892	1	practice_slash	9	practice_slash	11	stimuli_target_squarediamonds.svg	stimuli_distractor_diamondtriangles.svg	2	yes	53	1	493
6.6.1	win	2022-12-14	13:52:10	13:58:14	362449	631c790a9061cd8137fd215b	336786892	1	practice_slash	9	advance_on_keypress_SLASH	12	stimuli_target_squarediamonds.svg	stimuli_distractor_diamondtriangles.svg	2	yes	57	0	465
6.6.1	win	2022-12-14	13:52:10	13:58:16	365093	631c790a9061cd8137fd215b	336786892	1	practice_slash	9	practice_slash	13	stimuli_distractor_diamondtriangles.svg	stimuli_target_trianglecircles.svg	9	yes	53	1	524
6.6.1	win	2022-12-14	13:52:10	13:58:16	365093	631c790a9061cd8137fd215b	336786892	1	practice_slash	9	advance_on_keypress_SLASH	14	stimuli_distractor_diamondtriangles.svg	stimuli_target_trianglecircles.svg	9	yes	57	0	367
6.6.1	win	2022-12-14	13:52:10	13:58:20	369119	631c790a9061cd8137fd215b	336786892	1	practice_slash	9	practice_slash	15	stimuli_distractor_diamondtriangles.svg	stimuli_distractor_trianglediamonds.svg	14	no	0	1	2000
6.6.1	win	2022-12-14	13:52:10	13:58:20	369119	631c790a9061cd8137fd215b	336786892	1	practice_slash	9	advance_on_keypress_SLASH	16	stimuli_distractor_diamondtriangles.svg	stimuli_distractor_trianglediamonds.svg	14	no	57	0	428
6.6.1	win	2022-12-14	13:52:10	13:58:23	371694	631c790a9061cd8137fd215b	336786892	1	practice_slash	9	practice_slash	17	stimuli_target_circlediamonds.svg	stimuli_distractor_trianglediamonds.svg	4	yes	53	1	489
6.6.1	win	2022-12-14	13:52:10	13:58:23	371694	631c790a9061cd8137fd215b	336786892	1	practice_slash	9	advance_on_keypress_SLASH	18	stimuli_target_circlediamonds.svg	stimuli_distractor_trianglediamonds.svg	4	yes	57	0	397
6.6.1	win	2022-12-14	13:52:10	13:58:26	374239	631c790a9061cd8137fd215b	336786892	1	practice_slash	9	practice_slash	19	stimuli_distractor_trianglediamonds.svg	stimuli_target_circlediamonds.svg	10	yes	53	1	501
6.6.1	win	2022-12-14	13:52:10	13:58:26	374239	631c790a9061cd8137fd215b	336786892	1	practice_slash	9	advance_on_keypress_SLASH	20	stimuli_distractor_trianglediamonds.svg	stimuli_target_circlediamonds.svg	10	yes	57	0	415
6.6.1	win	2022-12-14	13:52:10	13:58:30	378307	631c790a9061cd8137fd215b	336786892	1	practice_slash	9	practice_slash	21	stimuli_distractor_trianglediamonds.svg	stimuli_distractor_diamondtriangles.svg	16	no	0	1	2000
6.6.1	win	2022-12-14	13:52:10	13:58:30	378307	631c790a9061cd8137fd215b	336786892	1	practice_slash	9	advance_on_keypress_SLASH	22	stimuli_distractor_trianglediamonds.svg	stimuli_distractor_diamondtriangles.svg	16	no	57	0	461
6.6.1	win	2022-12-14	13:52:10	13:58:32	380870	631c790a9061cd8137fd215b	336786892	1	practice_slash	9	practice_slash	23	stimuli_distractor_diamondtriangles.svg	stimuli_target_diamondcircles.svg	8	yes	53	1	450
6.6.1	win	2022-12-14	13:52:10	13:58:32	380870	631c790a9061cd8137fd215b	336786892	1	practice_slash	9	advance_on_keypress_SLASH	24	stimuli_distractor_diamondtriangles.svg	stimuli_target_diamondcircles.svg	8	yes	57	0	487
6.6.1	win	2022-12-14	13:52:10	13:58:35	383520	631c790a9061cd8137fd215b	336786892	1	practice_slash	9	practice_slash	25	stimuli_target_squarediamonds.svg	stimuli_distractor_trianglediamonds.svg	5	yes	53	1	497
6.6.1	win	2022-12-14	13:52:10	13:58:35	383520	631c790a9061cd8137fd215b	336786892	1	practice_slash	9	advance_on_keypress_SLASH	26	stimuli_target_squarediamonds.svg	stimuli_distractor_trianglediamonds.svg	5	yes	57	0	428
6.6.1	win	2022-12-14	13:52:10	13:58:38	386250	631c790a9061cd8137fd215b	336786892	1	practice_slash	9	practice_slash	27	stimuli_target_diamondsquares.svg	stimuli_distractor_diamondtriangles.svg	3	yes	53	1	659
6.6.1	win	2022-12-14	13:52:10	13:58:38	386250	631c790a9061cd8137fd215b	336786892	1	practice_slash	9	advance_on_keypress_SLASH	28	stimuli_target_diamondsquares.svg	stimuli_distractor_diamondtriangles.svg	3	yes	57	0	272
6.6.1	win	2022-12-14	13:52:10	13:58:40	388737	631c790a9061cd8137fd215b	336786892	1	practice_slash	9	practice_slash	29	stimuli_distractor_diamondtriangles.svg	stimuli_target_circletriangles.svg	7	yes	53	1	540
6.6.1	win	2022-12-14	13:52:10	13:58:40	388737	631c790a9061cd8137fd215b	336786892	1	practice_slash	9	advance_on_keypress_SLASH	30	stimuli_distractor_diamondtriangles.svg	stimuli_target_circletriangles.svg	7	yes	57	0	532
6.6.1	win	2022-12-14	13:52:10	13:58:43	391625	631c790a9061cd8137fd215b	336786892	1	practice_slash	9	practice_slash	31	stimuli_target_diamondsquares.svg	stimuli_distractor_trianglediamonds.svg	6	yes	53	1	703
6.6.1	win	2022-12-14	13:52:10	13:58:43	391625	631c790a9061cd8137fd215b	336786892	1	practice_slash	9	advance_on_keypress_SLASH	32	stimuli_target_diamondsquares.svg	stimuli_distractor_trianglediamonds.svg	6	yes	57	0	282
6.6.1	win	2022-12-14	13:52:10	13:58:49	397639	631c790a9061cd8137fd215b	336786892	1	main_slash	11	main_slash	1	stimuli_distractor_trianglediamonds.svg	stimuli_distractor_diamondtriangles.svg	35	no	0	1	2000
6.6.1	win	2022-12-14	13:52:10	13:58:49	397639	631c790a9061cd8137fd215b	336786892	1	main_slash	11	advance_on_keypress_SLASH	2	stimuli_distractor_trianglediamonds.svg	stimuli_distractor_diamondtriangles.svg	35	no	57	0	351
6.6.1	win	2022-12-14	13:52:10	13:58:50	399118	631c790a9061cd8137fd215b	336786892	1	main_slash	11	main_slash	3	stimuli_distractor_diamondtriangles.svg	stimuli_target_diamondcircles.svg	31	yes	53	1	479
6.6.1	win	2022-12-14	13:52:10	13:58:50	399118	631c790a9061cd8137fd215b	336786892	1	main_slash	11	advance_on_keypress_SLASH	4	stimuli_distractor_diamondtriangles.svg	stimuli_target_diamondcircles.svg	31	yes	57	0	501
6.6.1	win	2022-12-14	13:52:10	13:58:54	402255	631c790a9061cd8137fd215b	336786892	1	main_slash	11	main_slash	5	stimuli_distractor_diamondtriangles.svg	stimuli_distractor_trianglediamonds.svg	37	no	0	1	2000
6.6.1	win	2022-12-14	13:52:10	13:58:54	402255	631c790a9061cd8137fd215b	336786892	1	main_slash	11	advance_on_keypress_SLASH	6	stimuli_distractor_diamondtriangles.svg	stimuli_distractor_trianglediamonds.svg	37	no	57	0	336
6.6.1	win	2022-12-14	13:52:10	13:58:55	403649	631c790a9061cd8137fd215b	336786892	1	main_slash	11	main_slash	7	stimuli_distractor_diamondtriangles.svg	stimuli_target_trianglecircles.svg	29	yes	53	1	407
6.6.1	win	2022-12-14	13:52:10	13:58:55	403649	631c790a9061cd8137fd215b	336786892	1	main_slash	11	advance_on_keypress_SLASH	8	stimuli_distractor_diamondtriangles.svg	stimuli_target_trianglecircles.svg	29	yes	57	0	466
6.6.1	win	2022-12-14	13:52:10	13:58:57	405205	631c790a9061cd8137fd215b	336786892	1	main_slash	11	main_slash	9	stimuli_distractor_trianglediamonds.svg	stimuli_target_diamondsquares.svg	28	yes	53	1	446
6.6.1	win	2022-12-14	13:52:10	13:58:57	405205	631c790a9061cd8137fd215b	336786892	1	main_slash	11	advance_on_keypress_SLASH	10	stimuli_distractor_trianglediamonds.svg	stimuli_target_diamondsquares.svg	28	yes	57	0	369
6.6.1	win	2022-12-14	13:52:10	13:59:00	408232	631c790a9061cd8137fd215b	336786892	1	main_slash	11	main_slash	11	stimuli_distractor_diamondtriangles.svg	stimuli_distractor_trianglediamonds.svg	38	no	0	1	2000
6.6.1	win	2022-12-14	13:52:10	13:59:00	408232	631c790a9061cd8137fd215b	336786892	1	main_slash	11	advance_on_keypress_SLASH	12	stimuli_distractor_diamondtriangles.svg	stimuli_distractor_trianglediamonds.svg	38	no	57	0	585
6.6.1	win	2022-12-14	13:52:10	13:59:01	409921	631c790a9061cd8137fd215b	336786892	1	main_slash	11	main_slash	13	stimuli_target_circletriangles.svg	stimuli_distractor_trianglediamonds.svg	1	yes	53	1	465
6.6.1	win	2022-12-14	13:52:10	13:59:01	409921	631c790a9061cd8137fd215b	336786892	1	main_slash	11	advance_on_keypress_SLASH	14	stimuli_target_circletriangles.svg	stimuli_distractor_trianglediamonds.svg	1	yes	57	0	413
6.6.1	win	2022-12-14	13:52:10	13:59:04	412978	631c790a9061cd8137fd215b	336786892	1	main_slash	11	main_slash	15	stimuli_distractor_trianglediamonds.svg	stimuli_distractor_trianglediamonds.svg	33	no	0	1	2000
6.6.1	win	2022-12-14	13:52:10	13:59:04	412978	631c790a9061cd8137fd215b	336786892	1	main_slash	11	advance_on_keypress_SLASH	16	stimuli_distractor_trianglediamonds.svg	stimuli_distractor_trianglediamonds.svg	33	no	57	0	329
6.6.1	win	2022-12-14	13:52:10	13:59:06	414384	631c790a9061cd8137fd215b	336786892	1	main_slash	11	main_slash	17	stimuli_target_circlediamonds.svg	stimuli_distractor_diamondtriangles.svg	6	yes	53	1	429
6.6.1	win	2022-12-14	13:52:10	13:59:06	414384	631c790a9061cd8137fd215b	336786892	1	main_slash	11	advance_on_keypress_SLASH	18	stimuli_target_circlediamonds.svg	stimuli_distractor_diamondtriangles.svg	6	yes	57	0	332
6.6.1	win	2022-12-14	13:52:10	13:59:07	415832	631c790a9061cd8137fd215b	336786892	1	main_slash	11	main_slash	19	stimuli_target_squarediamonds.svg	stimuli_distractor_diamondtriangles.svg	8	yes	53	1	477
6.6.1	win	2022-12-14	13:52:10	13:59:07	415832	631c790a9061cd8137fd215b	336786892	1	main_slash	11	advance_on_keypress_SLASH	20	stimuli_target_squarediamonds.svg	stimuli_distractor_diamondtriangles.svg	8	yes	57	0	457
6.6.1	win	2022-12-14	13:52:10	13:59:09	417390	631c790a9061cd8137fd215b	336786892	1	main_slash	11	main_slash	21	stimuli_target_circletriangles.svg	stimuli_distractor_diamondtriangles.svg	5	yes	53	1	469
6.6.1	win	2022-12-14	13:52:10	13:59:09	417390	631c790a9061cd8137fd215b	336786892	1	main_slash	11	advance_on_keypress_SLASH	22	stimuli_target_circletriangles.svg	stimuli_distractor_diamondtriangles.svg	5	yes	57	0	347
6.6.1	win	2022-12-14	13:52:10	13:59:10	418775	631c790a9061cd8137fd215b	336786892	1	main_slash	11	main_slash	23	stimuli_distractor_diamondtriangles.svg	stimuli_target_circlediamonds.svg	14	yes	53	1	402
6.6.1	win	2022-12-14	13:52:10	13:59:10	418775	631c790a9061cd8137fd215b	336786892	1	main_slash	11	advance_on_keypress_SLASH	24	stimuli_distractor_diamondtriangles.svg	stimuli_target_circlediamonds.svg	14	yes	57	0	244
6.6.1	win	2022-12-14	13:52:10	13:59:12	420255	631c790a9061cd8137fd215b	336786892	1	main_slash	11	main_slash	25	stimuli_distractor_trianglediamonds.svg	stimuli_target_trianglesquares.svg	26	yes	53	1	600
6.6.1	win	2022-12-14	13:52:10	13:59:12	420255	631c790a9061cd8137fd215b	336786892	1	main_slash	11	advance_on_keypress_SLASH	26	stimuli_distractor_trianglediamonds.svg	stimuli_target_trianglesquares.svg	26	yes	57	0	256
6.6.1	win	2022-12-14	13:52:10	13:59:14	423155	631c790a9061cd8137fd215b	336786892	1	main_slash	11	main_slash	27	stimuli_distractor_diamondtriangles.svg	stimuli_distractor_diamondtriangles.svg	39	no	0	1	2000
6.6.1	win	2022-12-14	13:52:10	13:59:14	423155	631c790a9061cd8137fd215b	336786892	1	main_slash	11	advance_on_keypress_SLASH	28	stimuli_distractor_diamondtriangles.svg	stimuli_distractor_diamondtriangles.svg	39	no	57	0	883
6.6.1	win	2022-12-14	13:52:10	13:59:17	425310	631c790a9061cd8137fd215b	336786892	1	main_slash	11	main_slash	29	stimuli_target_squarediamonds.svg	stimuli_distractor_trianglediamonds.svg	4	yes	53	1	622
6.6.1	win	2022-12-14	13:52:10	13:59:17	425310	631c790a9061cd8137fd215b	336786892	1	main_slash	11	advance_on_keypress_SLASH	30	stimuli_target_squarediamonds.svg	stimuli_distractor_trianglediamonds.svg	4	yes	57	0	414
6.6.1	win	2022-12-14	13:52:10	13:59:18	426840	631c790a9061cd8137fd215b	336786892	1	main_slash	11	main_slash	31	stimuli_target_circlediamonds.svg	stimuli_distractor_trianglediamonds.svg	2	yes	53	1	469
6.6.1	win	2022-12-14	13:52:10	13:59:18	426840	631c790a9061cd8137fd215b	336786892	1	main_slash	11	advance_on_keypress_SLASH	32	stimuli_target_circlediamonds.svg	stimuli_distractor_trianglediamonds.svg	2	yes	57	0	296
6.6.1	win	2022-12-14	13:52:10	13:59:20	428722	631c790a9061cd8137fd215b	336786892	1	main_slash	11	main_slash	33	stimuli_target_diamondcircles.svg	stimuli_distractor_trianglediamonds.svg	19	yes	53	1	939
6.6.1	win	2022-12-14	13:52:10	13:59:20	428722	631c790a9061cd8137fd215b	336786892	1	main_slash	11	advance_on_keypress_SLASH	34	stimuli_target_diamondcircles.svg	stimuli_distractor_trianglediamonds.svg	19	yes	57	0	245
6.6.1	win	2022-12-14	13:52:10	13:59:22	430241	631c790a9061cd8137fd215b	336786892	1	main_slash	11	main_slash	35	stimuli_distractor_trianglediamonds.svg	stimuli_target_circletriangles.svg	9	yes	53	1	611
6.6.1	win	2022-12-14	13:52:10	13:59:22	430241	631c790a9061cd8137fd215b	336786892	1	main_slash	11	advance_on_keypress_SLASH	36	stimuli_distractor_trianglediamonds.svg	stimuli_target_circletriangles.svg	9	yes	57	0	336
6.6.1	win	2022-12-14	13:52:10	13:59:23	431790	631c790a9061cd8137fd215b	336786892	1	main_slash	11	main_slash	37	stimuli_distractor_trianglediamonds.svg	stimuli_distractor_diamondtriangles.svg	36	no	53	0	570
6.6.1	win	2022-12-14	13:52:10	13:59:23	431790	631c790a9061cd8137fd215b	336786892	1	main_slash	11	advance_on_keypress_SLASH	38	stimuli_distractor_trianglediamonds.svg	stimuli_distractor_diamondtriangles.svg	36	no	57	0	770
6.6.1	win	2022-12-14	13:52:10	13:59:25	433686	631c790a9061cd8137fd215b	336786892	1	main_slash	11	main_slash	39	stimuli_distractor_trianglediamonds.svg	stimuli_target_trianglecircles.svg	25	yes	53	1	473
6.6.1	win	2022-12-14	13:52:10	13:59:25	433686	631c790a9061cd8137fd215b	336786892	1	main_slash	11	advance_on_keypress_SLASH	40	stimuli_distractor_trianglediamonds.svg	stimuli_target_trianglecircles.svg	25	yes	57	0	303
6.6.1	win	2022-12-14	13:52:10	13:59:26	435159	631c790a9061cd8137fd215b	336786892	1	main_slash	11	main_slash	41	stimuli_target_trianglesquares.svg	stimuli_distractor_trianglediamonds.svg	18	yes	53	1	522
6.6.1	win	2022-12-14	13:52:10	13:59:26	435159	631c790a9061cd8137fd215b	336786892	1	main_slash	11	advance_on_keypress_SLASH	42	stimuli_target_trianglesquares.svg	stimuli_distractor_trianglediamonds.svg	18	yes	57	0	435
6.6.1	win	2022-12-14	13:52:10	13:59:30	438238	631c790a9061cd8137fd215b	336786892	1	main_slash	11	main_slash	43	stimuli_distractor_trianglediamonds.svg	stimuli_distractor_trianglediamonds.svg	34	no	0	1	2000
6.6.1	win	2022-12-14	13:52:10	13:59:30	438238	631c790a9061cd8137fd215b	336786892	1	main_slash	11	advance_on_keypress_SLASH	44	stimuli_distractor_trianglediamonds.svg	stimuli_distractor_trianglediamonds.svg	34	no	57	0	361
6.6.1	win	2022-12-14	13:52:10	13:59:31	439903	631c790a9061cd8137fd215b	336786892	1	main_slash	11	main_slash	45	stimuli_distractor_diamondtriangles.svg	stimuli_target_squaretriangles.svg	15	yes	53	1	666
6.6.1	win	2022-12-14	13:52:10	13:59:31	439903	631c790a9061cd8137fd215b	336786892	1	main_slash	11	advance_on_keypress_SLASH	46	stimuli_distractor_diamondtriangles.svg	stimuli_target_squaretriangles.svg	15	yes	57	0	334
6.6.1	win	2022-12-14	13:52:10	13:59:33	441327	631c790a9061cd8137fd215b	336786892	1	main_slash	11	main_slash	47	stimuli_target_squaretriangles.svg	stimuli_distractor_diamondtriangles.svg	7	yes	53	1	439
6.6.1	win	2022-12-14	13:52:10	13:59:33	441327	631c790a9061cd8137fd215b	336786892	1	main_slash	11	advance_on_keypress_SLASH	48	stimuli_target_squaretriangles.svg	stimuli_distractor_diamondtriangles.svg	7	yes	57	0	253
6.6.1	win	2022-12-14	13:52:10	13:59:34	442690	631c790a9061cd8137fd215b	336786892	1	main_slash	11	main_slash	49	stimuli_distractor_diamondtriangles.svg	stimuli_target_trianglesquares.svg	30	yes	53	1	458
6.6.1	win	2022-12-14	13:52:10	13:59:34	442690	631c790a9061cd8137fd215b	336786892	1	main_slash	11	advance_on_keypress_SLASH	50	stimuli_distractor_diamondtriangles.svg	stimuli_target_trianglesquares.svg	30	yes	57	0	261
6.6.1	win	2022-12-14	13:52:10	13:59:37	445604	631c790a9061cd8137fd215b	336786892	1	main_slash	11	main_slash	51	stimuli_distractor_diamondtriangles.svg	stimuli_distractor_diamondtriangles.svg	40	no	0	1	2000
6.6.1	win	2022-12-14	13:52:10	13:59:37	445604	631c790a9061cd8137fd215b	336786892	1	main_slash	11	advance_on_keypress_SLASH	52	stimuli_distractor_diamondtriangles.svg	stimuli_distractor_diamondtriangles.svg	40	no	57	0	530
6.6.1	win	2022-12-14	13:52:10	13:59:39	447406	631c790a9061cd8137fd215b	336786892	1	main_slash	11	main_slash	53	stimuli_target_trianglecircles.svg	stimuli_distractor_diamondtriangles.svg	21	yes	53	1	636
6.6.1	win	2022-12-14	13:52:10	13:59:39	447406	631c790a9061cd8137fd215b	336786892	1	main_slash	11	advance_on_keypress_SLASH	54	stimuli_target_trianglecircles.svg	stimuli_distractor_diamondtriangles.svg	21	yes	57	0	330
6.6.1	win	2022-12-14	13:52:10	13:59:40	448999	631c790a9061cd8137fd215b	336786892	1	main_slash	11	main_slash	55	stimuli_distractor_trianglediamonds.svg	stimuli_target_circlediamonds.svg	10	yes	53	1	610
6.6.1	win	2022-12-14	13:52:10	13:59:40	448999	631c790a9061cd8137fd215b	336786892	1	main_slash	11	advance_on_keypress_SLASH	56	stimuli_distractor_trianglediamonds.svg	stimuli_target_circlediamonds.svg	10	yes	57	0	659
6.6.1	win	2022-12-14	13:52:10	13:59:42	450903	631c790a9061cd8137fd215b	336786892	1	main_slash	11	main_slash	57	stimuli_target_diamondsquares.svg	stimuli_distractor_diamondtriangles.svg	24	yes	53	1	615
6.6.1	win	2022-12-14	13:52:10	13:59:42	450903	631c790a9061cd8137fd215b	336786892	1	main_slash	11	advance_on_keypress_SLASH	58	stimuli_target_diamondsquares.svg	stimuli_distractor_diamondtriangles.svg	24	yes	57	0	269
6.6.1	win	2022-12-14	13:52:10	13:59:44	452254	631c790a9061cd8137fd215b	336786892	1	main_slash	11	main_slash	59	stimuli_distractor_trianglediamonds.svg	stimuli_target_diamondcircles.svg	27	yes	53	1	434
6.6.1	win	2022-12-14	13:52:10	13:59:44	452254	631c790a9061cd8137fd215b	336786892	1	main_slash	11	advance_on_keypress_SLASH	60	stimuli_distractor_trianglediamonds.svg	stimuli_target_diamondcircles.svg	27	yes	57	0	214
6.6.1	win	2022-12-14	13:52:10	13:59:45	453605	631c790a9061cd8137fd215b	336786892	1	main_slash	11	main_slash	61	stimuli_target_diamondcircles.svg	stimuli_distractor_diamondtriangles.svg	23	yes	53	1	485
6.6.1	win	2022-12-14	13:52:10	13:59:45	453605	631c790a9061cd8137fd215b	336786892	1	main_slash	11	advance_on_keypress_SLASH	62	stimuli_target_diamondcircles.svg	stimuli_distractor_diamondtriangles.svg	23	yes	57	0	202
6.6.1	win	2022-12-14	13:52:10	13:59:46	455007	631c790a9061cd8137fd215b	336786892	1	main_slash	11	main_slash	63	stimuli_distractor_trianglediamonds.svg	stimuli_target_squaretriangles.svg	11	yes	53	1	553
6.6.1	win	2022-12-14	13:52:10	13:59:46	455007	631c790a9061cd8137fd215b	336786892	1	main_slash	11	advance_on_keypress_SLASH	64	stimuli_distractor_trianglediamonds.svg	stimuli_target_squaretriangles.svg	11	yes	57	0	225
6.6.1	win	2022-12-14	13:52:10	13:59:48	456343	631c790a9061cd8137fd215b	336786892	1	main_slash	11	main_slash	65	stimuli_distractor_diamondtriangles.svg	stimuli_target_diamondsquares.svg	32	yes	53	1	472
6.6.1	win	2022-12-14	13:52:10	13:59:48	456343	631c790a9061cd8137fd215b	336786892	1	main_slash	11	advance_on_keypress_SLASH	66	stimuli_distractor_diamondtriangles.svg	stimuli_target_diamondsquares.svg	32	yes	57	0	245
6.6.1	win	2022-12-14	13:52:10	13:59:49	457736	631c790a9061cd8137fd215b	336786892	1	main_slash	11	main_slash	67	stimuli_target_squaretriangles.svg	stimuli_distractor_trianglediamonds.svg	3	yes	53	1	505
6.6.1	win	2022-12-14	13:52:10	13:59:49	457736	631c790a9061cd8137fd215b	336786892	1	main_slash	11	advance_on_keypress_SLASH	68	stimuli_target_squaretriangles.svg	stimuli_distractor_trianglediamonds.svg	3	yes	57	0	214
6.6.1	win	2022-12-14	13:52:10	13:59:50	459070	631c790a9061cd8137fd215b	336786892	1	main_slash	11	main_slash	69	stimuli_target_diamondsquares.svg	stimuli_distractor_trianglediamonds.svg	20	yes	53	1	483
6.6.1	win	2022-12-14	13:52:10	13:59:50	459070	631c790a9061cd8137fd215b	336786892	1	main_slash	11	advance_on_keypress_SLASH	70	stimuli_target_diamondsquares.svg	stimuli_distractor_trianglediamonds.svg	20	yes	57	0	239
6.6.1	win	2022-12-14	13:52:10	13:59:52	460531	631c790a9061cd8137fd215b	336786892	1	main_slash	11	main_slash	71	stimuli_distractor_trianglediamonds.svg	stimuli_target_squarediamonds.svg	12	yes	53	1	565
6.6.1	win	2022-12-14	13:52:10	13:59:52	460531	631c790a9061cd8137fd215b	336786892	1	main_slash	11	advance_on_keypress_SLASH	72	stimuli_distractor_trianglediamonds.svg	stimuli_target_squarediamonds.svg	12	yes	57	0	285
6.6.1	win	2022-12-14	13:52:10	13:59:53	461990	631c790a9061cd8137fd215b	336786892	1	main_slash	11	main_slash	73	stimuli_target_trianglecircles.svg	stimuli_distractor_trianglediamonds.svg	17	yes	53	1	536
6.6.1	win	2022-12-14	13:52:10	13:59:53	461990	631c790a9061cd8137fd215b	336786892	1	main_slash	11	advance_on_keypress_SLASH	74	stimuli_target_trianglecircles.svg	stimuli_distractor_trianglediamonds.svg	17	yes	57	0	242
6.6.1	win	2022-12-14	13:52:10	13:59:55	463366	631c790a9061cd8137fd215b	336786892	1	main_slash	11	main_slash	75	stimuli_target_trianglesquares.svg	stimuli_distractor_diamondtriangles.svg	22	yes	53	1	489
6.6.1	win	2022-12-14	13:52:10	13:59:55	463366	631c790a9061cd8137fd215b	336786892	1	main_slash	11	advance_on_keypress_SLASH	76	stimuli_target_trianglesquares.svg	stimuli_distractor_diamondtriangles.svg	22	yes	57	0	205
6.6.1	win	2022-12-14	13:52:10	13:59:56	464782	631c790a9061cd8137fd215b	336786892	1	main_slash	11	main_slash	77	stimuli_distractor_diamondtriangles.svg	stimuli_target_circletriangles.svg	13	yes	53	1	579
6.6.1	win	2022-12-14	13:52:10	13:59:56	464782	631c790a9061cd8137fd215b	336786892	1	main_slash	11	advance_on_keypress_SLASH	78	stimuli_distractor_diamondtriangles.svg	stimuli_target_circletriangles.svg	13	yes	57	0	197
6.6.1	win	2022-12-14	13:52:10	13:59:57	466071	631c790a9061cd8137fd215b	336786892	1	main_slash	11	main_slash	79	stimuli_distractor_diamondtriangles.svg	stimuli_target_squarediamonds.svg	16	yes	53	1	467
6.6.1	win	2022-12-14	13:52:10	13:59:57	466071	631c790a9061cd8137fd215b	336786892	1	main_slash	11	advance_on_keypress_SLASH	80	stimuli_distractor_diamondtriangles.svg	stimuli_target_squarediamonds.svg	16	yes	57	0	168
6.6.1	win	2022-12-14	13:52:10	13:59:59	467310	631c790a9061cd8137fd215b	336786892	1	main_slash	11	main_slash	81	stimuli_target_circlediamonds.svg	stimuli_distractor_diamondtriangles.svg	6	yes	53	1	423
6.6.1	win	2022-12-14	13:52:10	13:59:59	467310	631c790a9061cd8137fd215b	336786892	1	main_slash	11	advance_on_keypress_SLASH	82	stimuli_target_circlediamonds.svg	stimuli_distractor_diamondtriangles.svg	6	yes	57	0	222
6.6.1	win	2022-12-14	13:52:10	14:00:00	468741	631c790a9061cd8137fd215b	336786892	1	main_slash	11	main_slash	83	stimuli_target_trianglecircles.svg	stimuli_distractor_diamondtriangles.svg	21	yes	53	1	571
6.6.1	win	2022-12-14	13:52:10	14:00:00	468741	631c790a9061cd8137fd215b	336786892	1	main_slash	11	advance_on_keypress_SLASH	84	stimuli_target_trianglecircles.svg	stimuli_distractor_diamondtriangles.svg	21	yes	57	0	228
6.6.1	win	2022-12-14	13:52:10	14:00:01	470036	631c790a9061cd8137fd215b	336786892	1	main_slash	11	main_slash	85	stimuli_distractor_trianglediamonds.svg	stimuli_target_squarediamonds.svg	12	yes	53	1	426
6.6.1	win	2022-12-14	13:52:10	14:00:01	470036	631c790a9061cd8137fd215b	336786892	1	main_slash	11	advance_on_keypress_SLASH	86	stimuli_distractor_trianglediamonds.svg	stimuli_target_squarediamonds.svg	12	yes	57	0	224
6.6.1	win	2022-12-14	13:52:10	14:00:03	471344	631c790a9061cd8137fd215b	336786892	1	main_slash	11	main_slash	87	stimuli_distractor_trianglediamonds.svg	stimuli_target_diamondcircles.svg	27	yes	53	1	422
6.6.1	win	2022-12-14	13:52:10	14:00:03	471344	631c790a9061cd8137fd215b	336786892	1	main_slash	11	advance_on_keypress_SLASH	88	stimuli_distractor_trianglediamonds.svg	stimuli_target_diamondcircles.svg	27	yes	57	0	189
6.6.1	win	2022-12-14	13:52:10	14:00:04	472610	631c790a9061cd8137fd215b	336786892	1	main_slash	11	main_slash	89	stimuli_target_squaretriangles.svg	stimuli_distractor_trianglediamonds.svg	3	yes	53	1	429
6.6.1	win	2022-12-14	13:52:10	14:00:04	472610	631c790a9061cd8137fd215b	336786892	1	main_slash	11	advance_on_keypress_SLASH	90	stimuli_target_squaretriangles.svg	stimuli_distractor_trianglediamonds.svg	3	yes	57	0	178
6.6.1	win	2022-12-14	13:52:10	14:00:05	473854	631c790a9061cd8137fd215b	336786892	1	main_slash	11	main_slash	91	stimuli_target_circlediamonds.svg	stimuli_distractor_trianglediamonds.svg	2	yes	53	1	402
6.6.1	win	2022-12-14	13:52:10	14:00:05	473854	631c790a9061cd8137fd215b	336786892	1	main_slash	11	advance_on_keypress_SLASH	92	stimuli_target_circlediamonds.svg	stimuli_distractor_trianglediamonds.svg	2	yes	57	0	233
6.6.1	win	2022-12-14	13:52:10	14:00:07	475256	631c790a9061cd8137fd215b	336786892	1	main_slash	11	main_slash	93	stimuli_target_trianglecircles.svg	stimuli_distractor_trianglediamonds.svg	17	yes	53	1	518
6.6.1	win	2022-12-14	13:52:10	14:00:07	475256	631c790a9061cd8137fd215b	336786892	1	main_slash	11	advance_on_keypress_SLASH	94	stimuli_target_trianglecircles.svg	stimuli_distractor_trianglediamonds.svg	17	yes	57	0	186
6.6.1	win	2022-12-14	13:52:10	14:00:09	478087	631c790a9061cd8137fd215b	336786892	1	main_slash	11	main_slash	95	stimuli_distractor_diamondtriangles.svg	stimuli_distractor_trianglediamonds.svg	37	no	0	1	2000
6.6.1	win	2022-12-14	13:52:10	14:00:09	478087	631c790a9061cd8137fd215b	336786892	1	main_slash	11	advance_on_keypress_SLASH	96	stimuli_distractor_diamondtriangles.svg	stimuli_distractor_trianglediamonds.svg	37	no	57	0	544
6.6.1	win	2022-12-14	13:52:10	14:00:11	479718	631c790a9061cd8137fd215b	336786892	1	main_slash	11	main_slash	97	stimuli_distractor_trianglediamonds.svg	stimuli_target_diamondsquares.svg	28	yes	53	1	448
6.6.1	win	2022-12-14	13:52:10	14:00:11	479718	631c790a9061cd8137fd215b	336786892	1	main_slash	11	advance_on_keypress_SLASH	98	stimuli_distractor_trianglediamonds.svg	stimuli_target_diamondsquares.svg	28	yes	57	0	260
6.6.1	win	2022-12-14	13:52:10	14:00:14	482624	631c790a9061cd8137fd215b	336786892	1	main_slash	11	main_slash	99	stimuli_distractor_diamondtriangles.svg	stimuli_distractor_diamondtriangles.svg	39	no	0	1	2000
6.6.1	win	2022-12-14	13:52:10	14:00:14	482624	631c790a9061cd8137fd215b	336786892	1	main_slash	11	advance_on_keypress_SLASH	100	stimuli_distractor_diamondtriangles.svg	stimuli_distractor_diamondtriangles.svg	39	no	57	0	332
6.6.1	win	2022-12-14	13:52:10	14:00:15	484079	631c790a9061cd8137fd215b	336786892	1	main_slash	11	main_slash	101	stimuli_target_diamondcircles.svg	stimuli_distractor_diamondtriangles.svg	23	yes	53	1	476
6.6.1	win	2022-12-14	13:52:10	14:00:15	484079	631c790a9061cd8137fd215b	336786892	1	main_slash	11	advance_on_keypress_SLASH	102	stimuli_target_diamondcircles.svg	stimuli_distractor_diamondtriangles.svg	23	yes	57	0	271
6.6.1	win	2022-12-14	13:52:10	14:00:17	485517	631c790a9061cd8137fd215b	336786892	1	main_slash	11	main_slash	103	stimuli_distractor_diamondtriangles.svg	stimuli_target_circlediamonds.svg	14	yes	53	1	531
6.6.1	win	2022-12-14	13:52:10	14:00:17	485517	631c790a9061cd8137fd215b	336786892	1	main_slash	11	advance_on_keypress_SLASH	104	stimuli_distractor_diamondtriangles.svg	stimuli_target_circlediamonds.svg	14	yes	57	0	238
6.6.1	win	2022-12-14	13:52:10	14:00:18	486846	631c790a9061cd8137fd215b	336786892	1	main_slash	11	main_slash	105	stimuli_target_squarediamonds.svg	stimuli_distractor_trianglediamonds.svg	4	yes	53	1	443
6.6.1	win	2022-12-14	13:52:10	14:00:18	486846	631c790a9061cd8137fd215b	336786892	1	main_slash	11	advance_on_keypress_SLASH	106	stimuli_target_squarediamonds.svg	stimuli_distractor_trianglediamonds.svg	4	yes	57	0	232
6.6.1	win	2022-12-14	13:52:10	14:00:20	488188	631c790a9061cd8137fd215b	336786892	1	main_slash	11	main_slash	107	stimuli_distractor_trianglediamonds.svg	stimuli_target_trianglecircles.svg	25	yes	53	1	445
6.6.1	win	2022-12-14	13:52:10	14:00:20	488188	631c790a9061cd8137fd215b	336786892	1	main_slash	11	advance_on_keypress_SLASH	108	stimuli_distractor_trianglediamonds.svg	stimuli_target_trianglecircles.svg	25	yes	57	0	227
6.6.1	win	2022-12-14	13:52:10	14:00:21	489554	631c790a9061cd8137fd215b	336786892	1	main_slash	11	main_slash	109	stimuli_target_circletriangles.svg	stimuli_distractor_trianglediamonds.svg	1	yes	53	1	481
6.6.1	win	2022-12-14	13:52:10	14:00:21	489554	631c790a9061cd8137fd215b	336786892	1	main_slash	11	advance_on_keypress_SLASH	110	stimuli_target_circletriangles.svg	stimuli_distractor_trianglediamonds.svg	1	yes	57	0	187
6.6.1	win	2022-12-14	13:52:10	14:00:22	490852	631c790a9061cd8137fd215b	336786892	1	main_slash	11	main_slash	111	stimuli_target_squaretriangles.svg	stimuli_distractor_diamondtriangles.svg	7	yes	53	1	442
6.6.1	win	2022-12-14	13:52:10	14:00:22	490852	631c790a9061cd8137fd215b	336786892	1	main_slash	11	advance_on_keypress_SLASH	112	stimuli_target_squaretriangles.svg	stimuli_distractor_diamondtriangles.svg	7	yes	57	0	198
6.6.1	win	2022-12-14	13:52:10	14:00:23	492112	631c790a9061cd8137fd215b	336786892	1	main_slash	11	main_slash	113	stimuli_target_squarediamonds.svg	stimuli_distractor_diamondtriangles.svg	8	yes	53	1	408
6.6.1	win	2022-12-14	13:52:10	14:00:23	492112	631c790a9061cd8137fd215b	336786892	1	main_slash	11	advance_on_keypress_SLASH	114	stimuli_target_squarediamonds.svg	stimuli_distractor_diamondtriangles.svg	8	yes	57	0	116
6.6.1	win	2022-12-14	13:52:10	14:00:25	493281	631c790a9061cd8137fd215b	336786892	1	main_slash	11	main_slash	115	stimuli_target_diamondsquares.svg	stimuli_distractor_diamondtriangles.svg	24	yes	53	1	407
6.6.1	win	2022-12-14	13:52:10	14:00:25	493281	631c790a9061cd8137fd215b	336786892	1	main_slash	11	advance_on_keypress_SLASH	116	stimuli_target_diamondsquares.svg	stimuli_distractor_diamondtriangles.svg	24	yes	57	0	136
6.6.1	win	2022-12-14	13:52:10	14:00:26	494516	631c790a9061cd8137fd215b	336786892	1	main_slash	11	main_slash	117	stimuli_distractor_diamondtriangles.svg	stimuli_target_squarediamonds.svg	16	yes	53	1	463
6.6.1	win	2022-12-14	13:52:10	14:00:26	494516	631c790a9061cd8137fd215b	336786892	1	main_slash	11	advance_on_keypress_SLASH	118	stimuli_distractor_diamondtriangles.svg	stimuli_target_squarediamonds.svg	16	yes	57	0	134
6.6.1	win	2022-12-14	13:52:10	14:00:27	495732	631c790a9061cd8137fd215b	336786892	1	main_slash	11	main_slash	119	stimuli_distractor_diamondtriangles.svg	stimuli_target_diamondcircles.svg	31	yes	53	1	429
6.6.1	win	2022-12-14	13:52:10	14:00:27	495732	631c790a9061cd8137fd215b	336786892	1	main_slash	11	advance_on_keypress_SLASH	120	stimuli_distractor_diamondtriangles.svg	stimuli_target_diamondcircles.svg	31	yes	57	0	166
6.6.1	win	2022-12-14	13:52:10	14:00:28	497046	631c790a9061cd8137fd215b	336786892	1	main_slash	11	main_slash	121	stimuli_distractor_trianglediamonds.svg	stimuli_target_trianglesquares.svg	26	yes	53	1	492
6.6.1	win	2022-12-14	13:52:10	14:00:28	497046	631c790a9061cd8137fd215b	336786892	1	main_slash	11	advance_on_keypress_SLASH	122	stimuli_distractor_trianglediamonds.svg	stimuli_target_trianglesquares.svg	26	yes	57	0	169
6.6.1	win	2022-12-14	13:52:10	14:00:30	498410	631c790a9061cd8137fd215b	336786892	1	main_slash	11	main_slash	123	stimuli_target_diamondsquares.svg	stimuli_distractor_trianglediamonds.svg	20	yes	53	1	535
6.6.1	win	2022-12-14	13:52:10	14:00:30	498410	631c790a9061cd8137fd215b	336786892	1	main_slash	11	advance_on_keypress_SLASH	124	stimuli_target_diamondsquares.svg	stimuli_distractor_trianglediamonds.svg	20	yes	57	0	129
6.6.1	win	2022-12-14	13:52:10	14:00:31	499678	631c790a9061cd8137fd215b	336786892	1	main_slash	11	main_slash	125	stimuli_target_trianglesquares.svg	stimuli_distractor_trianglediamonds.svg	18	yes	53	1	492
6.6.1	win	2022-12-14	13:52:10	14:00:31	499678	631c790a9061cd8137fd215b	336786892	1	main_slash	11	advance_on_keypress_SLASH	126	stimuli_target_trianglesquares.svg	stimuli_distractor_trianglediamonds.svg	18	yes	57	0	150
6.6.1	win	2022-12-14	13:52:10	14:00:32	500989	631c790a9061cd8137fd215b	336786892	1	main_slash	11	main_slash	127	stimuli_target_diamondcircles.svg	stimuli_distractor_trianglediamonds.svg	19	yes	53	1	507
6.6.1	win	2022-12-14	13:52:10	14:00:32	500989	631c790a9061cd8137fd215b	336786892	1	main_slash	11	advance_on_keypress_SLASH	128	stimuli_target_diamondcircles.svg	stimuli_distractor_trianglediamonds.svg	19	yes	57	0	148
6.6.1	win	2022-12-14	13:52:10	14:00:35	503790	631c790a9061cd8137fd215b	336786892	1	main_slash	11	main_slash	129	stimuli_distractor_trianglediamonds.svg	stimuli_distractor_trianglediamonds.svg	33	no	0	1	2000
6.6.1	win	2022-12-14	13:52:10	14:00:35	503790	631c790a9061cd8137fd215b	336786892	1	main_slash	11	advance_on_keypress_SLASH	130	stimuli_distractor_trianglediamonds.svg	stimuli_distractor_trianglediamonds.svg	33	no	57	0	769
6.6.1	win	2022-12-14	13:52:10	14:00:37	505693	631c790a9061cd8137fd215b	336786892	1	main_slash	11	main_slash	131	stimuli_distractor_diamondtriangles.svg	stimuli_target_trianglesquares.svg	30	yes	53	1	491
6.6.1	win	2022-12-14	13:52:10	14:00:37	505693	631c790a9061cd8137fd215b	336786892	1	main_slash	11	advance_on_keypress_SLASH	132	stimuli_distractor_diamondtriangles.svg	stimuli_target_trianglesquares.svg	30	yes	57	0	165
6.6.1	win	2022-12-14	13:52:10	14:00:38	507071	631c790a9061cd8137fd215b	336786892	1	main_slash	11	main_slash	133	stimuli_distractor_diamondtriangles.svg	stimuli_target_squaretriangles.svg	15	yes	53	1	542
6.6.1	win	2022-12-14	13:52:10	14:00:38	507071	631c790a9061cd8137fd215b	336786892	1	main_slash	11	advance_on_keypress_SLASH	134	stimuli_distractor_diamondtriangles.svg	stimuli_target_squaretriangles.svg	15	yes	57	0	224
6.6.1	win	2022-12-14	13:52:10	14:00:40	508375	631c790a9061cd8137fd215b	336786892	1	main_slash	11	main_slash	135	stimuli_distractor_diamondtriangles.svg	stimuli_target_circletriangles.svg	13	yes	53	1	420
6.6.1	win	2022-12-14	13:52:10	14:00:40	508375	631c790a9061cd8137fd215b	336786892	1	main_slash	11	advance_on_keypress_SLASH	136	stimuli_distractor_diamondtriangles.svg	stimuli_target_circletriangles.svg	13	yes	57	0	155
6.6.1	win	2022-12-14	13:52:10	14:00:43	511169	631c790a9061cd8137fd215b	336786892	1	main_slash	11	main_slash	137	stimuli_distractor_diamondtriangles.svg	stimuli_distractor_trianglediamonds.svg	38	no	0	1	2000
6.6.1	win	2022-12-14	13:52:10	14:00:43	511169	631c790a9061cd8137fd215b	336786892	1	main_slash	11	advance_on_keypress_SLASH	138	stimuli_distractor_diamondtriangles.svg	stimuli_distractor_trianglediamonds.svg	38	no	57	0	386
6.6.1	win	2022-12-14	13:52:10	14:00:44	512662	631c790a9061cd8137fd215b	336786892	1	main_slash	11	main_slash	139	stimuli_distractor_diamondtriangles.svg	stimuli_target_trianglecircles.svg	29	yes	53	1	460
6.6.1	win	2022-12-14	13:52:10	14:00:44	512662	631c790a9061cd8137fd215b	336786892	1	main_slash	11	advance_on_keypress_SLASH	140	stimuli_distractor_diamondtriangles.svg	stimuli_target_trianglecircles.svg	29	yes	57	0	167
6.6.1	win	2022-12-14	13:52:10	14:00:45	514113	631c790a9061cd8137fd215b	336786892	1	main_slash	11	main_slash	141	stimuli_distractor_trianglediamonds.svg	stimuli_target_circletriangles.svg	9	yes	53	1	633
6.6.1	win	2022-12-14	13:52:10	14:00:45	514113	631c790a9061cd8137fd215b	336786892	1	main_slash	11	advance_on_keypress_SLASH	142	stimuli_distractor_trianglediamonds.svg	stimuli_target_circletriangles.svg	9	yes	57	0	214
6.6.1	win	2022-12-14	13:52:10	14:00:48	516969	631c790a9061cd8137fd215b	336786892	1	main_slash	11	main_slash	143	stimuli_distractor_diamondtriangles.svg	stimuli_distractor_diamondtriangles.svg	40	no	0	1	2000
6.6.1	win	2022-12-14	13:52:10	14:00:48	516969	631c790a9061cd8137fd215b	336786892	1	main_slash	11	advance_on_keypress_SLASH	144	stimuli_distractor_diamondtriangles.svg	stimuli_distractor_diamondtriangles.svg	40	no	57	0	323
6.6.1	win	2022-12-14	13:52:10	14:00:51	519941	631c790a9061cd8137fd215b	336786892	1	main_slash	11	main_slash	145	stimuli_distractor_trianglediamonds.svg	stimuli_distractor_diamondtriangles.svg	35	no	0	1	2000
6.6.1	win	2022-12-14	13:52:10	14:00:51	519941	631c790a9061cd8137fd215b	336786892	1	main_slash	11	advance_on_keypress_SLASH	146	stimuli_distractor_trianglediamonds.svg	stimuli_distractor_diamondtriangles.svg	35	no	57	0	318
6.6.1	win	2022-12-14	13:52:10	14:00:53	521382	631c790a9061cd8137fd215b	336786892	1	main_slash	11	main_slash	147	stimuli_distractor_trianglediamonds.svg	stimuli_target_squaretriangles.svg	11	yes	53	1	462
6.6.1	win	2022-12-14	13:52:10	14:00:53	521382	631c790a9061cd8137fd215b	336786892	1	main_slash	11	advance_on_keypress_SLASH	148	stimuli_distractor_trianglediamonds.svg	stimuli_target_squaretriangles.svg	11	yes	57	0	180
6.6.1	win	2022-12-14	13:52:10	14:00:56	524197	631c790a9061cd8137fd215b	336786892	1	main_slash	11	main_slash	149	stimuli_distractor_trianglediamonds.svg	stimuli_distractor_trianglediamonds.svg	34	no	0	1	2000
6.6.1	win	2022-12-14	13:52:10	14:00:56	524197	631c790a9061cd8137fd215b	336786892	1	main_slash	11	advance_on_keypress_SLASH	150	stimuli_distractor_trianglediamonds.svg	stimuli_distractor_trianglediamonds.svg	34	no	57	0	340
6.6.1	win	2022-12-14	13:52:10	14:00:57	525725	631c790a9061cd8137fd215b	336786892	1	main_slash	11	main_slash	151	stimuli_target_circletriangles.svg	stimuli_distractor_diamondtriangles.svg	5	yes	53	1	541
6.6.1	win	2022-12-14	13:52:10	14:00:57	525725	631c790a9061cd8137fd215b	336786892	1	main_slash	11	advance_on_keypress_SLASH	152	stimuli_target_circletriangles.svg	stimuli_distractor_diamondtriangles.svg	5	yes	57	0	191
6.6.1	win	2022-12-14	13:52:10	14:00:58	527133	631c790a9061cd8137fd215b	336786892	1	main_slash	11	main_slash	153	stimuli_target_trianglesquares.svg	stimuli_distractor_diamondtriangles.svg	22	yes	53	1	565
6.6.1	win	2022-12-14	13:52:10	14:00:58	527133	631c790a9061cd8137fd215b	336786892	1	main_slash	11	advance_on_keypress_SLASH	154	stimuli_target_trianglesquares.svg	stimuli_distractor_diamondtriangles.svg	22	yes	57	0	213
6.6.1	win	2022-12-14	13:52:10	14:01:00	528446	631c790a9061cd8137fd215b	336786892	1	main_slash	11	main_slash	155	stimuli_distractor_diamondtriangles.svg	stimuli_target_diamondsquares.svg	32	yes	53	1	460
6.6.1	win	2022-12-14	13:52:10	14:01:00	528446	631c790a9061cd8137fd215b	336786892	1	main_slash	11	advance_on_keypress_SLASH	156	stimuli_distractor_diamondtriangles.svg	stimuli_target_diamondsquares.svg	32	yes	57	0	185
6.6.1	win	2022-12-14	13:52:10	14:01:03	531268	631c790a9061cd8137fd215b	336786892	1	main_slash	11	main_slash	157	stimuli_distractor_trianglediamonds.svg	stimuli_distractor_diamondtriangles.svg	36	no	0	1	2000
6.6.1	win	2022-12-14	13:52:10	14:01:03	531268	631c790a9061cd8137fd215b	336786892	1	main_slash	11	advance_on_keypress_SLASH	158	stimuli_distractor_trianglediamonds.svg	stimuli_distractor_diamondtriangles.svg	36	no	57	0	433
6.6.1	win	2022-12-14	13:52:10	14:01:04	532900	631c790a9061cd8137fd215b	336786892	1	main_slash	11	main_slash	159	stimuli_distractor_trianglediamonds.svg	stimuli_target_circlediamonds.svg	10	yes	53	1	548
6.6.1	win	2022-12-14	13:52:10	14:01:04	532900	631c790a9061cd8137fd215b	336786892	1	main_slash	11	advance_on_keypress_SLASH	160	stimuli_distractor_trianglediamonds.svg	stimuli_target_circlediamonds.svg	10	yes	57	0	165