build	computer.platform	date	time	timestamp	time_elapsed_ms	subject	group	session	blockcode	blocknum	trialcode	trialnum	stimulus_left	stimulus_right	stim_index	target_present	response	correct	latency
6.6.1	win	2022-12-26	22:09:12	22:12:08	171401	62b083f9ca87faa7a75c0235	177511403	1	practice_slash	5	practice_slash	1	stimuli_target_diamondsquares.svg	stimuli_distractor_trianglediamonds.svg	6	yes	0	0	2000
6.6.1	win	2022-12-26	22:09:12	22:12:08	171401	62b083f9ca87faa7a75c0235	177511403	1	practice_slash	5	advance_on_keypress_SLASH	2	stimuli_target_diamondsquares.svg	stimuli_distractor_trianglediamonds.svg	6	yes	57	0	2424
6.6.1	win	2022-12-26	22:09:12	22:12:13	176551	62b083f9ca87faa7a75c0235	177511403	1	practice_slash	5	practice_slash	3	stimuli_distractor_diamondtriangles.svg	stimuli_target_diamondcircles.svg	8	yes	53	1	999
6.6.1	win	2022-12-26	22:09:12	22:12:13	176551	62b083f9ca87faa7a75c0235	177511403	1	practice_slash	5	advance_on_keypress_SLASH	4	stimuli_distractor_diamondtriangles.svg	stimuli_target_diamondcircles.svg	8	yes	57	0	1786
6.6.1	win	2022-12-26	22:09:12	22:12:19	182084	62b083f9ca87faa7a75c0235	177511403	1	practice_slash	5	practice_slash	5	stimuli_target_squarediamonds.svg	stimuli_distractor_trianglediamonds.svg	5	yes	0	0	2000
6.6.1	win	2022-12-26	22:09:12	22:12:19	182084	62b083f9ca87faa7a75c0235	177511403	1	practice_slash	5	advance_on_keypress_SLASH	6	stimuli_target_squarediamonds.svg	stimuli_distractor_trianglediamonds.svg	5	yes	57	0	872
6.6.1	win	2022-12-26	22:09:12	22:12:22	185582	62b083f9ca87faa7a75c0235	177511403	1	practice_slash	5	practice_slash	7	stimuli_target_circlediamonds.svg	stimuli_distractor_diamondtriangles.svg	1	yes	53	1	915
6.6.1	win	2022-12-26	22:09:12	22:12:22	185582	62b083f9ca87faa7a75c0235	177511403	1	practice_slash	5	advance_on_keypress_SLASH	8	stimuli_target_circlediamonds.svg	stimuli_distractor_diamondtriangles.svg	1	yes	57	0	837
6.6.1	win	2022-12-26	22:09:12	22:12:27	190117	62b083f9ca87faa7a75c0235	177511403	1	practice_slash	5	practice_slash	9	stimuli_distractor_diamondtriangles.svg	stimuli_distractor_diamondtriangles.svg	13	no	0	1	2000
6.6.1	win	2022-12-26	22:09:12	22:12:27	190117	62b083f9ca87faa7a75c0235	177511403	1	practice_slash	5	advance_on_keypress_SLASH	10	stimuli_distractor_diamondtriangles.svg	stimuli_distractor_diamondtriangles.svg	13	no	57	0	844
6.6.1	win	2022-12-26	22:09:12	22:12:31	194700	62b083f9ca87faa7a75c0235	177511403	1	practice_slash	5	practice_slash	11	stimuli_distractor_diamondtriangles.svg	stimuli_distractor_trianglediamonds.svg	14	no	0	1	2000
6.6.1	win	2022-12-26	22:09:12	22:12:31	194700	62b083f9ca87faa7a75c0235	177511403	1	practice_slash	5	advance_on_keypress_SLASH	12	stimuli_distractor_diamondtriangles.svg	stimuli_distractor_trianglediamonds.svg	14	no	57	0	664
6.6.1	win	2022-12-26	22:09:12	22:12:35	197823	62b083f9ca87faa7a75c0235	177511403	1	practice_slash	5	practice_slash	13	stimuli_distractor_diamondtriangles.svg	stimuli_target_circletriangles.svg	7	yes	53	1	723
6.6.1	win	2022-12-26	22:09:12	22:12:35	197823	62b083f9ca87faa7a75c0235	177511403	1	practice_slash	5	advance_on_keypress_SLASH	14	stimuli_distractor_diamondtriangles.svg	stimuli_target_circletriangles.svg	7	yes	57	0	800
6.6.1	win	2022-12-26	22:09:12	22:12:38	200927	62b083f9ca87faa7a75c0235	177511403	1	practice_slash	5	practice_slash	15	stimuli_distractor_trianglediamonds.svg	stimuli_target_circlediamonds.svg	10	yes	53	1	595
6.6.1	win	2022-12-26	22:09:12	22:12:38	200927	62b083f9ca87faa7a75c0235	177511403	1	practice_slash	5	advance_on_keypress_SLASH	16	stimuli_distractor_trianglediamonds.svg	stimuli_target_circlediamonds.svg	10	yes	57	0	657
6.6.1	win	2022-12-26	22:09:12	22:12:41	203836	62b083f9ca87faa7a75c0235	177511403	1	practice_slash	5	practice_slash	17	stimuli_target_circlediamonds.svg	stimuli_distractor_trianglediamonds.svg	4	yes	53	1	537
6.6.1	win	2022-12-26	22:09:12	22:12:41	203836	62b083f9ca87faa7a75c0235	177511403	1	practice_slash	5	advance_on_keypress_SLASH	18	stimuli_target_circlediamonds.svg	stimuli_distractor_trianglediamonds.svg	4	yes	57	0	658
6.6.1	win	2022-12-26	22:09:12	22:12:45	208182	62b083f9ca87faa7a75c0235	177511403	1	practice_slash	5	practice_slash	19	stimuli_distractor_trianglediamonds.svg	stimuli_distractor_trianglediamonds.svg	15	no	0	1	2000
6.6.1	win	2022-12-26	22:09:12	22:12:45	208182	62b083f9ca87faa7a75c0235	177511403	1	practice_slash	5	advance_on_keypress_SLASH	20	stimuli_distractor_trianglediamonds.svg	stimuli_distractor_trianglediamonds.svg	15	no	57	0	874
6.6.1	win	2022-12-26	22:09:12	22:12:48	211453	62b083f9ca87faa7a75c0235	177511403	1	practice_slash	5	practice_slash	21	stimuli_target_squarediamonds.svg	stimuli_distractor_diamondtriangles.svg	2	yes	53	1	687
6.6.1	win	2022-12-26	22:09:12	22:12:48	211453	62b083f9ca87faa7a75c0235	177511403	1	practice_slash	5	advance_on_keypress_SLASH	22	stimuli_target_squarediamonds.svg	stimuli_distractor_diamondtriangles.svg	2	yes	57	0	662
6.6.1	win	2022-12-26	22:09:12	22:12:51	214360	62b083f9ca87faa7a75c0235	177511403	1	practice_slash	5	practice_slash	23	stimuli_distractor_trianglediamonds.svg	stimuli_target_diamondcircles.svg	12	yes	53	1	511
6.6.1	win	2022-12-26	22:09:12	22:12:51	214360	62b083f9ca87faa7a75c0235	177511403	1	practice_slash	5	advance_on_keypress_SLASH	24	stimuli_distractor_trianglediamonds.svg	stimuli_target_diamondcircles.svg	12	yes	57	0	595
6.6.1	win	2022-12-26	22:09:12	22:12:54	217177	62b083f9ca87faa7a75c0235	177511403	1	practice_slash	5	practice_slash	25	stimuli_distractor_trianglediamonds.svg	stimuli_target_squarediamonds.svg	11	yes	53	1	525
6.6.1	win	2022-12-26	22:09:12	22:12:54	217177	62b083f9ca87faa7a75c0235	177511403	1	practice_slash	5	advance_on_keypress_SLASH	26	stimuli_distractor_trianglediamonds.svg	stimuli_target_squarediamonds.svg	11	yes	57	0	561
6.6.1	win	2022-12-26	22:09:12	22:12:57	220172	62b083f9ca87faa7a75c0235	177511403	1	practice_slash	5	practice_slash	27	stimuli_distractor_diamondtriangles.svg	stimuli_target_trianglecircles.svg	9	yes	53	1	724
6.6.1	win	2022-12-26	22:09:12	22:12:57	220172	62b083f9ca87faa7a75c0235	177511403	1	practice_slash	5	advance_on_keypress_SLASH	28	stimuli_distractor_diamondtriangles.svg	stimuli_target_trianglecircles.svg	9	yes	57	0	481
6.6.1	win	2022-12-26	22:09:12	22:13:01	224364	62b083f9ca87faa7a75c0235	177511403	1	practice_slash	5	practice_slash	29	stimuli_distractor_trianglediamonds.svg	stimuli_distractor_diamondtriangles.svg	16	no	0	1	2000
6.6.1	win	2022-12-26	22:09:12	22:13:01	224364	62b083f9ca87faa7a75c0235	177511403	1	practice_slash	5	advance_on_keypress_SLASH	30	stimuli_distractor_trianglediamonds.svg	stimuli_distractor_diamondtriangles.svg	16	no	57	0	480
6.6.1	win	2022-12-26	22:09:12	22:13:04	227076	62b083f9ca87faa7a75c0235	177511403	1	practice_slash	5	practice_slash	31	stimuli_target_diamondsquares.svg	stimuli_distractor_diamondtriangles.svg	3	yes	53	1	521
6.6.1	win	2022-12-26	22:09:12	22:13:04	227076	62b083f9ca87faa7a75c0235	177511403	1	practice_slash	5	advance_on_keypress_SLASH	32	stimuli_target_diamondsquares.svg	stimuli_distractor_diamondtriangles.svg	3	yes	57	0	389
6.6.1	win	2022-12-26	22:09:12	22:13:16	239263	62b083f9ca87faa7a75c0235	177511403	1	main_slash	7	main_slash	1	stimuli_target_circletriangles.svg	stimuli_distractor_diamondtriangles.svg	5	yes	53	1	424
6.6.1	win	2022-12-26	22:09:12	22:13:16	239263	62b083f9ca87faa7a75c0235	177511403	1	main_slash	7	advance_on_keypress_SLASH	2	stimuli_target_circletriangles.svg	stimuli_distractor_diamondtriangles.svg	5	yes	57	0	784
6.6.1	win	2022-12-26	22:09:12	22:13:18	241090	62b083f9ca87faa7a75c0235	177511403	1	main_slash	7	main_slash	3	stimuli_target_circlediamonds.svg	stimuli_distractor_trianglediamonds.svg	2	yes	53	1	334
6.6.1	win	2022-12-26	22:09:12	22:13:18	241090	62b083f9ca87faa7a75c0235	177511403	1	main_slash	7	advance_on_keypress_SLASH	4	stimuli_target_circlediamonds.svg	stimuli_distractor_trianglediamonds.svg	2	yes	57	0	520
6.6.1	win	2022-12-26	22:09:12	22:13:21	244323	62b083f9ca87faa7a75c0235	177511403	1	main_slash	7	main_slash	5	stimuli_distractor_trianglediamonds.svg	stimuli_distractor_trianglediamonds.svg	34	no	0	1	2000
6.6.1	win	2022-12-26	22:09:12	22:13:21	244323	62b083f9ca87faa7a75c0235	177511403	1	main_slash	7	advance_on_keypress_SLASH	6	stimuli_distractor_trianglediamonds.svg	stimuli_distractor_trianglediamonds.svg	34	no	57	0	634
6.6.1	win	2022-12-26	22:09:12	22:13:23	246138	62b083f9ca87faa7a75c0235	177511403	1	main_slash	7	main_slash	7	stimuli_distractor_trianglediamonds.svg	stimuli_target_trianglesquares.svg	26	yes	53	1	482
6.6.1	win	2022-12-26	22:09:12	22:13:23	246138	62b083f9ca87faa7a75c0235	177511403	1	main_slash	7	advance_on_keypress_SLASH	8	stimuli_distractor_trianglediamonds.svg	stimuli_target_trianglesquares.svg	26	yes	57	0	794
6.6.1	win	2022-12-26	22:09:12	22:13:25	248113	62b083f9ca87faa7a75c0235	177511403	1	main_slash	7	main_slash	9	stimuli_target_squarediamonds.svg	stimuli_distractor_trianglediamonds.svg	4	yes	53	1	456
6.6.1	win	2022-12-26	22:09:12	22:13:25	248113	62b083f9ca87faa7a75c0235	177511403	1	main_slash	7	advance_on_keypress_SLASH	10	stimuli_target_squarediamonds.svg	stimuli_distractor_trianglediamonds.svg	4	yes	57	0	472
6.6.1	win	2022-12-26	22:09:12	22:13:26	249790	62b083f9ca87faa7a75c0235	177511403	1	main_slash	7	main_slash	11	stimuli_target_squarediamonds.svg	stimuli_distractor_diamondtriangles.svg	8	yes	53	1	499
6.6.1	win	2022-12-26	22:09:12	22:13:26	249790	62b083f9ca87faa7a75c0235	177511403	1	main_slash	7	advance_on_keypress_SLASH	12	stimuli_target_squarediamonds.svg	stimuli_distractor_diamondtriangles.svg	8	yes	57	0	454
6.6.1	win	2022-12-26	22:09:12	22:13:28	251355	62b083f9ca87faa7a75c0235	177511403	1	main_slash	7	main_slash	13	stimuli_target_circlediamonds.svg	stimuli_distractor_diamondtriangles.svg	6	yes	53	1	415
6.6.1	win	2022-12-26	22:09:12	22:13:28	251355	62b083f9ca87faa7a75c0235	177511403	1	main_slash	7	advance_on_keypress_SLASH	14	stimuli_target_circlediamonds.svg	stimuli_distractor_diamondtriangles.svg	6	yes	57	0	433
6.6.1	win	2022-12-26	22:09:12	22:13:30	252925	62b083f9ca87faa7a75c0235	177511403	1	main_slash	7	main_slash	15	stimuli_distractor_diamondtriangles.svg	stimuli_target_circletriangles.svg	13	yes	53	1	419
6.6.1	win	2022-12-26	22:09:12	22:13:30	252925	62b083f9ca87faa7a75c0235	177511403	1	main_slash	7	advance_on_keypress_SLASH	16	stimuli_distractor_diamondtriangles.svg	stimuli_target_circletriangles.svg	13	yes	57	0	596
6.6.1	win	2022-12-26	22:09:12	22:13:31	254617	62b083f9ca87faa7a75c0235	177511403	1	main_slash	7	main_slash	17	stimuli_distractor_trianglediamonds.svg	stimuli_target_squaretriangles.svg	11	yes	53	1	387
6.6.1	win	2022-12-26	22:09:12	22:13:31	254617	62b083f9ca87faa7a75c0235	177511403	1	main_slash	7	advance_on_keypress_SLASH	18	stimuli_distractor_trianglediamonds.svg	stimuli_target_squaretriangles.svg	11	yes	57	0	360
6.6.1	win	2022-12-26	22:09:12	22:13:34	257689	62b083f9ca87faa7a75c0235	177511403	1	main_slash	7	main_slash	19	stimuli_distractor_trianglediamonds.svg	stimuli_target_diamondsquares.svg	28	yes	0	0	2000
6.6.1	win	2022-12-26	22:09:12	22:13:34	257689	62b083f9ca87faa7a75c0235	177511403	1	main_slash	7	advance_on_keypress_SLASH	20	stimuli_distractor_trianglediamonds.svg	stimuli_target_diamondsquares.svg	28	yes	57	0	658
6.6.1	win	2022-12-26	22:09:12	22:13:36	259739	62b083f9ca87faa7a75c0235	177511403	1	main_slash	7	main_slash	21	stimuli_distractor_diamondtriangles.svg	stimuli_target_diamondsquares.svg	32	yes	53	1	683
6.6.1	win	2022-12-26	22:09:12	22:13:36	259739	62b083f9ca87faa7a75c0235	177511403	1	main_slash	7	advance_on_keypress_SLASH	22	stimuli_distractor_diamondtriangles.svg	stimuli_target_diamondsquares.svg	32	yes	57	0	686
6.6.1	win	2022-12-26	22:09:12	22:13:38	261767	62b083f9ca87faa7a75c0235	177511403	1	main_slash	7	main_slash	23	stimuli_target_trianglecircles.svg	stimuli_distractor_diamondtriangles.svg	21	yes	53	1	646
6.6.1	win	2022-12-26	22:09:12	22:13:38	261767	62b083f9ca87faa7a75c0235	177511403	1	main_slash	7	advance_on_keypress_SLASH	24	stimuli_target_trianglecircles.svg	stimuli_distractor_diamondtriangles.svg	21	yes	57	0	945
6.6.1	win	2022-12-26	22:09:12	22:13:41	264116	62b083f9ca87faa7a75c0235	177511403	1	main_slash	7	main_slash	25	stimuli_distractor_diamondtriangles.svg	stimuli_target_trianglesquares.svg	30	yes	53	1	711
6.6.1	win	2022-12-26	22:09:12	22:13:41	264116	62b083f9ca87faa7a75c0235	177511403	1	main_slash	7	advance_on_keypress_SLASH	26	stimuli_distractor_diamondtriangles.svg	stimuli_target_trianglesquares.svg	30	yes	57	0	657
6.6.1	win	2022-12-26	22:09:12	22:13:44	267472	62b083f9ca87faa7a75c0235	177511403	1	main_slash	7	main_slash	27	stimuli_distractor_diamondtriangles.svg	stimuli_distractor_diamondtriangles.svg	40	no	0	1	2000
6.6.1	win	2022-12-26	22:09:12	22:13:44	267472	62b083f9ca87faa7a75c0235	177511403	1	main_slash	7	advance_on_keypress_SLASH	28	stimuli_distractor_diamondtriangles.svg	stimuli_distractor_diamondtriangles.svg	40	no	57	0	315
6.6.1	win	2022-12-26	22:09:12	22:13:47	270488	62b083f9ca87faa7a75c0235	177511403	1	main_slash	7	main_slash	29	stimuli_distractor_diamondtriangles.svg	stimuli_distractor_trianglediamonds.svg	37	no	0	1	2000
6.6.1	win	2022-12-26	22:09:12	22:13:47	270488	62b083f9ca87faa7a75c0235	177511403	1	main_slash	7	advance_on_keypress_SLASH	30	stimuli_distractor_diamondtriangles.svg	stimuli_distractor_trianglediamonds.svg	37	no	57	0	324
6.6.1	win	2022-12-26	22:09:12	22:13:49	271900	62b083f9ca87faa7a75c0235	177511403	1	main_slash	7	main_slash	31	stimuli_distractor_trianglediamonds.svg	stimuli_target_trianglecircles.svg	25	yes	53	1	394
6.6.1	win	2022-12-26	22:09:12	22:13:49	271900	62b083f9ca87faa7a75c0235	177511403	1	main_slash	7	advance_on_keypress_SLASH	32	stimuli_distractor_trianglediamonds.svg	stimuli_target_trianglecircles.svg	25	yes	57	0	484
6.6.1	win	2022-12-26	22:09:12	22:13:50	273783	62b083f9ca87faa7a75c0235	177511403	1	main_slash	7	main_slash	33	stimuli_target_squaretriangles.svg	stimuli_distractor_trianglediamonds.svg	3	yes	53	1	695
6.6.1	win	2022-12-26	22:09:12	22:13:50	273783	62b083f9ca87faa7a75c0235	177511403	1	main_slash	7	advance_on_keypress_SLASH	34	stimuli_target_squaretriangles.svg	stimuli_distractor_trianglediamonds.svg	3	yes	57	0	449
6.6.1	win	2022-12-26	22:09:12	22:13:52	275485	62b083f9ca87faa7a75c0235	177511403	1	main_slash	7	main_slash	35	stimuli_distractor_diamondtriangles.svg	stimuli_target_circlediamonds.svg	14	yes	53	1	546
6.6.1	win	2022-12-26	22:09:12	22:13:52	275485	62b083f9ca87faa7a75c0235	177511403	1	main_slash	7	advance_on_keypress_SLASH	36	stimuli_distractor_diamondtriangles.svg	stimuli_target_circlediamonds.svg	14	yes	57	0	426
6.6.1	win	2022-12-26	22:09:12	22:13:54	277039	62b083f9ca87faa7a75c0235	177511403	1	main_slash	7	main_slash	37	stimuli_target_circletriangles.svg	stimuli_distractor_trianglediamonds.svg	1	yes	53	1	401
6.6.1	win	2022-12-26	22:09:12	22:13:54	277039	62b083f9ca87faa7a75c0235	177511403	1	main_slash	7	advance_on_keypress_SLASH	38	stimuli_target_circletriangles.svg	stimuli_distractor_trianglediamonds.svg	1	yes	57	0	406
6.6.1	win	2022-12-26	22:09:12	22:13:55	278563	62b083f9ca87faa7a75c0235	177511403	1	main_slash	7	main_slash	39	stimuli_distractor_diamondtriangles.svg	stimuli_target_trianglecircles.svg	29	yes	53	1	426
6.6.1	win	2022-12-26	22:09:12	22:13:55	278563	62b083f9ca87faa7a75c0235	177511403	1	main_slash	7	advance_on_keypress_SLASH	40	stimuli_distractor_diamondtriangles.svg	stimuli_target_trianglecircles.svg	29	yes	57	0	422
6.6.1	win	2022-12-26	22:09:12	22:13:57	280289	62b083f9ca87faa7a75c0235	177511403	1	main_slash	7	main_slash	41	stimuli_target_trianglesquares.svg	stimuli_distractor_trianglediamonds.svg	18	yes	53	1	585
6.6.1	win	2022-12-26	22:09:12	22:13:57	280289	62b083f9ca87faa7a75c0235	177511403	1	main_slash	7	advance_on_keypress_SLASH	42	stimuli_target_trianglesquares.svg	stimuli_distractor_trianglediamonds.svg	18	yes	57	0	420
6.6.1	win	2022-12-26	22:09:12	22:13:59	281964	62b083f9ca87faa7a75c0235	177511403	1	main_slash	7	main_slash	43	stimuli_distractor_diamondtriangles.svg	stimuli_target_squaretriangles.svg	15	yes	53	1	542
6.6.1	win	2022-12-26	22:09:12	22:13:59	281964	62b083f9ca87faa7a75c0235	177511403	1	main_slash	7	advance_on_keypress_SLASH	44	stimuli_distractor_diamondtriangles.svg	stimuli_target_squaretriangles.svg	15	yes	57	0	350
6.6.1	win	2022-12-26	22:09:12	22:14:00	283694	62b083f9ca87faa7a75c0235	177511403	1	main_slash	7	main_slash	45	stimuli_distractor_diamondtriangles.svg	stimuli_target_diamondcircles.svg	31	yes	53	1	674
6.6.1	win	2022-12-26	22:09:12	22:14:00	283694	62b083f9ca87faa7a75c0235	177511403	1	main_slash	7	advance_on_keypress_SLASH	46	stimuli_distractor_diamondtriangles.svg	stimuli_target_diamondcircles.svg	31	yes	57	0	431
6.6.1	win	2022-12-26	22:09:12	22:14:02	285462	62b083f9ca87faa7a75c0235	177511403	1	main_slash	7	main_slash	47	stimuli_distractor_diamondtriangles.svg	stimuli_target_squarediamonds.svg	16	yes	53	1	642
6.6.1	win	2022-12-26	22:09:12	22:14:02	285462	62b083f9ca87faa7a75c0235	177511403	1	main_slash	7	advance_on_keypress_SLASH	48	stimuli_distractor_diamondtriangles.svg	stimuli_target_squarediamonds.svg	16	yes	57	0	413
6.6.1	win	2022-12-26	22:09:12	22:14:05	288587	62b083f9ca87faa7a75c0235	177511403	1	main_slash	7	main_slash	49	stimuli_distractor_diamondtriangles.svg	stimuli_distractor_trianglediamonds.svg	38	no	0	1	2000
6.6.1	win	2022-12-26	22:09:12	22:14:05	288587	62b083f9ca87faa7a75c0235	177511403	1	main_slash	7	advance_on_keypress_SLASH	50	stimuli_distractor_diamondtriangles.svg	stimuli_distractor_trianglediamonds.svg	38	no	57	0	767
6.6.1	win	2022-12-26	22:09:12	22:14:09	292053	62b083f9ca87faa7a75c0235	177511403	1	main_slash	7	main_slash	51	stimuli_distractor_trianglediamonds.svg	stimuli_distractor_trianglediamonds.svg	33	no	0	1	2000
6.6.1	win	2022-12-26	22:09:12	22:14:09	292053	62b083f9ca87faa7a75c0235	177511403	1	main_slash	7	advance_on_keypress_SLASH	52	stimuli_distractor_trianglediamonds.svg	stimuli_distractor_trianglediamonds.svg	33	no	57	0	594
6.6.1	win	2022-12-26	22:09:12	22:14:10	293734	62b083f9ca87faa7a75c0235	177511403	1	main_slash	7	main_slash	53	stimuli_target_diamondsquares.svg	stimuli_distractor_trianglediamonds.svg	20	yes	53	1	396
6.6.1	win	2022-12-26	22:09:12	22:14:10	293734	62b083f9ca87faa7a75c0235	177511403	1	main_slash	7	advance_on_keypress_SLASH	54	stimuli_target_diamondsquares.svg	stimuli_distractor_trianglediamonds.svg	20	yes	57	0	449
6.6.1	win	2022-12-26	22:09:12	22:14:14	296887	62b083f9ca87faa7a75c0235	177511403	1	main_slash	7	main_slash	55	stimuli_distractor_diamondtriangles.svg	stimuli_distractor_diamondtriangles.svg	39	no	0	1	2000
6.6.1	win	2022-12-26	22:09:12	22:14:14	296887	62b083f9ca87faa7a75c0235	177511403	1	main_slash	7	advance_on_keypress_SLASH	56	stimuli_distractor_diamondtriangles.svg	stimuli_distractor_diamondtriangles.svg	39	no	57	0	532
6.6.1	win	2022-12-26	22:09:12	22:14:15	298515	62b083f9ca87faa7a75c0235	177511403	1	main_slash	7	main_slash	57	stimuli_distractor_trianglediamonds.svg	stimuli_target_circlediamonds.svg	10	yes	53	1	375
6.6.1	win	2022-12-26	22:09:12	22:14:15	298515	62b083f9ca87faa7a75c0235	177511403	1	main_slash	7	advance_on_keypress_SLASH	58	stimuli_distractor_trianglediamonds.svg	stimuli_target_circlediamonds.svg	10	yes	57	0	404
6.6.1	win	2022-12-26	22:09:12	22:14:17	300400	62b083f9ca87faa7a75c0235	177511403	1	main_slash	7	main_slash	59	stimuli_distractor_trianglediamonds.svg	stimuli_distractor_diamondtriangles.svg	35	no	53	0	779
6.6.1	win	2022-12-26	22:09:12	22:14:17	300400	62b083f9ca87faa7a75c0235	177511403	1	main_slash	7	advance_on_keypress_SLASH	60	stimuli_distractor_trianglediamonds.svg	stimuli_distractor_diamondtriangles.svg	35	no	57	0	349
6.6.1	win	2022-12-26	22:09:12	22:14:20	303453	62b083f9ca87faa7a75c0235	177511403	1	main_slash	7	main_slash	61	stimuli_distractor_trianglediamonds.svg	stimuli_distractor_diamondtriangles.svg	36	no	0	1	2000
6.6.1	win	2022-12-26	22:09:12	22:14:20	303453	62b083f9ca87faa7a75c0235	177511403	1	main_slash	7	advance_on_keypress_SLASH	62	stimuli_distractor_trianglediamonds.svg	stimuli_distractor_diamondtriangles.svg	36	no	57	0	427
6.6.1	win	2022-12-26	22:09:12	22:14:22	305117	62b083f9ca87faa7a75c0235	177511403	1	main_slash	7	main_slash	63	stimuli_distractor_trianglediamonds.svg	stimuli_target_squarediamonds.svg	12	yes	53	1	529
6.6.1	win	2022-12-26	22:09:12	22:14:22	305117	62b083f9ca87faa7a75c0235	177511403	1	main_slash	7	advance_on_keypress_SLASH	64	stimuli_distractor_trianglediamonds.svg	stimuli_target_squarediamonds.svg	12	yes	57	0	354
6.6.1	win	2022-12-26	22:09:12	22:14:23	306532	62b083f9ca87faa7a75c0235	177511403	1	main_slash	7	main_slash	65	stimuli_target_squaretriangles.svg	stimuli_distractor_diamondtriangles.svg	7	yes	53	1	391
6.6.1	win	2022-12-26	22:09:12	22:14:23	306532	62b083f9ca87faa7a75c0235	177511403	1	main_slash	7	advance_on_keypress_SLASH	66	stimuli_target_squaretriangles.svg	stimuli_distractor_diamondtriangles.svg	7	yes	57	0	225
6.6.1	win	2022-12-26	22:09:12	22:14:25	307913	62b083f9ca87faa7a75c0235	177511403	1	main_slash	7	main_slash	67	stimuli_target_diamondsquares.svg	stimuli_distractor_diamondtriangles.svg	24	yes	53	1	444
6.6.1	win	2022-12-26	22:09:12	22:14:25	307913	62b083f9ca87faa7a75c0235	177511403	1	main_slash	7	advance_on_keypress_SLASH	68	stimuli_target_diamondsquares.svg	stimuli_distractor_diamondtriangles.svg	24	yes	57	0	425
6.6.1	win	2022-12-26	22:09:12	22:14:26	309454	62b083f9ca87faa7a75c0235	177511403	1	main_slash	7	main_slash	69	stimuli_target_diamondcircles.svg	stimuli_distractor_trianglediamonds.svg	19	yes	53	1	434
6.6.1	win	2022-12-26	22:09:12	22:14:26	309454	62b083f9ca87faa7a75c0235	177511403	1	main_slash	7	advance_on_keypress_SLASH	70	stimuli_target_diamondcircles.svg	stimuli_distractor_trianglediamonds.svg	19	yes	57	0	196
6.6.1	win	2022-12-26	22:09:12	22:14:28	311173	62b083f9ca87faa7a75c0235	177511403	1	main_slash	7	main_slash	71	stimuli_target_trianglesquares.svg	stimuli_distractor_diamondtriangles.svg	22	yes	53	1	803
6.6.1	win	2022-12-26	22:09:12	22:14:28	311173	62b083f9ca87faa7a75c0235	177511403	1	main_slash	7	advance_on_keypress_SLASH	72	stimuli_target_trianglesquares.svg	stimuli_distractor_diamondtriangles.svg	22	yes	57	0	288
6.6.1	win	2022-12-26	22:09:12	22:14:29	312618	62b083f9ca87faa7a75c0235	177511403	1	main_slash	7	main_slash	73	stimuli_target_trianglecircles.svg	stimuli_distractor_trianglediamonds.svg	17	yes	53	1	448
6.6.1	win	2022-12-26	22:09:12	22:14:29	312618	62b083f9ca87faa7a75c0235	177511403	1	main_slash	7	advance_on_keypress_SLASH	74	stimuli_target_trianglecircles.svg	stimuli_distractor_trianglediamonds.svg	17	yes	57	0	193
6.6.1	win	2022-12-26	22:09:12	22:14:31	313930	62b083f9ca87faa7a75c0235	177511403	1	main_slash	7	main_slash	75	stimuli_distractor_trianglediamonds.svg	stimuli_target_diamondcircles.svg	27	yes	53	1	384
6.6.1	win	2022-12-26	22:09:12	22:14:31	313930	62b083f9ca87faa7a75c0235	177511403	1	main_slash	7	advance_on_keypress_SLASH	76	stimuli_distractor_trianglediamonds.svg	stimuli_target_diamondcircles.svg	27	yes	57	0	305
6.6.1	win	2022-12-26	22:09:12	22:14:32	315421	62b083f9ca87faa7a75c0235	177511403	1	main_slash	7	main_slash	77	stimuli_target_diamondcircles.svg	stimuli_distractor_diamondtriangles.svg	23	yes	53	1	469
6.6.1	win	2022-12-26	22:09:12	22:14:32	315421	62b083f9ca87faa7a75c0235	177511403	1	main_slash	7	advance_on_keypress_SLASH	78	stimuli_target_diamondcircles.svg	stimuli_distractor_diamondtriangles.svg	23	yes	57	0	205
6.6.1	win	2022-12-26	22:09:12	22:14:35	318335	62b083f9ca87faa7a75c0235	177511403	1	main_slash	7	main_slash	79	stimuli_distractor_trianglediamonds.svg	stimuli_target_circletriangles.svg	9	yes	0	0	2000
6.6.1	win	2022-12-26	22:09:12	22:14:35	318335	62b083f9ca87faa7a75c0235	177511403	1	main_slash	7	advance_on_keypress_SLASH	80	stimuli_distractor_trianglediamonds.svg	stimuli_target_circletriangles.svg	9	yes	57	0	666
6.6.1	win	2022-12-26	22:09:12	22:14:38	321702	62b083f9ca87faa7a75c0235	177511403	1	main_slash	7	main_slash	81	stimuli_distractor_diamondtriangles.svg	stimuli_target_squarediamonds.svg	16	yes	0	0	2000
6.6.1	win	2022-12-26	22:09:12	22:14:38	321702	62b083f9ca87faa7a75c0235	177511403	1	main_slash	7	advance_on_keypress_SLASH	82	stimuli_distractor_diamondtriangles.svg	stimuli_target_squarediamonds.svg	16	yes	57	0	472
6.6.1	win	2022-12-26	22:09:12	22:14:40	323494	62b083f9ca87faa7a75c0235	177511403	1	main_slash	7	main_slash	83	stimuli_target_diamondcircles.svg	stimuli_distractor_diamondtriangles.svg	23	yes	53	1	609
6.6.1	win	2022-12-26	22:09:12	22:14:40	323494	62b083f9ca87faa7a75c0235	177511403	1	main_slash	7	advance_on_keypress_SLASH	84	stimuli_target_diamondcircles.svg	stimuli_distractor_diamondtriangles.svg	23	yes	57	0	314
6.6.1	win	2022-12-26	22:09:12	22:14:42	324883	62b083f9ca87faa7a75c0235	177511403	1	main_slash	7	main_slash	85	stimuli_distractor_diamondtriangles.svg	stimuli_target_circlediamonds.svg	14	yes	53	1	365
6.6.1	win	2022-12-26	22:09:12	22:14:42	324883	62b083f9ca87faa7a75c0235	177511403	1	main_slash	7	advance_on_keypress_SLASH	86	stimuli_distractor_diamondtriangles.svg	stimuli_target_circlediamonds.svg	14	yes	57	0	318
6.6.1	win	2022-12-26	22:09:12	22:14:43	326319	62b083f9ca87faa7a75c0235	177511403	1	main_slash	7	main_slash	87	stimuli_target_circlediamonds.svg	stimuli_distractor_trianglediamonds.svg	2	yes	53	1	418
6.6.1	win	2022-12-26	22:09:12	22:14:43	326319	62b083f9ca87faa7a75c0235	177511403	1	main_slash	7	advance_on_keypress_SLASH	88	stimuli_target_circlediamonds.svg	stimuli_distractor_trianglediamonds.svg	2	yes	57	0	209
6.6.1	win	2022-12-26	22:09:12	22:14:44	327571	62b083f9ca87faa7a75c0235	177511403	1	main_slash	7	main_slash	89	stimuli_distractor_trianglediamonds.svg	stimuli_target_squaretriangles.svg	11	yes	53	1	353
6.6.1	win	2022-12-26	22:09:12	22:14:44	327571	62b083f9ca87faa7a75c0235	177511403	1	main_slash	7	advance_on_keypress_SLASH	90	stimuli_distractor_trianglediamonds.svg	stimuli_target_squaretriangles.svg	11	yes	57	0	179
6.6.1	win	2022-12-26	22:09:12	22:14:46	329004	62b083f9ca87faa7a75c0235	177511403	1	main_slash	7	main_slash	91	stimuli_distractor_trianglediamonds.svg	stimuli_target_circletriangles.svg	9	yes	53	1	569
6.6.1	win	2022-12-26	22:09:12	22:14:46	329004	62b083f9ca87faa7a75c0235	177511403	1	main_slash	7	advance_on_keypress_SLASH	92	stimuli_distractor_trianglediamonds.svg	stimuli_target_circletriangles.svg	9	yes	57	0	246
6.6.1	win	2022-12-26	22:09:12	22:14:47	330529	62b083f9ca87faa7a75c0235	177511403	1	main_slash	7	main_slash	93	stimuli_target_squaretriangles.svg	stimuli_distractor_trianglediamonds.svg	3	yes	53	1	562
6.6.1	win	2022-12-26	22:09:12	22:14:47	330529	62b083f9ca87faa7a75c0235	177511403	1	main_slash	7	advance_on_keypress_SLASH	94	stimuli_target_squaretriangles.svg	stimuli_distractor_trianglediamonds.svg	3	yes	57	0	172
6.6.1	win	2022-12-26	22:09:12	22:14:50	333401	62b083f9ca87faa7a75c0235	177511403	1	main_slash	7	main_slash	95	stimuli_distractor_trianglediamonds.svg	stimuli_distractor_diamondtriangles.svg	35	no	0	1	2000
6.6.1	win	2022-12-26	22:09:12	22:14:50	333401	62b083f9ca87faa7a75c0235	177511403	1	main_slash	7	advance_on_keypress_SLASH	96	stimuli_distractor_trianglediamonds.svg	stimuli_distractor_diamondtriangles.svg	35	no	57	0	700
6.6.1	win	2022-12-26	22:09:12	22:14:52	335329	62b083f9ca87faa7a75c0235	177511403	1	main_slash	7	main_slash	97	stimuli_target_squarediamonds.svg	stimuli_distractor_trianglediamonds.svg	4	yes	53	1	510
6.6.1	win	2022-12-26	22:09:12	22:14:52	335329	62b083f9ca87faa7a75c0235	177511403	1	main_slash	7	advance_on_keypress_SLASH	98	stimuli_target_squarediamonds.svg	stimuli_distractor_trianglediamonds.svg	4	yes	57	0	129
6.6.1	win	2022-12-26	22:09:12	22:14:55	338134	62b083f9ca87faa7a75c0235	177511403	1	main_slash	7	main_slash	99	stimuli_distractor_trianglediamonds.svg	stimuli_distractor_trianglediamonds.svg	34	no	0	1	2000
6.6.1	win	2022-12-26	22:09:12	22:14:55	338134	62b083f9ca87faa7a75c0235	177511403	1	main_slash	7	advance_on_keypress_SLASH	100	stimuli_distractor_trianglediamonds.svg	stimuli_distractor_trianglediamonds.svg	34	no	57	0	584
6.6.1	win	2022-12-26	22:09:12	22:14:57	340040	62b083f9ca87faa7a75c0235	177511403	1	main_slash	7	main_slash	101	stimuli_distractor_trianglediamonds.svg	stimuli_target_squarediamonds.svg	12	yes	53	1	623
6.6.1	win	2022-12-26	22:09:12	22:14:57	340040	62b083f9ca87faa7a75c0235	177511403	1	main_slash	7	advance_on_keypress_SLASH	102	stimuli_distractor_trianglediamonds.svg	stimuli_target_squarediamonds.svg	12	yes	57	0	394
6.6.1	win	2022-12-26	22:09:12	22:14:58	341528	62b083f9ca87faa7a75c0235	177511403	1	main_slash	7	main_slash	103	stimuli_target_circlediamonds.svg	stimuli_distractor_diamondtriangles.svg	6	yes	53	1	387
6.6.1	win	2022-12-26	22:09:12	22:14:58	341528	62b083f9ca87faa7a75c0235	177511403	1	main_slash	7	advance_on_keypress_SLASH	104	stimuli_target_circlediamonds.svg	stimuli_distractor_diamondtriangles.svg	6	yes	57	0	133
6.6.1	win	2022-12-26	22:09:12	22:14:59	342784	62b083f9ca87faa7a75c0235	177511403	1	main_slash	7	main_slash	105	stimuli_distractor_trianglediamonds.svg	stimuli_target_circlediamonds.svg	10	yes	53	1	418
6.6.1	win	2022-12-26	22:09:12	22:14:59	342784	62b083f9ca87faa7a75c0235	177511403	1	main_slash	7	advance_on_keypress_SLASH	106	stimuli_distractor_trianglediamonds.svg	stimuli_target_circlediamonds.svg	10	yes	57	0	231
6.6.1	win	2022-12-26	22:09:12	22:15:01	344271	62b083f9ca87faa7a75c0235	177511403	1	main_slash	7	main_slash	107	stimuli_target_trianglecircles.svg	stimuli_distractor_trianglediamonds.svg	17	yes	53	1	587
6.6.1	win	2022-12-26	22:09:12	22:15:01	344271	62b083f9ca87faa7a75c0235	177511403	1	main_slash	7	advance_on_keypress_SLASH	108	stimuli_target_trianglecircles.svg	stimuli_distractor_trianglediamonds.svg	17	yes	57	0	196
6.6.1	win	2022-12-26	22:09:12	22:15:02	345752	62b083f9ca87faa7a75c0235	177511403	1	main_slash	7	main_slash	109	stimuli_distractor_trianglediamonds.svg	stimuli_distractor_trianglediamonds.svg	33	no	53	0	585
6.6.1	win	2022-12-26	22:09:12	22:15:02	345752	62b083f9ca87faa7a75c0235	177511403	1	main_slash	7	advance_on_keypress_SLASH	110	stimuli_distractor_trianglediamonds.svg	stimuli_distractor_trianglediamonds.svg	33	no	57	0	39
6.6.1	win	2022-12-26	22:09:12	22:15:04	347073	62b083f9ca87faa7a75c0235	177511403	1	main_slash	7	main_slash	111	stimuli_target_circletriangles.svg	stimuli_distractor_diamondtriangles.svg	5	yes	53	1	572
6.6.1	win	2022-12-26	22:09:12	22:15:04	347073	62b083f9ca87faa7a75c0235	177511403	1	main_slash	7	advance_on_keypress_SLASH	112	stimuli_target_circletriangles.svg	stimuli_distractor_diamondtriangles.svg	5	yes	57	0	163
6.6.1	win	2022-12-26	22:09:12	22:15:05	348703	62b083f9ca87faa7a75c0235	177511403	1	main_slash	7	main_slash	113	stimuli_target_diamondsquares.svg	stimuli_distractor_diamondtriangles.svg	24	yes	53	1	753
6.6.1	win	2022-12-26	22:09:12	22:15:05	348703	62b083f9ca87faa7a75c0235	177511403	1	main_slash	7	advance_on_keypress_SLASH	114	stimuli_target_diamondsquares.svg	stimuli_distractor_diamondtriangles.svg	24	yes	57	0	876
6.6.1	win	2022-12-26	22:09:12	22:15:07	350758	62b083f9ca87faa7a75c0235	177511403	1	main_slash	7	main_slash	115	stimuli_distractor_diamondtriangles.svg	stimuli_target_trianglesquares.svg	30	yes	53	1	458
6.6.1	win	2022-12-26	22:09:12	22:15:07	350758	62b083f9ca87faa7a75c0235	177511403	1	main_slash	7	advance_on_keypress_SLASH	116	stimuli_distractor_diamondtriangles.svg	stimuli_target_trianglesquares.svg	30	yes	57	0	138
6.6.1	win	2022-12-26	22:09:12	22:15:09	352182	62b083f9ca87faa7a75c0235	177511403	1	main_slash	7	main_slash	117	stimuli_target_trianglecircles.svg	stimuli_distractor_diamondtriangles.svg	21	yes	53	1	566
6.6.1	win	2022-12-26	22:09:12	22:15:09	352182	62b083f9ca87faa7a75c0235	177511403	1	main_slash	7	advance_on_keypress_SLASH	118	stimuli_target_trianglecircles.svg	stimuli_distractor_diamondtriangles.svg	21	yes	57	0	162
6.6.1	win	2022-12-26	22:09:12	22:15:10	353564	62b083f9ca87faa7a75c0235	177511403	1	main_slash	7	main_slash	119	stimuli_distractor_diamondtriangles.svg	stimuli_target_circletriangles.svg	13	yes	53	1	531
6.6.1	win	2022-12-26	22:09:12	22:15:10	353564	62b083f9ca87faa7a75c0235	177511403	1	main_slash	7	advance_on_keypress_SLASH	120	stimuli_distractor_diamondtriangles.svg	stimuli_target_circletriangles.svg	13	yes	57	0	120
6.6.1	win	2022-12-26	22:09:12	22:15:12	354849	62b083f9ca87faa7a75c0235	177511403	1	main_slash	7	main_slash	121	stimuli_target_trianglesquares.svg	stimuli_distractor_trianglediamonds.svg	18	yes	53	1	467
6.6.1	win	2022-12-26	22:09:12	22:15:12	354849	62b083f9ca87faa7a75c0235	177511403	1	main_slash	7	advance_on_keypress_SLASH	122	stimuli_target_trianglesquares.svg	stimuli_distractor_trianglediamonds.svg	18	yes	57	0	132
6.6.1	win	2022-12-26	22:09:12	22:15:13	356307	62b083f9ca87faa7a75c0235	177511403	1	main_slash	7	main_slash	123	stimuli_distractor_trianglediamonds.svg	stimuli_target_diamondsquares.svg	28	yes	53	1	641
6.6.1	win	2022-12-26	22:09:12	22:15:13	356307	62b083f9ca87faa7a75c0235	177511403	1	main_slash	7	advance_on_keypress_SLASH	124	stimuli_distractor_trianglediamonds.svg	stimuli_target_diamondsquares.svg	28	yes	57	0	100
6.6.1	win	2022-12-26	22:09:12	22:15:16	359099	62b083f9ca87faa7a75c0235	177511403	1	main_slash	7	main_slash	125	stimuli_distractor_diamondtriangles.svg	stimuli_target_squaretriangles.svg	15	yes	0	0	2000
6.6.1	win	2022-12-26	22:09:12	22:15:16	359099	62b083f9ca87faa7a75c0235	177511403	1	main_slash	7	advance_on_keypress_SLASH	126	stimuli_distractor_diamondtriangles.svg	stimuli_target_squaretriangles.svg	15	yes	57	0	2362
6.6.1	win	2022-12-26	22:09:12	22:15:19	362573	62b083f9ca87faa7a75c0235	177511403	1	main_slash	7	main_slash	127	stimuli_distractor_diamondtriangles.svg	stimuli_target_trianglecircles.svg	29	yes	53	1	441
6.6.1	win	2022-12-26	22:09:12	22:15:19	362573	62b083f9ca87faa7a75c0235	177511403	1	main_slash	7	advance_on_keypress_SLASH	128	stimuli_distractor_diamondtriangles.svg	stimuli_target_trianglecircles.svg	29	yes	57	0	144
6.6.1	win	2022-12-26	22:09:12	22:15:21	363956	62b083f9ca87faa7a75c0235	177511403	1	main_slash	7	main_slash	129	stimuli_distractor_trianglediamonds.svg	stimuli_distractor_diamondtriangles.svg	36	no	53	0	540
6.6.1	win	2022-12-26	22:09:12	22:15:21	363956	62b083f9ca87faa7a75c0235	177511403	1	main_slash	7	advance_on_keypress_SLASH	130	stimuli_distractor_trianglediamonds.svg	stimuli_distractor_diamondtriangles.svg	36	no	57	0	171
6.6.1	win	2022-12-26	22:09:12	22:15:22	365310	62b083f9ca87faa7a75c0235	177511403	1	main_slash	7	main_slash	131	stimuli_distractor_diamondtriangles.svg	stimuli_target_diamondcircles.svg	31	yes	53	1	461
6.6.1	win	2022-12-26	22:09:12	22:15:22	365310	62b083f9ca87faa7a75c0235	177511403	1	main_slash	7	advance_on_keypress_SLASH	132	stimuli_distractor_diamondtriangles.svg	stimuli_target_diamondcircles.svg	31	yes	57	0	174
6.6.1	win	2022-12-26	22:09:12	22:15:25	368199	62b083f9ca87faa7a75c0235	177511403	1	main_slash	7	main_slash	133	stimuli_distractor_diamondtriangles.svg	stimuli_distractor_trianglediamonds.svg	38	no	0	1	2000
6.6.1	win	2022-12-26	22:09:12	22:15:25	368199	62b083f9ca87faa7a75c0235	177511403	1	main_slash	7	advance_on_keypress_SLASH	134	stimuli_distractor_diamondtriangles.svg	stimuli_distractor_trianglediamonds.svg	38	no	57	0	577
6.6.1	win	2022-12-26	22:09:12	22:15:27	369877	62b083f9ca87faa7a75c0235	177511403	1	main_slash	7	main_slash	135	stimuli_distractor_trianglediamonds.svg	stimuli_target_trianglecircles.svg	25	yes	53	1	378
6.6.1	win	2022-12-26	22:09:12	22:15:27	369877	62b083f9ca87faa7a75c0235	177511403	1	main_slash	7	advance_on_keypress_SLASH	136	stimuli_distractor_trianglediamonds.svg	stimuli_target_trianglecircles.svg	25	yes	57	0	102
6.6.1	win	2022-12-26	22:09:12	22:15:28	371212	62b083f9ca87faa7a75c0235	177511403	1	main_slash	7	main_slash	137	stimuli_distractor_trianglediamonds.svg	stimuli_target_trianglesquares.svg	26	yes	53	1	521
6.6.1	win	2022-12-26	22:09:12	22:15:28	371212	62b083f9ca87faa7a75c0235	177511403	1	main_slash	7	advance_on_keypress_SLASH	138	stimuli_distractor_trianglediamonds.svg	stimuli_target_trianglesquares.svg	26	yes	57	0	89
6.6.1	win	2022-12-26	22:09:12	22:15:29	372510	62b083f9ca87faa7a75c0235	177511403	1	main_slash	7	main_slash	139	stimuli_target_squarediamonds.svg	stimuli_distractor_diamondtriangles.svg	8	yes	53	1	477
6.6.1	win	2022-12-26	22:09:12	22:15:29	372510	62b083f9ca87faa7a75c0235	177511403	1	main_slash	7	advance_on_keypress_SLASH	140	stimuli_target_squarediamonds.svg	stimuli_distractor_diamondtriangles.svg	8	yes	57	0	56
6.6.1	win	2022-12-26	22:09:12	22:15:32	375299	62b083f9ca87faa7a75c0235	177511403	1	main_slash	7	main_slash	141	stimuli_distractor_diamondtriangles.svg	stimuli_distractor_diamondtriangles.svg	39	no	0	1	2000
6.6.1	win	2022-12-26	22:09:12	22:15:32	375299	62b083f9ca87faa7a75c0235	177511403	1	main_slash	7	advance_on_keypress_SLASH	142	stimuli_distractor_diamondtriangles.svg	stimuli_distractor_diamondtriangles.svg	39	no	57	0	603
6.6.1	win	2022-12-26	22:09:12	22:15:34	377128	62b083f9ca87faa7a75c0235	177511403	1	main_slash	7	main_slash	143	stimuli_target_diamondcircles.svg	stimuli_distractor_trianglediamonds.svg	19	yes	53	1	520
6.6.1	win	2022-12-26	22:09:12	22:15:34	377128	62b083f9ca87faa7a75c0235	177511403	1	main_slash	7	advance_on_keypress_SLASH	144	stimuli_target_diamondcircles.svg	stimuli_distractor_trianglediamonds.svg	19	yes	57	0	88
6.6.1	win	2022-12-26	22:09:12	22:15:35	378403	62b083f9ca87faa7a75c0235	177511403	1	main_slash	7	main_slash	145	stimuli_target_circletriangles.svg	stimuli_distractor_trianglediamonds.svg	1	yes	53	1	455
6.6.1	win	2022-12-26	22:09:12	22:15:35	378403	62b083f9ca87faa7a75c0235	177511403	1	main_slash	7	advance_on_keypress_SLASH	146	stimuli_target_circletriangles.svg	stimuli_distractor_trianglediamonds.svg	1	yes	57	0	150
6.6.1	win	2022-12-26	22:09:12	22:15:38	381232	62b083f9ca87faa7a75c0235	177511403	1	main_slash	7	main_slash	147	stimuli_distractor_diamondtriangles.svg	stimuli_distractor_diamondtriangles.svg	40	no	0	1	2000
6.6.1	win	2022-12-26	22:09:12	22:15:38	381232	62b083f9ca87faa7a75c0235	177511403	1	main_slash	7	advance_on_keypress_SLASH	148	stimuli_distractor_diamondtriangles.svg	stimuli_distractor_diamondtriangles.svg	40	no	57	0	631
6.6.1	win	2022-12-26	22:09:12	22:15:40	383171	62b083f9ca87faa7a75c0235	177511403	1	main_slash	7	main_slash	149	stimuli_distractor_diamondtriangles.svg	stimuli_target_diamondsquares.svg	32	yes	53	1	606
6.6.1	win	2022-12-26	22:09:12	22:15:40	383171	62b083f9ca87faa7a75c0235	177511403	1	main_slash	7	advance_on_keypress_SLASH	150	stimuli_distractor_diamondtriangles.svg	stimuli_target_diamondsquares.svg	32	yes	57	0	194
6.6.1	win	2022-12-26	22:09:12	22:15:41	384612	62b083f9ca87faa7a75c0235	177511403	1	main_slash	7	main_slash	151	stimuli_target_squaretriangles.svg	stimuli_distractor_diamondtriangles.svg	7	yes	53	1	528
6.6.1	win	2022-12-26	22:09:12	22:15:41	384612	62b083f9ca87faa7a75c0235	177511403	1	main_slash	7	advance_on_keypress_SLASH	152	stimuli_target_squaretriangles.svg	stimuli_distractor_diamondtriangles.svg	7	yes	57	0	92
6.6.1	win	2022-12-26	22:09:12	22:15:44	387415	62b083f9ca87faa7a75c0235	177511403	1	main_slash	7	main_slash	153	stimuli_distractor_diamondtriangles.svg	stimuli_distractor_trianglediamonds.svg	37	no	0	1	2000
6.6.1	win	2022-12-26	22:09:12	22:15:44	387415	62b083f9ca87faa7a75c0235	177511403	1	main_slash	7	advance_on_keypress_SLASH	154	stimuli_distractor_diamondtriangles.svg	stimuli_distractor_trianglediamonds.svg	37	no	57	0	301
6.6.1	win	2022-12-26	22:09:12	22:15:46	388817	62b083f9ca87faa7a75c0235	177511403	1	main_slash	7	main_slash	155	stimuli_distractor_trianglediamonds.svg	stimuli_target_diamondcircles.svg	27	yes	53	1	403
6.6.1	win	2022-12-26	22:09:12	22:15:46	388817	62b083f9ca87faa7a75c0235	177511403	1	main_slash	7	advance_on_keypress_SLASH	156	stimuli_distractor_trianglediamonds.svg	stimuli_target_diamondcircles.svg	27	yes	57	0	205
6.6.1	win	2022-12-26	22:09:12	22:15:48	391438	62b083f9ca87faa7a75c0235	177511403	1	main_slash	7	main_slash	157	stimuli_target_trianglesquares.svg	stimuli_distractor_diamondtriangles.svg	22	yes	53	1	1723
6.6.1	win	2022-12-26	22:09:12	22:15:48	391438	62b083f9ca87faa7a75c0235	177511403	1	main_slash	7	advance_on_keypress_SLASH	158	stimuli_target_trianglesquares.svg	stimuli_distractor_diamondtriangles.svg	22	yes	57	0	427
6.6.1	win	2022-12-26	22:09:12	22:15:50	393110	62b083f9ca87faa7a75c0235	177511403	1	main_slash	7	main_slash	159	stimuli_target_diamondsquares.svg	stimuli_distractor_trianglediamonds.svg	20	yes	53	1	524
6.6.1	win	2022-12-26	22:09:12	22:15:50	393110	62b083f9ca87faa7a75c0235	177511403	1	main_slash	7	advance_on_keypress_SLASH	160	stimuli_target_diamondsquares.svg	stimuli_distractor_trianglediamonds.svg	20	yes	57	0	262
6.6.1	win	2022-12-26	22:09:12	22:16:11	414637	62b083f9ca87faa7a75c0235	177511403	1	practice_z	9	practice_z	1	stimuli_distractor_diamondtriangles.svg	stimuli_distractor_diamondtriangles.svg	13	no	0	1	2000
6.6.1	win	2022-12-26	22:09:12	22:16:11	414637	62b083f9ca87faa7a75c0235	177511403	1	practice_z	9	advance_on_keypress_ZEE	2	stimuli_distractor_diamondtriangles.svg	stimuli_distractor_diamondtriangles.svg	13	no	57	0	580
6.6.1	win	2022-12-26	22:09:12	22:16:16	418937	62b083f9ca87faa7a75c0235	177511403	1	practice_z	9	practice_z	3	stimuli_distractor_trianglediamonds.svg	stimuli_distractor_trianglediamonds.svg	15	no	0	1	2000
6.6.1	win	2022-12-26	22:09:12	22:16:16	418937	62b083f9ca87faa7a75c0235	177511403	1	practice_z	9	advance_on_keypress_ZEE	4	stimuli_distractor_trianglediamonds.svg	stimuli_distractor_trianglediamonds.svg	15	no	57	0	554
6.6.1	win	2022-12-26	22:09:12	22:16:18	421750	62b083f9ca87faa7a75c0235	177511403	1	practice_z	9	practice_z	5	stimuli_distractor_diamondtriangles.svg	stimuli_target_diamondcircles.svg	8	yes	44	1	514
6.6.1	win	2022-12-26	22:09:12	22:16:18	421750	62b083f9ca87faa7a75c0235	177511403	1	practice_z	9	advance_on_keypress_ZEE	6	stimuli_distractor_diamondtriangles.svg	stimuli_target_diamondcircles.svg	8	yes	57	0	641
6.6.1	win	2022-12-26	22:09:12	22:16:21	424520	62b083f9ca87faa7a75c0235	177511403	1	practice_z	9	practice_z	7	stimuli_target_circlediamonds.svg	stimuli_distractor_diamondtriangles.svg	1	yes	44	1	416
6.6.1	win	2022-12-26	22:09:12	22:16:21	424520	62b083f9ca87faa7a75c0235	177511403	1	practice_z	9	advance_on_keypress_ZEE	8	stimuli_target_circlediamonds.svg	stimuli_distractor_diamondtriangles.svg	1	yes	57	0	516
6.6.1	win	2022-12-26	22:09:12	22:16:24	427211	62b083f9ca87faa7a75c0235	177511403	1	practice_z	9	practice_z	9	stimuli_distractor_diamondtriangles.svg	stimuli_target_trianglecircles.svg	9	yes	44	1	441
6.6.1	win	2022-12-26	22:09:12	22:16:24	427211	62b083f9ca87faa7a75c0235	177511403	1	practice_z	9	advance_on_keypress_ZEE	10	stimuli_distractor_diamondtriangles.svg	stimuli_target_trianglecircles.svg	9	yes	57	0	609
6.6.1	win	2022-12-26	22:09:12	22:16:27	429947	62b083f9ca87faa7a75c0235	177511403	1	practice_z	9	practice_z	11	stimuli_distractor_trianglediamonds.svg	stimuli_target_squarediamonds.svg	11	yes	44	1	409
6.6.1	win	2022-12-26	22:09:12	22:16:27	429947	62b083f9ca87faa7a75c0235	177511403	1	practice_z	9	advance_on_keypress_ZEE	12	stimuli_distractor_trianglediamonds.svg	stimuli_target_squarediamonds.svg	11	yes	57	0	495
6.6.1	win	2022-12-26	22:09:12	22:16:29	432710	62b083f9ca87faa7a75c0235	177511403	1	practice_z	9	practice_z	13	stimuli_target_diamondsquares.svg	stimuli_distractor_trianglediamonds.svg	6	yes	44	1	539
6.6.1	win	2022-12-26	22:09:12	22:16:29	432710	62b083f9ca87faa7a75c0235	177511403	1	practice_z	9	advance_on_keypress_ZEE	14	stimuli_target_diamondsquares.svg	stimuli_distractor_trianglediamonds.svg	6	yes	57	0	617
6.6.1	win	2022-12-26	22:09:12	22:16:34	437068	62b083f9ca87faa7a75c0235	177511403	1	practice_z	9	practice_z	15	stimuli_target_squarediamonds.svg	stimuli_distractor_diamondtriangles.svg	2	yes	0	0	2000
6.6.1	win	2022-12-26	22:09:12	22:16:34	437068	62b083f9ca87faa7a75c0235	177511403	1	practice_z	9	advance_on_keypress_ZEE	16	stimuli_target_squarediamonds.svg	stimuli_distractor_diamondtriangles.svg	2	yes	57	0	501
6.6.1	win	2022-12-26	22:09:12	22:16:36	439739	62b083f9ca87faa7a75c0235	177511403	1	practice_z	9	practice_z	17	stimuli_distractor_trianglediamonds.svg	stimuli_target_circlediamonds.svg	10	yes	44	1	471
6.6.1	win	2022-12-26	22:09:12	22:16:36	439739	62b083f9ca87faa7a75c0235	177511403	1	practice_z	9	advance_on_keypress_ZEE	18	stimuli_distractor_trianglediamonds.svg	stimuli_target_circlediamonds.svg	10	yes	57	0	315
6.6.1	win	2022-12-26	22:09:12	22:16:39	442344	62b083f9ca87faa7a75c0235	177511403	1	practice_z	9	practice_z	19	stimuli_distractor_diamondtriangles.svg	stimuli_target_circletriangles.svg	7	yes	44	1	575
6.6.1	win	2022-12-26	22:09:12	22:16:39	442344	62b083f9ca87faa7a75c0235	177511403	1	practice_z	9	advance_on_keypress_ZEE	20	stimuli_distractor_diamondtriangles.svg	stimuli_target_circletriangles.svg	7	yes	57	0	510
6.6.1	win	2022-12-26	22:09:12	22:16:43	446551	62b083f9ca87faa7a75c0235	177511403	1	practice_z	9	practice_z	21	stimuli_distractor_diamondtriangles.svg	stimuli_distractor_trianglediamonds.svg	14	no	0	1	2000
6.6.1	win	2022-12-26	22:09:12	22:16:43	446551	62b083f9ca87faa7a75c0235	177511403	1	practice_z	9	advance_on_keypress_ZEE	22	stimuli_distractor_diamondtriangles.svg	stimuli_distractor_trianglediamonds.svg	14	no	57	0	608
6.6.1	win	2022-12-26	22:09:12	22:16:46	449413	62b083f9ca87faa7a75c0235	177511403	1	practice_z	9	practice_z	23	stimuli_distractor_trianglediamonds.svg	stimuli_target_diamondcircles.svg	12	yes	44	1	511
6.6.1	win	2022-12-26	22:09:12	22:16:46	449413	62b083f9ca87faa7a75c0235	177511403	1	practice_z	9	advance_on_keypress_ZEE	24	stimuli_distractor_trianglediamonds.svg	stimuli_target_diamondcircles.svg	12	yes	57	0	276
6.6.1	win	2022-12-26	22:09:12	22:16:49	452237	62b083f9ca87faa7a75c0235	177511403	1	practice_z	9	practice_z	25	stimuli_target_diamondsquares.svg	stimuli_distractor_diamondtriangles.svg	3	yes	44	1	852
6.6.1	win	2022-12-26	22:09:12	22:16:49	452237	62b083f9ca87faa7a75c0235	177511403	1	practice_z	9	advance_on_keypress_ZEE	26	stimuli_target_diamondsquares.svg	stimuli_distractor_diamondtriangles.svg	3	yes	57	0	445
6.6.1	win	2022-12-26	22:09:12	22:16:52	454807	62b083f9ca87faa7a75c0235	177511403	1	practice_z	9	practice_z	27	stimuli_target_circlediamonds.svg	stimuli_distractor_trianglediamonds.svg	4	yes	44	1	406
6.6.1	win	2022-12-26	22:09:12	22:16:52	454807	62b083f9ca87faa7a75c0235	177511403	1	practice_z	9	advance_on_keypress_ZEE	28	stimuli_target_circlediamonds.svg	stimuli_distractor_trianglediamonds.svg	4	yes	57	0	446
6.6.1	win	2022-12-26	22:09:12	22:16:55	458169	62b083f9ca87faa7a75c0235	177511403	1	practice_z	9	practice_z	29	stimuli_distractor_trianglediamonds.svg	stimuli_distractor_diamondtriangles.svg	16	no	44	0	1201
6.6.1	win	2022-12-26	22:09:12	22:16:55	458169	62b083f9ca87faa7a75c0235	177511403	1	practice_z	9	advance_on_keypress_ZEE	30	stimuli_distractor_trianglediamonds.svg	stimuli_distractor_diamondtriangles.svg	16	no	57	0	482
6.6.1	win	2022-12-26	22:09:12	22:16:58	460879	62b083f9ca87faa7a75c0235	177511403	1	practice_z	9	practice_z	31	stimuli_target_squarediamonds.svg	stimuli_distractor_trianglediamonds.svg	5	yes	44	1	515
6.6.1	win	2022-12-26	22:09:12	22:16:58	460879	62b083f9ca87faa7a75c0235	177511403	1	practice_z	9	advance_on_keypress_ZEE	32	stimuli_target_squarediamonds.svg	stimuli_distractor_trianglediamonds.svg	5	yes	57	0	505
6.6.1	win	2022-12-26	22:09:12	22:17:03	465987	62b083f9ca87faa7a75c0235	177511403	1	main_z	11	main_z	1	stimuli_target_trianglesquares.svg	stimuli_distractor_diamondtriangles.svg	22	yes	44	1	524
6.6.1	win	2022-12-26	22:09:12	22:17:03	465987	62b083f9ca87faa7a75c0235	177511403	1	main_z	11	advance_on_keypress_ZEE	2	stimuli_target_trianglesquares.svg	stimuli_distractor_diamondtriangles.svg	22	yes	57	0	570
6.6.1	win	2022-12-26	22:09:12	22:17:06	469243	62b083f9ca87faa7a75c0235	177511403	1	main_z	11	main_z	3	stimuli_distractor_trianglediamonds.svg	stimuli_distractor_diamondtriangles.svg	35	no	0	1	2000
6.6.1	win	2022-12-26	22:09:12	22:17:06	469243	62b083f9ca87faa7a75c0235	177511403	1	main_z	11	advance_on_keypress_ZEE	4	stimuli_distractor_trianglediamonds.svg	stimuli_distractor_diamondtriangles.svg	35	no	57	0	577
6.6.1	win	2022-12-26	22:09:12	22:17:09	472509	62b083f9ca87faa7a75c0235	177511403	1	main_z	11	main_z	5	stimuli_distractor_diamondtriangles.svg	stimuli_distractor_diamondtriangles.svg	39	no	0	1	2000
6.6.1	win	2022-12-26	22:09:12	22:17:09	472509	62b083f9ca87faa7a75c0235	177511403	1	main_z	11	advance_on_keypress_ZEE	6	stimuli_distractor_diamondtriangles.svg	stimuli_distractor_diamondtriangles.svg	39	no	57	0	671
6.6.1	win	2022-12-26	22:09:12	22:17:11	474432	62b083f9ca87faa7a75c0235	177511403	1	main_z	11	main_z	7	stimuli_distractor_diamondtriangles.svg	stimuli_target_squarediamonds.svg	16	yes	44	1	589
6.6.1	win	2022-12-26	22:09:12	22:17:11	474432	62b083f9ca87faa7a75c0235	177511403	1	main_z	11	advance_on_keypress_ZEE	8	stimuli_distractor_diamondtriangles.svg	stimuli_target_squarediamonds.svg	16	yes	57	0	597
6.6.1	win	2022-12-26	22:09:12	22:17:13	476159	62b083f9ca87faa7a75c0235	177511403	1	main_z	11	main_z	9	stimuli_target_diamondsquares.svg	stimuli_distractor_diamondtriangles.svg	24	yes	44	1	450
6.6.1	win	2022-12-26	22:09:12	22:17:13	476159	62b083f9ca87faa7a75c0235	177511403	1	main_z	11	advance_on_keypress_ZEE	10	stimuli_target_diamondsquares.svg	stimuli_distractor_diamondtriangles.svg	24	yes	57	0	379
6.6.1	win	2022-12-26	22:09:12	22:17:16	479226	62b083f9ca87faa7a75c0235	177511403	1	main_z	11	main_z	11	stimuli_distractor_diamondtriangles.svg	stimuli_target_circletriangles.svg	13	yes	0	0	2000
6.6.1	win	2022-12-26	22:09:12	22:17:16	479226	62b083f9ca87faa7a75c0235	177511403	1	main_z	11	advance_on_keypress_ZEE	12	stimuli_distractor_diamondtriangles.svg	stimuli_target_circletriangles.svg	13	yes	57	0	462
6.6.1	win	2022-12-26	22:09:12	22:17:18	480968	62b083f9ca87faa7a75c0235	177511403	1	main_z	11	main_z	13	stimuli_distractor_diamondtriangles.svg	stimuli_target_squaretriangles.svg	15	yes	44	1	576
6.6.1	win	2022-12-26	22:09:12	22:17:18	480968	62b083f9ca87faa7a75c0235	177511403	1	main_z	11	advance_on_keypress_ZEE	14	stimuli_distractor_diamondtriangles.svg	stimuli_target_squaretriangles.svg	15	yes	57	0	421
6.6.1	win	2022-12-26	22:09:12	22:17:19	482677	62b083f9ca87faa7a75c0235	177511403	1	main_z	11	main_z	15	stimuli_distractor_trianglediamonds.svg	stimuli_target_trianglecircles.svg	25	yes	44	1	568
6.6.1	win	2022-12-26	22:09:12	22:17:19	482677	62b083f9ca87faa7a75c0235	177511403	1	main_z	11	advance_on_keypress_ZEE	16	stimuli_distractor_trianglediamonds.svg	stimuli_target_trianglecircles.svg	25	yes	57	0	315
6.6.1	win	2022-12-26	22:09:12	22:17:21	484417	62b083f9ca87faa7a75c0235	177511403	1	main_z	11	main_z	17	stimuli_distractor_trianglediamonds.svg	stimuli_target_diamondsquares.svg	28	yes	44	1	725
6.6.1	win	2022-12-26	22:09:12	22:17:21	484417	62b083f9ca87faa7a75c0235	177511403	1	main_z	11	advance_on_keypress_ZEE	18	stimuli_distractor_trianglediamonds.svg	stimuli_target_diamondsquares.svg	28	yes	57	0	356
6.6.1	win	2022-12-26	22:09:12	22:17:23	485915	62b083f9ca87faa7a75c0235	177511403	1	main_z	11	main_z	19	stimuli_target_diamondcircles.svg	stimuli_distractor_diamondtriangles.svg	23	yes	44	1	456
6.6.1	win	2022-12-26	22:09:12	22:17:23	485915	62b083f9ca87faa7a75c0235	177511403	1	main_z	11	advance_on_keypress_ZEE	20	stimuli_target_diamondcircles.svg	stimuli_distractor_diamondtriangles.svg	23	yes	57	0	235
6.6.1	win	2022-12-26	22:09:12	22:17:24	487313	62b083f9ca87faa7a75c0235	177511403	1	main_z	11	main_z	21	stimuli_target_trianglecircles.svg	stimuli_distractor_trianglediamonds.svg	17	yes	44	1	471
6.6.1	win	2022-12-26	22:09:12	22:17:24	487313	62b083f9ca87faa7a75c0235	177511403	1	main_z	11	advance_on_keypress_ZEE	22	stimuli_target_trianglecircles.svg	stimuli_distractor_trianglediamonds.svg	17	yes	57	0	206
6.6.1	win	2022-12-26	22:09:12	22:17:27	490242	62b083f9ca87faa7a75c0235	177511403	1	main_z	11	main_z	23	stimuli_distractor_trianglediamonds.svg	stimuli_distractor_trianglediamonds.svg	34	no	0	1	2000
6.6.1	win	2022-12-26	22:09:12	22:17:27	490242	62b083f9ca87faa7a75c0235	177511403	1	main_z	11	advance_on_keypress_ZEE	24	stimuli_distractor_trianglediamonds.svg	stimuli_distractor_trianglediamonds.svg	34	no	57	0	679
6.6.1	win	2022-12-26	22:09:12	22:17:29	492048	62b083f9ca87faa7a75c0235	177511403	1	main_z	11	main_z	25	stimuli_distractor_diamondtriangles.svg	stimuli_target_trianglecircles.svg	29	yes	44	1	423
6.6.1	win	2022-12-26	22:09:12	22:17:29	492048	62b083f9ca87faa7a75c0235	177511403	1	main_z	11	advance_on_keypress_ZEE	26	stimuli_distractor_diamondtriangles.svg	stimuli_target_trianglecircles.svg	29	yes	57	0	348
6.6.1	win	2022-12-26	22:09:12	22:17:30	493586	62b083f9ca87faa7a75c0235	177511403	1	main_z	11	main_z	27	stimuli_target_circlediamonds.svg	stimuli_distractor_trianglediamonds.svg	2	yes	44	1	494
6.6.1	win	2022-12-26	22:09:12	22:17:30	493586	62b083f9ca87faa7a75c0235	177511403	1	main_z	11	advance_on_keypress_ZEE	28	stimuli_target_circlediamonds.svg	stimuli_distractor_trianglediamonds.svg	2	yes	57	0	218
6.6.1	win	2022-12-26	22:09:12	22:17:33	496508	62b083f9ca87faa7a75c0235	177511403	1	main_z	11	main_z	29	stimuli_distractor_trianglediamonds.svg	stimuli_distractor_trianglediamonds.svg	33	no	0	1	2000
6.6.1	win	2022-12-26	22:09:12	22:17:33	496508	62b083f9ca87faa7a75c0235	177511403	1	main_z	11	advance_on_keypress_ZEE	30	stimuli_distractor_trianglediamonds.svg	stimuli_distractor_trianglediamonds.svg	33	no	57	0	505
6.6.1	win	2022-12-26	22:09:12	22:17:36	499725	62b083f9ca87faa7a75c0235	177511403	1	main_z	11	main_z	31	stimuli_distractor_trianglediamonds.svg	stimuli_distractor_diamondtriangles.svg	36	no	0	1	2000
6.6.1	win	2022-12-26	22:09:12	22:17:36	499725	62b083f9ca87faa7a75c0235	177511403	1	main_z	11	advance_on_keypress_ZEE	32	stimuli_distractor_trianglediamonds.svg	stimuli_distractor_diamondtriangles.svg	36	no	57	0	654
6.6.1	win	2022-12-26	22:09:12	22:17:40	503074	62b083f9ca87faa7a75c0235	177511403	1	main_z	11	main_z	33	stimuli_distractor_diamondtriangles.svg	stimuli_distractor_diamondtriangles.svg	40	no	0	1	2000
6.6.1	win	2022-12-26	22:09:12	22:17:40	503074	62b083f9ca87faa7a75c0235	177511403	1	main_z	11	advance_on_keypress_ZEE	34	stimuli_distractor_diamondtriangles.svg	stimuli_distractor_diamondtriangles.svg	40	no	57	0	328
6.6.1	win	2022-12-26	22:09:12	22:17:41	504542	62b083f9ca87faa7a75c0235	177511403	1	main_z	11	main_z	35	stimuli_target_squaretriangles.svg	stimuli_distractor_trianglediamonds.svg	3	yes	44	1	435
6.6.1	win	2022-12-26	22:09:12	22:17:41	504542	62b083f9ca87faa7a75c0235	177511403	1	main_z	11	advance_on_keypress_ZEE	36	stimuli_target_squaretriangles.svg	stimuli_distractor_trianglediamonds.svg	3	yes	57	0	363
6.6.1	win	2022-12-26	22:09:12	22:17:43	506274	62b083f9ca87faa7a75c0235	177511403	1	main_z	11	main_z	37	stimuli_target_diamondsquares.svg	stimuli_distractor_trianglediamonds.svg	20	yes	44	1	667
6.6.1	win	2022-12-26	22:09:12	22:17:43	506274	62b083f9ca87faa7a75c0235	177511403	1	main_z	11	advance_on_keypress_ZEE	38	stimuli_target_diamondsquares.svg	stimuli_distractor_trianglediamonds.svg	20	yes	57	0	308
6.6.1	win	2022-12-26	22:09:12	22:17:46	509274	62b083f9ca87faa7a75c0235	177511403	1	main_z	11	main_z	39	stimuli_distractor_diamondtriangles.svg	stimuli_distractor_trianglediamonds.svg	37	no	0	1	2000
6.6.1	win	2022-12-26	22:09:12	22:17:46	509274	62b083f9ca87faa7a75c0235	177511403	1	main_z	11	advance_on_keypress_ZEE	40	stimuli_distractor_diamondtriangles.svg	stimuli_distractor_trianglediamonds.svg	37	no	57	0	568
6.6.1	win	2022-12-26	22:09:12	22:17:48	510888	62b083f9ca87faa7a75c0235	177511403	1	main_z	11	main_z	41	stimuli_target_circlediamonds.svg	stimuli_distractor_diamondtriangles.svg	6	yes	44	1	348
6.6.1	win	2022-12-26	22:09:12	22:17:48	510888	62b083f9ca87faa7a75c0235	177511403	1	main_z	11	advance_on_keypress_ZEE	42	stimuli_target_circlediamonds.svg	stimuli_distractor_diamondtriangles.svg	6	yes	57	0	341
6.6.1	win	2022-12-26	22:09:12	22:17:49	512607	62b083f9ca87faa7a75c0235	177511403	1	main_z	11	main_z	43	stimuli_target_squaretriangles.svg	stimuli_distractor_diamondtriangles.svg	7	yes	44	1	666
6.6.1	win	2022-12-26	22:09:12	22:17:49	512607	62b083f9ca87faa7a75c0235	177511403	1	main_z	11	advance_on_keypress_ZEE	44	stimuli_target_squaretriangles.svg	stimuli_distractor_diamondtriangles.svg	7	yes	57	0	237
6.6.1	win	2022-12-26	22:09:12	22:17:51	513997	62b083f9ca87faa7a75c0235	177511403	1	main_z	11	main_z	45	stimuli_target_circletriangles.svg	stimuli_distractor_diamondtriangles.svg	5	yes	44	1	456
6.6.1	win	2022-12-26	22:09:12	22:17:51	513997	62b083f9ca87faa7a75c0235	177511403	1	main_z	11	advance_on_keypress_ZEE	46	stimuli_target_circletriangles.svg	stimuli_distractor_diamondtriangles.svg	5	yes	57	0	236
6.6.1	win	2022-12-26	22:09:12	22:17:52	515549	62b083f9ca87faa7a75c0235	177511403	1	main_z	11	main_z	47	stimuli_distractor_diamondtriangles.svg	stimuli_target_diamondcircles.svg	31	yes	44	1	608
6.6.1	win	2022-12-26	22:09:12	22:17:52	515549	62b083f9ca87faa7a75c0235	177511403	1	main_z	11	advance_on_keypress_ZEE	48	stimuli_distractor_diamondtriangles.svg	stimuli_target_diamondcircles.svg	31	yes	57	0	258
6.6.1	win	2022-12-26	22:09:12	22:17:55	518524	62b083f9ca87faa7a75c0235	177511403	1	main_z	11	main_z	49	stimuli_distractor_trianglediamonds.svg	stimuli_target_squarediamonds.svg	12	yes	0	0	2000
6.6.1	win	2022-12-26	22:09:12	22:17:55	518524	62b083f9ca87faa7a75c0235	177511403	1	main_z	11	advance_on_keypress_ZEE	50	stimuli_distractor_trianglediamonds.svg	stimuli_target_squarediamonds.svg	12	yes	57	0	372
6.6.1	win	2022-12-26	22:09:12	22:17:57	520049	62b083f9ca87faa7a75c0235	177511403	1	main_z	11	main_z	51	stimuli_target_trianglesquares.svg	stimuli_distractor_trianglediamonds.svg	18	yes	44	1	459
6.6.1	win	2022-12-26	22:09:12	22:17:57	520049	62b083f9ca87faa7a75c0235	177511403	1	main_z	11	advance_on_keypress_ZEE	52	stimuli_target_trianglesquares.svg	stimuli_distractor_trianglediamonds.svg	18	yes	57	0	355
6.6.1	win	2022-12-26	22:09:12	22:17:58	521638	62b083f9ca87faa7a75c0235	177511403	1	main_z	11	main_z	53	stimuli_target_diamondcircles.svg	stimuli_distractor_trianglediamonds.svg	19	yes	44	1	529
6.6.1	win	2022-12-26	22:09:12	22:17:58	521638	62b083f9ca87faa7a75c0235	177511403	1	main_z	11	advance_on_keypress_ZEE	54	stimuli_target_diamondcircles.svg	stimuli_distractor_trianglediamonds.svg	19	yes	57	0	261
6.6.1	win	2022-12-26	22:09:12	22:18:00	523253	62b083f9ca87faa7a75c0235	177511403	1	main_z	11	main_z	55	stimuli_distractor_trianglediamonds.svg	stimuli_target_trianglesquares.svg	26	yes	44	1	647
6.6.1	win	2022-12-26	22:09:12	22:18:00	523253	62b083f9ca87faa7a75c0235	177511403	1	main_z	11	advance_on_keypress_ZEE	56	stimuli_distractor_trianglediamonds.svg	stimuli_target_trianglesquares.svg	26	yes	57	0	304
6.6.1	win	2022-12-26	22:09:12	22:18:02	524960	62b083f9ca87faa7a75c0235	177511403	1	main_z	11	main_z	57	stimuli_distractor_trianglediamonds.svg	stimuli_target_squaretriangles.svg	11	yes	44	1	737
6.6.1	win	2022-12-26	22:09:12	22:18:02	524960	62b083f9ca87faa7a75c0235	177511403	1	main_z	11	advance_on_keypress_ZEE	58	stimuli_distractor_trianglediamonds.svg	stimuli_target_squaretriangles.svg	11	yes	57	0	318
6.6.1	win	2022-12-26	22:09:12	22:18:03	526376	62b083f9ca87faa7a75c0235	177511403	1	main_z	11	main_z	59	stimuli_target_circletriangles.svg	stimuli_distractor_trianglediamonds.svg	1	yes	44	1	436
6.6.1	win	2022-12-26	22:09:12	22:18:03	526376	62b083f9ca87faa7a75c0235	177511403	1	main_z	11	advance_on_keypress_ZEE	60	stimuli_target_circletriangles.svg	stimuli_distractor_trianglediamonds.svg	1	yes	57	0	240
6.6.1	win	2022-12-26	22:09:12	22:18:05	528137	62b083f9ca87faa7a75c0235	177511403	1	main_z	11	main_z	61	stimuli_distractor_trianglediamonds.svg	stimuli_target_diamondcircles.svg	27	yes	44	1	797
6.6.1	win	2022-12-26	22:09:12	22:18:05	528137	62b083f9ca87faa7a75c0235	177511403	1	main_z	11	advance_on_keypress_ZEE	62	stimuli_distractor_trianglediamonds.svg	stimuli_target_diamondcircles.svg	27	yes	57	0	173
6.6.1	win	2022-12-26	22:09:12	22:18:07	529902	62b083f9ca87faa7a75c0235	177511403	1	main_z	11	main_z	63	stimuli_distractor_diamondtriangles.svg	stimuli_target_circlediamonds.svg	14	yes	44	1	879
6.6.1	win	2022-12-26	22:09:12	22:18:07	529902	62b083f9ca87faa7a75c0235	177511403	1	main_z	11	advance_on_keypress_ZEE	64	stimuli_distractor_diamondtriangles.svg	stimuli_target_circlediamonds.svg	14	yes	57	0	223
6.6.1	win	2022-12-26	22:09:12	22:18:08	531421	62b083f9ca87faa7a75c0235	177511403	1	main_z	11	main_z	65	stimuli_target_squarediamonds.svg	stimuli_distractor_diamondtriangles.svg	8	yes	44	1	598
6.6.1	win	2022-12-26	22:09:12	22:18:08	531421	62b083f9ca87faa7a75c0235	177511403	1	main_z	11	advance_on_keypress_ZEE	66	stimuli_target_squarediamonds.svg	stimuli_distractor_diamondtriangles.svg	8	yes	57	0	208
6.6.1	win	2022-12-26	22:09:12	22:18:10	532945	62b083f9ca87faa7a75c0235	177511403	1	main_z	11	main_z	67	stimuli_distractor_trianglediamonds.svg	stimuli_target_circlediamonds.svg	10	yes	44	1	606
6.6.1	win	2022-12-26	22:09:12	22:18:10	532945	62b083f9ca87faa7a75c0235	177511403	1	main_z	11	advance_on_keypress_ZEE	68	stimuli_distractor_trianglediamonds.svg	stimuli_target_circlediamonds.svg	10	yes	57	0	192
6.6.1	win	2022-12-26	22:09:12	22:18:11	534385	62b083f9ca87faa7a75c0235	177511403	1	main_z	11	main_z	69	stimuli_target_squarediamonds.svg	stimuli_distractor_trianglediamonds.svg	4	yes	44	1	546
6.6.1	win	2022-12-26	22:09:12	22:18:11	534385	62b083f9ca87faa7a75c0235	177511403	1	main_z	11	advance_on_keypress_ZEE	70	stimuli_target_squarediamonds.svg	stimuli_distractor_trianglediamonds.svg	4	yes	57	0	105
6.6.1	win	2022-12-26	22:09:12	22:18:14	537172	62b083f9ca87faa7a75c0235	177511403	1	main_z	11	main_z	71	stimuli_distractor_diamondtriangles.svg	stimuli_distractor_trianglediamonds.svg	38	no	0	1	2000
6.6.1	win	2022-12-26	22:09:12	22:18:14	537172	62b083f9ca87faa7a75c0235	177511403	1	main_z	11	advance_on_keypress_ZEE	72	stimuli_distractor_diamondtriangles.svg	stimuli_distractor_trianglediamonds.svg	38	no	57	0	437
6.6.1	win	2022-12-26	22:09:12	22:18:16	538968	62b083f9ca87faa7a75c0235	177511403	1	main_z	11	main_z	73	stimuli_distractor_diamondtriangles.svg	stimuli_target_diamondsquares.svg	32	yes	44	1	679
6.6.1	win	2022-12-26	22:09:12	22:18:16	538968	62b083f9ca87faa7a75c0235	177511403	1	main_z	11	advance_on_keypress_ZEE	74	stimuli_distractor_diamondtriangles.svg	stimuli_target_diamondsquares.svg	32	yes	57	0	212
6.6.1	win	2022-12-26	22:09:12	22:18:17	540365	62b083f9ca87faa7a75c0235	177511403	1	main_z	11	main_z	75	stimuli_distractor_trianglediamonds.svg	stimuli_target_circletriangles.svg	9	yes	44	1	476
6.6.1	win	2022-12-26	22:09:12	22:18:17	540365	62b083f9ca87faa7a75c0235	177511403	1	main_z	11	advance_on_keypress_ZEE	76	stimuli_distractor_trianglediamonds.svg	stimuli_target_circletriangles.svg	9	yes	57	0	380
6.6.1	win	2022-12-26	22:09:12	22:18:19	541859	62b083f9ca87faa7a75c0235	177511403	1	main_z	11	main_z	77	stimuli_target_trianglecircles.svg	stimuli_distractor_diamondtriangles.svg	21	yes	44	1	420
6.6.1	win	2022-12-26	22:09:12	22:18:19	541859	62b083f9ca87faa7a75c0235	177511403	1	main_z	11	advance_on_keypress_ZEE	78	stimuli_target_trianglecircles.svg	stimuli_distractor_diamondtriangles.svg	21	yes	57	0	207
6.6.1	win	2022-12-26	22:09:12	22:18:20	543373	62b083f9ca87faa7a75c0235	177511403	1	main_z	11	main_z	79	stimuli_distractor_diamondtriangles.svg	stimuli_target_trianglesquares.svg	30	yes	44	1	600
6.6.1	win	2022-12-26	22:09:12	22:18:20	543373	62b083f9ca87faa7a75c0235	177511403	1	main_z	11	advance_on_keypress_ZEE	80	stimuli_distractor_diamondtriangles.svg	stimuli_target_trianglesquares.svg	30	yes	57	0	202
6.6.1	win	2022-12-26	22:09:12	22:18:21	544748	62b083f9ca87faa7a75c0235	177511403	1	main_z	11	main_z	81	stimuli_target_diamondsquares.svg	stimuli_distractor_trianglediamonds.svg	20	yes	44	1	476
6.6.1	win	2022-12-26	22:09:12	22:18:21	544748	62b083f9ca87faa7a75c0235	177511403	1	main_z	11	advance_on_keypress_ZEE	82	stimuli_target_diamondsquares.svg	stimuli_distractor_trianglediamonds.svg	20	yes	57	0	161
6.6.1	win	2022-12-26	22:09:12	22:18:23	546118	62b083f9ca87faa7a75c0235	177511403	1	main_z	11	main_z	83	stimuli_target_trianglesquares.svg	stimuli_distractor_diamondtriangles.svg	22	yes	44	1	512
6.6.1	win	2022-12-26	22:09:12	22:18:23	546118	62b083f9ca87faa7a75c0235	177511403	1	main_z	11	advance_on_keypress_ZEE	84	stimuli_target_trianglesquares.svg	stimuli_distractor_diamondtriangles.svg	22	yes	57	0	73
6.6.1	win	2022-12-26	22:09:12	22:18:24	547463	62b083f9ca87faa7a75c0235	177511403	1	main_z	11	main_z	85	stimuli_distractor_diamondtriangles.svg	stimuli_target_squarediamonds.svg	16	yes	44	1	558
6.6.1	win	2022-12-26	22:09:12	22:18:24	547463	62b083f9ca87faa7a75c0235	177511403	1	main_z	11	advance_on_keypress_ZEE	86	stimuli_distractor_diamondtriangles.svg	stimuli_target_squarediamonds.svg	16	yes	57	0	73
6.6.1	win	2022-12-26	22:09:12	22:18:26	549645	62b083f9ca87faa7a75c0235	177511403	1	main_z	11	main_z	87	stimuli_distractor_trianglediamonds.svg	stimuli_target_diamondsquares.svg	28	yes	44	1	1390
6.6.1	win	2022-12-26	22:09:12	22:18:26	549645	62b083f9ca87faa7a75c0235	177511403	1	main_z	11	advance_on_keypress_ZEE	88	stimuli_distractor_trianglediamonds.svg	stimuli_target_diamondsquares.svg	28	yes	57	0	72
6.6.1	win	2022-12-26	22:09:12	22:18:29	552422	62b083f9ca87faa7a75c0235	177511403	1	main_z	11	main_z	89	stimuli_distractor_diamondtriangles.svg	stimuli_distractor_diamondtriangles.svg	39	no	0	1	2000
6.6.1	win	2022-12-26	22:09:12	22:18:29	552422	62b083f9ca87faa7a75c0235	177511403	1	main_z	11	advance_on_keypress_ZEE	90	stimuli_distractor_diamondtriangles.svg	stimuli_distractor_diamondtriangles.svg	39	no	57	0	334
6.6.1	win	2022-12-26	22:09:12	22:18:31	553984	62b083f9ca87faa7a75c0235	177511403	1	main_z	11	main_z	91	stimuli_target_circlediamonds.svg	stimuli_distractor_diamondtriangles.svg	6	yes	44	1	511
6.6.1	win	2022-12-26	22:09:12	22:18:31	553984	62b083f9ca87faa7a75c0235	177511403	1	main_z	11	advance_on_keypress_ZEE	92	stimuli_target_circlediamonds.svg	stimuli_distractor_diamondtriangles.svg	6	yes	57	0	68
6.6.1	win	2022-12-26	22:09:12	22:18:32	555317	62b083f9ca87faa7a75c0235	177511403	1	main_z	11	main_z	93	stimuli_distractor_trianglediamonds.svg	stimuli_target_squarediamonds.svg	12	yes	44	1	562
6.6.1	win	2022-12-26	22:09:12	22:18:32	555317	62b083f9ca87faa7a75c0235	177511403	1	main_z	11	advance_on_keypress_ZEE	94	stimuli_distractor_trianglediamonds.svg	stimuli_target_squarediamonds.svg	12	yes	57	0	97
6.6.1	win	2022-12-26	22:09:12	22:18:33	556704	62b083f9ca87faa7a75c0235	177511403	1	main_z	11	main_z	95	stimuli_target_trianglesquares.svg	stimuli_distractor_trianglediamonds.svg	18	yes	44	1	583
6.6.1	win	2022-12-26	22:09:12	22:18:33	556704	62b083f9ca87faa7a75c0235	177511403	1	main_z	11	advance_on_keypress_ZEE	96	stimuli_target_trianglesquares.svg	stimuli_distractor_trianglediamonds.svg	18	yes	57	0	101
6.6.1	win	2022-12-26	22:09:12	22:18:36	559504	62b083f9ca87faa7a75c0235	177511403	1	main_z	11	main_z	97	stimuli_distractor_trianglediamonds.svg	stimuli_distractor_trianglediamonds.svg	33	no	0	1	2000
6.6.1	win	2022-12-26	22:09:12	22:18:36	559504	62b083f9ca87faa7a75c0235	177511403	1	main_z	11	advance_on_keypress_ZEE	98	stimuli_distractor_trianglediamonds.svg	stimuli_distractor_trianglediamonds.svg	33	no	57	0	349
6.6.1	win	2022-12-26	22:09:12	22:18:38	560915	62b083f9ca87faa7a75c0235	177511403	1	main_z	11	main_z	99	stimuli_target_squarediamonds.svg	stimuli_distractor_diamondtriangles.svg	8	yes	44	1	382
6.6.1	win	2022-12-26	22:09:12	22:18:38	560915	62b083f9ca87faa7a75c0235	177511403	1	main_z	11	advance_on_keypress_ZEE	100	stimuli_target_squarediamonds.svg	stimuli_distractor_diamondtriangles.svg	8	yes	57	0	85
6.6.1	win	2022-12-26	22:09:12	22:18:40	562812	62b083f9ca87faa7a75c0235	177511403	1	main_z	11	main_z	101	stimuli_distractor_trianglediamonds.svg	stimuli_distractor_trianglediamonds.svg	34	no	44	0	1125
6.6.1	win	2022-12-26	22:09:12	22:18:40	562812	62b083f9ca87faa7a75c0235	177511403	1	main_z	11	advance_on_keypress_ZEE	102	stimuli_distractor_trianglediamonds.svg	stimuli_distractor_trianglediamonds.svg	34	no	57	0	25
6.6.1	win	2022-12-26	22:09:12	22:18:41	564093	62b083f9ca87faa7a75c0235	177511403	1	main_z	11	main_z	103	stimuli_distractor_diamondtriangles.svg	stimuli_target_trianglecircles.svg	29	yes	44	1	555
6.6.1	win	2022-12-26	22:09:12	22:18:41	564093	62b083f9ca87faa7a75c0235	177511403	1	main_z	11	advance_on_keypress_ZEE	104	stimuli_distractor_diamondtriangles.svg	stimuli_target_trianglecircles.svg	29	yes	57	0	25
6.6.1	win	2022-12-26	22:09:12	22:18:42	565648	62b083f9ca87faa7a75c0235	177511403	1	main_z	11	main_z	105	stimuli_distractor_diamondtriangles.svg	stimuli_target_circletriangles.svg	13	yes	44	1	826
6.6.1	win	2022-12-26	22:09:12	22:18:42	565648	62b083f9ca87faa7a75c0235	177511403	1	main_z	11	advance_on_keypress_ZEE	106	stimuli_distractor_diamondtriangles.svg	stimuli_target_circletriangles.svg	13	yes	57	0	56
6.6.1	win	2022-12-26	22:09:12	22:18:44	566839	62b083f9ca87faa7a75c0235	177511403	1	main_z	11	main_z	107	stimuli_distractor_diamondtriangles.svg	stimuli_target_circlediamonds.svg	14	yes	44	1	469
6.6.1	win	2022-12-26	22:09:12	22:18:44	566839	62b083f9ca87faa7a75c0235	177511403	1	main_z	11	advance_on_keypress_ZEE	108	stimuli_distractor_diamondtriangles.svg	stimuli_target_circlediamonds.svg	14	yes	57	0	68
6.6.1	win	2022-12-26	22:09:12	22:18:46	568846	62b083f9ca87faa7a75c0235	177511403	1	main_z	11	main_z	109	stimuli_distractor_trianglediamonds.svg	stimuli_target_diamondcircles.svg	27	yes	44	1	1243
6.6.1	win	2022-12-26	22:09:12	22:18:46	568846	62b083f9ca87faa7a75c0235	177511403	1	main_z	11	advance_on_keypress_ZEE	110	stimuli_distractor_trianglediamonds.svg	stimuli_target_diamondcircles.svg	27	yes	57	0	46
6.6.1	win	2022-12-26	22:09:12	22:18:47	570159	62b083f9ca87faa7a75c0235	177511403	1	main_z	11	main_z	111	stimuli_target_squaretriangles.svg	stimuli_distractor_trianglediamonds.svg	3	yes	44	1	572
6.6.1	win	2022-12-26	22:09:12	22:18:47	570159	62b083f9ca87faa7a75c0235	177511403	1	main_z	11	advance_on_keypress_ZEE	112	stimuli_target_squaretriangles.svg	stimuli_distractor_trianglediamonds.svg	3	yes	57	0	78
6.6.1	win	2022-12-26	22:09:12	22:18:48	571406	62b083f9ca87faa7a75c0235	177511403	1	main_z	11	main_z	113	stimuli_target_circletriangles.svg	stimuli_distractor_trianglediamonds.svg	1	yes	44	1	469
6.6.1	win	2022-12-26	22:09:12	22:18:48	571406	62b083f9ca87faa7a75c0235	177511403	1	main_z	11	advance_on_keypress_ZEE	114	stimuli_target_circletriangles.svg	stimuli_distractor_trianglediamonds.svg	1	yes	57	0	73
6.6.1	win	2022-12-26	22:09:12	22:18:50	572828	62b083f9ca87faa7a75c0235	177511403	1	main_z	11	main_z	115	stimuli_target_squaretriangles.svg	stimuli_distractor_diamondtriangles.svg	7	yes	44	1	640
6.6.1	win	2022-12-26	22:09:12	22:18:50	572828	62b083f9ca87faa7a75c0235	177511403	1	main_z	11	advance_on_keypress_ZEE	116	stimuli_target_squaretriangles.svg	stimuli_distractor_diamondtriangles.svg	7	yes	57	0	88
6.6.1	win	2022-12-26	22:09:12	22:18:52	575637	62b083f9ca87faa7a75c0235	177511403	1	main_z	11	main_z	117	stimuli_distractor_diamondtriangles.svg	stimuli_distractor_trianglediamonds.svg	37	no	0	1	2000
6.6.1	win	2022-12-26	22:09:12	22:18:52	575637	62b083f9ca87faa7a75c0235	177511403	1	main_z	11	advance_on_keypress_ZEE	118	stimuli_distractor_diamondtriangles.svg	stimuli_distractor_trianglediamonds.svg	37	no	57	0	506
6.6.1	win	2022-12-26	22:09:12	22:18:54	577250	62b083f9ca87faa7a75c0235	177511403	1	main_z	11	main_z	119	stimuli_distractor_trianglediamonds.svg	stimuli_target_trianglecircles.svg	25	yes	44	1	397
6.6.1	win	2022-12-26	22:09:12	22:18:54	577250	62b083f9ca87faa7a75c0235	177511403	1	main_z	11	advance_on_keypress_ZEE	120	stimuli_distractor_trianglediamonds.svg	stimuli_target_trianglecircles.svg	25	yes	57	0	76
6.6.1	win	2022-12-26	22:09:12	22:18:55	578630	62b083f9ca87faa7a75c0235	177511403	1	main_z	11	main_z	121	stimuli_distractor_trianglediamonds.svg	stimuli_distractor_diamondtriangles.svg	35	no	44	0	611
6.6.1	win	2022-12-26	22:09:12	22:18:55	578630	62b083f9ca87faa7a75c0235	177511403	1	main_z	11	advance_on_keypress_ZEE	122	stimuli_distractor_trianglediamonds.svg	stimuli_distractor_diamondtriangles.svg	35	no	57	0	96
6.6.1	win	2022-12-26	22:09:12	22:18:57	580082	62b083f9ca87faa7a75c0235	177511403	1	main_z	11	main_z	123	stimuli_target_trianglecircles.svg	stimuli_distractor_trianglediamonds.svg	17	yes	44	1	679
6.6.1	win	2022-12-26	22:09:12	22:18:57	580082	62b083f9ca87faa7a75c0235	177511403	1	main_z	11	advance_on_keypress_ZEE	124	stimuli_target_trianglecircles.svg	stimuli_distractor_trianglediamonds.svg	17	yes	57	0	44
6.6.1	win	2022-12-26	22:09:12	22:18:58	581329	62b083f9ca87faa7a75c0235	177511403	1	main_z	11	main_z	125	stimuli_distractor_diamondtriangles.svg	stimuli_target_trianglesquares.svg	30	yes	44	1	493
6.6.1	win	2022-12-26	22:09:12	22:18:58	581329	62b083f9ca87faa7a75c0235	177511403	1	main_z	11	advance_on_keypress_ZEE	126	stimuli_distractor_diamondtriangles.svg	stimuli_target_trianglesquares.svg	30	yes	57	0	87
6.6.1	win	2022-12-26	22:09:12	22:18:59	582661	62b083f9ca87faa7a75c0235	177511403	1	main_z	11	main_z	127	stimuli_distractor_diamondtriangles.svg	stimuli_target_diamondsquares.svg	32	yes	44	1	557
6.6.1	win	2022-12-26	22:09:12	22:18:59	582661	62b083f9ca87faa7a75c0235	177511403	1	main_z	11	advance_on_keypress_ZEE	128	stimuli_distractor_diamondtriangles.svg	stimuli_target_diamondsquares.svg	32	yes	57	0	48
6.6.1	win	2022-12-26	22:09:12	22:19:02	585420	62b083f9ca87faa7a75c0235	177511403	1	main_z	11	main_z	129	stimuli_target_circletriangles.svg	stimuli_distractor_diamondtriangles.svg	5	yes	0	0	2000
6.6.1	win	2022-12-26	22:09:12	22:19:02	585420	62b083f9ca87faa7a75c0235	177511403	1	main_z	11	advance_on_keypress_ZEE	130	stimuli_target_circletriangles.svg	stimuli_distractor_diamondtriangles.svg	5	yes	57	0	413
6.6.1	win	2022-12-26	22:09:12	22:19:04	587067	62b083f9ca87faa7a75c0235	177511403	1	main_z	11	main_z	131	stimuli_distractor_trianglediamonds.svg	stimuli_target_circlediamonds.svg	10	yes	44	1	528
6.6.1	win	2022-12-26	22:09:12	22:19:04	587067	62b083f9ca87faa7a75c0235	177511403	1	main_z	11	advance_on_keypress_ZEE	132	stimuli_distractor_trianglediamonds.svg	stimuli_target_circlediamonds.svg	10	yes	57	0	60
6.6.1	win	2022-12-26	22:09:12	22:19:05	588243	62b083f9ca87faa7a75c0235	177511403	1	main_z	11	main_z	133	stimuli_distractor_trianglediamonds.svg	stimuli_target_circletriangles.svg	9	yes	44	1	407
6.6.1	win	2022-12-26	22:09:12	22:19:05	588243	62b083f9ca87faa7a75c0235	177511403	1	main_z	11	advance_on_keypress_ZEE	134	stimuli_distractor_trianglediamonds.svg	stimuli_target_circletriangles.svg	9	yes	57	0	79
6.6.1	win	2022-12-26	22:09:12	22:19:07	590459	62b083f9ca87faa7a75c0235	177511403	1	main_z	11	main_z	135	stimuli_distractor_diamondtriangles.svg	stimuli_target_squaretriangles.svg	15	yes	44	1	1422
6.6.1	win	2022-12-26	22:09:12	22:19:07	590459	62b083f9ca87faa7a75c0235	177511403	1	main_z	11	advance_on_keypress_ZEE	136	stimuli_distractor_diamondtriangles.svg	stimuli_target_squaretriangles.svg	15	yes	57	0	51
6.6.1	win	2022-12-26	22:09:12	22:19:08	591665	62b083f9ca87faa7a75c0235	177511403	1	main_z	11	main_z	137	stimuli_target_squarediamonds.svg	stimuli_distractor_trianglediamonds.svg	4	yes	44	1	445
6.6.1	win	2022-12-26	22:09:12	22:19:08	591665	62b083f9ca87faa7a75c0235	177511403	1	main_z	11	advance_on_keypress_ZEE	138	stimuli_target_squarediamonds.svg	stimuli_distractor_trianglediamonds.svg	4	yes	57	0	83
6.6.1	win	2022-12-26	22:09:12	22:19:11	594452	62b083f9ca87faa7a75c0235	177511403	1	main_z	11	main_z	139	stimuli_distractor_trianglediamonds.svg	stimuli_distractor_diamondtriangles.svg	36	no	0	1	2000
6.6.1	win	2022-12-26	22:09:12	22:19:11	594452	62b083f9ca87faa7a75c0235	177511403	1	main_z	11	advance_on_keypress_ZEE	140	stimuli_distractor_trianglediamonds.svg	stimuli_distractor_diamondtriangles.svg	36	no	57	0	341
6.6.1	win	2022-12-26	22:09:12	22:19:13	595897	62b083f9ca87faa7a75c0235	177511403	1	main_z	11	main_z	141	stimuli_distractor_trianglediamonds.svg	stimuli_target_squaretriangles.svg	11	yes	44	1	390
6.6.1	win	2022-12-26	22:09:12	22:19:13	595897	62b083f9ca87faa7a75c0235	177511403	1	main_z	11	advance_on_keypress_ZEE	142	stimuli_distractor_trianglediamonds.svg	stimuli_target_squaretriangles.svg	11	yes	57	0	53
6.6.1	win	2022-12-26	22:09:12	22:19:14	597182	62b083f9ca87faa7a75c0235	177511403	1	main_z	11	main_z	143	stimuli_target_diamondcircles.svg	stimuli_distractor_trianglediamonds.svg	19	yes	44	1	513
6.6.1	win	2022-12-26	22:09:12	22:19:14	597182	62b083f9ca87faa7a75c0235	177511403	1	main_z	11	advance_on_keypress_ZEE	144	stimuli_target_diamondcircles.svg	stimuli_distractor_trianglediamonds.svg	19	yes	57	0	45
6.6.1	win	2022-12-26	22:09:12	22:19:16	599089	62b083f9ca87faa7a75c0235	177511403	1	main_z	11	main_z	145	stimuli_target_diamondsquares.svg	stimuli_distractor_diamondtriangles.svg	24	yes	44	1	1154
6.6.1	win	2022-12-26	22:09:12	22:19:16	599089	62b083f9ca87faa7a75c0235	177511403	1	main_z	11	advance_on_keypress_ZEE	146	stimuli_target_diamondsquares.svg	stimuli_distractor_diamondtriangles.svg	24	yes	57	0	32
6.6.1	win	2022-12-26	22:09:12	22:19:17	600579	62b083f9ca87faa7a75c0235	177511403	1	main_z	11	main_z	147	stimuli_distractor_diamondtriangles.svg	stimuli_target_diamondcircles.svg	31	yes	44	1	760
6.6.1	win	2022-12-26	22:09:12	22:19:17	600579	62b083f9ca87faa7a75c0235	177511403	1	main_z	11	advance_on_keypress_ZEE	148	stimuli_distractor_diamondtriangles.svg	stimuli_target_diamondcircles.svg	31	yes	57	0	72
6.6.1	win	2022-12-26	22:09:12	22:19:19	602179	62b083f9ca87faa7a75c0235	177511403	1	main_z	11	main_z	149	stimuli_target_diamondcircles.svg	stimuli_distractor_diamondtriangles.svg	23	yes	44	1	843
6.6.1	win	2022-12-26	22:09:12	22:19:19	602179	62b083f9ca87faa7a75c0235	177511403	1	main_z	11	advance_on_keypress_ZEE	150	stimuli_target_diamondcircles.svg	stimuli_distractor_diamondtriangles.svg	23	yes	57	0	87
6.6.1	win	2022-12-26	22:09:12	22:19:20	603481	62b083f9ca87faa7a75c0235	177511403	1	main_z	11	main_z	151	stimuli_target_trianglecircles.svg	stimuli_distractor_diamondtriangles.svg	21	yes	44	1	522
6.6.1	win	2022-12-26	22:09:12	22:19:20	603481	62b083f9ca87faa7a75c0235	177511403	1	main_z	11	advance_on_keypress_ZEE	152	stimuli_target_trianglecircles.svg	stimuli_distractor_diamondtriangles.svg	21	yes	57	0	137
6.6.1	win	2022-12-26	22:09:12	22:19:23	606302	62b083f9ca87faa7a75c0235	177511403	1	main_z	11	main_z	153	stimuli_distractor_diamondtriangles.svg	stimuli_distractor_diamondtriangles.svg	40	no	0	1	2000
6.6.1	win	2022-12-26	22:09:12	22:19:23	606302	62b083f9ca87faa7a75c0235	177511403	1	main_z	11	advance_on_keypress_ZEE	154	stimuli_distractor_diamondtriangles.svg	stimuli_distractor_diamondtriangles.svg	40	no	57	0	334
6.6.1	win	2022-12-26	22:09:12	22:19:24	607729	62b083f9ca87faa7a75c0235	177511403	1	main_z	11	main_z	155	stimuli_target_circlediamonds.svg	stimuli_distractor_trianglediamonds.svg	2	yes	44	1	375
6.6.1	win	2022-12-26	22:09:12	22:19:24	607729	62b083f9ca87faa7a75c0235	177511403	1	main_z	11	advance_on_keypress_ZEE	156	stimuli_target_circlediamonds.svg	stimuli_distractor_trianglediamonds.svg	2	yes	57	0	9
6.6.1	win	2022-12-26	22:09:12	22:19:26	608944	62b083f9ca87faa7a75c0235	177511403	1	main_z	11	main_z	157	stimuli_distractor_trianglediamonds.svg	stimuli_target_trianglesquares.svg	26	yes	44	1	475
6.6.1	win	2022-12-26	22:09:12	22:19:26	608944	62b083f9ca87faa7a75c0235	177511403	1	main_z	11	advance_on_keypress_ZEE	158	stimuli_distractor_trianglediamonds.svg	stimuli_target_trianglesquares.svg	26	yes	57	0	97
6.6.1	win	2022-12-26	22:09:12	22:19:28	611734	62b083f9ca87faa7a75c0235	177511403	1	main_z	11	main_z	159	stimuli_distractor_diamondtriangles.svg	stimuli_distractor_trianglediamonds.svg	38	no	0	1	2000
6.6.1	win	2022-12-26	22:09:12	22:19:28	611734	62b083f9ca87faa7a75c0235	177511403	1	main_z	11	advance_on_keypress_ZEE	160	stimuli_distractor_diamondtriangles.svg	stimuli_distractor_trianglediamonds.svg	38	no	57	0	932